thisN,thisTrialN,thisRepN,effect,order,distance,config,diag,h_1,w_1,h_2,w_2,h_3,w_3,rect_choice.keys,rect_choice.rt,rect_choice.duration,instructions_loop.thisRepN,instructions_loop.thisTrialN,instructions_loop.thisN,instructions_loop.thisIndex,blocks.thisRepN,blocks.thisTrialN,blocks.thisN,blocks.thisIndex,trials.thisRepN,trials.thisTrialN,trials.thisN,trials.thisIndex,thisRow.t,notes,consent.started,agree_button.started,decline_button.started,consent_img.started,mouse.started,consent.stopped,agree_button.numClicks,agree_button.timesOn,agree_button.timesOff,decline_button.numClicks,decline_button.timesOn,decline_button.timesOff,mouse.x,mouse.y,mouse.leftButton,mouse.midButton,mouse.rightButton,mouse.time,mouse.clicked_name,exp_params.started,exp_params.stopped,welcome.started,welcome_text.started,welcome.stopped,instructions_1.started,instructions_1_text_1.started,instructions_1_text_2.started,key_resp.started,instructions_1.stopped,instructions_loop.key_resp.keys,instructions_loop.key_resp.rt,instructions_loop.key_resp.duration,instructions_2.started,instructions_2_text_1.started,instructions_2_text_2.started,key_resp_2.started,instructions_2.stopped,instructions_loop.key_resp_2.keys,instructions_loop.key_resp_2.rt,instructions_loop.key_resp_2.duration,instructions_3.started,instructions_3_text_1.started,r1_instr3.started,r2_instr3.started,r3_instr3.started,r1_instr3_label.started,r2_instr3_label.started,r3_instr3_label.started,instructions_3_text_3.started,instructions_3_text_4.started,key_resp_3.started,instructions_3.stopped,instructions_loop.key_resp_3.keys,instructions_loop.key_resp_3.rt,instructions_loop.key_resp_3.duration,instructions_4.started,instructions_4_text_1.started,instructions_4_text_3.started,instructions_4_text_2.started,key_resp_4.started,instructions_4.stopped,instructions_loop.key_resp_4.keys,instructions_loop.key_resp_4.rt,instructions_loop.key_resp_4.duration,instructions_5.started,instructions_5_text_1.started,instructions_5_text_2.started,key_resp_5.started,instructions_5.stopped,instructions_loop.key_resp_5.keys,instructions_loop.key_resp_5.rt,instructions_loop.key_resp_5.duration,start_exp.started,start_exp_text.started,key_resp_6.started,start_exp.stopped,key_resp_6.keys,key_resp_6.rt,key_resp_6.duration,h_1_tmp,w_1_tmp,h_2_tmp,w_2_tmp,h_3_tmp,w_3_tmp,config_tmp,config_tmp_1,r_1_x,r_1_y,r_2_x,r_2_y,r_3_x,r_3_y,pre_trial.started,pre_trial.stopped,choice_trial.started,rect_choice.started,r_1.started,r_2.started,r_3.started,r_1_label.started,r_2_label.started,r_3_label.started,prompt.started,print_config.started,print_effect.started,print_config_1.started,print_distance.started,choice_trial.stopped,trials.rect_choice.keys,trials.rect_choice.rt,trials.rect_choice.duration,end_block.started,end_block_text.started,end_block.stopped,end.started,end_text.started,key_resp_7.started,end.stopped,key_resp_7.keys,key_resp_7.rt,key_resp_7.duration,debriefing.started,debrief_form.started,end_debrief.started,debriefing.stopped,end_debrief.keys,end_debrief.rt,end_debrief.duration,participant,computer,date,expName,psychopyVersion,frameRate,expStart,
,,,,,,,,,,,,,,,,,,,,,,,,,,,,,,,0.017116308212280273,0.04539084434509277,0.04539084434509277,0.04539084434509277,0.016748428344726562,1.8732657432556152,1,[1.826082706451416],[1.8260960578918457],0,,,[-58.0],[-484.0],[1],[0],[0],[1.8551013469696045],['agree_button'],,,,,,,,,,,,,,,,,,,,,,,,,,,,,,,,,,,,,,,,,,,,,,,,,,,,,,,,,,,,,,,,,,,,,,,,,,,,,,,,,,,,,,,,,,,,,,,,,,,,,,,,,,,,,,,99999,99999,2025-02-07_13h43.02.637,comp,2024.2.4,60.071553583551264,2025-02-07 13h43.12.426993 -0500,
,,,,,,,,,,,,,,,,,,,,,,,,,,,,,,,,,,,,,,,,,,,,,,,,,,1.8735435009002686,1.8739879131317139,,,,,,,,,,,,,,,,,,,,,,,,,,,,,,,,,,,,,,,,,,,,,,,,,,,,,,,,,,,,,,,,,,,,,,,,,,,,,,,,,,,,,,,,,,,,,,,,,,,,,,,,,,,,,99999,99999,2025-02-07_13h43.02.637,comp,2024.2.4,60.071553583551264,2025-02-07 13h43.12.426993 -0500,
,,,,,,,,,,,,,,,,,,,,,,,,,,,,,,,,,,,,,,,,,,,,,,,,,,,,1.8740308284759521,1.8882324695587158,3.885148525238037,,,,,,,,,,,,,,,,,,,,,,,,,,,,,,,,,,,,,,,,,,,,,,,,,,,,,,,,,,,,,,,,,,,,,,,,,,,,,,,,,,,,,,,,,,,,,,,,,,,,,,,,,,99999,99999,2025-02-07_13h43.02.637,comp,2024.2.4,60.071553583551264,2025-02-07 13h43.12.426993 -0500,
0,0,0,,,,,,,,,,,,,,,0,0,0,0,,,,,,,,,3.9019815921783447,,,,,,,,,,,,,,,,,,,,,,,,,,3.8856945037841797,3.9019815921783447,3.9019815921783447,5.385162591934204,5.603293180465698,space,0.20048856735229492,None,5.6033735275268555,5.61875319480896,5.61875319480896,7.118486642837524,7.269935369491577,space,0.1386713981628418,None,7.270012617111206,7.291901588439941,7.291901588439941,7.291901588439941,7.291901588439941,7.291901588439941,7.291901588439941,7.291901588439941,7.291901588439941,7.291901588439941,8.785602331161499,8.803658246994019,space,0.0005762577056884766,None,8.803762674331665,8.819129943847656,8.819129943847656,8.819129943847656,10.318626165390015,10.63659405708313,space,0.30761265754699707,None,10.636698722839355,10.652006387710571,10.652006387710571,12.151725053787231,12.486793518066406,space,0.3321061134338379,None,12.486916542053223,12.501935958862305,12.501935958862305,13.619682550430298,space,1.1083192825317383,None,,,,,,,,,,,,,,,,,,,,,,,,,,,,,,,,,,,,,,,,,,,,,,,,,,,99999,99999,2025-02-07_13h43.02.637,comp,2024.2.4,60.071553583551264,2025-02-07 13h43.12.426993 -0500,
0,0,0,critical,whd,60.0,2.1,upper,125.0,200.0,200.0,125.0,100.0,100.0,2,4.166390895843506,None,,,,,0,0,0,0,0,0,0,39,13.701587200164795,,,,,,,,,,,,,,,,,,,,,,,,,,,,,,,,,,,,,,,,,,,,,,,,,,,,,,,,,,,,,,,,,,,,,,,,,,,,,,,,,125.0,200.0,200.0,125.0,100.0,100.0,2.1,2.12,-258,-279,0,-287,208,282,13.664706945419312,13.665297269821167,13.689391613006592,13.701587200164795,13.832011461257935,13.832011461257935,13.832011461257935,13.832011461257935,13.832011461257935,13.832011461257935,13.832011461257935,13.832011461257935,13.832011461257935,13.832011461257935,13.832011461257935,17.886902570724487,2,4.166390895843506,None,,,,,,,,,,,,,,,,,,99999,99999,2025-02-07_13h43.02.637,comp,2024.2.4,60.071553583551264,2025-02-07 13h43.12.426993 -0500,
1,1,0,filler_square,None,None,None,None,None,None,None,None,None,None,1,0.8925676345825195,None,,,,,0,0,0,0,0,1,1,192,17.91776990890503,,,,,,,,,,,,,,,,,,,,,,,,,,,,,,,,,,,,,,,,,,,,,,,,,,,,,,,,,,,,,,,,,,,,,,,,,,,,,,,,,59.61861148551801,82.82396676588215,172.55096824455313,138.80340415427864,187.38247183077465,187.38247183077465,1.0,1.2,-207,-10,0,-18,259,-19,17.8878333568573,17.888341665267944,17.9063081741333,17.91776990890503,18.055729627609253,18.055729627609253,18.055729627609253,18.055729627609253,18.055729627609253,18.055729627609253,18.055729627609253,18.055729627609253,18.055729627609253,18.055729627609253,18.055729627609253,18.820619344711304,1,0.8925676345825195,None,,,,,,,,,,,,,,,,,,99999,99999,2025-02-07_13h43.02.637,comp,2024.2.4,60.071553583551264,2025-02-07 13h43.12.426993 -0500,
2,2,0,critical,dwh,45.0,4.0,lower,65.0,65.0,57.0,133.0,133.0,57.0,2,0.7280378341674805,None,,,,,0,0,0,0,0,2,2,64,18.85023021697998,,,,,,,,,,,,,,,,,,,,,,,,,,,,,,,,,,,,,,,,,,,,,,,,,,,,,,,,,,,,,,,,,,,,,,,,,,,,,,,,,65.0,65.0,57.0,133.0,133.0,57.0,4.0,4.1,-195,-258,0,-8,191,-255,18.82139801979065,18.821828365325928,18.838409662246704,18.85023021697998,18.988728046417236,18.988728046417236,18.988728046417236,18.988728046417236,18.988728046417236,18.988728046417236,18.988728046417236,18.988728046417236,18.988728046417236,18.988728046417236,18.988728046417236,19.58689308166504,2,0.7280378341674805,None,,,,,,,,,,,,,,,,,,99999,99999,2025-02-07_13h43.02.637,comp,2024.2.4,60.071553583551264,2025-02-07 13h43.12.426993 -0500,
3,3,0,catch,None,None,None,None,None,None,None,None,None,None,3,1.7610218524932861,None,,,,,0,0,0,0,0,3,3,127,19.61710810661316,,,,,,,,,,,,,,,,,,,,,,,,,,,,,,,,,,,,,,,,,,,,,,,,,,,,,,,,,,,,,,,,,,,,,,,,,,,,,,,,,104,86,130,60,191,134,2.1,2.11,-169,264,0,270,193,-268,19.58802032470703,19.588600397109985,19.604602336883545,19.61710810661316,19.759007215499878,19.759007215499878,19.759007215499878,19.759007215499878,19.759007215499878,19.759007215499878,19.759007215499878,19.759007215499878,19.759007215499878,19.759007215499878,19.759007215499878,21.386904001235962,3,1.7610218524932861,None,,,,,,,,,,,,,,,,,,99999,99999,2025-02-07_13h43.02.637,comp,2024.2.4,60.071553583551264,2025-02-07 13h43.12.426993 -0500,
4,4,0,filler_square,None,None,None,None,None,None,None,None,None,None,2,1.2904014587402344,None,,,,,0,0,0,0,0,4,4,170,21.41616129875183,,,,,,,,,,,,,,,,,,,,,,,,,,,,,,,,,,,,,,,,,,,,,,,,,,,,,,,,,,,,,,,,,,,,,,,,,,,,,,,,,122.10357275530613,122.10357275530613,82.44069464678725,115.62706761688466,84.2671083331742,75.75789797376324,2.1,2.11,-215,271,0,251,192,-269,21.387842655181885,21.38835072517395,21.40414547920227,21.41616129875183,21.555641889572144,21.555641889572144,21.555641889572144,21.555641889572144,21.555641889572144,21.555641889572144,21.555641889572144,21.555641889572144,21.555641889572144,21.555641889572144,21.555641889572144,22.72009563446045,2,1.2904014587402344,None,,,,,,,,,,,,,,,,,,99999,99999,2025-02-07_13h43.02.637,comp,2024.2.4,60.071553583551264,2025-02-07 13h43.12.426993 -0500,
5,5,0,critical,dhw,45.0,2.1,upper,117.0,117.0,200.0,125.0,125.0,200.0,2,1.061877965927124,None,,,,,0,0,0,0,0,5,5,1,22.74862504005432,,,,,,,,,,,,,,,,,,,,,,,,,,,,,,,,,,,,,,,,,,,,,,,,,,,,,,,,,,,,,,,,,,,,,,,,,,,,,,,,,117.0,117.0,200.0,125.0,125.0,200.0,2.1,2.11,-217,255,0,271,258,-282,22.7208731174469,22.721330642700195,22.73692011833191,22.74862504005432,22.88871121406555,22.88871121406555,22.88871121406555,22.88871121406555,22.88871121406555,22.88871121406555,22.88871121406555,22.88871121406555,22.88871121406555,22.88871121406555,22.88871121406555,23.82013511657715,2,1.061877965927124,None,,,,,,,,,,,,,,,,,,99999,99999,2025-02-07_13h43.02.637,comp,2024.2.4,60.071553583551264,2025-02-07 13h43.12.426993 -0500,
6,6,0,critical,dhw,60.0,2.1,upper,100.0,100.0,200.0,125.0,125.0,200.0,2,0.7900786399841309,None,,,,,0,0,0,0,0,6,6,27,23.845324993133545,,,,,,,,,,,,,,,,,,,,,,,,,,,,,,,,,,,,,,,,,,,,,,,,,,,,,,,,,,,,,,,,,,,,,,,,,,,,,,,,,100.0,100.0,200.0,125.0,125.0,200.0,2.1,2.11,-208,260,0,276,258,-282,23.820884943008423,23.821331024169922,23.833249807357788,23.845324993133545,23.988925218582153,23.988925218582153,23.988925218582153,23.988925218582153,23.988925218582153,23.988925218582153,23.988925218582153,23.988925218582153,23.988925218582153,23.988925218582153,23.988925218582153,24.653794288635254,2,0.7900786399841309,None,,,,,,,,,,,,,,,,,,99999,99999,2025-02-07_13h43.02.637,comp,2024.2.4,60.071553583551264,2025-02-07 13h43.12.426993 -0500,
7,7,0,filler_square,None,None,None,None,None,None,None,None,None,None,3,0.9916670322418213,None,,,,,0,0,0,0,0,7,7,205,24.68134880065918,,,,,,,,,,,,,,,,,,,,,,,,,,,,,,,,,,,,,,,,,,,,,,,,,,,,,,,,,,,,,,,,,,,,,,,,,,,,,,,,,86.91541702118877,61.76755133445216,103.22953035986492,103.22953035986492,85.64802498422554,77.61756478219893,1.0,1.2,-178,-12,0,19,186,-2,24.654698133468628,24.655237913131714,24.66985774040222,24.68134880065918,24.8225314617157,24.8225314617157,24.8225314617157,24.8225314617157,24.8225314617157,24.8225314617157,24.8225314617157,24.8225314617157,24.8225314617157,24.8225314617157,24.8225314617157,25.686893939971924,3,0.9916670322418213,None,,,,,,,,,,,,,,,,,,99999,99999,2025-02-07_13h43.02.637,comp,2024.2.4,60.071553583551264,2025-02-07 13h43.12.426993 -0500,
8,8,0,filler_random,None,None,None,None,None,None,None,None,None,None,2,1.0513455867767334,None,,,,,0,0,0,0,0,8,8,155,25.71858048439026,,,,,,,,,,,,,,,,,,,,,,,,,,,,,,,,,,,,,,,,,,,,,,,,,,,,,,,,,,,,,,,,,,,,,,,,,,,,,,,,,157.4795615498624,158.75753865926328,60.59579956467061,174.31752719590264,178.7781355860805,122.38154517547557,2.2,2.21,-263,-267,0,270,244,288,25.68779754638672,25.688281297683716,25.706595420837402,25.71858048439026,25.858519554138184,25.858519554138184,25.858519554138184,25.858519554138184,25.858519554138184,25.858519554138184,25.858519554138184,25.858519554138184,25.858519554138184,25.858519554138184,25.858519554138184,26.78682827949524,2,1.0513455867767334,None,,,,,,,,,,,,,,,,,,99999,99999,2025-02-07_13h43.02.637,comp,2024.2.4,60.071553583551264,2025-02-07 13h43.12.426993 -0500,
9,9,0,critical,dwh,45.0,1.0,upper,117.0,117.0,125.0,200.0,200.0,125.0,1,0.7628087997436523,None,,,,,0,0,0,0,0,9,9,61,26.81516671180725,,,,,,,,,,,,,,,,,,,,,,,,,,,,,,,,,,,,,,,,,,,,,,,,,,,,,,,,,,,,,,,,,,,,,,,,,,,,,,,,,117.0,117.0,125.0,200.0,200.0,125.0,1.0,1.2,-254,9,0,-10,258,18,26.78760051727295,26.788320064544678,26.80358076095581,26.81516671180725,26.955520629882812,26.955520629882812,26.955520629882812,26.955520629882812,26.955520629882812,26.955520629882812,26.955520629882812,26.955520629882812,26.955520629882812,26.955520629882812,26.955520629882812,27.587132692337036,1,0.7628087997436523,None,,,,,,,,,,,,,,,,,,99999,99999,2025-02-07_13h43.02.637,comp,2024.2.4,60.071553583551264,2025-02-07 13h43.12.426993 -0500,
10,10,0,filler_random,None,None,None,None,None,None,None,None,None,None,3,0.7456927299499512,None,,,,,0,0,0,0,0,10,10,147,27.616400003433228,,,,,,,,,,,,,,,,,,,,,,,,,,,,,,,,,,,,,,,,,,,,,,,,,,,,,,,,,,,,,,,,,,,,,,,,,,,,,,,,,159.00140590177125,162.29663708736518,104.90676584513383,101.41710023849637,98.20169078669113,159.4675433014931,4.0,4.2,-228,-18,0,-279,226,7,27.58807134628296,27.588613271713257,27.604585886001587,27.616400003433228,27.755556106567383,27.755556106567383,27.755556106567383,27.755556106567383,27.755556106567383,27.755556106567383,27.755556106567383,27.755556106567383,27.755556106567383,27.755556106567383,27.755556106567383,28.370542287826538,3,0.7456927299499512,None,,,,,,,,,,,,,,,,,,99999,99999,2025-02-07_13h43.02.637,comp,2024.2.4,60.071553583551264,2025-02-07 13h43.12.426993 -0500,
11,11,0,critical,whd,45.0,3.0,lower,57.0,133.0,133.0,57.0,65.0,65.0,2,1.3376429080963135,None,,,,,0,0,0,0,0,11,11,86,28.399399280548096,,,,,,,,,,,,,,,,,,,,,,,,,,,,,,,,,,,,,,,,,,,,,,,,,,,,,,,,,,,,,,,,,,,,,,,,,,,,,,,,,57.0,133.0,133.0,57.0,65.0,65.0,3.0,3.2,-191,-287,0,-19,157,258,28.371326684951782,28.37183141708374,28.387563467025757,28.399399280548096,28.53923749923706,28.53923749923706,28.53923749923706,28.53923749923706,28.53923749923706,28.53923749923706,28.53923749923706,28.53923749923706,28.53923749923706,28.53923749923706,28.53923749923706,29.75314450263977,2,1.3376429080963135,None,,,,,,,,,,,,,,,,,,99999,99999,2025-02-07_13h43.02.637,comp,2024.2.4,60.071553583551264,2025-02-07 13h43.12.426993 -0500,
12,12,0,filler_random,None,None,None,None,None,None,None,None,None,None,2,10.19582724571228,None,,,,,0,0,0,0,0,12,12,165,29.782612800598145,,,,,,,,,,,,,,,,,,,,,,,,,,,,,,,,,,,,,,,,,,,,,,,,,,,,,,,,,,,,,,,,,,,,,,,,,,,,,,,,,151.31060014833213,186.60449154596202,199.6514442883988,121.47685337855653,185.70667447438075,63.838436490044245,2.2,2.21,-250,-264,0,261,189,282,29.754037141799927,29.7545428276062,29.770474672317505,29.782612800598145,29.9222674369812,29.9222674369812,29.9222674369812,29.9222674369812,29.9222674369812,29.9222674369812,29.9222674369812,29.9222674369812,29.9222674369812,29.9222674369812,29.9222674369812,39.98688244819641,2,10.19582724571228,None,,,,,,,,,,,,,,,,,,99999,99999,2025-02-07_13h43.02.637,comp,2024.2.4,60.071553583551264,2025-02-07 13h43.12.426993 -0500,
13,13,0,catch,None,None,None,None,None,None,None,None,None,None,1,2.361874580383301,None,,,,,0,0,0,0,0,13,13,123,40.01637315750122,,,,,,,,,,,,,,,,,,,,,,,,,,,,,,,,,,,,,,,,,,,,,,,,,,,,,,,,,,,,,,,,,,,,,,,,,,,,,,,,,163,162,78,112,62,128,3.0,3.1,-233,288,0,0,216,-279,39.98794746398926,39.98934507369995,40.004427671432495,40.01637315750122,40.15578103065491,40.15578103065491,40.15578103065491,40.15578103065491,40.15578103065491,40.15578103065491,40.15578103065491,40.15578103065491,40.15578103065491,40.15578103065491,40.15578103065491,42.38670635223389,1,2.361874580383301,None,,,,,,,,,,,,,,,,,,99999,99999,2025-02-07_13h43.02.637,comp,2024.2.4,60.071553583551264,2025-02-07 13h43.12.426993 -0500,
14,14,0,filler_square,None,None,None,None,None,None,None,None,None,None,2,2.9374539852142334,None,,,,,0,0,0,0,0,14,14,203,42.415372133255005,,,,,,,,,,,,,,,,,,,,,,,,,,,,,,,,,,,,,,,,,,,,,,,,,,,,,,,,,,,,,,,,,,,,,,,,,,,,,,,,,93.56799239296954,105.26555910822992,70.78062296812732,89.5483509863048,126.4800405176909,126.4800405176909,2.2,2.22,-193,282,0,-271,204,-267,42.38761854171753,42.38814043998718,42.40347456932068,42.415372133255005,42.55551314353943,42.55551314353943,42.55551314353943,42.55551314353943,42.55551314353943,42.55551314353943,42.55551314353943,42.55551314353943,42.55551314353943,42.55551314353943,42.55551314353943,45.36989092826843,2,2.9374539852142334,None,,,,,,,,,,,,,,,,,,99999,99999,2025-02-07_13h43.02.637,comp,2024.2.4,60.071553583551264,2025-02-07 13h43.12.426993 -0500,
15,15,0,critical,whd,45.0,4.0,lower,57.0,133.0,133.0,57.0,65.0,65.0,1,0.4202713966369629,None,,,,,0,0,0,0,0,15,15,88,45.399118185043335,,,,,,,,,,,,,,,,,,,,,,,,,,,,,,,,,,,,,,,,,,,,,,,,,,,,,,,,,,,,,,,,,,,,,,,,,,,,,,,,,57.0,133.0,133.0,57.0,65.0,65.0,4.0,4.1,-191,-252,0,-12,157,-275,45.37063431739807,45.37130808830261,45.38692665100098,45.399118185043335,45.538480281829834,45.538480281829834,45.538480281829834,45.538480281829834,45.538480281829834,45.538480281829834,45.538480281829834,45.538480281829834,45.538480281829834,45.538480281829834,45.538480281829834,45.83706283569336,1,0.4202713966369629,None,,,,,,,,,,,,,,,,,,99999,99999,2025-02-07_13h43.02.637,comp,2024.2.4,60.071553583551264,2025-02-07 13h43.12.426993 -0500,
16,16,0,critical,hdw,60.0,4.0,lower,133.0,57.0,55.0,55.0,57.0,133.0,3,0.4913330078125,None,,,,,0,0,0,0,0,16,16,118,45.86173629760742,,,,,,,,,,,,,,,,,,,,,,,,,,,,,,,,,,,,,,,,,,,,,,,,,,,,,,,,,,,,,,,,,,,,,,,,,,,,,,,,,133.0,57.0,55.0,55.0,57.0,133.0,4.0,4.1,-152,-278,0,-14,190,-264,45.83786344528198,45.83839511871338,45.850117683410645,45.86173629760742,46.00471067428589,46.00471067428589,46.00471067428589,46.00471067428589,46.00471067428589,46.00471067428589,46.00471067428589,46.00471067428589,46.00471067428589,46.00471067428589,46.00471067428589,46.37013101577759,3,0.4913330078125,None,,,,,,,,,,,,,,,,,,99999,99999,2025-02-07_13h43.02.637,comp,2024.2.4,60.071553583551264,2025-02-07 13h43.12.426993 -0500,
17,17,0,filler_random,None,None,None,None,None,None,None,None,None,None,2,0.38730382919311523,None,,,,,0,0,0,0,0,17,17,145,46.39872121810913,,,,,,,,,,,,,,,,,,,,,,,,,,,,,,,,,,,,,,,,,,,,,,,,,,,,,,,,,,,,,,,,,,,,,,,,,,,,,,,,,138.56209943913052,115.9042832853649,103.73891231985073,116.88147488921626,186.27020740585888,59.64663578667699,1.0,1.2,-212,18,0,16,184,13,46.37097215652466,46.371495723724365,46.38720488548279,46.39872121810913,46.53810262680054,46.53810262680054,46.53810262680054,46.53810262680054,46.53810262680054,46.53810262680054,46.53810262680054,46.53810262680054,46.53810262680054,46.53810262680054,46.53810262680054,46.80385994911194,2,0.38730382919311523,None,,,,,,,,,,,,,,,,,,99999,99999,2025-02-07_13h43.02.637,comp,2024.2.4,60.071553583551264,2025-02-07 13h43.12.426993 -0500,
18,18,0,critical,wdh,45.0,1.0,lower,57.0,133.0,65.0,65.0,133.0,57.0,3,1.1373555660247803,None,,,,,0,0,0,0,0,18,18,72,46.83167624473572,,,,,,,,,,,,,,,,,,,,,,,,,,,,,,,,,,,,,,,,,,,,,,,,,,,,,,,,,,,,,,,,,,,,,,,,,,,,,,,,,57.0,133.0,65.0,65.0,133.0,57.0,1.0,1.1,-675,271,-480,259,-323,274,46.80461812019348,46.805097818374634,46.82023215293884,46.83167624473572,46.971866607666016,46.971866607666016,46.971866607666016,46.971866607666016,46.971866607666016,46.971866607666016,46.971866607666016,46.971866607666016,46.971866607666016,46.971866607666016,46.971866607666016,47.98648118972778,3,1.1373555660247803,None,,,,,,,,,,,,,,,,,,99999,99999,2025-02-07_13h43.02.637,comp,2024.2.4,60.071553583551264,2025-02-07 13h43.12.426993 -0500,
19,19,0,critical,whd,45.0,1.0,lower,57.0,133.0,133.0,57.0,65.0,65.0,2,1.197282314300537,None,,,,,0,0,0,0,0,19,19,84,48.01149606704712,,,,,,,,,,,,,,,,,,,,,,,,,,,,,,,,,,,,,,,,,,,,,,,,,,,,,,,,,,,,,,,,,,,,,,,,,,,,,,,,,57.0,133.0,133.0,57.0,65.0,65.0,1.0,1.3,289,-281,480,-253,637,-283,47.98725867271423,47.98768949508667,47.99961543083191,48.01149606704712,48.15508008003235,48.15508008003235,48.15508008003235,48.15508008003235,48.15508008003235,48.15508008003235,48.15508008003235,48.15508008003235,48.15508008003235,48.15508008003235,48.15508008003235,49.222496032714844,2,1.197282314300537,None,,,,,,,,,,,,,,,,,,99999,99999,2025-02-07_13h43.02.637,comp,2024.2.4,60.071553583551264,2025-02-07 13h43.12.426993 -0500,
20,20,0,critical,wdh,60.0,1.0,upper,125.0,200.0,100.0,100.0,200.0,125.0,1,1.0329086780548096,None,,,,,0,0,0,0,0,20,20,79,49.25025153160095,,,,,,,,,,,,,,,,,,,,,,,,,,,,,,,,,,,,,,,,,,,,,,,,,,,,,,,,,,,,,,,,,,,,,,,,,,,,,,,,,125.0,200.0,100.0,100.0,200.0,125.0,1.0,1.2,-246,14,0,-9,208,-3,49.223432540893555,49.22427678108215,49.238165855407715,49.25025153160095,49.38795852661133,49.38795852661133,49.38795852661133,49.38795852661133,49.38795852661133,49.38795852661133,49.38795852661133,49.38795852661133,49.38795852661133,49.38795852661133,49.38795852661133,50.28683066368103,1,1.0329086780548096,None,,,,,,,,,,,,,,,,,,99999,99999,2025-02-07_13h43.02.637,comp,2024.2.4,60.071553583551264,2025-02-07 13h43.12.426993 -0500,
21,21,0,critical,whd,60.0,4.0,upper,125.0,200.0,200.0,125.0,100.0,100.0,3,0.791771411895752,None,,,,,0,0,0,0,0,21,21,95,50.31301307678223,,,,,,,,,,,,,,,,,,,,,,,,,,,,,,,,,,,,,,,,,,,,,,,,,,,,,,,,,,,,,,,,,,,,,,,,,,,,,,,,,125.0,200.0,200.0,125.0,100.0,100.0,4.0,4.2,-258,1,0,-270,208,-11,50.28757834434509,50.288907051086426,50.3009934425354,50.31301307678223,50.45541954040527,50.45541954040527,50.45541954040527,50.45541954040527,50.45541954040527,50.45541954040527,50.45541954040527,50.45541954040527,50.45541954040527,50.45541954040527,50.45541954040527,51.12048363685608,3,0.791771411895752,None,,,,,,,,,,,,,,,,,,99999,99999,2025-02-07_13h43.02.637,comp,2024.2.4,60.071553583551264,2025-02-07 13h43.12.426993 -0500,
22,22,0,filler_square,None,None,None,None,None,None,None,None,None,None,1,0.5201287269592285,None,,,,,0,0,0,0,0,22,22,194,51.14893198013306,,,,,,,,,,,,,,,,,,,,,,,,,,,,,,,,,,,,,,,,,,,,,,,,,,,,,,,,,,,,,,,,,,,,,,,,,,,,,,,,,57.029408059801206,61.98294724140748,63.73954970879308,63.73954970879308,58.82422186733699,58.56745625715346,3.0,3.1,-159,281,0,0,157,-288,51.12140727043152,51.121901988983154,51.13728928565979,51.14893198013306,51.288644790649414,51.288644790649414,51.288644790649414,51.288644790649414,51.288644790649414,51.288644790649414,51.288644790649414,51.288644790649414,51.288644790649414,51.288644790649414,51.288644790649414,51.68735647201538,1,0.5201287269592285,None,,,,,,,,,,,,,,,,,,99999,99999,2025-02-07_13h43.02.637,comp,2024.2.4,60.071553583551264,2025-02-07 13h43.12.426993 -0500,
23,23,0,filler_square,None,None,None,None,None,None,None,None,None,None,2,0.9062905311584473,None,,,,,0,0,0,0,0,23,23,172,51.712461709976196,,,,,,,,,,,,,,,,,,,,,,,,,,,,,,,,,,,,,,,,,,,,,,,,,,,,,,,,,,,,,,,,,,,,,,,,,,,,,,,,,92.42112097578803,72.92522819956848,93.06515996259981,85.13402960097012,163.67895794618315,163.67895794618315,3.0,3.1,-175,278,0,-12,220,-250,51.688284397125244,51.688803911209106,51.7009813785553,51.712461709976196,51.85518503189087,51.85518503189087,51.85518503189087,51.85518503189087,51.85518503189087,51.85518503189087,51.85518503189087,51.85518503189087,51.85518503189087,51.85518503189087,51.85518503189087,52.63657355308533,2,0.9062905311584473,None,,,,,,,,,,,,,,,,,,99999,99999,2025-02-07_13h43.02.637,comp,2024.2.4,60.071553583551264,2025-02-07 13h43.12.426993 -0500,
24,24,0,filler_random,None,None,None,None,None,None,None,None,None,None,1,0.5373837947845459,None,,,,,0,0,0,0,0,24,24,148,52.665170192718506,,,,,,,,,,,,,,,,,,,,,,,,,,,,,,,,,,,,,,,,,,,,,,,,,,,,,,,,,,,,,,,,,,,,,,,,,,,,,,,,,177.9981404943374,96.50616783424277,84.1420044660701,85.62157243072576,119.22066208295482,65.08271258418222,4.0,4.2,-187,-19,0,-259,171,14,52.6374568939209,52.63798975944519,52.65372681617737,52.665170192718506,52.80557870864868,52.80557870864868,52.80557870864868,52.80557870864868,52.80557870864868,52.80557870864868,52.80557870864868,52.80557870864868,52.80557870864868,52.80557870864868,52.80557870864868,53.22022318840027,1,0.5373837947845459,None,,,,,,,,,,,,,,,,,,99999,99999,2025-02-07_13h43.02.637,comp,2024.2.4,60.071553583551264,2025-02-07 13h43.12.426993 -0500,
25,25,0,filler_random,None,None,None,None,None,None,None,None,None,None,3,0.7487421035766602,None,,,,,0,0,0,0,0,25,25,164,53.245254039764404,,,,,,,,,,,,,,,,,,,,,,,,,,,,,,,,,,,,,,,,,,,,,,,,,,,,,,,,,,,,,,,,,,,,,,,,,,,,,,,,,96.63382240326243,163.69190548266616,67.254784357131,67.67658560957634,146.82664801707602,76.30827999107123,2.1,2.11,-212,259,0,264,168,-265,53.22110867500305,53.22161626815796,53.23369884490967,53.245254039764404,53.38822650909424,53.38822650909424,53.38822650909424,53.38822650909424,53.38822650909424,53.38822650909424,53.38822650909424,53.38822650909424,53.38822650909424,53.38822650909424,53.38822650909424,54.00377702713013,3,0.7487421035766602,None,,,,,,,,,,,,,,,,,,99999,99999,2025-02-07_13h43.02.637,comp,2024.2.4,60.071553583551264,2025-02-07 13h43.12.426993 -0500,
26,26,0,critical,hdw,60.0,3.0,upper,200.0,125.0,100.0,100.0,125.0,200.0,2,0.6724629402160645,None,,,,,0,0,0,0,0,26,26,117,54.03219294548035,,,,,,,,,,,,,,,,,,,,,,,,,,,,,,,,,,,,,,,,,,,,,,,,,,,,,,,,,,,,,,,,,,,,,,,,,,,,,,,,,200.0,125.0,100.0,100.0,125.0,200.0,3.0,3.2,-208,-253,0,-2,246,255,54.004530906677246,54.0050048828125,54.02041959762573,54.03219294548035,54.17235589027405,54.17235589027405,54.17235589027405,54.17235589027405,54.17235589027405,54.17235589027405,54.17235589027405,54.17235589027405,54.17235589027405,54.17235589027405,54.17235589027405,54.72039842605591,2,0.6724629402160645,None,,,,,,,,,,,,,,,,,,99999,99999,2025-02-07_13h43.02.637,comp,2024.2.4,60.071553583551264,2025-02-07 13h43.12.426993 -0500,
27,27,0,filler_square,None,None,None,None,None,None,None,None,None,None,1,0.5072705745697021,None,,,,,0,0,0,0,0,27,27,209,54.74942421913147,,,,,,,,,,,,,,,,,,,,,,,,,,,,,,,,,,,,,,,,,,,,,,,,,,,,,,,,,,,,,,,,,,,,,,,,,,,,,,,,,120.67016652236964,120.67016652236964,88.55842558763439,110.63898758511417,88.24423837892904,88.2148682064222,2.2,2.22,-212,257,0,-275,195,-274,54.721349239349365,54.72184610366821,54.73758602142334,54.74942421913147,54.888593435287476,54.888593435287476,54.888593435287476,54.888593435287476,54.888593435287476,54.888593435287476,54.888593435287476,54.888593435287476,54.888593435287476,54.888593435287476,54.888593435287476,55.27007269859314,1,0.5072705745697021,None,,,,,,,,,,,,,,,,,,99999,99999,2025-02-07_13h43.02.637,comp,2024.2.4,60.071553583551264,2025-02-07 13h43.12.426993 -0500,
28,28,0,critical,dhw,60.0,1.0,lower,55.0,55.0,133.0,57.0,57.0,133.0,2,1.111703872680664,None,,,,,0,0,0,0,0,28,28,54,55.29817247390747,,,,,,,,,,,,,,,,,,,,,,,,,,,,,,,,,,,,,,,,,,,,,,,,,,,,,,,,,,,,,,,,,,,,,,,,,,,,,,,,,55.0,55.0,133.0,57.0,57.0,133.0,1.0,1.1,-632,260,-480,268,-289,270,55.27082443237305,55.27131915092468,55.28658127784729,55.29817247390747,55.43892741203308,55.43892741203308,55.43892741203308,55.43892741203308,55.43892741203308,55.43892741203308,55.43892741203308,55.43892741203308,55.43892741203308,55.43892741203308,55.43892741203308,56.419729232788086,2,1.111703872680664,None,,,,,,,,,,,,,,,,,,99999,99999,2025-02-07_13h43.02.637,comp,2024.2.4,60.071553583551264,2025-02-07 13h43.12.426993 -0500,
29,29,0,critical,hwd,60.0,3.0,lower,133.0,57.0,57.0,133.0,55.0,55.0,1,0.6755111217498779,None,,,,,0,0,0,0,0,29,29,104,56.44508624076843,,,,,,,,,,,,,,,,,,,,,,,,,,,,,,,,,,,,,,,,,,,,,,,,,,,,,,,,,,,,,,,,,,,,,,,,,,,,,,,,,133.0,57.0,57.0,133.0,55.0,55.0,3.0,3.2,-191,-282,0,10,190,275,56.42045474052429,56.421021461486816,56.433013677597046,56.44508624076843,56.58829379081726,56.58829379081726,56.58829379081726,56.58829379081726,56.58829379081726,56.58829379081726,56.58829379081726,56.58829379081726,56.58829379081726,56.58829379081726,56.58829379081726,57.136847734451294,1,0.6755111217498779,None,,,,,,,,,,,,,,,,,,99999,99999,2025-02-07_13h43.02.637,comp,2024.2.4,60.071553583551264,2025-02-07 13h43.12.426993 -0500,
30,30,0,critical,hwd,45.0,3.0,lower,133.0,57.0,57.0,133.0,65.0,65.0,3,0.4573228359222412,None,,,,,0,0,0,0,0,30,30,98,57.16186809539795,,,,,,,,,,,,,,,,,,,,,,,,,,,,,,,,,,,,,,,,,,,,,,,,,,,,,,,,,,,,,,,,,,,,,,,,,,,,,,,,,133.0,57.0,57.0,133.0,65.0,65.0,3.0,3.2,-191,-263,0,-9,195,254,57.137603998184204,57.13807392120361,57.150306701660156,57.16186809539795,57.30478525161743,57.30478525161743,57.30478525161743,57.30478525161743,57.30478525161743,57.30478525161743,57.30478525161743,57.30478525161743,57.30478525161743,57.30478525161743,57.30478525161743,57.63692903518677,3,0.4573228359222412,None,,,,,,,,,,,,,,,,,,99999,99999,2025-02-07_13h43.02.637,comp,2024.2.4,60.071553583551264,2025-02-07 13h43.12.426993 -0500,
31,31,0,critical,hwd,60.0,2.1,lower,133.0,57.0,57.0,133.0,55.0,55.0,2,0.42298078536987305,None,,,,,0,0,0,0,0,31,31,42,57.66114950180054,,,,,,,,,,,,,,,,,,,,,,,,,,,,,,,,,,,,,,,,,,,,,,,,,,,,,,,,,,,,,,,,,,,,,,,,,,,,,,,,,133.0,57.0,57.0,133.0,55.0,55.0,2.1,2.12,-191,-267,0,-257,190,260,57.637654542922974,57.6381049156189,57.649534463882446,57.66114950180054,57.80453062057495,57.80453062057495,57.80453062057495,57.80453062057495,57.80453062057495,57.80453062057495,57.80453062057495,57.80453062057495,57.80453062057495,57.80453062057495,57.80453062057495,58.1038932800293,2,0.42298078536987305,None,,,,,,,,,,,,,,,,,,99999,99999,2025-02-07_13h43.02.637,comp,2024.2.4,60.071553583551264,2025-02-07 13h43.12.426993 -0500,
32,32,0,critical,dhw,45.0,2.1,lower,65.0,65.0,133.0,57.0,57.0,133.0,1,0.4322545528411865,None,,,,,0,0,0,0,0,32,32,24,58.129652976989746,,,,,,,,,,,,,,,,,,,,,,,,,,,,,,,,,,,,,,,,,,,,,,,,,,,,,,,,,,,,,,,,,,,,,,,,,,,,,,,,,65.0,65.0,133.0,57.0,57.0,133.0,2.1,2.11,-157,257,0,286,191,-253,58.1046781539917,58.10512089729309,58.118133783340454,58.129652976989746,58.271695137023926,58.271695137023926,58.271695137023926,58.271695137023926,58.271695137023926,58.271695137023926,58.271695137023926,58.271695137023926,58.271695137023926,58.271695137023926,58.271695137023926,58.57032346725464,1,0.4322545528411865,None,,,,,,,,,,,,,,,,,,99999,99999,2025-02-07_13h43.02.637,comp,2024.2.4,60.071553583551264,2025-02-07 13h43.12.426993 -0500,
33,33,0,filler_random,None,None,None,None,None,None,None,None,None,None,3,0.5633959770202637,None,,,,,0,0,0,0,0,33,33,157,58.59836721420288,,,,,,,,,,,,,,,,,,,,,,,,,,,,,,,,,,,,,,,,,,,,,,,,,,,,,,,,,,,,,,,,,,,,,,,,,,,,,,,,,121.25860281044562,102.90481829032296,102.95120855226389,137.89532016961374,110.78177568708259,138.47506951442548,2.1,2.11,-216,284,0,252,234,-252,58.571218967437744,58.571738719940186,58.58674669265747,58.59836721420288,58.73855996131897,58.73855996131897,58.73855996131897,58.73855996131897,58.73855996131897,58.73855996131897,58.73855996131897,58.73855996131897,58.73855996131897,58.73855996131897,58.73855996131897,59.17035698890686,3,0.5633959770202637,None,,,,,,,,,,,,,,,,,,99999,99999,2025-02-07_13h43.02.637,comp,2024.2.4,60.071553583551264,2025-02-07 13h43.12.426993 -0500,
34,34,0,critical,whd,60.0,4.0,lower,57.0,133.0,133.0,57.0,55.0,55.0,2,0.5023624897003174,None,,,,,0,0,0,0,0,34,34,94,59.1996431350708,,,,,,,,,,,,,,,,,,,,,,,,,,,,,,,,,,,,,,,,,,,,,,,,,,,,,,,,,,,,,,,,,,,,,,,,,,,,,,,,,57.0,133.0,133.0,57.0,55.0,55.0,4.0,4.1,-191,-273,0,-19,152,-267,59.17112874984741,59.17164134979248,59.18749141693115,59.1996431350708,59.339027881622314,59.339027881622314,59.339027881622314,59.339027881622314,59.339027881622314,59.339027881622314,59.339027881622314,59.339027881622314,59.339027881622314,59.339027881622314,59.339027881622314,59.71988582611084,2,0.5023624897003174,None,,,,,,,,,,,,,,,,,,99999,99999,2025-02-07_13h43.02.637,comp,2024.2.4,60.071553583551264,2025-02-07 13h43.12.426993 -0500,
35,35,0,critical,wdh,60.0,2.1,upper,125.0,200.0,100.0,100.0,200.0,125.0,1,0.36959362030029297,None,,,,,0,0,0,0,0,35,35,11,59.7442090511322,,,,,,,,,,,,,,,,,,,,,,,,,,,,,,,,,,,,,,,,,,,,,,,,,,,,,,,,,,,,,,,,,,,,,,,,,,,,,,,,,125.0,200.0,100.0,100.0,200.0,125.0,2.1,2.12,-246,-250,0,-251,208,285,59.720643520355225,59.72110939025879,59.732754707336426,59.7442090511322,59.88798689842224,59.88798689842224,59.88798689842224,59.88798689842224,59.88798689842224,59.88798689842224,59.88798689842224,59.88798689842224,59.88798689842224,59.88798689842224,59.88798689842224,60.12040138244629,1,0.36959362030029297,None,,,,,,,,,,,,,,,,,,99999,99999,2025-02-07_13h43.02.637,comp,2024.2.4,60.071553583551264,2025-02-07 13h43.12.426993 -0500,
36,36,0,critical,hdw,45.0,2.1,lower,133.0,57.0,65.0,65.0,57.0,133.0,3,0.3743875026702881,None,,,,,0,0,0,0,0,36,36,20,60.14636301994324,,,,,,,,,,,,,,,,,,,,,,,,,,,,,,,,,,,,,,,,,,,,,,,,,,,,,,,,,,,,,,,,,,,,,,,,,,,,,,,,,133.0,57.0,65.0,65.0,57.0,133.0,2.1,2.11,-157,250,0,269,195,-257,60.12114977836609,60.1216881275177,60.1343891620636,60.14636301994324,60.28798723220825,60.28798723220825,60.28798723220825,60.28798723220825,60.28798723220825,60.28798723220825,60.28798723220825,60.28798723220825,60.28798723220825,60.28798723220825,60.28798723220825,60.536879539489746,3,0.3743875026702881,None,,,,,,,,,,,,,,,,,,99999,99999,2025-02-07_13h43.02.637,comp,2024.2.4,60.071553583551264,2025-02-07 13h43.12.426993 -0500,
37,37,0,critical,hwd,60.0,1.0,upper,200.0,125.0,125.0,200.0,100.0,100.0,1,0.6412043571472168,None,,,,,0,0,0,0,0,37,37,103,60.56137776374817,,,,,,,,,,,,,,,,,,,,,,,,,,,,,,,,,,,,,,,,,,,,,,,,,,,,,,,,,,,,,,,,,,,,,,,,,,,,,,,,,200.0,125.0,125.0,200.0,100.0,100.0,1.0,1.1,-738,256,-480,254,-234,251,60.537672996520996,60.53812384605408,60.54983568191528,60.56137776374817,60.70488476753235,60.70488476753235,60.70488476753235,60.70488476753235,60.70488476753235,60.70488476753235,60.70488476753235,60.70488476753235,60.70488476753235,60.70488476753235,60.70488476753235,61.22031569480896,1,0.6412043571472168,None,,,,,,,,,,,,,,,,,,99999,99999,2025-02-07_13h43.02.637,comp,2024.2.4,60.071553583551264,2025-02-07 13h43.12.426993 -0500,
38,38,0,filler_random,None,None,None,None,None,None,None,None,None,None,2,0.586256742477417,None,,,,,0,0,0,0,0,38,38,169,61.24946475028992,,,,,,,,,,,,,,,,,,,,,,,,,,,,,,,,,,,,,,,,,,,,,,,,,,,,,,,,,,,,,,,,,,,,,,,,,,,,,,,,,101.64562456791059,175.2827662145279,142.45555742521532,167.51792420249015,74.9202697007278,150.89565322790176,2.2,2.22,-267,255,0,-288,255,-279,61.2212188243866,61.221745014190674,61.237797498703,61.24946475028992,61.388635873794556,61.388635873794556,61.388635873794556,61.388635873794556,61.388635873794556,61.388635873794556,61.388635873794556,61.388635873794556,61.388635873794556,61.388635873794556,61.388635873794556,61.85355305671692,2,0.586256742477417,None,,,,,,,,,,,,,,,,,,99999,99999,2025-02-07_13h43.02.637,comp,2024.2.4,60.071553583551264,2025-02-07 13h43.12.426993 -0500,
39,39,0,filler_square,None,None,None,None,None,None,None,None,None,None,1,0.6875836849212646,None,,,,,0,0,0,0,0,39,39,189,61.88179922103882,,,,,,,,,,,,,,,,,,,,,,,,,,,,,,,,,,,,,,,,,,,,,,,,,,,,,,,,,,,,,,,,,,,,,,,,,,,,,,,,,71.72025936924706,79.43550798561446,96.13996085732319,96.13996085732319,57.5324152950185,84.45834350600032,2.1,2.11,-184,280,0,278,186,-280,61.854487657547,61.854981422424316,61.87012314796448,61.88179922103882,62.0215277671814,62.0215277671814,62.0215277671814,62.0215277671814,62.0215277671814,62.0215277671814,62.0215277671814,62.0215277671814,62.0215277671814,62.0215277671814,62.0215277671814,62.58659887313843,1,0.6875836849212646,None,,,,,,,,,,,,,,,,,,99999,99999,2025-02-07_13h43.02.637,comp,2024.2.4,60.071553583551264,2025-02-07 13h43.12.426993 -0500,
40,40,0,critical,dwh,60.0,4.0,upper,100.0,100.0,125.0,200.0,200.0,125.0,3,0.5347893238067627,None,,,,,0,0,0,0,0,40,40,71,62.618229150772095,,,,,,,,,,,,,,,,,,,,,,,,,,,,,,,,,,,,,,,,,,,,,,,,,,,,,,,,,,,,,,,,,,,,,,,,,,,,,,,,,100.0,100.0,125.0,200.0,200.0,125.0,4.0,4.2,-246,-5,0,-268,258,-5,62.587379455566406,62.58802652359009,62.60673522949219,62.618229150772095,62.75519919395447,62.75519919395447,62.75519919395447,62.75519919395447,62.75519919395447,62.75519919395447,62.75519919395447,62.75519919395447,62.75519919395447,62.75519919395447,62.75519919395447,63.170204877853394,3,0.5347893238067627,None,,,,,,,,,,,,,,,,,,99999,99999,2025-02-07_13h43.02.637,comp,2024.2.4,60.071553583551264,2025-02-07 13h43.12.426993 -0500,
41,41,0,filler_square,None,None,None,None,None,None,None,None,None,None,2,0.4684484004974365,None,,,,,0,0,0,0,0,41,41,184,63.19857382774353,,,,,,,,,,,,,,,,,,,,,,,,,,,,,,,,,,,,,,,,,,,,,,,,,,,,,,,,,,,,,,,,,,,,,,,,,,,,,,,,,63.81137096237184,58.11047796761505,92.74576655376919,92.74576655376919,57.32784167806256,76.04561504695548,2.2,2.22,-171,250,0,-264,180,-289,63.17116141319275,63.17162895202637,63.186949253082275,63.19857382774353,63.3387930393219,63.3387930393219,63.3387930393219,63.3387930393219,63.3387930393219,63.3387930393219,63.3387930393219,63.3387930393219,63.3387930393219,63.3387930393219,63.3387930393219,63.67016649246216,2,0.4684484004974365,None,,,,,,,,,,,,,,,,,,99999,99999,2025-02-07_13h43.02.637,comp,2024.2.4,60.071553583551264,2025-02-07 13h43.12.426993 -0500,
42,42,0,critical,hwd,45.0,1.0,upper,200.0,125.0,125.0,200.0,117.0,117.0,1,0.6058204174041748,None,,,,,0,0,0,0,0,42,42,97,63.69878029823303,,,,,,,,,,,,,,,,,,,,,,,,,,,,,,,,,,,,,,,,,,,,,,,,,,,,,,,,,,,,,,,,,,,,,,,,,,,,,,,,,200.0,125.0,125.0,200.0,117.0,117.0,1.0,1.2,-258,17,0,-20,254,20,63.6709098815918,63.67134666442871,63.686838150024414,63.69878029823303,63.83836627006531,63.83836627006531,63.83836627006531,63.83836627006531,63.83836627006531,63.83836627006531,63.83836627006531,63.83836627006531,63.83836627006531,63.83836627006531,63.83836627006531,64.32034802436829,1,0.6058204174041748,None,,,,,,,,,,,,,,,,,,99999,99999,2025-02-07_13h43.02.637,comp,2024.2.4,60.071553583551264,2025-02-07 13h43.12.426993 -0500,
43,43,0,critical,dhw,45.0,1.0,upper,117.0,117.0,200.0,125.0,125.0,200.0,3,0.768773078918457,None,,,,,0,0,0,0,0,43,43,49,64.34479689598083,,,,,,,,,,,,,,,,,,,,,,,,,,,,,,,,,,,,,,,,,,,,,,,,,,,,,,,,,,,,,,,,,,,,,,,,,,,,,,,,,117.0,117.0,200.0,125.0,125.0,200.0,1.0,1.1,-697,280,-480,282,-222,256,64.32109451293945,64.3215217590332,64.33313727378845,64.34479689598083,64.48830342292786,64.48830342292786,64.48830342292786,64.48830342292786,64.48830342292786,64.48830342292786,64.48830342292786,64.48830342292786,64.48830342292786,64.48830342292786,64.48830342292786,65.12091875076294,3,0.768773078918457,None,,,,,,,,,,,,,,,,,,99999,99999,2025-02-07_13h43.02.637,comp,2024.2.4,60.071553583551264,2025-02-07 13h43.12.426993 -0500,
44,44,0,critical,dhw,45.0,2.1,upper,117.0,117.0,200.0,125.0,125.0,200.0,1,0.7218790054321289,None,,,,,0,0,0,0,0,44,44,25,65.14621305465698,,,,,,,,,,,,,,,,,,,,,,,,,,,,,,,,,,,,,,,,,,,,,,,,,,,,,,,,,,,,,,,,,,,,,,,,,,,,,,,,,117.0,117.0,200.0,125.0,125.0,200.0,2.1,2.11,-217,264,0,266,258,-280,65.12169480323792,65.12221717834473,65.13430070877075,65.14621305465698,65.28863573074341,65.28863573074341,65.28863573074341,65.28863573074341,65.28863573074341,65.28863573074341,65.28863573074341,65.28863573074341,65.28863573074341,65.28863573074341,65.28863573074341,65.87017512321472,1,0.7218790054321289,None,,,,,,,,,,,,,,,,,,99999,99999,2025-02-07_13h43.02.637,comp,2024.2.4,60.071553583551264,2025-02-07 13h43.12.426993 -0500,
45,45,0,critical,dwh,60.0,1.0,upper,100.0,100.0,125.0,200.0,200.0,125.0,2,0.5397086143493652,None,,,,,0,0,0,0,0,45,45,67,65.89608192443848,,,,,,,,,,,,,,,,,,,,,,,,,,,,,,,,,,,,,,,,,,,,,,,,,,,,,,,,,,,,,,,,,,,,,,,,,,,,,,,,,100.0,100.0,125.0,200.0,200.0,125.0,1.0,1.2,-246,9,0,16,258,13,65.87091279029846,65.87147665023804,65.88427996635437,65.89608192443848,66.03845524787903,66.03845524787903,66.03845524787903,66.03845524787903,66.03845524787903,66.03845524787903,66.03845524787903,66.03845524787903,66.03845524787903,66.03845524787903,66.03845524787903,66.45352530479431,2,0.5397086143493652,None,,,,,,,,,,,,,,,,,,99999,99999,2025-02-07_13h43.02.637,comp,2024.2.4,60.071553583551264,2025-02-07 13h43.12.426993 -0500,
46,46,0,filler_random,None,None,None,None,None,None,None,None,None,None,1,0.4877462387084961,None,,,,,0,0,0,0,0,46,46,166,66.48152756690979,,,,,,,,,,,,,,,,,,,,,,,,,,,,,,,,,,,,,,,,,,,,,,,,,,,,,,,,,,,,,,,,,,,,,,,,,,,,,,,,,174.98883902073857,85.22945538607723,103.71740594348246,152.57469281512078,173.1964460651924,104.67299909811473,1.0,1.2,-215,1,0,11,225,20,66.45435571670532,66.45482420921326,66.46981048583984,66.48152756690979,66.6217131614685,66.6217131614685,66.6217131614685,66.6217131614685,66.6217131614685,66.6217131614685,66.6217131614685,66.6217131614685,66.6217131614685,66.6217131614685,66.6217131614685,66.98662233352661,1,0.4877462387084961,None,,,,,,,,,,,,,,,,,,99999,99999,2025-02-07_13h43.02.637,comp,2024.2.4,60.071553583551264,2025-02-07 13h43.12.426993 -0500,
47,47,0,critical,hwd,60.0,2.1,lower,133.0,57.0,57.0,133.0,55.0,55.0,1,0.5474481582641602,None,,,,,0,0,0,0,0,47,47,18,67.01422381401062,,,,,,,,,,,,,,,,,,,,,,,,,,,,,,,,,,,,,,,,,,,,,,,,,,,,,,,,,,,,,,,,,,,,,,,,,,,,,,,,,133.0,57.0,57.0,133.0,55.0,55.0,2.1,2.12,-191,-271,0,-265,190,255,66.9873719215393,66.98779535293579,67.0028235912323,67.01422381401062,67.15870594978333,67.15870594978333,67.15870594978333,67.15870594978333,67.15870594978333,67.15870594978333,67.15870594978333,67.15870594978333,67.15870594978333,67.15870594978333,67.15870594978333,67.57004642486572,1,0.5474481582641602,None,,,,,,,,,,,,,,,,,,99999,99999,2025-02-07_13h43.02.637,comp,2024.2.4,60.071553583551264,2025-02-07 13h43.12.426993 -0500,
48,48,0,filler_random,None,None,None,None,None,None,None,None,None,None,1,0.37062931060791016,None,,,,,0,0,0,0,0,48,48,136,67.59837341308594,,,,,,,,,,,,,,,,,,,,,,,,,,,,,,,,,,,,,,,,,,,,,,,,,,,,,,,,,,,,,,,,,,,,,,,,,,,,,,,,,149.5983735540018,119.8795761133367,135.56585520637023,198.53328483485623,192.7245756119461,99.90604419141218,1.0,1.1,-735,283,-480,275,-235,269,67.57093572616577,67.57144594192505,67.58641457557678,67.59837341308594,67.73818922042847,67.73818922042847,67.73818922042847,67.73818922042847,67.73818922042847,67.73818922042847,67.73818922042847,67.73818922042847,67.73818922042847,67.73818922042847,67.73818922042847,67.98680448532104,1,0.37062931060791016,None,,,,,,,,,,,,,,,,,,99999,99999,2025-02-07_13h43.02.637,comp,2024.2.4,60.071553583551264,2025-02-07 13h43.12.426993 -0500,
49,49,0,filler_random,None,None,None,None,None,None,None,None,None,None,1,0.3340423107147217,None,,,,,0,0,0,0,0,49,49,133,68.01171255111694,,,,,,,,,,,,,,,,,,,,,,,,,,,,,,,,,,,,,,,,,,,,,,,,,,,,,,,,,,,,,,,,,,,,,,,,,,,,,,,,,121.83971140154429,89.63778263902435,57.19949536541178,63.831813996067346,163.82619451066768,171.3440029238369,4.0,4.1,-173,-264,0,8,214,-286,67.98763680458069,67.98809957504272,68.00018692016602,68.01171255111694,68.15502047538757,68.15502047538757,68.15502047538757,68.15502047538757,68.15502047538757,68.15502047538757,68.15502047538757,68.15502047538757,68.15502047538757,68.15502047538757,68.15502047538757,68.35355925559998,1,0.3340423107147217,None,,,,,,,,,,,,,,,,,,99999,99999,2025-02-07_13h43.02.637,comp,2024.2.4,60.071553583551264,2025-02-07 13h43.12.426993 -0500,
50,50,0,filler_square,None,None,None,None,None,None,None,None,None,None,1,0.30664682388305664,None,,,,,0,0,0,0,0,50,50,200,68.38191938400269,,,,,,,,,,,,,,,,,,,,,,,,,,,,,,,,,,,,,,,,,,,,,,,,,,,,,,,,,,,,,,,,,,,,,,,,,,,,,,,,,118.20833380945986,118.20833380945986,101.41338498483412,101.8727158909739,81.87252836203284,82.99559505657072,4.0,4.2,-206,5,0,-268,188,-9,68.35449361801147,68.35498261451721,68.36984825134277,68.38191938400269,68.52152252197266,68.52152252197266,68.52152252197266,68.52152252197266,68.52152252197266,68.52152252197266,68.52152252197266,68.52152252197266,68.52152252197266,68.52152252197266,68.52152252197266,68.70350217819214,1,0.30664682388305664,None,,,,,,,,,,,,,,,,,,99999,99999,2025-02-07_13h43.02.637,comp,2024.2.4,60.071553583551264,2025-02-07 13h43.12.426993 -0500,
51,51,0,filler_square,None,None,None,None,None,None,None,None,None,None,1,0.3533663749694824,None,,,,,0,0,0,0,0,51,51,175,68.72912693023682,,,,,,,,,,,,,,,,,,,,,,,,,,,,,,,,,,,,,,,,,,,,,,,,,,,,,,,,,,,,,,,,,,,,,,,,,,,,,,,,,170.14046509147988,170.14046509147988,103.52705177635146,157.75546110365548,164.8497432831947,62.948678974094406,4.0,4.1,-260,-279,0,0,206,-275,68.70442962646484,68.70493292808533,68.71758460998535,68.72912693023682,68.87151384353638,68.87151384353638,68.87151384353638,68.87151384353638,68.87151384353638,68.87151384353638,68.87151384353638,68.87151384353638,68.87151384353638,68.87151384353638,68.87151384353638,69.08689951896667,1,0.3533663749694824,None,,,,,,,,,,,,,,,,,,99999,99999,2025-02-07_13h43.02.637,comp,2024.2.4,60.071553583551264,2025-02-07 13h43.12.426993 -0500,
52,52,0,critical,wdh,45.0,2.1,lower,57.0,133.0,65.0,65.0,133.0,57.0,1,0.34119606018066406,None,,,,,0,0,0,0,0,52,52,8,69.11524248123169,,,,,,,,,,,,,,,,,,,,,,,,,,,,,,,,,,,,,,,,,,,,,,,,,,,,,,,,,,,,,,,,,,,,,,,,,,,,,,,,,57.0,133.0,65.0,65.0,133.0,57.0,2.1,2.12,-195,-286,0,-269,157,278,69.08766055107117,69.08821439743042,69.10317659378052,69.11524248123169,69.25523233413696,69.25523233413696,69.25523233413696,69.25523233413696,69.25523233413696,69.25523233413696,69.25523233413696,69.25523233413696,69.25523233413696,69.25523233413696,69.25523233413696,69.46992588043213,1,0.34119606018066406,None,,,,,,,,,,,,,,,,,,99999,99999,2025-02-07_13h43.02.637,comp,2024.2.4,60.071553583551264,2025-02-07 13h43.12.426993 -0500,
53,53,0,critical,hdw,60.0,1.0,upper,200.0,125.0,100.0,100.0,125.0,200.0,1,0.37667346000671387,None,,,,,0,0,0,0,0,53,53,115,69.4958131313324,,,,,,,,,,,,,,,,,,,,,,,,,,,,,,,,,,,,,,,,,,,,,,,,,,,,,,,,,,,,,,,,,,,,,,,,,,,,,,,,,200.0,125.0,100.0,100.0,125.0,200.0,1.0,1.3,272,-282,480,-260,726,-267,69.4706974029541,69.47116923332214,69.4840977191925,69.4958131313324,69.63807797431946,69.63807797431946,69.63807797431946,69.63807797431946,69.63807797431946,69.63807797431946,69.63807797431946,69.63807797431946,69.63807797431946,69.63807797431946,69.63807797431946,69.88686943054199,1,0.37667346000671387,None,,,,,,,,,,,,,,,,,,99999,99999,2025-02-07_13h43.02.637,comp,2024.2.4,60.071553583551264,2025-02-07 13h43.12.426993 -0500,
54,54,0,critical,hwd,60.0,4.0,lower,133.0,57.0,57.0,133.0,55.0,55.0,1,0.4248042106628418,None,,,,,0,0,0,0,0,54,54,106,69.91162133216858,,,,,,,,,,,,,,,,,,,,,,,,,,,,,,,,,,,,,,,,,,,,,,,,,,,,,,,,,,,,,,,,,,,,,,,,,,,,,,,,,133.0,57.0,57.0,133.0,55.0,55.0,4.0,4.1,-191,-274,0,-18,190,-269,69.88761901855469,69.88809275627136,69.9000735282898,69.91162133216858,70.05520415306091,70.05520415306091,70.05520415306091,70.05520415306091,70.05520415306091,70.05520415306091,70.05520415306091,70.05520415306091,70.05520415306091,70.05520415306091,70.05520415306091,70.35333847999573,1,0.4248042106628418,None,,,,,,,,,,,,,,,,,,99999,99999,2025-02-07_13h43.02.637,comp,2024.2.4,60.071553583551264,2025-02-07 13h43.12.426993 -0500,
55,55,0,critical,wdh,45.0,3.0,lower,57.0,133.0,65.0,65.0,133.0,57.0,1,0.39025330543518066,None,,,,,0,0,0,0,0,55,55,74,70.37858653068542,,,,,,,,,,,,,,,,,,,,,,,,,,,,,,,,,,,,,,,,,,,,,,,,,,,,,,,,,,,,,,,,,,,,,,,,,,,,,,,,,57.0,133.0,65.0,65.0,133.0,57.0,3.0,3.1,-195,276,0,18,157,-257,70.35410451889038,70.35455584526062,70.36713027954102,70.37858653068542,70.52173566818237,70.52173566818237,70.52173566818237,70.52173566818237,70.52173566818237,70.52173566818237,70.52173566818237,70.52173566818237,70.52173566818237,70.52173566818237,70.52173566818237,70.78661441802979,1,0.39025330543518066,None,,,,,,,,,,,,,,,,,,99999,99999,2025-02-07_13h43.02.637,comp,2024.2.4,60.071553583551264,2025-02-07 13h43.12.426993 -0500,
56,56,0,critical,dhw,45.0,4.0,lower,65.0,65.0,133.0,57.0,57.0,133.0,1,0.3985309600830078,None,,,,,0,0,0,0,0,56,56,52,70.81146693229675,,,,,,,,,,,,,,,,,,,,,,,,,,,,,,,,,,,,,,,,,,,,,,,,,,,,,,,,,,,,,,,,,,,,,,,,,,,,,,,,,65.0,65.0,133.0,57.0,57.0,133.0,4.0,4.2,-157,5,0,-262,191,11,70.7874162197113,70.78790235519409,70.79976391792297,70.81146693229675,70.95407938957214,70.95407938957214,70.95407938957214,70.95407938957214,70.95407938957214,70.95407938957214,70.95407938957214,70.95407938957214,70.95407938957214,70.95407938957214,70.95407938957214,71.2202799320221,1,0.3985309600830078,None,,,,,,,,,,,,,,,,,,99999,99999,2025-02-07_13h43.02.637,comp,2024.2.4,60.071553583551264,2025-02-07 13h43.12.426993 -0500,
57,57,0,critical,dwh,60.0,3.0,lower,55.0,55.0,57.0,133.0,133.0,57.0,1,0.4268178939819336,None,,,,,0,0,0,0,0,57,57,68,71.24565863609314,,,,,,,,,,,,,,,,,,,,,,,,,,,,,,,,,,,,,,,,,,,,,,,,,,,,,,,,,,,,,,,,,,,,,,,,,,,,,,,,,55.0,55.0,57.0,133.0,133.0,57.0,3.0,3.1,-190,273,0,5,191,-261,71.22104859352112,71.221506357193,71.23386287689209,71.24565863609314,71.3877592086792,71.3877592086792,71.3877592086792,71.3877592086792,71.3877592086792,71.3877592086792,71.3877592086792,71.3877592086792,71.3877592086792,71.3877592086792,71.3877592086792,71.68657231330872,1,0.4268178939819336,None,,,,,,,,,,,,,,,,,,99999,99999,2025-02-07_13h43.02.637,comp,2024.2.4,60.071553583551264,2025-02-07 13h43.12.426993 -0500,
58,58,0,critical,whd,60.0,3.0,upper,125.0,200.0,200.0,125.0,100.0,100.0,3,0.450286865234375,None,,,,,0,0,0,0,0,58,58,93,71.71146583557129,,,,,,,,,,,,,,,,,,,,,,,,,,,,,,,,,,,,,,,,,,,,,,,,,,,,,,,,,,,,,,,,,,,,,,,,,,,,,,,,,125.0,200.0,200.0,125.0,100.0,100.0,3.0,3.1,-258,273,0,-18,208,-256,71.68735694885254,71.68784403800964,71.69981575012207,71.71146583557129,71.85503602027893,71.85503602027893,71.85503602027893,71.85503602027893,71.85503602027893,71.85503602027893,71.85503602027893,71.85503602027893,71.85503602027893,71.85503602027893,71.85503602027893,72.17013740539551,3,0.450286865234375,None,,,,,,,,,,,,,,,,,,99999,99999,2025-02-07_13h43.02.637,comp,2024.2.4,60.071553583551264,2025-02-07 13h43.12.426993 -0500,
59,59,0,filler_random,None,None,None,None,None,None,None,None,None,None,1,0.33024072647094727,None,,,,,0,0,0,0,0,59,59,154,72.19919514656067,,,,,,,,,,,,,,,,,,,,,,,,,,,,,,,,,,,,,,,,,,,,,,,,,,,,,,,,,,,,,,,,,,,,,,,,,,,,,,,,,102.15815873179264,119.52864391592777,178.08416102531874,96.2376862138153,184.83088381660136,180.14390461478672,2.1,2.11,-204,260,0,280,234,-257,72.17100596427917,72.17147254943848,72.18715739250183,72.19919514656067,72.34220695495605,72.34220695495605,72.34220695495605,72.34220695495605,72.34220695495605,72.34220695495605,72.34220695495605,72.34220695495605,72.34220695495605,72.34220695495605,72.34220695495605,72.53685259819031,1,0.33024072647094727,None,,,,,,,,,,,,,,,,,,99999,99999,2025-02-07_13h43.02.637,comp,2024.2.4,60.071553583551264,2025-02-07 13h43.12.426993 -0500,
60,60,0,filler_random,None,None,None,None,None,None,None,None,None,None,2,0.29428696632385254,None,,,,,0,0,0,0,0,60,60,162,72.56219840049744,,,,,,,,,,,,,,,,,,,,,,,,,,,,,,,,,,,,,,,,,,,,,,,,,,,,,,,,,,,,,,,,,,,,,,,,,,,,,,,,,152.0191350852583,75.93361052787935,124.42239092225992,147.75792293188576,168.93690053378674,183.73102551494463,1.0,1.1,-688,259,-480,280,-218,271,72.53773069381714,72.53830885887146,72.55038022994995,72.56219840049744,72.70471858978271,72.70471858978271,72.70471858978271,72.70471858978271,72.70471858978271,72.70471858978271,72.70471858978271,72.70471858978271,72.70471858978271,72.70471858978271,72.70471858978271,72.87007927894592,2,0.29428696632385254,None,,,,,,,,,,,,,,,,,,99999,99999,2025-02-07_13h43.02.637,comp,2024.2.4,60.071553583551264,2025-02-07 13h43.12.426993 -0500,
61,61,0,filler_square,None,None,None,None,None,None,None,None,None,None,3,0.3414180278778076,None,,,,,0,0,0,0,0,61,61,179,72.89907479286194,,,,,,,,,,,,,,,,,,,,,,,,,,,,,,,,,,,,,,,,,,,,,,,,,,,,,,,,,,,,,,,,,,,,,,,,,,,,,,,,,68.90649846241402,69.81126471309726,161.91613177741394,176.00096945003241,185.17725256813677,185.17725256813677,1.0,1.1,-699,270,-480,269,-203,276,72.87099385261536,72.87149333953857,72.88723015785217,72.89907479286194,73.03848552703857,73.03848552703857,73.03848552703857,73.03848552703857,73.03848552703857,73.03848552703857,73.03848552703857,73.03848552703857,73.03848552703857,73.03848552703857,73.03848552703857,73.25393605232239,3,0.3414180278778076,None,,,,,,,,,,,,,,,,,,99999,99999,2025-02-07_13h43.02.637,comp,2024.2.4,60.071553583551264,2025-02-07 13h43.12.426993 -0500,
62,62,0,filler_square,None,None,None,None,None,None,None,None,None,None,1,0.2505474090576172,None,,,,,0,0,0,0,0,62,62,201,73.27891826629639,,,,,,,,,,,,,,,,,,,,,,,,,,,,,,,,,,,,,,,,,,,,,,,,,,,,,,,,,,,,,,,,,,,,,,,,,,,,,,,,,153.7106118719797,130.69912835650396,190.35184679064326,190.35184679064326,150.0499962579636,134.33111152153015,1.0,1.2,-257,-17,0,15,258,5,73.2548451423645,73.25537753105164,73.26745772361755,73.27891826629639,73.42124676704407,73.42124676704407,73.42124676704407,73.42124676704407,73.42124676704407,73.42124676704407,73.42124676704407,73.42124676704407,73.42124676704407,73.42124676704407,73.42124676704407,73.53697204589844,1,0.2505474090576172,None,,,,,,,,,,,,,,,,,,99999,99999,2025-02-07_13h43.02.637,comp,2024.2.4,60.071553583551264,2025-02-07 13h43.12.426993 -0500,
63,63,0,catch,None,None,None,None,None,None,None,None,None,None,2,0.22776150703430176,None,,,,,0,0,0,0,0,63,63,125,73.56615400314331,,,,,,,,,,,,,,,,,,,,,,,,,,,,,,,,,,,,,,,,,,,,,,,,,,,,,,,,,,,,,,,,,,,,,,,,,,,,,,,,,129,61,136,189,61,129,2.2,2.22,-221,258,0,-287,255,-265,73.53799366950989,73.53850078582764,73.55404353141785,73.56615400314331,73.70472574234009,73.70472574234009,73.70472574234009,73.70472574234009,73.70472574234009,73.70472574234009,73.70472574234009,73.70472574234009,73.70472574234009,73.70472574234009,73.70472574234009,73.80338144302368,2,0.22776150703430176,None,,,,,,,,,,,,,,,,,,99999,99999,2025-02-07_13h43.02.637,comp,2024.2.4,60.071553583551264,2025-02-07 13h43.12.426993 -0500,
64,64,0,critical,hdw,45.0,2.1,upper,200.0,125.0,117.0,117.0,125.0,200.0,3,0.2890331745147705,None,,,,,0,0,0,0,0,64,64,45,73.83142113685608,,,,,,,,,,,,,,,,,,,,,,,,,,,,,,,,,,,,,,,,,,,,,,,,,,,,,,,,,,,,,,,,,,,,,,,,,,,,,,,,,200.0,125.0,117.0,117.0,125.0,200.0,2.1,2.11,-217,270,0,250,254,-267,73.80415344238281,73.8047137260437,73.81961965560913,73.83142113685608,73.97136068344116,73.97136068344116,73.97136068344116,73.97136068344116,73.97136068344116,73.97136068344116,73.97136068344116,73.97136068344116,73.97136068344116,73.97136068344116,73.97136068344116,74.13687491416931,3,0.2890331745147705,None,,,,,,,,,,,,,,,,,,99999,99999,2025-02-07_13h43.02.637,comp,2024.2.4,60.071553583551264,2025-02-07 13h43.12.426993 -0500,
65,65,0,filler_random,None,None,None,None,None,None,None,None,None,None,1,0.24476385116577148,None,,,,,0,0,0,0,0,65,65,137,74.16490077972412,,,,,,,,,,,,,,,,,,,,,,,,,,,,,,,,,,,,,,,,,,,,,,,,,,,,,,,,,,,,,,,,,,,,,,,,,,,,,,,,,166.1604360517697,116.78679795374526,94.93024665995338,92.45437397023645,84.66599909690866,127.4453696809841,3.0,3.1,-201,270,0,-15,206,-261,74.13774156570435,74.13823580741882,74.15323328971863,74.16490077972412,74.30498957633972,74.30498957633972,74.30498957633972,74.30498957633972,74.30498957633972,74.30498957633972,74.30498957633972,74.30498957633972,74.30498957633972,74.30498957633972,74.30498957633972,74.42016863822937,1,0.24476385116577148,None,,,,,,,,,,,,,,,,,,99999,99999,2025-02-07_13h43.02.637,comp,2024.2.4,60.071553583551264,2025-02-07 13h43.12.426993 -0500,
66,66,0,critical,hwd,60.0,4.0,upper,200.0,125.0,125.0,200.0,100.0,100.0,2,0.28780198097229004,None,,,,,0,0,0,0,0,66,66,107,74.4486198425293,,,,,,,,,,,,,,,,,,,,,,,,,,,,,,,,,,,,,,,,,,,,,,,,,,,,,,,,,,,,,,,,,,,,,,,,,,,,,,,,,200.0,125.0,125.0,200.0,100.0,100.0,4.0,4.1,-258,-260,0,7,246,-278,74.42094111442566,74.42144656181335,74.43662762641907,74.4486198425293,74.58813714981079,74.58813714981079,74.58813714981079,74.58813714981079,74.58813714981079,74.58813714981079,74.58813714981079,74.58813714981079,74.58813714981079,74.58813714981079,74.58813714981079,74.75351119041443,2,0.28780198097229004,None,,,,,,,,,,,,,,,,,,99999,99999,2025-02-07_13h43.02.637,comp,2024.2.4,60.071553583551264,2025-02-07 13h43.12.426993 -0500,
67,67,0,critical,hdw,60.0,2.1,lower,133.0,57.0,55.0,55.0,57.0,133.0,3,0.32610297203063965,None,,,,,0,0,0,0,0,67,67,46,74.77830767631531,,,,,,,,,,,,,,,,,,,,,,,,,,,,,,,,,,,,,,,,,,,,,,,,,,,,,,,,,,,,,,,,,,,,,,,,,,,,,,,,,133.0,57.0,55.0,55.0,57.0,133.0,2.1,2.12,-152,-253,0,-260,190,284,74.75428438186646,74.75475978851318,74.76691460609436,74.77830767631531,74.92085647583008,74.92085647583008,74.92085647583008,74.92085647583008,74.92085647583008,74.92085647583008,74.92085647583008,74.92085647583008,74.92085647583008,74.92085647583008,74.92085647583008,75.1199300289154,3,0.32610297203063965,None,,,,,,,,,,,,,,,,,,99999,99999,2025-02-07_13h43.02.637,comp,2024.2.4,60.071553583551264,2025-02-07 13h43.12.426993 -0500,
68,68,0,filler_square,None,None,None,None,None,None,None,None,None,None,1,0.27781128883361816,None,,,,,0,0,0,0,0,68,68,199,75.14807057380676,,,,,,,,,,,,,,,,,,,,,,,,,,,,,,,,,,,,,,,,,,,,,,,,,,,,,,,,,,,,,,,,,,,,,,,,,,,,,,,,,59.9674168849644,60.76419717922859,61.31246442221696,61.31246442221696,59.92626802578304,57.53795684452257,3.0,3.2,-157,-279,0,16,155,253,75.12082362174988,75.12131929397583,75.13645195960999,75.14807057380676,75.28833866119385,75.28833866119385,75.28833866119385,75.28833866119385,75.28833866119385,75.28833866119385,75.28833866119385,75.28833866119385,75.28833866119385,75.28833866119385,75.28833866119385,75.43644976615906,1,0.27781128883361816,None,,,,,,,,,,,,,,,,,,99999,99999,2025-02-07_13h43.02.637,comp,2024.2.4,60.071553583551264,2025-02-07 13h43.12.426993 -0500,
69,69,0,critical,hwd,45.0,2.1,upper,200.0,125.0,125.0,200.0,117.0,117.0,2,0.22313690185546875,None,,,,,0,0,0,0,0,69,69,41,75.46520042419434,,,,,,,,,,,,,,,,,,,,,,,,,,,,,,,,,,,,,,,,,,,,,,,,,,,,,,,,,,,,,,,,,,,,,,,,,,,,,,,,,200.0,125.0,125.0,200.0,117.0,117.0,2.1,2.11,-258,273,0,272,254,-264,75.43724632263184,75.43769383430481,75.45310926437378,75.46520042419434,75.60510802268982,75.60510802268982,75.60510802268982,75.60510802268982,75.60510802268982,75.60510802268982,75.60510802268982,75.60510802268982,75.60510802268982,75.60510802268982,75.60510802268982,75.7033178806305,2,0.22313690185546875,None,,,,,,,,,,,,,,,,,,99999,99999,2025-02-07_13h43.02.637,comp,2024.2.4,60.071553583551264,2025-02-07 13h43.12.426993 -0500,
70,70,0,critical,hdw,60.0,3.0,lower,133.0,57.0,55.0,55.0,57.0,133.0,3,0.26572632789611816,None,,,,,0,0,0,0,0,70,70,116,75.72817468643188,,,,,,,,,,,,,,,,,,,,,,,,,,,,,,,,,,,,,,,,,,,,,,,,,,,,,,,,,,,,,,,,,,,,,,,,,,,,,,,,,133.0,57.0,55.0,55.0,57.0,133.0,3.0,3.1,-152,267,0,-4,190,-279,75.7041437625885,75.70460629463196,75.71660447120667,75.72817468643188,75.8714509010315,75.8714509010315,75.8714509010315,75.8714509010315,75.8714509010315,75.8714509010315,75.8714509010315,75.8714509010315,75.8714509010315,75.8714509010315,75.8714509010315,76.00357937812805,3,0.26572632789611816,None,,,,,,,,,,,,,,,,,,99999,99999,2025-02-07_13h43.02.637,comp,2024.2.4,60.071553583551264,2025-02-07 13h43.12.426993 -0500,
71,71,0,critical,dhw,45.0,1.0,lower,65.0,65.0,133.0,57.0,57.0,133.0,1,0.2561523914337158,None,,,,,0,0,0,0,0,71,71,48,76.02941274642944,,,,,,,,,,,,,,,,,,,,,,,,,,,,,,,,,,,,,,,,,,,,,,,,,,,,,,,,,,,,,,,,,,,,,,,,,,,,,,,,,65.0,65.0,133.0,57.0,57.0,133.0,1.0,1.2,-157,-8,0,8,191,-4,76.00433444976807,76.00487875938416,76.01758480072021,76.02941274642944,76.17087411880493,76.17087411880493,76.17087411880493,76.17087411880493,76.17087411880493,76.17087411880493,76.17087411880493,76.17087411880493,76.17087411880493,76.17087411880493,76.17087411880493,76.30314111709595,1,0.2561523914337158,None,,,,,,,,,,,,,,,,,,99999,99999,2025-02-07_13h43.02.637,comp,2024.2.4,60.071553583551264,2025-02-07 13h43.12.426993 -0500,
72,72,0,critical,dhw,60.0,2.1,upper,100.0,100.0,200.0,125.0,125.0,200.0,2,0.20494556427001953,None,,,,,0,0,0,0,0,72,72,3,76.32779216766357,,,,,,,,,,,,,,,,,,,,,,,,,,,,,,,,,,,,,,,,,,,,,,,,,,,,,,,,,,,,,,,,,,,,,,,,,,,,,,,,,100.0,100.0,200.0,125.0,125.0,200.0,2.1,2.12,-208,-285,0,-279,258,256,76.30392217636108,76.30442953109741,76.31626582145691,76.32779216766357,76.47107481956482,76.47107481956482,76.47107481956482,76.47107481956482,76.47107481956482,76.47107481956482,76.47107481956482,76.47107481956482,76.47107481956482,76.47107481956482,76.47107481956482,76.53668332099915,2,0.20494556427001953,None,,,,,,,,,,,,,,,,,,99999,99999,2025-02-07_13h43.02.637,comp,2024.2.4,60.071553583551264,2025-02-07 13h43.12.426993 -0500,
73,73,0,critical,dwh,45.0,2.1,lower,65.0,65.0,57.0,133.0,133.0,57.0,3,0.2570352554321289,None,,,,,0,0,0,0,0,73,73,4,76.561696767807,,,,,,,,,,,,,,,,,,,,,,,,,,,,,,,,,,,,,,,,,,,,,,,,,,,,,,,,,,,,,,,,,,,,,,,,,,,,,,,,,65.0,65.0,57.0,133.0,133.0,57.0,2.1,2.12,-195,-269,0,-286,191,279,76.53748369216919,76.53797554969788,76.54979968070984,76.561696767807,76.70497751235962,76.70497751235962,76.70497751235962,76.70497751235962,76.70497751235962,76.70497751235962,76.70497751235962,76.70497751235962,76.70497751235962,76.70497751235962,76.70497751235962,76.8366150856018,3,0.2570352554321289,None,,,,,,,,,,,,,,,,,,99999,99999,2025-02-07_13h43.02.637,comp,2024.2.4,60.071553583551264,2025-02-07 13h43.12.426993 -0500,
74,74,0,critical,whd,45.0,2.1,lower,57.0,133.0,133.0,57.0,65.0,65.0,1,0.21087217330932617,None,,,,,0,0,0,0,0,74,74,36,76.86142826080322,,,,,,,,,,,,,,,,,,,,,,,,,,,,,,,,,,,,,,,,,,,,,,,,,,,,,,,,,,,,,,,,,,,,,,,,,,,,,,,,,57.0,133.0,133.0,57.0,65.0,65.0,2.1,2.11,-191,251,0,267,157,-264,76.83739042282104,76.8378484249115,76.84986400604248,76.86142826080322,77.00442409515381,77.00442409515381,77.00442409515381,77.00442409515381,77.00442409515381,77.00442409515381,77.00442409515381,77.00442409515381,77.00442409515381,77.00442409515381,77.00442409515381,77.08651113510132,1,0.21087217330932617,None,,,,,,,,,,,,,,,,,,99999,99999,2025-02-07_13h43.02.637,comp,2024.2.4,60.071553583551264,2025-02-07 13h43.12.426993 -0500,
75,75,0,critical,whd,60.0,2.1,upper,125.0,200.0,200.0,125.0,100.0,100.0,2,0.20222043991088867,None,,,,,0,0,0,0,0,75,75,15,77.11122965812683,,,,,,,,,,,,,,,,,,,,,,,,,,,,,,,,,,,,,,,,,,,,,,,,,,,,,,,,,,,,,,,,,,,,,,,,,,,,,,,,,125.0,200.0,200.0,125.0,100.0,100.0,2.1,2.11,-258,257,0,270,208,-277,77.0872893333435,77.08787274360657,77.09963035583496,77.11122965812683,77.2550699710846,77.2550699710846,77.2550699710846,77.2550699710846,77.2550699710846,77.2550699710846,77.2550699710846,77.2550699710846,77.2550699710846,77.2550699710846,77.2550699710846,77.32040524482727,2,0.20222043991088867,None,,,,,,,,,,,,,,,,,,99999,99999,2025-02-07_13h43.02.637,comp,2024.2.4,60.071553583551264,2025-02-07 13h43.12.426993 -0500,
76,76,0,critical,dhw,60.0,4.0,lower,55.0,55.0,133.0,57.0,57.0,133.0,3,0.2734048366546631,None,,,,,0,0,0,0,0,76,76,58,77.34528923034668,,,,,,,,,,,,,,,,,,,,,,,,,,,,,,,,,,,,,,,,,,,,,,,,,,,,,,,,,,,,,,,,,,,,,,,,,,,,,,,,,55.0,55.0,133.0,57.0,57.0,133.0,4.0,4.1,-152,-268,0,10,191,-251,77.32116842269897,77.32162046432495,77.33339953422546,77.34528923034668,77.48835635185242,77.48835635185242,77.48835635185242,77.48835635185242,77.48835635185242,77.48835635185242,77.48835635185242,77.48835635185242,77.48835635185242,77.48835635185242,77.48835635185242,77.63642621040344,3,0.2734048366546631,None,,,,,,,,,,,,,,,,,,99999,99999,2025-02-07_13h43.02.637,comp,2024.2.4,60.071553583551264,2025-02-07 13h43.12.426993 -0500,
77,77,0,filler_square,None,None,None,None,None,None,None,None,None,None,1,0.20578885078430176,None,,,,,0,0,0,0,0,77,77,174,77.66653418540955,,,,,,,,,,,,,,,,,,,,,,,,,,,,,,,,,,,,,,,,,,,,,,,,,,,,,,,,,,,,,,,,,,,,,,,,,,,,,,,,,116.41091505394867,116.41091505394867,96.40207515651295,68.91856953884002,93.64037409011004,112.13203441597526,2.2,2.22,-189,256,0,-278,187,-290,77.63735437393188,77.6378562450409,77.65437650680542,77.66653418540955,77.80442500114441,77.80442500114441,77.80442500114441,77.80442500114441,77.80442500114441,77.80442500114441,77.80442500114441,77.80442500114441,77.80442500114441,77.80442500114441,77.80442500114441,77.8866126537323,1,0.20578885078430176,None,,,,,,,,,,,,,,,,,,99999,99999,2025-02-07_13h43.02.637,comp,2024.2.4,60.071553583551264,2025-02-07 13h43.12.426993 -0500,
78,78,0,filler_square,None,None,None,None,None,None,None,None,None,None,2,0.19298148155212402,None,,,,,0,0,0,0,0,78,78,185,77.9113826751709,,,,,,,,,,,,,,,,,,,,,,,,,,,,,,,,,,,,,,,,,,,,,,,,,,,,,,,,,,,,,,,,,,,,,,,,,,,,,,,,,189.4312459730415,189.4312459730415,94.11460859046444,98.41596834071441,161.29731696172237,61.37805775811947,2.1,2.12,-240,-256,0,-271,176,272,77.88755989074707,77.88803839683533,77.89977860450745,77.9113826751709,78.05463123321533,78.05463123321533,78.05463123321533,78.05463123321533,78.05463123321533,78.05463123321533,78.05463123321533,78.05463123321533,78.05463123321533,78.05463123321533,78.05463123321533,78.12007904052734,2,0.19298148155212402,None,,,,,,,,,,,,,,,,,,99999,99999,2025-02-07_13h43.02.637,comp,2024.2.4,60.071553583551264,2025-02-07 13h43.12.426993 -0500,
79,79,0,critical,dwh,60.0,2.1,lower,55.0,55.0,57.0,133.0,133.0,57.0,3,0.21283507347106934,None,,,,,0,0,0,0,0,79,79,30,78.14862871170044,,,,,,,,,,,,,,,,,,,,,,,,,,,,,,,,,,,,,,,,,,,,,,,,,,,,,,,,,,,,,,,,,,,,,,,,,,,,,,,,,55.0,55.0,57.0,133.0,133.0,57.0,2.1,2.12,-190,-258,0,-273,191,251,78.12085556983948,78.12133264541626,78.13674402236938,78.14862871170044,78.28875160217285,78.28875160217285,78.28875160217285,78.28875160217285,78.28875160217285,78.28875160217285,78.28875160217285,78.28875160217285,78.28875160217285,78.28875160217285,78.28875160217285,78.36990785598755,3,0.21283507347106934,None,,,,,,,,,,,,,,,,,,99999,99999,2025-02-07_13h43.02.637,comp,2024.2.4,60.071553583551264,2025-02-07 13h43.12.426993 -0500,
80,80,0,critical,dwh,45.0,1.0,lower,65.0,65.0,57.0,133.0,133.0,57.0,1,0.22394824028015137,None,,,,,0,0,0,0,0,80,80,60,78.39487624168396,,,,,,,,,,,,,,,,,,,,,,,,,,,,,,,,,,,,,,,,,,,,,,,,,,,,,,,,,,,,,,,,,,,,,,,,,,,,,,,,,65.0,65.0,57.0,133.0,133.0,57.0,1.0,1.1,-675,251,-480,276,-289,284,78.3706603050232,78.37113571166992,78.38291430473328,78.39487624168396,78.53796195983887,78.53796195983887,78.53796195983887,78.53796195983887,78.53796195983887,78.53796195983887,78.53796195983887,78.53796195983887,78.53796195983887,78.53796195983887,78.53796195983887,78.63679051399231,1,0.22394824028015137,None,,,,,,,,,,,,,,,,,,99999,99999,2025-02-07_13h43.02.637,comp,2024.2.4,60.071553583551264,2025-02-07 13h43.12.426993 -0500,
81,81,0,critical,wdh,60.0,4.0,lower,57.0,133.0,55.0,55.0,133.0,57.0,2,0.22672438621520996,None,,,,,0,0,0,0,0,81,81,82,78.66165208816528,,,,,,,,,,,,,,,,,,,,,,,,,,,,,,,,,,,,,,,,,,,,,,,,,,,,,,,,,,,,,,,,,,,,,,,,,,,,,,,,,57.0,133.0,55.0,55.0,133.0,57.0,4.0,4.2,-190,5,0,-275,152,-2,78.63755679130554,78.63802719116211,78.64976215362549,78.66165208816528,78.80539917945862,78.80539917945862,78.80539917945862,78.80539917945862,78.80539917945862,78.80539917945862,78.80539917945862,78.80539917945862,78.80539917945862,78.80539917945862,78.80539917945862,78.90320658683777,2,0.22672438621520996,None,,,,,,,,,,,,,,,,,,99999,99999,2025-02-07_13h43.02.637,comp,2024.2.4,60.071553583551264,2025-02-07 13h43.12.426993 -0500,
82,82,0,filler_square,None,None,None,None,None,None,None,None,None,None,3,0.18481111526489258,None,,,,,0,0,0,0,0,82,82,190,78.93140316009521,,,,,,,,,,,,,,,,,,,,,,,,,,,,,,,,,,,,,,,,,,,,,,,,,,,,,,,,,,,,,,,,,,,,,,,,,,,,,,,,,76.6902502470804,100.54658542126123,104.9252041271832,104.9252041271832,68.77160508133234,80.19244370392991,2.2,2.22,-199,279,0,-265,189,-277,78.90411329269409,78.9046061038971,78.91963148117065,78.93140316009521,79.07119560241699,79.07119560241699,79.07119560241699,79.07119560241699,79.07119560241699,79.07119560241699,79.07119560241699,79.07119560241699,79.07119560241699,79.07119560241699,79.07119560241699,79.120046377182,3,0.18481111526489258,None,,,,,,,,,,,,,,,,,,99999,99999,2025-02-07_13h43.02.637,comp,2024.2.4,60.071553583551264,2025-02-07 13h43.12.426993 -0500,
83,83,0,critical,dwh,45.0,4.0,upper,117.0,117.0,125.0,200.0,200.0,125.0,1,0.22809982299804688,None,,,,,0,0,0,0,0,83,83,65,79.14928698539734,,,,,,,,,,,,,,,,,,,,,,,,,,,,,,,,,,,,,,,,,,,,,,,,,,,,,,,,,,,,,,,,,,,,,,,,,,,,,,,,,117.0,117.0,125.0,200.0,200.0,125.0,4.0,4.2,-254,4,0,-280,258,0,79.12081003189087,79.12126183509827,79.13710451126099,79.14928698539734,79.28857064247131,79.28857064247131,79.28857064247131,79.28857064247131,79.28857064247131,79.28857064247131,79.28857064247131,79.28857064247131,79.28857064247131,79.28857064247131,79.28857064247131,79.38664197921753,1,0.22809982299804688,None,,,,,,,,,,,,,,,,,,99999,99999,2025-02-07_13h43.02.637,comp,2024.2.4,60.071553583551264,2025-02-07 13h43.12.426993 -0500,
84,84,0,filler_random,None,None,None,None,None,None,None,None,None,None,2,0.23577117919921875,None,,,,,0,0,0,0,0,84,84,159,79.41515946388245,,,,,,,,,,,,,,,,,,,,,,,,,,,,,,,,,,,,,,,,,,,,,,,,,,,,,,,,,,,,,,,,,,,,,,,,,,,,,,,,,197.59528528506567,181.35312916296803,159.25700087062597,91.37429018612887,120.2322316959259,184.20719452640918,1.0,1.2,-232,-4,0,-4,234,-1,79.38752317428589,79.38800382614136,79.4030282497406,79.41515946388245,79.55452251434326,79.55452251434326,79.55452251434326,79.55452251434326,79.55452251434326,79.55452251434326,79.55452251434326,79.55452251434326,79.55452251434326,79.55452251434326,79.55452251434326,79.6533670425415,2,0.23577117919921875,None,,,,,,,,,,,,,,,,,,99999,99999,2025-02-07_13h43.02.637,comp,2024.2.4,60.071553583551264,2025-02-07 13h43.12.426993 -0500,
85,85,0,critical,hdw,60.0,2.1,upper,200.0,125.0,100.0,100.0,125.0,200.0,3,0.20032763481140137,None,,,,,0,0,0,0,0,85,85,23,79.68264031410217,,,,,,,,,,,,,,,,,,,,,,,,,,,,,,,,,,,,,,,,,,,,,,,,,,,,,,,,,,,,,,,,,,,,,,,,,,,,,,,,,200.0,125.0,100.0,100.0,125.0,200.0,2.1,2.11,-208,266,0,255,246,-283,79.65418839454651,79.65467858314514,79.67048215866089,79.68264031410217,79.82155013084412,79.82155013084412,79.82155013084412,79.82155013084412,79.82155013084412,79.82155013084412,79.82155013084412,79.82155013084412,79.82155013084412,79.82155013084412,79.82155013084412,79.88679146766663,3,0.20032763481140137,None,,,,,,,,,,,,,,,,,,99999,99999,2025-02-07_13h43.02.637,comp,2024.2.4,60.071553583551264,2025-02-07 13h43.12.426993 -0500,
86,86,0,critical,hwd,60.0,1.0,lower,133.0,57.0,57.0,133.0,55.0,55.0,1,0.24079322814941406,None,,,,,0,0,0,0,0,86,86,102,79.9115207195282,,,,,,,,,,,,,,,,,,,,,,,,,,,,,,,,,,,,,,,,,,,,,,,,,,,,,,,,,,,,,,,,,,,,,,,,,,,,,,,,,133.0,57.0,57.0,133.0,55.0,55.0,1.0,1.2,-191,18,0,-9,190,-6,79.88752841949463,79.88801765441895,79.89974474906921,79.9115207195282,80.05434226989746,80.05434226989746,80.05434226989746,80.05434226989746,80.05434226989746,80.05434226989746,80.05434226989746,80.05434226989746,80.05434226989746,80.05434226989746,80.05434226989746,80.16995143890381,1,0.24079322814941406,None,,,,,,,,,,,,,,,,,,99999,99999,2025-02-07_13h43.02.637,comp,2024.2.4,60.071553583551264,2025-02-07 13h43.12.426993 -0500,
87,87,0,critical,wdh,45.0,2.1,upper,125.0,200.0,117.0,117.0,200.0,125.0,2,0.2139444351196289,None,,,,,0,0,0,0,0,87,87,33,80.19530463218689,,,,,,,,,,,,,,,,,,,,,,,,,,,,,,,,,,,,,,,,,,,,,,,,,,,,,,,,,,,,,,,,,,,,,,,,,,,,,,,,,125.0,200.0,117.0,117.0,200.0,125.0,2.1,2.12,-254,-258,0,-281,217,265,80.17071962356567,80.17122530937195,80.18369388580322,80.19530463218689,80.33790683746338,80.33790683746338,80.33790683746338,80.33790683746338,80.33790683746338,80.33790683746338,80.33790683746338,80.33790683746338,80.33790683746338,80.33790683746338,80.33790683746338,80.4201831817627,2,0.2139444351196289,None,,,,,,,,,,,,,,,,,,99999,99999,2025-02-07_13h43.02.637,comp,2024.2.4,60.071553583551264,2025-02-07 13h43.12.426993 -0500,
88,88,0,critical,wdh,60.0,2.1,lower,57.0,133.0,55.0,55.0,133.0,57.0,3,0.22379541397094727,None,,,,,0,0,0,0,0,88,88,10,80.44473814964294,,,,,,,,,,,,,,,,,,,,,,,,,,,,,,,,,,,,,,,,,,,,,,,,,,,,,,,,,,,,,,,,,,,,,,,,,,,,,,,,,57.0,133.0,55.0,55.0,133.0,57.0,2.1,2.12,-190,-251,0,-282,152,250,80.42093348503113,80.42138576507568,80.43301653862,80.44473814964294,80.58767533302307,80.58767533302307,80.58767533302307,80.58767533302307,80.58767533302307,80.58767533302307,80.58767533302307,80.58767533302307,80.58767533302307,80.58767533302307,80.58767533302307,80.67045521736145,3,0.22379541397094727,None,,,,,,,,,,,,,,,,,,99999,99999,2025-02-07_13h43.02.637,comp,2024.2.4,60.071553583551264,2025-02-07 13h43.12.426993 -0500,
89,89,0,critical,dwh,45.0,3.0,upper,117.0,117.0,125.0,200.0,200.0,125.0,1,0.2517838478088379,None,,,,,0,0,0,0,0,89,89,63,80.69524216651917,,,,,,,,,,,,,,,,,,,,,,,,,,,,,,,,,,,,,,,,,,,,,,,,,,,,,,,,,,,,,,,,,,,,,,,,,,,,,,,,,117.0,117.0,125.0,200.0,200.0,125.0,3.0,3.1,-254,286,0,-10,258,-288,80.67122507095337,80.67175102233887,80.68345427513123,80.69524216651917,80.83859086036682,80.83859086036682,80.83859086036682,80.83859086036682,80.83859086036682,80.83859086036682,80.83859086036682,80.83859086036682,80.83859086036682,80.83859086036682,80.83859086036682,80.95328760147095,1,0.2517838478088379,None,,,,,,,,,,,,,,,,,,99999,99999,2025-02-07_13h43.02.637,comp,2024.2.4,60.071553583551264,2025-02-07 13h43.12.426993 -0500,
90,90,0,critical,wdh,60.0,3.0,upper,125.0,200.0,100.0,100.0,200.0,125.0,2,0.22395968437194824,None,,,,,0,0,0,0,0,90,90,81,80.97792625427246,,,,,,,,,,,,,,,,,,,,,,,,,,,,,,,,,,,,,,,,,,,,,,,,,,,,,,,,,,,,,,,,,,,,,,,,,,,,,,,,,125.0,200.0,100.0,100.0,200.0,125.0,3.0,3.2,-246,-265,0,12,208,284,80.95403242111206,80.95450615882874,80.96608757972717,80.97792625427246,81.12179780006409,81.12179780006409,81.12179780006409,81.12179780006409,81.12179780006409,81.12179780006409,81.12179780006409,81.12179780006409,81.12179780006409,81.12179780006409,81.12179780006409,81.22006154060364,2,0.22395968437194824,None,,,,,,,,,,,,,,,,,,99999,99999,2025-02-07_13h43.02.637,comp,2024.2.4,60.071553583551264,2025-02-07 13h43.12.426993 -0500,
91,91,0,critical,whd,60.0,3.0,lower,57.0,133.0,133.0,57.0,55.0,55.0,3,0.15784668922424316,None,,,,,0,0,0,0,0,91,91,92,81.24460363388062,,,,,,,,,,,,,,,,,,,,,,,,,,,,,,,,,,,,,,,,,,,,,,,,,,,,,,,,,,,,,,,,,,,,,,,,,,,,,,,,,57.0,133.0,133.0,57.0,55.0,55.0,3.0,3.1,-191,259,0,6,152,-255,81.22080373764038,81.22127032279968,81.23307609558105,81.24460363388062,81.38848233222961,81.38848233222961,81.38848233222961,81.38848233222961,81.38848233222961,81.38848233222961,81.38848233222961,81.38848233222961,81.38848233222961,81.38848233222961,81.38848233222961,81.40578722953796,3,0.15784668922424316,None,,,,,,,,,,,,,,,,,,99999,99999,2025-02-07_13h43.02.637,comp,2024.2.4,60.071553583551264,2025-02-07 13h43.12.426993 -0500,
92,92,0,filler_random,None,None,None,None,None,None,None,None,None,None,1,0.2542307376861572,None,,,,,0,0,0,0,0,92,92,151,81.4341778755188,,,,,,,,,,,,,,,,,,,,,,,,,,,,,,,,,,,,,,,,,,,,,,,,,,,,,,,,,,,,,,,,,,,,,,,,,,,,,,,,,93.31973964258395,57.857917568017385,178.4081321170974,61.34751765994292,139.3907985221132,164.75949334057597,1.0,1.1,-636,290,-480,251,-271,276,81.40663480758667,81.40746402740479,81.42200183868408,81.4341778755188,81.57143998146057,81.57143998146057,81.57143998146057,81.57143998146057,81.57143998146057,81.57143998146057,81.57143998146057,81.57143998146057,81.57143998146057,81.57143998146057,81.57143998146057,81.70306754112244,1,0.2542307376861572,None,,,,,,,,,,,,,,,,,,99999,99999,2025-02-07_13h43.02.637,comp,2024.2.4,60.071553583551264,2025-02-07 13h43.12.426993 -0500,
93,93,0,critical,hwd,45.0,2.1,lower,133.0,57.0,57.0,133.0,65.0,65.0,3,0.5404765605926514,None,,,,,0,0,0,0,0,93,93,16,81.73183917999268,,,,,,,,,,,,,,,,,,,,,,,,,,,,,,,,,,,,,,,,,,,,,,,,,,,,,,,,,,,,,,,,,,,,,,,,,,,,,,,,,133.0,57.0,57.0,133.0,65.0,65.0,2.1,2.12,-191,-273,0,-252,195,264,81.70387649536133,81.70438814163208,81.7200345993042,81.73183917999268,81.87184572219849,81.87184572219849,81.87184572219849,81.87184572219849,81.87184572219849,81.87184572219849,81.87184572219849,81.87184572219849,81.87184572219849,81.87184572219849,81.87184572219849,82.28645944595337,3,0.5404765605926514,None,,,,,,,,,,,,,,,,,,99999,99999,2025-02-07_13h43.02.637,comp,2024.2.4,60.071553583551264,2025-02-07 13h43.12.426993 -0500,
94,94,0,critical,whd,45.0,2.1,upper,125.0,200.0,200.0,125.0,117.0,117.0,1,0.36119580268859863,None,,,,,0,0,0,0,0,94,94,37,82.31108546257019,,,,,,,,,,,,,,,,,,,,,,,,,,,,,,,,,,,,,,,,,,,,,,,,,,,,,,,,,,,,,,,,,,,,,,,,,,,,,,,,,125.0,200.0,200.0,125.0,117.0,117.0,2.1,2.11,-258,251,0,265,217,-287,82.28722548484802,82.28771185874939,82.29952430725098,82.31108546257019,82.4547381401062,82.4547381401062,82.4547381401062,82.4547381401062,82.4547381401062,82.4547381401062,82.4547381401062,82.4547381401062,82.4547381401062,82.4547381401062,82.4547381401062,82.68654417991638,1,0.36119580268859863,None,,,,,,,,,,,,,,,,,,99999,99999,2025-02-07_13h43.02.637,comp,2024.2.4,60.071553583551264,2025-02-07 13h43.12.426993 -0500,
95,95,0,critical,whd,45.0,2.1,lower,57.0,133.0,133.0,57.0,65.0,65.0,3,0.4019789695739746,None,,,,,0,0,0,0,0,95,95,12,82.71149682998657,,,,,,,,,,,,,,,,,,,,,,,,,,,,,,,,,,,,,,,,,,,,,,,,,,,,,,,,,,,,,,,,,,,,,,,,,,,,,,,,,57.0,133.0,133.0,57.0,65.0,65.0,2.1,2.11,-191,270,0,282,157,-260,82.68731260299683,82.6877772808075,82.70007014274597,82.71149682998657,82.85448789596558,82.85448789596558,82.85448789596558,82.85448789596558,82.85448789596558,82.85448789596558,82.85448789596558,82.85448789596558,82.85448789596558,82.85448789596558,82.85448789596558,83.11999940872192,3,0.4019789695739746,None,,,,,,,,,,,,,,,,,,99999,99999,2025-02-07_13h43.02.637,comp,2024.2.4,60.071553583551264,2025-02-07 13h43.12.426993 -0500,
96,96,0,critical,wdh,60.0,2.1,lower,57.0,133.0,55.0,55.0,133.0,57.0,1,0.6485955715179443,None,,,,,0,0,0,0,0,96,96,34,83.14475107192993,,,,,,,,,,,,,,,,,,,,,,,,,,,,,,,,,,,,,,,,,,,,,,,,,,,,,,,,,,,,,,,,,,,,,,,,,,,,,,,,,57.0,133.0,55.0,55.0,133.0,57.0,2.1,2.11,-190,286,0,288,152,-289,83.12077212333679,83.12127733230591,83.13299489021301,83.14475107192993,83.28793430328369,83.28793430328369,83.28793430328369,83.28793430328369,83.28793430328369,83.28793430328369,83.28793430328369,83.28793430328369,83.28793430328369,83.28793430328369,83.28793430328369,83.80308961868286,1,0.6485955715179443,None,,,,,,,,,,,,,,,,,,99999,99999,2025-02-07_13h43.02.637,comp,2024.2.4,60.071553583551264,2025-02-07 13h43.12.426993 -0500,
97,97,0,filler_square,None,None,None,None,None,None,None,None,None,None,3,30.265862226486206,None,,,,,0,0,0,0,0,97,97,182,83.83202886581421,,,,,,,,,,,,,,,,,,,,,,,,,,,,,,,,,,,,,,,,,,,,,,,,,,,,,,,,,,,,,,,,,,,,,,,,,,,,,,,,,81.88070387792051,70.58245274250989,59.30428572938784,75.13058828555523,88.25554818333248,88.25554818333248,2.2,2.21,-169,-264,0,287,178,263,83.80402255058289,83.80452919006348,83.82020235061646,83.83202886581421,83.97134923934937,83.97134923934937,83.97134923934937,83.97134923934937,83.97134923934937,83.97134923934937,83.97134923934937,83.97134923934937,83.97134923934937,83.97134923934937,83.97134923934937,114.10259675979614,3,30.265862226486206,None,,,,,,,,,,,,,,,,,,99999,99999,2025-02-07_13h43.02.637,comp,2024.2.4,60.071553583551264,2025-02-07 13h43.12.426993 -0500,
98,98,0,critical,wdh,60.0,3.0,lower,57.0,133.0,55.0,55.0,133.0,57.0,2,0.8370683193206787,None,,,,,0,0,0,0,0,98,98,80,114.13180565834045,,,,,,,,,,,,,,,,,,,,,,,,,,,,,,,,,,,,,,,,,,,,,,,,,,,,,,,,,,,,,,,,,,,,,,,,,,,,,,,,,57.0,133.0,55.0,55.0,133.0,57.0,3.0,3.2,-190,-284,0,14,152,254,114.10337042808533,114.10379385948181,114.11931109428406,114.13180565834045,114.27125883102417,114.27125883102417,114.27125883102417,114.27125883102417,114.27125883102417,114.27125883102417,114.27125883102417,114.27125883102417,114.27125883102417,114.27125883102417,114.27125883102417,114.98528099060059,2,0.8370683193206787,None,,,,,,,,,,,,,,,,,,99999,99999,2025-02-07_13h43.02.637,comp,2024.2.4,60.071553583551264,2025-02-07 13h43.12.426993 -0500,
99,99,0,filler_random,None,None,None,None,None,None,None,None,None,None,3,0.6384181976318359,None,,,,,0,0,0,0,0,99,99,134,115.01346325874329,,,,,,,,,,,,,,,,,,,,,,,,,,,,,,,,,,,,,,,,,,,,,,,,,,,,,,,,,,,,,,,,,,,,,,,,,,,,,,,,,120.70639985560297,102.48282216861585,139.92600282850822,183.37255580013817,178.86528392514361,72.21141661689323,2.2,2.21,-239,-263,0,284,224,282,114.98623847961426,114.98676991462708,115.00191354751587,115.01346325874329,115.15409898757935,115.15409898757935,115.15409898757935,115.15409898757935,115.15409898757935,115.15409898757935,115.15409898757935,115.15409898757935,115.15409898757935,115.15409898757935,115.15409898757935,115.66957592964172,3,0.6384181976318359,None,,,,,,,,,,,,,,,,,,99999,99999,2025-02-07_13h43.02.637,comp,2024.2.4,60.071553583551264,2025-02-07 13h43.12.426993 -0500,
100,100,0,filler_random,None,None,None,None,None,None,None,None,None,None,2,0.40628600120544434,None,,,,,0,0,0,0,0,100,100,130,115.69449949264526,,,,,,,,,,,,,,,,,,,,,,,,,,,,,,,,,,,,,,,,,,,,,,,,,,,,,,,,,,,,,,,,,,,,,,,,,,,,,,,,,107.48934127142199,172.43922237396185,126.22837395766233,185.14402176980715,160.21764073832875,140.6544416765147,2.2,2.21,-275,-265,0,271,259,252,115.67045307159424,115.67094326019287,115.68295335769653,115.69449949264526,115.83743500709534,115.83743500709534,115.83743500709534,115.83743500709534,115.83743500709534,115.83743500709534,115.83743500709534,115.83743500709534,115.83743500709534,115.83743500709534,115.83743500709534,116.10346746444702,2,0.40628600120544434,None,,,,,,,,,,,,,,,,,,99999,99999,2025-02-07_13h43.02.637,comp,2024.2.4,60.071553583551264,2025-02-07 13h43.12.426993 -0500,
101,101,0,filler_square,None,None,None,None,None,None,None,None,None,None,3,0.39605259895324707,None,,,,,0,0,0,0,0,101,101,195,116.13282704353333,,,,,,,,,,,,,,,,,,,,,,,,,,,,,,,,,,,,,,,,,,,,,,,,,,,,,,,,,,,,,,,,,,,,,,,,,,,,,,,,,73.48293485704201,74.92765209084948,92.04143895228084,92.04143895228084,79.53244238577305,64.3495410767109,2.1,2.11,-179,250,0,269,174,-289,116.10440254211426,116.10486769676208,116.12058854103088,116.13282704353333,116.27097249031067,116.27097249031067,116.27097249031067,116.27097249031067,116.27097249031067,116.27097249031067,116.27097249031067,116.27097249031067,116.27097249031067,116.27097249031067,116.27097249031067,116.53615760803223,3,0.39605259895324707,None,,,,,,,,,,,,,,,,,,99999,99999,2025-02-07_13h43.02.637,comp,2024.2.4,60.071553583551264,2025-02-07 13h43.12.426993 -0500,
102,102,0,critical,wdh,60.0,1.0,lower,57.0,133.0,55.0,55.0,133.0,57.0,2,0.38741421699523926,None,,,,,0,0,0,0,0,102,102,78,116.56442785263062,,,,,,,,,,,,,,,,,,,,,,,,,,,,,,,,,,,,,,,,,,,,,,,,,,,,,,,,,,,,,,,,,,,,,,,,,,,,,,,,,57.0,133.0,55.0,55.0,133.0,57.0,1.0,1.1,-670,256,-480,256,-328,283,116.53693079948425,116.53743743896484,116.55243945121765,116.56442785263062,116.70483613014221,116.70483613014221,116.70483613014221,116.70483613014221,116.70483613014221,116.70483613014221,116.70483613014221,116.70483613014221,116.70483613014221,116.70483613014221,116.70483613014221,116.96963810920715,2,0.38741421699523926,None,,,,,,,,,,,,,,,,,,99999,99999,2025-02-07_13h43.02.637,comp,2024.2.4,60.071553583551264,2025-02-07 13h43.12.426993 -0500,
103,103,0,filler_random,None,None,None,None,None,None,None,None,None,None,2,0.4406590461730957,None,,,,,0,0,0,0,0,103,103,140,116.99907493591309,,,,,,,,,,,,,,,,,,,,,,,,,,,,,,,,,,,,,,,,,,,,,,,,,,,,,,,,,,,,,,,,,,,,,,,,,,,,,,,,,184.27103530488873,133.57359337356354,192.99981396116797,198.36680431272956,190.2866499292134,94.56362114238254,2.2,2.21,-262,-253,0,281,242,290,116.97055172920227,116.9710385799408,116.98705840110779,116.99907493591309,117.13762640953064,117.13762640953064,117.13762640953064,117.13762640953064,117.13762640953064,117.13762640953064,117.13762640953064,117.13762640953064,117.13762640953064,117.13762640953064,117.13762640953064,117.45309209823608,2,0.4406590461730957,None,,,,,,,,,,,,,,,,,,99999,99999,2025-02-07_13h43.02.637,comp,2024.2.4,60.071553583551264,2025-02-07 13h43.12.426993 -0500,
104,104,0,critical,hdw,60.0,1.0,lower,133.0,57.0,55.0,55.0,57.0,133.0,3,0.3124203681945801,None,,,,,0,0,0,0,0,104,104,114,117.48080778121948,,,,,,,,,,,,,,,,,,,,,,,,,,,,,,,,,,,,,,,,,,,,,,,,,,,,,,,,,,,,,,,,,,,,,,,,,,,,,,,,,133.0,57.0,55.0,55.0,57.0,133.0,1.0,1.2,-152,11,0,-16,190,-8,117.45384192466736,117.4543788433075,117.4691812992096,117.48080778121948,117.62173771858215,117.62173771858215,117.62173771858215,117.62173771858215,117.62173771858215,117.62173771858215,117.62173771858215,117.62173771858215,117.62173771858215,117.62173771858215,117.62173771858215,117.80271100997925,3,0.3124203681945801,None,,,,,,,,,,,,,,,,,,99999,99999,2025-02-07_13h43.02.637,comp,2024.2.4,60.071553583551264,2025-02-07 13h43.12.426993 -0500,
105,105,0,critical,hdw,60.0,2.1,upper,200.0,125.0,100.0,100.0,125.0,200.0,2,0.460097074508667,None,,,,,0,0,0,0,0,105,105,47,117.82777500152588,,,,,,,,,,,,,,,,,,,,,,,,,,,,,,,,,,,,,,,,,,,,,,,,,,,,,,,,,,,,,,,,,,,,,,,,,,,,,,,,,200.0,125.0,100.0,100.0,125.0,200.0,2.1,2.11,-208,263,0,265,246,-254,117.80346465110779,117.8040041923523,117.81580972671509,117.82777500152588,117.97070455551147,117.97070455551147,117.97070455551147,117.97070455551147,117.97070455551147,117.97070455551147,117.97070455551147,117.97070455551147,117.97070455551147,117.97070455551147,117.97070455551147,118.30348324775696,2,0.460097074508667,None,,,,,,,,,,,,,,,,,,99999,99999,2025-02-07_13h43.02.637,comp,2024.2.4,60.071553583551264,2025-02-07 13h43.12.426993 -0500,
106,106,0,filler_random,None,None,None,None,None,None,None,None,None,None,3,0.587622880935669,None,,,,,0,0,0,0,0,106,106,139,118.33235502243042,,,,,,,,,,,,,,,,,,,,,,,,,,,,,,,,,,,,,,,,,,,,,,,,,,,,,,,,,,,,,,,,,,,,,,,,,,,,,,,,,151.65624645115173,170.30227241518628,173.99454111744126,70.98517370046491,91.62078810121085,178.1055483019963,1.0,1.1,-697,250,-480,251,-259,254,118.30436158180237,118.30478954315186,118.32044720649719,118.33235502243042,118.47019815444946,118.47019815444946,118.47019815444946,118.47019815444946,118.47019815444946,118.47019815444946,118.47019815444946,118.47019815444946,118.47019815444946,118.47019815444946,118.47019815444946,118.93607711791992,3,0.587622880935669,None,,,,,,,,,,,,,,,,,,99999,99999,2025-02-07_13h43.02.637,comp,2024.2.4,60.071553583551264,2025-02-07 13h43.12.426993 -0500,
107,107,0,filler_square,None,None,None,None,None,None,None,None,None,None,2,0.4913294315338135,None,,,,,0,0,0,0,0,107,107,202,118.96451473236084,,,,,,,,,,,,,,,,,,,,,,,,,,,,,,,,,,,,,,,,,,,,,,,,,,,,,,,,,,,,,,,,,,,,,,,,,,,,,,,,,148.6710262874621,155.92244727979244,153.942779211033,106.99167835104801,165.7850882810344,165.7850882810344,3.0,3.2,-227,-282,0,-1,232,266,118.93698287010193,118.93744707107544,118.9527497291565,118.96451473236084,119.10863304138184,119.10863304138184,119.10863304138184,119.10863304138184,119.10863304138184,119.10863304138184,119.10863304138184,119.10863304138184,119.10863304138184,119.10863304138184,119.10863304138184,119.46940445899963,2,0.4913294315338135,None,,,,,,,,,,,,,,,,,,99999,99999,2025-02-07_13h43.02.637,comp,2024.2.4,60.071553583551264,2025-02-07 13h43.12.426993 -0500,
108,108,0,catch,None,None,None,None,None,None,None,None,None,None,3,0.43150973320007324,None,,,,,0,0,0,0,0,108,108,121,119.49744391441345,,,,,,,,,,,,,,,,,,,,,,,,,,,,,,,,,,,,,,,,,,,,,,,,,,,,,,,,,,,,,,,,,,,,,,,,,,,,,,,,,86,104,178,147,61,129,1.0,1.3,258,-277,480,-288,714,-252,119.47041416168213,119.47090363502502,119.4855387210846,119.49744391441345,119.63775110244751,119.63775110244751,119.63775110244751,119.63775110244751,119.63775110244751,119.63775110244751,119.63775110244751,119.63775110244751,119.63775110244751,119.63775110244751,119.63775110244751,119.93634009361267,3,0.43150973320007324,None,,,,,,,,,,,,,,,,,,99999,99999,2025-02-07_13h43.02.637,comp,2024.2.4,60.071553583551264,2025-02-07 13h43.12.426993 -0500,
109,109,0,filler_square,None,None,None,None,None,None,None,None,None,None,2,0.5470418930053711,None,,,,,0,0,0,0,0,109,109,177,119.96587872505188,,,,,,,,,,,,,,,,,,,,,,,,,,,,,,,,,,,,,,,,,,,,,,,,,,,,,,,,,,,,,,,,,,,,,,,,,,,,,,,,,146.39164401882545,61.53811457760561,74.99384293600576,107.63410025454465,151.20535349736093,151.20535349736093,2.2,2.21,-181,-272,0,275,225,274,119.93728351593018,119.93780136108398,119.95367860794067,119.96587872505188,120.10458111763,120.10458111763,120.10458111763,120.10458111763,120.10458111763,120.10458111763,120.10458111763,120.10458111763,120.10458111763,120.10458111763,120.10458111763,120.51974892616272,2,0.5470418930053711,None,,,,,,,,,,,,,,,,,,99999,99999,2025-02-07_13h43.02.637,comp,2024.2.4,60.071553583551264,2025-02-07 13h43.12.426993 -0500,
110,110,0,filler_random,None,None,None,None,None,None,None,None,None,None,3,0.6369714736938477,None,,,,,0,0,0,0,0,110,110,161,120.54791498184204,,,,,,,,,,,,,,,,,,,,,,,,,,,,,,,,,,,,,,,,,,,,,,,,,,,,,,,,,,,,,,,,,,,,,,,,,,,,,,,,,61.87870763705203,73.54633909726448,147.89531731700754,117.69862911803054,129.67862971235945,156.14610402506148,2.2,2.21,-192,-265,0,254,233,264,120.52054691314697,120.52102160453796,120.53611183166504,120.54791498184204,120.68800091743469,120.68800091743469,120.68800091743469,120.68800091743469,120.68800091743469,120.68800091743469,120.68800091743469,120.68800091743469,120.68800091743469,120.68800091743469,120.68800091743469,121.20275688171387,3,0.6369714736938477,None,,,,,,,,,,,,,,,,,,99999,99999,2025-02-07_13h43.02.637,comp,2024.2.4,60.071553583551264,2025-02-07 13h43.12.426993 -0500,
111,111,0,critical,dhw,60.0,2.1,lower,55.0,55.0,133.0,57.0,57.0,133.0,2,0.673069953918457,None,,,,,0,0,0,0,0,111,111,2,121.23065710067749,,,,,,,,,,,,,,,,,,,,,,,,,,,,,,,,,,,,,,,,,,,,,,,,,,,,,,,,,,,,,,,,,,,,,,,,,,,,,,,,,55.0,55.0,133.0,57.0,57.0,133.0,2.1,2.11,-152,258,0,253,191,-252,121.20351338386536,121.2039885520935,121.21892833709717,121.23065710067749,121.37108612060547,121.37108612060547,121.37108612060547,121.37108612060547,121.37108612060547,121.37108612060547,121.37108612060547,121.37108612060547,121.37108612060547,121.37108612060547,121.37108612060547,121.91935729980469,2,0.673069953918457,None,,,,,,,,,,,,,,,,,,99999,99999,2025-02-07_13h43.02.637,comp,2024.2.4,60.071553583551264,2025-02-07 13h43.12.426993 -0500,
112,112,0,critical,hdw,45.0,3.0,lower,133.0,57.0,65.0,65.0,57.0,133.0,3,0.47417449951171875,None,,,,,0,0,0,0,0,112,112,110,121.94404888153076,,,,,,,,,,,,,,,,,,,,,,,,,,,,,,,,,,,,,,,,,,,,,,,,,,,,,,,,,,,,,,,,,,,,,,,,,,,,,,,,,133.0,57.0,65.0,65.0,57.0,133.0,3.0,3.1,-157,254,0,-2,195,-283,121.92011213302612,121.92056250572205,121.93232011795044,121.94404888153076,122.08724689483643,122.08724689483643,122.08724689483643,122.08724689483643,122.08724689483643,122.08724689483643,122.08724689483643,122.08724689483643,122.08724689483643,122.08724689483643,122.08724689483643,122.43612170219421,3,0.47417449951171875,None,,,,,,,,,,,,,,,,,,99999,99999,2025-02-07_13h43.02.637,comp,2024.2.4,60.071553583551264,2025-02-07 13h43.12.426993 -0500,
113,113,0,critical,hdw,45.0,1.0,upper,200.0,125.0,117.0,117.0,125.0,200.0,2,0.40778231620788574,None,,,,,0,0,0,0,0,113,113,109,122.460209608078,,,,,,,,,,,,,,,,,,,,,,,,,,,,,,,,,,,,,,,,,,,,,,,,,,,,,,,,,,,,,,,,,,,,,,,,,,,,,,,,,200.0,125.0,117.0,117.0,125.0,200.0,1.0,1.3,263,-285,480,-283,734,-265,122.43687534332275,122.43742346763611,122.44867730140686,122.460209608078,122.60410833358765,122.60410833358765,122.60410833358765,122.60410833358765,122.60410833358765,122.60410833358765,122.60410833358765,122.60410833358765,122.60410833358765,122.60410833358765,122.60410833358765,122.88609027862549,2,0.40778231620788574,None,,,,,,,,,,,,,,,,,,99999,99999,2025-02-07_13h43.02.637,comp,2024.2.4,60.071553583551264,2025-02-07 13h43.12.426993 -0500,
114,114,0,filler_square,None,None,None,None,None,None,None,None,None,None,2,0.40514254570007324,None,,,,,0,0,0,0,0,114,114,198,122.91474628448486,,,,,,,,,,,,,,,,,,,,,,,,,,,,,,,,,,,,,,,,,,,,,,,,,,,,,,,,,,,,,,,,,,,,,,,,,,,,,,,,,73.60003098935084,73.60003098935084,68.81239599471206,72.64401791245498,59.36534584578089,67.4784746162282,4.0,4.2,-169,1,0,-282,166,8,122.88701629638672,122.88752579689026,122.90316247940063,122.91474628448486,123.05744957923889,123.05744957923889,123.05744957923889,123.05744957923889,123.05744957923889,123.05744957923889,123.05744957923889,123.05744957923889,123.05744957923889,123.05744957923889,123.05744957923889,123.3358645439148,2,0.40514254570007324,None,,,,,,,,,,,,,,,,,,99999,99999,2025-02-07_13h43.02.637,comp,2024.2.4,60.071553583551264,2025-02-07 13h43.12.426993 -0500,
115,115,0,critical,dhw,45.0,3.0,lower,65.0,65.0,133.0,57.0,57.0,133.0,3,0.4050900936126709,None,,,,,0,0,0,0,0,115,115,50,123.36328768730164,,,,,,,,,,,,,,,,,,,,,,,,,,,,,,,,,,,,,,,,,,,,,,,,,,,,,,,,,,,,,,,,,,,,,,,,,,,,,,,,,65.0,65.0,133.0,57.0,57.0,133.0,3.0,3.2,-157,-258,0,-8,191,250,123.33658504486084,123.33706569671631,123.35150623321533,123.36328768730164,123.50529074668884,123.50529074668884,123.50529074668884,123.50529074668884,123.50529074668884,123.50529074668884,123.50529074668884,123.50529074668884,123.50529074668884,123.50529074668884,123.50529074668884,123.78591012954712,3,0.4050900936126709,None,,,,,,,,,,,,,,,,,,99999,99999,2025-02-07_13h43.02.637,comp,2024.2.4,60.071553583551264,2025-02-07 13h43.12.426993 -0500,
116,116,0,filler_square,None,None,None,None,None,None,None,None,None,None,2,0.3382091522216797,None,,,,,0,0,0,0,0,116,116,186,123.8135998249054,,,,,,,,,,,,,,,,,,,,,,,,,,,,,,,,,,,,,,,,,,,,,,,,,,,,,,,,,,,,,,,,,,,,,,,,,,,,,,,,,74.37065974887724,58.52158658998064,98.59427248288625,98.59427248288625,81.65429304131575,90.23276808453744,2.1,2.11,-175,268,0,265,190,-287,123.78683352470398,123.78733968734741,123.80222797393799,123.8135998249054,123.95377373695374,123.95377373695374,123.95377373695374,123.95377373695374,123.95377373695374,123.95377373695374,123.95377373695374,123.95377373695374,123.95377373695374,123.95377373695374,123.95377373695374,124.16943955421448,2,0.3382091522216797,None,,,,,,,,,,,,,,,,,,99999,99999,2025-02-07_13h43.02.637,comp,2024.2.4,60.071553583551264,2025-02-07 13h43.12.426993 -0500,
117,117,0,critical,hwd,60.0,2.1,upper,200.0,125.0,125.0,200.0,100.0,100.0,3,0.3705627918243408,None,,,,,0,0,0,0,0,117,117,43,124.19780826568604,,,,,,,,,,,,,,,,,,,,,,,,,,,,,,,,,,,,,,,,,,,,,,,,,,,,,,,,,,,,,,,,,,,,,,,,,,,,,,,,,200.0,125.0,125.0,200.0,100.0,100.0,2.1,2.12,-258,-252,0,-254,246,263,124.17021608352661,124.1706862449646,124.1861515045166,124.19780826568604,124.33799171447754,124.33799171447754,124.33799171447754,124.33799171447754,124.33799171447754,124.33799171447754,124.33799171447754,124.33799171447754,124.33799171447754,124.33799171447754,124.33799171447754,124.58597159385681,3,0.3705627918243408,None,,,,,,,,,,,,,,,,,,99999,99999,2025-02-07_13h43.02.637,comp,2024.2.4,60.071553583551264,2025-02-07 13h43.12.426993 -0500,
118,118,0,filler_square,None,None,None,None,None,None,None,None,None,None,2,0.3953394889831543,None,,,,,0,0,0,0,0,118,118,197,124.61360454559326,,,,,,,,,,,,,,,,,,,,,,,,,,,,,,,,,,,,,,,,,,,,,,,,,,,,,,,,,,,,,,,,,,,,,,,,,,,,,,,,,71.0128731029624,57.676210656080336,94.65838924542963,94.65838924542963,70.99459576520962,89.26671004032532,4.0,4.1,-172,-260,0,-10,188,-275,124.58687448501587,124.58728003501892,124.60165071487427,124.61360454559326,124.75705647468567,124.75705647468567,124.75705647468567,124.75705647468567,124.75705647468567,124.75705647468567,124.75705647468567,124.75705647468567,124.75705647468567,124.75705647468567,124.75705647468567,125.01910138130188,2,0.3953394889831543,None,,,,,,,,,,,,,,,,,,99999,99999,2025-02-07_13h43.02.637,comp,2024.2.4,60.071553583551264,2025-02-07 13h43.12.426993 -0500,
119,119,0,filler_square,None,None,None,None,None,None,None,None,None,None,2,0.3558776378631592,None,,,,,0,0,0,0,0,119,119,183,125.04527926445007,,,,,,,,,,,,,,,,,,,,,,,,,,,,,,,,,,,,,,,,,,,,,,,,,,,,,,,,,,,,,,,,,,,,,,,,,,,,,,,,,60.64402044384598,68.5858152981213,70.52370174062901,57.24022795155713,76.92541828192675,76.92541828192675,2.1,2.12,-159,-260,0,-266,163,287,125.02009105682373,125.0206196308136,125.03318619728088,125.04527926445007,125.18689918518066,125.18689918518066,125.18689918518066,125.18689918518066,125.18689918518066,125.18689918518066,125.18689918518066,125.18689918518066,125.18689918518066,125.18689918518066,125.18689918518066,125.41912031173706,2,0.3558776378631592,None,,,,,,,,,,,,,,,,,,99999,99999,2025-02-07_13h43.02.637,comp,2024.2.4,60.071553583551264,2025-02-07 13h43.12.426993 -0500,
120,120,0,critical,dwh,60.0,2.1,upper,100.0,100.0,125.0,200.0,200.0,125.0,3,0.3541877269744873,None,,,,,0,0,0,0,0,120,120,31,125.4472804069519,,,,,,,,,,,,,,,,,,,,,,,,,,,,,,,,,,,,,,,,,,,,,,,,,,,,,,,,,,,,,,,,,,,,,,,,,,,,,,,,,100.0,100.0,125.0,200.0,200.0,125.0,2.1,2.12,-246,-285,0,-272,258,256,125.41989231109619,125.42035412788391,125.43554019927979,125.4472804069519,125.58799839019775,125.58799839019775,125.58799839019775,125.58799839019775,125.58799839019775,125.58799839019775,125.58799839019775,125.58799839019775,125.58799839019775,125.58799839019775,125.58799839019775,125.81933403015137,3,0.3541877269744873,None,,,,,,,,,,,,,,,,,,99999,99999,2025-02-07_13h43.02.637,comp,2024.2.4,60.071553583551264,2025-02-07 13h43.12.426993 -0500,
121,121,0,critical,wdh,60.0,2.1,upper,125.0,200.0,100.0,100.0,200.0,125.0,3,0.36482787132263184,None,,,,,0,0,0,0,0,121,121,35,125.8442792892456,,,,,,,,,,,,,,,,,,,,,,,,,,,,,,,,,,,,,,,,,,,,,,,,,,,,,,,,,,,,,,,,,,,,,,,,,,,,,,,,,125.0,200.0,100.0,100.0,200.0,125.0,2.1,2.12,-246,-270,0,-266,208,266,125.82008481025696,125.82053828239441,125.83271169662476,125.8442792892456,125.98917388916016,125.98917388916016,125.98917388916016,125.98917388916016,125.98917388916016,125.98917388916016,125.98917388916016,125.98917388916016,125.98917388916016,125.98917388916016,125.98917388916016,126.21933627128601,3,0.36482787132263184,None,,,,,,,,,,,,,,,,,,99999,99999,2025-02-07_13h43.02.637,comp,2024.2.4,60.071553583551264,2025-02-07 13h43.12.426993 -0500,
122,122,0,critical,dwh,60.0,2.1,lower,55.0,55.0,57.0,133.0,133.0,57.0,1,0.35671567916870117,None,,,,,0,0,0,0,0,122,122,6,126.2445080280304,,,,,,,,,,,,,,,,,,,,,,,,,,,,,,,,,,,,,,,,,,,,,,,,,,,,,,,,,,,,,,,,,,,,,,,,,,,,,,,,,55.0,55.0,57.0,133.0,133.0,57.0,2.1,2.12,-190,-272,0,-266,191,284,126.22010517120361,126.22065353393555,126.23275566101074,126.2445080280304,126.38730931282043,126.38730931282043,126.38730931282043,126.38730931282043,126.38730931282043,126.38730931282043,126.38730931282043,126.38730931282043,126.38730931282043,126.38730931282043,126.38730931282043,126.61924958229065,1,0.35671567916870117,None,,,,,,,,,,,,,,,,,,99999,99999,2025-02-07_13h43.02.637,comp,2024.2.4,60.071553583551264,2025-02-07 13h43.12.426993 -0500,
123,123,0,filler_square,None,None,None,None,None,None,None,None,None,None,3,0.2390882968902588,None,,,,,0,0,0,0,0,123,123,193,126.64860367774963,,,,,,,,,,,,,,,,,,,,,,,,,,,,,,,,,,,,,,,,,,,,,,,,,,,,,,,,,,,,,,,,,,,,,,,,,,,,,,,,,162.05949653125344,124.99754692392291,164.3729761233711,164.3729761233711,77.69191295880483,64.69192075969295,4.0,4.1,-241,-286,0,-4,211,-265,126.62017297744751,126.62069416046143,126.63669157028198,126.64860367774963,126.78812050819397,126.78812050819397,126.78812050819397,126.78812050819397,126.78812050819397,126.78812050819397,126.78812050819397,126.78812050819397,126.78812050819397,126.78812050819397,126.78812050819397,126.90278005599976,3,0.2390882968902588,None,,,,,,,,,,,,,,,,,,99999,99999,2025-02-07_13h43.02.637,comp,2024.2.4,60.071553583551264,2025-02-07 13h43.12.426993 -0500,
124,124,0,filler_random,None,None,None,None,None,None,None,None,None,None,2,0.3382227420806885,None,,,,,0,0,0,0,0,124,124,131,126.92965888977051,,,,,,,,,,,,,,,,,,,,,,,,,,,,,,,,,,,,,,,,,,,,,,,,,,,,,,,,,,,,,,,,,,,,,,,,,,,,,,,,,184.94999031890694,153.45307473393092,76.50192398095028,182.39691739887488,195.07405060315503,127.24947307657553,1.0,1.1,-744,269,-480,283,-229,276,126.90361094474792,126.90407657623291,126.91793704032898,126.92965888977051,127.07104301452637,127.07104301452637,127.07104301452637,127.07104301452637,127.07104301452637,127.07104301452637,127.07104301452637,127.07104301452637,127.07104301452637,127.07104301452637,127.07104301452637,127.26965522766113,2,0.3382227420806885,None,,,,,,,,,,,,,,,,,,99999,99999,2025-02-07_13h43.02.637,comp,2024.2.4,60.071553583551264,2025-02-07 13h43.12.426993 -0500,
