thisN,thisTrialN,thisRepN,effect,order,distance,config,diag,h_1,w_1,h_2,w_2,h_3,w_3,rect_choice.keys,rect_choice.rt,rect_choice.duration,instructions_loop.thisRepN,instructions_loop.thisTrialN,instructions_loop.thisN,instructions_loop.thisIndex,blocks.thisRepN,blocks.thisTrialN,blocks.thisN,blocks.thisIndex,trials.thisRepN,trials.thisTrialN,trials.thisN,trials.thisIndex,thisRow.t,notes,consent.started,agree_button.started,decline_button.started,consent_img.started,mouse.started,consent.stopped,agree_button.numClicks,agree_button.timesOn,agree_button.timesOff,decline_button.numClicks,decline_button.timesOn,decline_button.timesOff,mouse.x,mouse.y,mouse.leftButton,mouse.midButton,mouse.rightButton,mouse.time,mouse.clicked_name,exp_params.started,exp_params.stopped,welcome.started,welcome_text.started,welcome.stopped,instructions_1.started,instructions_1_text_1.started,instructions_1_text_2.started,key_resp.started,instructions_1.stopped,instructions_loop.key_resp.keys,instructions_loop.key_resp.rt,instructions_loop.key_resp.duration,instructions_2.started,instructions_2_text_1.started,instructions_2_text_2.started,key_resp_2.started,instructions_2.stopped,instructions_loop.key_resp_2.keys,instructions_loop.key_resp_2.rt,instructions_loop.key_resp_2.duration,instructions_3.started,instructions_3_text_1.started,r1_instr3.started,r2_instr3.started,r3_instr3.started,r1_instr3_label.started,r2_instr3_label.started,r3_instr3_label.started,instructions_3_text_3.started,instructions_3_text_4.started,key_resp_3.started,instructions_3.stopped,instructions_loop.key_resp_3.keys,instructions_loop.key_resp_3.rt,instructions_loop.key_resp_3.duration,instructions_4.started,instructions_4_text_1.started,instructions_4_text_3.started,instructions_4_text_2.started,key_resp_4.started,instructions_4.stopped,instructions_loop.key_resp_4.keys,instructions_loop.key_resp_4.rt,instructions_loop.key_resp_4.duration,instructions_5.started,instructions_5_text_1.started,instructions_5_text_2.started,key_resp_5.started,instructions_5.stopped,instructions_loop.key_resp_5.keys,instructions_loop.key_resp_5.rt,instructions_loop.key_resp_5.duration,start_exp.started,start_exp_text.started,key_resp_6.started,start_exp.stopped,key_resp_6.keys,key_resp_6.rt,key_resp_6.duration,h_1_tmp,w_1_tmp,h_2_tmp,w_2_tmp,h_3_tmp,w_3_tmp,config_tmp,config_tmp_1,r_1_x,r_1_y,r_2_x,r_2_y,r_3_x,r_3_y,pre_trial.started,pre_trial.stopped,choice_trial.started,rect_choice.started,r_1.started,r_2.started,r_3.started,r_1_label.started,r_2_label.started,r_3_label.started,prompt.started,choice_trial.stopped,trials.rect_choice.keys,trials.rect_choice.rt,trials.rect_choice.duration,end_block.started,end_block_text.started,end_block.stopped,end.started,end_text.started,key_resp_7.started,end.stopped,key_resp_7.keys,key_resp_7.rt,key_resp_7.duration,debriefing.started,debrief_form.started,end_debrief.started,debriefing.stopped,end_debrief.keys,end_debrief.rt,end_debrief.duration,participant,computer,date,expName,psychopyVersion,frameRate,expStart,
,,,,,,,,,,,,,,,,,,,,,,,,,,,,,,,0.015435457229614258,0.04143404960632324,0.04143404960632324,0.04143404960632324,0.015118837356567383,9.178102493286133,1,[9.13544249534607],[9.135456085205078],0,,,[-85.0],[-508.0],[1],[0],[0],[9.162144660949707],['agree_button'],,,,,,,,,,,,,,,,,,,,,,,,,,,,,,,,,,,,,,,,,,,,,,,,,,,,,,,,,,,,,,,,,,,,,,,,,,,,,,,,,,,,,,,,,,,,,,,,,,,,,,,,,,,100,3,2025-02-24_14h58.42.753,comp,2024.2.4,60.14244438230845,2025-02-24 14h58.58.867663 -0500,
,,,,,,,,,,,,,,,,,,,,,,,,,,,,,,,,,,,,,,,,,,,,,,,,,,9.178367614746094,9.178401231765747,,,,,,,,,,,,,,,,,,,,,,,,,,,,,,,,,,,,,,,,,,,,,,,,,,,,,,,,,,,,,,,,,,,,,,,,,,,,,,,,,,,,,,,,,,,,,,,,,,,,,,,,,100,3,2025-02-24_14h58.42.753,comp,2024.2.4,60.14244438230845,2025-02-24 14h58.58.867663 -0500,
,,,,,,,,,,,,,,,,,,,,,,,,,,,,,,,,,,,,,,,,,,,,,,,,,,,,9.178423404693604,9.191690921783447,11.189581155776978,,,,,,,,,,,,,,,,,,,,,,,,,,,,,,,,,,,,,,,,,,,,,,,,,,,,,,,,,,,,,,,,,,,,,,,,,,,,,,,,,,,,,,,,,,,,,,,,,,,,,,100,3,2025-02-24_14h58.42.753,comp,2024.2.4,60.14244438230845,2025-02-24 14h58.58.867663 -0500,
0,0,0,,,,,,,,,,,,,,,0,0,0,0,,,,,,,,,11.206332921981812,,,,,,,,,,,,,,,,,,,,,,,,,,11.190136671066284,11.206332921981812,11.206332921981812,12.688995122909546,15.773813486099243,space,3.0638389587402344,None,15.773898363113403,15.789230823516846,15.789230823516846,17.289097785949707,25.10687017440796,space,7.800231456756592,None,25.106960773468018,25.128536224365234,25.128536224365234,25.128536224365234,25.128536224365234,25.128536224365234,25.128536224365234,25.128536224365234,25.128536224365234,25.128536224365234,26.60608673095703,35.09053659439087,space,8.474237442016602,None,35.09062743186951,35.106186628341675,35.106186628341675,35.106186628341675,36.58912444114685,45.4732027053833,space,8.86704421043396,None,45.473292112350464,45.4888961315155,45.4888961315155,46.98881936073303,48.039841651916504,space,1.043015956878662,None,48.039955854415894,48.05567145347595,48.05567145347595,49.53973460197449,space,1.4658284187316895,None,,,,,,,,,,,,,,,,,,,,,,,,,,,,,,,,,,,,,,,,,,,,,,,100,3,2025-02-24_14h58.42.753,comp,2024.2.4,60.14244438230845,2025-02-24 14h58.58.867663 -0500,
0,0,0,critical,dhw,20.0,1.0,lower,78.0,78.0,133.0,57.0,57.0,133.0,2,7.985619306564331,None,,,,,0,0,0,0,0,0,0,54,49.598063468933105,,,,,,,,,,,,,,,,,,,,,,,,,,,,,,,,,,,,,,,,,,,,,,,,,,,,,,,,,,,,,,,,,,,,,,,,,,,,,,,,,78.0,78.0,133.0,57.0,57.0,133.0,1.0,1.3,316,-265,480,-285,671,-273,49.58446145057678,49.58450722694397,49.58650803565979,49.598063468933105,49.745814085006714,49.745814085006714,49.745814085006714,49.745814085006714,49.745814085006714,49.745814085006714,49.745814085006714,57.5900354385376,2,7.985619306564331,None,,,,,,,,,,,,,,,,,,100,3,2025-02-24_14h58.42.753,comp,2024.2.4,60.14244438230845,2025-02-24 14h58.58.867663 -0500,
1,1,0,critical,dhw,20.0,2.1,upper,141.0,141.0,200.0,125.0,125.0,200.0,3,12.08349323272705,None,,,,,0,0,0,0,0,1,1,27,57.605745792388916,,,,,,,,,,,,,,,,,,,,,,,,,,,,,,,,,,,,,,,,,,,,,,,,,,,,,,,,,,,,,,,,,,,,,,,,,,,,,,,,,141.0,141.0,200.0,125.0,125.0,200.0,2.1,2.12,-229,-273,0,-256,258,283,57.590837478637695,57.590877294540405,57.59289073944092,57.605745792388916,57.755773305892944,57.755773305892944,57.755773305892944,57.755773305892944,57.755773305892944,57.755773305892944,57.755773305892944,69.70671272277832,3,12.08349323272705,None,,,,,,,,,,,,,,,,,,100,3,2025-02-24_14h58.42.753,comp,2024.2.4,60.14244438230845,2025-02-24 14h58.58.867663 -0500,
2,2,0,critical,whd,20.0,3.0,upper,125.0,200.0,200.0,125.0,141.0,141.0,1,4.021312713623047,None,,,,,0,0,0,0,0,2,2,93,69.72187519073486,,,,,,,,,,,,,,,,,,,,,,,,,,,,,,,,,,,,,,,,,,,,,,,,,,,,,,,,,,,,,,,,,,,,,,,,,,,,,,,,,125.0,200.0,200.0,125.0,141.0,141.0,3.0,3.1,-258,262,0,-12,229,-267,69.70748257637024,69.70752167701721,69.7099666595459,69.72187519073486,69.87225031852722,69.87225031852722,69.87225031852722,69.87225031852722,69.87225031852722,69.87225031852722,69.87225031852722,73.75686597824097,1,4.021312713623047,None,,,,,,,,,,,,,,,,,,100,3,2025-02-24_14h58.42.753,comp,2024.2.4,60.14244438230845,2025-02-24 14h58.58.867663 -0500,
3,3,0,critical,dwh,35.0,2.1,lower,70.0,70.0,57.0,133.0,133.0,57.0,2,11.603068351745605,None,,,,,0,0,0,0,0,3,3,4,73.77195167541504,,,,,,,,,,,,,,,,,,,,,,,,,,,,,,,,,,,,,,,,,,,,,,,,,,,,,,,,,,,,,,,,,,,,,,,,,,,,,,,,,70.0,70.0,57.0,133.0,133.0,57.0,2.1,2.12,-198,-279,0,-287,191,269,73.75769209861755,73.75773191452026,73.75989508628845,73.77195167541504,73.92213296890259,73.92213296890259,73.92213296890259,73.92213296890259,73.92213296890259,73.92213296890259,73.92213296890259,85.38960886001587,2,11.603068351745605,None,,,,,,,,,,,,,,,,,,100,3,2025-02-24_14h58.42.753,comp,2024.2.4,60.14244438230845,2025-02-24 14h58.58.867663 -0500,
4,4,0,filler_square,None,None,None,None,None,None,None,None,None,None,1,1.7215471267700195,None,,,,,0,0,0,0,0,4,4,193,85.40519118309021,,,,,,,,,,,,,,,,,,,,,,,,,,,,,,,,,,,,,,,,,,,,,,,,,,,,,,,,,,,,,,,,,,,,,,,,,,,,,,,,,102.97684301074678,102.97684301074678,74.99170648497983,72.49079249447986,80.76817577315302,61.943669519123986,2.2,2.21,-184,-267,0,274,163,290,85.39057111740112,85.39060926437378,85.39311957359314,85.40519118309021,85.55536675453186,85.55536675453186,85.55536675453186,85.55536675453186,85.55536675453186,85.55536675453186,85.55536675453186,87.13972592353821,1,1.7215471267700195,None,,,,,,,,,,,,,,,,,,100,3,2025-02-24_14h58.42.753,comp,2024.2.4,60.14244438230845,2025-02-24 14h58.58.867663 -0500,
5,5,0,critical,dwh,35.0,1.0,upper,127.0,127.0,125.0,200.0,200.0,125.0,3,1.9249248504638672,None,,,,,0,0,0,0,0,5,5,61,87.15518569946289,,,,,,,,,,,,,,,,,,,,,,,,,,,,,,,,,,,,,,,,,,,,,,,,,,,,,,,,,,,,,,,,,,,,,,,,,,,,,,,,,127.0,127.0,125.0,200.0,200.0,125.0,1.0,1.2,-260,4,0,11,258,-16,87.14049291610718,87.14053297042847,87.14305758476257,87.15518569946289,87.30551552772522,87.30551552772522,87.30551552772522,87.30551552772522,87.30551552772522,87.30551552772522,87.30551552772522,89.08989882469177,3,1.9249248504638672,None,,,,,,,,,,,,,,,,,,100,3,2025-02-24_14h58.42.753,comp,2024.2.4,60.14244438230845,2025-02-24 14h58.58.867663 -0500,
6,6,0,critical,dwh,20.0,1.0,upper,141.0,141.0,125.0,200.0,200.0,125.0,2,3.437816619873047,None,,,,,0,0,0,0,0,6,6,67,89.10547161102295,,,,,,,,,,,,,,,,,,,,,,,,,,,,,,,,,,,,,,,,,,,,,,,,,,,,,,,,,,,,,,,,,,,,,,,,,,,,,,,,,141.0,141.0,125.0,200.0,200.0,125.0,1.0,1.3,214,-251,480,-285,738,-266,89.09070777893066,89.09074831008911,89.0928566455841,89.10547161102295,89.25544095039368,89.25544095039368,89.25544095039368,89.25544095039368,89.25544095039368,89.25544095039368,89.25544095039368,92.55657720565796,2,3.437816619873047,None,,,,,,,,,,,,,,,,,,100,3,2025-02-24_14h58.42.753,comp,2024.2.4,60.14244438230845,2025-02-24 14h58.58.867663 -0500,
7,7,0,filler_square,None,None,None,None,None,None,None,None,None,None,2,2.067193031311035,None,,,,,0,0,0,0,0,7,7,178,92.57187509536743,,,,,,,,,,,,,,,,,,,,,,,,,,,,,,,,,,,,,,,,,,,,,,,,,,,,,,,,,,,,,,,,,,,,,,,,,,,,,,,,,172.9022182038679,75.53287029824926,176.39963433435872,176.39963433435872,91.71486779020928,113.3351528388014,1.0,1.2,-222,-18,0,13,241,-9,92.55754590034485,92.55758595466614,92.56007552146912,92.57187509536743,92.72216296195984,92.72216296195984,92.72216296195984,92.72216296195984,92.72216296195984,92.72216296195984,92.72216296195984,94.65657234191895,2,2.067193031311035,None,,,,,,,,,,,,,,,,,,100,3,2025-02-24_14h58.42.753,comp,2024.2.4,60.14244438230845,2025-02-24 14h58.58.867663 -0500,
8,8,0,critical,dwh,35.0,2.1,upper,127.0,127.0,125.0,200.0,200.0,125.0,2,7.727577209472656,None,,,,,0,0,0,0,0,8,8,29,94.67189383506775,,,,,,,,,,,,,,,,,,,,,,,,,,,,,,,,,,,,,,,,,,,,,,,,,,,,,,,,,,,,,,,,,,,,,,,,,,,,,,,,,127.0,127.0,125.0,200.0,200.0,125.0,2.1,2.11,-260,270,0,265,258,-251,94.65736961364746,94.65740871429443,94.65979290008545,94.67189383506775,94.82216358184814,94.82216358184814,94.82216358184814,94.82216358184814,94.82216358184814,94.82216358184814,94.82216358184814,102.40648055076599,2,7.727577209472656,None,,,,,,,,,,,,,,,,,,100,3,2025-02-24_14h58.42.753,comp,2024.2.4,60.14244438230845,2025-02-24 14h58.58.867663 -0500,
9,9,0,critical,hwd,20.0,2.1,lower,133.0,57.0,57.0,133.0,78.0,78.0,1,4.000544548034668,None,,,,,0,0,0,0,0,9,9,18,102.42199993133545,,,,,,,,,,,,,,,,,,,,,,,,,,,,,,,,,,,,,,,,,,,,,,,,,,,,,,,,,,,,,,,,,,,,,,,,,,,,,,,,,133.0,57.0,57.0,133.0,78.0,78.0,2.1,2.12,-191,-280,0,-265,202,272,102.40727543830872,102.40731596946716,102.40942454338074,102.42199993133545,102.57196736335754,102.57196736335754,102.57196736335754,102.57196736335754,102.57196736335754,102.57196736335754,102.57196736335754,106.43958187103271,1,4.000544548034668,None,,,,,,,,,,,,,,,,,,100,3,2025-02-24_14h58.42.753,comp,2024.2.4,60.14244438230845,2025-02-24 14h58.58.867663 -0500,
10,10,0,filler_random,None,None,None,None,None,None,None,None,None,None,1,8.192409992218018,None,,,,,0,0,0,0,0,10,10,139,106.45507645606995,,,,,,,,,,,,,,,,,,,,,,,,,,,,,,,,,,,,,,,,,,,,,,,,,,,,,,,,,,,,,,,,,,,,,,,,,,,,,,,,,128.60897506678344,134.01883602116476,162.78156842328548,84.87714379044357,100.29404476057937,164.76977665650213,4.0,4.1,-205,-276,0,15,221,-274,106.44046998023987,106.4405083656311,106.44305086135864,106.45507645606995,106.60557174682617,106.60557174682617,106.60557174682617,106.60557174682617,106.60557174682617,106.60557174682617,106.60557174682617,114.6562705039978,1,8.192409992218018,None,,,,,,,,,,,,,,,,,,100,3,2025-02-24_14h58.42.753,comp,2024.2.4,60.14244438230845,2025-02-24 14h58.58.867663 -0500,
11,11,0,critical,hdw,35.0,4.0,upper,200.0,125.0,127.0,127.0,125.0,200.0,3,3.991309881210327,None,,,,,0,0,0,0,0,11,11,113,114.67194747924805,,,,,,,,,,,,,,,,,,,,,,,,,,,,,,,,,,,,,,,,,,,,,,,,,,,,,,,,,,,,,,,,,,,,,,,,,,,,,,,,,200.0,125.0,127.0,127.0,125.0,200.0,4.0,4.2,-222,3,0,-280,260,-12,114.65707683563232,114.65711665153503,114.65921425819397,114.67194747924805,114.82190418243408,114.82190418243408,114.82190418243408,114.82190418243408,114.82190418243408,114.82190418243408,114.82190418243408,118.67313575744629,3,3.991309881210327,None,,,,,,,,,,,,,,,,,,100,3,2025-02-24_14h58.42.753,comp,2024.2.4,60.14244438230845,2025-02-24 14h58.58.867663 -0500,
12,12,0,critical,dwh,20.0,2.1,lower,78.0,78.0,57.0,133.0,133.0,57.0,1,2.174551486968994,None,,,,,0,0,0,0,0,12,12,6,118.68867444992065,,,,,,,,,,,,,,,,,,,,,,,,,,,,,,,,,,,,,,,,,,,,,,,,,,,,,,,,,,,,,,,,,,,,,,,,,,,,,,,,,78.0,78.0,57.0,133.0,133.0,57.0,2.1,2.11,-202,283,0,253,191,-266,118.6740472316742,118.67409014701843,118.67625427246094,118.68867444992065,118.83835792541504,118.83835792541504,118.83835792541504,118.83835792541504,118.83835792541504,118.83835792541504,118.83835792541504,120.87279987335205,1,2.174551486968994,None,,,,,,,,,,,,,,,,,,100,3,2025-02-24_14h58.42.753,comp,2024.2.4,60.14244438230845,2025-02-24 14h58.58.867663 -0500,
13,13,0,critical,hwd,20.0,2.1,lower,133.0,57.0,57.0,133.0,78.0,78.0,1,6.294555902481079,None,,,,,0,0,0,0,0,13,13,42,120.8886034488678,,,,,,,,,,,,,,,,,,,,,,,,,,,,,,,,,,,,,,,,,,,,,,,,,,,,,,,,,,,,,,,,,,,,,,,,,,,,,,,,,133.0,57.0,57.0,133.0,78.0,78.0,2.1,2.11,-191,274,0,285,202,-255,120.87360119819641,120.87364172935486,120.87572026252747,120.8886034488678,121.03835701942444,121.03835701942444,121.03835701942444,121.03835701942444,121.03835701942444,121.03835701942444,121.03835701942444,127.18947172164917,1,6.294555902481079,None,,,,,,,,,,,,,,,,,,100,3,2025-02-24_14h58.42.753,comp,2024.2.4,60.14244438230845,2025-02-24 14h58.58.867663 -0500,
14,14,0,critical,whd,20.0,4.0,lower,57.0,133.0,133.0,57.0,78.0,78.0,1,2.2103304862976074,None,,,,,0,0,0,0,0,14,14,94,127.20515990257263,,,,,,,,,,,,,,,,,,,,,,,,,,,,,,,,,,,,,,,,,,,,,,,,,,,,,,,,,,,,,,,,,,,,,,,,,,,,,,,,,57.0,133.0,133.0,57.0,78.0,78.0,4.0,4.1,-191,-267,0,-9,164,-256,127.1902847290039,127.19032526016235,127.19278597831726,127.20515990257263,127.35504364967346,127.35504364967346,127.35504364967346,127.35504364967346,127.35504364967346,127.35504364967346,127.35504364967346,129.42282915115356,1,2.2103304862976074,None,,,,,,,,,,,,,,,,,,100,3,2025-02-24_14h58.42.753,comp,2024.2.4,60.14244438230845,2025-02-24 14h58.58.867663 -0500,
15,15,0,critical,dwh,20.0,4.0,lower,78.0,78.0,57.0,133.0,133.0,57.0,2,3.1608874797821045,None,,,,,0,0,0,0,0,15,15,70,129.43842673301697,,,,,,,,,,,,,,,,,,,,,,,,,,,,,,,,,,,,,,,,,,,,,,,,,,,,,,,,,,,,,,,,,,,,,,,,,,,,,,,,,78.0,78.0,57.0,133.0,133.0,57.0,4.0,4.2,-202,6,0,-251,191,18,129.4236249923706,129.42366480827332,129.42655420303345,129.43842673301697,129.58833289146423,129.58833289146423,129.58833289146423,129.58833289146423,129.58833289146423,129.58833289146423,129.58833289146423,132.60620403289795,2,3.1608874797821045,None,,,,,,,,,,,,,,,,,,100,3,2025-02-24_14h58.42.753,comp,2024.2.4,60.14244438230845,2025-02-24 14h58.58.867663 -0500,
16,16,0,critical,dwh,35.0,3.0,upper,127.0,127.0,125.0,200.0,200.0,125.0,2,3.7774035930633545,None,,,,,0,0,0,0,0,16,16,63,132.62178015708923,,,,,,,,,,,,,,,,,,,,,,,,,,,,,,,,,,,,,,,,,,,,,,,,,,,,,,,,,,,,,,,,,,,,,,,,,,,,,,,,,127.0,127.0,125.0,200.0,200.0,125.0,3.0,3.2,-260,-252,0,-13,258,274,132.60697174072266,132.60702872276306,132.61032152175903,132.62178015708923,132.77194571495056,132.77194571495056,132.77194571495056,132.77194571495056,132.77194571495056,132.77194571495056,132.77194571495056,136.4063537120819,2,3.7774035930633545,None,,,,,,,,,,,,,,,,,,100,3,2025-02-24_14h58.42.753,comp,2024.2.4,60.14244438230845,2025-02-24 14h58.58.867663 -0500,
17,17,0,catch,None,None,None,None,None,None,None,None,None,None,3,3.145321846008301,None,,,,,0,0,0,0,0,17,17,123,136.42180252075195,,,,,,,,,,,,,,,,,,,,,,,,,,,,,,,,,,,,,,,,,,,,,,,,,,,,,,,,,,,,,,,,,,,,,,,,,,,,,,,,,84,106,74,116,137,188,4.0,4.2,-207,-9,0,-253,248,-2,136.40738344192505,136.40742468833923,136.4095160961151,136.42180252075195,136.57189226150513,136.57189226150513,136.57189226150513,136.57189226150513,136.57189226150513,136.57189226150513,136.57189226150513,139.57286834716797,3,3.145321846008301,None,,,,,,,,,,,,,,,,,,100,3,2025-02-24_14h58.42.753,comp,2024.2.4,60.14244438230845,2025-02-24 14h58.58.867663 -0500,
18,18,0,filler_random,None,None,None,None,None,None,None,None,None,None,3,3.5785787105560303,None,,,,,0,0,0,0,0,18,18,142,139.58845376968384,,,,,,,,,,,,,,,,,,,,,,,,,,,,,,,,,,,,,,,,,,,,,,,,,,,,,,,,,,,,,,,,,,,,,,,,,,,,,,,,,157.80019541003713,83.6813218633279,139.35118145441606,80.92890287830801,95.46872502496142,159.08634394287816,2.2,2.22,-178,260,0,-288,216,-265,139.57377243041992,139.57381439208984,139.5762972831726,139.58845376968384,139.73840713500977,139.73840713500977,139.73840713500977,139.73840713500977,139.73840713500977,139.73840713500977,139.73840713500977,143.17282843589783,3,3.5785787105560303,None,,,,,,,,,,,,,,,,,,100,3,2025-02-24_14h58.42.753,comp,2024.2.4,60.14244438230845,2025-02-24 14h58.58.867663 -0500,
19,19,0,critical,hdw,35.0,2.1,upper,200.0,125.0,127.0,127.0,125.0,200.0,3,6.6425840854644775,None,,,,,0,0,0,0,0,19,19,45,143.18840527534485,,,,,,,,,,,,,,,,,,,,,,,,,,,,,,,,,,,,,,,,,,,,,,,,,,,,,,,,,,,,,,,,,,,,,,,,,,,,,,,,,200.0,125.0,127.0,127.0,125.0,200.0,2.1,2.11,-222,260,0,265,260,-257,143.17361450195312,143.17365431785583,143.17611503601074,143.18840527534485,143.33841681480408,143.33841681480408,143.33841681480408,143.33841681480408,143.33841681480408,143.33841681480408,143.33841681480408,149.839537858963,3,6.6425840854644775,None,,,,,,,,,,,,,,,,,,100,3,2025-02-24_14h58.42.753,comp,2024.2.4,60.14244438230845,2025-02-24 14h58.58.867663 -0500,
20,20,0,critical,wdh,35.0,1.0,lower,57.0,133.0,70.0,70.0,133.0,57.0,1,7.039074659347534,None,,,,,0,0,0,0,0,20,20,72,149.85501742362976,,,,,,,,,,,,,,,,,,,,,,,,,,,,,,,,,,,,,,,,,,,,,,,,,,,,,,,,,,,,,,,,,,,,,,,,,,,,,,,,,57.0,133.0,70.0,70.0,133.0,57.0,1.0,1.1,-678,277,-480,268,-320,268,149.8403697013855,149.840411901474,149.8430359363556,149.85501742362976,150.00493955612183,150.00493955612183,150.00493955612183,150.00493955612183,150.00493955612183,150.00493955612183,150.00493955612183,156.90657258033752,1,7.039074659347534,None,,,,,,,,,,,,,,,,,,100,3,2025-02-24_14h58.42.753,comp,2024.2.4,60.14244438230845,2025-02-24 14h58.58.867663 -0500,
21,21,0,filler_random,None,None,None,None,None,None,None,None,None,None,2,2.3101112842559814,None,,,,,0,0,0,0,0,21,21,143,156.92136096954346,,,,,,,,,,,,,,,,,,,,,,,,,,,,,,,,,,,,,,,,,,,,,,,,,,,,,,,,,,,,,,,,,,,,,,,,,,,,,,,,,196.43230310204177,69.14277931880862,170.62496399947662,142.6419902903304,103.32153683729683,120.14167239907475,1.0,1.2,-202,2,0,8,227,20,156.90749382972717,156.9075345993042,156.9096381664276,156.92136096954346,157.0718309879303,157.0718309879303,157.0718309879303,157.0718309879303,157.0718309879303,157.0718309879303,157.0718309879303,159.2394504547119,2,2.3101112842559814,None,,,,,,,,,,,,,,,,,,100,3,2025-02-24_14h58.42.753,comp,2024.2.4,60.14244438230845,2025-02-24 14h58.58.867663 -0500,
22,22,0,critical,wdh,20.0,2.1,upper,125.0,200.0,141.0,141.0,200.0,125.0,3,2.5120553970336914,None,,,,,0,0,0,0,0,22,22,11,159.25487208366394,,,,,,,,,,,,,,,,,,,,,,,,,,,,,,,,,,,,,,,,,,,,,,,,,,,,,,,,,,,,,,,,,,,,,,,,,,,,,,,,,125.0,200.0,141.0,141.0,200.0,125.0,2.1,2.11,-266,269,0,257,229,-256,159.24025917053223,159.24029898643494,159.24270844459534,159.25487208366394,159.40505862236023,159.40505862236023,159.40505862236023,159.40505862236023,159.40505862236023,159.40505862236023,159.40505862236023,161.77280807495117,3,2.5120553970336914,None,,,,,,,,,,,,,,,,,,100,3,2025-02-24_14h58.42.753,comp,2024.2.4,60.14244438230845,2025-02-24 14h58.58.867663 -0500,
23,23,0,critical,dhw,20.0,4.0,upper,141.0,141.0,200.0,125.0,125.0,200.0,3,3.7322120666503906,None,,,,,0,0,0,0,0,23,23,59,161.78830289840698,,,,,,,,,,,,,,,,,,,,,,,,,,,,,,,,,,,,,,,,,,,,,,,,,,,,,,,,,,,,,,,,,,,,,,,,,,,,,,,,,141.0,141.0,200.0,125.0,125.0,200.0,4.0,4.1,-229,-284,0,-20,258,-255,161.77361273765564,161.77365255355835,161.77612352371216,161.78830289840698,161.93831419944763,161.93831419944763,161.93831419944763,161.93831419944763,161.93831419944763,161.93831419944763,161.93831419944763,165.52312684059143,3,3.7322120666503906,None,,,,,,,,,,,,,,,,,,100,3,2025-02-24_14h58.42.753,comp,2024.2.4,60.14244438230845,2025-02-24 14h58.58.867663 -0500,
24,24,0,critical,wdh,35.0,2.1,lower,57.0,133.0,70.0,70.0,133.0,57.0,1,4.333221912384033,None,,,,,0,0,0,0,0,24,24,8,165.53829264640808,,,,,,,,,,,,,,,,,,,,,,,,,,,,,,,,,,,,,,,,,,,,,,,,,,,,,,,,,,,,,,,,,,,,,,,,,,,,,,,,,57.0,133.0,70.0,70.0,133.0,57.0,2.1,2.12,-198,-282,0,-259,160,284,165.52389788627625,165.5239372253418,165.52640795707703,165.53829264640808,165.6881067752838,165.6881067752838,165.6881067752838,165.6881067752838,165.6881067752838,165.6881067752838,165.6881067752838,169.8891680240631,1,4.333221912384033,None,,,,,,,,,,,,,,,,,,100,3,2025-02-24_14h58.42.753,comp,2024.2.4,60.14244438230845,2025-02-24 14h58.58.867663 -0500,
25,25,0,filler_random,None,None,None,None,None,None,None,None,None,None,2,1.6215565204620361,None,,,,,0,0,0,0,0,25,25,148,169.90454602241516,,,,,,,,,,,,,,,,,,,,,,,,,,,,,,,,,,,,,,,,,,,,,,,,,,,,,,,,,,,,,,,,,,,,,,,,,,,,,,,,,88.35583245913887,130.6928935294021,194.4987357145561,106.5675050724313,65.14275534864727,62.27029111636994,2.1,2.12,-215,-270,0,-271,180,289,169.8900864124298,169.89012789726257,169.89249968528748,169.90454602241516,170.0546944141388,170.0546944141388,170.0546944141388,170.0546944141388,170.0546944141388,170.0546944141388,170.0546944141388,171.53932881355286,2,1.6215565204620361,None,,,,,,,,,,,,,,,,,,100,3,2025-02-24_14h58.42.753,comp,2024.2.4,60.14244438230845,2025-02-24 14h58.58.867663 -0500,
26,26,0,critical,hwd,20.0,1.0,upper,200.0,125.0,125.0,200.0,141.0,141.0,1,2.7965517044067383,None,,,,,0,0,0,0,0,26,26,103,171.55459713935852,,,,,,,,,,,,,,,,,,,,,,,,,,,,,,,,,,,,,,,,,,,,,,,,,,,,,,,,,,,,,,,,,,,,,,,,,,,,,,,,,200.0,125.0,125.0,200.0,141.0,141.0,1.0,1.1,-738,271,-480,278,-214,263,171.5401303768158,171.54017066955566,171.54255390167236,171.55459713935852,171.70488572120667,171.70488572120667,171.70488572120667,171.70488572120667,171.70488572120667,171.70488572120667,171.70488572120667,174.3560972213745,1,2.7965517044067383,None,,,,,,,,,,,,,,,,,,100,3,2025-02-24_14h58.42.753,comp,2024.2.4,60.14244438230845,2025-02-24 14h58.58.867663 -0500,
27,27,0,filler_random,None,None,None,None,None,None,None,None,None,None,2,2.843414068222046,None,,,,,0,0,0,0,0,27,27,162,174.37153363227844,,,,,,,,,,,,,,,,,,,,,,,,,,,,,,,,,,,,,,,,,,,,,,,,,,,,,,,,,,,,,,,,,,,,,,,,,,,,,,,,,73.12389772066028,139.70337914421322,94.99163904398614,192.14185986702665,100.80455344937127,167.73990545533553,4.0,4.1,-262,-255,0,-11,276,-279,174.35697150230408,174.35702538490295,174.35910296440125,174.37153363227844,174.52140069007874,174.52140069007874,174.52140069007874,174.52140069007874,174.52140069007874,174.52140069007874,174.52140069007874,177.222580909729,2,2.843414068222046,None,,,,,,,,,,,,,,,,,,100,3,2025-02-24_14h58.42.753,comp,2024.2.4,60.14244438230845,2025-02-24 14h58.58.867663 -0500,
28,28,0,filler_square,None,None,None,None,None,None,None,None,None,None,3,7.8170812129974365,None,,,,,0,0,0,0,0,28,28,190,177.2381763458252,,,,,,,,,,,,,,,,,,,,,,,,,,,,,,,,,,,,,,,,,,,,,,,,,,,,,,,,,,,,,,,,,,,,,,,,,,,,,,,,,67.31167292819357,58.70807350843872,72.50981084679674,66.75350046799298,75.49203150448949,75.49203150448949,2.2,2.21,-159,-256,0,264,167,255,177.223548412323,177.22358989715576,177.22569966316223,177.2381763458252,177.38809466362,177.38809466362,177.38809466362,177.38809466362,177.38809466362,177.38809466362,177.38809466362,185.07240676879883,3,7.8170812129974365,None,,,,,,,,,,,,,,,,,,100,3,2025-02-24_14h58.42.753,comp,2024.2.4,60.14244438230845,2025-02-24 14h58.58.867663 -0500,
29,29,0,filler_random,None,None,None,None,None,None,None,None,None,None,1,2.991626739501953,None,,,,,0,0,0,0,0,29,29,156,185.08787775039673,,,,,,,,,,,,,,,,,,,,,,,,,,,,,,,,,,,,,,,,,,,,,,,,,,,,,,,,,,,,,,,,,,,,,,,,,,,,,,,,,131.93717324212162,135.43543289304188,81.39079569490748,167.323067036255,130.83648277924027,57.925363456858975,2.2,2.21,-247,-268,0,251,209,288,185.07333207130432,185.07337355613708,185.0758237838745,185.08787775039673,185.23823285102844,185.23823285102844,185.23823285102844,185.23823285102844,185.23823285102844,185.23823285102844,185.23823285102844,188.0891354084015,1,2.991626739501953,None,,,,,,,,,,,,,,,,,,100,3,2025-02-24_14h58.42.753,comp,2024.2.4,60.14244438230845,2025-02-24 14h58.58.867663 -0500,
30,30,0,critical,dhw,35.0,4.0,lower,70.0,70.0,133.0,57.0,57.0,133.0,3,15.094091653823853,None,,,,,0,0,0,0,0,30,30,52,188.104722738266,,,,,,,,,,,,,,,,,,,,,,,,,,,,,,,,,,,,,,,,,,,,,,,,,,,,,,,,,,,,,,,,,,,,,,,,,,,,,,,,,70.0,70.0,133.0,57.0,57.0,133.0,4.0,4.2,-160,9,0,-256,191,-8,188.08994555473328,188.089985370636,188.09229135513306,188.104722738266,188.25460529327393,188.25460529327393,188.25460529327393,188.25460529327393,188.25460529327393,188.25460529327393,188.25460529327393,203.20563197135925,3,15.094091653823853,None,,,,,,,,,,,,,,,,,,100,3,2025-02-24_14h58.42.753,comp,2024.2.4,60.14244438230845,2025-02-24 14h58.58.867663 -0500,
31,31,0,critical,hdw,20.0,2.1,lower,133.0,57.0,78.0,78.0,57.0,133.0,3,2.499011516571045,None,,,,,0,0,0,0,0,31,31,22,203.22129130363464,,,,,,,,,,,,,,,,,,,,,,,,,,,,,,,,,,,,,,,,,,,,,,,,,,,,,,,,,,,,,,,,,,,,,,,,,,,,,,,,,133.0,57.0,78.0,78.0,57.0,133.0,2.1,2.11,-164,281,0,285,202,-277,203.20644187927246,203.20648312568665,203.20896673202515,203.22129130363464,203.37122869491577,203.37122869491577,203.37122869491577,203.37122869491577,203.37122869491577,203.37122869491577,203.37122869491577,205.72245812416077,3,2.499011516571045,None,,,,,,,,,,,,,,,,,,100,3,2025-02-24_14h58.42.753,comp,2024.2.4,60.14244438230845,2025-02-24 14h58.58.867663 -0500,
32,32,0,filler_random,None,None,None,None,None,None,None,None,None,None,2,1.941326379776001,None,,,,,0,0,0,0,0,32,32,166,205.73797130584717,,,,,,,,,,,,,,,,,,,,,,,,,,,,,,,,,,,,,,,,,,,,,,,,,,,,,,,,,,,,,,,,,,,,,,,,,,,,,,,,,95.31271145804837,96.10416007935936,193.8281481178431,163.88202982053252,132.5177853231865,184.60199483607272,1.0,1.3,254,-264,480,-261,750,-286,205.7233829498291,205.7234239578247,205.72552752494812,205.73797130584717,205.88806748390198,205.88806748390198,205.88806748390198,205.88806748390198,205.88806748390198,205.88806748390198,205.88806748390198,207.68923950195312,2,1.941326379776001,None,,,,,,,,,,,,,,,,,,100,3,2025-02-24_14h58.42.753,comp,2024.2.4,60.14244438230845,2025-02-24 14h58.58.867663 -0500,
33,33,0,filler_square,None,None,None,None,None,None,None,None,None,None,3,2.2938008308410645,None,,,,,0,0,0,0,0,33,33,204,207.70473885536194,,,,,,,,,,,,,,,,,,,,,,,,,,,,,,,,,,,,,,,,,,,,,,,,,,,,,,,,,,,,,,,,,,,,,,,,,,,,,,,,,83.306133503775,68.36632091620731,91.35034042739544,69.69174267775078,128.0082839489214,128.0082839489214,4.0,4.1,-165,-285,0,-7,195,-277,207.69016885757446,207.69020748138428,207.69219875335693,207.70473885536194,207.85450220108032,207.85450220108032,207.85450220108032,207.85450220108032,207.85450220108032,207.85450220108032,207.85450220108032,210.0056631565094,3,2.2938008308410645,None,,,,,,,,,,,,,,,,,,100,3,2025-02-24_14h58.42.753,comp,2024.2.4,60.14244438230845,2025-02-24 14h58.58.867663 -0500,
34,34,0,critical,wdh,20.0,2.1,upper,125.0,200.0,141.0,141.0,200.0,125.0,1,4.041826248168945,None,,,,,0,0,0,0,0,34,34,35,210.02129292488098,,,,,,,,,,,,,,,,,,,,,,,,,,,,,,,,,,,,,,,,,,,,,,,,,,,,,,,,,,,,,,,,,,,,,,,,,,,,,,,,,125.0,200.0,141.0,141.0,200.0,125.0,2.1,2.12,-266,-282,0,-251,229,268,210.00649666786194,210.00653624534607,210.0086281299591,210.02129292488098,210.17148756980896,210.17148756980896,210.17148756980896,210.17148756980896,210.17148756980896,210.17148756980896,210.17148756980896,214.07254195213318,1,4.041826248168945,None,,,,,,,,,,,,,,,,,,100,3,2025-02-24_14h58.42.753,comp,2024.2.4,60.14244438230845,2025-02-24 14h58.58.867663 -0500,
35,35,0,critical,dwh,20.0,3.0,upper,141.0,141.0,125.0,200.0,200.0,125.0,2,7.463697195053101,None,,,,,0,0,0,0,0,35,35,69,214.08803796768188,,,,,,,,,,,,,,,,,,,,,,,,,,,,,,,,,,,,,,,,,,,,,,,,,,,,,,,,,,,,,,,,,,,,,,,,,,,,,,,,,141.0,141.0,125.0,200.0,200.0,125.0,3.0,3.2,-266,-257,0,4,258,255,214.0733528137207,214.07339239120483,214.07583498954773,214.08803796768188,214.23834681510925,214.23834681510925,214.23834681510925,214.23834681510925,214.23834681510925,214.23834681510925,214.23834681510925,221.5558524131775,2,7.463697195053101,None,,,,,,,,,,,,,,,,,,100,3,2025-02-24_14h58.42.753,comp,2024.2.4,60.14244438230845,2025-02-24 14h58.58.867663 -0500,
36,36,0,critical,hdw,35.0,3.0,lower,133.0,57.0,70.0,70.0,57.0,133.0,3,1.7800121307373047,None,,,,,0,0,0,0,0,36,36,110,221.57120490074158,,,,,,,,,,,,,,,,,,,,,,,,,,,,,,,,,,,,,,,,,,,,,,,,,,,,,,,,,,,,,,,,,,,,,,,,,,,,,,,,,133.0,57.0,70.0,70.0,57.0,133.0,3.0,3.2,-160,-270,0,-9,198,258,221.55665802955627,221.55669927597046,221.55883288383484,221.57120490074158,221.72110319137573,221.72110319137573,221.72110319137573,221.72110319137573,221.72110319137573,221.72110319137573,221.72110319137573,223.35558700561523,3,1.7800121307373047,None,,,,,,,,,,,,,,,,,,100,3,2025-02-24_14h58.42.753,comp,2024.2.4,60.14244438230845,2025-02-24 14h58.58.867663 -0500,
37,37,0,critical,whd,20.0,2.1,upper,125.0,200.0,200.0,125.0,141.0,141.0,1,2.6273419857025146,None,,,,,0,0,0,0,0,37,37,15,223.3711495399475,,,,,,,,,,,,,,,,,,,,,,,,,,,,,,,,,,,,,,,,,,,,,,,,,,,,,,,,,,,,,,,,,,,,,,,,,,,,,,,,,125.0,200.0,200.0,125.0,141.0,141.0,2.1,2.12,-258,-264,0,-288,229,277,223.3563952445984,223.35643553733826,223.3588855266571,223.3711495399475,223.52140712738037,223.52140712738037,223.52140712738037,223.52140712738037,223.52140712738037,223.52140712738037,223.52140712738037,226.00574612617493,1,2.6273419857025146,None,,,,,,,,,,,,,,,,,,100,3,2025-02-24_14h58.42.753,comp,2024.2.4,60.14244438230845,2025-02-24 14h58.58.867663 -0500,
38,38,0,filler_square,None,None,None,None,None,None,None,None,None,None,1,1.6094634532928467,None,,,,,0,0,0,0,0,38,38,170,226.02123618125916,,,,,,,,,,,,,,,,,,,,,,,,,,,,,,,,,,,,,,,,,,,,,,,,,,,,,,,,,,,,,,,,,,,,,,,,,,,,,,,,,86.84845215061873,86.84845215061873,75.71235092235047,64.68084778676437,67.07717245287337,60.73362861878713,1.0,1.2,-172,19,0,-2,159,3,226.0067081451416,226.00674962997437,226.00883197784424,226.02123618125916,226.17112493515015,226.17112493515015,226.17112493515015,226.17112493515015,226.17112493515015,226.17112493515015,226.17112493515015,227.6387825012207,1,1.6094634532928467,None,,,,,,,,,,,,,,,,,,100,3,2025-02-24_14h58.42.753,comp,2024.2.4,60.14244438230845,2025-02-24 14h58.58.867663 -0500,
39,39,0,critical,hdw,35.0,2.1,lower,133.0,57.0,70.0,70.0,57.0,133.0,3,19.11946988105774,None,,,,,0,0,0,0,0,39,39,44,227.65455985069275,,,,,,,,,,,,,,,,,,,,,,,,,,,,,,,,,,,,,,,,,,,,,,,,,,,,,,,,,,,,,,,,,,,,,,,,,,,,,,,,,133.0,57.0,70.0,70.0,57.0,133.0,2.1,2.11,-160,273,0,273,198,-262,227.63962650299072,227.63966822624207,227.64170837402344,227.65455985069275,227.80440282821655,227.80440282821655,227.80440282821655,227.80440282821655,227.80440282821655,227.80440282821655,227.80440282821655,246.78868174552917,3,19.11946988105774,None,,,,,,,,,,,,,,,,,,100,3,2025-02-24_14h58.42.753,comp,2024.2.4,60.14244438230845,2025-02-24 14h58.58.867663 -0500,
40,40,0,critical,hwd,35.0,3.0,lower,133.0,57.0,57.0,133.0,70.0,70.0,2,2.883685350418091,None,,,,,0,0,0,0,0,40,40,98,246.80411648750305,,,,,,,,,,,,,,,,,,,,,,,,,,,,,,,,,,,,,,,,,,,,,,,,,,,,,,,,,,,,,,,,,,,,,,,,,,,,,,,,,133.0,57.0,57.0,133.0,70.0,70.0,3.0,3.1,-191,280,0,2,198,-281,246.78946924209595,246.78951001167297,246.79197239875793,246.80411648750305,246.95623254776,246.95623254776,246.95623254776,246.95623254776,246.95623254776,246.95623254776,246.95623254776,249.70535039901733,2,2.883685350418091,None,,,,,,,,,,,,,,,,,,100,3,2025-02-24_14h58.42.753,comp,2024.2.4,60.14244438230845,2025-02-24 14h58.58.867663 -0500,
41,41,0,critical,hdw,20.0,3.0,lower,133.0,57.0,78.0,78.0,57.0,133.0,3,2.3503105640411377,None,,,,,0,0,0,0,0,41,41,116,249.7207977771759,,,,,,,,,,,,,,,,,,,,,,,,,,,,,,,,,,,,,,,,,,,,,,,,,,,,,,,,,,,,,,,,,,,,,,,,,,,,,,,,,133.0,57.0,78.0,78.0,57.0,133.0,3.0,3.1,-164,269,0,2,202,-270,249.70616173744202,249.70620226860046,249.70828461647034,249.7207977771759,249.8709580898285,249.8709580898285,249.8709580898285,249.8709580898285,249.8709580898285,249.8709580898285,249.8709580898285,252.0887370109558,3,2.3503105640411377,None,,,,,,,,,,,,,,,,,,100,3,2025-02-24_14h58.42.753,comp,2024.2.4,60.14244438230845,2025-02-24 14h58.58.867663 -0500,
42,42,0,filler_square,None,None,None,None,None,None,None,None,None,None,3,3.4052352905273438,None,,,,,0,0,0,0,0,42,42,181,252.10415601730347,,,,,,,,,,,,,,,,,,,,,,,,,,,,,,,,,,,,,,,,,,,,,,,,,,,,,,,,,,,,,,,,,,,,,,,,,,,,,,,,,129.77429888122793,155.97381774522793,107.20888545630748,142.03882816258505,156.6984020728072,156.6984020728072,1.0,1.3,235,-258,480,-260,725,-257,252.0897045135498,252.08974432945251,252.0922408103943,252.10415601730347,252.25443267822266,252.25443267822266,252.25443267822266,252.25443267822266,252.25443267822266,252.25443267822266,252.25443267822266,255.52212357521057,3,3.4052352905273438,None,,,,,,,,,,,,,,,,,,100,3,2025-02-24_14h58.42.753,comp,2024.2.4,60.14244438230845,2025-02-24 14h58.58.867663 -0500,
43,43,0,filler_square,None,None,None,None,None,None,None,None,None,None,1,4.228803873062134,None,,,,,0,0,0,0,0,43,43,175,255.53741025924683,,,,,,,,,,,,,,,,,,,,,,,,,,,,,,,,,,,,,,,,,,,,,,,,,,,,,,,,,,,,,,,,,,,,,,,,,,,,,,,,,67.91022516731528,67.91022516731528,61.387229316890185,61.883643818158795,57.42910324247025,64.65844169688766,2.1,2.11,-161,279,0,255,159,-262,255.5230951309204,255.5231363773346,255.525386095047,255.53741025924683,255.68748116493225,255.68748116493225,255.68748116493225,255.68748116493225,255.68748116493225,255.68748116493225,255.68748116493225,259.77186942100525,1,4.228803873062134,None,,,,,,,,,,,,,,,,,,100,3,2025-02-24_14h58.42.753,comp,2024.2.4,60.14244438230845,2025-02-24 14h58.58.867663 -0500,
44,44,0,filler_random,None,None,None,None,None,None,None,None,None,None,1,2.4339346885681152,None,,,,,0,0,0,0,0,44,44,147,259.7877061367035,,,,,,,,,,,,,,,,,,,,,,,,,,,,,,,,,,,,,,,,,,,,,,,,,,,,,,,,,,,,,,,,,,,,,,,,,,,,,,,,,199.87132723321736,85.4156003976144,85.99887435897634,144.57749575288545,174.24248630008475,90.75171701127466,1.0,1.1,-691,259,-480,290,-266,261,259.7727599143982,259.7728006839752,259.77484226226807,259.7877061367035,259.9376494884491,259.9376494884491,259.9376494884491,259.9376494884491,259.9376494884491,259.9376494884491,259.9376494884491,262.23866629600525,1,2.4339346885681152,None,,,,,,,,,,,,,,,,,,100,3,2025-02-24_14h58.42.753,comp,2024.2.4,60.14244438230845,2025-02-24 14h58.58.867663 -0500,
45,45,0,critical,whd,35.0,4.0,upper,125.0,200.0,200.0,125.0,127.0,127.0,1,1.760263204574585,None,,,,,0,0,0,0,0,45,45,89,262.254026889801,,,,,,,,,,,,,,,,,,,,,,,,,,,,,,,,,,,,,,,,,,,,,,,,,,,,,,,,,,,,,,,,,,,,,,,,,,,,,,,,,125.0,200.0,200.0,125.0,127.0,127.0,4.0,4.1,-258,-271,0,-10,222,-284,262.23945713043213,262.23949694633484,262.2419390678406,262.254026889801,262.4046847820282,262.4046847820282,262.4046847820282,262.4046847820282,262.4046847820282,262.4046847820282,262.4046847820282,264.02212023735046,1,1.760263204574585,None,,,,,,,,,,,,,,,,,,100,3,2025-02-24_14h58.42.753,comp,2024.2.4,60.14244438230845,2025-02-24 14h58.58.867663 -0500,
46,46,0,catch,None,None,None,None,None,None,None,None,None,None,3,1.5767276287078857,None,,,,,0,0,0,0,0,46,46,127,264.0375759601593,,,,,,,,,,,,,,,,,,,,,,,,,,,,,,,,,,,,,,,,,,,,,,,,,,,,,,,,,,,,,,,,,,,,,,,,,,,,,,,,,125,65,79,111,150,175,3.0,3.2,-184,-264,0,1,239,288,264.02314805984497,264.0231900215149,264.02525901794434,264.0375759601593,264.18766808509827,264.18766808509827,264.18766808509827,264.18766808509827,264.18766808509827,264.18766808509827,264.18766808509827,265.6219460964203,3,1.5767276287078857,None,,,,,,,,,,,,,,,,,,100,3,2025-02-24_14h58.42.753,comp,2024.2.4,60.14244438230845,2025-02-24 14h58.58.867663 -0500,
47,47,0,critical,wdh,20.0,1.0,lower,57.0,133.0,78.0,78.0,133.0,57.0,2,2.104663610458374,None,,,,,0,0,0,0,0,47,47,78,265.6374990940094,,,,,,,,,,,,,,,,,,,,,,,,,,,,,,,,,,,,,,,,,,,,,,,,,,,,,,,,,,,,,,,,,,,,,,,,,,,,,,,,,57.0,133.0,78.0,78.0,133.0,57.0,1.0,1.1,-682,269,-480,258,-316,263,265.6227490901947,265.622789144516,265.62503600120544,265.6374990940094,265.78738474845886,265.78738474845886,265.78738474845886,265.78738474845886,265.78738474845886,265.78738474845886,265.78738474845886,267.75521755218506,2,2.104663610458374,None,,,,,,,,,,,,,,,,,,100,3,2025-02-24_14h58.42.753,comp,2024.2.4,60.14244438230845,2025-02-24 14h58.58.867663 -0500,
48,48,0,critical,hdw,20.0,2.1,upper,200.0,125.0,141.0,141.0,125.0,200.0,3,4.675549268722534,None,,,,,0,0,0,0,0,48,48,47,267.77063035964966,,,,,,,,,,,,,,,,,,,,,,,,,,,,,,,,,,,,,,,,,,,,,,,,,,,,,,,,,,,,,,,,,,,,,,,,,,,,,,,,,200.0,125.0,141.0,141.0,125.0,200.0,2.1,2.12,-229,-282,0,-287,266,288,267.75595450401306,267.75599122047424,267.7582321166992,267.77063035964966,267.9210774898529,267.9210774898529,267.9210774898529,267.9210774898529,267.9210774898529,267.9210774898529,267.9210774898529,272.4553484916687,3,4.675549268722534,None,,,,,,,,,,,,,,,,,,100,3,2025-02-24_14h58.42.753,comp,2024.2.4,60.14244438230845,2025-02-24 14h58.58.867663 -0500,
49,49,0,catch,None,None,None,None,None,None,None,None,None,None,3,1.4488506317138672,None,,,,,0,0,0,0,0,49,49,120,272.4709084033966,,,,,,,,,,,,,,,,,,,,,,,,,,,,,,,,,,,,,,,,,,,,,,,,,,,,,,,,,,,,,,,,,,,,,,,,,,,,,,,,,126,64,118,72,176,149,4.0,4.1,-164,-266,0,11,206,-275,272.4563899040222,272.4564290046692,272.45851039886475,272.4709084033966,272.6208415031433,272.6208415031433,272.6208415031433,272.6208415031433,272.6208415031433,272.6208415031433,272.6208415031433,273.9220952987671,3,1.4488506317138672,None,,,,,,,,,,,,,,,,,,100,3,2025-02-24_14h58.42.753,comp,2024.2.4,60.14244438230845,2025-02-24 14h58.58.867663 -0500,
50,50,0,critical,whd,20.0,2.1,upper,125.0,200.0,200.0,125.0,141.0,141.0,1,2.9666173458099365,None,,,,,0,0,0,0,0,50,50,39,273.93755626678467,,,,,,,,,,,,,,,,,,,,,,,,,,,,,,,,,,,,,,,,,,,,,,,,,,,,,,,,,,,,,,,,,,,,,,,,,,,,,,,,,125.0,200.0,200.0,125.0,141.0,141.0,2.1,2.11,-258,272,0,277,229,-261,273.92287397384644,273.9229154586792,273.9250419139862,273.93755626678467,274.08789801597595,274.08789801597595,274.08789801597595,274.08789801597595,274.08789801597595,274.08789801597595,274.08789801597595,276.9055461883545,1,2.9666173458099365,None,,,,,,,,,,,,,,,,,,100,3,2025-02-24_14h58.42.753,comp,2024.2.4,60.14244438230845,2025-02-24 14h58.58.867663 -0500,
51,51,0,filler_random,None,None,None,None,None,None,None,None,None,None,1,1.3884172439575195,None,,,,,0,0,0,0,0,51,51,155,276.9208416938782,,,,,,,,,,,,,,,,,,,,,,,,,,,,,,,,,,,,,,,,,,,,,,,,,,,,,,,,,,,,,,,,,,,,,,,,,,,,,,,,,160.54423167563493,161.77478836965633,91.45298610799125,133.0935693956481,80.31260447193483,199.72693908404526,4.0,4.2,-243,-7,0,-266,262,1,276.9064784049988,276.9065203666687,276.9089529514313,276.9208416938782,277.0709855556488,277.0709855556488,277.0709855556488,277.0709855556488,277.0709855556488,277.0709855556488,277.0709855556488,278.3217785358429,1,1.3884172439575195,None,,,,,,,,,,,,,,,,,,100,3,2025-02-24_14h58.42.753,comp,2024.2.4,60.14244438230845,2025-02-24 14h58.58.867663 -0500,
52,52,0,filler_random,None,None,None,None,None,None,None,None,None,None,2,1.0449328422546387,None,,,,,0,0,0,0,0,52,52,144,278.3372435569763,,,,,,,,,,,,,,,,,,,,,,,,,,,,,,,,,,,,,,,,,,,,,,,,,,,,,,,,,,,,,,,,,,,,,,,,,,,,,,,,,195.7974747736224,67.07966208032926,161.03981631681665,199.8481391146587,59.19324827472798,180.14209894676003,2.1,2.12,-229,-263,0,-284,286,257,278.3226637840271,278.32270193099976,278.3252184391022,278.3372435569763,278.4875454902649,278.4875454902649,278.4875454902649,278.4875454902649,278.4875454902649,278.4875454902649,278.4875454902649,279.38859367370605,2,1.0449328422546387,None,,,,,,,,,,,,,,,,,,100,3,2025-02-24_14h58.42.753,comp,2024.2.4,60.14244438230845,2025-02-24 14h58.58.867663 -0500,
53,53,0,filler_random,None,None,None,None,None,None,None,None,None,None,3,3.8262314796447754,None,,,,,0,0,0,0,0,53,53,137,279.40424060821533,,,,,,,,,,,,,,,,,,,,,,,,,,,,,,,,,,,,,,,,,,,,,,,,,,,,,,,,,,,,,,,,,,,,,,,,,,,,,,,,,150.91765022874034,89.84364124229131,153.13966245759366,126.61268267914588,152.02905619822266,123.29365806732221,4.0,4.1,-204,-273,0,-7,221,-252,279.3895354270935,279.38957476615906,279.39168548583984,279.40424060821533,279.55422353744507,279.55422353744507,279.55422353744507,279.55422353744507,279.55422353744507,279.55422353744507,279.55422353744507,283.2386155128479,3,3.8262314796447754,None,,,,,,,,,,,,,,,,,,100,3,2025-02-24_14h58.42.753,comp,2024.2.4,60.14244438230845,2025-02-24 14h58.58.867663 -0500,
54,54,0,critical,wdh,35.0,2.1,upper,125.0,200.0,127.0,127.0,200.0,125.0,1,3.7597687244415283,None,,,,,0,0,0,0,0,54,54,9,283.2544388771057,,,,,,,,,,,,,,,,,,,,,,,,,,,,,,,,,,,,,,,,,,,,,,,,,,,,,,,,,,,,,,,,,,,,,,,,,,,,,,,,,125.0,200.0,127.0,127.0,200.0,125.0,2.1,2.12,-260,-289,0,-259,222,289,283.2393991947174,283.2394390106201,283.24189853668213,283.2544388771057,283.4041659832001,283.4041659832001,283.4041659832001,283.4041659832001,283.4041659832001,283.4041659832001,283.4041659832001,287.0219612121582,1,3.7597687244415283,None,,,,,,,,,,,,,,,,,,100,3,2025-02-24_14h58.42.753,comp,2024.2.4,60.14244438230845,2025-02-24 14h58.58.867663 -0500,
55,55,0,critical,whd,35.0,2.1,lower,57.0,133.0,133.0,57.0,70.0,70.0,1,4.67181921005249,None,,,,,0,0,0,0,0,55,55,36,287.03735065460205,,,,,,,,,,,,,,,,,,,,,,,,,,,,,,,,,,,,,,,,,,,,,,,,,,,,,,,,,,,,,,,,,,,,,,,,,,,,,,,,,57.0,133.0,133.0,57.0,70.0,70.0,2.1,2.11,-191,263,0,272,160,-261,287.02276253700256,287.0228006839752,287.02496457099915,287.03735065460205,287.18734097480774,287.18734097480774,287.18734097480774,287.18734097480774,287.18734097480774,287.18734097480774,287.18734097480774,291.72159123420715,1,4.67181921005249,None,,,,,,,,,,,,,,,,,,100,3,2025-02-24_14h58.42.753,comp,2024.2.4,60.14244438230845,2025-02-24 14h58.58.867663 -0500,
56,56,0,catch,None,None,None,None,None,None,None,None,None,None,2,0.9669754505157471,None,,,,,0,0,0,0,0,56,56,124,291.7371184825897,,,,,,,,,,,,,,,,,,,,,,,,,,,,,,,,,,,,,,,,,,,,,,,,,,,,,,,,,,,,,,,,,,,,,,,,,,,,,,,,,124,66,146,179,88,102,2.1,2.12,-218,-262,0,-255,236,265,291.7226662635803,291.7227084636688,291.725323677063,291.7371184825897,291.8873152732849,291.8873152732849,291.8873152732849,291.8873152732849,291.8873152732849,291.8873152732849,291.8873152732849,292.7053482532501,2,0.9669754505157471,None,,,,,,,,,,,,,,,,,,100,3,2025-02-24_14h58.42.753,comp,2024.2.4,60.14244438230845,2025-02-24 14h58.58.867663 -0500,
57,57,0,critical,dhw,35.0,2.1,upper,127.0,127.0,200.0,125.0,125.0,200.0,3,2.325474500656128,None,,,,,0,0,0,0,0,57,57,1,292.72063755989075,,,,,,,,,,,,,,,,,,,,,,,,,,,,,,,,,,,,,,,,,,,,,,,,,,,,,,,,,,,,,,,,,,,,,,,,,,,,,,,,,127.0,127.0,200.0,125.0,125.0,200.0,2.1,2.12,-222,-256,0,-258,258,263,292.7061347961426,292.7061777114868,292.7086365222931,292.72063755989075,292.87084197998047,292.87084197998047,292.87084197998047,292.87084197998047,292.87084197998047,292.87084197998047,292.87084197998047,295.0552852153778,3,2.325474500656128,None,,,,,,,,,,,,,,,,,,100,3,2025-02-24_14h58.42.753,comp,2024.2.4,60.14244438230845,2025-02-24 14h58.58.867663 -0500,
58,58,0,critical,dhw,35.0,1.0,upper,127.0,127.0,200.0,125.0,125.0,200.0,2,4.407829284667969,None,,,,,0,0,0,0,0,58,58,49,295.07076025009155,,,,,,,,,,,,,,,,,,,,,,,,,,,,,,,,,,,,,,,,,,,,,,,,,,,,,,,,,,,,,,,,,,,,,,,,,,,,,,,,,127.0,127.0,200.0,125.0,125.0,200.0,1.0,1.2,-222,14,0,5,258,-11,295.05607652664185,295.05611777305603,295.05822944641113,295.07076025009155,295.2207524776459,295.2207524776459,295.2207524776459,295.2207524776459,295.2207524776459,295.2207524776459,295.2207524776459,299.48869013786316,2,4.407829284667969,None,,,,,,,,,,,,,,,,,,100,3,2025-02-24_14h58.42.753,comp,2024.2.4,60.14244438230845,2025-02-24 14h58.58.867663 -0500,
59,59,0,critical,hwd,35.0,2.1,upper,200.0,125.0,125.0,200.0,127.0,127.0,2,8.846604347229004,None,,,,,0,0,0,0,0,59,59,41,299.5042097568512,,,,,,,,,,,,,,,,,,,,,,,,,,,,,,,,,,,,,,,,,,,,,,,,,,,,,,,,,,,,,,,,,,,,,,,,,,,,,,,,,200.0,125.0,125.0,200.0,127.0,127.0,2.1,2.12,-258,-257,0,-259,260,260,299.4894995689392,299.48954129219055,299.4919250011444,299.5042097568512,299.6541738510132,299.6541738510132,299.6541738510132,299.6541738510132,299.6541738510132,299.6541738510132,299.6541738510132,308.35525012016296,2,8.846604347229004,None,,,,,,,,,,,,,,,,,,100,3,2025-02-24_14h58.42.753,comp,2024.2.4,60.14244438230845,2025-02-24 14h58.58.867663 -0500,
60,60,0,critical,wdh,20.0,2.1,lower,57.0,133.0,78.0,78.0,133.0,57.0,1,5.795490264892578,None,,,,,0,0,0,0,0,60,60,10,308.3706591129303,,,,,,,,,,,,,,,,,,,,,,,,,,,,,,,,,,,,,,,,,,,,,,,,,,,,,,,,,,,,,,,,,,,,,,,,,,,,,,,,,57.0,133.0,78.0,78.0,133.0,57.0,2.1,2.12,-202,-262,0,-276,164,281,308.35606718063354,308.35610795021057,308.3581955432892,308.3706591129303,308.5204565525055,308.5204565525055,308.5204565525055,308.5204565525055,308.5204565525055,308.5204565525055,308.5204565525055,314.17162346839905,1,5.795490264892578,None,,,,,,,,,,,,,,,,,,100,3,2025-02-24_14h58.42.753,comp,2024.2.4,60.14244438230845,2025-02-24 14h58.58.867663 -0500,
61,61,0,critical,dhw,20.0,2.1,lower,78.0,78.0,133.0,57.0,57.0,133.0,2,2.4019739627838135,None,,,,,0,0,0,0,0,61,61,2,314.1872658729553,,,,,,,,,,,,,,,,,,,,,,,,,,,,,,,,,,,,,,,,,,,,,,,,,,,,,,,,,,,,,,,,,,,,,,,,,,,,,,,,,78.0,78.0,133.0,57.0,57.0,133.0,2.1,2.11,-164,267,0,281,191,-255,314.1724271774292,314.1724669933319,314.1745412349701,314.1872658729553,314.3370945453644,314.3370945453644,314.3370945453644,314.3370945453644,314.3370945453644,314.3370945453644,314.3370945453644,316.6048991680145,2,2.4019739627838135,None,,,,,,,,,,,,,,,,,,100,3,2025-02-24_14h58.42.753,comp,2024.2.4,60.14244438230845,2025-02-24 14h58.58.867663 -0500,
62,62,0,critical,whd,20.0,3.0,lower,57.0,133.0,133.0,57.0,78.0,78.0,2,11.283225059509277,None,,,,,0,0,0,0,0,62,62,92,316.6203782558441,,,,,,,,,,,,,,,,,,,,,,,,,,,,,,,,,,,,,,,,,,,,,,,,,,,,,,,,,,,,,,,,,,,,,,,,,,,,,,,,,57.0,133.0,133.0,57.0,78.0,78.0,3.0,3.1,-191,286,0,-8,164,-267,316.6056957244873,316.60573506355286,316.607764005661,316.6203782558441,316.77052760124207,316.77052760124207,316.77052760124207,316.77052760124207,316.77052760124207,316.77052760124207,316.77052760124207,327.90499663352966,2,11.283225059509277,None,,,,,,,,,,,,,,,,,,100,3,2025-02-24_14h58.42.753,comp,2024.2.4,60.14244438230845,2025-02-24 14h58.58.867663 -0500,
63,63,0,critical,hdw,35.0,2.1,upper,200.0,125.0,127.0,127.0,125.0,200.0,3,3.5417628288269043,None,,,,,0,0,0,0,0,63,63,21,327.92049908638,,,,,,,,,,,,,,,,,,,,,,,,,,,,,,,,,,,,,,,,,,,,,,,,,,,,,,,,,,,,,,,,,,,,,,,,,,,,,,,,,200.0,125.0,127.0,127.0,125.0,200.0,2.1,2.11,-222,276,0,288,260,-290,327.9057810306549,327.9058210849762,327.9078814983368,327.92049908638,328.07048177719116,328.07048177719116,328.07048177719116,328.07048177719116,328.07048177719116,328.07048177719116,328.07048177719116,331.47164607048035,3,3.5417628288269043,None,,,,,,,,,,,,,,,,,,100,3,2025-02-24_14h58.42.753,comp,2024.2.4,60.14244438230845,2025-02-24 14h58.58.867663 -0500,
64,64,0,critical,dwh,20.0,1.0,lower,78.0,78.0,57.0,133.0,133.0,57.0,2,2.158719301223755,None,,,,,0,0,0,0,0,64,64,66,331.48711466789246,,,,,,,,,,,,,,,,,,,,,,,,,,,,,,,,,,,,,,,,,,,,,,,,,,,,,,,,,,,,,,,,,,,,,,,,,,,,,,,,,78.0,78.0,57.0,133.0,133.0,57.0,1.0,1.3,278,-276,480,-259,671,-279,331.47244596481323,331.47248673439026,331.4748854637146,331.48711466789246,331.63729763031006,331.63729763031006,331.63729763031006,331.63729763031006,331.63729763031006,331.63729763031006,331.63729763031006,333.65473794937134,2,2.158719301223755,None,,,,,,,,,,,,,,,,,,100,3,2025-02-24_14h58.42.753,comp,2024.2.4,60.14244438230845,2025-02-24 14h58.58.867663 -0500,
65,65,0,critical,hwd,20.0,2.1,upper,200.0,125.0,125.0,200.0,141.0,141.0,2,2.7272777557373047,None,,,,,0,0,0,0,0,65,65,19,333.67045545578003,,,,,,,,,,,,,,,,,,,,,,,,,,,,,,,,,,,,,,,,,,,,,,,,,,,,,,,,,,,,,,,,,,,,,,,,,,,,,,,,,200.0,125.0,125.0,200.0,141.0,141.0,2.1,2.12,-258,-255,0,-280,266,276,333.65552520751953,333.65556621551514,333.6580264568329,333.67045545578003,333.82049202919006,333.82049202919006,333.82049202919006,333.82049202919006,333.82049202919006,333.82049202919006,333.82049202919006,336.40493392944336,2,2.7272777557373047,None,,,,,,,,,,,,,,,,,,100,3,2025-02-24_14h58.42.753,comp,2024.2.4,60.14244438230845,2025-02-24 14h58.58.867663 -0500,
66,66,0,filler_square,None,None,None,None,None,None,None,None,None,None,1,1.3298413753509521,None,,,,,0,0,0,0,0,66,66,187,336.42050862312317,,,,,,,,,,,,,,,,,,,,,,,,,,,,,,,,,,,,,,,,,,,,,,,,,,,,,,,,,,,,,,,,,,,,,,,,,,,,,,,,,154.0762117326226,154.0762117326226,126.04228573611896,79.04007917323057,64.42178962401533,153.6238309022462,2.1,2.12,-213,-260,0,-285,212,270,336.4059019088745,336.40594458580017,336.4080419540405,336.42050862312317,336.5704264640808,336.5704264640808,336.5704264640808,336.5704264640808,336.5704264640808,336.5704264640808,336.5704264640808,337.7550759315491,1,1.3298413753509521,None,,,,,,,,,,,,,,,,,,100,3,2025-02-24_14h58.42.753,comp,2024.2.4,60.14244438230845,2025-02-24 14h58.58.867663 -0500,
67,67,0,filler_random,None,None,None,None,None,None,None,None,None,None,2,1.549164056777954,None,,,,,0,0,0,0,0,67,67,140,337.77050948143005,,,,,,,,,,,,,,,,,,,,,,,,,,,,,,,,,,,,,,,,,,,,,,,,,,,,,,,,,,,,,,,,,,,,,,,,,,,,,,,,,67.64030677399732,192.9593693133265,108.85136451703963,193.67126609870814,96.2862876740645,152.31014233938072,1.0,1.3,191,-260,480,-284,749,-271,337.75596952438354,337.7560269832611,337.7581112384796,337.77050948143005,337.920371055603,337.920371055603,337.920371055603,337.920371055603,337.920371055603,337.920371055603,337.920371055603,339.3381941318512,2,1.549164056777954,None,,,,,,,,,,,,,,,,,,100,3,2025-02-24_14h58.42.753,comp,2024.2.4,60.14244438230845,2025-02-24 14h58.58.867663 -0500,
68,68,0,filler_square,None,None,None,None,None,None,None,None,None,None,1,1.324242353439331,None,,,,,0,0,0,0,0,68,68,185,339.35355162620544,,,,,,,,,,,,,,,,,,,,,,,,,,,,,,,,,,,,,,,,,,,,,,,,,,,,,,,,,,,,,,,,,,,,,,,,,,,,,,,,,197.41572416020057,197.41572416020057,138.13852273056762,136.91543590466216,116.00056202406066,106.16974762899302,2.2,2.22,-263,276,0,-281,218,-261,339.339143037796,339.3391833305359,339.3415114879608,339.35355162620544,339.50386238098145,339.50386238098145,339.50386238098145,339.50386238098145,339.50386238098145,339.50386238098145,339.50386238098145,340.6883316040039,1,1.324242353439331,None,,,,,,,,,,,,,,,,,,100,3,2025-02-24_14h58.42.753,comp,2024.2.4,60.14244438230845,2025-02-24 14h58.58.867663 -0500,
69,69,0,critical,dwh,20.0,2.1,upper,141.0,141.0,125.0,200.0,200.0,125.0,3,1.8377997875213623,None,,,,,0,0,0,0,0,69,69,31,340.70377707481384,,,,,,,,,,,,,,,,,,,,,,,,,,,,,,,,,,,,,,,,,,,,,,,,,,,,,,,,,,,,,,,,,,,,,,,,,,,,,,,,,141.0,141.0,125.0,200.0,200.0,125.0,2.1,2.11,-266,284,0,268,258,-270,340.689124584198,340.6891632080078,340.6915786266327,340.70377707481384,340.853796005249,340.853796005249,340.853796005249,340.853796005249,340.853796005249,340.853796005249,340.853796005249,342.55489349365234,3,1.8377997875213623,None,,,,,,,,,,,,,,,,,,100,3,2025-02-24_14h58.42.753,comp,2024.2.4,60.14244438230845,2025-02-24 14h58.58.867663 -0500,
70,70,0,critical,whd,35.0,2.1,lower,57.0,133.0,133.0,57.0,70.0,70.0,2,2.322603464126587,None,,,,,0,0,0,0,0,70,70,12,342.5701308250427,,,,,,,,,,,,,,,,,,,,,,,,,,,,,,,,,,,,,,,,,,,,,,,,,,,,,,,,,,,,,,,,,,,,,,,,,,,,,,,,,57.0,133.0,133.0,57.0,70.0,70.0,2.1,2.11,-191,277,0,274,160,-263,342.5556936264038,342.55573177337646,342.5578079223633,342.5701308250427,342.7204256057739,342.7204256057739,342.7204256057739,342.7204256057739,342.7204256057739,342.7204256057739,342.7204256057739,344.90494561195374,2,2.322603464126587,None,,,,,,,,,,,,,,,,,,100,3,2025-02-24_14h58.42.753,comp,2024.2.4,60.14244438230845,2025-02-24 14h58.58.867663 -0500,
71,71,0,filler_square,None,None,None,None,None,None,None,None,None,None,1,1.4367992877960205,None,,,,,0,0,0,0,0,71,71,189,344.9201400279999,,,,,,,,,,,,,,,,,,,,,,,,,,,,,,,,,,,,,,,,,,,,,,,,,,,,,,,,,,,,,,,,,,,,,,,,,,,,,,,,,158.76312469010674,158.76312469010674,152.2970490118136,96.09557766976681,79.62473447058814,156.65008086300992,2.1,2.11,-223,261,0,284,222,-256,344.90590715408325,344.9059491157532,344.9080288410187,344.9201400279999,345.07042479515076,345.07042479515076,345.07042479515076,345.07042479515076,345.07042479515076,345.07042479515076,345.07042479515076,346.3715422153473,1,1.4367992877960205,None,,,,,,,,,,,,,,,,,,100,3,2025-02-24_14h58.42.753,comp,2024.2.4,60.14244438230845,2025-02-24 14h58.58.867663 -0500,
72,72,0,filler_random,None,None,None,None,None,None,None,None,None,None,2,1.7165603637695312,None,,,,,0,0,0,0,0,72,72,157,346.3868269920349,,,,,,,,,,,,,,,,,,,,,,,,,,,,,,,,,,,,,,,,,,,,,,,,,,,,,,,,,,,,,,,,,,,,,,,,,,,,,,,,,94.43353290196944,116.92431656824894,140.0653128967815,87.38118480085579,187.78461513979204,63.280809202352515,4.0,4.2,-198,-9,0,-251,171,-20,346.37242889404297,346.37246966362,346.37451910972595,346.3868269920349,346.536958694458,346.536958694458,346.536958694458,346.536958694458,346.536958694458,346.536958694458,346.536958694458,348.1212856769562,2,1.7165603637695312,None,,,,,,,,,,,,,,,,,,100,3,2025-02-24_14h58.42.753,comp,2024.2.4,60.14244438230845,2025-02-24 14h58.58.867663 -0500,
73,73,0,filler_square,None,None,None,None,None,None,None,None,None,None,1,1.8608627319335938,None,,,,,0,0,0,0,0,73,73,174,348.1367840766907,,,,,,,,,,,,,,,,,,,,,,,,,,,,,,,,,,,,,,,,,,,,,,,,,,,,,,,,,,,,,,,,,,,,,,,,,,,,,,,,,93.64361943787009,93.64361943787009,68.59293167938131,82.1911523364739,82.39764377585023,82.90236165770986,2.1,2.12,-184,-256,0,-260,179,261,348.12226247787476,348.12230229377747,348.1247606277466,348.1367840766907,348.2872142791748,348.2872142791748,348.2872142791748,348.2872142791748,348.2872142791748,348.2872142791748,348.2872142791748,350.00461077690125,1,1.8608627319335938,None,,,,,,,,,,,,,,,,,,100,3,2025-02-24_14h58.42.753,comp,2024.2.4,60.14244438230845,2025-02-24 14h58.58.867663 -0500,
74,74,0,filler_random,None,None,None,None,None,None,None,None,None,None,1,1.336608648300171,None,,,,,0,0,0,0,0,74,74,163,350.0202970504761,,,,,,,,,,,,,,,,,,,,,,,,,,,,,,,,,,,,,,,,,,,,,,,,,,,,,,,,,,,,,,,,,,,,,,,,,,,,,,,,,144.346560755461,170.3029973117837,159.19564197623714,98.14921734736629,128.02036283558363,59.738935174315316,2.2,2.22,-230,265,0,-255,175,-257,350.0055396556854,350.00558066368103,350.0079550743103,350.0202970504761,350.1702649593353,350.1702649593353,350.1702649593353,350.1702649593353,350.1702649593353,350.1702649593353,350.1702649593353,351.37136912345886,1,1.336608648300171,None,,,,,,,,,,,,,,,,,,100,3,2025-02-24_14h58.42.753,comp,2024.2.4,60.14244438230845,2025-02-24 14h58.58.867663 -0500,
75,75,0,critical,whd,20.0,2.1,lower,57.0,133.0,133.0,57.0,78.0,78.0,2,3.283576726913452,None,,,,,0,0,0,0,0,75,75,14,351.3867359161377,,,,,,,,,,,,,,,,,,,,,,,,,,,,,,,,,,,,,,,,,,,,,,,,,,,,,,,,,,,,,,,,,,,,,,,,,,,,,,,,,57.0,133.0,133.0,57.0,78.0,78.0,2.1,2.11,-191,276,0,276,164,-256,351.372132062912,351.37217020988464,351.37451124191284,351.3867359161377,351.53687143325806,351.53687143325806,351.53687143325806,351.53687143325806,351.53687143325806,351.53687143325806,351.53687143325806,354.68789052963257,2,3.283576726913452,None,,,,,,,,,,,,,,,,,,100,3,2025-02-24_14h58.42.753,comp,2024.2.4,60.14244438230845,2025-02-24 14h58.58.867663 -0500,
76,76,0,critical,hdw,35.0,2.1,lower,133.0,57.0,70.0,70.0,57.0,133.0,3,47.30114030838013,None,,,,,0,0,0,0,0,76,76,20,354.7033998966217,,,,,,,,,,,,,,,,,,,,,,,,,,,,,,,,,,,,,,,,,,,,,,,,,,,,,,,,,,,,,,,,,,,,,,,,,,,,,,,,,133.0,57.0,70.0,70.0,57.0,133.0,2.1,2.12,-160,-288,0,-282,198,269,354.68880224227905,354.6888430118561,354.69197821617126,354.7033998966217,354.85360407829285,354.85360407829285,354.85360407829285,354.85360407829285,354.85360407829285,354.85360407829285,354.85360407829285,402.0208888053894,3,47.30114030838013,None,,,,,,,,,,,,,,,,,,100,3,2025-02-24_14h58.42.753,comp,2024.2.4,60.14244438230845,2025-02-24 14h58.58.867663 -0500,
77,77,0,filler_square,None,None,None,None,None,None,None,None,None,None,3,1.3522560596466064,None,,,,,0,0,0,0,0,77,77,171,402.03639698028564,,,,,,,,,,,,,,,,,,,,,,,,,,,,,,,,,,,,,,,,,,,,,,,,,,,,,,,,,,,,,,,,,,,,,,,,,,,,,,,,,86.7317725092739,82.91967527671925,111.82579899183725,131.5597048211301,169.25401193255175,169.25401193255175,2.2,2.22,-203,252,0,-257,246,-256,402.0218322277069,402.02186918258667,402.02380561828613,402.03639698028564,402.18673849105835,402.18673849105835,402.18673849105835,402.18673849105835,402.18673849105835,402.18673849105835,402.18673849105835,403.40436935424805,3,1.3522560596466064,None,,,,,,,,,,,,,,,,,,100,3,2025-02-24_14h58.42.753,comp,2024.2.4,60.14244438230845,2025-02-24 14h58.58.867663 -0500,
78,78,0,filler_random,None,None,None,None,None,None,None,None,None,None,1,5.953578233718872,None,,,,,0,0,0,0,0,78,78,150,403.41971707344055,,,,,,,,,,,,,,,,,,,,,,,,,,,,,,,,,,,,,,,,,,,,,,,,,,,,,,,,,,,,,,,,,,,,,,,,,,,,,,,,,197.87502186385382,146.5937749785882,187.68160628565047,150.27089860738317,98.03496944616978,119.877629281767,2.1,2.12,-244,-265,0,-283,231,253,403.4052746295929,403.4053144454956,403.4076952934265,403.41971707344055,403.5700628757477,403.5700628757477,403.5700628757477,403.5700628757477,403.5700628757477,403.5700628757477,403.5700628757477,409.3881986141205,1,5.953578233718872,None,,,,,,,,,,,,,,,,,,100,3,2025-02-24_14h58.42.753,comp,2024.2.4,60.14244438230845,2025-02-24 14h58.58.867663 -0500,
79,79,0,filler_square,None,None,None,None,None,None,None,None,None,None,3,1.3471789360046387,None,,,,,0,0,0,0,0,79,79,194,409.4031448364258,,,,,,,,,,,,,,,,,,,,,,,,,,,,,,,,,,,,,,,,,,,,,,,,,,,,,,,,,,,,,,,,,,,,,,,,,,,,,,,,,139.75838764960133,61.45901657739193,103.34662613875744,77.38853827713363,151.98786892399903,151.98786892399903,1.0,1.2,-165,-1,0,3,211,18,409.38914346694946,409.38918375968933,409.3912959098816,409.4031448364258,409.5532281398773,409.5532281398773,409.5532281398773,409.5532281398773,409.5532281398773,409.5532281398773,409.5532281398773,410.75462317466736,3,1.3471789360046387,None,,,,,,,,,,,,,,,,,,100,3,2025-02-24_14h58.42.753,comp,2024.2.4,60.14244438230845,2025-02-24 14h58.58.867663 -0500,
80,80,0,filler_square,None,None,None,None,None,None,None,None,None,None,3,1.8273732662200928,None,,,,,0,0,0,0,0,80,80,182,410.76991057395935,,,,,,,,,,,,,,,,,,,,,,,,,,,,,,,,,,,,,,,,,,,,,,,,,,,,,,,,,,,,,,,,,,,,,,,,,,,,,,,,,66.17846134725022,72.47299684605242,60.90077212670782,92.78084817783572,92.85307481715608,92.85307481715608,2.1,2.12,-179,-268,0,-276,189,282,410.75565814971924,410.7557005882263,410.75845551490784,410.76991057395935,410.9197721481323,410.9197721481323,410.9197721481323,410.9197721481323,410.9197721481323,410.9197721481323,410.9197721481323,412.60413122177124,3,1.8273732662200928,None,,,,,,,,,,,,,,,,,,100,3,2025-02-24_14h58.42.753,comp,2024.2.4,60.14244438230845,2025-02-24 14h58.58.867663 -0500,
81,81,0,filler_square,None,None,None,None,None,None,None,None,None,None,2,1.9686179161071777,None,,,,,0,0,0,0,0,81,81,195,412.61997389793396,,,,,,,,,,,,,,,,,,,,,,,,,,,,,,,,,,,,,,,,,,,,,,,,,,,,,,,,,,,,,,,,,,,,,,,,,,,,,,,,,74.70316558142274,109.1133061675278,147.4217187951895,147.4217187951895,124.1582842851768,88.50700257748859,1.0,1.1,-704,251,-480,286,-266,251,412.60511302948,412.60515451431274,412.60722398757935,412.61997389793396,412.76989459991455,412.76989459991455,412.76989459991455,412.76989459991455,412.76989459991455,412.76989459991455,412.76989459991455,414.60428524017334,2,1.9686179161071777,None,,,,,,,,,,,,,,,,,,100,3,2025-02-24_14h58.42.753,comp,2024.2.4,60.14244438230845,2025-02-24 14h58.58.867663 -0500,
82,82,0,critical,dhw,20.0,1.0,upper,141.0,141.0,200.0,125.0,125.0,200.0,2,4.4728052616119385,None,,,,,0,0,0,0,0,82,82,55,414.6195533275604,,,,,,,,,,,,,,,,,,,,,,,,,,,,,,,,,,,,,,,,,,,,,,,,,,,,,,,,,,,,,,,,,,,,,,,,,,,,,,,,,141.0,141.0,200.0,125.0,125.0,200.0,1.0,1.2,-229,-14,0,13,258,13,414.6050660610199,414.6051073074341,414.6074936389923,414.6195533275604,414.7699978351593,414.7699978351593,414.7699978351593,414.7699978351593,414.7699978351593,414.7699978351593,414.7699978351593,419.1047830581665,2,4.4728052616119385,None,,,,,,,,,,,,,,,,,,100,3,2025-02-24_14h58.42.753,comp,2024.2.4,60.14244438230845,2025-02-24 14h58.58.867663 -0500,
83,83,0,critical,dhw,35.0,3.0,upper,127.0,127.0,200.0,125.0,125.0,200.0,3,1.0527369976043701,None,,,,,0,0,0,0,0,83,83,51,419.11970615386963,,,,,,,,,,,,,,,,,,,,,,,,,,,,,,,,,,,,,,,,,,,,,,,,,,,,,,,,,,,,,,,,,,,,,,,,,,,,,,,,,127.0,127.0,200.0,125.0,125.0,200.0,3.0,3.1,-222,254,0,-2,258,-272,419.10557651519775,419.10561633110046,419.1080205440521,419.11970615386963,419.2702236175537,419.2702236175537,419.2702236175537,419.2702236175537,419.2702236175537,419.2702236175537,419.2702236175537,420.1876788139343,3,1.0527369976043701,None,,,,,,,,,,,,,,,,,,100,3,2025-02-24_14h58.42.753,comp,2024.2.4,60.14244438230845,2025-02-24 14h58.58.867663 -0500,
84,84,0,filler_random,None,None,None,None,None,None,None,None,None,None,2,1.0262441635131836,None,,,,,0,0,0,0,0,84,84,159,420.20298767089844,,,,,,,,,,,,,,,,,,,,,,,,,,,,,,,,,,,,,,,,,,,,,,,,,,,,,,,,,,,,,,,,,,,,,,,,,,,,,,,,,76.31515736274352,169.85545256211196,192.7003309825722,179.0874813643862,125.8187968022856,72.2954823764407,1.0,1.3,210,-259,480,-262,702,-257,420.18860721588135,420.1886475086212,420.19110918045044,420.20298767089844,420.3532648086548,420.3532648086548,420.3532648086548,420.3532648086548,420.3532648086548,420.3532648086548,420.3532648086548,421.23778772354126,2,1.0262441635131836,None,,,,,,,,,,,,,,,,,,100,3,2025-02-24_14h58.42.753,comp,2024.2.4,60.14244438230845,2025-02-24 14h58.58.867663 -0500,
85,85,0,catch,None,None,None,None,None,None,None,None,None,None,1,0.9441819190979004,None,,,,,0,0,0,0,0,85,85,125,421.2532603740692,,,,,,,,,,,,,,,,,,,,,,,,,,,,,,,,,,,,,,,,,,,,,,,,,,,,,,,,,,,,,,,,,,,,,,,,,,,,,,,,,193,132,127,63,83,107,2.2,2.22,-194,288,0,-282,181,-261,421.2388291358948,421.23887062072754,421.2413899898529,421.2532603740692,421.4032051563263,421.4032051563263,421.4032051563263,421.4032051563263,421.4032051563263,421.4032051563263,421.4032051563263,422.2043523788452,1,0.9441819190979004,None,,,,,,,,,,,,,,,,,,100,3,2025-02-24_14h58.42.753,comp,2024.2.4,60.14244438230845,2025-02-24 14h58.58.867663 -0500,
86,86,0,critical,wdh,20.0,3.0,upper,125.0,200.0,141.0,141.0,200.0,125.0,1,3.299158811569214,None,,,,,0,0,0,0,0,86,86,81,422.21992444992065,,,,,,,,,,,,,,,,,,,,,,,,,,,,,,,,,,,,,,,,,,,,,,,,,,,,,,,,,,,,,,,,,,,,,,,,,,,,,,,,,125.0,200.0,141.0,141.0,200.0,125.0,3.0,3.1,-266,281,0,9,229,-258,422.205135345459,422.2051753997803,422.20726895332336,422.21992444992065,422.3698410987854,422.3698410987854,422.3698410987854,422.3698410987854,422.3698410987854,422.3698410987854,422.3698410987854,425.52122950553894,1,3.299158811569214,None,,,,,,,,,,,,,,,,,,100,3,2025-02-24_14h58.42.753,comp,2024.2.4,60.14244438230845,2025-02-24 14h58.58.867663 -0500,
87,87,0,critical,dhw,20.0,3.0,upper,141.0,141.0,200.0,125.0,125.0,200.0,3,4.771615505218506,None,,,,,0,0,0,0,0,87,87,57,425.5366201400757,,,,,,,,,,,,,,,,,,,,,,,,,,,,,,,,,,,,,,,,,,,,,,,,,,,,,,,,,,,,,,,,,,,,,,,,,,,,,,,,,141.0,141.0,200.0,125.0,125.0,200.0,3.0,3.2,-229,-257,0,-9,258,270,425.5220136642456,425.52205657958984,425.52424335479736,425.5366201400757,425.686874628067,425.686874628067,425.686874628067,425.686874628067,425.686874628067,425.686874628067,425.686874628067,430.3210825920105,3,4.771615505218506,None,,,,,,,,,,,,,,,,,,100,3,2025-02-24_14h58.42.753,comp,2024.2.4,60.14244438230845,2025-02-24 14h58.58.867663 -0500,
88,88,0,critical,whd,35.0,3.0,upper,125.0,200.0,200.0,125.0,127.0,127.0,1,1.8048315048217773,None,,,,,0,0,0,0,0,88,88,87,430.3361711502075,,,,,,,,,,,,,,,,,,,,,,,,,,,,,,,,,,,,,,,,,,,,,,,,,,,,,,,,,,,,,,,,,,,,,,,,,,,,,,,,,125.0,200.0,200.0,125.0,127.0,127.0,3.0,3.2,-258,-274,0,-1,222,283,430.32183051109314,430.3218674659729,430.32409048080444,430.3361711502075,430.4865050315857,430.4865050315857,430.4865050315857,430.4865050315857,430.4865050315857,430.4865050315857,430.4865050315857,432.1543388366699,1,1.8048315048217773,None,,,,,,,,,,,,,,,,,,100,3,2025-02-24_14h58.42.753,comp,2024.2.4,60.14244438230845,2025-02-24 14h58.58.867663 -0500,
89,89,0,filler_random,None,None,None,None,None,None,None,None,None,None,1,1.100496530532837,None,,,,,0,0,0,0,0,89,89,145,432.16960406303406,,,,,,,,,,,,,,,,,,,,,,,,,,,,,,,,,,,,,,,,,,,,,,,,,,,,,,,,,,,,,,,,,,,,,,,,,,,,,,,,,188.86999711779677,148.66966394118182,182.30774297320698,76.65467309848124,155.71371692974714,100.09780604098438,2.1,2.12,-209,-282,0,-267,184,253,432.1552457809448,432.15528535842896,432.1576437950134,432.16960406303406,432.31999015808105,432.31999015808105,432.31999015808105,432.31999015808105,432.31999015808105,432.31999015808105,432.31999015808105,433.28749680519104,1,1.100496530532837,None,,,,,,,,,,,,,,,,,,100,3,2025-02-24_14h58.42.753,comp,2024.2.4,60.14244438230845,2025-02-24 14h58.58.867663 -0500,
90,90,0,filler_square,None,None,None,None,None,None,None,None,None,None,1,1.7173233032226562,None,,,,,0,0,0,0,0,90,90,180,433.30294489860535,,,,,,,,,,,,,,,,,,,,,,,,,,,,,,,,,,,,,,,,,,,,,,,,,,,,,,,,,,,,,,,,,,,,,,,,,,,,,,,,,116.397076506597,116.397076506597,106.66312496249932,70.27361735832602,94.12065049845398,102.85313713181948,1.0,1.1,-669,281,-480,288,-297,254,433.2884941101074,433.28853487968445,433.29095482826233,433.30294489860535,433.45306968688965,433.45306968688965,433.45306968688965,433.45306968688965,433.45306968688965,433.45306968688965,433.45306968688965,435.03739285469055,1,1.7173233032226562,None,,,,,,,,,,,,,,,,,,100,3,2025-02-24_14h58.42.753,comp,2024.2.4,60.14244438230845,2025-02-24 14h58.58.867663 -0500,
91,91,0,filler_random,None,None,None,None,None,None,None,None,None,None,2,1.335465431213379,None,,,,,0,0,0,0,0,91,91,141,435.0528585910797,,,,,,,,,,,,,,,,,,,,,,,,,,,,,,,,,,,,,,,,,,,,,,,,,,,,,,,,,,,,,,,,,,,,,,,,,,,,,,,,,118.40357334604664,76.43722368689285,99.6587642683657,181.35343588402088,81.89496481361809,78.00954584655877,1.0,1.3,255,-255,480,-254,706,-287,435.0382812023163,435.0383207798004,435.04074478149414,435.0528585910797,435.20313811302185,435.20313811302185,435.20313811302185,435.20313811302185,435.20313811302185,435.20313811302185,435.20313811302185,436.40409541130066,2,1.335465431213379,None,,,,,,,,,,,,,,,,,,100,3,2025-02-24_14h58.42.753,comp,2024.2.4,60.14244438230845,2025-02-24 14h58.58.867663 -0500,
92,92,0,critical,hwd,35.0,4.0,lower,133.0,57.0,57.0,133.0,70.0,70.0,2,4.2256128787994385,None,,,,,0,0,0,0,0,92,92,100,436.41950273513794,,,,,,,,,,,,,,,,,,,,,,,,,,,,,,,,,,,,,,,,,,,,,,,,,,,,,,,,,,,,,,,,,,,,,,,,,,,,,,,,,133.0,57.0,57.0,133.0,70.0,70.0,4.0,4.2,-191,-7,0,-288,198,17,436.4048683643341,436.4049093723297,436.4072654247284,436.41950273513794,436.56959557533264,436.56959557533264,436.56959557533264,436.56959557533264,436.56959557533264,436.56959557533264,436.56959557533264,440.65412497520447,2,4.2256128787994385,None,,,,,,,,,,,,,,,,,,100,3,2025-02-24_14h58.42.753,comp,2024.2.4,60.14244438230845,2025-02-24 14h58.58.867663 -0500,
93,93,0,critical,wdh,35.0,4.0,lower,57.0,133.0,70.0,70.0,133.0,57.0,1,1.3750650882720947,None,,,,,0,0,0,0,0,93,93,76,440.67003440856934,,,,,,,,,,,,,,,,,,,,,,,,,,,,,,,,,,,,,,,,,,,,,,,,,,,,,,,,,,,,,,,,,,,,,,,,,,,,,,,,,57.0,133.0,70.0,70.0,133.0,57.0,4.0,4.2,-198,8,0,-287,160,-15,440.6548912525177,440.6549322605133,440.65704679489136,440.67003440856934,440.81978130340576,440.81978130340576,440.81978130340576,440.81978130340576,440.81978130340576,440.81978130340576,440.81978130340576,442.0540382862091,1,1.3750650882720947,None,,,,,,,,,,,,,,,,,,100,3,2025-02-24_14h58.42.753,comp,2024.2.4,60.14244438230845,2025-02-24 14h58.58.867663 -0500,
94,94,0,filler_square,None,None,None,None,None,None,None,None,None,None,2,1.2712578773498535,None,,,,,0,0,0,0,0,94,94,201,442.06968927383423,,,,,,,,,,,,,,,,,,,,,,,,,,,,,,,,,,,,,,,,,,,,,,,,,,,,,,,,,,,,,,,,,,,,,,,,,,,,,,,,,88.46840572260726,85.87306230069768,99.89593414052831,99.89593414052831,89.32170446558209,98.89333914664027,2.2,2.22,-189,281,0,-266,195,-289,442.0549466609955,442.0549850463867,442.05718326568604,442.06968927383423,442.2198178768158,442.2198178768158,442.2198178768158,442.2198178768158,442.2198178768158,442.2198178768158,442.2198178768158,443.3540585041046,2,1.2712578773498535,None,,,,,,,,,,,,,,,,,,100,3,2025-02-24_14h58.42.753,comp,2024.2.4,60.14244438230845,2025-02-24 14h58.58.867663 -0500,
95,95,0,critical,hwd,35.0,1.0,lower,133.0,57.0,57.0,133.0,70.0,70.0,1,2.8348662853240967,None,,,,,0,0,0,0,0,95,95,96,443.3694245815277,,,,,,,,,,,,,,,,,,,,,,,,,,,,,,,,,,,,,,,,,,,,,,,,,,,,,,,,,,,,,,,,,,,,,,,,,,,,,,,,,133.0,57.0,57.0,133.0,70.0,70.0,1.0,1.3,289,-267,480,-250,678,-286,443.35482239723206,443.3548605442047,443.35714173316956,443.3694245815277,443.5196475982666,443.5196475982666,443.5196475982666,443.5196475982666,443.5196475982666,443.5196475982666,443.5196475982666,446.2206778526306,1,2.8348662853240967,None,,,,,,,,,,,,,,,,,,100,3,2025-02-24_14h58.42.753,comp,2024.2.4,60.14244438230845,2025-02-24 14h58.58.867663 -0500,
96,96,0,critical,hdw,20.0,2.1,upper,200.0,125.0,141.0,141.0,125.0,200.0,3,3.266521453857422,None,,,,,0,0,0,0,0,96,96,23,446.2361590862274,,,,,,,,,,,,,,,,,,,,,,,,,,,,,,,,,,,,,,,,,,,,,,,,,,,,,,,,,,,,,,,,,,,,,,,,,,,,,,,,,200.0,125.0,141.0,141.0,125.0,200.0,2.1,2.11,-229,261,0,261,266,-266,446.22146677970886,446.2215065956116,446.22395372390747,446.2361590862274,446.3865475654602,446.3865475654602,446.3865475654602,446.3865475654602,446.3865475654602,446.3865475654602,446.3865475654602,449.50443387031555,3,3.266521453857422,None,,,,,,,,,,,,,,,,,,100,3,2025-02-24_14h58.42.753,comp,2024.2.4,60.14244438230845,2025-02-24 14h58.58.867663 -0500,
97,97,0,critical,hdw,35.0,3.0,upper,200.0,125.0,127.0,127.0,125.0,200.0,3,1.1252775192260742,None,,,,,0,0,0,0,0,97,97,111,449.51973962783813,,,,,,,,,,,,,,,,,,,,,,,,,,,,,,,,,,,,,,,,,,,,,,,,,,,,,,,,,,,,,,,,,,,,,,,,,,,,,,,,,200.0,125.0,127.0,127.0,125.0,200.0,3.0,3.1,-222,258,0,-9,260,-257,449.5052583217621,449.5052981376648,449.50768971443176,449.51973962783813,449.66981387138367,449.66981387138367,449.66981387138367,449.66981387138367,449.66981387138367,449.66981387138367,449.66981387138367,450.65435457229614,3,1.1252775192260742,None,,,,,,,,,,,,,,,,,,100,3,2025-02-24_14h58.42.753,comp,2024.2.4,60.14244438230845,2025-02-24 14h58.58.867663 -0500,
98,98,0,filler_random,None,None,None,None,None,None,None,None,None,None,2,1.054534673690796,None,,,,,0,0,0,0,0,98,98,152,450.66978549957275,,,,,,,,,,,,,,,,,,,,,,,,,,,,,,,,,,,,,,,,,,,,,,,,,,,,,,,,,,,,,,,,,,,,,,,,,,,,,,,,,92.90183813066815,66.22339044928292,167.4544909028906,116.92653403353611,173.87572524666996,70.6397184840293,2.1,2.11,-188,273,0,278,190,-285,450.65528655052185,450.6553285121918,450.65741777420044,450.66978549957275,450.8196008205414,450.8196008205414,450.8196008205414,450.8196008205414,450.8196008205414,450.8196008205414,450.8196008205414,451.7374322414398,2,1.054534673690796,None,,,,,,,,,,,,,,,,,,100,3,2025-02-24_14h58.42.753,comp,2024.2.4,60.14244438230845,2025-02-24 14h58.58.867663 -0500,
99,99,0,filler_random,None,None,None,None,None,None,None,None,None,None,2,1.4601166248321533,None,,,,,0,0,0,0,0,99,99,133,451.75289392471313,,,,,,,,,,,,,,,,,,,,,,,,,,,,,,,,,,,,,,,,,,,,,,,,,,,,,,,,,,,,,,,,,,,,,,,,,,,,,,,,,59.030872467861414,167.90823209740142,160.07884134273831,114.31959247605278,112.31121600081454,68.57595381353786,2.2,2.21,-237,-277,0,256,187,260,451.7383415699005,451.73838233947754,451.7408084869385,451.75289392471313,451.9030303955078,451.9030303955078,451.9030303955078,451.9030303955078,451.9030303955078,451.9030303955078,451.9030303955078,453.22074484825134,2,1.4601166248321533,None,,,,,,,,,,,,,,,,,,100,3,2025-02-24_14h58.42.753,comp,2024.2.4,60.14244438230845,2025-02-24 14h58.58.867663 -0500,
100,100,0,filler_random,None,None,None,None,None,None,None,None,None,None,3,2.3138110637664795,None,,,,,0,0,0,0,0,100,100,165,453.2363922595978,,,,,,,,,,,,,,,,,,,,,,,,,,,,,,,,,,,,,,,,,,,,,,,,,,,,,,,,,,,,,,,,,,,,,,,,,,,,,,,,,168.58072316217516,72.37804938388503,76.7109158663285,74.80776193366398,152.57633168354977,161.82384348861632,4.0,4.2,-170,-3,0,-268,214,2,453.2216408252716,453.22168350219727,453.2241427898407,453.2363922595978,453.3862192630768,453.3862192630768,453.3862192630768,453.3862192630768,453.3862192630768,453.3862192630768,453.3862192630768,455.5542137622833,3,2.3138110637664795,None,,,,,,,,,,,,,,,,,,100,3,2025-02-24_14h58.42.753,comp,2024.2.4,60.14244438230845,2025-02-24 14h58.58.867663 -0500,
101,101,0,filler_square,None,None,None,None,None,None,None,None,None,None,1,2.5384039878845215,None,,,,,0,0,0,0,0,101,101,179,455.5696518421173,,,,,,,,,,,,,,,,,,,,,,,,,,,,,,,,,,,,,,,,,,,,,,,,,,,,,,,,,,,,,,,,,,,,,,,,,,,,,,,,,72.7479641562734,72.7479641562734,64.49334312946552,71.85409239706064,61.14321447308446,70.7561236429971,1.0,1.3,312,-274,480,-272,647,-264,455.5551483631134,455.55518794059753,455.55731439590454,455.5696518421173,455.719829082489,455.719829082489,455.719829082489,455.719829082489,455.719829082489,455.719829082489,455.719829082489,458.1205413341522,1,2.5384039878845215,None,,,,,,,,,,,,,,,,,,100,3,2025-02-24_14h58.42.753,comp,2024.2.4,60.14244438230845,2025-02-24 14h58.58.867663 -0500,
102,102,0,critical,hwd,35.0,2.1,upper,200.0,125.0,125.0,200.0,127.0,127.0,1,10.388113737106323,None,,,,,0,0,0,0,0,102,102,17,458.1359865665436,,,,,,,,,,,,,,,,,,,,,,,,,,,,,,,,,,,,,,,,,,,,,,,,,,,,,,,,,,,,,,,,,,,,,,,,,,,,,,,,,200.0,125.0,125.0,200.0,127.0,127.0,2.1,2.12,-258,-276,0,-276,260,261,458.1212999820709,458.1213388442993,458.1237258911133,458.1359865665436,458.2863938808441,458.2863938808441,458.2863938808441,458.2863938808441,458.2863938808441,458.2863938808441,458.2863938808441,468.5373661518097,1,10.388113737106323,None,,,,,,,,,,,,,,,,,,100,3,2025-02-24_14h58.42.753,comp,2024.2.4,60.14244438230845,2025-02-24 14h58.58.867663 -0500,
103,103,0,filler_square,None,None,None,None,None,None,None,None,None,None,1,1.108314037322998,None,,,,,0,0,0,0,0,103,103,197,468.5526349544525,,,,,,,,,,,,,,,,,,,,,,,,,,,,,,,,,,,,,,,,,,,,,,,,,,,,,,,,,,,,,,,,,,,,,,,,,,,,,,,,,112.78318860599329,112.78318860599329,90.83076897818472,76.50935199562375,89.10324794764219,78.7780103771334,2.1,2.12,-191,-256,0,-267,174,276,468.53834676742554,468.538387298584,468.54076385498047,468.5526349544525,468.70276713371277,468.70276713371277,468.70276713371277,468.70276713371277,468.70276713371277,468.70276713371277,468.70276713371277,469.67051100730896,1,1.108314037322998,None,,,,,,,,,,,,,,,,,,100,3,2025-02-24_14h58.42.753,comp,2024.2.4,60.14244438230845,2025-02-24 14h58.58.867663 -0500,
104,104,0,critical,hdw,20.0,2.1,lower,133.0,57.0,78.0,78.0,57.0,133.0,3,3.910580635070801,None,,,,,0,0,0,0,0,104,104,46,469.68623185157776,,,,,,,,,,,,,,,,,,,,,,,,,,,,,,,,,,,,,,,,,,,,,,,,,,,,,,,,,,,,,,,,,,,,,,,,,,,,,,,,,133.0,57.0,78.0,78.0,57.0,133.0,2.1,2.11,-164,288,0,265,202,-286,469.67129015922546,469.67133116722107,469.6738657951355,469.68623185157776,469.83611941337585,469.83611941337585,469.83611941337585,469.83611941337585,469.83611941337585,469.83611941337585,469.83611941337585,473.60385823249817,3,3.910580635070801,None,,,,,,,,,,,,,,,,,,100,3,2025-02-24_14h58.42.753,comp,2024.2.4,60.14244438230845,2025-02-24 14h58.58.867663 -0500,
105,105,0,critical,hdw,20.0,1.0,lower,133.0,57.0,78.0,78.0,57.0,133.0,1,1.6723291873931885,None,,,,,0,0,0,0,0,105,105,114,473.619601726532,,,,,,,,,,,,,,,,,,,,,,,,,,,,,,,,,,,,,,,,,,,,,,,,,,,,,,,,,,,,,,,,,,,,,,,,,,,,,,,,,133.0,57.0,78.0,78.0,57.0,133.0,1.0,1.1,-644,262,-480,285,-278,253,473.60465383529663,473.6046953201294,473.60679364204407,473.619601726532,473.76935720443726,473.76935720443726,473.76935720443726,473.76935720443726,473.76935720443726,473.76935720443726,473.76935720443726,475.3040654659271,1,1.6723291873931885,None,,,,,,,,,,,,,,,,,,100,3,2025-02-24_14h58.42.753,comp,2024.2.4,60.14244438230845,2025-02-24 14h58.58.867663 -0500,
106,106,0,critical,wdh,35.0,2.1,lower,57.0,133.0,70.0,70.0,133.0,57.0,3,1.7098326683044434,None,,,,,0,0,0,0,0,106,106,32,475.31919527053833,,,,,,,,,,,,,,,,,,,,,,,,,,,,,,,,,,,,,,,,,,,,,,,,,,,,,,,,,,,,,,,,,,,,,,,,,,,,,,,,,57.0,133.0,70.0,70.0,133.0,57.0,2.1,2.11,-198,274,0,280,160,-271,475.30482959747314,475.3048677444458,475.3071322441101,475.31919527053833,475.469523191452,475.469523191452,475.469523191452,475.469523191452,475.469523191452,475.469523191452,475.469523191452,477.03714323043823,3,1.7098326683044434,None,,,,,,,,,,,,,,,,,,100,3,2025-02-24_14h58.42.753,comp,2024.2.4,60.14244438230845,2025-02-24 14h58.58.867663 -0500,
107,107,0,critical,hwd,35.0,3.0,upper,200.0,125.0,125.0,200.0,127.0,127.0,1,6.808467388153076,None,,,,,0,0,0,0,0,107,107,99,477.0527617931366,,,,,,,,,,,,,,,,,,,,,,,,,,,,,,,,,,,,,,,,,,,,,,,,,,,,,,,,,,,,,,,,,,,,,,,,,,,,,,,,,200.0,125.0,125.0,200.0,127.0,127.0,3.0,3.2,-258,-251,0,3,260,260,477.0379102230072,477.03794836997986,477.04019951820374,477.0527617931366,477.202871799469,477.202871799469,477.202871799469,477.202871799469,477.202871799469,477.202871799469,477.202871799469,483.8705942630768,1,6.808467388153076,None,,,,,,,,,,,,,,,,,,100,3,2025-02-24_14h58.42.753,comp,2024.2.4,60.14244438230845,2025-02-24 14h58.58.867663 -0500,
108,108,0,filler_square,None,None,None,None,None,None,None,None,None,None,3,1.2781879901885986,None,,,,,0,0,0,0,0,108,108,205,483.88656282424927,,,,,,,,,,,,,,,,,,,,,,,,,,,,,,,,,,,,,,,,,,,,,,,,,,,,,,,,,,,,,,,,,,,,,,,,,,,,,,,,,113.4743960330887,166.7950804036709,124.61348250305164,99.47812961875206,196.92160019289554,196.92160019289554,3.0,3.1,-229,280,0,-4,244,-258,483.8715305328369,483.87156987190247,483.87395095825195,483.88656282424927,484.0363519191742,484.0363519191742,484.0363519191742,484.0363519191742,484.0363519191742,484.0363519191742,484.0363519191742,485.17067289352417,3,1.2781879901885986,None,,,,,,,,,,,,,,,,,,100,3,2025-02-24_14h58.42.753,comp,2024.2.4,60.14244438230845,2025-02-24 14h58.58.867663 -0500,
109,109,0,filler_random,None,None,None,None,None,None,None,None,None,None,1,1.8746542930603027,None,,,,,0,0,0,0,0,109,109,146,485.1861174106598,,,,,,,,,,,,,,,,,,,,,,,,,,,,,,,,,,,,,,,,,,,,,,,,,,,,,,,,,,,,,,,,,,,,,,,,,,,,,,,,,173.31315459070498,109.64162596924294,60.334047281006676,148.79382280604273,151.49220932544745,113.74231765875636,2.1,2.11,-225,276,0,251,227,-275,485.171582698822,485.17162322998047,485.17404341697693,485.1861174106598,485.3375942707062,485.3375942707062,485.3375942707062,485.3375942707062,485.3375942707062,485.3375942707062,485.3375942707062,487.07058453559875,1,1.8746542930603027,None,,,,,,,,,,,,,,,,,,100,3,2025-02-24_14h58.42.753,comp,2024.2.4,60.14244438230845,2025-02-24 14h58.58.867663 -0500,
110,110,0,catch,None,None,None,None,None,None,None,None,None,None,1,1.2002031803131104,None,,,,,0,0,0,0,0,110,110,126,487.0861282348633,,,,,,,,,,,,,,,,,,,,,,,,,,,,,,,,,,,,,,,,,,,,,,,,,,,,,,,,,,,,,,,,,,,,,,,,,,,,,,,,,181,144,130,60,58,132,1.0,1.2,-198,8,0,18,192,19,487.07164239883423,487.0716824531555,487.0741403102875,487.0861282348633,487.23780059814453,487.23780059814453,487.23780059814453,487.23780059814453,487.23780059814453,487.23780059814453,487.23780059814453,488.28763794898987,1,1.2002031803131104,None,,,,,,,,,,,,,,,,,,100,3,2025-02-24_14h58.42.753,comp,2024.2.4,60.14244438230845,2025-02-24 14h58.58.867663 -0500,
111,111,0,critical,dwh,35.0,2.1,upper,127.0,127.0,125.0,200.0,200.0,125.0,3,1.6619102954864502,None,,,,,0,0,0,0,0,111,111,5,488.30283522605896,,,,,,,,,,,,,,,,,,,,,,,,,,,,,,,,,,,,,,,,,,,,,,,,,,,,,,,,,,,,,,,,,,,,,,,,,,,,,,,,,127.0,127.0,125.0,200.0,200.0,125.0,2.1,2.11,-260,263,0,282,258,-278,488.28848600387573,488.2885253429413,488.2905855178833,488.30283522605896,488.452983379364,488.452983379364,488.452983379364,488.452983379364,488.452983379364,488.452983379364,488.452983379364,489.9706084728241,3,1.6619102954864502,None,,,,,,,,,,,,,,,,,,100,3,2025-02-24_14h58.42.753,comp,2024.2.4,60.14244438230845,2025-02-24 14h58.58.867663 -0500,
112,112,0,critical,wdh,20.0,1.0,upper,125.0,200.0,141.0,141.0,200.0,125.0,1,3.1057779788970947,None,,,,,0,0,0,0,0,112,112,79,489.9860248565674,,,,,,,,,,,,,,,,,,,,,,,,,,,,,,,,,,,,,,,,,,,,,,,,,,,,,,,,,,,,,,,,,,,,,,,,,,,,,,,,,125.0,200.0,141.0,141.0,200.0,125.0,1.0,1.1,-746,251,-480,273,-251,266,489.97139596939087,489.9714369773865,489.9738116264343,489.9860248565674,490.13621735572815,490.13621735572815,490.13621735572815,490.13621735572815,490.13621735572815,490.13621735572815,490.13621735572815,493.10413789749146,1,3.1057779788970947,None,,,,,,,,,,,,,,,,,,100,3,2025-02-24_14h58.42.753,comp,2024.2.4,60.14244438230845,2025-02-24 14h58.58.867663 -0500,
113,113,0,filler_square,None,None,None,None,None,None,None,None,None,None,1,1.5503439903259277,None,,,,,0,0,0,0,0,113,113,196,493.11912298202515,,,,,,,,,,,,,,,,,,,,,,,,,,,,,,,,,,,,,,,,,,,,,,,,,,,,,,,,,,,,,,,,,,,,,,,,,,,,,,,,,105.16284298117736,105.16284298117736,102.64791038812201,67.69706218761621,102.57353434889235,75.59762434122227,2.1,2.11,-182,269,0,264,168,-276,493.1050684452057,493.10510754585266,493.10725021362305,493.11912298202515,493.26939392089844,493.26939392089844,493.26939392089844,493.26939392089844,493.26939392089844,493.26939392089844,493.26939392089844,494.6705095767975,1,1.5503439903259277,None,,,,,,,,,,,,,,,,,,100,3,2025-02-24_14h58.42.753,comp,2024.2.4,60.14244438230845,2025-02-24 14h58.58.867663 -0500,
114,114,0,critical,whd,20.0,4.0,upper,125.0,200.0,200.0,125.0,141.0,141.0,2,2.454643726348877,None,,,,,0,0,0,0,0,114,114,95,494.6859109401703,,,,,,,,,,,,,,,,,,,,,,,,,,,,,,,,,,,,,,,,,,,,,,,,,,,,,,,,,,,,,,,,,,,,,,,,,,,,,,,,,125.0,200.0,200.0,125.0,141.0,141.0,4.0,4.2,-258,-15,0,-279,229,-6,494.6712749004364,494.6713168621063,494.673707485199,494.6859109401703,494.8360426425934,494.8360426425934,494.8360426425934,494.8360426425934,494.8360426425934,494.8360426425934,494.8360426425934,497.15393018722534,2,2.454643726348877,None,,,,,,,,,,,,,,,,,,100,3,2025-02-24_14h58.42.753,comp,2024.2.4,60.14244438230845,2025-02-24 14h58.58.867663 -0500,
115,115,0,critical,whd,20.0,1.0,lower,57.0,133.0,133.0,57.0,78.0,78.0,2,3.027456760406494,None,,,,,0,0,0,0,0,115,115,90,497.16925287246704,,,,,,,,,,,,,,,,,,,,,,,,,,,,,,,,,,,,,,,,,,,,,,,,,,,,,,,,,,,,,,,,,,,,,,,,,,,,,,,,,57.0,133.0,133.0,57.0,78.0,78.0,1.0,1.1,-671,282,-480,266,-316,268,497.15472054481506,497.15475940704346,497.1578526496887,497.16925287246704,497.3193471431732,497.3193471431732,497.3193471431732,497.3193471431732,497.3193471431732,497.3193471431732,497.3193471431732,500.203649520874,2,3.027456760406494,None,,,,,,,,,,,,,,,,,,100,3,2025-02-24_14h58.42.753,comp,2024.2.4,60.14244438230845,2025-02-24 14h58.58.867663 -0500,
116,116,0,catch,None,None,None,None,None,None,None,None,None,None,3,1.2883825302124023,None,,,,,0,0,0,0,0,116,116,128,500.21937799453735,,,,,,,,,,,,,,,,,,,,,,,,,,,,,,,,,,,,,,,,,,,,,,,,,,,,,,,,,,,,,,,,,,,,,,,,,,,,,,,,,100,90,116,74,195,130,4.0,4.2,-178,-8,0,-281,198,-7,500.2046694755554,500.2047109603882,500.20713901519775,500.21937799453735,500.3692853450775,500.3692853450775,500.3692853450775,500.3692853450775,500.3692853450775,500.3692853450775,500.3692853450775,501.52054619789124,3,1.2883825302124023,None,,,,,,,,,,,,,,,,,,100,3,2025-02-24_14h58.42.753,comp,2024.2.4,60.14244438230845,2025-02-24 14h58.58.867663 -0500,
117,117,0,critical,hdw,35.0,4.0,lower,133.0,57.0,70.0,70.0,57.0,133.0,1,1.9087848663330078,None,,,,,0,0,0,0,0,117,117,112,501.53583240509033,,,,,,,,,,,,,,,,,,,,,,,,,,,,,,,,,,,,,,,,,,,,,,,,,,,,,,,,,,,,,,,,,,,,,,,,,,,,,,,,,133.0,57.0,70.0,70.0,57.0,133.0,4.0,4.1,-160,-288,0,11,198,-265,501.5213408470154,501.521381855011,501.5239372253418,501.53583240509033,501.6858494281769,501.6858494281769,501.6858494281769,501.6858494281769,501.6858494281769,501.6858494281769,501.6858494281769,503.4535117149353,1,1.9087848663330078,None,,,,,,,,,,,,,,,,,,100,3,2025-02-24_14h58.42.753,comp,2024.2.4,60.14244438230845,2025-02-24 14h58.58.867663 -0500,
118,118,0,critical,wdh,35.0,2.1,upper,125.0,200.0,127.0,127.0,200.0,125.0,1,18.48648738861084,None,,,,,0,0,0,0,0,118,118,33,503.4693765640259,,,,,,,,,,,,,,,,,,,,,,,,,,,,,,,,,,,,,,,,,,,,,,,,,,,,,,,,,,,,,,,,,,,,,,,,,,,,,,,,,125.0,200.0,127.0,127.0,200.0,125.0,2.1,2.12,-260,-285,0,-259,222,254,503.4543046951294,503.4543468952179,503.45670533180237,503.4693765640259,503.6192727088928,503.6192727088928,503.6192727088928,503.6192727088928,503.6192727088928,503.6192727088928,503.6192727088928,521.9703903198242,1,18.48648738861084,None,,,,,,,,,,,,,,,,,,100,3,2025-02-24_14h58.42.753,comp,2024.2.4,60.14244438230845,2025-02-24 14h58.58.867663 -0500,
119,119,0,critical,hwd,35.0,1.0,upper,200.0,125.0,125.0,200.0,127.0,127.0,1,3.810865640640259,None,,,,,0,0,0,0,0,119,119,97,521.985650062561,,,,,,,,,,,,,,,,,,,,,,,,,,,,,,,,,,,,,,,,,,,,,,,,,,,,,,,,,,,,,,,,,,,,,,,,,,,,,,,,,200.0,125.0,125.0,200.0,127.0,127.0,1.0,1.3,222,-270,480,-282,740,-267,521.9711828231812,521.9712216854095,521.9735765457153,521.985650062561,522.1358745098114,522.1358745098114,522.1358745098114,522.1358745098114,522.1358745098114,522.1358745098114,522.1358745098114,525.8036506175995,1,3.810865640640259,None,,,,,,,,,,,,,,,,,,100,3,2025-02-24_14h58.42.753,comp,2024.2.4,60.14244438230845,2025-02-24 14h58.58.867663 -0500,
120,120,0,critical,wdh,35.0,4.0,upper,125.0,200.0,127.0,127.0,200.0,125.0,3,6.00006103515625,None,,,,,0,0,0,0,0,120,120,77,525.8196265697479,,,,,,,,,,,,,,,,,,,,,,,,,,,,,,,,,,,,,,,,,,,,,,,,,,,,,,,,,,,,,,,,,,,,,,,,,,,,,,,,,125.0,200.0,127.0,127.0,200.0,125.0,4.0,4.1,-260,-258,0,5,222,-272,525.8044338226318,525.8044748306274,525.8065786361694,525.8196265697479,525.9692387580872,525.9692387580872,525.9692387580872,525.9692387580872,525.9692387580872,525.9692387580872,525.9692387580872,531.8208525180817,3,6.00006103515625,None,,,,,,,,,,,,,,,,,,100,3,2025-02-24_14h58.42.753,comp,2024.2.4,60.14244438230845,2025-02-24 14h58.58.867663 -0500,
121,121,0,filler_random,None,None,None,None,None,None,None,None,None,None,2,1.4412579536437988,None,,,,,0,0,0,0,0,121,121,136,531.8358590602875,,,,,,,,,,,,,,,,,,,,,,,,,,,,,,,,,,,,,,,,,,,,,,,,,,,,,,,,,,,,,,,,,,,,,,,,,,,,,,,,,142.4846034118511,104.14600103910627,157.02924620474062,106.6436200018947,70.43183361165036,61.55985414740004,3.0,3.1,-201,276,0,-2,180,-271,531.8217446804047,531.8217878341675,531.8242881298065,531.8358590602875,531.9858288764954,531.9858288764954,531.9858288764954,531.9858288764954,531.9858288764954,531.9858288764954,531.9858288764954,533.2869355678558,2,1.4412579536437988,None,,,,,,,,,,,,,,,,,,100,3,2025-02-24_14h58.42.753,comp,2024.2.4,60.14244438230845,2025-02-24 14h58.58.867663 -0500,
122,122,0,critical,wdh,20.0,4.0,upper,125.0,200.0,141.0,141.0,200.0,125.0,1,4.517062664031982,None,,,,,0,0,0,0,0,122,122,83,533.3025982379913,,,,,,,,,,,,,,,,,,,,,,,,,,,,,,,,,,,,,,,,,,,,,,,,,,,,,,,,,,,,,,,,,,,,,,,,,,,,,,,,,125.0,200.0,141.0,141.0,200.0,125.0,4.0,4.1,-266,-255,0,3,229,-284,533.2880387306213,533.2880792617798,533.2902443408966,533.3025982379913,533.4526901245117,533.4526901245117,533.4526901245117,533.4526901245117,533.4526901245117,533.4526901245117,533.4526901245117,537.8369357585907,1,4.517062664031982,None,,,,,,,,,,,,,,,,,,100,3,2025-02-24_14h58.42.753,comp,2024.2.4,60.14244438230845,2025-02-24 14h58.58.867663 -0500,
123,123,0,critical,wdh,20.0,4.0,lower,57.0,133.0,78.0,78.0,133.0,57.0,3,2.9602367877960205,None,,,,,0,0,0,0,0,123,123,82,537.8521220684052,,,,,,,,,,,,,,,,,,,,,,,,,,,,,,,,,,,,,,,,,,,,,,,,,,,,,,,,,,,,,,,,,,,,,,,,,,,,,,,,,57.0,133.0,78.0,78.0,133.0,57.0,4.0,4.2,-202,13,0,-252,164,-1,537.837723493576,537.8377645015717,537.8399379253387,537.8521220684052,538.0024507045746,538.0024507045746,538.0024507045746,538.0024507045746,538.0024507045746,538.0024507045746,538.0024507045746,540.8199257850647,3,2.9602367877960205,None,,,,,,,,,,,,,,,,,,100,3,2025-02-24_14h58.42.753,comp,2024.2.4,60.14244438230845,2025-02-24 14h58.58.867663 -0500,
124,124,0,critical,wdh,35.0,3.0,lower,57.0,133.0,70.0,70.0,133.0,57.0,3,1.919823169708252,None,,,,,0,0,0,0,0,124,124,74,540.8357155323029,,,,,,,,,,,,,,,,,,,,,,,,,,,,,,,,,,,,,,,,,,,,,,,,,,,,,,,,,,,,,,,,,,,,,,,,,,,,,,,,,57.0,133.0,70.0,70.0,133.0,57.0,3.0,3.1,-198,288,0,-18,160,-264,540.8207268714905,540.8207685947418,540.8228335380554,540.8357155323029,540.9859817028046,540.9859817028046,540.9859817028046,540.9859817028046,540.9859817028046,540.9859817028046,540.9859817028046,542.7702362537384,3,1.919823169708252,None,,,,,,,,,,,,,,,,,,100,3,2025-02-24_14h58.42.753,comp,2024.2.4,60.14244438230845,2025-02-24 14h58.58.867663 -0500,
125,125,0,critical,hwd,20.0,1.0,lower,133.0,57.0,57.0,133.0,78.0,78.0,1,9.22675895690918,None,,,,,0,0,0,0,0,125,125,102,542.7855706214905,,,,,,,,,,,,,,,,,,,,,,,,,,,,,,,,,,,,,,,,,,,,,,,,,,,,,,,,,,,,,,,,,,,,,,,,,,,,,,,,,133.0,57.0,57.0,133.0,78.0,78.0,1.0,1.1,-671,278,-480,271,-278,289,542.7713253498077,542.7713656425476,542.7734956741333,542.7855706214905,542.9359810352325,542.9359810352325,542.9359810352325,542.9359810352325,542.9359810352325,542.9359810352325,542.9359810352325,552.0198919773102,1,9.22675895690918,None,,,,,,,,,,,,,,,,,,100,3,2025-02-24_14h58.42.753,comp,2024.2.4,60.14244438230845,2025-02-24 14h58.58.867663 -0500,
126,126,0,filler_random,None,None,None,None,None,None,None,None,None,None,2,1.6557691097259521,None,,,,,0,0,0,0,0,126,126,168,552.0356318950653,,,,,,,,,,,,,,,,,,,,,,,,,,,,,,,,,,,,,,,,,,,,,,,,,,,,,,,,,,,,,,,,,,,,,,,,,,,,,,,,,90.43648362695947,76.05236786100973,165.062624628486,122.09793149012891,71.78588191908496,69.61345309177399,1.0,1.1,-675,261,-480,278,-288,252,552.0207970142365,552.020838022232,552.0229597091675,552.0356318950653,552.1860976219177,552.1860976219177,552.1860976219177,552.1860976219177,552.1860976219177,552.1860976219177,552.1860976219177,553.7036011219025,2,1.6557691097259521,None,,,,,,,,,,,,,,,,,,100,3,2025-02-24_14h58.42.753,comp,2024.2.4,60.14244438230845,2025-02-24 14h58.58.867663 -0500,
127,127,0,filler_square,None,None,None,None,None,None,None,None,None,None,3,1.972529649734497,None,,,,,0,0,0,0,0,127,127,206,553.7188787460327,,,,,,,,,,,,,,,,,,,,,,,,,,,,,,,,,,,,,,,,,,,,,,,,,,,,,,,,,,,,,,,,,,,,,,,,,,,,,,,,,59.55307214255345,59.71334513395953,58.113057203020105,58.06377503281275,69.86952311492688,69.86952311492688,1.0,1.2,-155,16,0,-17,160,-6,553.704549074173,553.7045886516571,553.7069532871246,553.7188787460327,553.8688976764679,553.8688976764679,553.8688976764679,553.8688976764679,553.8688976764679,553.8688976764679,553.8688976764679,555.7036499977112,3,1.972529649734497,None,,,,,,,,,,,,,,,,,,100,3,2025-02-24_14h58.42.753,comp,2024.2.4,60.14244438230845,2025-02-24 14h58.58.867663 -0500,
128,128,0,filler_square,None,None,None,None,None,None,None,None,None,None,2,1.6527748107910156,None,,,,,0,0,0,0,0,128,128,184,555.7187697887421,,,,,,,,,,,,,,,,,,,,,,,,,,,,,,,,,,,,,,,,,,,,,,,,,,,,,,,,,,,,,,,,,,,,,,,,,,,,,,,,,169.75697294321853,173.71163068738798,195.70728114047853,195.70728114047853,183.04556596668954,147.7784984359166,2.2,2.22,-281,269,0,-257,268,-260,555.7046120166779,555.704653263092,555.7071666717529,555.7187697887421,555.869649887085,555.869649887085,555.869649887085,555.869649887085,555.869649887085,555.869649887085,555.869649887085,557.3869943618774,2,1.6527748107910156,None,,,,,,,,,,,,,,,,,,100,3,2025-02-24_14h58.42.753,comp,2024.2.4,60.14244438230845,2025-02-24 14h58.58.867663 -0500,
129,129,0,critical,wdh,35.0,3.0,upper,125.0,200.0,127.0,127.0,200.0,125.0,3,2.0102994441986084,None,,,,,0,0,0,0,0,129,129,75,557.4020309448242,,,,,,,,,,,,,,,,,,,,,,,,,,,,,,,,,,,,,,,,,,,,,,,,,,,,,,,,,,,,,,,,,,,,,,,,,,,,,,,,,125.0,200.0,127.0,127.0,200.0,125.0,3.0,3.2,-260,-257,0,4,222,277,557.3877906799316,557.3878293037415,557.3901343345642,557.4020309448242,557.552392244339,557.552392244339,557.552392244339,557.552392244339,557.552392244339,557.552392244339,557.552392244339,559.4200491905212,3,2.0102994441986084,None,,,,,,,,,,,,,,,,,,100,3,2025-02-24_14h58.42.753,comp,2024.2.4,60.14244438230845,2025-02-24 14h58.58.867663 -0500,
130,130,0,critical,hdw,20.0,4.0,lower,133.0,57.0,78.0,78.0,57.0,133.0,1,4.482189655303955,None,,,,,0,0,0,0,0,130,130,118,559.4356422424316,,,,,,,,,,,,,,,,,,,,,,,,,,,,,,,,,,,,,,,,,,,,,,,,,,,,,,,,,,,,,,,,,,,,,,,,,,,,,,,,,133.0,57.0,78.0,78.0,57.0,133.0,4.0,4.1,-164,-258,0,-9,202,-279,559.4208128452301,559.4208524227142,559.423103094101,559.4356422424316,559.5855429172516,559.5855429172516,559.5855429172516,559.5855429172516,559.5855429172516,559.5855429172516,559.5855429172516,563.9199628829956,1,4.482189655303955,None,,,,,,,,,,,,,,,,,,100,3,2025-02-24_14h58.42.753,comp,2024.2.4,60.14244438230845,2025-02-24 14h58.58.867663 -0500,
131,131,0,filler_random,None,None,None,None,None,None,None,None,None,None,1,2.9877867698669434,None,,,,,0,0,0,0,0,131,131,130,563.9356863498688,,,,,,,,,,,,,,,,,,,,,,,,,,,,,,,,,,,,,,,,,,,,,,,,,,,,,,,,,,,,,,,,,,,,,,,,,,,,,,,,,143.45220264351394,111.53751176086062,120.3719079180201,98.05099856551242,86.20461207863352,185.60080376288272,2.1,2.11,-201,251,0,253,238,-283,563.9208595752716,563.9208993911743,563.9231367111206,563.9356863498688,564.0858044624329,564.0858044624329,564.0858044624329,564.0858044624329,564.0858044624329,564.0858044624329,564.0858044624329,566.9366908073425,1,2.9877867698669434,None,,,,,,,,,,,,,,,,,,100,3,2025-02-24_14h58.42.753,comp,2024.2.4,60.14244438230845,2025-02-24 14h58.58.867663 -0500,
132,132,0,filler_square,None,None,None,None,None,None,None,None,None,None,3,2.7168729305267334,None,,,,,0,0,0,0,0,132,132,188,566.9520003795624,,,,,,,,,,,,,,,,,,,,,,,,,,,,,,,,,,,,,,,,,,,,,,,,,,,,,,,,,,,,,,,,,,,,,,,,,,,,,,,,,58.91036798181043,70.78351278660274,67.61683350480322,65.7725054025767,75.4390023255002,75.4390023255002,3.0,3.2,-164,-254,0,-19,167,278,566.937625169754,566.9376635551453,566.9401335716248,566.9520003795624,567.1021566390991,567.1021566390991,567.1021566390991,567.1021566390991,567.1021566390991,567.1021566390991,567.1021566390991,569.670135974884,3,2.7168729305267334,None,,,,,,,,,,,,,,,,,,100,3,2025-02-24_14h58.42.753,comp,2024.2.4,60.14244438230845,2025-02-24 14h58.58.867663 -0500,
133,133,0,filler_square,None,None,None,None,None,None,None,None,None,None,2,1.6321260929107666,None,,,,,0,0,0,0,0,133,133,186,569.6856210231781,,,,,,,,,,,,,,,,,,,,,,,,,,,,,,,,,,,,,,,,,,,,,,,,,,,,,,,,,,,,,,,,,,,,,,,,,,,,,,,,,100.70674430004615,60.769916077798456,118.56446559180168,118.56446559180168,71.24081522812035,110.37156347818906,4.0,4.1,-186,-283,0,-13,210,-277,569.6711173057556,569.6711583137512,569.6734025478363,569.6856210231781,569.8358097076416,569.8358097076416,569.8358097076416,569.8358097076416,569.8358097076416,569.8358097076416,569.8358097076416,571.3199825286865,2,1.6321260929107666,None,,,,,,,,,,,,,,,,,,100,3,2025-02-24_14h58.42.753,comp,2024.2.4,60.14244438230845,2025-02-24 14h58.58.867663 -0500,
134,134,0,filler_square,None,None,None,None,None,None,None,None,None,None,1,0.9823348522186279,None,,,,,0,0,0,0,0,134,134,176,571.335428237915,,,,,,,,,,,,,,,,,,,,,,,,,,,,,,,,,,,,,,,,,,,,,,,,,,,,,,,,,,,,,,,,,,,,,,,,,,,,,,,,,177.9460356886242,177.9460356886242,109.67695279989293,156.6725447722646,69.29830782995765,132.1887423425166,2.2,2.22,-263,276,0,-264,240,-284,571.3209345340729,571.3209764957428,571.323112487793,571.335428237915,571.4855949878693,571.4855949878693,571.4855949878693,571.4855949878693,571.4855949878693,571.4855949878693,571.4855949878693,572.3201296329498,1,0.9823348522186279,None,,,,,,,,,,,,,,,,,,100,3,2025-02-24_14h58.42.753,comp,2024.2.4,60.14244438230845,2025-02-24 14h58.58.867663 -0500,
135,135,0,critical,whd,35.0,2.1,upper,125.0,200.0,200.0,125.0,127.0,127.0,1,2.004354238510132,None,,,,,0,0,0,0,0,135,135,37,572.3355648517609,,,,,,,,,,,,,,,,,,,,,,,,,,,,,,,,,,,,,,,,,,,,,,,,,,,,,,,,,,,,,,,,,,,,,,,,,,,,,,,,,125.0,200.0,200.0,125.0,127.0,127.0,2.1,2.11,-258,276,0,260,222,-259,572.3209269046783,572.320967912674,572.323301076889,572.3355648517609,572.4856207370758,572.4856207370758,572.4856207370758,572.4856207370758,572.4856207370758,572.4856207370758,572.4856207370758,574.3533854484558,1,2.004354238510132,None,,,,,,,,,,,,,,,,,,100,3,2025-02-24_14h58.42.753,comp,2024.2.4,60.14244438230845,2025-02-24 14h58.58.867663 -0500,
136,136,0,critical,wdh,20.0,3.0,lower,57.0,133.0,78.0,78.0,133.0,57.0,3,4.843652963638306,None,,,,,0,0,0,0,0,136,136,80,574.3685765266418,,,,,,,,,,,,,,,,,,,,,,,,,,,,,,,,,,,,,,,,,,,,,,,,,,,,,,,,,,,,,,,,,,,,,,,,,,,,,,,,,57.0,133.0,78.0,78.0,133.0,57.0,3.0,3.2,-202,-257,0,0,164,286,574.3541524410248,574.3541896343231,574.3565278053284,574.3685765266418,574.5188736915588,574.5188736915588,574.5188736915588,574.5188736915588,574.5188736915588,574.5188736915588,574.5188736915588,579.2197299003601,3,4.843652963638306,None,,,,,,,,,,,,,,,,,,100,3,2025-02-24_14h58.42.753,comp,2024.2.4,60.14244438230845,2025-02-24 14h58.58.867663 -0500,
137,137,0,catch,None,None,None,None,None,None,None,None,None,None,3,1.1363060474395752,None,,,,,0,0,0,0,0,137,137,121,579.2354998588562,,,,,,,,,,,,,,,,,,,,,,,,,,,,,,,,,,,,,,,,,,,,,,,,,,,,,,,,,,,,,,,,,,,,,,,,,,,,,,,,,120,70,65,125,147,178,4.0,4.2,-194,1,0,-280,248,-16,579.2207267284393,579.2207660675049,579.2227659225464,579.2354998588562,579.3853898048401,579.3853898048401,579.3853898048401,579.3853898048401,579.3853898048401,579.3853898048401,579.3853898048401,580.3869912624359,3,1.1363060474395752,None,,,,,,,,,,,,,,,,,,100,3,2025-02-24_14h58.42.753,comp,2024.2.4,60.14244438230845,2025-02-24 14h58.58.867663 -0500,
138,138,0,critical,hwd,35.0,4.0,upper,200.0,125.0,125.0,200.0,127.0,127.0,1,2.5380425453186035,None,,,,,0,0,0,0,0,138,138,101,580.4019865989685,,,,,,,,,,,,,,,,,,,,,,,,,,,,,,,,,,,,,,,,,,,,,,,,,,,,,,,,,,,,,,,,,,,,,,,,,,,,,,,,,200.0,125.0,125.0,200.0,127.0,127.0,4.0,4.2,-258,16,0,-257,260,-1,580.3877627849579,580.3878026008606,580.3899395465851,580.4019865989685,580.552277803421,580.552277803421,580.552277803421,580.552277803421,580.552277803421,580.552277803421,580.552277803421,582.9533507823944,1,2.5380425453186035,None,,,,,,,,,,,,,,,,,,100,3,2025-02-24_14h58.42.753,comp,2024.2.4,60.14244438230845,2025-02-24 14h58.58.867663 -0500,
139,139,0,critical,hwd,20.0,3.0,upper,200.0,125.0,125.0,200.0,141.0,141.0,1,4.522677183151245,None,,,,,0,0,0,0,0,139,139,105,582.9685328006744,,,,,,,,,,,,,,,,,,,,,,,,,,,,,,,,,,,,,,,,,,,,,,,,,,,,,,,,,,,,,,,,,,,,,,,,,,,,,,,,,200.0,125.0,125.0,200.0,141.0,141.0,3.0,3.2,-258,-282,0,17,266,258,582.9541320800781,582.9541718959808,582.9565057754517,582.9685328006744,583.1188659667969,583.1188659667969,583.1188659667969,583.1188659667969,583.1188659667969,583.1188659667969,583.1188659667969,587.5036585330963,1,4.522677183151245,None,,,,,,,,,,,,,,,,,,100,3,2025-02-24_14h58.42.753,comp,2024.2.4,60.14244438230845,2025-02-24 14h58.58.867663 -0500,
140,140,0,critical,dwh,35.0,3.0,lower,70.0,70.0,57.0,133.0,133.0,57.0,2,11.03671646118164,None,,,,,0,0,0,0,0,140,140,62,587.5185496807098,,,,,,,,,,,,,,,,,,,,,,,,,,,,,,,,,,,,,,,,,,,,,,,,,,,,,,,,,,,,,,,,,,,,,,,,,,,,,,,,,70.0,70.0,57.0,133.0,133.0,57.0,3.0,3.2,-198,-265,0,-11,191,267,587.5044870376587,587.5045306682587,587.5065727233887,587.5185496807098,587.6687569618225,587.6687569618225,587.6687569618225,587.6687569618225,587.6687569618225,587.6687569618225,587.6687569618225,598.569575548172,2,11.03671646118164,None,,,,,,,,,,,,,,,,,,100,3,2025-02-24_14h58.42.753,comp,2024.2.4,60.14244438230845,2025-02-24 14h58.58.867663 -0500,
