thisN,thisTrialN,thisRepN,effect,order,distance,config,diag,h_1,w_1,h_2,w_2,h_3,w_3,rect_choice.keys,rect_choice.rt,rect_choice.duration,instructions_loop.thisRepN,instructions_loop.thisTrialN,instructions_loop.thisN,instructions_loop.thisIndex,blocks.thisRepN,blocks.thisTrialN,blocks.thisN,blocks.thisIndex,trials.thisRepN,trials.thisTrialN,trials.thisN,trials.thisIndex,thisRow.t,notes,consent.started,agree_button.started,decline_button.started,consent_img.started,mouse.started,consent.stopped,agree_button.numClicks,agree_button.timesOn,agree_button.timesOff,decline_button.numClicks,decline_button.timesOn,decline_button.timesOff,mouse.x,mouse.y,mouse.leftButton,mouse.midButton,mouse.rightButton,mouse.time,mouse.clicked_name,exp_params.started,exp_params.stopped,welcome.started,welcome_text.started,welcome.stopped,instructions_1.started,instructions_1_text_1.started,instructions_1_text_2.started,key_resp.started,instructions_1.stopped,instructions_loop.key_resp.keys,instructions_loop.key_resp.rt,instructions_loop.key_resp.duration,instructions_2.started,instructions_2_text_1.started,instructions_2_text_2.started,key_resp_2.started,instructions_2.stopped,instructions_loop.key_resp_2.keys,instructions_loop.key_resp_2.rt,instructions_loop.key_resp_2.duration,instructions_3.started,instructions_3_text_1.started,r1_instr3.started,r2_instr3.started,r3_instr3.started,r1_instr3_label.started,r2_instr3_label.started,r3_instr3_label.started,instructions_3_text_3.started,instructions_3_text_4.started,key_resp_3.started,instructions_3.stopped,instructions_loop.key_resp_3.keys,instructions_loop.key_resp_3.rt,instructions_loop.key_resp_3.duration,instructions_4.started,instructions_4_text_1.started,instructions_4_text_3.started,instructions_4_text_2.started,key_resp_4.started,instructions_4.stopped,instructions_loop.key_resp_4.keys,instructions_loop.key_resp_4.rt,instructions_loop.key_resp_4.duration,instructions_5.started,instructions_5_text_1.started,instructions_5_text_2.started,key_resp_5.started,instructions_5.stopped,instructions_loop.key_resp_5.keys,instructions_loop.key_resp_5.rt,instructions_loop.key_resp_5.duration,start_exp.started,start_exp_text.started,key_resp_6.started,start_exp.stopped,key_resp_6.keys,key_resp_6.rt,key_resp_6.duration,h_1_tmp,w_1_tmp,h_2_tmp,w_2_tmp,h_3_tmp,w_3_tmp,config_tmp,config_tmp_1,r_1_x,r_1_y,r_2_x,r_2_y,r_3_x,r_3_y,pre_trial.started,pre_trial.stopped,choice_trial.started,rect_choice.started,r_1.started,r_2.started,r_3.started,r_1_label.started,r_2_label.started,r_3_label.started,prompt.started,choice_trial.stopped,trials.rect_choice.keys,trials.rect_choice.rt,trials.rect_choice.duration,end_block.started,end_block_text.started,end_block.stopped,end.started,end_text.started,key_resp_7.started,end.stopped,key_resp_7.keys,key_resp_7.rt,key_resp_7.duration,debriefing.started,debrief_form.started,end_debrief.started,debriefing.stopped,end_debrief.keys,end_debrief.rt,end_debrief.duration,participant,computer,date,expName,psychopyVersion,frameRate,expStart,
,,,,,,,,,,,,,,,,,,,,,,,,,,,,,,,0.014372110366821289,0.03721356391906738,0.03721356391906738,0.03721356391906738,0.014136314392089844,39.281147718429565,1,[39.24120759963989],[39.241239070892334],0,,,[-90.0],[-499.0],[1],[0],[0],[39.26633620262146],['agree_button'],,,,,,,,,,,,,,,,,,,,,,,,,,,,,,,,,,,,,,,,,,,,,,,,,,,,,,,,,,,,,,,,,,,,,,,,,,,,,,,,,,,,,,,,,,,,,,,,,,,,,,,,,,,101,4,2025-02-24_14h59.26.954,comp,2024.2.4,55.2216341469837,2025-02-24 14h59.37.612079 -0500,
,,,,,,,,,,,,,,,,,,,,,,,,,,,,,,,,,,,,,,,,,,,,,,,,,,39.28170990943909,39.281777143478394,,,,,,,,,,,,,,,,,,,,,,,,,,,,,,,,,,,,,,,,,,,,,,,,,,,,,,,,,,,,,,,,,,,,,,,,,,,,,,,,,,,,,,,,,,,,,,,,,,,,,,,,,101,4,2025-02-24_14h59.26.954,comp,2024.2.4,55.2216341469837,2025-02-24 14h59.37.612079 -0500,
,,,,,,,,,,,,,,,,,,,,,,,,,,,,,,,,,,,,,,,,,,,,,,,,,,,,39.281821489334106,39.296416997909546,41.28271150588989,,,,,,,,,,,,,,,,,,,,,,,,,,,,,,,,,,,,,,,,,,,,,,,,,,,,,,,,,,,,,,,,,,,,,,,,,,,,,,,,,,,,,,,,,,,,,,,,,,,,,,101,4,2025-02-24_14h59.26.954,comp,2024.2.4,55.2216341469837,2025-02-24 14h59.37.612079 -0500,
0,0,0,,,,,,,,,,,,,,,0,0,0,0,,,,,,,,,41.30354881286621,,,,,,,,,,,,,,,,,,,,,,,,,,41.28357434272766,41.30354881286621,41.30354881286621,42.78177809715271,50.20464897155762,space,7.403634071350098,None,50.20483684539795,50.22034549713135,50.22034549713135,51.70471811294556,63.2076210975647,space,11.49763798713684,None,63.20780348777771,63.24201560020447,63.24201560020447,63.24201560020447,63.24201560020447,63.24201560020447,63.24201560020447,63.24201560020447,63.24201560020447,63.24201560020447,64.71190929412842,70.11600589752197,space,5.393284320831299,None,70.11616086959839,70.13332104682922,70.13332104682922,70.13332104682922,71.62394618988037,80.1142737865448,space,8.481986999511719,None,80.11442375183105,80.13034844398499,80.13034844398499,81.62971353530884,81.8484354019165,space,0.20344901084899902,None,81.84862947463989,81.8635847568512,81.8635847568512,83.04574179649353,space,1.178314447402954,None,,,,,,,,,,,,,,,,,,,,,,,,,,,,,,,,,,,,,,,,,,,,,,,101,4,2025-02-24_14h59.26.954,comp,2024.2.4,55.2216341469837,2025-02-24 14h59.37.612079 -0500,
0,0,0,critical,whd,35.0,2.1,upper,125.0,200.0,200.0,125.0,127.0,127.0,2,5.146371841430664,None,,,,,0,0,0,0,0,0,0,37,83.11884927749634,,,,,,,,,,,,,,,,,,,,,,,,,,,,,,,,,,,,,,,,,,,,,,,,,,,,,,,,,,,,,,,,,,,,,,,,,,,,,,,,,125.0,200.0,200.0,125.0,127.0,127.0,2.1,2.12,-258,-290,0,-270,222,264,83.1028664112091,83.10291075706482,83.10453629493713,83.11884927749634,83.27221012115479,83.27221012115479,83.27221012115479,83.27221012115479,83.27221012115479,83.27221012115479,83.27221012115479,88.28040146827698,2,5.146371841430664,None,,,,,,,,,,,,,,,,,,101,4,2025-02-24_14h59.26.954,comp,2024.2.4,55.2216341469837,2025-02-24 14h59.37.612079 -0500,
1,1,0,critical,dwh,20.0,2.1,lower,78.0,78.0,57.0,133.0,133.0,57.0,3,4.744314908981323,None,,,,,0,0,0,0,0,1,1,6,88.29738807678223,,,,,,,,,,,,,,,,,,,,,,,,,,,,,,,,,,,,,,,,,,,,,,,,,,,,,,,,,,,,,,,,,,,,,,,,,,,,,,,,,78.0,78.0,57.0,133.0,133.0,57.0,2.1,2.12,-202,-289,0,-285,191,281,88.28189253807068,88.28196954727173,88.28489184379578,88.29738807678223,88.43864059448242,88.43864059448242,88.43864059448242,88.43864059448242,88.43864059448242,88.43864059448242,88.43864059448242,93.05051684379578,3,4.744314908981323,None,,,,,,,,,,,,,,,,,,101,4,2025-02-24_14h59.26.954,comp,2024.2.4,55.2216341469837,2025-02-24 14h59.37.612079 -0500,
2,2,0,critical,hdw,20.0,1.0,lower,133.0,57.0,78.0,78.0,57.0,133.0,3,7.246926784515381,None,,,,,0,0,0,0,0,2,2,114,93.06729769706726,,,,,,,,,,,,,,,,,,,,,,,,,,,,,,,,,,,,,,,,,,,,,,,,,,,,,,,,,,,,,,,,,,,,,,,,,,,,,,,,,133.0,57.0,78.0,78.0,57.0,133.0,1.0,1.2,-164,5,0,-1,202,-12,93.05199599266052,93.0520715713501,93.05508303642273,93.06729769706726,93.21880292892456,93.21880292892456,93.21880292892456,93.21880292892456,93.21880292892456,93.21880292892456,93.21880292892456,100.3204414844513,3,7.246926784515381,None,,,,,,,,,,,,,,,,,,101,4,2025-02-24_14h59.26.954,comp,2024.2.4,55.2216341469837,2025-02-24 14h59.37.612079 -0500,
3,3,0,filler_square,None,None,None,None,None,None,None,None,None,None,2,5.096868515014648,None,,,,,0,0,0,0,0,3,3,179,100.33645057678223,,,,,,,,,,,,,,,,,,,,,,,,,,,,,,,,,,,,,,,,,,,,,,,,,,,,,,,,,,,,,,,,,,,,,,,,,,,,,,,,,66.47843985864147,57.73825017792302,67.50084957921389,67.50084957921389,61.22165358651783,57.58773994964728,2.1,2.12,-159,-251,0,-258,159,272,100.32228374481201,100.32236099243164,100.32574510574341,100.33645057678223,100.4845826625824,100.4845826625824,100.4845826625824,100.4845826625824,100.4845826625824,100.4845826625824,100.4845826625824,105.43950271606445,2,5.096868515014648,None,,,,,,,,,,,,,,,,,,101,4,2025-02-24_14h59.26.954,comp,2024.2.4,55.2216341469837,2025-02-24 14h59.37.612079 -0500,
4,4,0,filler_random,None,None,None,None,None,None,None,None,None,None,1,3.2929611206054688,None,,,,,0,0,0,0,0,4,4,139,105.46017408370972,,,,,,,,,,,,,,,,,,,,,,,,,,,,,,,,,,,,,,,,,,,,,,,,,,,,,,,,,,,,,,,,,,,,,,,,,,,,,,,,,185.49428142315531,102.0584622803358,95.45475798276036,187.55912841661777,78.0382348250754,100.7217674284423,2.1,2.12,-241,-268,0,-279,240,252,105.44117045402527,105.44124484062195,105.4443895816803,105.46017408370972,105.6091091632843,105.6091091632843,105.6091091632843,105.6091091632843,105.6091091632843,105.6091091632843,105.6091091632843,108.75629186630249,1,3.2929611206054688,None,,,,,,,,,,,,,,,,,,101,4,2025-02-24_14h59.26.954,comp,2024.2.4,55.2216341469837,2025-02-24 14h59.37.612079 -0500,
5,5,0,critical,hwd,20.0,2.1,lower,133.0,57.0,57.0,133.0,78.0,78.0,2,6.989141941070557,None,,,,,0,0,0,0,0,5,5,42,108.77213835716248,,,,,,,,,,,,,,,,,,,,,,,,,,,,,,,,,,,,,,,,,,,,,,,,,,,,,,,,,,,,,,,,,,,,,,,,,,,,,,,,,133.0,57.0,57.0,133.0,78.0,78.0,2.1,2.11,-191,255,0,253,202,-277,108.75786137580872,108.75793719291687,108.76131892204285,108.77213835716248,108.92325639724731,108.92325639724731,108.92325639724731,108.92325639724731,108.92325639724731,108.92325639724731,108.92325639724731,115.76473236083984,2,6.989141941070557,None,,,,,,,,,,,,,,,,,,101,4,2025-02-24_14h59.26.954,comp,2024.2.4,55.2216341469837,2025-02-24 14h59.37.612079 -0500,
6,6,0,critical,dhw,35.0,2.1,lower,70.0,70.0,133.0,57.0,57.0,133.0,3,12.12098741531372,None,,,,,0,0,0,0,0,6,6,24,115.78417468070984,,,,,,,,,,,,,,,,,,,,,,,,,,,,,,,,,,,,,,,,,,,,,,,,,,,,,,,,,,,,,,,,,,,,,,,,,,,,,,,,,70.0,70.0,133.0,57.0,57.0,133.0,2.1,2.12,-160,-286,0,-277,191,260,115.76620817184448,115.766282081604,115.76917123794556,115.78417468070984,115.9259922504425,115.9259922504425,115.9259922504425,115.9259922504425,115.9259922504425,115.9259922504425,115.9259922504425,127.91602826118469,3,12.12098741531372,None,,,,,,,,,,,,,,,,,,101,4,2025-02-24_14h59.26.954,comp,2024.2.4,55.2216341469837,2025-02-24 14h59.37.612079 -0500,
7,7,0,critical,dhw,35.0,2.1,lower,70.0,70.0,133.0,57.0,57.0,133.0,3,1.9818260669708252,None,,,,,0,0,0,0,0,7,7,0,127.93139910697937,,,,,,,,,,,,,,,,,,,,,,,,,,,,,,,,,,,,,,,,,,,,,,,,,,,,,,,,,,,,,,,,,,,,,,,,,,,,,,,,,70.0,70.0,133.0,57.0,57.0,133.0,2.1,2.11,-160,251,0,257,191,-281,127.91764426231384,127.91777348518372,127.92073678970337,127.93139910697937,128.0701334476471,128.0701334476471,128.0701334476471,128.0701334476471,128.0701334476471,128.0701334476471,128.0701334476471,129.92834210395813,3,1.9818260669708252,None,,,,,,,,,,,,,,,,,,101,4,2025-02-24_14h59.26.954,comp,2024.2.4,55.2216341469837,2025-02-24 14h59.37.612079 -0500,
8,8,0,catch,None,None,None,None,None,None,None,None,None,None,2,2.097229242324829,None,,,,,0,0,0,0,0,8,8,124,129.94431352615356,,,,,,,,,,,,,,,,,,,,,,,,,,,,,,,,,,,,,,,,,,,,,,,,,,,,,,,,,,,,,,,,,,,,,,,,,,,,,,,,,116,74,148,177,97,93,2.2,2.21,-222,-281,0,284,231,264,129.93026399612427,129.93033957481384,129.93345260620117,129.94431352615356,130.09500360488892,130.09500360488892,130.09500360488892,130.09500360488892,130.09500360488892,130.09500360488892,130.09500360488892,132.0474693775177,2,2.097229242324829,None,,,,,,,,,,,,,,,,,,101,4,2025-02-24_14h59.26.954,comp,2024.2.4,55.2216341469837,2025-02-24 14h59.37.612079 -0500,
9,9,0,critical,hwd,35.0,3.0,upper,200.0,125.0,125.0,200.0,127.0,127.0,2,21.056243896484375,None,,,,,0,0,0,0,0,9,9,99,132.0729374885559,,,,,,,,,,,,,,,,,,,,,,,,,,,,,,,,,,,,,,,,,,,,,,,,,,,,,,,,,,,,,,,,,,,,,,,,,,,,,,,,,200.0,125.0,125.0,200.0,127.0,127.0,3.0,3.2,-258,-265,0,13,260,273,132.04905080795288,132.0491271018982,132.05244088172913,132.0729374885559,132.21458053588867,132.21458053588867,132.21458053588867,132.21458053588867,132.21458053588867,132.21458053588867,132.21458053588867,153.14412593841553,2,21.056243896484375,None,,,,,,,,,,,,,,,,,,101,4,2025-02-24_14h59.26.954,comp,2024.2.4,55.2216341469837,2025-02-24 14h59.37.612079 -0500,
10,10,0,filler_random,None,None,None,None,None,None,None,None,None,None,2,3.703235626220703,None,,,,,0,0,0,0,0,10,10,147,153.16255116462708,,,,,,,,,,,,,,,,,,,,,,,,,,,,,,,,,,,,,,,,,,,,,,,,,,,,,,,,,,,,,,,,,,,,,,,,,,,,,,,,,69.97166057176263,109.39692793359436,144.12823583666545,107.09835486548451,88.73003955588916,84.42822646059324,2.2,2.22,-204,283,0,-263,192,-287,153.1458878517151,153.1460199356079,153.1492838859558,153.16255116462708,153.3060429096222,153.3060429096222,153.3060429096222,153.3060429096222,153.3060429096222,153.3060429096222,153.3060429096222,156.87174201011658,2,3.703235626220703,None,,,,,,,,,,,,,,,,,,101,4,2025-02-24_14h59.26.954,comp,2024.2.4,55.2216341469837,2025-02-24 14h59.37.612079 -0500,
11,11,0,critical,hdw,35.0,1.0,upper,200.0,125.0,127.0,127.0,125.0,200.0,1,3.3775930404663086,None,,,,,0,0,0,0,0,11,11,109,156.88751339912415,,,,,,,,,,,,,,,,,,,,,,,,,,,,,,,,,,,,,,,,,,,,,,,,,,,,,,,,,,,,,,,,,,,,,,,,,,,,,,,,,200.0,125.0,127.0,127.0,125.0,200.0,1.0,1.1,-702,256,-480,270,-220,271,156.87329077720642,156.87336707115173,156.87660765647888,156.88751339912415,157.0284824371338,157.0284824371338,157.0284824371338,157.0284824371338,157.0284824371338,157.0284824371338,157.0284824371338,160.27949380874634,1,3.3775930404663086,None,,,,,,,,,,,,,,,,,,101,4,2025-02-24_14h59.26.954,comp,2024.2.4,55.2216341469837,2025-02-24 14h59.37.612079 -0500,
12,12,0,critical,hwd,20.0,3.0,lower,133.0,57.0,57.0,133.0,78.0,78.0,2,3.9344029426574707,None,,,,,0,0,0,0,0,12,12,104,160.2988109588623,,,,,,,,,,,,,,,,,,,,,,,,,,,,,,,,,,,,,,,,,,,,,,,,,,,,,,,,,,,,,,,,,,,,,,,,,,,,,,,,,133.0,57.0,57.0,133.0,78.0,78.0,3.0,3.2,-191,-288,0,1,202,264,160.28110480308533,160.28118133544922,160.28441667556763,160.2988109588623,160.4395296573639,160.4395296573639,160.4395296573639,160.4395296573639,160.4395296573639,160.4395296573639,160.4395296573639,164.24275922775269,2,3.9344029426574707,None,,,,,,,,,,,,,,,,,,101,4,2025-02-24_14h59.26.954,comp,2024.2.4,55.2216341469837,2025-02-24 14h59.37.612079 -0500,
13,13,0,critical,dhw,20.0,4.0,upper,141.0,141.0,200.0,125.0,125.0,200.0,3,14.910602807998657,None,,,,,0,0,0,0,0,13,13,59,164.25880479812622,,,,,,,,,,,,,,,,,,,,,,,,,,,,,,,,,,,,,,,,,,,,,,,,,,,,,,,,,,,,,,,,,,,,,,,,,,,,,,,,,141.0,141.0,200.0,125.0,125.0,200.0,4.0,4.1,-229,-251,0,3,258,-273,164.24443411827087,164.24455738067627,164.24799489974976,164.25880479812622,164.4079990386963,164.4079990386963,164.4079990386963,164.4079990386963,164.4079990386963,164.4079990386963,164.4079990386963,179.18325328826904,3,14.910602807998657,None,,,,,,,,,,,,,,,,,,101,4,2025-02-24_14h59.26.954,comp,2024.2.4,55.2216341469837,2025-02-24 14h59.37.612079 -0500,
14,14,0,critical,whd,35.0,4.0,lower,57.0,133.0,133.0,57.0,70.0,70.0,1,10.583892345428467,None,,,,,0,0,0,0,0,14,14,88,179.2013862133026,,,,,,,,,,,,,,,,,,,,,,,,,,,,,,,,,,,,,,,,,,,,,,,,,,,,,,,,,,,,,,,,,,,,,,,,,,,,,,,,,57.0,133.0,133.0,57.0,70.0,70.0,4.0,4.1,-191,-263,0,9,160,-268,179.18484902381897,179.1849284172058,179.18826365470886,179.2013862133026,179.34568047523499,179.34568047523499,179.34568047523499,179.34568047523499,179.34568047523499,179.34568047523499,179.34568047523499,189.7982566356659,1,10.583892345428467,None,,,,,,,,,,,,,,,,,,101,4,2025-02-24_14h59.26.954,comp,2024.2.4,55.2216341469837,2025-02-24 14h59.37.612079 -0500,
15,15,0,critical,whd,20.0,2.1,upper,125.0,200.0,200.0,125.0,141.0,141.0,1,12.209346532821655,None,,,,,0,0,0,0,0,15,15,39,189.8165249824524,,,,,,,,,,,,,,,,,,,,,,,,,,,,,,,,,,,,,,,,,,,,,,,,,,,,,,,,,,,,,,,,,,,,,,,,,,,,,,,,,125.0,200.0,200.0,125.0,141.0,141.0,2.1,2.11,-258,264,0,271,229,-283,189.7997546195984,189.79983282089233,189.80281448364258,189.8165249824524,189.96534037590027,189.96534037590027,189.96534037590027,189.96534037590027,189.96534037590027,189.96534037590027,189.96534037590027,202.03080201148987,1,12.209346532821655,None,,,,,,,,,,,,,,,,,,101,4,2025-02-24_14h59.26.954,comp,2024.2.4,55.2216341469837,2025-02-24 14h59.37.612079 -0500,
16,16,0,critical,dwh,35.0,2.1,upper,127.0,127.0,125.0,200.0,200.0,125.0,2,6.099098443984985,None,,,,,0,0,0,0,0,16,16,29,202.0469262599945,,,,,,,,,,,,,,,,,,,,,,,,,,,,,,,,,,,,,,,,,,,,,,,,,,,,,,,,,,,,,,,,,,,,,,,,,,,,,,,,,127.0,127.0,125.0,200.0,200.0,125.0,2.1,2.12,-260,-280,0,-262,258,270,202.03238606452942,202.03246116638184,202.03577589988708,202.0469262599945,202.18824005126953,202.18824005126953,202.18824005126953,202.18824005126953,202.18824005126953,202.18824005126953,202.18824005126953,208.1529939174652,2,6.099098443984985,None,,,,,,,,,,,,,,,,,,101,4,2025-02-24_14h59.26.954,comp,2024.2.4,55.2216341469837,2025-02-24 14h59.37.612079 -0500,
17,17,0,filler_random,None,None,None,None,None,None,None,None,None,None,3,7.528247117996216,None,,,,,0,0,0,0,0,17,17,166,208.1696493625641,,,,,,,,,,,,,,,,,,,,,,,,,,,,,,,,,,,,,,,,,,,,,,,,,,,,,,,,,,,,,,,,,,,,,,,,,,,,,,,,,178.23486511651402,59.15825737744233,59.280036234939644,76.14796847334931,67.3660340705082,173.89992114372723,3.0,3.2,-164,-277,0,4,221,281,208.1547248363495,208.15480518341064,208.1579566001892,208.1696493625641,208.31729006767273,208.31729006767273,208.31729006767273,208.31729006767273,208.31729006767273,208.31729006767273,208.31729006767273,215.7067313194275,3,7.528247117996216,None,,,,,,,,,,,,,,,,,,101,4,2025-02-24_14h59.26.954,comp,2024.2.4,55.2216341469837,2025-02-24 14h59.37.612079 -0500,
18,18,0,catch,None,None,None,None,None,None,None,None,None,None,2,2.133812427520752,None,,,,,0,0,0,0,0,18,18,121,215.72354316711426,,,,,,,,,,,,,,,,,,,,,,,,,,,,,,,,,,,,,,,,,,,,,,,,,,,,,,,,,,,,,,,,,,,,,,,,,,,,,,,,,83,107,197,128,130,60,3.0,3.1,-214,271,0,16,190,-261,215.7086100578308,215.70874214172363,215.7128508090973,215.72354316711426,215.8733081817627,215.8733081817627,215.8733081817627,215.8733081817627,215.8733081817627,215.8733081817627,215.8733081817627,217.87443161010742,2,2.133812427520752,None,,,,,,,,,,,,,,,,,,101,4,2025-02-24_14h59.26.954,comp,2024.2.4,55.2216341469837,2025-02-24 14h59.37.612079 -0500,
19,19,0,filler_square,None,None,None,None,None,None,None,None,None,None,3,11.622687578201294,None,,,,,0,0,0,0,0,19,19,203,217.89057779312134,,,,,,,,,,,,,,,,,,,,,,,,,,,,,,,,,,,,,,,,,,,,,,,,,,,,,,,,,,,,,,,,,,,,,,,,,,,,,,,,,62.845278838936096,64.43189856216014,57.57726308766009,62.97333690725978,67.72956480812857,67.72956480812857,1.0,1.2,-160,-16,0,17,161,-17,217.8761396408081,217.87621569633484,217.88029170036316,217.89057779312134,218.04046964645386,218.04046964645386,218.04046964645386,218.04046964645386,218.04046964645386,218.04046964645386,218.04046964645386,229.5269923210144,3,11.622687578201294,None,,,,,,,,,,,,,,,,,,101,4,2025-02-24_14h59.26.954,comp,2024.2.4,55.2216341469837,2025-02-24 14h59.37.612079 -0500,
20,20,0,critical,hwd,35.0,4.0,upper,200.0,125.0,125.0,200.0,127.0,127.0,2,7.04038405418396,None,,,,,0,0,0,0,0,20,20,101,229.5448739528656,,,,,,,,,,,,,,,,,,,,,,,,,,,,,,,,,,,,,,,,,,,,,,,,,,,,,,,,,,,,,,,,,,,,,,,,,,,,,,,,,200.0,125.0,125.0,200.0,127.0,127.0,4.0,4.1,-258,-275,0,15,260,-275,229.5284194946289,229.5284948348999,229.53170943260193,229.5448739528656,229.69403100013733,229.69403100013733,229.69403100013733,229.69403100013733,229.69403100013733,229.69403100013733,229.69403100013733,236.59817266464233,2,7.04038405418396,None,,,,,,,,,,,,,,,,,,101,4,2025-02-24_14h59.26.954,comp,2024.2.4,55.2216341469837,2025-02-24 14h59.37.612079 -0500,
21,21,0,filler_square,None,None,None,None,None,None,None,None,None,None,1,4.8659889698028564,None,,,,,0,0,0,0,0,21,21,209,236.61537957191467,,,,,,,,,,,,,,,,,,,,,,,,,,,,,,,,,,,,,,,,,,,,,,,,,,,,,,,,,,,,,,,,,,,,,,,,,,,,,,,,,172.69909278732544,172.69909278732544,172.5030770928007,162.92290577731512,93.13621158304736,135.45982115194084,1.0,1.1,-744,260,-480,266,-235,262,236.60019636154175,236.6002757549286,236.6036343574524,236.61537957191467,236.76340079307556,236.76340079307556,236.76340079307556,236.76340079307556,236.76340079307556,236.76340079307556,236.76340079307556,241.49816012382507,1,4.8659889698028564,None,,,,,,,,,,,,,,,,,,101,4,2025-02-24_14h59.26.954,comp,2024.2.4,55.2216341469837,2025-02-24 14h59.37.612079 -0500,
22,22,0,filler_square,None,None,None,None,None,None,None,None,None,None,2,2.223906993865967,None,,,,,0,0,0,0,0,22,22,187,241.5142059326172,,,,,,,,,,,,,,,,,,,,,,,,,,,,,,,,,,,,,,,,,,,,,,,,,,,,,,,,,,,,,,,,,,,,,,,,,,,,,,,,,72.10546714812905,108.3893843143639,166.3790639805444,166.3790639805444,157.8157032437003,87.12089026445476,4.0,4.1,-233,-271,0,1,223,-280,241.49999380111694,241.5000696182251,241.503178358078,241.5142059326172,241.66425228118896,241.66425228118896,241.66425228118896,241.66425228118896,241.66425228118896,241.66425228118896,241.66425228118896,243.74908804893494,2,2.223906993865967,None,,,,,,,,,,,,,,,,,,101,4,2025-02-24_14h59.26.954,comp,2024.2.4,55.2216341469837,2025-02-24 14h59.37.612079 -0500,
23,23,0,filler_random,None,None,None,None,None,None,None,None,None,None,1,3.0036797523498535,None,,,,,0,0,0,0,0,23,23,156,243.76572108268738,,,,,,,,,,,,,,,,,,,,,,,,,,,,,,,,,,,,,,,,,,,,,,,,,,,,,,,,,,,,,,,,,,,,,,,,,,,,,,,,,168.26374039899952,133.92475120767904,157.42682728245342,71.14943345386,84.97842666754687,81.12619108045249,2.2,2.21,-199,-276,0,274,172,255,243.75073075294495,243.7508246898651,243.75488710403442,243.76572108268738,243.91682863235474,243.91682863235474,243.91682863235474,243.91682863235474,243.91682863235474,243.91682863235474,243.91682863235474,246.78293132781982,1,3.0036797523498535,None,,,,,,,,,,,,,,,,,,101,4,2025-02-24_14h59.26.954,comp,2024.2.4,55.2216341469837,2025-02-24 14h59.37.612079 -0500,
24,24,0,filler_square,None,None,None,None,None,None,None,None,None,None,3,13.210137128829956,None,,,,,0,0,0,0,0,24,24,176,246.79916095733643,,,,,,,,,,,,,,,,,,,,,,,,,,,,,,,,,,,,,,,,,,,,,,,,,,,,,,,,,,,,,,,,,,,,,,,,,,,,,,,,,66.2564819427197,60.49061826872545,59.453843678818544,62.084965304836395,66.67308952942602,66.67308952942602,2.1,2.11,-157,265,0,251,160,-271,246.7847990989685,246.78487610816956,246.78892016410828,246.79916095733643,246.94994044303894,246.94994044303894,246.94994044303894,246.94994044303894,246.94994044303894,246.94994044303894,246.94994044303894,260.0195646286011,3,13.210137128829956,None,,,,,,,,,,,,,,,,,,101,4,2025-02-24_14h59.26.954,comp,2024.2.4,55.2216341469837,2025-02-24 14h59.37.612079 -0500,
25,25,0,critical,dwh,35.0,2.1,lower,70.0,70.0,57.0,133.0,133.0,57.0,2,6.635664701461792,None,,,,,0,0,0,0,0,25,25,28,260.03774857521057,,,,,,,,,,,,,,,,,,,,,,,,,,,,,,,,,,,,,,,,,,,,,,,,,,,,,,,,,,,,,,,,,,,,,,,,,,,,,,,,,70.0,70.0,57.0,133.0,133.0,57.0,2.1,2.11,-198,274,0,252,191,-250,260.0211749076843,260.02125239372253,260.0245997905731,260.03774857521057,260.1880156993866,260.1880156993866,260.1880156993866,260.1880156993866,260.1880156993866,260.1880156993866,260.1880156993866,266.69424176216125,2,6.635664701461792,None,,,,,,,,,,,,,,,,,,101,4,2025-02-24_14h59.26.954,comp,2024.2.4,55.2216341469837,2025-02-24 14h59.37.612079 -0500,
26,26,0,filler_square,None,None,None,None,None,None,None,None,None,None,3,2.0551111698150635,None,,,,,0,0,0,0,0,26,26,175,266.71422052383423,,,,,,,,,,,,,,,,,,,,,,,,,,,,,,,,,,,,,,,,,,,,,,,,,,,,,,,,,,,,,,,,,,,,,,,,,,,,,,,,,107.51182612152749,116.8162113252528,84.89619069163716,58.367077709626486,154.29428074215707,154.29428074215707,3.0,3.2,-184,-281,0,8,202,269,266.69605445861816,266.6961290836334,266.69901752471924,266.71422052383423,266.85514402389526,266.85514402389526,266.85514402389526,266.85514402389526,266.85514402389526,266.85514402389526,266.85514402389526,268.7788462638855,3,2.0551111698150635,None,,,,,,,,,,,,,,,,,,101,4,2025-02-24_14h59.26.954,comp,2024.2.4,55.2216341469837,2025-02-24 14h59.37.612079 -0500,
27,27,0,filler_square,None,None,None,None,None,None,None,None,None,None,2,2.2144289016723633,None,,,,,0,0,0,0,0,27,27,208,268.7948970794678,,,,,,,,,,,,,,,,,,,,,,,,,,,,,,,,,,,,,,,,,,,,,,,,,,,,,,,,,,,,,,,,,,,,,,,,,,,,,,,,,155.58602444222396,115.666917418813,157.92506487353825,157.92506487353825,74.93190666356,124.70985035828502,1.0,1.2,-233,19,0,-14,237,-20,268.7804913520813,268.78056812286377,268.78345346450806,268.7948970794678,268.9407525062561,268.9407525062561,268.9407525062561,268.9407525062561,268.9407525062561,268.9407525062561,268.9407525062561,271.02938771247864,2,2.2144289016723633,None,,,,,,,,,,,,,,,,,,101,4,2025-02-24_14h59.26.954,comp,2024.2.4,55.2216341469837,2025-02-24 14h59.37.612079 -0500,
28,28,0,critical,hwd,20.0,1.0,upper,200.0,125.0,125.0,200.0,141.0,141.0,1,4.840423107147217,None,,,,,0,0,0,0,0,28,28,103,271.04916048049927,,,,,,,,,,,,,,,,,,,,,,,,,,,,,,,,,,,,,,,,,,,,,,,,,,,,,,,,,,,,,,,,,,,,,,,,,,,,,,,,,200.0,125.0,125.0,200.0,141.0,141.0,1.0,1.3,222,-254,480,-279,746,-260,271.03090834617615,271.03098320961,271.0339443683624,271.04916048049927,271.192186832428,271.192186832428,271.192186832428,271.192186832428,271.192186832428,271.192186832428,271.192186832428,275.8919334411621,1,4.840423107147217,None,,,,,,,,,,,,,,,,,,101,4,2025-02-24_14h59.26.954,comp,2024.2.4,55.2216341469837,2025-02-24 14h59.37.612079 -0500,
29,29,0,critical,hwd,35.0,3.0,lower,133.0,57.0,57.0,133.0,70.0,70.0,2,3.9894869327545166,None,,,,,0,0,0,0,0,29,29,98,275.9087324142456,,,,,,,,,,,,,,,,,,,,,,,,,,,,,,,,,,,,,,,,,,,,,,,,,,,,,,,,,,,,,,,,,,,,,,,,,,,,,,,,,133.0,57.0,57.0,133.0,70.0,70.0,3.0,3.1,-191,253,0,-8,198,-275,275.8935179710388,275.8935945034027,275.89701676368713,275.9087324142456,276.06077313423157,276.06077313423157,276.06077313423157,276.06077313423157,276.06077313423157,276.06077313423157,276.06077313423157,279.91343569755554,2,3.9894869327545166,None,,,,,,,,,,,,,,,,,,101,4,2025-02-24_14h59.26.954,comp,2024.2.4,55.2216341469837,2025-02-24 14h59.37.612079 -0500,
30,30,0,critical,wdh,35.0,3.0,lower,57.0,133.0,70.0,70.0,133.0,57.0,3,9.36015796661377,None,,,,,0,0,0,0,0,30,30,74,279.929744720459,,,,,,,,,,,,,,,,,,,,,,,,,,,,,,,,,,,,,,,,,,,,,,,,,,,,,,,,,,,,,,,,,,,,,,,,,,,,,,,,,57.0,133.0,70.0,70.0,133.0,57.0,3.0,3.1,-198,279,0,-8,160,-282,279.9151268005371,279.9152293205261,279.91850066185,279.929744720459,280.07535314559937,280.07535314559937,280.07535314559937,280.07535314559937,280.07535314559937,280.07535314559937,280.07535314559937,289.29543685913086,3,9.36015796661377,None,,,,,,,,,,,,,,,,,,101,4,2025-02-24_14h59.26.954,comp,2024.2.4,55.2216341469837,2025-02-24 14h59.37.612079 -0500,
31,31,0,catch,None,None,None,None,None,None,None,None,None,None,2,1.3952326774597168,None,,,,,0,0,0,0,0,31,31,128,289.31818294525146,,,,,,,,,,,,,,,,,,,,,,,,,,,,,,,,,,,,,,,,,,,,,,,,,,,,,,,,,,,,,,,,,,,,,,,,,,,,,,,,,65,125,189,136,112,78,1.0,1.1,-706,279,-480,266,-277,275,289.29750204086304,289.2975797653198,289.3008306026459,289.31818294525146,289.46375489234924,289.46375489234924,289.46375489234924,289.46375489234924,289.46375489234924,289.46375489234924,289.46375489234924,290.73103857040405,2,1.3952326774597168,None,,,,,,,,,,,,,,,,,,101,4,2025-02-24_14h59.26.954,comp,2024.2.4,55.2216341469837,2025-02-24 14h59.37.612079 -0500,
32,32,0,filler_square,None,None,None,None,None,None,None,None,None,None,3,2.0126945972442627,None,,,,,0,0,0,0,0,32,32,172,290.74862575531006,,,,,,,,,,,,,,,,,,,,,,,,,,,,,,,,,,,,,,,,,,,,,,,,,,,,,,,,,,,,,,,,,,,,,,,,,,,,,,,,,101.67344120047659,127.67361881047083,150.80224180636642,60.79557194051377,164.6735490891869,164.6735490891869,1.0,1.1,-670,253,-480,267,-271,287,290.73284578323364,290.73292207717896,290.7360243797302,290.74862575531006,290.8968906402588,290.8968906402588,290.8968906402588,290.8968906402588,290.8968906402588,290.8968906402588,290.8968906402588,292.76388669013977,3,2.0126945972442627,None,,,,,,,,,,,,,,,,,,101,4,2025-02-24_14h59.26.954,comp,2024.2.4,55.2216341469837,2025-02-24 14h59.37.612079 -0500,
33,33,0,critical,hdw,20.0,2.1,lower,133.0,57.0,78.0,78.0,57.0,133.0,3,8.285858631134033,None,,,,,0,0,0,0,0,33,33,22,292.77965021133423,,,,,,,,,,,,,,,,,,,,,,,,,,,,,,,,,,,,,,,,,,,,,,,,,,,,,,,,,,,,,,,,,,,,,,,,,,,,,,,,,133.0,57.0,78.0,78.0,57.0,133.0,2.1,2.11,-164,252,0,261,202,-261,292.76543283462524,292.76551151275635,292.7689280509949,292.77965021133423,292.9330065250397,292.9330065250397,292.9330065250397,292.9330065250397,292.9330065250397,292.9330065250397,292.9330065250397,301.0676374435425,3,8.285858631134033,None,,,,,,,,,,,,,,,,,,101,4,2025-02-24_14h59.26.954,comp,2024.2.4,55.2216341469837,2025-02-24 14h59.37.612079 -0500,
34,34,0,filler_random,None,None,None,None,None,None,None,None,None,None,3,5.935947895050049,None,,,,,0,0,0,0,0,34,34,136,301.08938455581665,,,,,,,,,,,,,,,,,,,,,,,,,,,,,,,,,,,,,,,,,,,,,,,,,,,,,,,,,,,,,,,,,,,,,,,,,,,,,,,,,66.9915604507552,70.37290986026593,179.83679775948934,99.73515255854227,160.7370238855678,117.26711075814256,3.0,3.2,-181,-280,0,8,205,285,301.0694043636322,301.0695376396179,301.07290410995483,301.08938455581665,301.2332775592804,301.2332775592804,301.2332775592804,301.2332775592804,301.2332775592804,301.2332775592804,301.2332775592804,307.0348560810089,3,5.935947895050049,None,,,,,,,,,,,,,,,,,,101,4,2025-02-24_14h59.26.954,comp,2024.2.4,55.2216341469837,2025-02-24 14h59.37.612079 -0500,
35,35,0,critical,hwd,35.0,2.1,lower,133.0,57.0,57.0,133.0,70.0,70.0,2,8.342858076095581,None,,,,,0,0,0,0,0,35,35,16,307.0505802631378,,,,,,,,,,,,,,,,,,,,,,,,,,,,,,,,,,,,,,,,,,,,,,,,,,,,,,,,,,,,,,,,,,,,,,,,,,,,,,,,,133.0,57.0,57.0,133.0,70.0,70.0,2.1,2.12,-191,-277,0,-261,198,264,307.0364103317261,307.03648805618286,307.03990030288696,307.0505802631378,307.20114827156067,307.20114827156067,307.20114827156067,307.20114827156067,307.20114827156067,307.20114827156067,307.20114827156067,315.40348052978516,2,8.342858076095581,None,,,,,,,,,,,,,,,,,,101,4,2025-02-24_14h59.26.954,comp,2024.2.4,55.2216341469837,2025-02-24 14h59.37.612079 -0500,
36,36,0,critical,whd,20.0,3.0,lower,57.0,133.0,133.0,57.0,78.0,78.0,1,5.1255223751068115,None,,,,,0,0,0,0,0,36,36,92,315.4199092388153,,,,,,,,,,,,,,,,,,,,,,,,,,,,,,,,,,,,,,,,,,,,,,,,,,,,,,,,,,,,,,,,,,,,,,,,,,,,,,,,,57.0,133.0,133.0,57.0,78.0,78.0,3.0,3.1,-191,261,0,5,164,-265,315.40501260757446,315.40509152412415,315.4082758426666,315.4199092388153,315.55975461006165,315.55975461006165,315.55975461006165,315.55975461006165,315.55975461006165,315.55975461006165,315.55975461006165,320.5558431148529,1,5.1255223751068115,None,,,,,,,,,,,,,,,,,,101,4,2025-02-24_14h59.26.954,comp,2024.2.4,55.2216341469837,2025-02-24 14h59.37.612079 -0500,
37,37,0,critical,hdw,35.0,3.0,lower,133.0,57.0,70.0,70.0,57.0,133.0,3,11.48427152633667,None,,,,,0,0,0,0,0,37,37,110,320.57299733161926,,,,,,,,,,,,,,,,,,,,,,,,,,,,,,,,,,,,,,,,,,,,,,,,,,,,,,,,,,,,,,,,,,,,,,,,,,,,,,,,,133.0,57.0,70.0,70.0,57.0,133.0,3.0,3.2,-160,-284,0,-11,198,262,320.5575087070465,320.55762672424316,320.56131887435913,320.57299733161926,320.72272086143494,320.72272086143494,320.72272086143494,320.72272086143494,320.72272086143494,320.72272086143494,320.72272086143494,332.05956983566284,3,11.48427152633667,None,,,,,,,,,,,,,,,,,,101,4,2025-02-24_14h59.26.954,comp,2024.2.4,55.2216341469837,2025-02-24 14h59.37.612079 -0500,
38,38,0,critical,dhw,35.0,3.0,lower,70.0,70.0,133.0,57.0,57.0,133.0,2,4.983040809631348,None,,,,,0,0,0,0,0,38,38,50,332.0752708911896,,,,,,,,,,,,,,,,,,,,,,,,,,,,,,,,,,,,,,,,,,,,,,,,,,,,,,,,,,,,,,,,,,,,,,,,,,,,,,,,,70.0,70.0,133.0,57.0,57.0,133.0,3.0,3.2,-160,-259,0,1,191,256,332.0610718727112,332.06114959716797,332.0645442008972,332.0752708911896,332.226619720459,332.226619720459,332.226619720459,332.226619720459,332.226619720459,332.226619720459,332.226619720459,337.0611252784729,2,4.983040809631348,None,,,,,,,,,,,,,,,,,,101,4,2025-02-24_14h59.26.954,comp,2024.2.4,55.2216341469837,2025-02-24 14h59.37.612079 -0500,
39,39,0,critical,wdh,35.0,2.1,upper,125.0,200.0,127.0,127.0,200.0,125.0,1,10.707788467407227,None,,,,,0,0,0,0,0,39,39,33,337.07768082618713,,,,,,,,,,,,,,,,,,,,,,,,,,,,,,,,,,,,,,,,,,,,,,,,,,,,,,,,,,,,,,,,,,,,,,,,,,,,,,,,,125.0,200.0,127.0,127.0,200.0,125.0,2.1,2.12,-260,-257,0,-282,222,266,337.06277441978455,337.0628924369812,337.066367149353,337.07768082618713,337.2331509590149,337.2331509590149,337.2331509590149,337.2331509590149,337.2331509590149,337.2331509590149,337.2331509590149,347.79921531677246,1,10.707788467407227,None,,,,,,,,,,,,,,,,,,101,4,2025-02-24_14h59.26.954,comp,2024.2.4,55.2216341469837,2025-02-24 14h59.37.612079 -0500,
40,40,0,critical,hdw,35.0,4.0,upper,200.0,125.0,127.0,127.0,125.0,200.0,1,2.979407787322998,None,,,,,0,0,0,0,0,40,40,113,347.81451439857483,,,,,,,,,,,,,,,,,,,,,,,,,,,,,,,,,,,,,,,,,,,,,,,,,,,,,,,,,,,,,,,,,,,,,,,,,,,,,,,,,200.0,125.0,127.0,127.0,125.0,200.0,4.0,4.1,-222,-290,0,3,260,-275,347.8008146286011,347.8008906841278,347.80420756340027,347.81451439857483,347.9744653701782,347.9744653701782,347.9744653701782,347.9744653701782,347.9744653701782,347.9744653701782,347.9744653701782,350.80254435539246,1,2.979407787322998,None,,,,,,,,,,,,,,,,,,101,4,2025-02-24_14h59.26.954,comp,2024.2.4,55.2216341469837,2025-02-24 14h59.37.612079 -0500,
41,41,0,filler_square,None,None,None,None,None,None,None,None,None,None,3,6.1475989818573,None,,,,,0,0,0,0,0,41,41,182,350.8221101760864,,,,,,,,,,,,,,,,,,,,,,,,,,,,,,,,,,,,,,,,,,,,,,,,,,,,,,,,,,,,,,,,,,,,,,,,,,,,,,,,,129.35541195731378,127.2531652109236,147.09425728719822,96.91457458656944,150.85289986401995,150.85289986401995,3.0,3.1,-208,288,0,-4,220,-284,350.80458426475525,350.8046963214874,350.80800342559814,350.8221101760864,350.96668338775635,350.96668338775635,350.96668338775635,350.96668338775635,350.96668338775635,350.96668338775635,350.96668338775635,356.98400139808655,3,6.1475989818573,None,,,,,,,,,,,,,,,,,,101,4,2025-02-24_14h59.26.954,comp,2024.2.4,55.2216341469837,2025-02-24 14h59.37.612079 -0500,
42,42,0,critical,dwh,20.0,1.0,upper,141.0,141.0,125.0,200.0,200.0,125.0,3,7.410322189331055,None,,,,,0,0,0,0,0,42,42,67,356.999498128891,,,,,,,,,,,,,,,,,,,,,,,,,,,,,,,,,,,,,,,,,,,,,,,,,,,,,,,,,,,,,,,,,,,,,,,,,,,,,,,,,141.0,141.0,125.0,200.0,200.0,125.0,1.0,1.1,-746,267,-480,267,-222,268,356.98561930656433,356.98572611808777,356.98920345306396,356.999498128891,357.1526255607605,357.1526255607605,357.1526255607605,357.1526255607605,357.1526255607605,357.1526255607605,357.1526255607605,364.41880083084106,3,7.410322189331055,None,,,,,,,,,,,,,,,,,,101,4,2025-02-24_14h59.26.954,comp,2024.2.4,55.2216341469837,2025-02-24 14h59.37.612079 -0500,
43,43,0,filler_square,None,None,None,None,None,None,None,None,None,None,1,1.88594388961792,None,,,,,0,0,0,0,0,43,43,190,364.4353930950165,,,,,,,,,,,,,,,,,,,,,,,,,,,,,,,,,,,,,,,,,,,,,,,,,,,,,,,,,,,,,,,,,,,,,,,,,,,,,,,,,180.00290006270416,180.00290006270416,165.23575017458717,126.26345806712304,134.985743347276,134.26973503574806,1.0,1.2,-249,-3,0,3,226,4,364.42056131362915,364.42063879966736,364.42374086380005,364.4353930950165,364.58687686920166,364.58687686920166,364.58687686920166,364.58687686920166,364.58687686920166,364.58687686920166,364.58687686920166,366.338196516037,1,1.88594388961792,None,,,,,,,,,,,,,,,,,,101,4,2025-02-24_14h59.26.954,comp,2024.2.4,55.2216341469837,2025-02-24 14h59.37.612079 -0500,
44,44,0,filler_random,None,None,None,None,None,None,None,None,None,None,3,8.943268537521362,None,,,,,0,0,0,0,0,44,44,148,366.3555278778076,,,,,,,,,,,,,,,,,,,,,,,,,,,,,,,,,,,,,,,,,,,,,,,,,,,,,,,,,,,,,,,,,,,,,,,,,,,,,,,,,167.70148385986624,107.26260052226465,112.51838935402863,157.03777392717933,158.85023330379022,184.60898385964106,2.1,2.11,-228,251,0,267,267,-260,366.3398311138153,366.33990693092346,366.3429343700409,366.3555278778076,366.5042071342468,366.5042071342468,366.5042071342468,366.5042071342468,366.5042071342468,366.5042071342468,366.5042071342468,375.30332827568054,3,8.943268537521362,None,,,,,,,,,,,,,,,,,,101,4,2025-02-24_14h59.26.954,comp,2024.2.4,55.2216341469837,2025-02-24 14h59.37.612079 -0500,
45,45,0,filler_square,None,None,None,None,None,None,None,None,None,None,3,3.8013975620269775,None,,,,,0,0,0,0,0,45,45,183,375.3203432559967,,,,,,,,,,,,,,,,,,,,,,,,,,,,,,,,,,,,,,,,,,,,,,,,,,,,,,,,,,,,,,,,,,,,,,,,,,,,,,,,,121.68145823376516,107.12976024862687,104.25664615999038,92.04690261338695,133.12330433469182,133.12330433469182,2.2,2.21,-196,-276,0,276,209,273,375.30523443222046,375.3053274154663,375.30855774879456,375.3203432559967,375.4711925983429,375.4711925983429,375.4711925983429,375.4711925983429,375.4711925983429,375.4711925983429,375.4711925983429,379.1238248348236,3,3.8013975620269775,None,,,,,,,,,,,,,,,,,,101,4,2025-02-24_14h59.26.954,comp,2024.2.4,55.2216341469837,2025-02-24 14h59.37.612079 -0500,
46,46,0,critical,dhw,20.0,1.0,lower,78.0,78.0,133.0,57.0,57.0,133.0,2,8.060694217681885,None,,,,,0,0,0,0,0,46,46,54,379.14073944091797,,,,,,,,,,,,,,,,,,,,,,,,,,,,,,,,,,,,,,,,,,,,,,,,,,,,,,,,,,,,,,,,,,,,,,,,,,,,,,,,,78.0,78.0,133.0,57.0,57.0,133.0,1.0,1.3,316,-257,480,-286,671,-288,379.1254086494446,379.12548542022705,379.128919839859,379.14073944091797,379.29014229774475,379.29014229774475,379.29014229774475,379.29014229774475,379.29014229774475,379.29014229774475,379.29014229774475,387.2154109477997,2,8.060694217681885,None,,,,,,,,,,,,,,,,,,101,4,2025-02-24_14h59.26.954,comp,2024.2.4,55.2216341469837,2025-02-24 14h59.37.612079 -0500,
47,47,0,filler_random,None,None,None,None,None,None,None,None,None,None,1,3.077805280685425,None,,,,,0,0,0,0,0,47,47,130,387.2357542514801,,,,,,,,,,,,,,,,,,,,,,,,,,,,,,,,,,,,,,,,,,,,,,,,,,,,,,,,,,,,,,,,,,,,,,,,,,,,,,,,,166.9327837099649,171.6350994290253,192.2245746822384,116.63755455344436,89.163433651822,129.58897006703342,1.0,1.3,240,-279,480,-265,699,-263,387.2171413898468,387.21721839904785,387.22013092041016,387.2357542514801,387.377961397171,387.377961397171,387.377961397171,387.377961397171,387.377961397171,387.377961397171,387.377961397171,390.32844281196594,1,3.077805280685425,None,,,,,,,,,,,,,,,,,,101,4,2025-02-24_14h59.26.954,comp,2024.2.4,55.2216341469837,2025-02-24 14h59.37.612079 -0500,
48,48,0,filler_random,None,None,None,None,None,None,None,None,None,None,1,5.746448516845703,None,,,,,0,0,0,0,0,48,48,154,390.3437075614929,,,,,,,,,,,,,,,,,,,,,,,,,,,,,,,,,,,,,,,,,,,,,,,,,,,,,,,,,,,,,,,,,,,,,,,,,,,,,,,,,198.47044553392973,142.17564436100906,87.92344198996534,104.36310607422556,138.51603473851503,107.07736933539664,1.0,1.3,261,-283,480,-276,682,-253,390.33013463020325,390.3302068710327,390.33348274230957,390.3437075614929,390.4967155456543,390.4967155456543,390.4967155456543,390.4967155456543,390.4967155456543,390.4967155456543,390.4967155456543,396.0969560146332,1,5.746448516845703,None,,,,,,,,,,,,,,,,,,101,4,2025-02-24_14h59.26.954,comp,2024.2.4,55.2216341469837,2025-02-24 14h59.37.612079 -0500,
49,49,0,critical,whd,35.0,4.0,upper,125.0,200.0,200.0,125.0,127.0,127.0,1,2.0819122791290283,None,,,,,0,0,0,0,0,49,49,89,396.11152052879333,,,,,,,,,,,,,,,,,,,,,,,,,,,,,,,,,,,,,,,,,,,,,,,,,,,,,,,,,,,,,,,,,,,,,,,,,,,,,,,,,125.0,200.0,200.0,125.0,127.0,127.0,4.0,4.2,-258,-12,0,-278,222,3,396.09849190711975,396.0985691547394,396.1016867160797,396.11152052879333,396.2618646621704,396.2618646621704,396.2618646621704,396.2618646621704,396.2618646621704,396.2618646621704,396.2618646621704,398.2132079601288,1,2.0819122791290283,None,,,,,,,,,,,,,,,,,,101,4,2025-02-24_14h59.26.954,comp,2024.2.4,55.2216341469837,2025-02-24 14h59.37.612079 -0500,
50,50,0,filler_random,None,None,None,None,None,None,None,None,None,None,1,5.462944030761719,None,,,,,0,0,0,0,0,50,50,144,398.2289173603058,,,,,,,,,,,,,,,,,,,,,,,,,,,,,,,,,,,,,,,,,,,,,,,,,,,,,,,,,,,,,,,,,,,,,,,,,,,,,,,,,155.3232488487788,78.11628393653723,134.4287493941623,60.80445685352686,108.29937042781796,120.95556343442384,2.1,2.12,-165,-255,0,-274,187,265,398.21499156951904,398.21511793136597,398.21838188171387,398.2289173603058,398.3813202381134,398.3813202381134,398.3813202381134,398.3813202381134,398.3813202381134,398.3813202381134,398.3813202381134,403.6979260444641,1,5.462944030761719,None,,,,,,,,,,,,,,,,,,101,4,2025-02-24_14h59.26.954,comp,2024.2.4,55.2216341469837,2025-02-24 14h59.37.612079 -0500,
51,51,0,critical,dhw,20.0,3.0,upper,141.0,141.0,200.0,125.0,125.0,200.0,3,9.27928638458252,None,,,,,0,0,0,0,0,51,51,57,403.7141876220703,,,,,,,,,,,,,,,,,,,,,,,,,,,,,,,,,,,,,,,,,,,,,,,,,,,,,,,,,,,,,,,,,,,,,,,,,,,,,,,,,141.0,141.0,200.0,125.0,125.0,200.0,3.0,3.1,-229,267,0,13,258,-269,403.6994848251343,403.6995635032654,403.70258951187134,403.7141876220703,403.8653645515442,403.8653645515442,403.8653645515442,403.8653645515442,403.8653645515442,403.8653645515442,403.8653645515442,413.0114243030548,3,9.27928638458252,None,,,,,,,,,,,,,,,,,,101,4,2025-02-24_14h59.26.954,comp,2024.2.4,55.2216341469837,2025-02-24 14h59.37.612079 -0500,
52,52,0,critical,wdh,20.0,2.1,upper,125.0,200.0,141.0,141.0,200.0,125.0,1,5.59698486328125,None,,,,,0,0,0,0,0,52,52,35,413.02841901779175,,,,,,,,,,,,,,,,,,,,,,,,,,,,,,,,,,,,,,,,,,,,,,,,,,,,,,,,,,,,,,,,,,,,,,,,,,,,,,,,,125.0,200.0,141.0,141.0,200.0,125.0,2.1,2.12,-266,-281,0,-257,229,257,413.01290488243103,413.01297879219055,413.01588129997253,413.02841901779175,413.1696979999542,413.1696979999542,413.1696979999542,413.1696979999542,413.1696979999542,413.1696979999542,413.1696979999542,418.63593673706055,1,5.59698486328125,None,,,,,,,,,,,,,,,,,,101,4,2025-02-24_14h59.26.954,comp,2024.2.4,55.2216341469837,2025-02-24 14h59.37.612079 -0500,
53,53,0,filler_random,None,None,None,None,None,None,None,None,None,None,3,3.636091709136963,None,,,,,0,0,0,0,0,53,53,151,418.6533532142639,,,,,,,,,,,,,,,,,,,,,,,,,,,,,,,,,,,,,,,,,,,,,,,,,,,,,,,,,,,,,,,,,,,,,,,,,,,,,,,,,145.3782916167296,62.72849545258369,80.03618783679683,125.33510777420194,110.18546365598164,169.64449974705468,2.1,2.12,-190,-283,0,-280,243,275,418.63774943351746,418.6378803253174,418.6412720680237,418.6533532142639,418.8042981624603,418.8042981624603,418.8042981624603,418.8042981624603,418.8042981624603,418.8042981624603,418.8042981624603,422.30451369285583,3,3.636091709136963,None,,,,,,,,,,,,,,,,,,101,4,2025-02-24_14h59.26.954,comp,2024.2.4,55.2216341469837,2025-02-24 14h59.37.612079 -0500,
54,54,0,critical,whd,20.0,2.1,upper,125.0,200.0,200.0,125.0,141.0,141.0,2,5.72914719581604,None,,,,,0,0,0,0,0,54,54,15,422.32039284706116,,,,,,,,,,,,,,,,,,,,,,,,,,,,,,,,,,,,,,,,,,,,,,,,,,,,,,,,,,,,,,,,,,,,,,,,,,,,,,,,,125.0,200.0,200.0,125.0,141.0,141.0,2.1,2.12,-258,-272,0,-280,229,252,422.3061273097992,422.3062016963959,422.30963110923767,422.32039284706116,422.47651386260986,422.47651386260986,422.47651386260986,422.47651386260986,422.47651386260986,422.47651386260986,422.47651386260986,428.0586311817169,2,5.72914719581604,None,,,,,,,,,,,,,,,,,,101,4,2025-02-24_14h59.26.954,comp,2024.2.4,55.2216341469837,2025-02-24 14h59.37.612079 -0500,
55,55,0,critical,dhw,35.0,4.0,lower,70.0,70.0,133.0,57.0,57.0,133.0,2,7.175206422805786,None,,,,,0,0,0,0,0,55,55,52,428.0752012729645,,,,,,,,,,,,,,,,,,,,,,,,,,,,,,,,,,,,,,,,,,,,,,,,,,,,,,,,,,,,,,,,,,,,,,,,,,,,,,,,,70.0,70.0,133.0,57.0,57.0,133.0,4.0,4.2,-160,-4,0,-289,191,-13,428.06024956703186,428.0603301525116,428.0637023448944,428.0752012729645,428.2239787578583,428.2239787578583,428.2239787578583,428.2239787578583,428.2239787578583,428.2239787578583,428.2239787578583,435.25895595550537,2,7.175206422805786,None,,,,,,,,,,,,,,,,,,101,4,2025-02-24_14h59.26.954,comp,2024.2.4,55.2216341469837,2025-02-24 14h59.37.612079 -0500,
56,56,0,critical,dhw,20.0,2.1,upper,141.0,141.0,200.0,125.0,125.0,200.0,2,12.615027666091919,None,,,,,0,0,0,0,0,56,56,27,435.27496457099915,,,,,,,,,,,,,,,,,,,,,,,,,,,,,,,,,,,,,,,,,,,,,,,,,,,,,,,,,,,,,,,,,,,,,,,,,,,,,,,,,141.0,141.0,200.0,125.0,125.0,200.0,2.1,2.12,-229,-286,0,-259,258,252,435.26057052612305,435.2606883049011,435.26417112350464,435.27496457099915,435.42464303970337,435.42464303970337,435.42464303970337,435.42464303970337,435.42464303970337,435.42464303970337,435.42464303970337,447.89519000053406,2,12.615027666091919,None,,,,,,,,,,,,,,,,,,101,4,2025-02-24_14h59.26.954,comp,2024.2.4,55.2216341469837,2025-02-24 14h59.37.612079 -0500,
57,57,0,critical,hdw,20.0,3.0,upper,200.0,125.0,141.0,141.0,125.0,200.0,1,17.52322006225586,None,,,,,0,0,0,0,0,57,57,117,447.9106192588806,,,,,,,,,,,,,,,,,,,,,,,,,,,,,,,,,,,,,,,,,,,,,,,,,,,,,,,,,,,,,,,,,,,,,,,,,,,,,,,,,200.0,125.0,141.0,141.0,125.0,200.0,3.0,3.2,-229,-251,0,-14,266,279,447.89668011665344,447.8967590332031,447.8998417854309,447.9106192588806,448.0598394870758,448.0598394870758,448.0598394870758,448.0598394870758,448.0598394870758,448.0598394870758,448.0598394870758,465.4390664100647,1,17.52322006225586,None,,,,,,,,,,,,,,,,,,101,4,2025-02-24_14h59.26.954,comp,2024.2.4,55.2216341469837,2025-02-24 14h59.37.612079 -0500,
58,58,0,critical,whd,35.0,1.0,upper,125.0,200.0,200.0,125.0,127.0,127.0,2,11.470654010772705,None,,,,,0,0,0,0,0,58,58,85,465.45905351638794,,,,,,,,,,,,,,,,,,,,,,,,,,,,,,,,,,,,,,,,,,,,,,,,,,,,,,,,,,,,,,,,,,,,,,,,,,,,,,,,,125.0,200.0,200.0,125.0,127.0,127.0,1.0,1.2,-258,14,0,9,222,-6,465.44062209129333,465.4407434463501,465.44407963752747,465.45905351638794,465.6027684211731,465.6027684211731,465.6027684211731,465.6027684211731,465.6027684211731,465.6027684211731,465.6027684211731,476.93861174583435,2,11.470654010772705,None,,,,,,,,,,,,,,,,,,101,4,2025-02-24_14h59.26.954,comp,2024.2.4,55.2216341469837,2025-02-24 14h59.37.612079 -0500,
59,59,0,critical,hwd,35.0,2.1,upper,200.0,125.0,125.0,200.0,127.0,127.0,2,9.110239267349243,None,,,,,0,0,0,0,0,59,59,17,476.95543694496155,,,,,,,,,,,,,,,,,,,,,,,,,,,,,,,,,,,,,,,,,,,,,,,,,,,,,,,,,,,,,,,,,,,,,,,,,,,,,,,,,200.0,125.0,125.0,200.0,127.0,127.0,2.1,2.12,-258,-256,0,-284,260,256,476.94016671180725,476.9402458667755,476.9442403316498,476.95543694496155,477.1110451221466,477.1110451221466,477.1110451221466,477.1110451221466,477.1110451221466,477.1110451221466,477.1110451221466,486.0844085216522,2,9.110239267349243,None,,,,,,,,,,,,,,,,,,101,4,2025-02-24_14h59.26.954,comp,2024.2.4,55.2216341469837,2025-02-24 14h59.37.612079 -0500,
60,60,0,critical,hdw,35.0,2.1,upper,200.0,125.0,127.0,127.0,125.0,200.0,3,8.436194658279419,None,,,,,0,0,0,0,0,60,60,21,486.10163259506226,,,,,,,,,,,,,,,,,,,,,,,,,,,,,,,,,,,,,,,,,,,,,,,,,,,,,,,,,,,,,,,,,,,,,,,,,,,,,,,,,200.0,125.0,127.0,127.0,125.0,200.0,2.1,2.12,-222,-274,0,-288,260,276,486.0859487056732,486.0860261917114,486.0889151096344,486.10163259506226,486.245019197464,486.245019197464,486.245019197464,486.245019197464,486.245019197464,486.245019197464,486.245019197464,494.5420296192169,3,8.436194658279419,None,,,,,,,,,,,,,,,,,,101,4,2025-02-24_14h59.26.954,comp,2024.2.4,55.2216341469837,2025-02-24 14h59.37.612079 -0500,
61,61,0,critical,whd,35.0,3.0,lower,57.0,133.0,133.0,57.0,70.0,70.0,1,6.518741130828857,None,,,,,0,0,0,0,0,61,61,86,494.5627634525299,,,,,,,,,,,,,,,,,,,,,,,,,,,,,,,,,,,,,,,,,,,,,,,,,,,,,,,,,,,,,,,,,,,,,,,,,,,,,,,,,57.0,133.0,133.0,57.0,70.0,70.0,3.0,3.1,-191,286,0,7,160,-286,494.5436096191406,494.5437214374542,494.54709792137146,494.5627634525299,494.7107467651367,494.7107467651367,494.7107467651367,494.7107467651367,494.7107467651367,494.7107467651367,494.7107467651367,501.09894371032715,1,6.518741130828857,None,,,,,,,,,,,,,,,,,,101,4,2025-02-24_14h59.26.954,comp,2024.2.4,55.2216341469837,2025-02-24 14h59.37.612079 -0500,
62,62,0,filler_square,None,None,None,None,None,None,None,None,None,None,1,2.2075085639953613,None,,,,,0,0,0,0,0,62,62,202,501.11470651626587,,,,,,,,,,,,,,,,,,,,,,,,,,,,,,,,,,,,,,,,,,,,,,,,,,,,,,,,,,,,,,,,,,,,,,,,,,,,,,,,,179.4295622279896,179.4295622279896,87.37437883091962,96.4014501613174,78.88666017916655,178.7234785963077,2.2,2.22,-234,276,0,-267,234,-252,501.10100650787354,501.1011047363281,501.1043610572815,501.11470651626587,501.263792514801,501.263792514801,501.263792514801,501.263792514801,501.263792514801,501.263792514801,501.263792514801,503.32995867729187,1,2.2075085639953613,None,,,,,,,,,,,,,,,,,,101,4,2025-02-24_14h59.26.954,comp,2024.2.4,55.2216341469837,2025-02-24 14h59.37.612079 -0500,
63,63,0,filler_random,None,None,None,None,None,None,None,None,None,None,1,3.9199512004852295,None,,,,,0,0,0,0,0,63,63,158,503.3455607891083,,,,,,,,,,,,,,,,,,,,,,,,,,,,,,,,,,,,,,,,,,,,,,,,,,,,,,,,,,,,,,,,,,,,,,,,,,,,,,,,,86.75621525400094,184.18750013579427,83.44690892556842,192.92357296283535,105.51677516158914,86.0530336938918,2.1,2.12,-285,-259,0,-280,235,276,503.33158016204834,503.33168053627014,503.3347475528717,503.3455607891083,503.5015461444855,503.5015461444855,503.5015461444855,503.5015461444855,503.5015461444855,503.5015461444855,503.5015461444855,507.2756037712097,1,3.9199512004852295,None,,,,,,,,,,,,,,,,,,101,4,2025-02-24_14h59.26.954,comp,2024.2.4,55.2216341469837,2025-02-24 14h59.37.612079 -0500,
64,64,0,critical,hdw,35.0,2.1,upper,200.0,125.0,127.0,127.0,125.0,200.0,3,4.247512102127075,None,,,,,0,0,0,0,0,64,64,45,507.2900507450104,,,,,,,,,,,,,,,,,,,,,,,,,,,,,,,,,,,,,,,,,,,,,,,,,,,,,,,,,,,,,,,,,,,,,,,,,,,,,,,,,200.0,125.0,127.0,127.0,125.0,200.0,2.1,2.12,-222,-283,0,-275,260,253,507.2771134376526,507.2771899700165,507.2800898551941,507.2900507450104,507.4313933849335,507.4313933849335,507.4313933849335,507.4313933849335,507.4313933849335,507.4313933849335,507.4313933849335,511.55151987075806,3,4.247512102127075,None,,,,,,,,,,,,,,,,,,101,4,2025-02-24_14h59.26.954,comp,2024.2.4,55.2216341469837,2025-02-24 14h59.37.612079 -0500,
65,65,0,filler_square,None,None,None,None,None,None,None,None,None,None,3,3.473693370819092,None,,,,,0,0,0,0,0,65,65,205,511.5686299800873,,,,,,,,,,,,,,,,,,,,,,,,,,,,,,,,,,,,,,,,,,,,,,,,,,,,,,,,,,,,,,,,,,,,,,,,,,,,,,,,,73.56659700147392,141.76867850170544,115.9513180299948,99.47255804571833,164.23165323912855,164.23165323912855,2.1,2.12,-217,-253,0,-281,228,266,511.5535957813263,511.55370688438416,511.5572421550751,511.5686299800873,511.7167944908142,511.7167944908142,511.7167944908142,511.7167944908142,511.7167944908142,511.7167944908142,511.7167944908142,515.0521779060364,3,3.473693370819092,None,,,,,,,,,,,,,,,,,,101,4,2025-02-24_14h59.26.954,comp,2024.2.4,55.2216341469837,2025-02-24 14h59.37.612079 -0500,
66,66,0,critical,dwh,20.0,2.1,upper,141.0,141.0,125.0,200.0,200.0,125.0,3,8.323954820632935,None,,,,,0,0,0,0,0,66,66,7,515.0698709487915,,,,,,,,,,,,,,,,,,,,,,,,,,,,,,,,,,,,,,,,,,,,,,,,,,,,,,,,,,,,,,,,,,,,,,,,,,,,,,,,,141.0,141.0,125.0,200.0,200.0,125.0,2.1,2.11,-266,253,0,280,258,-286,515.053795337677,515.0538740158081,515.0568363666534,515.0698709487915,515.2157552242279,515.2157552242279,515.2157552242279,515.2157552242279,515.2157552242279,515.2157552242279,515.2157552242279,523.4038555622101,3,8.323954820632935,None,,,,,,,,,,,,,,,,,,101,4,2025-02-24_14h59.26.954,comp,2024.2.4,55.2216341469837,2025-02-24 14h59.37.612079 -0500,
67,67,0,filler_square,None,None,None,None,None,None,None,None,None,None,2,2.119291067123413,None,,,,,0,0,0,0,0,67,67,204,523.4279232025146,,,,,,,,,,,,,,,,,,,,,,,,,,,,,,,,,,,,,,,,,,,,,,,,,,,,,,,,,,,,,,,,,,,,,,,,,,,,,,,,,82.12396221639258,120.73566632567935,133.5416176078756,133.5416176078756,112.07139039620344,68.86377408533652,1.0,1.3,257,-283,480,-259,677,-264,523.4057929515839,523.4058706760406,523.409113407135,523.4279232025146,523.5697085857391,523.5697085857391,523.5697085857391,523.5697085857391,523.5697085857391,523.5697085857391,523.5697085857391,525.5513236522675,2,2.119291067123413,None,,,,,,,,,,,,,,,,,,101,4,2025-02-24_14h59.26.954,comp,2024.2.4,55.2216341469837,2025-02-24 14h59.37.612079 -0500,
68,68,0,critical,dwh,35.0,1.0,lower,70.0,70.0,57.0,133.0,133.0,57.0,3,4.257237672805786,None,,,,,0,0,0,0,0,68,68,60,525.5682628154755,,,,,,,,,,,,,,,,,,,,,,,,,,,,,,,,,,,,,,,,,,,,,,,,,,,,,,,,,,,,,,,,,,,,,,,,,,,,,,,,,70.0,70.0,57.0,133.0,133.0,57.0,1.0,1.3,282,-260,480,-283,671,-283,525.552943944931,525.5530204772949,525.556352853775,525.5682628154755,525.7074282169342,525.7074282169342,525.7074282169342,525.7074282169342,525.7074282169342,525.7074282169342,525.7074282169342,529.840056180954,3,4.257237672805786,None,,,,,,,,,,,,,,,,,,101,4,2025-02-24_14h59.26.954,comp,2024.2.4,55.2216341469837,2025-02-24 14h59.37.612079 -0500,
69,69,0,critical,whd,35.0,2.1,lower,57.0,133.0,133.0,57.0,70.0,70.0,2,4.23237156867981,None,,,,,0,0,0,0,0,69,69,12,529.8574223518372,,,,,,,,,,,,,,,,,,,,,,,,,,,,,,,,,,,,,,,,,,,,,,,,,,,,,,,,,,,,,,,,,,,,,,,,,,,,,,,,,57.0,133.0,133.0,57.0,70.0,70.0,2.1,2.11,-191,284,0,271,160,-283,529.8417761325836,529.8418650627136,529.8462414741516,529.8574223518372,530.007828950882,530.007828950882,530.007828950882,530.007828950882,530.007828950882,530.007828950882,530.007828950882,534.1072180271149,2,4.23237156867981,None,,,,,,,,,,,,,,,,,,101,4,2025-02-24_14h59.26.954,comp,2024.2.4,55.2216341469837,2025-02-24 14h59.37.612079 -0500,
70,70,0,critical,hdw,20.0,1.0,upper,200.0,125.0,141.0,141.0,125.0,200.0,3,3.567608594894409,None,,,,,0,0,0,0,0,70,70,115,534.1220088005066,,,,,,,,,,,,,,,,,,,,,,,,,,,,,,,,,,,,,,,,,,,,,,,,,,,,,,,,,,,,,,,,,,,,,,,,,,,,,,,,,200.0,125.0,141.0,141.0,125.0,200.0,1.0,1.3,251,-251,480,-269,746,-256,534.1086232662201,534.1087307929993,534.1116192340851,534.1220088005066,534.2713620662689,534.2713620662689,534.2713620662689,534.2713620662689,534.2713620662689,534.2713620662689,534.2713620662689,537.6918685436249,3,3.567608594894409,None,,,,,,,,,,,,,,,,,,101,4,2025-02-24_14h59.26.954,comp,2024.2.4,55.2216341469837,2025-02-24 14h59.37.612079 -0500,
71,71,0,critical,dwh,20.0,4.0,lower,78.0,78.0,57.0,133.0,133.0,57.0,3,8.110707998275757,None,,,,,0,0,0,0,0,71,71,70,537.7075755596161,,,,,,,,,,,,,,,,,,,,,,,,,,,,,,,,,,,,,,,,,,,,,,,,,,,,,,,,,,,,,,,,,,,,,,,,,,,,,,,,,78.0,78.0,57.0,133.0,133.0,57.0,4.0,4.1,-202,-258,0,6,191,-272,537.6933641433716,537.6934404373169,537.6968510150909,537.7075755596161,537.8597824573517,537.8597824573517,537.8597824573517,537.8597824573517,537.8597824573517,537.8597824573517,537.8597824573517,545.8267204761505,3,8.110707998275757,None,,,,,,,,,,,,,,,,,,101,4,2025-02-24_14h59.26.954,comp,2024.2.4,55.2216341469837,2025-02-24 14h59.37.612079 -0500,
72,72,0,critical,wdh,35.0,4.0,lower,57.0,133.0,70.0,70.0,133.0,57.0,3,4.687301158905029,None,,,,,0,0,0,0,0,72,72,76,545.8424875736237,,,,,,,,,,,,,,,,,,,,,,,,,,,,,,,,,,,,,,,,,,,,,,,,,,,,,,,,,,,,,,,,,,,,,,,,,,,,,,,,,57.0,133.0,70.0,70.0,133.0,57.0,4.0,4.2,-198,12,0,-254,160,-5,545.8282301425934,545.8283085823059,545.8317222595215,545.8424875736237,545.9915194511414,545.9915194511414,545.9915194511414,545.9915194511414,545.9915194511414,545.9915194511414,545.9915194511414,550.5440998077393,3,4.687301158905029,None,,,,,,,,,,,,,,,,,,101,4,2025-02-24_14h59.26.954,comp,2024.2.4,55.2216341469837,2025-02-24 14h59.37.612079 -0500,
73,73,0,critical,hwd,35.0,1.0,upper,200.0,125.0,125.0,200.0,127.0,127.0,2,6.938304662704468,None,,,,,0,0,0,0,0,73,73,97,550.5594336986542,,,,,,,,,,,,,,,,,,,,,,,,,,,,,,,,,,,,,,,,,,,,,,,,,,,,,,,,,,,,,,,,,,,,,,,,,,,,,,,,,200.0,125.0,125.0,200.0,127.0,127.0,1.0,1.3,222,-258,480,-251,740,-288,550.5457458496094,550.5458228588104,550.5491156578064,550.5594336986542,550.7113602161407,550.7113602161407,550.7113602161407,550.7113602161407,550.7113602161407,550.7113602161407,550.7113602161407,557.517245054245,2,6.938304662704468,None,,,,,,,,,,,,,,,,,,101,4,2025-02-24_14h59.26.954,comp,2024.2.4,55.2216341469837,2025-02-24 14h59.37.612079 -0500,
74,74,0,critical,hdw,20.0,3.0,lower,133.0,57.0,78.0,78.0,57.0,133.0,3,8.923472881317139,None,,,,,0,0,0,0,0,74,74,116,557.5349388122559,,,,,,,,,,,,,,,,,,,,,,,,,,,,,,,,,,,,,,,,,,,,,,,,,,,,,,,,,,,,,,,,,,,,,,,,,,,,,,,,,133.0,57.0,78.0,78.0,57.0,133.0,3.0,3.1,-164,277,0,13,202,-288,557.5187916755676,557.5188689231873,557.5220649242401,557.5349388122559,557.6807889938354,557.6807889938354,557.6807889938354,557.6807889938354,557.6807889938354,557.6807889938354,557.6807889938354,566.4672875404358,3,8.923472881317139,None,,,,,,,,,,,,,,,,,,101,4,2025-02-24_14h59.26.954,comp,2024.2.4,55.2216341469837,2025-02-24 14h59.37.612079 -0500,
75,75,0,critical,hwd,20.0,2.1,upper,200.0,125.0,125.0,200.0,141.0,141.0,1,3.4869508743286133,None,,,,,0,0,0,0,0,75,75,43,566.4828050136566,,,,,,,,,,,,,,,,,,,,,,,,,,,,,,,,,,,,,,,,,,,,,,,,,,,,,,,,,,,,,,,,,,,,,,,,,,,,,,,,,200.0,125.0,125.0,200.0,141.0,141.0,2.1,2.11,-258,282,0,268,266,-252,566.4687769412994,566.4688541889191,566.4721596240997,566.4828050136566,566.6307485103607,566.6307485103607,566.6307485103607,566.6307485103607,566.6307485103607,566.6307485103607,566.6307485103607,569.9855675697327,1,3.4869508743286133,None,,,,,,,,,,,,,,,,,,101,4,2025-02-24_14h59.26.954,comp,2024.2.4,55.2216341469837,2025-02-24 14h59.37.612079 -0500,
76,76,0,filler_square,None,None,None,None,None,None,None,None,None,None,3,2.7604880332946777,None,,,,,0,0,0,0,0,76,76,180,570.0015659332275,,,,,,,,,,,,,,,,,,,,,,,,,,,,,,,,,,,,,,,,,,,,,,,,,,,,,,,,,,,,,,,,,,,,,,,,,,,,,,,,,61.791132521336166,64.16956517232009,73.38561782281585,74.94052627047543,80.16230562085283,80.16230562085283,4.0,4.2,-166,-9,0,-282,174,-6,569.9874601364136,569.987557888031,569.9907948970795,570.0015659332275,570.1504745483398,570.1504745483398,570.1504745483398,570.1504745483398,570.1504745483398,570.1504745483398,570.1504745483398,572.7695393562317,3,2.7604880332946777,None,,,,,,,,,,,,,,,,,,101,4,2025-02-24_14h59.26.954,comp,2024.2.4,55.2216341469837,2025-02-24 14h59.37.612079 -0500,
77,77,0,critical,hdw,35.0,1.0,lower,133.0,57.0,70.0,70.0,57.0,133.0,3,5.103923082351685,None,,,,,0,0,0,0,0,77,77,108,572.7859561443329,,,,,,,,,,,,,,,,,,,,,,,,,,,,,,,,,,,,,,,,,,,,,,,,,,,,,,,,,,,,,,,,,,,,,,,,,,,,,,,,,133.0,57.0,70.0,70.0,57.0,133.0,1.0,1.1,-640,259,-480,258,-282,289,572.7711346149445,572.7712128162384,572.7752597332001,572.7859561443329,572.9341547489166,572.9341547489166,572.9341547489166,572.9341547489166,572.9341547489166,572.9341547489166,572.9341547489166,577.8927621841431,3,5.103923082351685,None,,,,,,,,,,,,,,,,,,101,4,2025-02-24_14h59.26.954,comp,2024.2.4,55.2216341469837,2025-02-24 14h59.37.612079 -0500,
78,78,0,filler_random,None,None,None,None,None,None,None,None,None,None,2,1.6851239204406738,None,,,,,0,0,0,0,0,78,78,143,577.9088797569275,,,,,,,,,,,,,,,,,,,,,,,,,,,,,,,,,,,,,,,,,,,,,,,,,,,,,,,,,,,,,,,,,,,,,,,,,,,,,,,,,87.50038313775856,65.33298238029411,103.55796255698107,164.51006772372116,121.42885305827541,111.48135746287508,4.0,4.2,-211,17,0,-264,234,14,577.8943545818329,577.8944306373596,577.897317647934,577.9088797569275,578.0546486377716,578.0546486377716,578.0546486377716,578.0546486377716,578.0546486377716,578.0546486377716,578.0546486377716,579.602281332016,2,1.6851239204406738,None,,,,,,,,,,,,,,,,,,101,4,2025-02-24_14h59.26.954,comp,2024.2.4,55.2216341469837,2025-02-24 14h59.37.612079 -0500,
79,79,0,critical,dwh,20.0,3.0,upper,141.0,141.0,125.0,200.0,200.0,125.0,3,5.9592931270599365,None,,,,,0,0,0,0,0,79,79,69,579.6190598011017,,,,,,,,,,,,,,,,,,,,,,,,,,,,,,,,,,,,,,,,,,,,,,,,,,,,,,,,,,,,,,,,,,,,,,,,,,,,,,,,,141.0,141.0,125.0,200.0,200.0,125.0,3.0,3.1,-266,279,0,18,258,-272,579.6039009094238,579.6039779186249,579.6072580814362,579.6190598011017,579.7592198848724,579.7592198848724,579.7592198848724,579.7592198848724,579.7592198848724,579.7592198848724,579.7592198848724,585.5867853164673,3,5.9592931270599365,None,,,,,,,,,,,,,,,,,,101,4,2025-02-24_14h59.26.954,comp,2024.2.4,55.2216341469837,2025-02-24 14h59.37.612079 -0500,
80,80,0,filler_random,None,None,None,None,None,None,None,None,None,None,1,2.158987522125244,None,,,,,0,0,0,0,0,80,80,160,585.6027519702911,,,,,,,,,,,,,,,,,,,,,,,,,,,,,,,,,,,,,,,,,,,,,,,,,,,,,,,,,,,,,,,,,,,,,,,,,,,,,,,,,189.72834377770087,191.9143907742476,180.82699276135546,87.10875377676486,183.74490543288402,138.92655515215858,2.2,2.22,-236,258,0,-252,209,-284,585.588546037674,585.5886950492859,585.5919027328491,585.6027519702911,585.7397835254669,585.7397835254669,585.7397835254669,585.7397835254669,585.7397835254669,585.7397835254669,585.7397835254669,587.7722082138062,1,2.158987522125244,None,,,,,,,,,,,,,,,,,,101,4,2025-02-24_14h59.26.954,comp,2024.2.4,55.2216341469837,2025-02-24 14h59.37.612079 -0500,
81,81,0,critical,wdh,20.0,4.0,upper,125.0,200.0,141.0,141.0,200.0,125.0,2,3.621023654937744,None,,,,,0,0,0,0,0,81,81,83,587.7886772155762,,,,,,,,,,,,,,,,,,,,,,,,,,,,,,,,,,,,,,,,,,,,,,,,,,,,,,,,,,,,,,,,,,,,,,,,,,,,,,,,,125.0,200.0,141.0,141.0,200.0,125.0,4.0,4.1,-266,-266,0,10,229,-267,587.7737081050873,587.7737867832184,587.7770338058472,587.7886772155762,587.9408543109894,587.9408543109894,587.9408543109894,587.9408543109894,587.9408543109894,587.9408543109894,587.9408543109894,591.4269545078278,2,3.621023654937744,None,,,,,,,,,,,,,,,,,,101,4,2025-02-24_14h59.26.954,comp,2024.2.4,55.2216341469837,2025-02-24 14h59.37.612079 -0500,
82,82,0,critical,wdh,20.0,2.1,lower,57.0,133.0,78.0,78.0,133.0,57.0,1,16.287181615829468,None,,,,,0,0,0,0,0,82,82,10,591.4425501823425,,,,,,,,,,,,,,,,,,,,,,,,,,,,,,,,,,,,,,,,,,,,,,,,,,,,,,,,,,,,,,,,,,,,,,,,,,,,,,,,,57.0,133.0,78.0,78.0,133.0,57.0,2.1,2.12,-202,-273,0,-277,164,273,591.4286034107208,591.428733587265,591.4322466850281,591.4425501823425,591.5917863845825,591.5917863845825,591.5917863845825,591.5917863845825,591.5917863845825,591.5917863845825,591.5917863845825,607.7456412315369,1,16.287181615829468,None,,,,,,,,,,,,,,,,,,101,4,2025-02-24_14h59.26.954,comp,2024.2.4,55.2216341469837,2025-02-24 14h59.37.612079 -0500,
83,83,0,critical,dwh,35.0,1.0,upper,127.0,127.0,125.0,200.0,200.0,125.0,3,8.344209671020508,None,,,,,0,0,0,0,0,83,83,61,607.7621204853058,,,,,,,,,,,,,,,,,,,,,,,,,,,,,,,,,,,,,,,,,,,,,,,,,,,,,,,,,,,,,,,,,,,,,,,,,,,,,,,,,127.0,127.0,125.0,200.0,200.0,125.0,1.0,1.1,-740,278,-480,274,-222,290,607.7473847866058,607.7474610805511,607.7508766651154,607.7621204853058,607.9150505065918,607.9150505065918,607.9150505065918,607.9150505065918,607.9150505065918,607.9150505065918,607.9150505065918,616.1159307956696,3,8.344209671020508,None,,,,,,,,,,,,,,,,,,101,4,2025-02-24_14h59.26.954,comp,2024.2.4,55.2216341469837,2025-02-24 14h59.37.612079 -0500,
84,84,0,filler_random,None,None,None,None,None,None,None,None,None,None,3,2.1733031272888184,None,,,,,0,0,0,0,0,84,84,162,616.1323850154877,,,,,,,,,,,,,,,,,,,,,,,,,,,,,,,,,,,,,,,,,,,,,,,,,,,,,,,,,,,,,,,,,,,,,,,,,,,,,,,,,157.2701179116793,80.46052464268712,161.48759303907542,119.54273476402442,155.05890494968577,192.62774092104567,4.0,4.2,-196,-18,0,-280,252,-8,616.1176397800446,616.1177456378937,616.1211507320404,616.1323850154877,616.2790055274963,616.2790055274963,616.2790055274963,616.2790055274963,616.2790055274963,616.2790055274963,616.2790055274963,618.3183000087738,3,2.1733031272888184,None,,,,,,,,,,,,,,,,,,101,4,2025-02-24_14h59.26.954,comp,2024.2.4,55.2216341469837,2025-02-24 14h59.37.612079 -0500,
85,85,0,filler_random,None,None,None,None,None,None,None,None,None,None,1,3.7002933025360107,None,,,,,0,0,0,0,0,85,85,159,618.3340275287628,,,,,,,,,,,,,,,,,,,,,,,,,,,,,,,,,,,,,,,,,,,,,,,,,,,,,,,,,,,,,,,,,,,,,,,,,,,,,,,,,102.78375371370433,102.12324249073605,78.53038860324617,127.51544902305008,72.68462059953455,71.72482830417573,4.0,4.1,-211,-260,0,6,196,-253,618.320182800293,618.320294380188,618.3237087726593,618.3340275287628,618.4866411685944,618.4866411685944,618.4866411685944,618.4866411685944,618.4866411685944,618.4866411685944,618.4866411685944,622.0367872714996,1,3.7002933025360107,None,,,,,,,,,,,,,,,,,,101,4,2025-02-24_14h59.26.954,comp,2024.2.4,55.2216341469837,2025-02-24 14h59.37.612079 -0500,
86,86,0,critical,hdw,35.0,3.0,upper,200.0,125.0,127.0,127.0,125.0,200.0,3,1.5890305042266846,None,,,,,0,0,0,0,0,86,86,111,622.0533149242401,,,,,,,,,,,,,,,,,,,,,,,,,,,,,,,,,,,,,,,,,,,,,,,,,,,,,,,,,,,,,,,,,,,,,,,,,,,,,,,,,200.0,125.0,127.0,127.0,125.0,200.0,3.0,3.1,-222,281,0,3,260,-275,622.0388934612274,622.0389728546143,622.0419299602509,622.0533149242401,622.2036921977997,622.2036921977997,622.2036921977997,622.2036921977997,622.2036921977997,622.2036921977997,622.2036921977997,623.6512587070465,3,1.5890305042266846,None,,,,,,,,,,,,,,,,,,101,4,2025-02-24_14h59.26.954,comp,2024.2.4,55.2216341469837,2025-02-24 14h59.37.612079 -0500,
87,87,0,critical,hwd,20.0,4.0,lower,133.0,57.0,57.0,133.0,78.0,78.0,2,3.4463491439819336,None,,,,,0,0,0,0,0,87,87,106,623.667741060257,,,,,,,,,,,,,,,,,,,,,,,,,,,,,,,,,,,,,,,,,,,,,,,,,,,,,,,,,,,,,,,,,,,,,,,,,,,,,,,,,133.0,57.0,57.0,133.0,78.0,78.0,4.0,4.1,-191,-262,0,-12,202,-271,623.6527409553528,623.6528174877167,623.6569137573242,623.667741060257,623.8205542564392,623.8205542564392,623.8205542564392,623.8205542564392,623.8205542564392,623.8205542564392,623.8205542564392,627.1249723434448,2,3.4463491439819336,None,,,,,,,,,,,,,,,,,,101,4,2025-02-24_14h59.26.954,comp,2024.2.4,55.2216341469837,2025-02-24 14h59.37.612079 -0500,
88,88,0,critical,dhw,20.0,2.1,lower,78.0,78.0,133.0,57.0,57.0,133.0,3,4.3929173946380615,None,,,,,0,0,0,0,0,88,88,26,627.1448268890381,,,,,,,,,,,,,,,,,,,,,,,,,,,,,,,,,,,,,,,,,,,,,,,,,,,,,,,,,,,,,,,,,,,,,,,,,,,,,,,,,78.0,78.0,133.0,57.0,57.0,133.0,2.1,2.11,-164,258,0,266,191,-251,627.1265375614166,627.1266145706177,627.1298935413361,627.1448268890381,627.2852804660797,627.2852804660797,627.2852804660797,627.2852804660797,627.2852804660797,627.2852804660797,627.2852804660797,631.5534987449646,3,4.3929173946380615,None,,,,,,,,,,,,,,,,,,101,4,2025-02-24_14h59.26.954,comp,2024.2.4,55.2216341469837,2025-02-24 14h59.37.612079 -0500,
89,89,0,filler_square,None,None,None,None,None,None,None,None,None,None,1,1.376485824584961,None,,,,,0,0,0,0,0,89,89,189,631.5692410469055,,,,,,,,,,,,,,,,,,,,,,,,,,,,,,,,,,,,,,,,,,,,,,,,,,,,,,,,,,,,,,,,,,,,,,,,,,,,,,,,,175.93847684476623,175.93847684476623,84.69252549631548,169.1064838677419,97.72109834586388,140.25536154821572,1.0,1.3,211,-275,480,-258,731,-268,631.5552959442139,631.555371761322,631.5588819980621,631.5692410469055,631.720555305481,631.720555305481,631.720555305481,631.720555305481,631.720555305481,631.720555305481,631.720555305481,632.9644937515259,1,1.376485824584961,None,,,,,,,,,,,,,,,,,,101,4,2025-02-24_14h59.26.954,comp,2024.2.4,55.2216341469837,2025-02-24 14h59.37.612079 -0500,
90,90,0,critical,wdh,35.0,2.1,lower,57.0,133.0,70.0,70.0,133.0,57.0,3,2.993530511856079,None,,,,,0,0,0,0,0,90,90,32,632.9842417240143,,,,,,,,,,,,,,,,,,,,,,,,,,,,,,,,,,,,,,,,,,,,,,,,,,,,,,,,,,,,,,,,,,,,,,,,,,,,,,,,,57.0,133.0,70.0,70.0,133.0,57.0,2.1,2.11,-198,275,0,252,160,-254,632.9660353660583,632.9661107063293,632.969046831131,632.9842417240143,633.1241729259491,633.1241729259491,633.1241729259491,633.1241729259491,633.1241729259491,633.1241729259491,633.1241729259491,635.9952778816223,3,2.993530511856079,None,,,,,,,,,,,,,,,,,,101,4,2025-02-24_14h59.26.954,comp,2024.2.4,55.2216341469837,2025-02-24 14h59.37.612079 -0500,
91,91,0,catch,None,None,None,None,None,None,None,None,None,None,3,1.3228576183319092,None,,,,,0,0,0,0,0,91,91,123,636.0153694152832,,,,,,,,,,,,,,,,,,,,,,,,,,,,,,,,,,,,,,,,,,,,,,,,,,,,,,,,,,,,,,,,,,,,,,,,,,,,,,,,,82,108,58,132,150,175,3.0,3.2,-216,-271,0,20,250,281,635.9971649646759,635.9972410202026,636.0001373291016,636.0153694152832,636.1560025215149,636.1560025215149,636.1560025215149,636.1560025215149,636.1560025215149,636.1560025215149,636.1560025215149,637.3411395549774,3,1.3228576183319092,None,,,,,,,,,,,,,,,,,,101,4,2025-02-24_14h59.26.954,comp,2024.2.4,55.2216341469837,2025-02-24 14h59.37.612079 -0500,
92,92,0,filler_random,None,None,None,None,None,None,None,None,None,None,1,1.4674861431121826,None,,,,,0,0,0,0,0,92,92,152,637.358461856842,,,,,,,,,,,,,,,,,,,,,,,,,,,,,,,,,,,,,,,,,,,,,,,,,,,,,,,,,,,,,,,,,,,,,,,,,,,,,,,,,136.25737244894768,178.95983259781065,187.52452373693924,80.6765599109959,152.07310880341214,58.610238697864645,1.0,1.3,254,-288,480,-274,646,-251,637.3430178165436,637.3430969715118,637.3469798564911,637.358461856842,637.5065565109253,637.5065565109253,637.5065565109253,637.5065565109253,637.5065565109253,637.5065565109253,637.5065565109253,638.8290598392487,1,1.4674861431121826,None,,,,,,,,,,,,,,,,,,101,4,2025-02-24_14h59.26.954,comp,2024.2.4,55.2216341469837,2025-02-24 14h59.37.612079 -0500,
93,93,0,critical,dwh,35.0,4.0,lower,70.0,70.0,57.0,133.0,133.0,57.0,2,4.002964735031128,None,,,,,0,0,0,0,0,93,93,64,638.8471722602844,,,,,,,,,,,,,,,,,,,,,,,,,,,,,,,,,,,,,,,,,,,,,,,,,,,,,,,,,,,,,,,,,,,,,,,,,,,,,,,,,70.0,70.0,57.0,133.0,133.0,57.0,4.0,4.2,-198,7,0,-285,191,-1,638.8306171894073,638.8307256698608,638.8341097831726,638.8471722602844,638.9921078681946,638.9921078681946,638.9921078681946,638.9921078681946,638.9921078681946,638.9921078681946,638.9921078681946,642.8566026687622,2,4.002964735031128,None,,,,,,,,,,,,,,,,,,101,4,2025-02-24_14h59.26.954,comp,2024.2.4,55.2216341469837,2025-02-24 14h59.37.612079 -0500,
94,94,0,critical,dhw,35.0,1.0,upper,127.0,127.0,200.0,125.0,125.0,200.0,2,3.4897689819335938,None,,,,,0,0,0,0,0,94,94,49,642.8720378875732,,,,,,,,,,,,,,,,,,,,,,,,,,,,,,,,,,,,,,,,,,,,,,,,,,,,,,,,,,,,,,,,,,,,,,,,,,,,,,,,,127.0,127.0,200.0,125.0,125.0,200.0,1.0,1.3,258,-289,480,-262,738,-253,642.8576745986938,642.8577291965485,642.8596470355988,642.8720378875732,643.0215694904327,643.0215694904327,643.0215694904327,643.0215694904327,643.0215694904327,643.0215694904327,643.0215694904327,646.3744139671326,2,3.4897689819335938,None,,,,,,,,,,,,,,,,,,101,4,2025-02-24_14h59.26.954,comp,2024.2.4,55.2216341469837,2025-02-24 14h59.37.612079 -0500,
95,95,0,critical,hwd,20.0,1.0,lower,133.0,57.0,57.0,133.0,78.0,78.0,2,11.83523178100586,None,,,,,0,0,0,0,0,95,95,102,646.3985226154327,,,,,,,,,,,,,,,,,,,,,,,,,,,,,,,,,,,,,,,,,,,,,,,,,,,,,,,,,,,,,,,,,,,,,,,,,,,,,,,,,133.0,57.0,57.0,133.0,78.0,78.0,1.0,1.2,-191,-16,0,-11,202,-14,646.3758745193481,646.3759496212006,646.3789567947388,646.3985226154327,646.5421807765961,646.5421807765961,646.5421807765961,646.5421807765961,646.5421807765961,646.5421807765961,646.5421807765961,658.2456862926483,2,11.83523178100586,None,,,,,,,,,,,,,,,,,,101,4,2025-02-24_14h59.26.954,comp,2024.2.4,55.2216341469837,2025-02-24 14h59.37.612079 -0500,
96,96,0,filler_random,None,None,None,None,None,None,None,None,None,None,3,1.5470023155212402,None,,,,,0,0,0,0,0,96,96,137,658.2707793712616,,,,,,,,,,,,,,,,,,,,,,,,,,,,,,,,,,,,,,,,,,,,,,,,,,,,,,,,,,,,,,,,,,,,,,,,,,,,,,,,,181.2967516148496,105.2515672674474,60.96997355402933,107.06308542522471,158.94760690357532,157.19169235713875,2.2,2.22,-202,286,0,-282,228,-261,658.2473106384277,658.2473902702332,658.2505543231964,658.2707793712616,658.412514925003,658.412514925003,658.412514925003,658.412514925003,658.412514925003,658.412514925003,658.412514925003,659.8272712230682,3,1.5470023155212402,None,,,,,,,,,,,,,,,,,,101,4,2025-02-24_14h59.26.954,comp,2024.2.4,55.2216341469837,2025-02-24 14h59.37.612079 -0500,
97,97,0,filler_random,None,None,None,None,None,None,None,None,None,None,2,8.68551754951477,None,,,,,0,0,0,0,0,97,97,167,659.84494805336,,,,,,,,,,,,,,,,,,,,,,,,,,,,,,,,,,,,,,,,,,,,,,,,,,,,,,,,,,,,,,,,,,,,,,,,,,,,,,,,,178.83443672073275,133.8710844040834,127.06234594105578,195.31912320469303,158.33254074211396,159.60974251257636,4.0,4.1,-261,-285,0,3,273,-289,659.8288564682007,659.828935623169,659.8318076133728,659.84494805336,659.9842925071716,659.9842925071716,659.9842925071716,659.9842925071716,659.9842925071716,659.9842925071716,659.9842925071716,668.5373466014862,2,8.68551754951477,None,,,,,,,,,,,,,,,,,,101,4,2025-02-24_14h59.26.954,comp,2024.2.4,55.2216341469837,2025-02-24 14h59.37.612079 -0500,
98,98,0,critical,dwh,35.0,3.0,lower,70.0,70.0,57.0,133.0,133.0,57.0,2,6.888136863708496,None,,,,,0,0,0,0,0,98,98,62,668.5547723770142,,,,,,,,,,,,,,,,,,,,,,,,,,,,,,,,,,,,,,,,,,,,,,,,,,,,,,,,,,,,,,,,,,,,,,,,,,,,,,,,,70.0,70.0,57.0,133.0,133.0,57.0,3.0,3.1,-198,253,0,2,191,-257,668.5389058589935,668.5389847755432,668.5418968200684,668.5547723770142,668.7021107673645,668.7021107673645,668.7021107673645,668.7021107673645,668.7021107673645,668.7021107673645,668.7021107673645,675.4494202136993,2,6.888136863708496,None,,,,,,,,,,,,,,,,,,101,4,2025-02-24_14h59.26.954,comp,2024.2.4,55.2216341469837,2025-02-24 14h59.37.612079 -0500,
99,99,0,filler_square,None,None,None,None,None,None,None,None,None,None,1,2.44738507270813,None,,,,,0,0,0,0,0,99,99,170,675.4665110111237,,,,,,,,,,,,,,,,,,,,,,,,,,,,,,,,,,,,,,,,,,,,,,,,,,,,,,,,,,,,,,,,,,,,,,,,,,,,,,,,,105.67530388749582,105.67530388749582,78.10260665813433,101.09639889122302,83.52069889118243,76.86402080682436,1.0,1.1,-679,260,-480,251,-295,271,675.4512722492218,675.4513926506042,675.4546875953674,675.4665110111237,675.6201872825623,675.6201872825623,675.6201872825623,675.6201872825623,675.6201872825623,675.6201872825623,675.6201872825623,677.9185626506805,1,2.44738507270813,None,,,,,,,,,,,,,,,,,,101,4,2025-02-24_14h59.26.954,comp,2024.2.4,55.2216341469837,2025-02-24 14h59.37.612079 -0500,
100,100,0,filler_square,None,None,None,None,None,None,None,None,None,None,2,7.23511004447937,None,,,,,0,0,0,0,0,100,100,178,677.9350352287292,,,,,,,,,,,,,,,,,,,,,,,,,,,,,,,,,,,,,,,,,,,,,,,,,,,,,,,,,,,,,,,,,,,,,,,,,,,,,,,,,75.2100124024939,76.00478088642197,88.37316123011152,88.37316123011152,68.86331595440731,84.35760465979631,2.2,2.21,-178,-250,0,263,182,285,677.920606136322,677.9207186698914,677.9241096973419,677.9350352287292,678.0871648788452,678.0871648788452,678.0871648788452,678.0871648788452,678.0871648788452,678.0871648788452,678.0871648788452,685.1799886226654,2,7.23511004447937,None,,,,,,,,,,,,,,,,,,101,4,2025-02-24_14h59.26.954,comp,2024.2.4,55.2216341469837,2025-02-24 14h59.37.612079 -0500,
101,101,0,critical,dwh,35.0,2.1,lower,70.0,70.0,57.0,133.0,133.0,57.0,2,2.310558319091797,None,,,,,0,0,0,0,0,101,101,4,685.1952919960022,,,,,,,,,,,,,,,,,,,,,,,,,,,,,,,,,,,,,,,,,,,,,,,,,,,,,,,,,,,,,,,,,,,,,,,,,,,,,,,,,70.0,70.0,57.0,133.0,133.0,57.0,2.1,2.12,-198,-265,0,-251,191,253,685.181476354599,685.1815526485443,685.1844127178192,685.1952919960022,685.3374965190887,685.3374965190887,685.3374965190887,685.3374965190887,685.3374965190887,685.3374965190887,685.3374965190887,687.5184359550476,2,2.310558319091797,None,,,,,,,,,,,,,,,,,,101,4,2025-02-24_14h59.26.954,comp,2024.2.4,55.2216341469837,2025-02-24 14h59.37.612079 -0500,
102,102,0,filler_random,None,None,None,None,None,None,None,None,None,None,1,3.9708478450775146,None,,,,,0,0,0,0,0,102,102,146,687.5353002548218,,,,,,,,,,,,,,,,,,,,,,,,,,,,,,,,,,,,,,,,,,,,,,,,,,,,,,,,,,,,,,,,,,,,,,,,,,,,,,,,,112.13394422747949,95.21400993229344,87.26577887262238,125.62946748980434,125.96114804578515,81.68718303054786,4.0,4.2,-206,3,0,-251,200,-12,687.5200073719025,687.5200836658478,687.5229501724243,687.5353002548218,687.7040975093842,687.7040975093842,687.7040975093842,687.7040975093842,687.7040975093842,687.7040975093842,687.7040975093842,691.5090999603271,1,3.9708478450775146,None,,,,,,,,,,,,,,,,,,101,4,2025-02-24_14h59.26.954,comp,2024.2.4,55.2216341469837,2025-02-24 14h59.37.612079 -0500,
103,103,0,critical,whd,20.0,3.0,upper,125.0,200.0,200.0,125.0,141.0,141.0,1,4.43629002571106,None,,,,,0,0,0,0,0,103,103,93,691.5255935192108,,,,,,,,,,,,,,,,,,,,,,,,,,,,,,,,,,,,,,,,,,,,,,,,,,,,,,,,,,,,,,,,,,,,,,,,,,,,,,,,,125.0,200.0,200.0,125.0,141.0,141.0,3.0,3.1,-258,257,0,-8,229,-258,691.510969877243,691.5110509395599,691.5140860080719,691.5255935192108,691.6701691150665,691.6701691150665,691.6701691150665,691.6701691150665,691.6701691150665,691.6701691150665,691.6701691150665,695.9760539531708,1,4.43629002571106,None,,,,,,,,,,,,,,,,,,101,4,2025-02-24_14h59.26.954,comp,2024.2.4,55.2216341469837,2025-02-24 14h59.37.612079 -0500,
104,104,0,critical,dwh,20.0,3.0,lower,78.0,78.0,57.0,133.0,133.0,57.0,3,14.202190160751343,None,,,,,0,0,0,0,0,104,104,68,695.9916884899139,,,,,,,,,,,,,,,,,,,,,,,,,,,,,,,,,,,,,,,,,,,,,,,,,,,,,,,,,,,,,,,,,,,,,,,,,,,,,,,,,78.0,78.0,57.0,133.0,133.0,57.0,3.0,3.2,-202,-263,0,-19,191,272,695.9777593612671,695.9778997898102,695.9813361167908,695.9916884899139,696.1407012939453,696.1407012939453,696.1407012939453,696.1407012939453,696.1407012939453,696.1407012939453,696.1407012939453,710.2110693454742,3,14.202190160751343,None,,,,,,,,,,,,,,,,,,101,4,2025-02-24_14h59.26.954,comp,2024.2.4,55.2216341469837,2025-02-24 14h59.37.612079 -0500,
105,105,0,filler_random,None,None,None,None,None,None,None,None,None,None,3,1.3495934009552002,None,,,,,0,0,0,0,0,105,105,145,710.2287271022797,,,,,,,,,,,,,,,,,,,,,,,,,,,,,,,,,,,,,,,,,,,,,,,,,,,,,,,,,,,,,,,,,,,,,,,,,,,,,,,,,144.15977503790697,148.69276949959237,147.99156330965855,129.04231768277583,175.9236746721241,172.75770852396795,2.2,2.21,-235,-285,0,288,247,281,710.2127459049225,710.2128214836121,710.2160589694977,710.2287271022797,710.3857715129852,710.3857715129852,710.3857715129852,710.3857715129852,710.3857715129852,710.3857715129852,710.3857715129852,711.5822868347168,3,1.3495934009552002,None,,,,,,,,,,,,,,,,,,101,4,2025-02-24_14h59.26.954,comp,2024.2.4,55.2216341469837,2025-02-24 14h59.37.612079 -0500,
106,106,0,filler_square,None,None,None,None,None,None,None,None,None,None,2,2.1561388969421387,None,,,,,0,0,0,0,0,106,106,199,711.5984373092651,,,,,,,,,,,,,,,,,,,,,,,,,,,,,,,,,,,,,,,,,,,,,,,,,,,,,,,,,,,,,,,,,,,,,,,,,,,,,,,,,102.39481708671192,62.073460127428845,103.7276502021208,103.7276502021208,97.76031395769371,70.71494896878788,3.0,3.1,-179,268,0,6,183,-256,711.5840833187103,711.5841627120972,711.5870501995087,711.5984373092651,711.7456786632538,711.7456786632538,711.7456786632538,711.7456786632538,711.7456786632538,711.7456786632538,711.7456786632538,713.7592854499817,2,2.1561388969421387,None,,,,,,,,,,,,,,,,,,101,4,2025-02-24_14h59.26.954,comp,2024.2.4,55.2216341469837,2025-02-24 14h59.37.612079 -0500,
107,107,0,filler_square,None,None,None,None,None,None,None,None,None,None,2,1.3605339527130127,None,,,,,0,0,0,0,0,107,107,206,713.7772319316864,,,,,,,,,,,,,,,,,,,,,,,,,,,,,,,,,,,,,,,,,,,,,,,,,,,,,,,,,,,,,,,,,,,,,,,,,,,,,,,,,99.89996389441254,131.6964184290489,193.12469677801897,193.12469677801897,78.79554606178324,63.570840266245966,4.0,4.2,-258,-10,0,-260,224,-3,713.7609965801239,713.761072397232,713.7639472484589,713.7772319316864,713.9322221279144,713.9322221279144,713.9322221279144,713.9322221279144,713.9322221279144,713.9322221279144,713.9322221279144,715.1519649028778,2,1.3605339527130127,None,,,,,,,,,,,,,,,,,,101,4,2025-02-24_14h59.26.954,comp,2024.2.4,55.2216341469837,2025-02-24 14h59.37.612079 -0500,
108,108,0,critical,whd,20.0,4.0,upper,125.0,200.0,200.0,125.0,141.0,141.0,1,1.8016445636749268,None,,,,,0,0,0,0,0,108,108,95,715.1693048477173,,,,,,,,,,,,,,,,,,,,,,,,,,,,,,,,,,,,,,,,,,,,,,,,,,,,,,,,,,,,,,,,,,,,,,,,,,,,,,,,,125.0,200.0,200.0,125.0,141.0,141.0,4.0,4.2,-258,4,0,-279,229,-3,715.1534214019775,715.1534969806671,715.1564252376556,715.1693048477173,715.3114171028137,715.3114171028137,715.3114171028137,715.3114171028137,715.3114171028137,715.3114171028137,715.3114171028137,716.9823758602142,1,1.8016445636749268,None,,,,,,,,,,,,,,,,,,101,4,2025-02-24_14h59.26.954,comp,2024.2.4,55.2216341469837,2025-02-24 14h59.37.612079 -0500,
109,109,0,filler_square,None,None,None,None,None,None,None,None,None,None,3,2.1002068519592285,None,,,,,0,0,0,0,0,109,109,188,716.9980826377869,,,,,,,,,,,,,,,,,,,,,,,,,,,,,,,,,,,,,,,,,,,,,,,,,,,,,,,,,,,,,,,,,,,,,,,,,,,,,,,,,89.50201916703563,89.50201916703563,75.13804467597944,78.96956429674952,86.75276055550054,63.11390248757873,3.0,3.1,-180,252,0,16,167,-258,716.9842598438263,716.984340429306,716.9873969554901,716.9980826377869,717.1480603218079,717.1480603218079,717.1480603218079,717.1480603218079,717.1480603218079,717.1480603218079,717.1480603218079,719.1160929203033,3,2.1002068519592285,None,,,,,,,,,,,,,,,,,,101,4,2025-02-24_14h59.26.954,comp,2024.2.4,55.2216341469837,2025-02-24 14h59.37.612079 -0500,
110,110,0,critical,whd,20.0,4.0,lower,57.0,133.0,133.0,57.0,78.0,78.0,1,3.858137607574463,None,,,,,0,0,0,0,0,110,110,94,719.1360692977905,,,,,,,,,,,,,,,,,,,,,,,,,,,,,,,,,,,,,,,,,,,,,,,,,,,,,,,,,,,,,,,,,,,,,,,,,,,,,,,,,57.0,133.0,133.0,57.0,78.0,78.0,4.0,4.2,-191,4,0,-281,164,8,719.117603302002,719.1177530288696,719.1209015846252,719.1360692977905,719.2804987430573,719.2804987430573,719.2804987430573,719.2804987430573,719.2804987430573,719.2804987430573,719.2804987430573,722.9989497661591,1,3.858137607574463,None,,,,,,,,,,,,,,,,,,101,4,2025-02-24_14h59.26.954,comp,2024.2.4,55.2216341469837,2025-02-24 14h59.37.612079 -0500,
111,111,0,critical,whd,35.0,2.1,upper,125.0,200.0,200.0,125.0,127.0,127.0,2,7.3416101932525635,None,,,,,0,0,0,0,0,111,111,13,723.0134241580963,,,,,,,,,,,,,,,,,,,,,,,,,,,,,,,,,,,,,,,,,,,,,,,,,,,,,,,,,,,,,,,,,,,,,,,,,,,,,,,,,125.0,200.0,200.0,125.0,127.0,127.0,2.1,2.11,-258,265,0,271,222,-287,723.0004634857178,723.0005407333374,723.0036950111389,723.0134241580963,723.1643371582031,723.1643371582031,723.1643371582031,723.1643371582031,723.1643371582031,723.1643371582031,723.1643371582031,730.3597400188446,2,7.3416101932525635,None,,,,,,,,,,,,,,,,,,101,4,2025-02-24_14h59.26.954,comp,2024.2.4,55.2216341469837,2025-02-24 14h59.37.612079 -0500,
112,112,0,filler_random,None,None,None,None,None,None,None,None,None,None,3,1.65755033493042,None,,,,,0,0,0,0,0,112,112,153,730.37646651268,,,,,,,,,,,,,,,,,,,,,,,,,,,,,,,,,,,,,,,,,,,,,,,,,,,,,,,,,,,,,,,,,,,,,,,,,,,,,,,,,140.92824289383566,60.94583712818033,110.38517230508049,62.52220783311422,162.50487313385554,133.12647262705877,2.1,2.11,-158,282,0,279,194,-258,730.3613901138306,730.3614664077759,730.3647751808167,730.37646651268,730.5167021751404,730.5167021751404,730.5167021751404,730.5167021751404,730.5167021751404,730.5167021751404,730.5167021751404,732.0402448177338,3,1.65755033493042,None,,,,,,,,,,,,,,,,,,101,4,2025-02-24_14h59.26.954,comp,2024.2.4,55.2216341469837,2025-02-24 14h59.37.612079 -0500,
113,113,0,catch,None,None,None,None,None,None,None,None,None,None,2,1.437422275543213,None,,,,,0,0,0,0,0,113,113,125,732.0607657432556,,,,,,,,,,,,,,,,,,,,,,,,,,,,,,,,,,,,,,,,,,,,,,,,,,,,,,,,,,,,,,,,,,,,,,,,,,,,,,,,,130,60,181,144,95,95,2.2,2.21,-198,-272,0,270,216,263,732.0420958995819,732.0421750545502,732.0451214313507,732.0607657432556,732.2025802135468,732.2025802135468,732.2025802135468,732.2025802135468,732.2025802135468,732.2025802135468,732.2025802135468,733.5011596679688,2,1.437422275543213,None,,,,,,,,,,,,,,,,,,101,4,2025-02-24_14h59.26.954,comp,2024.2.4,55.2216341469837,2025-02-24 14h59.37.612079 -0500,
114,114,0,critical,hwd,20.0,4.0,upper,200.0,125.0,125.0,200.0,141.0,141.0,2,3.0686919689178467,None,,,,,0,0,0,0,0,114,114,107,733.5171296596527,,,,,,,,,,,,,,,,,,,,,,,,,,,,,,,,,,,,,,,,,,,,,,,,,,,,,,,,,,,,,,,,,,,,,,,,,,,,,,,,,200.0,125.0,125.0,200.0,141.0,141.0,4.0,4.2,-258,-11,0,-288,266,10,733.5025999546051,733.5027167797089,733.5058159828186,733.5171296596527,733.6661031246185,733.6661031246185,733.6661031246185,733.6661031246185,733.6661031246185,733.6661031246185,733.6661031246185,736.6023278236389,2,3.0686919689178467,None,,,,,,,,,,,,,,,,,,101,4,2025-02-24_14h59.26.954,comp,2024.2.4,55.2216341469837,2025-02-24 14h59.37.612079 -0500,
115,115,0,critical,dhw,35.0,1.0,lower,70.0,70.0,133.0,57.0,57.0,133.0,3,4.271819114685059,None,,,,,0,0,0,0,0,115,115,48,736.618194103241,,,,,,,,,,,,,,,,,,,,,,,,,,,,,,,,,,,,,,,,,,,,,,,,,,,,,,,,,,,,,,,,,,,,,,,,,,,,,,,,,70.0,70.0,133.0,57.0,57.0,133.0,1.0,1.3,320,-259,480,-261,671,-266,736.6038911342621,736.6039679050446,736.6070313453674,736.618194103241,736.7584676742554,736.7584676742554,736.7584676742554,736.7584676742554,736.7584676742554,736.7584676742554,736.7584676742554,740.9047722816467,3,4.271819114685059,None,,,,,,,,,,,,,,,,,,101,4,2025-02-24_14h59.26.954,comp,2024.2.4,55.2216341469837,2025-02-24 14h59.37.612079 -0500,
116,116,0,filler_random,None,None,None,None,None,None,None,None,None,None,1,4.5941712856292725,None,,,,,0,0,0,0,0,116,116,135,740.9202854633331,,,,,,,,,,,,,,,,,,,,,,,,,,,,,,,,,,,,,,,,,,,,,,,,,,,,,,,,,,,,,,,,,,,,,,,,,,,,,,,,,78.55912695023997,199.20266438699693,77.95832067473816,167.9799790364233,93.27974632786203,182.82779926078058,3.0,3.1,-280,283,0,-12,271,-284,740.9064981937408,740.9065766334534,740.9100077152252,740.9202854633331,741.0735695362091,741.0735695362091,741.0735695362091,741.0735695362091,741.0735695362091,741.0735695362091,741.0735695362091,745.5231292247772,1,4.5941712856292725,None,,,,,,,,,,,,,,,,,,101,4,2025-02-24_14h59.26.954,comp,2024.2.4,55.2216341469837,2025-02-24 14h59.37.612079 -0500,
117,117,0,catch,None,None,None,None,None,None,None,None,None,None,1,1.1181390285491943,None,,,,,0,0,0,0,0,117,117,127,745.5396416187286,,,,,,,,,,,,,,,,,,,,,,,,,,,,,,,,,,,,,,,,,,,,,,,,,,,,,,,,,,,,,,,,,,,,,,,,,,,,,,,,,147,178,89,101,114,76,3.0,3.1,-236,287,0,7,184,-259,745.5252592563629,745.5253372192383,745.5288941860199,745.5396416187286,745.6880757808685,745.6880757808685,745.6880757808685,745.6880757808685,745.6880757808685,745.6880757808685,745.6880757808685,746.6724636554718,1,1.1181390285491943,None,,,,,,,,,,,,,,,,,,101,4,2025-02-24_14h59.26.954,comp,2024.2.4,55.2216341469837,2025-02-24 14h59.37.612079 -0500,
118,118,0,filler_random,None,None,None,None,None,None,None,None,None,None,1,6.750089883804321,None,,,,,0,0,0,0,0,118,118,164,746.6917264461517,,,,,,,,,,,,,,,,,,,,,,,,,,,,,,,,,,,,,,,,,,,,,,,,,,,,,,,,,,,,,,,,,,,,,,,,,,,,,,,,,165.2309819927712,60.97805132282005,106.77312812519321,67.00231692521476,97.90146333139242,74.0794937602337,1.0,1.2,-160,16,0,-15,167,-3,746.6740956306458,746.6741693019867,746.6772620677948,746.6917264461517,746.8390531539917,746.8390531539917,746.8390531539917,746.8390531539917,746.8390531539917,746.8390531539917,746.8390531539917,753.4570701122284,1,6.750089883804321,None,,,,,,,,,,,,,,,,,,101,4,2025-02-24_14h59.26.954,comp,2024.2.4,55.2216341469837,2025-02-24 14h59.37.612079 -0500,
119,119,0,critical,dwh,35.0,2.1,upper,127.0,127.0,125.0,200.0,200.0,125.0,2,2.3765721321105957,None,,,,,0,0,0,0,0,119,119,5,753.4732482433319,,,,,,,,,,,,,,,,,,,,,,,,,,,,,,,,,,,,,,,,,,,,,,,,,,,,,,,,,,,,,,,,,,,,,,,,,,,,,,,,,127.0,127.0,125.0,200.0,200.0,125.0,2.1,2.12,-260,-272,0,-252,258,288,753.4586184024811,753.4587261676788,753.4620985984802,753.4732482433319,753.6106951236725,753.6106951236725,753.6106951236725,753.6106951236725,753.6106951236725,753.6106951236725,753.6106951236725,755.8632848262787,2,2.3765721321105957,None,,,,,,,,,,,,,,,,,,101,4,2025-02-24_14h59.26.954,comp,2024.2.4,55.2216341469837,2025-02-24 14h59.37.612079 -0500,
120,120,0,filler_random,None,None,None,None,None,None,None,None,None,None,2,1.6028556823730469,None,,,,,0,0,0,0,0,120,120,161,755.8791382312775,,,,,,,,,,,,,,,,,,,,,,,,,,,,,,,,,,,,,,,,,,,,,,,,,,,,,,,,,,,,,,,,,,,,,,,,,,,,,,,,,133.54533769080837,63.204915152691505,136.69757131982615,151.1880739909056,66.6220488507507,149.17761941362744,2.2,2.22,-203,286,0,-260,246,-279,755.8654503822327,755.8656015396118,755.8688743114471,755.8791382312775,756.0291607379913,756.0291607379913,756.0291607379913,756.0291607379913,756.0291607379913,756.0291607379913,756.0291607379913,757.4861855506897,2,1.6028556823730469,None,,,,,,,,,,,,,,,,,,101,4,2025-02-24_14h59.26.954,comp,2024.2.4,55.2216341469837,2025-02-24 14h59.37.612079 -0500,
121,121,0,critical,wdh,35.0,1.0,upper,125.0,200.0,127.0,127.0,200.0,125.0,3,3.490025520324707,None,,,,,0,0,0,0,0,121,121,73,757.5039005279541,,,,,,,,,,,,,,,,,,,,,,,,,,,,,,,,,,,,,,,,,,,,,,,,,,,,,,,,,,,,,,,,,,,,,,,,,,,,,,,,,125.0,200.0,127.0,127.0,200.0,125.0,1.0,1.2,-260,-10,0,12,222,-8,757.487637758255,757.4877467155457,757.4906332492828,757.5039005279541,757.6432118415833,757.6432118415833,757.6432118415833,757.6432118415833,757.6432118415833,757.6432118415833,757.6432118415833,761.0086388587952,3,3.490025520324707,None,,,,,,,,,,,,,,,,,,101,4,2025-02-24_14h59.26.954,comp,2024.2.4,55.2216341469837,2025-02-24 14h59.37.612079 -0500,
122,122,0,critical,wdh,20.0,3.0,lower,57.0,133.0,78.0,78.0,133.0,57.0,1,2.83406400680542,None,,,,,0,0,0,0,0,122,122,80,761.0240626335144,,,,,,,,,,,,,,,,,,,,,,,,,,,,,,,,,,,,,,,,,,,,,,,,,,,,,,,,,,,,,,,,,,,,,,,,,,,,,,,,,57.0,133.0,78.0,78.0,133.0,57.0,3.0,3.1,-202,285,0,8,164,-278,761.0101044178009,761.010181427002,761.0130624771118,761.0240626335144,761.1607401371002,761.1607401371002,761.1607401371002,761.1607401371002,761.1607401371002,761.1607401371002,761.1607401371002,763.8607096672058,1,2.83406400680542,None,,,,,,,,,,,,,,,,,,101,4,2025-02-24_14h59.26.954,comp,2024.2.4,55.2216341469837,2025-02-24 14h59.37.612079 -0500,
123,123,0,filler_square,None,None,None,None,None,None,None,None,None,None,2,1.4171552658081055,None,,,,,0,0,0,0,0,123,123,191,763.8807573318481,,,,,,,,,,,,,,,,,,,,,,,,,,,,,,,,,,,,,,,,,,,,,,,,,,,,,,,,,,,,,,,,,,,,,,,,,,,,,,,,,150.86570770759164,115.23510107826499,163.0932987553033,163.0932987553033,111.01651272863774,114.70401120058679,3.0,3.2,-235,-260,0,-4,235,284,763.862446308136,763.8625235557556,763.8656847476959,763.8807573318481,764.0289402008057,764.0289402008057,764.0289402008057,764.0289402008057,764.0289402008057,764.0289402008057,764.0289402008057,765.3092818260193,2,1.4171552658081055,None,,,,,,,,,,,,,,,,,,101,4,2025-02-24_14h59.26.954,comp,2024.2.4,55.2216341469837,2025-02-24 14h59.37.612079 -0500,
124,124,0,filler_random,None,None,None,None,None,None,None,None,None,None,3,1.7154650688171387,None,,,,,0,0,0,0,0,124,124,157,765.326336145401,,,,,,,,,,,,,,,,,,,,,,,,,,,,,,,,,,,,,,,,,,,,,,,,,,,,,,,,,,,,,,,,,,,,,,,,,,,,,,,,,108.72127532393128,176.13581964795625,89.45530336872733,177.291492419752,177.32960721887468,145.9718300445349,4.0,4.2,-273,-12,0,-284,258,10,765.3110010623932,765.3110761642456,765.3139641284943,765.326336145401,765.4651787281036,765.4651787281036,765.4651787281036,765.4651787281036,765.4651787281036,765.4651787281036,765.4651787281036,767.0519549846649,3,1.7154650688171387,None,,,,,,,,,,,,,,,,,,101,4,2025-02-24_14h59.26.954,comp,2024.2.4,55.2216341469837,2025-02-24 14h59.37.612079 -0500,
125,125,0,critical,whd,35.0,3.0,upper,125.0,200.0,200.0,125.0,127.0,127.0,1,3.9584343433380127,None,,,,,0,0,0,0,0,125,125,87,767.0679059028625,,,,,,,,,,,,,,,,,,,,,,,,,,,,,,,,,,,,,,,,,,,,,,,,,,,,,,,,,,,,,,,,,,,,,,,,,,,,,,,,,125.0,200.0,200.0,125.0,127.0,127.0,3.0,3.2,-258,-289,0,11,222,271,767.0534348487854,767.053512096405,767.0563852787018,767.0679059028625,767.2129027843475,767.2129027843475,767.2129027843475,767.2129027843475,767.2129027843475,767.2129027843475,767.2129027843475,771.0313835144043,1,3.9584343433380127,None,,,,,,,,,,,,,,,,,,101,4,2025-02-24_14h59.26.954,comp,2024.2.4,55.2216341469837,2025-02-24 14h59.37.612079 -0500,
126,126,0,critical,dhw,20.0,2.1,upper,141.0,141.0,200.0,125.0,125.0,200.0,2,6.163116693496704,None,,,,,0,0,0,0,0,126,126,3,771.0473775863647,,,,,,,,,,,,,,,,,,,,,,,,,,,,,,,,,,,,,,,,,,,,,,,,,,,,,,,,,,,,,,,,,,,,,,,,,,,,,,,,,141.0,141.0,200.0,125.0,125.0,200.0,2.1,2.12,-229,-266,0,-281,258,276,771.0329995155334,771.0330755710602,771.0365447998047,771.0473775863647,771.201105594635,771.201105594635,771.201105594635,771.201105594635,771.201105594635,771.201105594635,771.201105594635,777.2161269187927,2,6.163116693496704,None,,,,,,,,,,,,,,,,,,101,4,2025-02-24_14h59.26.954,comp,2024.2.4,55.2216341469837,2025-02-24 14h59.37.612079 -0500,
127,127,0,critical,hdw,20.0,4.0,lower,133.0,57.0,78.0,78.0,57.0,133.0,3,3.1695282459259033,None,,,,,0,0,0,0,0,127,127,118,777.2323751449585,,,,,,,,,,,,,,,,,,,,,,,,,,,,,,,,,,,,,,,,,,,,,,,,,,,,,,,,,,,,,,,,,,,,,,,,,,,,,,,,,133.0,57.0,78.0,78.0,57.0,133.0,4.0,4.1,-164,-287,0,-6,202,-281,777.2176060676575,777.2177104949951,777.2210450172424,777.2323751449585,777.3808169364929,777.3808169364929,777.3808169364929,777.3808169364929,777.3808169364929,777.3808169364929,777.3808169364929,780.4167246818542,3,3.1695282459259033,None,,,,,,,,,,,,,,,,,,101,4,2025-02-24_14h59.26.954,comp,2024.2.4,55.2216341469837,2025-02-24 14h59.37.612079 -0500,
128,128,0,catch,None,None,None,None,None,None,None,None,None,None,1,1.6659491062164307,None,,,,,0,0,0,0,0,128,128,129,780.4324598312378,,,,,,,,,,,,,,,,,,,,,,,,,,,,,,,,,,,,,,,,,,,,,,,,,,,,,,,,,,,,,,,,,,,,,,,,,,,,,,,,,189,136,85,105,117,73,1.0,1.1,-696,255,-480,267,-295,286,780.4187095165253,780.4187920093536,780.4222047328949,780.4324598312378,780.5866348743439,780.5866348743439,780.5866348743439,780.5866348743439,780.5866348743439,780.5866348743439,780.5866348743439,782.1008400917053,1,1.6659491062164307,None,,,,,,,,,,,,,,,,,,101,4,2025-02-24_14h59.26.954,comp,2024.2.4,55.2216341469837,2025-02-24 14h59.37.612079 -0500,
129,129,0,filler_square,None,None,None,None,None,None,None,None,None,None,1,2.1561872959136963,None,,,,,0,0,0,0,0,129,129,181,782.1176087856293,,,,,,,,,,,,,,,,,,,,,,,,,,,,,,,,,,,,,,,,,,,,,,,,,,,,,,,,,,,,,,,,,,,,,,,,,,,,,,,,,120.71225607112984,120.71225607112984,76.27749031838557,82.82771477002629,74.08070398165259,77.54106640212271,2.2,2.22,-198,270,0,-261,176,-271,782.1026301383972,782.1027419567108,782.1060671806335,782.1176087856293,782.2672698497772,782.2672698497772,782.2672698497772,782.2672698497772,782.2672698497772,782.2672698497772,782.2672698497772,784.2837467193604,1,2.1561872959136963,None,,,,,,,,,,,,,,,,,,101,4,2025-02-24_14h59.26.954,comp,2024.2.4,55.2216341469837,2025-02-24 14h59.37.612079 -0500,
130,130,0,filler_square,None,None,None,None,None,None,None,None,None,None,1,1.5693385601043701,None,,,,,0,0,0,0,0,130,130,207,784.3044810295105,,,,,,,,,,,,,,,,,,,,,,,,,,,,,,,,,,,,,,,,,,,,,,,,,,,,,,,,,,,,,,,,,,,,,,,,,,,,,,,,,155.8561759595427,155.8561759595427,89.46413900416016,93.93192638117262,111.71709133093478,58.53607605102954,2.1,2.12,-221,-254,0,-264,172,251,784.285706281662,784.2858021259308,784.2890419960022,784.3044810295105,784.45072889328,784.45072889328,784.45072889328,784.45072889328,784.45072889328,784.45072889328,784.45072889328,785.8891446590424,1,1.5693385601043701,None,,,,,,,,,,,,,,,,,,101,4,2025-02-24_14h59.26.954,comp,2024.2.4,55.2216341469837,2025-02-24 14h59.37.612079 -0500,
131,131,0,filler_random,None,None,None,None,None,None,None,None,None,None,2,1.6998112201690674,None,,,,,0,0,0,0,0,131,131,138,785.910046339035,,,,,,,,,,,,,,,,,,,,,,,,,,,,,,,,,,,,,,,,,,,,,,,,,,,,,,,,,,,,,,,,,,,,,,,,,,,,,,,,,100.63937688425213,181.4131881606635,135.01815449416483,147.46038254001272,176.0222792626987,89.0127949372771,2.1,2.12,-260,-268,0,-252,214,284,785.8908455371857,785.8909583091736,785.8942844867706,785.910046339035,786.0529229640961,786.0529229640961,786.0529229640961,786.0529229640961,786.0529229640961,786.0529229640961,786.0529229640961,787.6193673610687,2,1.6998112201690674,None,,,,,,,,,,,,,,,,,,101,4,2025-02-24_14h59.26.954,comp,2024.2.4,55.2216341469837,2025-02-24 14h59.37.612079 -0500,
132,132,0,critical,dhw,35.0,2.1,upper,127.0,127.0,200.0,125.0,125.0,200.0,3,1.8484172821044922,None,,,,,0,0,0,0,0,132,132,25,787.6341271400452,,,,,,,,,,,,,,,,,,,,,,,,,,,,,,,,,,,,,,,,,,,,,,,,,,,,,,,,,,,,,,,,,,,,,,,,,,,,,,,,,127.0,127.0,200.0,125.0,125.0,200.0,2.1,2.11,-222,264,0,277,258,-264,787.6209177970886,787.6209955215454,787.6243097782135,787.6341271400452,787.7738964557648,787.7738964557648,787.7738964557648,787.7738964557648,787.7738964557648,787.7738964557648,787.7738964557648,789.4887692928314,3,1.8484172821044922,None,,,,,,,,,,,,,,,,,,101,4,2025-02-24_14h59.26.954,comp,2024.2.4,55.2216341469837,2025-02-24 14h59.37.612079 -0500,
133,133,0,critical,hdw,35.0,2.1,lower,133.0,57.0,70.0,70.0,57.0,133.0,3,2.4326257705688477,None,,,,,0,0,0,0,0,133,133,44,789.5053582191467,,,,,,,,,,,,,,,,,,,,,,,,,,,,,,,,,,,,,,,,,,,,,,,,,,,,,,,,,,,,,,,,,,,,,,,,,,,,,,,,,133.0,57.0,70.0,70.0,57.0,133.0,2.1,2.12,-160,-265,0,-282,198,285,789.4905433654785,789.4907002449036,789.4938385486603,789.5053582191467,789.6531205177307,789.6531205177307,789.6531205177307,789.6531205177307,789.6531205177307,789.6531205177307,789.6531205177307,791.9411025047302,3,2.4326257705688477,None,,,,,,,,,,,,,,,,,,101,4,2025-02-24_14h59.26.954,comp,2024.2.4,55.2216341469837,2025-02-24 14h59.37.612079 -0500,
134,134,0,filler_square,None,None,None,None,None,None,None,None,None,None,2,1.2687768936157227,None,,,,,0,0,0,0,0,134,134,194,791.957269191742,,,,,,,,,,,,,,,,,,,,,,,,,,,,,,,,,,,,,,,,,,,,,,,,,,,,,,,,,,,,,,,,,,,,,,,,,,,,,,,,,158.18065677089166,112.12741814347338,191.9169125393298,191.9169125393298,189.818559997543,63.30808004146835,3.0,3.2,-248,-265,0,-8,224,269,791.9434506893158,791.9435336589813,791.9464957714081,791.957269191742,792.1089506149292,792.1089506149292,792.1089506149292,792.1089506149292,792.1089506149292,792.1089506149292,792.1089506149292,793.2364642620087,2,1.2687768936157227,None,,,,,,,,,,,,,,,,,,101,4,2025-02-24_14h59.26.954,comp,2024.2.4,55.2216341469837,2025-02-24 14h59.37.612079 -0500,
135,135,0,filler_random,None,None,None,None,None,None,None,None,None,None,2,1.604567527770996,None,,,,,0,0,0,0,0,135,135,163,793.2534010410309,,,,,,,,,,,,,,,,,,,,,,,,,,,,,,,,,,,,,,,,,,,,,,,,,,,,,,,,,,,,,,,,,,,,,,,,,,,,,,,,,106.34452579475015,178.20488295055247,166.3933306106433,159.2929604227902,180.37113015751885,93.35273226504646,1.0,1.3,215,-271,480,-252,702,-255,793.2381181716919,793.2381958961487,793.2412655353546,793.2534010410309,793.4041850566864,793.4041850566864,793.4041850566864,793.4041850566864,793.4041850566864,793.4041850566864,793.4041850566864,794.8723948001862,2,1.604567527770996,None,,,,,,,,,,,,,,,,,,101,4,2025-02-24_14h59.26.954,comp,2024.2.4,55.2216341469837,2025-02-24 14h59.37.612079 -0500,
136,136,0,critical,hwd,20.0,3.0,upper,200.0,125.0,125.0,200.0,141.0,141.0,2,3.149573564529419,None,,,,,0,0,0,0,0,136,136,105,794.8924698829651,,,,,,,,,,,,,,,,,,,,,,,,,,,,,,,,,,,,,,,,,,,,,,,,,,,,,,,,,,,,,,,,,,,,,,,,,,,,,,,,,200.0,125.0,125.0,200.0,141.0,141.0,3.0,3.1,-258,274,0,-8,266,-273,794.8738980293274,794.8739740848541,794.8770701885223,794.8924698829651,795.0383532047272,795.0383532047272,795.0383532047272,795.0383532047272,795.0383532047272,795.0383532047272,795.0383532047272,798.0443549156189,2,3.149573564529419,None,,,,,,,,,,,,,,,,,,101,4,2025-02-24_14h59.26.954,comp,2024.2.4,55.2216341469837,2025-02-24 14h59.37.612079 -0500,
137,137,0,critical,dwh,35.0,3.0,upper,127.0,127.0,125.0,200.0,200.0,125.0,3,5.370282411575317,None,,,,,0,0,0,0,0,137,137,63,798.0645034313202,,,,,,,,,,,,,,,,,,,,,,,,,,,,,,,,,,,,,,,,,,,,,,,,,,,,,,,,,,,,,,,,,,,,,,,,,,,,,,,,,127.0,127.0,125.0,200.0,200.0,125.0,3.0,3.1,-260,255,0,10,258,-268,798.0458946228027,798.0459713935852,798.0488653182983,798.0645034313202,798.2064344882965,798.2064344882965,798.2064344882965,798.2064344882965,798.2064344882965,798.2064344882965,798.2064344882965,803.4392476081848,3,5.370282411575317,None,,,,,,,,,,,,,,,,,,101,4,2025-02-24_14h59.26.954,comp,2024.2.4,55.2216341469837,2025-02-24 14h59.37.612079 -0500,
138,138,0,critical,hdw,20.0,2.1,upper,200.0,125.0,141.0,141.0,125.0,200.0,3,5.098839998245239,None,,,,,0,0,0,0,0,138,138,47,803.4555642604828,,,,,,,,,,,,,,,,,,,,,,,,,,,,,,,,,,,,,,,,,,,,,,,,,,,,,,,,,,,,,,,,,,,,,,,,,,,,,,,,,200.0,125.0,141.0,141.0,125.0,200.0,2.1,2.11,-229,253,0,258,266,-281,803.4407780170441,803.4408559799194,803.4438283443451,803.4555642604828,803.6104550361633,803.6104550361633,803.6104550361633,803.6104550361633,803.6104550361633,803.6104550361633,803.6104550361633,808.5636868476868,3,5.098839998245239,None,,,,,,,,,,,,,,,,,,101,4,2025-02-24_14h59.26.954,comp,2024.2.4,55.2216341469837,2025-02-24 14h59.37.612079 -0500,
139,139,0,critical,hwd,20.0,2.1,upper,200.0,125.0,125.0,200.0,141.0,141.0,2,3.3619134426116943,None,,,,,0,0,0,0,0,139,139,19,808.5840797424316,,,,,,,,,,,,,,,,,,,,,,,,,,,,,,,,,,,,,,,,,,,,,,,,,,,,,,,,,,,,,,,,,,,,,,,,,,,,,,,,,200.0,125.0,125.0,200.0,141.0,141.0,2.1,2.12,-258,-287,0,-287,266,272,808.5652482509613,808.5653250217438,808.5685954093933,808.5840797424316,808.7265758514404,808.7265758514404,808.7265758514404,808.7265758514404,808.7265758514404,808.7265758514404,808.7265758514404,811.949963092804,2,3.3619134426116943,None,,,,,,,,,,,,,,,,,,101,4,2025-02-24_14h59.26.954,comp,2024.2.4,55.2216341469837,2025-02-24 14h59.37.612079 -0500,
140,140,0,filler_random,None,None,None,None,None,None,None,None,None,None,3,7.335562229156494,None,,,,,0,0,0,0,0,140,140,133,811.970920085907,,,,,,,,,,,,,,,,,,,,,,,,,,,,,,,,,,,,,,,,,,,,,,,,,,,,,,,,,,,,,,,,,,,,,,,,,,,,,,,,,161.69344581520173,156.69829716119864,111.05188938845654,168.90889422536583,191.9391587406733,125.52525725906068,4.0,4.1,-259,-287,0,13,243,-289,811.9517292976379,811.9518637657166,811.9551985263824,811.970920085907,812.1105840206146,812.1105840206146,812.1105840206146,812.1105840206146,812.1105840206146,812.1105840206146,812.1105840206146,819.309280872345,3,7.335562229156494,None,,,,,,,,,,,,,,,,,,101,4,2025-02-24_14h59.26.954,comp,2024.2.4,55.2216341469837,2025-02-24 14h59.37.612079 -0500,
