thisN,thisTrialN,thisRepN,effect,order,distance,config,diag,h_1,w_1,h_2,w_2,h_3,w_3,rect_choice.keys,rect_choice.rt,rect_choice.duration,instructions_loop.thisRepN,instructions_loop.thisTrialN,instructions_loop.thisN,instructions_loop.thisIndex,blocks.thisRepN,blocks.thisTrialN,blocks.thisN,blocks.thisIndex,trials.thisRepN,trials.thisTrialN,trials.thisN,trials.thisIndex,thisRow.t,notes,consent.started,agree_button.started,decline_button.started,consent_img.started,mouse.started,consent.stopped,agree_button.numClicks,agree_button.timesOn,agree_button.timesOff,decline_button.numClicks,decline_button.timesOn,decline_button.timesOff,mouse.x,mouse.y,mouse.leftButton,mouse.midButton,mouse.rightButton,mouse.time,mouse.clicked_name,exp_params.started,exp_params.stopped,welcome.started,welcome_text.started,welcome.stopped,instructions_1.started,instructions_1_text_1.started,instructions_1_text_2.started,key_resp.started,instructions_1.stopped,instructions_loop.key_resp.keys,instructions_loop.key_resp.rt,instructions_loop.key_resp.duration,instructions_2.started,instructions_2_text_1.started,instructions_2_text_2.started,key_resp_2.started,instructions_2.stopped,instructions_loop.key_resp_2.keys,instructions_loop.key_resp_2.rt,instructions_loop.key_resp_2.duration,instructions_3.started,instructions_3_text_1.started,r1_instr3.started,r2_instr3.started,r3_instr3.started,r1_instr3_label.started,r2_instr3_label.started,r3_instr3_label.started,instructions_3_text_3.started,instructions_3_text_4.started,key_resp_3.started,instructions_3.stopped,instructions_loop.key_resp_3.keys,instructions_loop.key_resp_3.rt,instructions_loop.key_resp_3.duration,instructions_4.started,instructions_4_text_1.started,instructions_4_text_3.started,instructions_4_text_2.started,key_resp_4.started,instructions_4.stopped,instructions_loop.key_resp_4.keys,instructions_loop.key_resp_4.rt,instructions_loop.key_resp_4.duration,instructions_5.started,instructions_5_text_1.started,instructions_5_text_2.started,key_resp_5.started,instructions_5.stopped,instructions_loop.key_resp_5.keys,instructions_loop.key_resp_5.rt,instructions_loop.key_resp_5.duration,start_exp.started,start_exp_text.started,key_resp_6.started,start_exp.stopped,key_resp_6.keys,key_resp_6.rt,key_resp_6.duration,h_1_tmp,w_1_tmp,h_2_tmp,w_2_tmp,h_3_tmp,w_3_tmp,config_tmp,config_tmp_1,r_1_x,r_1_y,r_2_x,r_2_y,r_3_x,r_3_y,pre_trial.started,pre_trial.stopped,choice_trial.started,rect_choice.started,r_1.started,r_2.started,r_3.started,r_1_label.started,r_2_label.started,r_3_label.started,prompt.started,choice_trial.stopped,trials.rect_choice.keys,trials.rect_choice.rt,trials.rect_choice.duration,end_block.started,end_block_text.started,end_block.stopped,end.started,end_text.started,key_resp_7.started,end.stopped,key_resp_7.keys,key_resp_7.rt,key_resp_7.duration,debriefing.started,debrief_form.started,end_debrief.started,debriefing.stopped,end_debrief.keys,end_debrief.rt,end_debrief.duration,participant,computer,date,expName,psychopyVersion,frameRate,expStart,
,,,,,,,,,,,,,,,,,,,,,,,,,,,,,,,0.015125036239624023,0.03534245491027832,0.03534245491027832,0.03534245491027832,0.01491236686706543,6.500898838043213,1,[6.463275194168091],[6.463296413421631],0,,,[-65.0],[-511.0],[1],[0],[0],[6.485290765762329],['agree_button'],,,,,,,,,,,,,,,,,,,,,,,,,,,,,,,,,,,,,,,,,,,,,,,,,,,,,,,,,,,,,,,,,,,,,,,,,,,,,,,,,,,,,,,,,,,,,,,,,,,,,,,,,,,102,1,2025-02-24_16h10.25.117,comp,2024.2.4,54.30581252775624,2025-02-24 16h10.35.986839 -0500,
,,,,,,,,,,,,,,,,,,,,,,,,,,,,,,,,,,,,,,,,,,,,,,,,,,6.501323938369751,6.501385450363159,,,,,,,,,,,,,,,,,,,,,,,,,,,,,,,,,,,,,,,,,,,,,,,,,,,,,,,,,,,,,,,,,,,,,,,,,,,,,,,,,,,,,,,,,,,,,,,,,,,,,,,,,102,1,2025-02-24_16h10.25.117,comp,2024.2.4,54.30581252775624,2025-02-24 16h10.35.986839 -0500,
,,,,,,,,,,,,,,,,,,,,,,,,,,,,,,,,,,,,,,,,,,,,,,,,,,,,6.501424789428711,6.519158840179443,8.502780675888062,,,,,,,,,,,,,,,,,,,,,,,,,,,,,,,,,,,,,,,,,,,,,,,,,,,,,,,,,,,,,,,,,,,,,,,,,,,,,,,,,,,,,,,,,,,,,,,,,,,,,,102,1,2025-02-24_16h10.25.117,comp,2024.2.4,54.30581252775624,2025-02-24 16h10.35.986839 -0500,
0,0,0,,,,,,,,,,,,,,,0,0,0,0,,,,,,,,,8.516986608505249,,,,,,,,,,,,,,,,,,,,,,,,,,8.503679037094116,8.516986608505249,8.516986608505249,10.002851009368896,12.919521570205688,space,2.899137020111084,None,12.919689416885376,12.936310291290283,12.936310291290283,14.420721530914307,15.538145780563354,space,1.1135828495025635,None,15.538289546966553,15.571340799331665,15.571340799331665,15.571340799331665,15.571340799331665,15.571340799331665,15.571340799331665,15.571340799331665,15.571340799331665,15.571340799331665,17.043591022491455,19.032794713974,space,1.9786648750305176,None,19.03294801712036,19.050212860107422,19.050212860107422,19.050212860107422,20.540155172348022,32.57696318626404,space,12.025907516479492,None,32.57711410522461,32.5966055393219,32.5966055393219,34.07734513282776,35.22888469696045,space,1.1452531814575195,None,35.22908020019531,35.24410009384155,35.24410009384155,42.68465542793274,space,7.43456244468689,None,,,,,,,,,,,,,,,,,,,,,,,,,,,,,,,,,,,,,,,,,,,,,,,102,1,2025-02-24_16h10.25.117,comp,2024.2.4,54.30581252775624,2025-02-24 16h10.35.986839 -0500,
0,0,0,filler_square,None,None,None,None,None,None,None,None,None,None,2,4.779167175292969,None,,,,,0,0,0,0,0,0,0,172,42.755006551742554,,,,,,,,,,,,,,,,,,,,,,,,,,,,,,,,,,,,,,,,,,,,,,,,,,,,,,,,,,,,,,,,,,,,,,,,,,,,,,,,,69.21603148755881,148.2053435072413,176.57339063105417,176.57339063105417,106.82257186352949,118.74773263938022,1.0,1.3,222,-267,480,-254,724,-267,42.744001626968384,42.74403524398804,42.74522018432617,42.755006551742554,42.90587830543518,42.90587830543518,42.90587830543518,42.90587830543518,42.90587830543518,42.90587830543518,42.90587830543518,47.54918694496155,2,4.779167175292969,None,,,,,,,,,,,,,,,,,,102,1,2025-02-24_16h10.25.117,comp,2024.2.4,54.30581252775624,2025-02-24 16h10.35.986839 -0500,
1,1,0,catch,None,None,None,None,None,None,None,None,None,None,2,2.321171283721924,None,,,,,0,0,0,0,0,1,1,127,47.56493401527405,,,,,,,,,,,,,,,,,,,,,,,,,,,,,,,,,,,,,,,,,,,,,,,,,,,,,,,,,,,,,,,,,,,,,,,,,,,,,,,,,102,88,180,145,106,84,2.1,2.12,-212,-251,0,-255,210,289,47.55131793022156,47.551385164260864,47.55472683906555,47.56493401527405,47.721193075180054,47.721193075180054,47.721193075180054,47.721193075180054,47.721193075180054,47.721193075180054,47.721193075180054,49.908169984817505,2,2.321171283721924,None,,,,,,,,,,,,,,,,,,102,1,2025-02-24_16h10.25.117,comp,2024.2.4,54.30581252775624,2025-02-24 16h10.35.986839 -0500,
2,2,0,critical,dhw,35.0,4.0,lower,70.0,70.0,133.0,57.0,57.0,133.0,3,4.286493539810181,None,,,,,0,0,0,0,0,2,2,52,49.92808294296265,,,,,,,,,,,,,,,,,,,,,,,,,,,,,,,,,,,,,,,,,,,,,,,,,,,,,,,,,,,,,,,,,,,,,,,,,,,,,,,,,70.0,70.0,133.0,57.0,57.0,133.0,4.0,4.1,-160,-258,0,13,191,-285,49.90969800949097,49.90977430343628,49.912792682647705,49.92808294296265,50.06688952445984,50.06688952445984,50.06688952445984,50.06688952445984,50.06688952445984,50.06688952445984,50.06688952445984,54.21817231178284,3,4.286493539810181,None,,,,,,,,,,,,,,,,,,102,1,2025-02-24_16h10.25.117,comp,2024.2.4,54.30581252775624,2025-02-24 16h10.35.986839 -0500,
3,3,0,critical,whd,35.0,4.0,lower,57.0,133.0,133.0,57.0,70.0,70.0,2,3.163881301879883,None,,,,,0,0,0,0,0,3,3,88,54.23492646217346,,,,,,,,,,,,,,,,,,,,,,,,,,,,,,,,,,,,,,,,,,,,,,,,,,,,,,,,,,,,,,,,,,,,,,,,,,,,,,,,,57.0,133.0,133.0,57.0,70.0,70.0,4.0,4.1,-191,-282,0,-19,160,-286,54.21981167793274,54.219945192337036,54.223487854003906,54.23492646217346,54.38215446472168,54.38215446472168,54.38215446472168,54.38215446472168,54.38215446472168,54.38215446472168,54.38215446472168,57.403589725494385,2,3.163881301879883,None,,,,,,,,,,,,,,,,,,102,1,2025-02-24_16h10.25.117,comp,2024.2.4,54.30581252775624,2025-02-24 16h10.35.986839 -0500,
4,4,0,critical,dhw,35.0,3.0,lower,70.0,70.0,133.0,57.0,57.0,133.0,3,2.979052782058716,None,,,,,0,0,0,0,0,4,4,50,57.41959357261658,,,,,,,,,,,,,,,,,,,,,,,,,,,,,,,,,,,,,,,,,,,,,,,,,,,,,,,,,,,,,,,,,,,,,,,,,,,,,,,,,70.0,70.0,133.0,57.0,57.0,133.0,3.0,3.1,-160,267,0,-6,191,-280,57.40518832206726,57.40526533126831,57.40882611274719,57.41959357261658,57.569873094558716,57.569873094558716,57.569873094558716,57.569873094558716,57.569873094558716,57.569873094558716,57.569873094558716,60.40409255027771,3,2.979052782058716,None,,,,,,,,,,,,,,,,,,102,1,2025-02-24_16h10.25.117,comp,2024.2.4,54.30581252775624,2025-02-24 16h10.35.986839 -0500,
5,5,0,critical,hdw,20.0,3.0,lower,133.0,57.0,78.0,78.0,57.0,133.0,3,3.7240278720855713,None,,,,,0,0,0,0,0,5,5,116,60.419870376586914,,,,,,,,,,,,,,,,,,,,,,,,,,,,,,,,,,,,,,,,,,,,,,,,,,,,,,,,,,,,,,,,,,,,,,,,,,,,,,,,,133.0,57.0,78.0,78.0,57.0,133.0,3.0,3.1,-164,265,0,-10,202,-261,60.405595779418945,60.40567350387573,60.40916609764099,60.419870376586914,60.56947350502014,60.56947350502014,60.56947350502014,60.56947350502014,60.56947350502014,60.56947350502014,60.56947350502014,64.15518045425415,3,3.7240278720855713,None,,,,,,,,,,,,,,,,,,102,1,2025-02-24_16h10.25.117,comp,2024.2.4,54.30581252775624,2025-02-24 16h10.35.986839 -0500,
6,6,0,catch,None,None,None,None,None,None,None,None,None,None,1,2.1387999057769775,None,,,,,0,0,0,0,0,6,6,124,64.17129254341125,,,,,,,,,,,,,,,,,,,,,,,,,,,,,,,,,,,,,,,,,,,,,,,,,,,,,,,,,,,,,,,,,,,,,,,,,,,,,,,,,191,134,64,126,132,58,1.0,1.1,-706,275,-480,269,-292,284,64.15717935562134,64.15725755691528,64.16061425209045,64.17129254341125,64.32407402992249,64.32407402992249,64.32407402992249,64.32407402992249,64.32407402992249,64.32407402992249,64.32407402992249,66.32649683952332,1,2.1387999057769775,None,,,,,,,,,,,,,,,,,,102,1,2025-02-24_16h10.25.117,comp,2024.2.4,54.30581252775624,2025-02-24 16h10.35.986839 -0500,
7,7,0,filler_random,None,None,None,None,None,None,None,None,None,None,3,2.195735454559326,None,,,,,0,0,0,0,0,7,7,165,66.34644055366516,,,,,,,,,,,,,,,,,,,,,,,,,,,,,,,,,,,,,,,,,,,,,,,,,,,,,,,,,,,,,,,,,,,,,,,,,,,,,,,,,60.25356012533861,71.13528879303314,82.16379934486775,174.98251851198836,158.75953836963188,140.0086196424672,2.2,2.22,-219,266,0,-279,253,-274,66.32875967025757,66.3288357257843,66.3318235874176,66.34644055366516,66.48858833312988,66.48858833312988,66.48858833312988,66.48858833312988,66.48858833312988,66.48858833312988,66.48858833312988,68.55876350402832,3,2.195735454559326,None,,,,,,,,,,,,,,,,,,102,1,2025-02-24_16h10.25.117,comp,2024.2.4,54.30581252775624,2025-02-24 16h10.35.986839 -0500,
8,8,0,critical,hdw,20.0,3.0,upper,200.0,125.0,141.0,141.0,125.0,200.0,3,1.6321258544921875,None,,,,,0,0,0,0,0,8,8,117,68.57399153709412,,,,,,,,,,,,,,,,,,,,,,,,,,,,,,,,,,,,,,,,,,,,,,,,,,,,,,,,,,,,,,,,,,,,,,,,,,,,,,,,,200.0,125.0,141.0,141.0,125.0,200.0,3.0,3.2,-229,-275,0,-3,266,252,68.56041598320007,68.56049132347107,68.56378078460693,68.57399153709412,68.72674775123596,68.72674775123596,68.72674775123596,68.72674775123596,68.72674775123596,68.72674775123596,68.72674775123596,70.22462344169617,3,1.6321258544921875,None,,,,,,,,,,,,,,,,,,102,1,2025-02-24_16h10.25.117,comp,2024.2.4,54.30581252775624,2025-02-24 16h10.35.986839 -0500,
9,9,0,filler_random,None,None,None,None,None,None,None,None,None,None,2,1.7174057960510254,None,,,,,0,0,0,0,0,9,9,146,70.24075937271118,,,,,,,,,,,,,,,,,,,,,,,,,,,,,,,,,,,,,,,,,,,,,,,,,,,,,,,,,,,,,,,,,,,,,,,,,,,,,,,,,190.14637817832144,73.43933330599253,181.12588574043275,194.29712501211273,196.12099838261554,83.93283523820934,1.0,1.2,-230,-12,0,-9,235,-12,70.22647786140442,70.22662162780762,70.23050689697266,70.24075937271118,70.39082098007202,70.39082098007202,70.39082098007202,70.39082098007202,70.39082098007202,70.39082098007202,70.39082098007202,71.97360372543335,2,1.7174057960510254,None,,,,,,,,,,,,,,,,,,102,1,2025-02-24_16h10.25.117,comp,2024.2.4,54.30581252775624,2025-02-24 16h10.35.986839 -0500,
10,10,0,critical,dhw,35.0,2.1,lower,70.0,70.0,133.0,57.0,57.0,133.0,3,1.9686858654022217,None,,,,,0,0,0,0,0,10,10,0,71.98935389518738,,,,,,,,,,,,,,,,,,,,,,,,,,,,,,,,,,,,,,,,,,,,,,,,,,,,,,,,,,,,,,,,,,,,,,,,,,,,,,,,,70.0,70.0,133.0,57.0,57.0,133.0,2.1,2.11,-160,256,0,287,191,-253,71.97519016265869,71.975270986557,71.9789559841156,71.98935389518738,72.14118480682373,72.14118480682373,72.14118480682373,72.14118480682373,72.14118480682373,72.14118480682373,72.14118480682373,73.9698543548584,3,1.9686858654022217,None,,,,,,,,,,,,,,,,,,102,1,2025-02-24_16h10.25.117,comp,2024.2.4,54.30581252775624,2025-02-24 16h10.35.986839 -0500,
11,11,0,filler_square,None,None,None,None,None,None,None,None,None,None,3,1.845067024230957,None,,,,,0,0,0,0,0,11,11,199,73.98597621917725,,,,,,,,,,,,,,,,,,,,,,,,,,,,,,,,,,,,,,,,,,,,,,,,,,,,,,,,,,,,,,,,,,,,,,,,,,,,,,,,,144.969084495706,167.81114581625553,71.20102601690849,176.7201562069119,177.1093709890278,177.1093709890278,3.0,3.1,-268,268,0,-17,273,-277,73.9717013835907,73.9717800617218,73.97484707832336,73.98597621917725,74.12719893455505,74.12719893455505,74.12719893455505,74.12719893455505,74.12719893455505,74.12719893455505,74.12719893455505,75.84189367294312,3,1.845067024230957,None,,,,,,,,,,,,,,,,,,102,1,2025-02-24_16h10.25.117,comp,2024.2.4,54.30581252775624,2025-02-24 16h10.35.986839 -0500,
12,12,0,critical,hdw,35.0,4.0,lower,133.0,57.0,70.0,70.0,57.0,133.0,3,1.796072006225586,None,,,,,0,0,0,0,0,12,12,112,75.85831475257874,,,,,,,,,,,,,,,,,,,,,,,,,,,,,,,,,,,,,,,,,,,,,,,,,,,,,,,,,,,,,,,,,,,,,,,,,,,,,,,,,133.0,57.0,70.0,70.0,57.0,133.0,4.0,4.2,-160,7,0,-258,198,-4,75.84364819526672,75.84377980232239,75.8474280834198,75.85831475257874,76.0083680152893,76.0083680152893,76.0083680152893,76.0083680152893,76.0083680152893,76.0083680152893,76.0083680152893,77.67052221298218,3,1.796072006225586,None,,,,,,,,,,,,,,,,,,102,1,2025-02-24_16h10.25.117,comp,2024.2.4,54.30581252775624,2025-02-24 16h10.35.986839 -0500,
13,13,0,critical,dhw,35.0,2.1,lower,70.0,70.0,133.0,57.0,57.0,133.0,3,1.255591869354248,None,,,,,0,0,0,0,0,13,13,24,77.68648290634155,,,,,,,,,,,,,,,,,,,,,,,,,,,,,,,,,,,,,,,,,,,,,,,,,,,,,,,,,,,,,,,,,,,,,,,,,,,,,,,,,70.0,70.0,133.0,57.0,57.0,133.0,2.1,2.11,-160,278,0,272,191,-257,77.67207074165344,77.67214369773865,77.67520380020142,77.68648290634155,77.82563543319702,77.82563543319702,77.82563543319702,77.82563543319702,77.82563543319702,77.82563543319702,77.82563543319702,78.95896768569946,3,1.255591869354248,None,,,,,,,,,,,,,,,,,,102,1,2025-02-24_16h10.25.117,comp,2024.2.4,54.30581252775624,2025-02-24 16h10.35.986839 -0500,
14,14,0,filler_square,None,None,None,None,None,None,None,None,None,None,1,1.6483879089355469,None,,,,,0,0,0,0,0,14,14,175,78.97437357902527,,,,,,,,,,,,,,,,,,,,,,,,,,,,,,,,,,,,,,,,,,,,,,,,,,,,,,,,,,,,,,,,,,,,,,,,,,,,,,,,,94.44124535300428,94.44124535300428,79.84340713789649,78.91102416079536,69.48323003618657,74.67959380245611,1.0,1.2,-183,16,0,4,173,-6,78.9609215259552,78.96100091934204,78.96417713165283,78.97437357902527,79.12933444976807,79.12933444976807,79.12933444976807,79.12933444976807,79.12933444976807,79.12933444976807,79.12933444976807,80.62516713142395,1,1.6483879089355469,None,,,,,,,,,,,,,,,,,,102,1,2025-02-24_16h10.25.117,comp,2024.2.4,54.30581252775624,2025-02-24 16h10.35.986839 -0500,
15,15,0,filler_square,None,None,None,None,None,None,None,None,None,None,3,1.3485157489776611,None,,,,,0,0,0,0,0,15,15,209,80.64165759086609,,,,,,,,,,,,,,,,,,,,,,,,,,,,,,,,,,,,,,,,,,,,,,,,,,,,,,,,,,,,,,,,,,,,,,,,,,,,,,,,,139.4786760869234,92.15636991764009,94.36677152418089,149.2210144736975,195.77146852011793,195.77146852011793,4.0,4.2,-217,19,0,-278,268,-4,80.62690424919128,80.62698292732239,80.63001608848572,80.64165759086609,80.79286050796509,80.79286050796509,80.79286050796509,80.79286050796509,80.79286050796509,80.79286050796509,80.79286050796509,81.99599981307983,3,1.3485157489776611,None,,,,,,,,,,,,,,,,,,102,1,2025-02-24_16h10.25.117,comp,2024.2.4,54.30581252775624,2025-02-24 16h10.35.986839 -0500,
16,16,0,critical,whd,35.0,1.0,lower,57.0,133.0,133.0,57.0,70.0,70.0,2,3.0151963233947754,None,,,,,0,0,0,0,0,16,16,84,82.01496410369873,,,,,,,,,,,,,,,,,,,,,,,,,,,,,,,,,,,,,,,,,,,,,,,,,,,,,,,,,,,,,,,,,,,,,,,,,,,,,,,,,57.0,133.0,133.0,57.0,70.0,70.0,1.0,1.2,-191,10,0,0,160,12,81.9976875782013,81.99776649475098,82.00095534324646,82.01496410369873,82.16187357902527,82.16187357902527,82.16187357902527,82.16187357902527,82.16187357902527,82.16187357902527,82.16187357902527,85.04184699058533,2,3.0151963233947754,None,,,,,,,,,,,,,,,,,,102,1,2025-02-24_16h10.25.117,comp,2024.2.4,54.30581252775624,2025-02-24 16h10.35.986839 -0500,
17,17,0,catch,None,None,None,None,None,None,None,None,None,None,2,2.6772873401641846,None,,,,,0,0,0,0,0,17,17,125,85.05800604820251,,,,,,,,,,,,,,,,,,,,,,,,,,,,,,,,,,,,,,,,,,,,,,,,,,,,,,,,,,,,,,,,,,,,,,,,,,,,,,,,,83,107,198,127,89,101,2.2,2.21,-213,-279,0,264,210,260,85.04393863677979,85.04402208328247,85.04742074012756,85.05800604820251,85.20845532417297,85.20845532417297,85.20845532417297,85.20845532417297,85.20845532417297,85.20845532417297,85.20845532417297,87.74585819244385,2,2.6772873401641846,None,,,,,,,,,,,,,,,,,,102,1,2025-02-24_16h10.25.117,comp,2024.2.4,54.30581252775624,2025-02-24 16h10.35.986839 -0500,
18,18,0,critical,dwh,35.0,2.1,lower,70.0,70.0,57.0,133.0,133.0,57.0,3,1.9636845588684082,None,,,,,0,0,0,0,0,18,18,4,87.76263618469238,,,,,,,,,,,,,,,,,,,,,,,,,,,,,,,,,,,,,,,,,,,,,,,,,,,,,,,,,,,,,,,,,,,,,,,,,,,,,,,,,70.0,70.0,57.0,133.0,133.0,57.0,2.1,2.12,-198,-287,0,-285,191,285,87.74739027023315,87.74746870994568,87.75164890289307,87.76263618469238,87.9172613620758,87.9172613620758,87.9172613620758,87.9172613620758,87.9172613620758,87.9172613620758,87.9172613620758,89.74160695075989,3,1.9636845588684082,None,,,,,,,,,,,,,,,,,,102,1,2025-02-24_16h10.25.117,comp,2024.2.4,54.30581252775624,2025-02-24 16h10.35.986839 -0500,
19,19,0,critical,dhw,35.0,1.0,upper,127.0,127.0,200.0,125.0,125.0,200.0,3,2.320946455001831,None,,,,,0,0,0,0,0,19,19,49,89.75708484649658,,,,,,,,,,,,,,,,,,,,,,,,,,,,,,,,,,,,,,,,,,,,,,,,,,,,,,,,,,,,,,,,,,,,,,,,,,,,,,,,,127.0,127.0,200.0,125.0,125.0,200.0,1.0,1.2,-222,-19,0,-19,258,-13,89.74307417869568,89.74315118789673,89.74616026878357,89.75708484649658,89.89570713043213,89.89570713043213,89.89570713043213,89.89570713043213,89.89570713043213,89.89570713043213,89.89570713043213,92.08964490890503,3,2.320946455001831,None,,,,,,,,,,,,,,,,,,102,1,2025-02-24_16h10.25.117,comp,2024.2.4,54.30581252775624,2025-02-24 16h10.35.986839 -0500,
20,20,0,critical,whd,35.0,4.0,upper,125.0,200.0,200.0,125.0,127.0,127.0,1,1.4527649879455566,None,,,,,0,0,0,0,0,20,20,89,92.10594201087952,,,,,,,,,,,,,,,,,,,,,,,,,,,,,,,,,,,,,,,,,,,,,,,,,,,,,,,,,,,,,,,,,,,,,,,,,,,,,,,,,125.0,200.0,200.0,125.0,127.0,127.0,4.0,4.1,-258,-252,0,6,222,-287,92.09112644195557,92.09120535850525,92.09422159194946,92.10594201087952,92.24740982055664,92.24740982055664,92.24740982055664,92.24740982055664,92.24740982055664,92.24740982055664,92.24740982055664,93.56602120399475,1,1.4527649879455566,None,,,,,,,,,,,,,,,,,,102,1,2025-02-24_16h10.25.117,comp,2024.2.4,54.30581252775624,2025-02-24 16h10.35.986839 -0500,
21,21,0,filler_square,None,None,None,None,None,None,None,None,None,None,2,2.058776617050171,None,,,,,0,0,0,0,0,21,21,177,93.58733224868774,,,,,,,,,,,,,,,,,,,,,,,,,,,,,,,,,,,,,,,,,,,,,,,,,,,,,,,,,,,,,,,,,,,,,,,,,,,,,,,,,58.95187210174728,60.432445387250816,72.32629513735854,72.32629513735854,62.79468541304747,68.06659395574265,3.0,3.2,-162,-267,0,-10,166,287,93.56831455230713,93.56839394569397,93.5719826221466,93.58733224868774,93.72885346412659,93.72885346412659,93.72885346412659,93.72885346412659,93.72885346412659,93.72885346412659,93.72885346412659,95.64820337295532,2,2.058776617050171,None,,,,,,,,,,,,,,,,,,102,1,2025-02-24_16h10.25.117,comp,2024.2.4,54.30581252775624,2025-02-24 16h10.35.986839 -0500,
22,22,0,critical,hdw,35.0,1.0,upper,200.0,125.0,127.0,127.0,125.0,200.0,3,1.2457375526428223,None,,,,,0,0,0,0,0,22,22,109,95.66505551338196,,,,,,,,,,,,,,,,,,,,,,,,,,,,,,,,,,,,,,,,,,,,,,,,,,,,,,,,,,,,,,,,,,,,,,,,,,,,,,,,,200.0,125.0,127.0,127.0,125.0,200.0,1.0,1.1,-702,263,-480,279,-220,265,95.64976286888123,95.64983987808228,95.653968334198,95.66505551338196,95.81405401229858,95.81405401229858,95.81405401229858,95.81405401229858,95.81405401229858,95.81405401229858,95.81405401229858,96.92078638076782,3,1.2457375526428223,None,,,,,,,,,,,,,,,,,,102,1,2025-02-24_16h10.25.117,comp,2024.2.4,54.30581252775624,2025-02-24 16h10.35.986839 -0500,
23,23,0,critical,wdh,35.0,2.1,upper,125.0,200.0,127.0,127.0,200.0,125.0,1,1.1210765838623047,None,,,,,0,0,0,0,0,23,23,33,96.94101142883301,,,,,,,,,,,,,,,,,,,,,,,,,,,,,,,,,,,,,,,,,,,,,,,,,,,,,,,,,,,,,,,,,,,,,,,,,,,,,,,,,125.0,200.0,127.0,127.0,200.0,125.0,2.1,2.11,-260,261,0,251,222,-254,96.9222457408905,96.92233467102051,96.92527961730957,96.94101142883301,97.08229517936707,97.08229517936707,97.08229517936707,97.08229517936707,97.08229517936707,97.08229517936707,97.08229517936707,98.08240461349487,1,1.1210765838623047,None,,,,,,,,,,,,,,,,,,102,1,2025-02-24_16h10.25.117,comp,2024.2.4,54.30581252775624,2025-02-24 16h10.35.986839 -0500,
24,24,0,critical,whd,35.0,2.1,lower,57.0,133.0,133.0,57.0,70.0,70.0,1,1.7537107467651367,None,,,,,0,0,0,0,0,24,24,36,98.10032677650452,,,,,,,,,,,,,,,,,,,,,,,,,,,,,,,,,,,,,,,,,,,,,,,,,,,,,,,,,,,,,,,,,,,,,,,,,,,,,,,,,57.0,133.0,133.0,57.0,70.0,70.0,2.1,2.12,-191,-288,0,-278,160,269,98.0840437412262,98.08413076400757,98.08748316764832,98.10032677650452,98.25178527832031,98.25178527832031,98.25178527832031,98.25178527832031,98.25178527832031,98.25178527832031,98.25178527832031,99.8640034198761,1,1.7537107467651367,None,,,,,,,,,,,,,,,,,,102,1,2025-02-24_16h10.25.117,comp,2024.2.4,54.30581252775624,2025-02-24 16h10.35.986839 -0500,
25,25,0,filler_random,None,None,None,None,None,None,None,None,None,None,2,0.9250562191009521,None,,,,,0,0,0,0,0,25,25,169,99.88103342056274,,,,,,,,,,,,,,,,,,,,,,,,,,,,,,,,,,,,,,,,,,,,,,,,,,,,,,,,,,,,,,,,,,,,,,,,,,,,,,,,,87.29590027466948,93.85835220515226,197.8225816638915,120.28389473788843,138.9216422537764,78.37667168865111,1.0,1.2,-203,15,0,19,195,14,99.86579394340515,99.86592745780945,99.86930871009827,99.88103342056274,100.02956652641296,100.02956652641296,100.02956652641296,100.02956652641296,100.02956652641296,100.02956652641296,100.02956652641296,100.82010102272034,2,0.9250562191009521,None,,,,,,,,,,,,,,,,,,102,1,2025-02-24_16h10.25.117,comp,2024.2.4,54.30581252775624,2025-02-24 16h10.35.986839 -0500,
26,26,0,critical,dhw,20.0,2.1,lower,78.0,78.0,133.0,57.0,57.0,133.0,3,2.023057699203491,None,,,,,0,0,0,0,0,26,26,2,100.83976817131042,,,,,,,,,,,,,,,,,,,,,,,,,,,,,,,,,,,,,,,,,,,,,,,,,,,,,,,,,,,,,,,,,,,,,,,,,,,,,,,,,78.0,78.0,133.0,57.0,57.0,133.0,2.1,2.12,-164,-280,0,-277,191,259,100.82173085212708,100.82180571556091,100.82517576217651,100.83976817131042,100.98352360725403,100.98352360725403,100.98352360725403,100.98352360725403,100.98352360725403,100.98352360725403,100.98352360725403,102.88114285469055,3,2.023057699203491,None,,,,,,,,,,,,,,,,,,102,1,2025-02-24_16h10.25.117,comp,2024.2.4,54.30581252775624,2025-02-24 16h10.35.986839 -0500,
27,27,0,filler_random,None,None,None,None,None,None,None,None,None,None,2,1.1736364364624023,None,,,,,0,0,0,0,0,27,27,161,102.89651250839233,,,,,,,,,,,,,,,,,,,,,,,,,,,,,,,,,,,,,,,,,,,,,,,,,,,,,,,,,,,,,,,,,,,,,,,,,,,,,,,,,72.44143766404096,175.47850594726302,127.73804830219503,111.68070271835089,156.72904970958683,91.80819944571999,2.2,2.21,-240,-288,0,290,198,275,102.88288640975952,102.88299179077148,102.88639211654663,102.89651250839233,103.03971743583679,103.03971743583679,103.03971743583679,103.03971743583679,103.03971743583679,103.03971743583679,103.03971743583679,104.08614182472229,2,1.1736364364624023,None,,,,,,,,,,,,,,,,,,102,1,2025-02-24_16h10.25.117,comp,2024.2.4,54.30581252775624,2025-02-24 16h10.35.986839 -0500,
28,28,0,critical,wdh,35.0,2.1,lower,57.0,133.0,70.0,70.0,133.0,57.0,2,1.4624278545379639,None,,,,,0,0,0,0,0,28,28,8,104.10362410545349,,,,,,,,,,,,,,,,,,,,,,,,,,,,,,,,,,,,,,,,,,,,,,,,,,,,,,,,,,,,,,,,,,,,,,,,,,,,,,,,,57.0,133.0,70.0,70.0,133.0,57.0,2.1,2.12,-198,-263,0,-276,160,282,104.08774709701538,104.08782625198364,104.09108686447144,104.10362410545349,104.25113010406494,104.25113010406494,104.25113010406494,104.25113010406494,104.25113010406494,104.25113010406494,104.25113010406494,105.582932472229,2,1.4624278545379639,None,,,,,,,,,,,,,,,,,,102,1,2025-02-24_16h10.25.117,comp,2024.2.4,54.30581252775624,2025-02-24 16h10.35.986839 -0500,
29,29,0,filler_random,None,None,None,None,None,None,None,None,None,None,3,3.160541534423828,None,,,,,0,0,0,0,0,29,29,143,105.60563588142395,,,,,,,,,,,,,,,,,,,,,,,,,,,,,,,,,,,,,,,,,,,,,,,,,,,,,,,,,,,,,,,,,,,,,,,,,,,,,,,,,156.28783229157074,78.4760604438016,133.19146059202103,177.30855887063248,136.48830577104138,174.2515934157666,4.0,4.1,-224,-257,0,3,272,-259,105.58468794822693,105.58481764793396,105.58815240859985,105.60563588142395,105.75171995162964,105.75171995162964,105.75171995162964,105.75171995162964,105.75171995162964,105.75171995162964,105.75171995162964,108.77570295333862,3,3.160541534423828,None,,,,,,,,,,,,,,,,,,102,1,2025-02-24_16h10.25.117,comp,2024.2.4,54.30581252775624,2025-02-24 16h10.35.986839 -0500,
30,30,0,filler_square,None,None,None,None,None,None,None,None,None,None,2,1.6873188018798828,None,,,,,0,0,0,0,0,30,30,190,108.79132151603699,,,,,,,,,,,,,,,,,,,,,,,,,,,,,,,,,,,,,,,,,,,,,,,,,,,,,,,,,,,,,,,,,,,,,,,,,,,,,,,,,80.8509043547916,83.4080808369369,83.88380243889387,83.88380243889387,68.43560229065578,80.78411366579763,3.0,3.2,-180,-271,0,-4,178,275,108.77748250961304,108.77758383750916,108.78049731254578,108.79132151603699,108.93323016166687,108.93323016166687,108.93323016166687,108.93323016166687,108.93323016166687,108.93323016166687,108.93323016166687,110.48586297035217,2,1.6873188018798828,None,,,,,,,,,,,,,,,,,,102,1,2025-02-24_16h10.25.117,comp,2024.2.4,54.30581252775624,2025-02-24 16h10.35.986839 -0500,
31,31,0,filler_random,None,None,None,None,None,None,None,None,None,None,1,1.3942065238952637,None,,,,,0,0,0,0,0,31,31,156,110.50225019454956,,,,,,,,,,,,,,,,,,,,,,,,,,,,,,,,,,,,,,,,,,,,,,,,,,,,,,,,,,,,,,,,,,,,,,,,,,,,,,,,,190.95268359015293,196.25567142849997,66.78880157193251,174.4222216500898,170.2186741479277,171.70765589851538,3.0,3.2,-281,-265,0,-1,269,267,110.48763751983643,110.48771476745605,110.49112796783447,110.50225019454956,110.65163278579712,110.65163278579712,110.65163278579712,110.65163278579712,110.65163278579712,110.65163278579712,110.65163278579712,111.90214395523071,1,1.3942065238952637,None,,,,,,,,,,,,,,,,,,102,1,2025-02-24_16h10.25.117,comp,2024.2.4,54.30581252775624,2025-02-24 16h10.35.986839 -0500,
32,32,0,critical,wdh,35.0,1.0,upper,125.0,200.0,127.0,127.0,200.0,125.0,1,1.8874742984771729,None,,,,,0,0,0,0,0,32,32,73,111.91870975494385,,,,,,,,,,,,,,,,,,,,,,,,,,,,,,,,,,,,,,,,,,,,,,,,,,,,,,,,,,,,,,,,,,,,,,,,,,,,,,,,,125.0,200.0,127.0,127.0,200.0,125.0,1.0,1.1,-740,253,-480,258,-258,289,111.90376472473145,111.90387225151062,111.90721917152405,111.91870975494385,112.07496571540833,112.07496571540833,112.07496571540833,112.07496571540833,112.07496571540833,112.07496571540833,112.07496571540833,113.81137013435364,1,1.8874742984771729,None,,,,,,,,,,,,,,,,,,102,1,2025-02-24_16h10.25.117,comp,2024.2.4,54.30581252775624,2025-02-24 16h10.35.986839 -0500,
33,33,0,filler_random,None,None,None,None,None,None,None,None,None,None,2,0.9608428478240967,None,,,,,0,0,0,0,0,33,33,137,113.82941675186157,,,,,,,,,,,,,,,,,,,,,,,,,,,,,,,,,,,,,,,,,,,,,,,,,,,,,,,,,,,,,,,,,,,,,,,,,,,,,,,,,129.30260901876227,139.9797893218886,123.9510132422054,155.5587691622223,71.57694638786964,77.23358560837256,3.0,3.1,-244,279,0,10,212,-251,113.81309914588928,113.81317377090454,113.81613111495972,113.82941675186157,113.97059726715088,113.97059726715088,113.97059726715088,113.97059726715088,113.97059726715088,113.97059726715088,113.97059726715088,114.80568671226501,2,0.9608428478240967,None,,,,,,,,,,,,,,,,,,102,1,2025-02-24_16h10.25.117,comp,2024.2.4,54.30581252775624,2025-02-24 16h10.35.986839 -0500,
34,34,0,filler_square,None,None,None,None,None,None,None,None,None,None,2,0.9906938076019287,None,,,,,0,0,0,0,0,34,34,198,114.82391810417175,,,,,,,,,,,,,,,,,,,,,,,,,,,,,,,,,,,,,,,,,,,,,,,,,,,,,,,,,,,,,,,,,,,,,,,,,,,,,,,,,165.383103941228,175.8682074599033,197.1878117793516,197.1878117793516,154.27453651491743,150.52542324998296,3.0,3.1,-283,280,0,5,270,-271,114.80786299705505,114.80794048309326,114.81133604049683,114.82391810417175,114.97156524658203,114.97156524658203,114.97156524658203,114.97156524658203,114.97156524658203,114.97156524658203,114.97156524658203,115.82001876831055,2,0.9906938076019287,None,,,,,,,,,,,,,,,,,,102,1,2025-02-24_16h10.25.117,comp,2024.2.4,54.30581252775624,2025-02-24 16h10.35.986839 -0500,
35,35,0,critical,dwh,20.0,2.1,lower,78.0,78.0,57.0,133.0,133.0,57.0,3,1.8231215476989746,None,,,,,0,0,0,0,0,35,35,6,115.83895802497864,,,,,,,,,,,,,,,,,,,,,,,,,,,,,,,,,,,,,,,,,,,,,,,,,,,,,,,,,,,,,,,,,,,,,,,,,,,,,,,,,78.0,78.0,57.0,133.0,133.0,57.0,2.1,2.12,-202,-259,0,-251,191,253,115.82159399986267,115.8216712474823,115.8248860836029,115.83895802497864,115.97526478767395,115.97526478767395,115.97526478767395,115.97526478767395,115.97526478767395,115.97526478767395,115.97526478767395,117.67220902442932,3,1.8231215476989746,None,,,,,,,,,,,,,,,,,,102,1,2025-02-24_16h10.25.117,comp,2024.2.4,54.30581252775624,2025-02-24 16h10.35.986839 -0500,
36,36,0,filler_square,None,None,None,None,None,None,None,None,None,None,1,0.8691649436950684,None,,,,,0,0,0,0,0,36,36,183,117.68894171714783,,,,,,,,,,,,,,,,,,,,,,,,,,,,,,,,,,,,,,,,,,,,,,,,,,,,,,,,,,,,,,,,,,,,,,,,,,,,,,,,,135.1775772184745,135.1775772184745,127.06071524238303,62.320162251480156,112.56064171330493,62.240211330503556,3.0,3.2,-195,-288,0,14,158,275,117.67402076721191,117.67409682273865,117.67818260192871,117.68894171714783,117.83806943893433,117.83806943893433,117.83806943893433,117.83806943893433,117.83806943893433,117.83806943893433,117.83806943893433,118.57405757904053,1,0.8691649436950684,None,,,,,,,,,,,,,,,,,,102,1,2025-02-24_16h10.25.117,comp,2024.2.4,54.30581252775624,2025-02-24 16h10.35.986839 -0500,
37,37,0,critical,whd,20.0,1.0,upper,125.0,200.0,200.0,125.0,141.0,141.0,1,1.4572150707244873,None,,,,,0,0,0,0,0,37,37,91,118.58949446678162,,,,,,,,,,,,,,,,,,,,,,,,,,,,,,,,,,,,,,,,,,,,,,,,,,,,,,,,,,,,,,,,,,,,,,,,,,,,,,,,,125.0,200.0,200.0,125.0,141.0,141.0,1.0,1.1,-738,273,-480,277,-251,277,118.57603073120117,118.576162815094,118.579274892807,118.58949446678162,118.7384250164032,118.7384250164032,118.7384250164032,118.7384250164032,118.7384250164032,118.7384250164032,118.7384250164032,120.05450916290283,1,1.4572150707244873,None,,,,,,,,,,,,,,,,,,102,1,2025-02-24_16h10.25.117,comp,2024.2.4,54.30581252775624,2025-02-24 16h10.35.986839 -0500,
38,38,0,filler_square,None,None,None,None,None,None,None,None,None,None,3,0.9242711067199707,None,,,,,0,0,0,0,0,38,38,191,120.0744800567627,,,,,,,,,,,,,,,,,,,,,,,,,,,,,,,,,,,,,,,,,,,,,,,,,,,,,,,,,,,,,,,,,,,,,,,,,,,,,,,,,113.60746110934778,141.1320347795131,95.64799891834508,149.7316319709213,151.70298141002422,151.70298141002422,2.1,2.12,-241,-255,0,-289,247,279,120.05639481544495,120.05647158622742,120.05970811843872,120.0744800567627,120.2248432636261,120.2248432636261,120.2248432636261,120.2248432636261,120.2248432636261,120.2248432636261,120.2248432636261,121.00740909576416,3,0.9242711067199707,None,,,,,,,,,,,,,,,,,,102,1,2025-02-24_16h10.25.117,comp,2024.2.4,54.30581252775624,2025-02-24 16h10.35.986839 -0500,
39,39,0,critical,dhw,20.0,2.1,upper,141.0,141.0,200.0,125.0,125.0,200.0,2,1.303384780883789,None,,,,,0,0,0,0,0,39,39,3,121.0228533744812,,,,,,,,,,,,,,,,,,,,,,,,,,,,,,,,,,,,,,,,,,,,,,,,,,,,,,,,,,,,,,,,,,,,,,,,,,,,,,,,,141.0,141.0,200.0,125.0,125.0,200.0,2.1,2.11,-229,278,0,284,258,-257,121.00901937484741,121.00909638404846,121.0122549533844,121.0228533744812,121.17668104171753,121.17668104171753,121.17668104171753,121.17668104171753,121.17668104171753,121.17668104171753,121.17668104171753,122.34170746803284,2,1.303384780883789,None,,,,,,,,,,,,,,,,,,102,1,2025-02-24_16h10.25.117,comp,2024.2.4,54.30581252775624,2025-02-24 16h10.35.986839 -0500,
40,40,0,critical,hwd,35.0,4.0,lower,133.0,57.0,57.0,133.0,70.0,70.0,2,1.4647183418273926,None,,,,,0,0,0,0,0,40,40,100,122.35812401771545,,,,,,,,,,,,,,,,,,,,,,,,,,,,,,,,,,,,,,,,,,,,,,,,,,,,,,,,,,,,,,,,,,,,,,,,,,,,,,,,,133.0,57.0,57.0,133.0,70.0,70.0,4.0,4.2,-191,-14,0,-273,198,16,122.34345078468323,122.34361004829407,122.3470733165741,122.35812401771545,122.50519609451294,122.50519609451294,122.50519609451294,122.50519609451294,122.50519609451294,122.50519609451294,122.50519609451294,123.82711577415466,2,1.4647183418273926,None,,,,,,,,,,,,,,,,,,102,1,2025-02-24_16h10.25.117,comp,2024.2.4,54.30581252775624,2025-02-24 16h10.35.986839 -0500,
41,41,0,filler_random,None,None,None,None,None,None,None,None,None,None,2,1.13065505027771,None,,,,,0,0,0,0,0,41,41,158,123.84351086616516,,,,,,,,,,,,,,,,,,,,,,,,,,,,,,,,,,,,,,,,,,,,,,,,,,,,,,,,,,,,,,,,,,,,,,,,,,,,,,,,,178.5258666952139,79.17002242310036,136.3077604425636,139.6653841211803,127.50767902421596,148.62199289168342,4.0,4.1,-205,-285,0,8,240,-266,123.82894372940063,123.82902216911316,123.83200740814209,123.84351086616516,123.99099230766296,123.99099230766296,123.99099230766296,123.99099230766296,123.99099230766296,123.99099230766296,123.99099230766296,124.98920726776123,2,1.13065505027771,None,,,,,,,,,,,,,,,,,,102,1,2025-02-24_16h10.25.117,comp,2024.2.4,54.30581252775624,2025-02-24 16h10.35.986839 -0500,
42,42,0,critical,whd,35.0,3.0,upper,125.0,200.0,200.0,125.0,127.0,127.0,1,1.520615577697754,None,,,,,0,0,0,0,0,42,42,87,125.00550985336304,,,,,,,,,,,,,,,,,,,,,,,,,,,,,,,,,,,,,,,,,,,,,,,,,,,,,,,,,,,,,,,,,,,,,,,,,,,,,,,,,125.0,200.0,200.0,125.0,127.0,127.0,3.0,3.2,-258,-251,0,-4,222,253,124.99088716506958,124.990966796875,124.99425888061523,125.00550985336304,125.14451003074646,125.14451003074646,125.14451003074646,125.14451003074646,125.14451003074646,125.14451003074646,125.14451003074646,126.54066848754883,1,1.520615577697754,None,,,,,,,,,,,,,,,,,,102,1,2025-02-24_16h10.25.117,comp,2024.2.4,54.30581252775624,2025-02-24 16h10.35.986839 -0500,
43,43,0,critical,wdh,20.0,2.1,upper,125.0,200.0,141.0,141.0,200.0,125.0,1,1.586210012435913,None,,,,,0,0,0,0,0,43,43,35,126.55600953102112,,,,,,,,,,,,,,,,,,,,,,,,,,,,,,,,,,,,,,,,,,,,,,,,,,,,,,,,,,,,,,,,,,,,,,,,,,,,,,,,,125.0,200.0,141.0,141.0,200.0,125.0,2.1,2.12,-266,-254,0,-290,229,253,126.54220485687256,126.5422842502594,126.54580354690552,126.55600953102112,126.70873475074768,126.70873475074768,126.70873475074768,126.70873475074768,126.70873475074768,126.70873475074768,126.70873475074768,128.1579818725586,1,1.586210012435913,None,,,,,,,,,,,,,,,,,,102,1,2025-02-24_16h10.25.117,comp,2024.2.4,54.30581252775624,2025-02-24 16h10.35.986839 -0500,
44,44,0,catch,None,None,None,None,None,None,None,None,None,None,2,0.7996785640716553,None,,,,,0,0,0,0,0,44,44,122,128.17463302612305,,,,,,,,,,,,,,,,,,,,,,,,,,,,,,,,,,,,,,,,,,,,,,,,,,,,,,,,,,,,,,,,,,,,,,,,,,,,,,,,,81,109,194,131,133,57,2.2,2.21,-216,-282,0,275,190,259,128.15992832183838,128.16000604629517,128.16356778144836,128.17463302612305,128.32447743415833,128.32447743415833,128.32447743415833,128.32447743415833,128.32447743415833,128.32447743415833,128.32447743415833,128.9770646095276,2,0.7996785640716553,None,,,,,,,,,,,,,,,,,,102,1,2025-02-24_16h10.25.117,comp,2024.2.4,54.30581252775624,2025-02-24 16h10.35.986839 -0500,
45,45,0,filler_random,None,None,None,None,None,None,None,None,None,None,2,0.885155439376831,None,,,,,0,0,0,0,0,45,45,164,128.99308323860168,,,,,,,,,,,,,,,,,,,,,,,,,,,,,,,,,,,,,,,,,,,,,,,,,,,,,,,,,,,,,,,,,,,,,,,,,,,,,,,,,89.56694553738836,109.40294459139155,188.84546964658955,132.6266550915861,117.25884302752095,140.50598409389596,3.0,3.1,-217,290,0,-14,233,-263,128.97900772094727,128.97913336753845,128.9824652671814,128.99308323860168,129.14216351509094,129.14216351509094,129.14216351509094,129.14216351509094,129.14216351509094,129.14216351509094,129.14216351509094,129.8919186592102,2,0.885155439376831,None,,,,,,,,,,,,,,,,,,102,1,2025-02-24_16h10.25.117,comp,2024.2.4,54.30581252775624,2025-02-24 16h10.35.986839 -0500,
46,46,0,filler_square,None,None,None,None,None,None,None,None,None,None,3,0.9860577583312988,None,,,,,0,0,0,0,0,46,46,205,129.90802574157715,,,,,,,,,,,,,,,,,,,,,,,,,,,,,,,,,,,,,,,,,,,,,,,,,,,,,,,,,,,,,,,,,,,,,,,,,,,,,,,,,80.29128023508429,98.3691133198046,105.5328722613069,60.33955393956455,109.01245362580012,109.01245362580012,2.1,2.12,-175,-264,0,-254,181,280,129.89374375343323,129.89382100105286,129.89685535430908,129.90802574157715,130.06434655189514,130.06434655189514,130.06434655189514,130.06434655189514,130.06434655189514,130.06434655189514,130.06434655189514,130.90799951553345,3,0.9860577583312988,None,,,,,,,,,,,,,,,,,,102,1,2025-02-24_16h10.25.117,comp,2024.2.4,54.30581252775624,2025-02-24 16h10.35.986839 -0500,
47,47,0,catch,None,None,None,None,None,None,None,None,None,None,3,1.1937294006347656,None,,,,,0,0,0,0,0,47,47,121,130.9248116016388,,,,,,,,,,,,,,,,,,,,,,,,,,,,,,,,,,,,,,,,,,,,,,,,,,,,,,,,,,,,,,,,,,,,,,,,,,,,,,,,,116,74,123,67,156,169,2.2,2.22,-166,267,0,-263,214,-283,130.90987873077393,130.90995526313782,130.9132936000824,130.9248116016388,131.0761489868164,131.0761489868164,131.0761489868164,131.0761489868164,131.0761489868164,131.0761489868164,131.0761489868164,132.127014875412,3,1.1937294006347656,None,,,,,,,,,,,,,,,,,,102,1,2025-02-24_16h10.25.117,comp,2024.2.4,54.30581252775624,2025-02-24 16h10.35.986839 -0500,
48,48,0,critical,whd,35.0,3.0,lower,57.0,133.0,133.0,57.0,70.0,70.0,1,1.079909324645996,None,,,,,0,0,0,0,0,48,48,86,132.14259600639343,,,,,,,,,,,,,,,,,,,,,,,,,,,,,,,,,,,,,,,,,,,,,,,,,,,,,,,,,,,,,,,,,,,,,,,,,,,,,,,,,57.0,133.0,133.0,57.0,70.0,70.0,3.0,3.2,-191,-279,0,6,160,267,132.12850308418274,132.12861466407776,132.13193655014038,132.14259600639343,132.29301166534424,132.29301166534424,132.29301166534424,132.29301166534424,132.29301166534424,132.29301166534424,132.29301166534424,133.22507858276367,1,1.079909324645996,None,,,,,,,,,,,,,,,,,,102,1,2025-02-24_16h10.25.117,comp,2024.2.4,54.30581252775624,2025-02-24 16h10.35.986839 -0500,
49,49,0,filler_square,None,None,None,None,None,None,None,None,None,None,1,1.0112128257751465,None,,,,,0,0,0,0,0,49,49,185,133.24291920661926,,,,,,,,,,,,,,,,,,,,,,,,,,,,,,,,,,,,,,,,,,,,,,,,,,,,,,,,,,,,,,,,,,,,,,,,,,,,,,,,,107.39641212383327,107.39641212383327,88.86818422557174,66.50078080364362,97.51044698950905,87.61964301486911,2.1,2.12,-183,-283,0,-251,173,287,133.22686171531677,133.22693848609924,133.23010158538818,133.24291920661926,133.3789689540863,133.3789689540863,133.3789689540863,133.3789689540863,133.3789689540863,133.3789689540863,133.3789689540863,134.26305174827576,1,1.0112128257751465,None,,,,,,,,,,,,,,,,,,102,1,2025-02-24_16h10.25.117,comp,2024.2.4,54.30581252775624,2025-02-24 16h10.35.986839 -0500,
50,50,0,critical,dhw,35.0,2.1,upper,127.0,127.0,200.0,125.0,125.0,200.0,3,0.8306112289428711,None,,,,,0,0,0,0,0,50,50,25,134.2801079750061,,,,,,,,,,,,,,,,,,,,,,,,,,,,,,,,,,,,,,,,,,,,,,,,,,,,,,,,,,,,,,,,,,,,,,,,,,,,,,,,,127.0,127.0,200.0,125.0,125.0,200.0,2.1,2.12,-222,-284,0,-287,258,274,134.2648160457611,134.26492047309875,134.26840448379517,134.2801079750061,134.4314043521881,134.4314043521881,134.4314043521881,134.4314043521881,134.4314043521881,134.4314043521881,134.4314043521881,135.12677526474,3,0.8306112289428711,None,,,,,,,,,,,,,,,,,,102,1,2025-02-24_16h10.25.117,comp,2024.2.4,54.30581252775624,2025-02-24 16h10.35.986839 -0500,
51,51,0,critical,hwd,20.0,2.1,lower,133.0,57.0,57.0,133.0,78.0,78.0,1,0.9988505840301514,None,,,,,0,0,0,0,0,51,51,42,135.14337587356567,,,,,,,,,,,,,,,,,,,,,,,,,,,,,,,,,,,,,,,,,,,,,,,,,,,,,,,,,,,,,,,,,,,,,,,,,,,,,,,,,133.0,57.0,57.0,133.0,78.0,78.0,2.1,2.12,-191,-269,0,-265,202,260,135.1284396648407,135.12851691246033,135.13217067718506,135.14337587356567,135.30000615119934,135.30000615119934,135.30000615119934,135.30000615119934,135.30000615119934,135.30000615119934,135.30000615119934,136.16099047660828,1,0.9988505840301514,None,,,,,,,,,,,,,,,,,,102,1,2025-02-24_16h10.25.117,comp,2024.2.4,54.30581252775624,2025-02-24 16h10.35.986839 -0500,
52,52,0,filler_random,None,None,None,None,None,None,None,None,None,None,2,1.0618886947631836,None,,,,,0,0,0,0,0,52,52,155,136.17684769630432,,,,,,,,,,,,,,,,,,,,,,,,,,,,,,,,,,,,,,,,,,,,,,,,,,,,,,,,,,,,,,,,,,,,,,,,,,,,,,,,,130.72574707106023,163.80615706753053,165.58560628907256,195.90595179768985,118.64581715134389,101.06947709556346,2.1,2.12,-276,-266,0,-286,244,262,136.16284823417664,136.16292357444763,136.1665186882019,136.17684769630432,136.32516145706177,136.32516145706177,136.32516145706177,136.32516145706177,136.32516145706177,136.32516145706177,136.32516145706177,137.24496340751648,2,1.0618886947631836,None,,,,,,,,,,,,,,,,,,102,1,2025-02-24_16h10.25.117,comp,2024.2.4,54.30581252775624,2025-02-24 16h10.35.986839 -0500,
53,53,0,critical,hwd,20.0,2.1,lower,133.0,57.0,57.0,133.0,78.0,78.0,2,1.0928168296813965,None,,,,,0,0,0,0,0,53,53,18,137.2656273841858,,,,,,,,,,,,,,,,,,,,,,,,,,,,,,,,,,,,,,,,,,,,,,,,,,,,,,,,,,,,,,,,,,,,,,,,,,,,,,,,,133.0,57.0,57.0,133.0,78.0,78.0,2.1,2.12,-191,-265,0,-251,202,287,137.24659895896912,137.24669766426086,137.25012707710266,137.2656273841858,137.4106731414795,137.4106731414795,137.4106731414795,137.4106731414795,137.4106731414795,137.4106731414795,137.4106731414795,138.36060428619385,2,1.0928168296813965,None,,,,,,,,,,,,,,,,,,102,1,2025-02-24_16h10.25.117,comp,2024.2.4,54.30581252775624,2025-02-24 16h10.35.986839 -0500,
54,54,0,filler_random,None,None,None,None,None,None,None,None,None,None,1,1.0922491550445557,None,,,,,0,0,0,0,0,54,54,134,138.37831807136536,,,,,,,,,,,,,,,,,,,,,,,,,,,,,,,,,,,,,,,,,,,,,,,,,,,,,,,,,,,,,,,,,,,,,,,,,,,,,,,,,186.64324849362282,114.92712619249087,175.4258951459744,104.62800608122103,149.51445119587032,153.1224672625607,1.0,1.1,-686,278,-480,273,-255,275,138.36230397224426,138.36238360404968,138.36587357521057,138.37831807136536,138.52944803237915,138.52944803237915,138.52944803237915,138.52944803237915,138.52944803237915,138.52944803237915,138.52944803237915,139.47944045066833,1,1.0922491550445557,None,,,,,,,,,,,,,,,,,,102,1,2025-02-24_16h10.25.117,comp,2024.2.4,54.30581252775624,2025-02-24 16h10.35.986839 -0500,
55,55,0,critical,hwd,20.0,1.0,upper,200.0,125.0,125.0,200.0,141.0,141.0,2,1.540628433227539,None,,,,,0,0,0,0,0,55,55,103,139.49747133255005,,,,,,,,,,,,,,,,,,,,,,,,,,,,,,,,,,,,,,,,,,,,,,,,,,,,,,,,,,,,,,,,,,,,,,,,,,,,,,,,,200.0,125.0,125.0,200.0,141.0,141.0,1.0,1.1,-738,267,-480,289,-214,272,139.4810426235199,139.48111987113953,139.48449897766113,139.49747133255005,139.64622712135315,139.64622712135315,139.64622712135315,139.64622712135315,139.64622712135315,139.64622712135315,139.64622712135315,141.05408430099487,2,1.540628433227539,None,,,,,,,,,,,,,,,,,,102,1,2025-02-24_16h10.25.117,comp,2024.2.4,54.30581252775624,2025-02-24 16h10.35.986839 -0500,
56,56,0,critical,hwd,20.0,2.1,upper,200.0,125.0,125.0,200.0,141.0,141.0,2,0.8636915683746338,None,,,,,0,0,0,0,0,56,56,19,141.07132625579834,,,,,,,,,,,,,,,,,,,,,,,,,,,,,,,,,,,,,,,,,,,,,,,,,,,,,,,,,,,,,,,,,,,,,,,,,,,,,,,,,200.0,125.0,125.0,200.0,141.0,141.0,2.1,2.11,-258,266,0,262,266,-285,141.0555636882782,141.05564069747925,141.0585880279541,141.07132625579834,141.21223759651184,141.21223759651184,141.21223759651184,141.21223759651184,141.21223759651184,141.21223759651184,141.21223759651184,141.9464235305786,2,0.8636915683746338,None,,,,,,,,,,,,,,,,,,102,1,2025-02-24_16h10.25.117,comp,2024.2.4,54.30581252775624,2025-02-24 16h10.35.986839 -0500,
57,57,0,filler_random,None,None,None,None,None,None,None,None,None,None,2,1.539658546447754,None,,,,,0,0,0,0,0,57,57,163,141.96262502670288,,,,,,,,,,,,,,,,,,,,,,,,,,,,,,,,,,,,,,,,,,,,,,,,,,,,,,,,,,,,,,,,,,,,,,,,,,,,,,,,,184.59166329870234,117.48212017074992,104.75531494682434,175.46161405199098,140.7560897467934,95.42008677863932,1.0,1.3,238,-288,480,-261,711,-252,141.94816160202026,141.94823908805847,141.95190930366516,141.96262502670288,142.11607193946838,142.11607193946838,142.11607193946838,142.11607193946838,142.11607193946838,142.11607193946838,142.11607193946838,143.5157606601715,2,1.539658546447754,None,,,,,,,,,,,,,,,,,,102,1,2025-02-24_16h10.25.117,comp,2024.2.4,54.30581252775624,2025-02-24 16h10.35.986839 -0500,
58,58,0,critical,hdw,20.0,1.0,lower,133.0,57.0,78.0,78.0,57.0,133.0,3,1.0432770252227783,None,,,,,0,0,0,0,0,58,58,114,143.53137254714966,,,,,,,,,,,,,,,,,,,,,,,,,,,,,,,,,,,,,,,,,,,,,,,,,,,,,,,,,,,,,,,,,,,,,,,,,,,,,,,,,133.0,57.0,78.0,78.0,57.0,133.0,1.0,1.3,316,-261,480,-258,682,-269,143.51746535301208,143.51762557029724,143.5210030078888,143.53137254714966,143.6804621219635,143.6804621219635,143.6804621219635,143.6804621219635,143.6804621219635,143.6804621219635,143.6804621219635,144.58191895484924,3,1.0432770252227783,None,,,,,,,,,,,,,,,,,,102,1,2025-02-24_16h10.25.117,comp,2024.2.4,54.30581252775624,2025-02-24 16h10.35.986839 -0500,
59,59,0,catch,None,None,None,None,None,None,None,None,None,None,1,0.8601500988006592,None,,,,,0,0,0,0,0,59,59,129,144.60287404060364,,,,,,,,,,,,,,,,,,,,,,,,,,,,,,,,,,,,,,,,,,,,,,,,,,,,,,,,,,,,,,,,,,,,,,,,,,,,,,,,,193,132,123,67,60,130,3.0,3.1,-196,276,0,-17,194,-258,144.58393049240112,144.58400964736938,144.58715391159058,144.60287404060364,144.74702286720276,144.74702286720276,144.74702286720276,144.74702286720276,144.74702286720276,144.74702286720276,144.74702286720276,145.46851181983948,1,0.8601500988006592,None,,,,,,,,,,,,,,,,,,102,1,2025-02-24_16h10.25.117,comp,2024.2.4,54.30581252775624,2025-02-24 16h10.35.986839 -0500,
60,60,0,critical,dwh,35.0,1.0,upper,127.0,127.0,125.0,200.0,200.0,125.0,2,0.8451530933380127,None,,,,,0,0,0,0,0,60,60,61,145.48919463157654,,,,,,,,,,,,,,,,,,,,,,,,,,,,,,,,,,,,,,,,,,,,,,,,,,,,,,,,,,,,,,,,,,,,,,,,,,,,,,,,,127.0,127.0,125.0,200.0,200.0,125.0,1.0,1.1,-740,282,-480,287,-222,278,145.4700951576233,145.47017359733582,145.47352409362793,145.48919463157654,145.6328797340393,145.6328797340393,145.6328797340393,145.6328797340393,145.6328797340393,145.6328797340393,145.6328797340393,146.34964394569397,2,0.8451530933380127,None,,,,,,,,,,,,,,,,,,102,1,2025-02-24_16h10.25.117,comp,2024.2.4,54.30581252775624,2025-02-24 16h10.35.986839 -0500,
61,61,0,filler_random,None,None,None,None,None,None,None,None,None,None,1,1.3285422325134277,None,,,,,0,0,0,0,0,61,61,152,146.3655972480774,,,,,,,,,,,,,,,,,,,,,,,,,,,,,,,,,,,,,,,,,,,,,,,,,,,,,,,,,,,,,,,,,,,,,,,,,,,,,,,,,151.0633682585716,162.01914843827836,74.72417993125666,103.65764374504866,140.61978471770897,154.065200211383,2.1,2.12,-229,-287,0,-283,225,258,146.35147309303284,146.3516297340393,146.35514736175537,146.3655972480774,146.51402854919434,146.51402854919434,146.51402854919434,146.51402854919434,146.51402854919434,146.51402854919434,146.51402854919434,147.69814038276672,1,1.3285422325134277,None,,,,,,,,,,,,,,,,,,102,1,2025-02-24_16h10.25.117,comp,2024.2.4,54.30581252775624,2025-02-24 16h10.35.986839 -0500,
62,62,0,critical,hdw,35.0,2.1,lower,133.0,57.0,70.0,70.0,57.0,133.0,2,1.1720123291015625,None,,,,,0,0,0,0,0,62,62,20,147.71519923210144,,,,,,,,,,,,,,,,,,,,,,,,,,,,,,,,,,,,,,,,,,,,,,,,,,,,,,,,,,,,,,,,,,,,,,,,,,,,,,,,,133.0,57.0,70.0,70.0,57.0,133.0,2.1,2.12,-160,-270,0,-259,198,287,147.69986605644226,147.70000314712524,147.70439910888672,147.71519923210144,147.8651134967804,147.8651134967804,147.8651134967804,147.8651134967804,147.8651134967804,147.8651134967804,147.8651134967804,148.89805722236633,2,1.1720123291015625,None,,,,,,,,,,,,,,,,,,102,1,2025-02-24_16h10.25.117,comp,2024.2.4,54.30581252775624,2025-02-24 16h10.35.986839 -0500,
63,63,0,critical,dwh,35.0,2.1,upper,127.0,127.0,125.0,200.0,200.0,125.0,2,1.3971285820007324,None,,,,,0,0,0,0,0,63,63,29,148.9131042957306,,,,,,,,,,,,,,,,,,,,,,,,,,,,,,,,,,,,,,,,,,,,,,,,,,,,,,,,,,,,,,,,,,,,,,,,,,,,,,,,,127.0,127.0,125.0,200.0,200.0,125.0,2.1,2.11,-260,272,0,253,258,-280,148.89974188804626,148.89987707138062,148.90337014198303,148.9131042957306,149.06264758110046,149.06264758110046,149.06264758110046,149.06264758110046,149.06264758110046,149.06264758110046,149.06264758110046,150.32247829437256,2,1.3971285820007324,None,,,,,,,,,,,,,,,,,,102,1,2025-02-24_16h10.25.117,comp,2024.2.4,54.30581252775624,2025-02-24 16h10.35.986839 -0500,
64,64,0,critical,whd,20.0,2.1,upper,125.0,200.0,200.0,125.0,141.0,141.0,3,1.242311716079712,None,,,,,0,0,0,0,0,64,64,15,150.34001898765564,,,,,,,,,,,,,,,,,,,,,,,,,,,,,,,,,,,,,,,,,,,,,,,,,,,,,,,,,,,,,,,,,,,,,,,,,,,,,,,,,125.0,200.0,200.0,125.0,141.0,141.0,2.1,2.12,-258,-275,0,-277,229,284,150.32403802871704,150.32411456108093,150.3270606994629,150.34001898765564,150.48259735107422,150.48259735107422,150.48259735107422,150.48259735107422,150.48259735107422,150.48259735107422,150.48259735107422,151.59971117973328,3,1.242311716079712,None,,,,,,,,,,,,,,,,,,102,1,2025-02-24_16h10.25.117,comp,2024.2.4,54.30581252775624,2025-02-24 16h10.35.986839 -0500,
65,65,0,critical,hdw,20.0,1.0,upper,200.0,125.0,141.0,141.0,125.0,200.0,3,0.8032338619232178,None,,,,,0,0,0,0,0,65,65,115,151.61888432502747,,,,,,,,,,,,,,,,,,,,,,,,,,,,,,,,,,,,,,,,,,,,,,,,,,,,,,,,,,,,,,,,,,,,,,,,,,,,,,,,,200.0,125.0,141.0,141.0,125.0,200.0,1.0,1.2,-229,15,0,16,266,-15,151.60113048553467,151.6012032032013,151.60459160804749,151.61888432502747,151.76625156402588,151.76625156402588,151.76625156402588,151.76625156402588,151.76625156402588,151.76625156402588,151.76625156402588,152.44194984436035,3,0.8032338619232178,None,,,,,,,,,,,,,,,,,,102,1,2025-02-24_16h10.25.117,comp,2024.2.4,54.30581252775624,2025-02-24 16h10.35.986839 -0500,
66,66,0,filler_random,None,None,None,None,None,None,None,None,None,None,1,0.9194831848144531,None,,,,,0,0,0,0,0,66,66,147,152.4626612663269,,,,,,,,,,,,,,,,,,,,,,,,,,,,,,,,,,,,,,,,,,,,,,,,,,,,,,,,,,,,,,,,,,,,,,,,,,,,,,,,,159.12207116619584,172.3300058640241,134.68794845514273,61.33561056906918,126.27391349407911,66.40398934551754,3.0,3.2,-213,-273,0,-3,160,269,152.44373679161072,152.44386672973633,152.44719552993774,152.4626612663269,152.5999026298523,152.5999026298523,152.5999026298523,152.5999026298523,152.5999026298523,152.5999026298523,152.5999026298523,153.39743876457214,1,0.9194831848144531,None,,,,,,,,,,,,,,,,,,102,1,2025-02-24_16h10.25.117,comp,2024.2.4,54.30581252775624,2025-02-24 16h10.35.986839 -0500,
67,67,0,filler_random,None,None,None,None,None,None,None,None,None,None,3,1.0971505641937256,None,,,,,0,0,0,0,0,67,67,139,153.4136257171631,,,,,,,,,,,,,,,,,,,,,,,,,,,,,,,,,,,,,,,,,,,,,,,,,,,,,,,,,,,,,,,,,,,,,,,,,,,,,,,,,150.01176342158453,93.8715189972963,123.73623864892879,74.97122309042467,156.18725544554735,194.58873683993102,2.1,2.11,-180,255,0,256,231,-257,153.3993284702301,153.39944887161255,153.4027624130249,153.4136257171631,153.5709273815155,153.5709273815155,153.5709273815155,153.5709273815155,153.5709273815155,153.5709273815155,153.5709273815155,154.516375541687,3,1.0971505641937256,None,,,,,,,,,,,,,,,,,,102,1,2025-02-24_16h10.25.117,comp,2024.2.4,54.30581252775624,2025-02-24 16h10.35.986839 -0500,
68,68,0,critical,whd,20.0,3.0,upper,125.0,200.0,200.0,125.0,141.0,141.0,1,0.8104395866394043,None,,,,,0,0,0,0,0,68,68,93,154.53235006332397,,,,,,,,,,,,,,,,,,,,,,,,,,,,,,,,,,,,,,,,,,,,,,,,,,,,,,,,,,,,,,,,,,,,,,,,,,,,,,,,,125.0,200.0,200.0,125.0,141.0,141.0,3.0,3.1,-258,266,0,-9,229,-285,154.51804780960083,154.5181267261505,154.52166032791138,154.53235006332397,154.68201065063477,154.68201065063477,154.68201065063477,154.68201065063477,154.68201065063477,154.68201065063477,154.68201065063477,155.35002970695496,1,0.8104395866394043,None,,,,,,,,,,,,,,,,,,102,1,2025-02-24_16h10.25.117,comp,2024.2.4,54.30581252775624,2025-02-24 16h10.35.986839 -0500,
69,69,0,filler_random,None,None,None,None,None,None,None,None,None,None,3,1.1199591159820557,None,,,,,0,0,0,0,0,69,69,138,155.36622262001038,,,,,,,,,,,,,,,,,,,,,,,,,,,,,,,,,,,,,,,,,,,,,,,,,,,,,,,,,,,,,,,,,,,,,,,,,,,,,,,,,120.98318956608885,123.93064919922266,179.08426101362426,168.345258670969,134.49993980406805,98.05879547427001,4.0,4.1,-242,-288,0,14,229,-273,155.35174012184143,155.3518192768097,155.35526704788208,155.36622262001038,155.52235960960388,155.52235960960388,155.52235960960388,155.52235960960388,155.52235960960388,155.52235960960388,155.52235960960388,156.50164270401,3,1.1199591159820557,None,,,,,,,,,,,,,,,,,,102,1,2025-02-24_16h10.25.117,comp,2024.2.4,54.30581252775624,2025-02-24 16h10.35.986839 -0500,
70,70,0,critical,wdh,20.0,3.0,lower,57.0,133.0,78.0,78.0,133.0,57.0,2,1.451446771621704,None,,,,,0,0,0,0,0,70,70,80,156.52274537086487,,,,,,,,,,,,,,,,,,,,,,,,,,,,,,,,,,,,,,,,,,,,,,,,,,,,,,,,,,,,,,,,,,,,,,,,,,,,,,,,,57.0,133.0,78.0,78.0,133.0,57.0,3.0,3.1,-202,261,0,2,164,-251,156.50309252738953,156.50320076942444,156.50628757476807,156.52274537086487,156.66679406166077,156.66679406166077,156.66679406166077,156.66679406166077,156.66679406166077,156.66679406166077,156.66679406166077,157.98390769958496,2,1.451446771621704,None,,,,,,,,,,,,,,,,,,102,1,2025-02-24_16h10.25.117,comp,2024.2.4,54.30581252775624,2025-02-24 16h10.35.986839 -0500,
71,71,0,filler_random,None,None,None,None,None,None,None,None,None,None,1,0.9510302543640137,None,,,,,0,0,0,0,0,71,71,157,157.99989557266235,,,,,,,,,,,,,,,,,,,,,,,,,,,,,,,,,,,,,,,,,,,,,,,,,,,,,,,,,,,,,,,,,,,,,,,,,,,,,,,,,198.028797044257,145.33898250236246,147.99304175585723,67.25484521333101,64.45486604223247,60.1969129805472,4.0,4.2,-202,-10,0,-276,160,-20,157.9856460094452,157.98572325706482,157.98918890953064,157.99989557266235,158.1514196395874,158.1514196395874,158.1514196395874,158.1514196395874,158.1514196395874,158.1514196395874,158.1514196395874,158.95559453964233,1,0.9510302543640137,None,,,,,,,,,,,,,,,,,,102,1,2025-02-24_16h10.25.117,comp,2024.2.4,54.30581252775624,2025-02-24 16h10.35.986839 -0500,
72,72,0,critical,hwd,35.0,3.0,upper,200.0,125.0,125.0,200.0,127.0,127.0,2,1.043623685836792,None,,,,,0,0,0,0,0,72,72,99,158.97121000289917,,,,,,,,,,,,,,,,,,,,,,,,,,,,,,,,,,,,,,,,,,,,,,,,,,,,,,,,,,,,,,,,,,,,,,,,,,,,,,,,,200.0,125.0,125.0,200.0,127.0,127.0,3.0,3.2,-258,-280,0,-5,260,251,158.95711994171143,158.95719480514526,158.96019101142883,158.97121000289917,159.11871123313904,159.11871123313904,159.11871123313904,159.11871123313904,159.11871123313904,159.11871123313904,159.11871123313904,160.0183389186859,2,1.043623685836792,None,,,,,,,,,,,,,,,,,,102,1,2025-02-24_16h10.25.117,comp,2024.2.4,54.30581252775624,2025-02-24 16h10.35.986839 -0500,
73,73,0,critical,hwd,35.0,2.1,lower,133.0,57.0,57.0,133.0,70.0,70.0,2,6.141697883605957,None,,,,,0,0,0,0,0,73,73,40,160.03326058387756,,,,,,,,,,,,,,,,,,,,,,,,,,,,,,,,,,,,,,,,,,,,,,,,,,,,,,,,,,,,,,,,,,,,,,,,,,,,,,,,,133.0,57.0,57.0,133.0,70.0,70.0,2.1,2.11,-191,277,0,255,198,-279,160.01990294456482,160.01998019218445,160.02334022521973,160.03326058387756,160.18459558486938,160.18459558486938,160.18459558486938,160.18459558486938,160.18459558486938,160.18459558486938,160.18459558486938,166.1934850215912,2,6.141697883605957,None,,,,,,,,,,,,,,,,,,102,1,2025-02-24_16h10.25.117,comp,2024.2.4,54.30581252775624,2025-02-24 16h10.35.986839 -0500,
74,74,0,critical,wdh,35.0,4.0,upper,125.0,200.0,127.0,127.0,200.0,125.0,3,1.4569368362426758,None,,,,,0,0,0,0,0,74,74,77,166.2133104801178,,,,,,,,,,,,,,,,,,,,,,,,,,,,,,,,,,,,,,,,,,,,,,,,,,,,,,,,,,,,,,,,,,,,,,,,,,,,,,,,,125.0,200.0,127.0,127.0,200.0,125.0,4.0,4.1,-260,-257,0,-17,222,-289,166.1950123310089,166.1950876712799,166.1980493068695,166.2133104801178,166.3496687412262,166.3496687412262,166.3496687412262,166.3496687412262,166.3496687412262,166.3496687412262,166.3496687412262,167.6871633529663,3,1.4569368362426758,None,,,,,,,,,,,,,,,,,,102,1,2025-02-24_16h10.25.117,comp,2024.2.4,54.30581252775624,2025-02-24 16h10.35.986839 -0500,
75,75,0,critical,hwd,35.0,3.0,lower,133.0,57.0,57.0,133.0,70.0,70.0,1,1.263317346572876,None,,,,,0,0,0,0,0,75,75,98,167.70323276519775,,,,,,,,,,,,,,,,,,,,,,,,,,,,,,,,,,,,,,,,,,,,,,,,,,,,,,,,,,,,,,,,,,,,,,,,,,,,,,,,,133.0,57.0,57.0,133.0,70.0,70.0,3.0,3.2,-191,-251,0,11,198,255,167.68868350982666,167.68878078460693,167.6928050518036,167.70323276519775,167.85162329673767,167.85162329673767,167.85162329673767,167.85162329673767,167.85162329673767,167.85162329673767,167.85162329673767,168.97714567184448,1,1.263317346572876,None,,,,,,,,,,,,,,,,,,102,1,2025-02-24_16h10.25.117,comp,2024.2.4,54.30581252775624,2025-02-24 16h10.35.986839 -0500,
76,76,0,critical,hwd,20.0,4.0,upper,200.0,125.0,125.0,200.0,141.0,141.0,1,1.0657923221588135,None,,,,,0,0,0,0,0,76,76,107,168.9965946674347,,,,,,,,,,,,,,,,,,,,,,,,,,,,,,,,,,,,,,,,,,,,,,,,,,,,,,,,,,,,,,,,,,,,,,,,,,,,,,,,,200.0,125.0,125.0,200.0,141.0,141.0,4.0,4.1,-258,-261,0,4,266,-272,168.97869324684143,168.97877049446106,168.98173594474792,168.9965946674347,169.13824772834778,169.13824772834778,169.13824772834778,169.13824772834778,169.13824772834778,169.13824772834778,169.13824772834778,170.07438468933105,1,1.0657923221588135,None,,,,,,,,,,,,,,,,,,102,1,2025-02-24_16h10.25.117,comp,2024.2.4,54.30581252775624,2025-02-24 16h10.35.986839 -0500,
77,77,0,catch,None,None,None,None,None,None,None,None,None,None,1,0.9554533958435059,None,,,,,0,0,0,0,0,77,77,128,170.0906023979187,,,,,,,,,,,,,,,,,,,,,,,,,,,,,,,,,,,,,,,,,,,,,,,,,,,,,,,,,,,,,,,,,,,,,,,,,,,,,,,,,141,184,97,93,103,87,2.2,2.22,-234,276,0,-263,186,-267,170.07636380195618,170.07644176483154,170.07966661453247,170.0906023979187,170.23376893997192,170.23376893997192,170.23376893997192,170.23376893997192,170.23376893997192,170.23376893997192,170.23376893997192,171.05802011489868,1,0.9554533958435059,None,,,,,,,,,,,,,,,,,,102,1,2025-02-24_16h10.25.117,comp,2024.2.4,54.30581252775624,2025-02-24 16h10.35.986839 -0500,
78,78,0,critical,whd,20.0,4.0,lower,57.0,133.0,133.0,57.0,78.0,78.0,1,1.2286081314086914,None,,,,,0,0,0,0,0,78,78,94,171.07397198677063,,,,,,,,,,,,,,,,,,,,,,,,,,,,,,,,,,,,,,,,,,,,,,,,,,,,,,,,,,,,,,,,,,,,,,,,,,,,,,,,,57.0,133.0,133.0,57.0,78.0,78.0,4.0,4.2,-191,18,0,-284,164,-18,171.05973720550537,171.05987215042114,171.06320810317993,171.07397198677063,171.22170877456665,171.22170877456665,171.22170877456665,171.22170877456665,171.22170877456665,171.22170877456665,171.22170877456665,172.30491375923157,1,1.2286081314086914,None,,,,,,,,,,,,,,,,,,102,1,2025-02-24_16h10.25.117,comp,2024.2.4,54.30581252775624,2025-02-24 16h10.35.986839 -0500,
79,79,0,critical,hwd,35.0,2.1,upper,200.0,125.0,125.0,200.0,127.0,127.0,1,1.321108341217041,None,,,,,0,0,0,0,0,79,79,17,172.32512712478638,,,,,,,,,,,,,,,,,,,,,,,,,,,,,,,,,,,,,,,,,,,,,,,,,,,,,,,,,,,,,,,,,,,,,,,,,,,,,,,,,200.0,125.0,125.0,200.0,127.0,127.0,2.1,2.12,-258,-281,0,-277,260,290,172.30646109580994,172.30656909942627,172.3095998764038,172.32512712478638,172.47214484214783,172.47214484214783,172.47214484214783,172.47214484214783,172.47214484214783,172.47214484214783,172.47214484214783,173.65825247764587,1,1.321108341217041,None,,,,,,,,,,,,,,,,,,102,1,2025-02-24_16h10.25.117,comp,2024.2.4,54.30581252775624,2025-02-24 16h10.35.986839 -0500,
80,80,0,filler_random,None,None,None,None,None,None,None,None,None,None,2,0.8333592414855957,None,,,,,0,0,0,0,0,80,80,145,173.6768922805786,,,,,,,,,,,,,,,,,,,,,,,,,,,,,,,,,,,,,,,,,,,,,,,,,,,,,,,,,,,,,,,,,,,,,,,,,,,,,,,,,128.8036632538628,74.50269005835646,137.93193538317246,95.62865461746432,85.44734239757685,132.77361114168417,1.0,1.2,-181,3,0,11,210,-3,173.66026210784912,173.6603717803955,173.6638867855072,173.6768922805786,173.82339906692505,173.82339906692505,173.82339906692505,173.82339906692505,173.82339906692505,173.82339906692505,173.82339906692505,174.52399730682373,2,0.8333592414855957,None,,,,,,,,,,,,,,,,,,102,1,2025-02-24_16h10.25.117,comp,2024.2.4,54.30581252775624,2025-02-24 16h10.35.986839 -0500,
81,81,0,filler_random,None,None,None,None,None,None,None,None,None,None,3,1.018376111984253,None,,,,,0,0,0,0,0,81,81,133,174.53992795944214,,,,,,,,,,,,,,,,,,,,,,,,,,,,,,,,,,,,,,,,,,,,,,,,,,,,,,,,,,,,,,,,,,,,,,,,,,,,,,,,,157.53496888553173,163.80827200883243,105.36263485706425,125.93632289513437,172.51387881085753,194.964256917114,3.0,3.2,-241,-263,0,8,256,259,174.525897026062,174.5260136127472,174.52962112426758,174.53992795944214,174.69641065597534,174.69641065597534,174.69641065597534,174.69641065597534,174.69641065597534,174.69641065597534,174.69641065597534,175.5752305984497,3,1.018376111984253,None,,,,,,,,,,,,,,,,,,102,1,2025-02-24_16h10.25.117,comp,2024.2.4,54.30581252775624,2025-02-24 16h10.35.986839 -0500,
82,82,0,critical,hdw,20.0,2.1,lower,133.0,57.0,78.0,78.0,57.0,133.0,3,0.927325963973999,None,,,,,0,0,0,0,0,82,82,46,175.59104228019714,,,,,,,,,,,,,,,,,,,,,,,,,,,,,,,,,,,,,,,,,,,,,,,,,,,,,,,,,,,,,,,,,,,,,,,,,,,,,,,,,133.0,57.0,78.0,78.0,57.0,133.0,2.1,2.12,-164,-260,0,-269,202,274,175.57691144943237,175.57698822021484,175.5805950164795,175.59104228019714,175.74685144424438,175.74685144424438,175.74685144424438,175.74685144424438,175.74685144424438,175.74685144424438,175.74685144424438,176.52371335029602,3,0.927325963973999,None,,,,,,,,,,,,,,,,,,102,1,2025-02-24_16h10.25.117,comp,2024.2.4,54.30581252775624,2025-02-24 16h10.35.986839 -0500,
83,83,0,critical,wdh,20.0,2.1,lower,57.0,133.0,78.0,78.0,133.0,57.0,1,0.8068332672119141,None,,,,,0,0,0,0,0,83,83,10,176.5439329147339,,,,,,,,,,,,,,,,,,,,,,,,,,,,,,,,,,,,,,,,,,,,,,,,,,,,,,,,,,,,,,,,,,,,,,,,,,,,,,,,,57.0,133.0,78.0,78.0,133.0,57.0,2.1,2.11,-202,269,0,289,164,-282,176.5251750946045,176.52525067329407,176.52855777740479,176.5439329147339,176.69114875793457,176.69114875793457,176.69114875793457,176.69114875793457,176.69114875793457,176.69114875793457,176.69114875793457,177.35686087608337,1,0.8068332672119141,None,,,,,,,,,,,,,,,,,,102,1,2025-02-24_16h10.25.117,comp,2024.2.4,54.30581252775624,2025-02-24 16h10.35.986839 -0500,
84,84,0,critical,wdh,35.0,2.1,lower,57.0,133.0,70.0,70.0,133.0,57.0,1,1.0336711406707764,None,,,,,0,0,0,0,0,84,84,32,177.372727394104,,,,,,,,,,,,,,,,,,,,,,,,,,,,,,,,,,,,,,,,,,,,,,,,,,,,,,,,,,,,,,,,,,,,,,,,,,,,,,,,,57.0,133.0,70.0,70.0,133.0,57.0,2.1,2.12,-198,-266,0,-271,160,263,177.3584225177765,177.35849976539612,177.36196613311768,177.372727394104,177.5237534046173,177.5237534046173,177.5237534046173,177.5237534046173,177.5237534046173,177.5237534046173,177.5237534046173,178.42308616638184,1,1.0336711406707764,None,,,,,,,,,,,,,,,,,,102,1,2025-02-24_16h10.25.117,comp,2024.2.4,54.30581252775624,2025-02-24 16h10.35.986839 -0500,
85,85,0,filler_random,None,None,None,None,None,None,None,None,None,None,1,0.750565767288208,None,,,,,0,0,0,0,0,85,85,151,178.439599275589,,,,,,,,,,,,,,,,,,,,,,,,,,,,,,,,,,,,,,,,,,,,,,,,,,,,,,,,,,,,,,,,,,,,,,,,,,,,,,,,,178.9261014027795,177.5641794989804,181.7462422088032,94.07739164511517,118.10673191348303,178.68430587570413,2.1,2.11,-232,270,0,284,232,-265,178.42501783370972,178.42512464523315,178.42838311195374,178.439599275589,178.59056663513184,178.59056663513184,178.59056663513184,178.59056663513184,178.59056663513184,178.59056663513184,178.59056663513184,179.20838975906372,1,0.750565767288208,None,,,,,,,,,,,,,,,,,,102,1,2025-02-24_16h10.25.117,comp,2024.2.4,54.30581252775624,2025-02-24 16h10.35.986839 -0500,
86,86,0,critical,dwh,35.0,4.0,upper,127.0,127.0,125.0,200.0,200.0,125.0,2,0.8604025840759277,None,,,,,0,0,0,0,0,86,86,65,179.2262418270111,,,,,,,,,,,,,,,,,,,,,,,,,,,,,,,,,,,,,,,,,,,,,,,,,,,,,,,,,,,,,,,,,,,,,,,,,,,,,,,,,127.0,127.0,125.0,200.0,200.0,125.0,4.0,4.2,-260,-20,0,-273,258,5,179.20999097824097,179.21006655693054,179.21348023414612,179.2262418270111,179.37403535842896,179.37403535842896,179.37403535842896,179.37403535842896,179.37403535842896,179.37403535842896,179.37403535842896,180.0911409854889,2,0.8604025840759277,None,,,,,,,,,,,,,,,,,,102,1,2025-02-24_16h10.25.117,comp,2024.2.4,54.30581252775624,2025-02-24 16h10.35.986839 -0500,
87,87,0,critical,hdw,35.0,2.1,lower,133.0,57.0,70.0,70.0,57.0,133.0,3,2.122814416885376,None,,,,,0,0,0,0,0,87,87,44,180.10821437835693,,,,,,,,,,,,,,,,,,,,,,,,,,,,,,,,,,,,,,,,,,,,,,,,,,,,,,,,,,,,,,,,,,,,,,,,,,,,,,,,,133.0,57.0,70.0,70.0,57.0,133.0,2.1,2.12,-160,-265,0,-286,198,258,180.09277319908142,180.09285044670105,180.09620237350464,180.10821437835693,180.2632565498352,180.2632565498352,180.2632565498352,180.2632565498352,180.2632565498352,180.2632565498352,180.2632565498352,182.24050974845886,3,2.122814416885376,None,,,,,,,,,,,,,,,,,,102,1,2025-02-24_16h10.25.117,comp,2024.2.4,54.30581252775624,2025-02-24 16h10.35.986839 -0500,
88,88,0,filler_random,None,None,None,None,None,None,None,None,None,None,3,0.9953727722167969,None,,,,,0,0,0,0,0,88,88,168,182.25923037528992,,,,,,,,,,,,,,,,,,,,,,,,,,,,,,,,,,,,,,,,,,,,,,,,,,,,,,,,,,,,,,,,,,,,,,,,,,,,,,,,,146.1958777844236,121.37985946014466,92.87630151829336,86.00121535291902,176.78219699936955,155.3294688756966,3.0,3.1,-200,250,0,6,217,-259,182.24214577674866,182.24222326278687,182.24524807929993,182.25923037528992,182.4097547531128,182.4097547531128,182.4097547531128,182.4097547531128,182.4097547531128,182.4097547531128,182.4097547531128,183.25943446159363,3,0.9953727722167969,None,,,,,,,,,,,,,,,,,,102,1,2025-02-24_16h10.25.117,comp,2024.2.4,54.30581252775624,2025-02-24 16h10.35.986839 -0500,
89,89,0,critical,hwd,35.0,1.0,upper,200.0,125.0,125.0,200.0,127.0,127.0,1,1.6748731136322021,None,,,,,0,0,0,0,0,89,89,97,183.27549600601196,,,,,,,,,,,,,,,,,,,,,,,,,,,,,,,,,,,,,,,,,,,,,,,,,,,,,,,,,,,,,,,,,,,,,,,,,,,,,,,,,200.0,125.0,125.0,200.0,127.0,127.0,1.0,1.3,222,-251,480,-270,740,-280,183.2611906528473,183.26128244400024,183.26482915878296,183.27549600601196,183.43388557434082,183.43388557434082,183.43388557434082,183.43388557434082,183.43388557434082,183.43388557434082,183.43388557434082,184.96084642410278,1,1.6748731136322021,None,,,,,,,,,,,,,,,,,,102,1,2025-02-24_16h10.25.117,comp,2024.2.4,54.30581252775624,2025-02-24 16h10.35.986839 -0500,
90,90,0,catch,None,None,None,None,None,None,None,None,None,None,3,0.9155423641204834,None,,,,,0,0,0,0,0,90,90,126,184.97870182991028,,,,,,,,,,,,,,,,,,,,,,,,,,,,,,,,,,,,,,,,,,,,,,,,,,,,,,,,,,,,,,,,,,,,,,,,,,,,,,,,,63,127,100,90,127,198,3.0,3.2,-204,-277,0,15,240,286,184.96290588378906,184.96298480033875,184.96599054336548,184.97870182991028,185.12231588363647,185.12231588363647,185.12231588363647,185.12231588363647,185.12231588363647,185.12231588363647,185.12231588363647,185.9080684185028,3,0.9155423641204834,None,,,,,,,,,,,,,,,,,,102,1,2025-02-24_16h10.25.117,comp,2024.2.4,54.30581252775624,2025-02-24 16h10.35.986839 -0500,
91,91,0,filler_random,None,None,None,None,None,None,None,None,None,None,3,0.8976659774780273,None,,,,,0,0,0,0,0,91,91,140,185.9246211051941,,,,,,,,,,,,,,,,,,,,,,,,,,,,,,,,,,,,,,,,,,,,,,,,,,,,,,,,,,,,,,,,,,,,,,,,,,,,,,,,,98.08638061430511,115.95256861746302,137.8653837407554,107.14154178382545,166.67081422423456,116.38565626231684,2.1,2.12,-208,-264,0,-277,208,279,185.90982103347778,185.90995597839355,185.91333389282227,185.9246211051941,186.07306456565857,186.07306456565857,186.07306456565857,186.07306456565857,186.07306456565857,186.07306456565857,186.07306456565857,186.82617831230164,3,0.8976659774780273,None,,,,,,,,,,,,,,,,,,102,1,2025-02-24_16h10.25.117,comp,2024.2.4,54.30581252775624,2025-02-24 16h10.35.986839 -0500,
92,92,0,critical,wdh,20.0,4.0,upper,125.0,200.0,141.0,141.0,200.0,125.0,1,0.8838210105895996,None,,,,,0,0,0,0,0,92,92,83,186.8424460887909,,,,,,,,,,,,,,,,,,,,,,,,,,,,,,,,,,,,,,,,,,,,,,,,,,,,,,,,,,,,,,,,,,,,,,,,,,,,,,,,,125.0,200.0,141.0,141.0,200.0,125.0,4.0,4.2,-266,16,0,-290,229,17,186.82762837409973,186.827702999115,186.83189058303833,186.8424460887909,186.99428939819336,186.99428939819336,186.99428939819336,186.99428939819336,186.99428939819336,186.99428939819336,186.99428939819336,187.74204421043396,1,0.8838210105895996,None,,,,,,,,,,,,,,,,,,102,1,2025-02-24_16h10.25.117,comp,2024.2.4,54.30581252775624,2025-02-24 16h10.35.986839 -0500,
93,93,0,critical,dhw,35.0,4.0,upper,127.0,127.0,200.0,125.0,125.0,200.0,3,1.4398720264434814,None,,,,,0,0,0,0,0,93,93,53,187.7592248916626,,,,,,,,,,,,,,,,,,,,,,,,,,,,,,,,,,,,,,,,,,,,,,,,,,,,,,,,,,,,,,,,,,,,,,,,,,,,,,,,,127.0,127.0,200.0,125.0,125.0,200.0,4.0,4.2,-222,12,0,-251,258,6,187.74358987808228,187.74366545677185,187.74670386314392,187.7592248916626,187.9106364250183,187.9106364250183,187.9106364250183,187.9106364250183,187.9106364250183,187.9106364250183,187.9106364250183,189.21070647239685,3,1.4398720264434814,None,,,,,,,,,,,,,,,,,,102,1,2025-02-24_16h10.25.117,comp,2024.2.4,54.30581252775624,2025-02-24 16h10.35.986839 -0500,
94,94,0,critical,hwd,35.0,2.1,upper,200.0,125.0,125.0,200.0,127.0,127.0,2,1.1572904586791992,None,,,,,0,0,0,0,0,94,94,41,189.22674679756165,,,,,,,,,,,,,,,,,,,,,,,,,,,,,,,,,,,,,,,,,,,,,,,,,,,,,,,,,,,,,,,,,,,,,,,,,,,,,,,,,200.0,125.0,125.0,200.0,127.0,127.0,2.1,2.12,-258,-261,0,-289,260,284,189.21223664283752,189.21231508255005,189.21577382087708,189.22674679756165,189.37682151794434,189.37682151794434,189.37682151794434,189.37682151794434,189.37682151794434,189.37682151794434,189.37682151794434,190.39467930793762,2,1.1572904586791992,None,,,,,,,,,,,,,,,,,,102,1,2025-02-24_16h10.25.117,comp,2024.2.4,54.30581252775624,2025-02-24 16h10.35.986839 -0500,
95,95,0,critical,dwh,20.0,1.0,upper,141.0,141.0,125.0,200.0,200.0,125.0,2,0.6598975658416748,None,,,,,0,0,0,0,0,95,95,67,190.41116619110107,,,,,,,,,,,,,,,,,,,,,,,,,,,,,,,,,,,,,,,,,,,,,,,,,,,,,,,,,,,,,,,,,,,,,,,,,,,,,,,,,141.0,141.0,125.0,200.0,200.0,125.0,1.0,1.2,-266,-9,0,-1,258,-19,190.39620637893677,190.39628338813782,190.40039563179016,190.41116619110107,190.55941915512085,190.55941915512085,190.55941915512085,190.55941915512085,190.55941915512085,190.55941915512085,190.55941915512085,191.0795977115631,2,0.6598975658416748,None,,,,,,,,,,,,,,,,,,102,1,2025-02-24_16h10.25.117,comp,2024.2.4,54.30581252775624,2025-02-24 16h10.35.986839 -0500,
96,96,0,filler_square,None,None,None,None,None,None,None,None,None,None,2,0.7343883514404297,None,,,,,0,0,0,0,0,96,96,171,191.0961422920227,,,,,,,,,,,,,,,,,,,,,,,,,,,,,,,,,,,,,,,,,,,,,,,,,,,,,,,,,,,,,,,,,,,,,,,,,,,,,,,,,175.57843812084562,175.57843812084562,74.01132105467943,162.12123603891465,165.0015187790001,66.60323379903359,3.0,3.2,-265,-264,0,-8,210,284,191.0814723968506,191.08157420158386,191.08449268341064,191.0961422920227,191.24350214004517,191.24350214004517,191.24350214004517,191.24350214004517,191.24350214004517,191.24350214004517,191.24350214004517,191.8469738960266,2,0.7343883514404297,None,,,,,,,,,,,,,,,,,,102,1,2025-02-24_16h10.25.117,comp,2024.2.4,54.30581252775624,2025-02-24 16h10.35.986839 -0500,
97,97,0,critical,dwh,35.0,2.1,upper,127.0,127.0,125.0,200.0,200.0,125.0,2,0.822357177734375,None,,,,,0,0,0,0,0,97,97,5,191.8638277053833,,,,,,,,,,,,,,,,,,,,,,,,,,,,,,,,,,,,,,,,,,,,,,,,,,,,,,,,,,,,,,,,,,,,,,,,,,,,,,,,,127.0,127.0,125.0,200.0,200.0,125.0,2.1,2.11,-260,263,0,269,258,-256,191.84868383407593,191.8487606048584,191.85267066955566,191.8638277053833,192.01626110076904,192.01626110076904,192.01626110076904,192.01626110076904,192.01626110076904,192.01626110076904,192.01626110076904,192.7025237083435,2,0.822357177734375,None,,,,,,,,,,,,,,,,,,102,1,2025-02-24_16h10.25.117,comp,2024.2.4,54.30581252775624,2025-02-24 16h10.35.986839 -0500,
98,98,0,critical,dhw,20.0,4.0,lower,78.0,78.0,133.0,57.0,57.0,133.0,3,0.9645471572875977,None,,,,,0,0,0,0,0,98,98,58,192.72225832939148,,,,,,,,,,,,,,,,,,,,,,,,,,,,,,,,,,,,,,,,,,,,,,,,,,,,,,,,,,,,,,,,,,,,,,,,,,,,,,,,,78.0,78.0,133.0,57.0,57.0,133.0,4.0,4.1,-164,-272,0,5,191,-265,192.70401811599731,192.70410084724426,192.70704197883606,192.72225832939148,192.86162328720093,192.86162328720093,192.86162328720093,192.86162328720093,192.86162328720093,192.86162328720093,192.86162328720093,193.6974663734436,3,0.9645471572875977,None,,,,,,,,,,,,,,,,,,102,1,2025-02-24_16h10.25.117,comp,2024.2.4,54.30581252775624,2025-02-24 16h10.35.986839 -0500,
99,99,0,critical,dwh,20.0,2.1,upper,141.0,141.0,125.0,200.0,200.0,125.0,2,1.1303398609161377,None,,,,,0,0,0,0,0,99,99,31,193.7158350944519,,,,,,,,,,,,,,,,,,,,,,,,,,,,,,,,,,,,,,,,,,,,,,,,,,,,,,,,,,,,,,,,,,,,,,,,,,,,,,,,,141.0,141.0,125.0,200.0,200.0,125.0,2.1,2.12,-266,-257,0,-276,258,284,193.69923853874207,193.699378490448,193.70276188850403,193.7158350944519,193.87132215499878,193.87132215499878,193.87132215499878,193.87132215499878,193.87132215499878,193.87132215499878,193.87132215499878,194.85955452919006,2,1.1303398609161377,None,,,,,,,,,,,,,,,,,,102,1,2025-02-24_16h10.25.117,comp,2024.2.4,54.30581252775624,2025-02-24 16h10.35.986839 -0500,
100,100,0,critical,wdh,35.0,4.0,lower,57.0,133.0,70.0,70.0,133.0,57.0,1,0.8264126777648926,None,,,,,0,0,0,0,0,100,100,76,194.87581515312195,,,,,,,,,,,,,,,,,,,,,,,,,,,,,,,,,,,,,,,,,,,,,,,,,,,,,,,,,,,,,,,,,,,,,,,,,,,,,,,,,57.0,133.0,70.0,70.0,133.0,57.0,4.0,4.2,-198,3,0,-257,160,3,194.86104607582092,194.86112141609192,194.8640854358673,194.87581515312195,195.0276129245758,195.0276129245758,195.0276129245758,195.0276129245758,195.0276129245758,195.0276129245758,195.0276129245758,195.71263241767883,1,0.8264126777648926,None,,,,,,,,,,,,,,,,,,102,1,2025-02-24_16h10.25.117,comp,2024.2.4,54.30581252775624,2025-02-24 16h10.35.986839 -0500,
101,101,0,filler_random,None,None,None,None,None,None,None,None,None,None,2,0.7337510585784912,None,,,,,0,0,0,0,0,101,101,130,195.7288842201233,,,,,,,,,,,,,,,,,,,,,,,,,,,,,,,,,,,,,,,,,,,,,,,,,,,,,,,,,,,,,,,,,,,,,,,,,,,,,,,,,178.08564090383203,113.1936652611893,125.23502845283114,167.73601592877324,161.10620679487897,128.3454498905395,4.0,4.1,-236,-271,0,-18,244,-260,195.71441435813904,195.71457934379578,195.71817278862,195.7288842201233,195.87664151191711,195.87664151191711,195.87664151191711,195.87664151191711,195.87664151191711,195.87664151191711,195.87664151191711,196.47963213920593,2,0.7337510585784912,None,,,,,,,,,,,,,,,,,,102,1,2025-02-24_16h10.25.117,comp,2024.2.4,54.30581252775624,2025-02-24 16h10.35.986839 -0500,
102,102,0,critical,hdw,35.0,4.0,upper,200.0,125.0,127.0,127.0,125.0,200.0,1,0.927290678024292,None,,,,,0,0,0,0,0,102,102,113,196.4956455230713,,,,,,,,,,,,,,,,,,,,,,,,,,,,,,,,,,,,,,,,,,,,,,,,,,,,,,,,,,,,,,,,,,,,,,,,,,,,,,,,,200.0,125.0,127.0,127.0,125.0,200.0,4.0,4.1,-222,-274,0,18,260,-267,196.4812366962433,196.48131227493286,196.48538947105408,196.4956455230713,196.64329552650452,196.64329552650452,196.64329552650452,196.64329552650452,196.64329552650452,196.64329552650452,196.64329552650452,197.43014216423035,1,0.927290678024292,None,,,,,,,,,,,,,,,,,,102,1,2025-02-24_16h10.25.117,comp,2024.2.4,54.30581252775624,2025-02-24 16h10.35.986839 -0500,
103,103,0,critical,whd,35.0,2.1,lower,57.0,133.0,133.0,57.0,70.0,70.0,2,0.9927549362182617,None,,,,,0,0,0,0,0,103,103,12,197.4460506439209,,,,,,,,,,,,,,,,,,,,,,,,,,,,,,,,,,,,,,,,,,,,,,,,,,,,,,,,,,,,,,,,,,,,,,,,,,,,,,,,,57.0,133.0,133.0,57.0,70.0,70.0,2.1,2.12,-191,-261,0,-268,160,286,197.43167519569397,197.43175196647644,197.43523931503296,197.4460506439209,197.6028184890747,197.6028184890747,197.6028184890747,197.6028184890747,197.6028184890747,197.6028184890747,197.6028184890747,198.4477345943451,2,0.9927549362182617,None,,,,,,,,,,,,,,,,,,102,1,2025-02-24_16h10.25.117,comp,2024.2.4,54.30581252775624,2025-02-24 16h10.35.986839 -0500,
104,104,0,filler_square,None,None,None,None,None,None,None,None,None,None,2,0.9100363254547119,None,,,,,0,0,0,0,0,104,104,188,198.46425938606262,,,,,,,,,,,,,,,,,,,,,,,,,,,,,,,,,,,,,,,,,,,,,,,,,,,,,,,,,,,,,,,,,,,,,,,,,,,,,,,,,78.83739368531553,77.80107120578909,80.76981266183293,80.76981266183293,74.8611864216847,69.43373382061293,4.0,4.2,-175,17,0,-260,171,-3,198.4495906829834,198.449693441391,198.45366168022156,198.46425938606262,198.61248183250427,198.61248183250427,198.61248183250427,198.61248183250427,198.61248183250427,198.61248183250427,198.61248183250427,199.3871247768402,2,0.9100363254547119,None,,,,,,,,,,,,,,,,,,102,1,2025-02-24_16h10.25.117,comp,2024.2.4,54.30581252775624,2025-02-24 16h10.35.986839 -0500,
105,105,0,filler_square,None,None,None,None,None,None,None,None,None,None,3,0.7801291942596436,None,,,,,0,0,0,0,0,105,105,194,199.40240263938904,,,,,,,,,,,,,,,,,,,,,,,,,,,,,,,,,,,,,,,,,,,,,,,,,,,,,,,,,,,,,,,,,,,,,,,,,,,,,,,,,96.0311930545716,85.451578194805,60.52488360652322,69.35289248571435,135.42885254650668,135.42885254650668,4.0,4.2,-173,-20,0,-263,198,-18,199.38893032073975,199.38900542259216,199.39206171035767,199.40240263938904,199.54697799682617,199.54697799682617,199.54697799682617,199.54697799682617,199.54697799682617,199.54697799682617,199.54697799682617,200.18793630599976,3,0.7801291942596436,None,,,,,,,,,,,,,,,,,,102,1,2025-02-24_16h10.25.117,comp,2024.2.4,54.30581252775624,2025-02-24 16h10.35.986839 -0500,
106,106,0,filler_random,None,None,None,None,None,None,None,None,None,None,1,0.8333644866943359,None,,,,,0,0,0,0,0,106,106,141,200.2054464817047,,,,,,,,,,,,,,,,,,,,,,,,,,,,,,,,,,,,,,,,,,,,,,,,,,,,,,,,,,,,,,,,,,,,,,,,,,,,,,,,,105.38948686815147,188.6720989727347,137.36305977118548,97.47832518883259,198.50038091036623,66.40988567547068,3.0,3.2,-239,-287,0,-17,178,274,200.18964219093323,200.18971872329712,200.19268465042114,200.2054464817047,200.34557437896729,200.34557437896729,200.34557437896729,200.34557437896729,200.34557437896729,200.34557437896729,200.34557437896729,201.0496063232422,1,0.8333644866943359,None,,,,,,,,,,,,,,,,,,102,1,2025-02-24_16h10.25.117,comp,2024.2.4,54.30581252775624,2025-02-24 16h10.35.986839 -0500,
107,107,0,critical,hdw,20.0,4.0,upper,200.0,125.0,141.0,141.0,125.0,200.0,3,1.244694471359253,None,,,,,0,0,0,0,0,107,107,119,201.06549906730652,,,,,,,,,,,,,,,,,,,,,,,,,,,,,,,,,,,,,,,,,,,,,,,,,,,,,,,,,,,,,,,,,,,,,,,,,,,,,,,,,200.0,125.0,141.0,141.0,125.0,200.0,4.0,4.2,-229,6,0,-274,266,15,201.05121159553528,201.05129098892212,201.05490446090698,201.06549906730652,201.2136425971985,201.2136425971985,201.2136425971985,201.2136425971985,201.2136425971985,201.2136425971985,201.2136425971985,202.32894921302795,3,1.244694471359253,None,,,,,,,,,,,,,,,,,,102,1,2025-02-24_16h10.25.117,comp,2024.2.4,54.30581252775624,2025-02-24 16h10.35.986839 -0500,
108,108,0,critical,whd,20.0,2.1,lower,57.0,133.0,133.0,57.0,78.0,78.0,3,1.0257775783538818,None,,,,,0,0,0,0,0,108,108,38,202.34872198104858,,,,,,,,,,,,,,,,,,,,,,,,,,,,,,,,,,,,,,,,,,,,,,,,,,,,,,,,,,,,,,,,,,,,,,,,,,,,,,,,,57.0,133.0,133.0,57.0,78.0,78.0,2.1,2.12,-191,-255,0,-289,164,266,202.33042073249817,202.33050727844238,202.33345675468445,202.34872198104858,202.48093914985657,202.48093914985657,202.48093914985657,202.48093914985657,202.48093914985657,202.48093914985657,202.48093914985657,203.38075017929077,3,1.0257775783538818,None,,,,,,,,,,,,,,,,,,102,1,2025-02-24_16h10.25.117,comp,2024.2.4,54.30581252775624,2025-02-24 16h10.35.986839 -0500,
109,109,0,filler_random,None,None,None,None,None,None,None,None,None,None,2,0.9271094799041748,None,,,,,0,0,0,0,0,109,109,142,203.39916443824768,,,,,,,,,,,,,,,,,,,,,,,,,,,,,,,,,,,,,,,,,,,,,,,,,,,,,,,,,,,,,,,,,,,,,,,,,,,,,,,,,147.14636970513078,154.99809734855683,155.51386835367367,170.43099241890434,62.34797984872725,152.80006074725242,4.0,4.2,-259,19,0,-255,258,16,203.38256406784058,203.38268542289734,203.3861587047577,203.39916443824768,203.54447627067566,203.54447627067566,203.54447627067566,203.54447627067566,203.54447627067566,203.54447627067566,203.54447627067566,204.33841133117676,2,0.9271094799041748,None,,,,,,,,,,,,,,,,,,102,1,2025-02-24_16h10.25.117,comp,2024.2.4,54.30581252775624,2025-02-24 16h10.35.986839 -0500,
110,110,0,critical,wdh,35.0,1.0,lower,57.0,133.0,70.0,70.0,133.0,57.0,3,1.1001834869384766,None,,,,,0,0,0,0,0,110,110,72,204.35401439666748,,,,,,,,,,,,,,,,,,,,,,,,,,,,,,,,,,,,,,,,,,,,,,,,,,,,,,,,,,,,,,,,,,,,,,,,,,,,,,,,,57.0,133.0,70.0,70.0,133.0,57.0,1.0,1.3,282,-275,480,-252,640,-286,204.33994936943054,204.34002542495728,204.3430027961731,204.35401439666748,204.49992394447327,204.49992394447327,204.49992394447327,204.49992394447327,204.49992394447327,204.49992394447327,204.49992394447327,205.46534895896912,3,1.1001834869384766,None,,,,,,,,,,,,,,,,,,102,1,2025-02-24_16h10.25.117,comp,2024.2.4,54.30581252775624,2025-02-24 16h10.35.986839 -0500,
111,111,0,critical,whd,35.0,1.0,upper,125.0,200.0,200.0,125.0,127.0,127.0,2,0.871023416519165,None,,,,,0,0,0,0,0,111,111,85,205.47965240478516,,,,,,,,,,,,,,,,,,,,,,,,,,,,,,,,,,,,,,,,,,,,,,,,,,,,,,,,,,,,,,,,,,,,,,,,,,,,,,,,,125.0,200.0,200.0,125.0,127.0,127.0,1.0,1.1,-738,251,-480,262,-258,282,205.46689867973328,205.46697759628296,205.47022008895874,205.47965240478516,205.63742804527283,205.63742804527283,205.63742804527283,205.63742804527283,205.63742804527283,205.63742804527283,205.63742804527283,206.367427110672,2,0.871023416519165,None,,,,,,,,,,,,,,,,,,102,1,2025-02-24_16h10.25.117,comp,2024.2.4,54.30581252775624,2025-02-24 16h10.35.986839 -0500,
112,112,0,critical,dhw,35.0,2.1,upper,127.0,127.0,200.0,125.0,125.0,200.0,2,0.6714978218078613,None,,,,,0,0,0,0,0,112,112,1,206.38344883918762,,,,,,,,,,,,,,,,,,,,,,,,,,,,,,,,,,,,,,,,,,,,,,,,,,,,,,,,,,,,,,,,,,,,,,,,,,,,,,,,,127.0,127.0,200.0,125.0,125.0,200.0,2.1,2.11,-222,262,0,276,258,-250,206.3690791130066,206.3692009449005,206.37321496009827,206.38344883918762,206.52860689163208,206.52860689163208,206.52860689163208,206.52860689163208,206.52860689163208,206.52860689163208,206.52860689163208,207.05709886550903,2,0.6714978218078613,None,,,,,,,,,,,,,,,,,,102,1,2025-02-24_16h10.25.117,comp,2024.2.4,54.30581252775624,2025-02-24 16h10.35.986839 -0500,
113,113,0,critical,whd,35.0,2.1,upper,125.0,200.0,200.0,125.0,127.0,127.0,2,0.9019429683685303,None,,,,,0,0,0,0,0,113,113,37,207.07310605049133,,,,,,,,,,,,,,,,,,,,,,,,,,,,,,,,,,,,,,,,,,,,,,,,,,,,,,,,,,,,,,,,,,,,,,,,,,,,,,,,,125.0,200.0,200.0,125.0,127.0,127.0,2.1,2.11,-258,277,0,277,222,-289,207.0585687160492,207.05865120887756,207.06167006492615,207.07310605049133,207.2171471118927,207.2171471118927,207.2171471118927,207.2171471118927,207.2171471118927,207.2171471118927,207.2171471118927,207.98387575149536,2,0.9019429683685303,None,,,,,,,,,,,,,,,,,,102,1,2025-02-24_16h10.25.117,comp,2024.2.4,54.30581252775624,2025-02-24 16h10.35.986839 -0500,
114,114,0,critical,dwh,20.0,4.0,lower,78.0,78.0,57.0,133.0,133.0,57.0,3,1.1987199783325195,None,,,,,0,0,0,0,0,114,114,70,207.9996280670166,,,,,,,,,,,,,,,,,,,,,,,,,,,,,,,,,,,,,,,,,,,,,,,,,,,,,,,,,,,,,,,,,,,,,,,,,,,,,,,,,78.0,78.0,57.0,133.0,133.0,57.0,4.0,4.1,-202,-264,0,19,191,-287,207.98547434806824,207.985577583313,207.98893809318542,207.9996280670166,208.15389013290405,208.15389013290405,208.15389013290405,208.15389013290405,208.15389013290405,208.15389013290405,208.15389013290405,209.2201430797577,3,1.1987199783325195,None,,,,,,,,,,,,,,,,,,102,1,2025-02-24_16h10.25.117,comp,2024.2.4,54.30581252775624,2025-02-24 16h10.35.986839 -0500,
115,115,0,critical,dhw,20.0,3.0,lower,78.0,78.0,133.0,57.0,57.0,133.0,3,1.0630252361297607,None,,,,,0,0,0,0,0,115,115,56,209.23936414718628,,,,,,,,,,,,,,,,,,,,,,,,,,,,,,,,,,,,,,,,,,,,,,,,,,,,,,,,,,,,,,,,,,,,,,,,,,,,,,,,,78.0,78.0,133.0,57.0,57.0,133.0,3.0,3.2,-164,-254,0,-9,191,261,209.22194981575012,209.22208499908447,209.22518134117126,209.23936414718628,209.38521933555603,209.38521933555603,209.38521933555603,209.38521933555603,209.38521933555603,209.38521933555603,209.38521933555603,210.31645822525024,3,1.0630252361297607,None,,,,,,,,,,,,,,,,,,102,1,2025-02-24_16h10.25.117,comp,2024.2.4,54.30581252775624,2025-02-24 16h10.35.986839 -0500,
116,116,0,filler_square,None,None,None,None,None,None,None,None,None,None,2,4.942146062850952,None,,,,,0,0,0,0,0,116,116,174,210.33672189712524,,,,,,,,,,,,,,,,,,,,,,,,,,,,,,,,,,,,,,,,,,,,,,,,,,,,,,,,,,,,,,,,,,,,,,,,,,,,,,,,,63.993552438547326,63.785158274036384,76.46233110733613,76.46233110733613,64.55339138745195,59.97166138482377,1.0,1.3,314,-282,480,-260,644,-282,210.3182032108307,210.31827807426453,210.32139253616333,210.33672189712524,210.48419404029846,210.48419404029846,210.48419404029846,210.48419404029846,210.48419404029846,210.48419404029846,210.48419404029846,215.28557109832764,2,4.942146062850952,None,,,,,,,,,,,,,,,,,,102,1,2025-02-24_16h10.25.117,comp,2024.2.4,54.30581252775624,2025-02-24 16h10.35.986839 -0500,
117,117,0,critical,dwh,35.0,2.1,lower,70.0,70.0,57.0,133.0,133.0,57.0,2,1.0113880634307861,None,,,,,0,0,0,0,0,117,117,28,215.3016653060913,,,,,,,,,,,,,,,,,,,,,,,,,,,,,,,,,,,,,,,,,,,,,,,,,,,,,,,,,,,,,,,,,,,,,,,,,,,,,,,,,70.0,70.0,57.0,133.0,133.0,57.0,2.1,2.12,-198,-253,0,-286,191,273,215.28713130950928,215.2872085571289,215.29075074195862,215.3016653060913,215.44965243339539,215.44965243339539,215.44965243339539,215.44965243339539,215.44965243339539,215.44965243339539,215.44965243339539,216.31809425354004,2,1.0113880634307861,None,,,,,,,,,,,,,,,,,,102,1,2025-02-24_16h10.25.117,comp,2024.2.4,54.30581252775624,2025-02-24 16h10.35.986839 -0500,
118,118,0,critical,hdw,20.0,2.1,lower,133.0,57.0,78.0,78.0,57.0,133.0,3,0.8850879669189453,None,,,,,0,0,0,0,0,118,118,22,216.33728957176208,,,,,,,,,,,,,,,,,,,,,,,,,,,,,,,,,,,,,,,,,,,,,,,,,,,,,,,,,,,,,,,,,,,,,,,,,,,,,,,,,133.0,57.0,78.0,78.0,57.0,133.0,2.1,2.12,-164,-267,0,-280,202,251,216.31962776184082,216.31970477104187,216.3229386806488,216.33728957176208,216.47363948822021,216.47363948822021,216.47363948822021,216.47363948822021,216.47363948822021,216.47363948822021,216.47363948822021,217.23680925369263,3,0.8850879669189453,None,,,,,,,,,,,,,,,,,,102,1,2025-02-24_16h10.25.117,comp,2024.2.4,54.30581252775624,2025-02-24 16h10.35.986839 -0500,
119,119,0,critical,hdw,20.0,4.0,lower,133.0,57.0,78.0,78.0,57.0,133.0,2,0.8583276271820068,None,,,,,0,0,0,0,0,119,119,118,217.25275897979736,,,,,,,,,,,,,,,,,,,,,,,,,,,,,,,,,,,,,,,,,,,,,,,,,,,,,,,,,,,,,,,,,,,,,,,,,,,,,,,,,133.0,57.0,78.0,78.0,57.0,133.0,4.0,4.1,-164,-271,0,-20,202,-261,217.23836517333984,217.23844027519226,217.2425012588501,217.25275897979736,217.40289545059204,217.40289545059204,217.40289545059204,217.40289545059204,217.40289545059204,217.40289545059204,217.40289545059204,218.11876153945923,2,0.8583276271820068,None,,,,,,,,,,,,,,,,,,102,1,2025-02-24_16h10.25.117,comp,2024.2.4,54.30581252775624,2025-02-24 16h10.35.986839 -0500,
120,120,0,filler_square,None,None,None,None,None,None,None,None,None,None,3,0.7796247005462646,None,,,,,0,0,0,0,0,120,120,201,218.13928699493408,,,,,,,,,,,,,,,,,,,,,,,,,,,,,,,,,,,,,,,,,,,,,,,,,,,,,,,,,,,,,,,,,,,,,,,,,,,,,,,,,92.3353708044732,188.380591777553,99.62020410624535,82.50089354814813,190.97974379725892,190.97974379725892,4.0,4.1,-231,-276,0,14,233,-279,218.12056970596313,218.12065148353577,218.12392234802246,218.13928699493408,218.28642964363098,218.28642964363098,218.28642964363098,218.28642964363098,218.28642964363098,218.28642964363098,218.28642964363098,218.92081665992737,3,0.7796247005462646,None,,,,,,,,,,,,,,,,,,102,1,2025-02-24_16h10.25.117,comp,2024.2.4,54.30581252775624,2025-02-24 16h10.35.986839 -0500,
121,121,0,catch,None,None,None,None,None,None,None,None,None,None,1,0.9460723400115967,None,,,,,0,0,0,0,0,121,121,120,218.94046211242676,,,,,,,,,,,,,,,,,,,,,,,,,,,,,,,,,,,,,,,,,,,,,,,,,,,,,,,,,,,,,,,,,,,,,,,,,,,,,,,,,132,193,125,65,118,72,1.0,1.2,-225,17,0,8,164,0,218.92307567596436,218.9232144355774,218.92690229415894,218.94046211242676,219.0837962627411,219.0837962627411,219.0837962627411,219.0837962627411,219.0837962627411,219.0837962627411,219.0837962627411,219.89348936080933,1,0.9460723400115967,None,,,,,,,,,,,,,,,,,,102,1,2025-02-24_16h10.25.117,comp,2024.2.4,54.30581252775624,2025-02-24 16h10.35.986839 -0500,
122,122,0,critical,dwh,20.0,3.0,upper,141.0,141.0,125.0,200.0,200.0,125.0,2,0.7560765743255615,None,,,,,0,0,0,0,0,122,122,69,219.91422510147095,,,,,,,,,,,,,,,,,,,,,,,,,,,,,,,,,,,,,,,,,,,,,,,,,,,,,,,,,,,,,,,,,,,,,,,,,,,,,,,,,141.0,141.0,125.0,200.0,200.0,125.0,3.0,3.1,-266,259,0,1,258,-261,219.89510774612427,219.89518880844116,219.89857006072998,219.91422510147095,220.05338668823242,220.05338668823242,220.05338668823242,220.05338668823242,220.05338668823242,220.05338668823242,220.05338668823242,220.6872067451477,2,0.7560765743255615,None,,,,,,,,,,,,,,,,,,102,1,2025-02-24_16h10.25.117,comp,2024.2.4,54.30581252775624,2025-02-24 16h10.35.986839 -0500,
123,123,0,filler_square,None,None,None,None,None,None,None,None,None,None,1,0.8460955619812012,None,,,,,0,0,0,0,0,123,123,203,220.70412158966064,,,,,,,,,,,,,,,,,,,,,,,,,,,,,,,,,,,,,,,,,,,,,,,,,,,,,,,,,,,,,,,,,,,,,,,,,,,,,,,,,97.05222427921599,97.05222427921599,71.84820956061486,64.85038902794116,80.00336843359048,61.39046989639755,1.0,1.3,303,-277,480,-276,639,-289,220.68908286094666,220.6891589164734,220.69326186180115,220.70412158966064,220.85980892181396,220.85980892181396,220.85980892181396,220.85980892181396,220.85980892181396,220.85980892181396,220.85980892181396,221.5695948600769,1,0.8460955619812012,None,,,,,,,,,,,,,,,,,,102,1,2025-02-24_16h10.25.117,comp,2024.2.4,54.30581252775624,2025-02-24 16h10.35.986839 -0500,
124,124,0,critical,hwd,35.0,2.1,lower,133.0,57.0,57.0,133.0,70.0,70.0,2,0.784735918045044,None,,,,,0,0,0,0,0,124,124,16,221.5899806022644,,,,,,,,,,,,,,,,,,,,,,,,,,,,,,,,,,,,,,,,,,,,,,,,,,,,,,,,,,,,,,,,,,,,,,,,,,,,,,,,,133.0,57.0,57.0,133.0,70.0,70.0,2.1,2.12,-191,-259,0,-257,198,253,221.57111835479736,221.57119345664978,221.5746669769287,221.5899806022644,221.7375636100769,221.7375636100769,221.7375636100769,221.7375636100769,221.7375636100769,221.7375636100769,221.7375636100769,222.38136625289917,2,0.784735918045044,None,,,,,,,,,,,,,,,,,,102,1,2025-02-24_16h10.25.117,comp,2024.2.4,54.30581252775624,2025-02-24 16h10.35.986839 -0500,
125,125,0,filler_square,None,None,None,None,None,None,None,None,None,None,1,0.8789379596710205,None,,,,,0,0,0,0,0,125,125,179,222.39975786209106,,,,,,,,,,,,,,,,,,,,,,,,,,,,,,,,,,,,,,,,,,,,,,,,,,,,,,,,,,,,,,,,,,,,,,,,,,,,,,,,,76.9551474538275,70.23863391707872,80.30230391275678,80.30230391275678,60.8932360699604,69.25532036109402,2.2,2.22,-171,288,0,-280,171,-272,222.3831877708435,222.38326501846313,222.38624620437622,222.39975786209106,222.53830790519714,222.53830790519714,222.53830790519714,222.53830790519714,222.53830790519714,222.53830790519714,222.53830790519714,223.2886347770691,1,0.8789379596710205,None,,,,,,,,,,,,,,,,,,102,1,2025-02-24_16h10.25.117,comp,2024.2.4,54.30581252775624,2025-02-24 16h10.35.986839 -0500,
126,126,0,filler_square,None,None,None,None,None,None,None,None,None,None,2,1.0781660079956055,None,,,,,0,0,0,0,0,126,126,197,223.30482125282288,,,,,,,,,,,,,,,,,,,,,,,,,,,,,,,,,,,,,,,,,,,,,,,,,,,,,,,,,,,,,,,,,,,,,,,,,,,,,,,,,98.38783296716694,105.79310503222615,108.26266164142858,108.26266164142858,74.7436989397476,86.43228953544762,2.1,2.12,-203,-255,0,-284,193,268,223.29040455818176,223.29048228263855,223.29371404647827,223.30482125282288,223.45796990394592,223.45796990394592,223.45796990394592,223.45796990394592,223.45796990394592,223.45796990394592,223.45796990394592,224.38646411895752,2,1.0781660079956055,None,,,,,,,,,,,,,,,,,,102,1,2025-02-24_16h10.25.117,comp,2024.2.4,54.30581252775624,2025-02-24 16h10.35.986839 -0500,
127,127,0,filler_random,None,None,None,None,None,None,None,None,None,None,2,1.0255546569824219,None,,,,,0,0,0,0,0,127,127,160,224.404851436615,,,,,,,,,,,,,,,,,,,,,,,,,,,,,,,,,,,,,,,,,,,,,,,,,,,,,,,,,,,,,,,,,,,,,,,,,,,,,,,,,119.43769297876533,94.81439568967522,196.79907881862883,111.45253343941175,58.07909258812829,93.34187002630922,2.1,2.12,-199,-264,0,-287,198,270,224.38829636573792,224.38840675354004,224.3917429447174,224.404851436615,224.559063911438,224.559063911438,224.559063911438,224.559063911438,224.559063911438,224.559063911438,224.559063911438,225.43247866630554,2,1.0255546569824219,None,,,,,,,,,,,,,,,,,,102,1,2025-02-24_16h10.25.117,comp,2024.2.4,54.30581252775624,2025-02-24 16h10.35.986839 -0500,
128,128,0,critical,whd,20.0,1.0,lower,57.0,133.0,133.0,57.0,78.0,78.0,2,1.0674917697906494,None,,,,,0,0,0,0,0,128,128,90,225.45106863975525,,,,,,,,,,,,,,,,,,,,,,,,,,,,,,,,,,,,,,,,,,,,,,,,,,,,,,,,,,,,,,,,,,,,,,,,,,,,,,,,,57.0,133.0,133.0,57.0,78.0,78.0,1.0,1.2,-191,-13,0,-19,164,16,225.43403506278992,225.4341094493866,225.43745279312134,225.45106863975525,225.59142994880676,225.59142994880676,225.59142994880676,225.59142994880676,225.59142994880676,225.59142994880676,225.59142994880676,226.5248363018036,2,1.0674917697906494,None,,,,,,,,,,,,,,,,,,102,1,2025-02-24_16h10.25.117,comp,2024.2.4,54.30581252775624,2025-02-24 16h10.35.986839 -0500,
129,129,0,critical,dhw,20.0,4.0,upper,141.0,141.0,200.0,125.0,125.0,200.0,3,0.9273316860198975,None,,,,,0,0,0,0,0,129,129,59,226.54308533668518,,,,,,,,,,,,,,,,,,,,,,,,,,,,,,,,,,,,,,,,,,,,,,,,,,,,,,,,,,,,,,,,,,,,,,,,,,,,,,,,,141.0,141.0,200.0,125.0,125.0,200.0,4.0,4.2,-229,-9,0,-287,258,2,226.52662587165833,226.52673244476318,226.52978920936584,226.54308533668518,226.68936729431152,226.68936729431152,226.68936729431152,226.68936729431152,226.68936729431152,226.68936729431152,226.68936729431152,227.47462630271912,3,0.9273316860198975,None,,,,,,,,,,,,,,,,,,102,1,2025-02-24_16h10.25.117,comp,2024.2.4,54.30581252775624,2025-02-24 16h10.35.986839 -0500,
130,130,0,critical,wdh,20.0,1.0,lower,57.0,133.0,78.0,78.0,133.0,57.0,3,1.2042174339294434,None,,,,,0,0,0,0,0,130,130,78,227.49007391929626,,,,,,,,,,,,,,,,,,,,,,,,,,,,,,,,,,,,,,,,,,,,,,,,,,,,,,,,,,,,,,,,,,,,,,,,,,,,,,,,,57.0,133.0,78.0,78.0,133.0,57.0,1.0,1.1,-682,262,-480,257,-316,273,227.47614455223083,227.47622060775757,227.47950315475464,227.49007391929626,227.6399040222168,227.6399040222168,227.6399040222168,227.6399040222168,227.6399040222168,227.6399040222168,227.6399040222168,228.7050359249115,3,1.2042174339294434,None,,,,,,,,,,,,,,,,,,102,1,2025-02-24_16h10.25.117,comp,2024.2.4,54.30581252775624,2025-02-24 16h10.35.986839 -0500,
131,131,0,filler_square,None,None,None,None,None,None,None,None,None,None,2,0.8687469959259033,None,,,,,0,0,0,0,0,131,131,207,228.72152256965637,,,,,,,,,,,,,,,,,,,,,,,,,,,,,,,,,,,,,,,,,,,,,,,,,,,,,,,,,,,,,,,,,,,,,,,,,,,,,,,,,145.95205227007864,107.0944079110196,114.83573781823432,146.75075108193283,156.75008205031065,156.75008205031065,2.1,2.11,-223,264,0,263,248,-267,228.70681166648865,228.7068886756897,228.7100110054016,228.72152256965637,228.87399697303772,228.87399697303772,228.87399697303772,228.87399697303772,228.87399697303772,228.87399697303772,228.87399697303772,229.606675863266,2,0.8687469959259033,None,,,,,,,,,,,,,,,,,,102,1,2025-02-24_16h10.25.117,comp,2024.2.4,54.30581252775624,2025-02-24 16h10.35.986839 -0500,
132,132,0,critical,dwh,35.0,3.0,lower,70.0,70.0,57.0,133.0,133.0,57.0,3,1.055840015411377,None,,,,,0,0,0,0,0,132,132,62,229.6226625442505,,,,,,,,,,,,,,,,,,,,,,,,,,,,,,,,,,,,,,,,,,,,,,,,,,,,,,,,,,,,,,,,,,,,,,,,,,,,,,,,,70.0,70.0,57.0,133.0,133.0,57.0,3.0,3.1,-198,278,0,-2,191,-287,229.6082947254181,229.60836958885193,229.6124403476715,229.6226625442505,229.77855968475342,229.77855968475342,229.77855968475342,229.77855968475342,229.77855968475342,229.77855968475342,229.77855968475342,230.69107103347778,3,1.055840015411377,None,,,,,,,,,,,,,,,,,,102,1,2025-02-24_16h10.25.117,comp,2024.2.4,54.30581252775624,2025-02-24 16h10.35.986839 -0500,
133,133,0,filler_random,None,None,None,None,None,None,None,None,None,None,3,0.7855677604675293,None,,,,,0,0,0,0,0,133,133,131,230.7088053226471,,,,,,,,,,,,,,,,,,,,,,,,,,,,,,,,,,,,,,,,,,,,,,,,,,,,,,,,,,,,,,,,,,,,,,,,,,,,,,,,,182.7594350281876,86.16941682976464,107.70106703482315,158.28262827461614,164.0235526218217,195.06994043844495,1.0,1.3,262,-270,480,-282,753,-270,230.69271850585938,230.69279646873474,230.69602036476135,230.7088053226471,230.85928773880005,230.85928773880005,230.85928773880005,230.85928773880005,230.85928773880005,230.85928773880005,230.85928773880005,231.50750160217285,3,0.7855677604675293,None,,,,,,,,,,,,,,,,,,102,1,2025-02-24_16h10.25.117,comp,2024.2.4,54.30581252775624,2025-02-24 16h10.35.986839 -0500,
134,134,0,critical,dwh,35.0,1.0,lower,70.0,70.0,57.0,133.0,133.0,57.0,2,1.0344760417938232,None,,,,,0,0,0,0,0,134,134,60,231.52384686470032,,,,,,,,,,,,,,,,,,,,,,,,,,,,,,,,,,,,,,,,,,,,,,,,,,,,,,,,,,,,,,,,,,,,,,,,,,,,,,,,,70.0,70.0,57.0,133.0,133.0,57.0,1.0,1.3,282,-264,480,-278,671,-286,231.5090618133545,231.50914025306702,231.5132920742035,231.52384686470032,231.68013954162598,231.68013954162598,231.68013954162598,231.68013954162598,231.68013954162598,231.68013954162598,231.68013954162598,232.56137347221375,2,1.0344760417938232,None,,,,,,,,,,,,,,,,,,102,1,2025-02-24_16h10.25.117,comp,2024.2.4,54.30581252775624,2025-02-24 16h10.35.986839 -0500,
135,135,0,filler_square,None,None,None,None,None,None,None,None,None,None,3,1.240483045578003,None,,,,,0,0,0,0,0,135,135,196,232.58256435394287,,,,,,,,,,,,,,,,,,,,,,,,,,,,,,,,,,,,,,,,,,,,,,,,,,,,,,,,,,,,,,,,,,,,,,,,,,,,,,,,,73.94356277514623,86.21541815941443,115.24842244123877,68.74860638086827,133.53621030670712,133.53621030670712,1.0,1.1,-653,273,-480,269,-283,270,232.56341075897217,232.56356859207153,232.56695938110352,232.58256435394287,232.72483777999878,232.72483777999878,232.72483777999878,232.72483777999878,232.72483777999878,232.72483777999878,232.72483777999878,233.82974553108215,3,1.240483045578003,None,,,,,,,,,,,,,,,,,,102,1,2025-02-24_16h10.25.117,comp,2024.2.4,54.30581252775624,2025-02-24 16h10.35.986839 -0500,
136,136,0,critical,hdw,20.0,2.1,upper,200.0,125.0,141.0,141.0,125.0,200.0,1,0.8329014778137207,None,,,,,0,0,0,0,0,136,136,23,233.84547424316406,,,,,,,,,,,,,,,,,,,,,,,,,,,,,,,,,,,,,,,,,,,,,,,,,,,,,,,,,,,,,,,,,,,,,,,,,,,,,,,,,200.0,125.0,141.0,141.0,125.0,200.0,2.1,2.11,-229,259,0,256,266,-268,233.83127403259277,233.8313500881195,233.83479762077332,233.84547424316406,233.9912462234497,233.9912462234497,233.9912462234497,233.9912462234497,233.9912462234497,233.9912462234497,233.9912462234497,234.69000339508057,1,0.8329014778137207,None,,,,,,,,,,,,,,,,,,102,1,2025-02-24_16h10.25.117,comp,2024.2.4,54.30581252775624,2025-02-24 16h10.35.986839 -0500,
137,137,0,filler_square,None,None,None,None,None,None,None,None,None,None,2,0.7486846446990967,None,,,,,0,0,0,0,0,137,137,206,234.70590662956238,,,,,,,,,,,,,,,,,,,,,,,,,,,,,,,,,,,,,,,,,,,,,,,,,,,,,,,,,,,,,,,,,,,,,,,,,,,,,,,,,78.45189334188572,75.22583300842156,81.89428606446035,70.48781640389028,96.88673629597207,96.88673629597207,2.1,2.12,-169,-262,0,-289,180,281,234.69177222251892,234.69184803962708,234.69502568244934,234.70590662956238,234.8544557094574,234.8544557094574,234.8544557094574,234.8544557094574,234.8544557094574,234.8544557094574,234.8544557094574,235.45741248130798,2,0.7486846446990967,None,,,,,,,,,,,,,,,,,,102,1,2025-02-24_16h10.25.117,comp,2024.2.4,54.30581252775624,2025-02-24 16h10.35.986839 -0500,
138,138,0,filler_square,None,None,None,None,None,None,None,None,None,None,2,0.9308285713195801,None,,,,,0,0,0,0,0,138,138,181,235.47544693946838,,,,,,,,,,,,,,,,,,,,,,,,,,,,,,,,,,,,,,,,,,,,,,,,,,,,,,,,,,,,,,,,,,,,,,,,,,,,,,,,,131.8670492799747,187.14362864784903,199.21923913327058,199.21923913327058,102.83413560778425,103.90506469826813,2.1,2.12,-289,-269,0,-273,248,252,235.45919561386108,235.4592728614807,235.46245193481445,235.47544693946838,235.62692713737488,235.62692713737488,235.62692713737488,235.62692713737488,235.62692713737488,235.62692713737488,235.62692713737488,236.40936660766602,2,0.9308285713195801,None,,,,,,,,,,,,,,,,,,102,1,2025-02-24_16h10.25.117,comp,2024.2.4,54.30581252775624,2025-02-24 16h10.35.986839 -0500,
139,139,0,critical,dwh,20.0,1.0,lower,78.0,78.0,57.0,133.0,133.0,57.0,2,0.8067548274993896,None,,,,,0,0,0,0,0,139,139,66,236.4250454902649,,,,,,,,,,,,,,,,,,,,,,,,,,,,,,,,,,,,,,,,,,,,,,,,,,,,,,,,,,,,,,,,,,,,,,,,,,,,,,,,,78.0,78.0,57.0,133.0,133.0,57.0,1.0,1.3,278,-259,480,-266,671,-256,236.41091442108154,236.4109947681427,236.41443395614624,236.4250454902649,236.57461953163147,236.57461953163147,236.57461953163147,236.57461953163147,236.57461953163147,236.57461953163147,236.57461953163147,237.24305295944214,2,0.8067548274993896,None,,,,,,,,,,,,,,,,,,102,1,2025-02-24_16h10.25.117,comp,2024.2.4,54.30581252775624,2025-02-24 16h10.35.986839 -0500,
