thisN,thisTrialN,thisRepN,effect,order,distance,config,diag,h_1,w_1,h_2,w_2,h_3,w_3,rect_choice.keys,rect_choice.rt,rect_choice.duration,instructions_loop.thisRepN,instructions_loop.thisTrialN,instructions_loop.thisN,instructions_loop.thisIndex,blocks.thisRepN,blocks.thisTrialN,blocks.thisN,blocks.thisIndex,trials.thisRepN,trials.thisTrialN,trials.thisN,trials.thisIndex,thisRow.t,notes,consent.started,agree_button.started,decline_button.started,consent_img.started,mouse.started,consent.stopped,agree_button.numClicks,agree_button.timesOn,agree_button.timesOff,decline_button.numClicks,decline_button.timesOn,decline_button.timesOff,mouse.x,mouse.y,mouse.leftButton,mouse.midButton,mouse.rightButton,mouse.time,mouse.clicked_name,exp_params.started,exp_params.stopped,welcome.started,welcome_text.started,welcome.stopped,instructions_1.started,instructions_1_text_1.started,instructions_1_text_2.started,key_resp.started,instructions_1.stopped,instructions_loop.key_resp.keys,instructions_loop.key_resp.rt,instructions_loop.key_resp.duration,instructions_2.started,instructions_2_text_1.started,instructions_2_text_2.started,key_resp_2.started,instructions_2.stopped,instructions_loop.key_resp_2.keys,instructions_loop.key_resp_2.rt,instructions_loop.key_resp_2.duration,instructions_3.started,instructions_3_text_1.started,r1_instr3.started,r2_instr3.started,r3_instr3.started,r1_instr3_label.started,r2_instr3_label.started,r3_instr3_label.started,instructions_3_text_3.started,instructions_3_text_4.started,key_resp_3.started,instructions_3.stopped,instructions_loop.key_resp_3.keys,instructions_loop.key_resp_3.rt,instructions_loop.key_resp_3.duration,instructions_4.started,instructions_4_text_1.started,instructions_4_text_3.started,instructions_4_text_2.started,key_resp_4.started,instructions_4.stopped,instructions_loop.key_resp_4.keys,instructions_loop.key_resp_4.rt,instructions_loop.key_resp_4.duration,instructions_5.started,instructions_5_text_1.started,instructions_5_text_2.started,key_resp_5.started,instructions_5.stopped,instructions_loop.key_resp_5.keys,instructions_loop.key_resp_5.rt,instructions_loop.key_resp_5.duration,start_exp.started,start_exp_text.started,key_resp_6.started,start_exp.stopped,key_resp_6.keys,key_resp_6.rt,key_resp_6.duration,h_1_tmp,w_1_tmp,h_2_tmp,w_2_tmp,h_3_tmp,w_3_tmp,config_tmp,config_tmp_1,r_1_x,r_1_y,r_2_x,r_2_y,r_3_x,r_3_y,pre_trial.started,pre_trial.stopped,choice_trial.started,rect_choice.started,r_1.started,r_2.started,r_3.started,r_1_label.started,r_2_label.started,r_3_label.started,prompt.started,choice_trial.stopped,trials.rect_choice.keys,trials.rect_choice.rt,trials.rect_choice.duration,end_block.started,end_block_text.started,end_block.stopped,end.started,end_text.started,key_resp_7.started,end.stopped,key_resp_7.keys,key_resp_7.rt,key_resp_7.duration,debriefing.started,debrief_form.started,end_debrief.started,debriefing.stopped,end_debrief.keys,end_debrief.rt,end_debrief.duration,participant,computer,date,expName,psychopyVersion,frameRate,expStart,
,,,,,,,,,,,,,,,,,,,,,,,,,,,,,,,0.014762639999389648,0.03818845748901367,0.03818845748901367,0.03818845748901367,0.014574289321899414,34.32740592956543,1,[34.28683543205261],[34.28685998916626],0,,,[-81.0],[-489.0],[1],[0],[0],[34.31207275390625],['agree_button'],,,,,,,,,,,,,,,,,,,,,,,,,,,,,,,,,,,,,,,,,,,,,,,,,,,,,,,,,,,,,,,,,,,,,,,,,,,,,,,,,,,,,,,,,,,,,,,,,,,,,,,,,,,103,2,2025-02-24_16h09.46.052,comp,2024.2.4,57.30401030686984,2025-02-24 16h10.01.924045 -0500,
,,,,,,,,,,,,,,,,,,,,,,,,,,,,,,,,,,,,,,,,,,,,,,,,,,34.327959060668945,34.32802414894104,,,,,,,,,,,,,,,,,,,,,,,,,,,,,,,,,,,,,,,,,,,,,,,,,,,,,,,,,,,,,,,,,,,,,,,,,,,,,,,,,,,,,,,,,,,,,,,,,,,,,,,,,103,2,2025-02-24_16h09.46.052,comp,2024.2.4,57.30401030686984,2025-02-24 16h10.01.924045 -0500,
,,,,,,,,,,,,,,,,,,,,,,,,,,,,,,,,,,,,,,,,,,,,,,,,,,,,34.328067779541016,34.3434157371521,36.3293399810791,,,,,,,,,,,,,,,,,,,,,,,,,,,,,,,,,,,,,,,,,,,,,,,,,,,,,,,,,,,,,,,,,,,,,,,,,,,,,,,,,,,,,,,,,,,,,,,,,,,,,,103,2,2025-02-24_16h09.46.052,comp,2024.2.4,57.30401030686984,2025-02-24 16h10.01.924045 -0500,
0,0,0,,,,,,,,,,,,,,,0,0,0,0,,,,,,,,,36.34839749336243,,,,,,,,,,,,,,,,,,,,,,,,,,36.33026480674744,36.34839749336243,36.34839749336243,37.83311605453491,43.98410367965698,space,6.134194850921631,None,43.984262228012085,43.9996235370636,43.9996235370636,45.48349213600159,54.554603576660156,space,9.067711353302002,None,54.55475449562073,54.58460879325867,54.58460879325867,54.58460879325867,54.58460879325867,54.58460879325867,54.58460879325867,54.58460879325867,54.58460879325867,54.58460879325867,56.052512884140015,67.55963921546936,space,11.499593734741211,None,67.55979681015015,67.57707142829895,67.57707142829895,67.57707142829895,69.07480549812317,75.02776050567627,space,5.9421281814575195,None,75.02790784835815,75.04329299926758,75.04329299926758,76.54304075241089,78.29331517219543,space,1.7458012104034424,None,78.29356360435486,78.30962300300598,78.30962300300598,79.94383835792542,space,1.6176037788391113,None,,,,,,,,,,,,,,,,,,,,,,,,,,,,,,,,,,,,,,,,,,,,,,,103,2,2025-02-24_16h09.46.052,comp,2024.2.4,57.30401030686984,2025-02-24 16h10.01.924045 -0500,
0,0,0,critical,hwd,35.0,4.0,upper,200.0,125.0,125.0,200.0,127.0,127.0,2,13.179267406463623,None,,,,,0,0,0,0,0,0,0,101,80.02007985115051,,,,,,,,,,,,,,,,,,,,,,,,,,,,,,,,,,,,,,,,,,,,,,,,,,,,,,,,,,,,,,,,,,,,,,,,,,,,,,,,,200.0,125.0,125.0,200.0,127.0,127.0,4.0,4.2,-258,6,0,-288,260,-7,80.00400376319885,80.00403690338135,80.0052216053009,80.02007985115051,80.1693823337555,80.1693823337555,80.1693823337555,80.1693823337555,80.1693823337555,80.1693823337555,80.1693823337555,93.20217871665955,2,13.179267406463623,None,,,,,,,,,,,,,,,,,,103,2,2025-02-24_16h09.46.052,comp,2024.2.4,57.30401030686984,2025-02-24 16h10.01.924045 -0500,
1,1,0,critical,hwd,35.0,2.1,upper,200.0,125.0,125.0,200.0,127.0,127.0,2,5.883578062057495,None,,,,,0,0,0,0,0,1,1,41,93.21975040435791,,,,,,,,,,,,,,,,,,,,,,,,,,,,,,,,,,,,,,,,,,,,,,,,,,,,,,,,,,,,,,,,,,,,,,,,,,,,,,,,,200.0,125.0,125.0,200.0,127.0,127.0,2.1,2.11,-258,285,0,279,260,-284,93.20372891426086,93.20378994941711,93.20689129829407,93.21975040435791,93.37071132659912,93.37071132659912,93.37071132659912,93.37071132659912,93.37071132659912,93.37071132659912,93.37071132659912,99.11873984336853,2,5.883578062057495,None,,,,,,,,,,,,,,,,,,103,2,2025-02-24_16h09.46.052,comp,2024.2.4,57.30401030686984,2025-02-24 16h10.01.924045 -0500,
2,2,0,critical,dwh,20.0,2.1,upper,141.0,141.0,125.0,200.0,200.0,125.0,2,3.009384870529175,None,,,,,0,0,0,0,0,2,2,31,99.13481974601746,,,,,,,,,,,,,,,,,,,,,,,,,,,,,,,,,,,,,,,,,,,,,,,,,,,,,,,,,,,,,,,,,,,,,,,,,,,,,,,,,141.0,141.0,125.0,200.0,200.0,125.0,2.1,2.12,-266,-284,0,-264,258,251,99.12043881416321,99.12059664726257,99.12413716316223,99.13481974601746,99.27630877494812,99.27630877494812,99.27630877494812,99.27630877494812,99.27630877494812,99.27630877494812,99.27630877494812,102.15314650535583,2,3.009384870529175,None,,,,,,,,,,,,,,,,,,103,2,2025-02-24_16h09.46.052,comp,2024.2.4,57.30401030686984,2025-02-24 16h10.01.924045 -0500,
3,3,0,critical,hdw,20.0,3.0,upper,200.0,125.0,141.0,141.0,125.0,200.0,3,3.416425943374634,None,,,,,0,0,0,0,0,3,3,117,102.16791129112244,,,,,,,,,,,,,,,,,,,,,,,,,,,,,,,,,,,,,,,,,,,,,,,,,,,,,,,,,,,,,,,,,,,,,,,,,,,,,,,,,200.0,125.0,141.0,141.0,125.0,200.0,3.0,3.1,-229,258,0,13,266,-277,102.15470790863037,102.15478539466858,102.1582658290863,102.16791129112244,102.31939220428467,102.31939220428467,102.31939220428467,102.31939220428467,102.31939220428467,102.31939220428467,102.31939220428467,105.58980321884155,3,3.416425943374634,None,,,,,,,,,,,,,,,,,,103,2,2025-02-24_16h09.46.052,comp,2024.2.4,57.30401030686984,2025-02-24 16h10.01.924045 -0500,
4,4,0,critical,hwd,20.0,2.1,upper,200.0,125.0,125.0,200.0,141.0,141.0,2,2.2173337936401367,None,,,,,0,0,0,0,0,4,4,19,105.60614204406738,,,,,,,,,,,,,,,,,,,,,,,,,,,,,,,,,,,,,,,,,,,,,,,,,,,,,,,,,,,,,,,,,,,,,,,,,,,,,,,,,200.0,125.0,125.0,200.0,141.0,141.0,2.1,2.11,-258,262,0,270,266,-251,105.59132122993469,105.59140014648438,105.59450125694275,105.60614204406738,105.75282692909241,105.75282692909241,105.75282692909241,105.75282692909241,105.75282692909241,105.75282692909241,105.75282692909241,107.83787822723389,2,2.2173337936401367,None,,,,,,,,,,,,,,,,,,103,2,2025-02-24_16h09.46.052,comp,2024.2.4,57.30401030686984,2025-02-24 16h10.01.924045 -0500,
5,5,0,critical,wdh,20.0,1.0,upper,125.0,200.0,141.0,141.0,200.0,125.0,1,2.153737783432007,None,,,,,0,0,0,0,0,5,5,79,107.85373711585999,,,,,,,,,,,,,,,,,,,,,,,,,,,,,,,,,,,,,,,,,,,,,,,,,,,,,,,,,,,,,,,,,,,,,,,,,,,,,,,,,125.0,200.0,141.0,141.0,200.0,125.0,1.0,1.2,-266,-4,0,11,229,-19,107.83944725990295,107.83957195281982,107.84334111213684,107.85373711585999,108.00585126876831,108.00585126876831,108.00585126876831,108.00585126876831,108.00585126876831,108.00585126876831,108.00585126876831,110.0206847190857,1,2.153737783432007,None,,,,,,,,,,,,,,,,,,103,2,2025-02-24_16h09.46.052,comp,2024.2.4,57.30401030686984,2025-02-24 16h10.01.924045 -0500,
6,6,0,critical,dwh,35.0,2.1,lower,70.0,70.0,57.0,133.0,133.0,57.0,2,2.812443494796753,None,,,,,0,0,0,0,0,6,6,28,110.03716731071472,,,,,,,,,,,,,,,,,,,,,,,,,,,,,,,,,,,,,,,,,,,,,,,,,,,,,,,,,,,,,,,,,,,,,,,,,,,,,,,,,70.0,70.0,57.0,133.0,133.0,57.0,2.1,2.12,-198,-279,0,-257,191,289,110.02226686477661,110.02233958244324,110.02588891983032,110.03716731071472,110.18903493881226,110.18903493881226,110.18903493881226,110.18903493881226,110.18903493881226,110.18903493881226,110.18903493881226,112.85464334487915,2,2.812443494796753,None,,,,,,,,,,,,,,,,,,103,2,2025-02-24_16h09.46.052,comp,2024.2.4,57.30401030686984,2025-02-24 16h10.01.924045 -0500,
7,7,0,critical,whd,20.0,2.1,lower,57.0,133.0,133.0,57.0,78.0,78.0,2,4.919993877410889,None,,,,,0,0,0,0,0,7,7,14,112.8713014125824,,,,,,,,,,,,,,,,,,,,,,,,,,,,,,,,,,,,,,,,,,,,,,,,,,,,,,,,,,,,,,,,,,,,,,,,,,,,,,,,,57.0,133.0,133.0,57.0,78.0,78.0,2.1,2.12,-191,-279,0,-282,164,284,112.85612106323242,112.85619878768921,112.85953211784363,112.8713014125824,113.02659678459167,113.02659678459167,113.02659678459167,113.02659678459167,113.02659678459167,113.02659678459167,113.02659678459167,117.80715107917786,2,4.919993877410889,None,,,,,,,,,,,,,,,,,,103,2,2025-02-24_16h09.46.052,comp,2024.2.4,57.30401030686984,2025-02-24 16h10.01.924045 -0500,
8,8,0,critical,dwh,35.0,1.0,upper,127.0,127.0,125.0,200.0,200.0,125.0,2,3.1365320682525635,None,,,,,0,0,0,0,0,8,8,61,117.8228075504303,,,,,,,,,,,,,,,,,,,,,,,,,,,,,,,,,,,,,,,,,,,,,,,,,,,,,,,,,,,,,,,,,,,,,,,,,,,,,,,,,127.0,127.0,125.0,200.0,200.0,125.0,1.0,1.1,-740,263,-480,265,-222,258,117.8086941242218,117.80876994132996,117.81254744529724,117.8228075504303,117.97313070297241,117.97313070297241,117.97313070297241,117.97313070297241,117.97313070297241,117.97313070297241,117.97313070297241,120.97641038894653,2,3.1365320682525635,None,,,,,,,,,,,,,,,,,,103,2,2025-02-24_16h09.46.052,comp,2024.2.4,57.30401030686984,2025-02-24 16h10.01.924045 -0500,
9,9,0,critical,hdw,20.0,4.0,lower,133.0,57.0,78.0,78.0,57.0,133.0,3,2.655795097351074,None,,,,,0,0,0,0,0,9,9,118,120.99219608306885,,,,,,,,,,,,,,,,,,,,,,,,,,,,,,,,,,,,,,,,,,,,,,,,,,,,,,,,,,,,,,,,,,,,,,,,,,,,,,,,,133.0,57.0,78.0,78.0,57.0,133.0,4.0,4.2,-164,-13,0,-263,202,-3,120.9780867099762,120.97816109657288,120.98178291320801,120.99219608306885,121.14267373085022,121.14267373085022,121.14267373085022,121.14267373085022,121.14267373085022,121.14267373085022,121.14267373085022,123.65930032730103,3,2.655795097351074,None,,,,,,,,,,,,,,,,,,103,2,2025-02-24_16h09.46.052,comp,2024.2.4,57.30401030686984,2025-02-24 16h10.01.924045 -0500,
10,10,0,critical,dwh,20.0,1.0,lower,78.0,78.0,57.0,133.0,133.0,57.0,3,1.4590802192687988,None,,,,,0,0,0,0,0,10,10,66,123.67623138427734,,,,,,,,,,,,,,,,,,,,,,,,,,,,,,,,,,,,,,,,,,,,,,,,,,,,,,,,,,,,,,,,,,,,,,,,,,,,,,,,,78.0,78.0,57.0,133.0,133.0,57.0,1.0,1.2,-202,-17,0,17,191,12,123.66078567504883,123.66086077690125,123.66498279571533,123.67623138427734,123.8270275592804,123.8270275592804,123.8270275592804,123.8270275592804,123.8270275592804,123.8270275592804,123.8270275592804,125.14664125442505,3,1.4590802192687988,None,,,,,,,,,,,,,,,,,,103,2,2025-02-24_16h09.46.052,comp,2024.2.4,57.30401030686984,2025-02-24 16h10.01.924045 -0500,
11,11,0,filler_square,None,None,None,None,None,None,None,None,None,None,3,2.756324291229248,None,,,,,0,0,0,0,0,11,11,196,125.16295576095581,,,,,,,,,,,,,,,,,,,,,,,,,,,,,,,,,,,,,,,,,,,,,,,,,,,,,,,,,,,,,,,,,,,,,,,,,,,,,,,,,101.41435424675893,104.66272140662025,186.3091916107059,124.75133793364849,190.01474583571905,190.01474583571905,1.0,1.1,-691,254,-480,261,-227,266,125.14897203445435,125.14909243583679,125.15221428871155,125.16295576095581,125.32060408592224,125.32060408592224,125.32060408592224,125.32060408592224,125.32060408592224,125.32060408592224,125.32060408592224,127.92922568321228,3,2.756324291229248,None,,,,,,,,,,,,,,,,,,103,2,2025-02-24_16h09.46.052,comp,2024.2.4,57.30401030686984,2025-02-24 16h10.01.924045 -0500,
12,12,0,critical,dhw,35.0,2.1,upper,127.0,127.0,200.0,125.0,125.0,200.0,3,1.8697500228881836,None,,,,,0,0,0,0,0,12,12,1,127.94555354118347,,,,,,,,,,,,,,,,,,,,,,,,,,,,,,,,,,,,,,,,,,,,,,,,,,,,,,,,,,,,,,,,,,,,,,,,,,,,,,,,,127.0,127.0,200.0,125.0,125.0,200.0,2.1,2.11,-222,277,0,276,258,-263,127.93084263801575,127.93096375465393,127.93452286720276,127.94555354118347,128.09401559829712,128.09401559829712,128.09401559829712,128.09401559829712,128.09401559829712,128.09401559829712,128.09401559829712,129.82940816879272,3,1.8697500228881836,None,,,,,,,,,,,,,,,,,,103,2,2025-02-24_16h09.46.052,comp,2024.2.4,57.30401030686984,2025-02-24 16h10.01.924045 -0500,
13,13,0,critical,dhw,35.0,3.0,lower,70.0,70.0,133.0,57.0,57.0,133.0,2,4.065121650695801,None,,,,,0,0,0,0,0,13,13,50,129.8462061882019,,,,,,,,,,,,,,,,,,,,,,,,,,,,,,,,,,,,,,,,,,,,,,,,,,,,,,,,,,,,,,,,,,,,,,,,,,,,,,,,,70.0,70.0,133.0,57.0,57.0,133.0,3.0,3.1,-160,256,0,-19,191,-261,129.8311643600464,129.83128929138184,129.83481740951538,129.8462061882019,129.99422931671143,129.99422931671143,129.99422931671143,129.99422931671143,129.99422931671143,129.99422931671143,129.99422931671143,133.91428303718567,2,4.065121650695801,None,,,,,,,,,,,,,,,,,,103,2,2025-02-24_16h09.46.052,comp,2024.2.4,57.30401030686984,2025-02-24 16h10.01.924045 -0500,
14,14,0,filler_random,None,None,None,None,None,None,None,None,None,None,1,2.500741481781006,None,,,,,0,0,0,0,0,14,14,168,133.93056106567383,,,,,,,,,,,,,,,,,,,,,,,,,,,,,,,,,,,,,,,,,,,,,,,,,,,,,,,,,,,,,,,,,,,,,,,,,,,,,,,,,125.83152595556547,147.560378442728,173.75673786179374,97.47913226289063,118.62084317994061,106.96677704661101,2.1,2.11,-219,286,0,279,198,-276,133.9161674976349,133.91624665260315,133.9197256565094,133.93056106567383,134.0789933204651,134.0789933204651,134.0789933204651,134.0789933204651,134.0789933204651,134.0789933204651,134.0789933204651,136.4465754032135,1,2.500741481781006,None,,,,,,,,,,,,,,,,,,103,2,2025-02-24_16h09.46.052,comp,2024.2.4,57.30401030686984,2025-02-24 16h10.01.924045 -0500,
15,15,0,filler_random,None,None,None,None,None,None,None,None,None,None,3,2.3437845706939697,None,,,,,0,0,0,0,0,15,15,141,136.4635865688324,,,,,,,,,,,,,,,,,,,,,,,,,,,,,,,,,,,,,,,,,,,,,,,,,,,,,,,,,,,,,,,,,,,,,,,,,,,,,,,,,163.1309996333835,130.9389928053946,136.84266936673941,78.02191351043169,121.38529391316317,189.5501789456472,3.0,3.1,-200,252,0,-7,230,-278,136.44844579696655,136.44854712486267,136.45234537124634,136.4635865688324,136.61004734039307,136.61004734039307,136.61004734039307,136.61004734039307,136.61004734039307,136.61004734039307,136.61004734039307,138.8165409564972,3,2.3437845706939697,None,,,,,,,,,,,,,,,,,,103,2,2025-02-24_16h09.46.052,comp,2024.2.4,57.30401030686984,2025-02-24 16h10.01.924045 -0500,
16,16,0,filler_square,None,None,None,None,None,None,None,None,None,None,2,1.4705548286437988,None,,,,,0,0,0,0,0,16,16,185,138.83365297317505,,,,,,,,,,,,,,,,,,,,,,,,,,,,,,,,,,,,,,,,,,,,,,,,,,,,,,,,,,,,,,,,,,,,,,,,,,,,,,,,,129.57737439893887,93.59911278770853,194.16507535372608,194.16507535372608,133.5433351492805,105.70772198389342,2.2,2.22,-240,268,0,-286,246,-281,138.81867051124573,138.81875228881836,138.822425365448,138.83365297317505,138.9814429283142,138.9814429283142,138.9814429283142,138.9814429283142,138.9814429283142,138.9814429283142,138.9814429283142,140.312593460083,2,1.4705548286437988,None,,,,,,,,,,,,,,,,,,103,2,2025-02-24_16h09.46.052,comp,2024.2.4,57.30401030686984,2025-02-24 16h10.01.924045 -0500,
17,17,0,filler_random,None,None,None,None,None,None,None,None,None,None,1,2.5580215454101562,None,,,,,0,0,0,0,0,17,17,148,140.32930278778076,,,,,,,,,,,,,,,,,,,,,,,,,,,,,,,,,,,,,,,,,,,,,,,,,,,,,,,,,,,,,,,,,,,,,,,,,,,,,,,,,144.61896653538355,174.35744369402053,198.58391826639053,61.086173676374145,157.0171124329217,151.04135734833994,4.0,4.1,-214,-273,0,12,202,-258,140.31433248519897,140.31441020965576,140.3174548149109,140.32930278778076,140.48143672943115,140.48143672943115,140.48143672943115,140.48143672943115,140.48143672943115,140.48143672943115,140.48143672943115,142.90396571159363,1,2.5580215454101562,None,,,,,,,,,,,,,,,,,,103,2,2025-02-24_16h09.46.052,comp,2024.2.4,57.30401030686984,2025-02-24 16h10.01.924045 -0500,
18,18,0,critical,wdh,20.0,3.0,upper,125.0,200.0,141.0,141.0,200.0,125.0,1,2.7526133060455322,None,,,,,0,0,0,0,0,18,18,81,142.91986179351807,,,,,,,,,,,,,,,,,,,,,,,,,,,,,,,,,,,,,,,,,,,,,,,,,,,,,,,,,,,,,,,,,,,,,,,,,,,,,,,,,125.0,200.0,141.0,141.0,200.0,125.0,3.0,3.1,-266,255,0,-15,229,-288,142.9055049419403,142.90558218955994,142.90867495536804,142.91986179351807,143.0670223236084,143.0670223236084,143.0670223236084,143.0670223236084,143.0670223236084,143.0670223236084,143.0670223236084,145.68508577346802,1,2.7526133060455322,None,,,,,,,,,,,,,,,,,,103,2,2025-02-24_16h09.46.052,comp,2024.2.4,57.30401030686984,2025-02-24 16h10.01.924045 -0500,
19,19,0,critical,dwh,35.0,3.0,lower,70.0,70.0,57.0,133.0,133.0,57.0,3,2.530421733856201,None,,,,,0,0,0,0,0,19,19,62,145.70115303993225,,,,,,,,,,,,,,,,,,,,,,,,,,,,,,,,,,,,,,,,,,,,,,,,,,,,,,,,,,,,,,,,,,,,,,,,,,,,,,,,,70.0,70.0,57.0,133.0,133.0,57.0,3.0,3.1,-198,263,0,-2,191,-282,145.68675351142883,145.68683338165283,145.69082713127136,145.70115303993225,145.84759306907654,145.84759306907654,145.84759306907654,145.84759306907654,145.84759306907654,145.84759306907654,145.84759306907654,148.25278973579407,3,2.530421733856201,None,,,,,,,,,,,,,,,,,,103,2,2025-02-24_16h09.46.052,comp,2024.2.4,57.30401030686984,2025-02-24 16h10.01.924045 -0500,
20,20,0,critical,hwd,20.0,2.1,upper,200.0,125.0,125.0,200.0,141.0,141.0,1,2.432953119277954,None,,,,,0,0,0,0,0,20,20,43,148.27057433128357,,,,,,,,,,,,,,,,,,,,,,,,,,,,,,,,,,,,,,,,,,,,,,,,,,,,,,,,,,,,,,,,,,,,,,,,,,,,,,,,,200.0,125.0,125.0,200.0,141.0,141.0,2.1,2.12,-258,-251,0,-280,266,253,148.25437378883362,148.254460811615,148.25805640220642,148.27057433128357,148.41719484329224,148.41719484329224,148.41719484329224,148.41719484329224,148.41719484329224,148.41719484329224,148.41719484329224,150.71808552742004,1,2.432953119277954,None,,,,,,,,,,,,,,,,,,103,2,2025-02-24_16h09.46.052,comp,2024.2.4,57.30401030686984,2025-02-24 16h10.01.924045 -0500,
21,21,0,filler_random,None,None,None,None,None,None,None,None,None,None,1,2.305438756942749,None,,,,,0,0,0,0,0,21,21,134,150.7340235710144,,,,,,,,,,,,,,,,,,,,,,,,,,,,,,,,,,,,,,,,,,,,,,,,,,,,,,,,,,,,,,,,,,,,,,,,,,,,,,,,,192.38037480733084,171.8286509916974,66.47826613209054,174.05496266062576,126.95942292240166,153.84608250791234,3.0,3.2,-269,-256,0,-18,260,274,150.71979117393494,150.71987080574036,150.72339296340942,150.7340235710144,150.88744044303894,150.88744044303894,150.88744044303894,150.88744044303894,150.88744044303894,150.88744044303894,150.88744044303894,153.05300879478455,1,2.305438756942749,None,,,,,,,,,,,,,,,,,,103,2,2025-02-24_16h09.46.052,comp,2024.2.4,57.30401030686984,2025-02-24 16h10.01.924045 -0500,
22,22,0,filler_square,None,None,None,None,None,None,None,None,None,None,2,4.178570032119751,None,,,,,0,0,0,0,0,22,22,209,153.06964302062988,,,,,,,,,,,,,,,,,,,,,,,,,,,,,,,,,,,,,,,,,,,,,,,,,,,,,,,,,,,,,,,,,,,,,,,,,,,,,,,,,57.06228142907507,57.344408324294974,57.43722098902893,57.302863457555816,57.48491826547931,57.48491826547931,2.1,2.12,-153,-276,0,-250,153,284,153.0550501346588,153.05516958236694,153.05926370620728,153.06964302062988,153.22049975395203,153.22049975395203,153.22049975395203,153.22049975395203,153.22049975395203,153.22049975395203,153.22049975395203,157.25331091880798,2,4.178570032119751,None,,,,,,,,,,,,,,,,,,103,2,2025-02-24_16h09.46.052,comp,2024.2.4,57.30401030686984,2025-02-24 16h10.01.924045 -0500,
23,23,0,critical,dwh,35.0,2.1,lower,70.0,70.0,57.0,133.0,133.0,57.0,2,2.497971534729004,None,,,,,0,0,0,0,0,23,23,4,157.26944041252136,,,,,,,,,,,,,,,,,,,,,,,,,,,,,,,,,,,,,,,,,,,,,,,,,,,,,,,,,,,,,,,,,,,,,,,,,,,,,,,,,70.0,70.0,57.0,133.0,133.0,57.0,2.1,2.11,-198,266,0,261,191,-261,157.25486636161804,157.2549467086792,157.25840950012207,157.26944041252136,157.4268753528595,157.4268753528595,157.4268753528595,157.4268753528595,157.4268753528595,157.4268753528595,157.4268753528595,159.77094554901123,2,2.497971534729004,None,,,,,,,,,,,,,,,,,,103,2,2025-02-24_16h09.46.052,comp,2024.2.4,57.30401030686984,2025-02-24 16h10.01.924045 -0500,
24,24,0,catch,None,None,None,None,None,None,None,None,None,None,3,1.772108554840088,None,,,,,0,0,0,0,0,24,24,122,159.7873613834381,,,,,,,,,,,,,,,,,,,,,,,,,,,,,,,,,,,,,,,,,,,,,,,,,,,,,,,,,,,,,,,,,,,,,,,,,,,,,,,,,107,83,82,108,196,129,3.0,3.1,-192,273,0,-9,214,-278,159.77296566963196,159.77304458618164,159.77653193473816,159.7873613834381,159.93733477592468,159.93733477592468,159.93733477592468,159.93733477592468,159.93733477592468,159.93733477592468,159.93733477592468,161.57008528709412,3,1.772108554840088,None,,,,,,,,,,,,,,,,,,103,2,2025-02-24_16h09.46.052,comp,2024.2.4,57.30401030686984,2025-02-24 16h10.01.924045 -0500,
25,25,0,critical,dhw,20.0,4.0,lower,78.0,78.0,133.0,57.0,57.0,133.0,3,1.365485429763794,None,,,,,0,0,0,0,0,25,25,58,161.58658576011658,,,,,,,,,,,,,,,,,,,,,,,,,,,,,,,,,,,,,,,,,,,,,,,,,,,,,,,,,,,,,,,,,,,,,,,,,,,,,,,,,78.0,78.0,133.0,57.0,57.0,133.0,4.0,4.1,-164,-266,0,8,191,-288,161.57172441482544,161.57180333137512,161.5751166343689,161.58658576011658,161.7365438938141,161.7365438938141,161.7365438938141,161.7365438938141,161.7365438938141,161.7365438938141,161.7365438938141,162.95663595199585,3,1.365485429763794,None,,,,,,,,,,,,,,,,,,103,2,2025-02-24_16h09.46.052,comp,2024.2.4,57.30401030686984,2025-02-24 16h10.01.924045 -0500,
26,26,0,filler_square,None,None,None,None,None,None,None,None,None,None,1,3.714357376098633,None,,,,,0,0,0,0,0,26,26,182,162.97357869148254,,,,,,,,,,,,,,,,,,,,,,,,,,,,,,,,,,,,,,,,,,,,,,,,,,,,,,,,,,,,,,,,,,,,,,,,,,,,,,,,,131.2370594279663,152.84728906125042,154.1070163028887,154.1070163028887,64.80759475596139,61.71687308455468,2.2,2.21,-249,-263,0,277,204,289,162.95873522758484,162.95881605148315,162.96282577514648,162.97357869148254,163.12490034103394,163.12490034103394,163.12490034103394,163.12490034103394,163.12490034103394,163.12490034103394,163.12490034103394,166.69359230995178,1,3.714357376098633,None,,,,,,,,,,,,,,,,,,103,2,2025-02-24_16h09.46.052,comp,2024.2.4,57.30401030686984,2025-02-24 16h10.01.924045 -0500,
27,27,0,filler_square,None,None,None,None,None,None,None,None,None,None,1,1.4782071113586426,None,,,,,0,0,0,0,0,27,27,188,166.71345591545105,,,,,,,,,,,,,,,,,,,,,,,,,,,,,,,,,,,,,,,,,,,,,,,,,,,,,,,,,,,,,,,,,,,,,,,,,,,,,,,,,103.28574566525232,103.28574566525232,74.11085931188602,81.4952835222162,93.0515256625374,83.28312357039277,2.1,2.11,-188,279,0,274,178,-280,166.69563508033752,166.69571661949158,166.69921708106995,166.71345591545105,166.85631656646729,166.85631656646729,166.85631656646729,166.85631656646729,166.85631656646729,166.85631656646729,166.85631656646729,168.20591259002686,1,1.4782071113586426,None,,,,,,,,,,,,,,,,,,103,2,2025-02-24_16h09.46.052,comp,2024.2.4,57.30401030686984,2025-02-24 16h10.01.924045 -0500,
28,28,0,critical,whd,20.0,1.0,lower,57.0,133.0,133.0,57.0,78.0,78.0,2,3.313718795776367,None,,,,,0,0,0,0,0,28,28,90,168.22173619270325,,,,,,,,,,,,,,,,,,,,,,,,,,,,,,,,,,,,,,,,,,,,,,,,,,,,,,,,,,,,,,,,,,,,,,,,,,,,,,,,,57.0,133.0,133.0,57.0,78.0,78.0,1.0,1.3,289,-268,480,-274,644,-287,168.20759654045105,168.20772910118103,168.21111536026,168.22173619270325,168.37365221977234,168.37365221977234,168.37365221977234,168.37365221977234,168.37365221977234,168.37365221977234,168.37365221977234,171.54852771759033,2,3.313718795776367,None,,,,,,,,,,,,,,,,,,103,2,2025-02-24_16h09.46.052,comp,2024.2.4,57.30401030686984,2025-02-24 16h10.01.924045 -0500,
29,29,0,filler_random,None,None,None,None,None,None,None,None,None,None,3,3.882822275161743,None,,,,,0,0,0,0,0,29,29,147,171.5653154850006,,,,,,,,,,,,,,,,,,,,,,,,,,,,,,,,,,,,,,,,,,,,,,,,,,,,,,,,,,,,,,,,,,,,,,,,,,,,,,,,,88.09910337898934,174.3857923148538,114.49708807950448,175.19417274469293,131.55977940006426,140.602131074191,1.0,1.3,209,-258,480,-265,734,-286,171.55037236213684,171.55055594444275,171.55388832092285,171.5653154850006,171.70822954177856,171.70822954177856,171.70822954177856,171.70822954177856,171.70822954177856,171.70822954177856,171.70822954177856,175.4561836719513,3,3.882822275161743,None,,,,,,,,,,,,,,,,,,103,2,2025-02-24_16h09.46.052,comp,2024.2.4,57.30401030686984,2025-02-24 16h10.01.924045 -0500,
30,30,0,critical,hdw,20.0,2.1,lower,133.0,57.0,78.0,78.0,57.0,133.0,1,3.3747830390930176,None,,,,,0,0,0,0,0,30,30,46,175.4726152420044,,,,,,,,,,,,,,,,,,,,,,,,,,,,,,,,,,,,,,,,,,,,,,,,,,,,,,,,,,,,,,,,,,,,,,,,,,,,,,,,,133.0,57.0,78.0,78.0,57.0,133.0,2.1,2.12,-164,-282,0,-270,202,268,175.4577934741974,175.45787286758423,175.46091628074646,175.4726152420044,175.61042261123657,175.61042261123657,175.61042261123657,175.61042261123657,175.61042261123657,175.61042261123657,175.61042261123657,178.8616111278534,1,3.3747830390930176,None,,,,,,,,,,,,,,,,,,103,2,2025-02-24_16h09.46.052,comp,2024.2.4,57.30401030686984,2025-02-24 16h10.01.924045 -0500,
31,31,0,filler_square,None,None,None,None,None,None,None,None,None,None,1,2.106053113937378,None,,,,,0,0,0,0,0,31,31,170,178.87797141075134,,,,,,,,,,,,,,,,,,,,,,,,,,,,,,,,,,,,,,,,,,,,,,,,,,,,,,,,,,,,,,,,,,,,,,,,,,,,,,,,,59.41015676080822,59.41015676080822,59.12210936924828,57.48853356670142,58.48647612528157,57.149681709370576,2.1,2.11,-154,256,0,268,153,-273,178.86379504203796,178.8638732433319,178.8676416873932,178.87797141075134,179.03339743614197,179.03339743614197,179.03339743614197,179.03339743614197,179.03339743614197,179.03339743614197,179.03339743614197,180.99437260627747,1,2.106053113937378,None,,,,,,,,,,,,,,,,,,103,2,2025-02-24_16h09.46.052,comp,2024.2.4,57.30401030686984,2025-02-24 16h10.01.924045 -0500,
32,32,0,catch,None,None,None,None,None,None,None,None,None,None,2,1.179802656173706,None,,,,,0,0,0,0,0,32,32,120,181.01158094406128,,,,,,,,,,,,,,,,,,,,,,,,,,,,,,,,,,,,,,,,,,,,,,,,,,,,,,,,,,,,,,,,,,,,,,,,,,,,,,,,,79,111,150,175,61,129,2.1,2.12,-239,-284,0,-257,248,265,180.99637961387634,180.99645853042603,180.99993443489075,181.01158094406128,181.16008043289185,181.16008043289185,181.16008043289185,181.16008043289185,181.16008043289185,181.16008043289185,181.16008043289185,182.1949644088745,2,1.179802656173706,None,,,,,,,,,,,,,,,,,,103,2,2025-02-24_16h09.46.052,comp,2024.2.4,57.30401030686984,2025-02-24 16h10.01.924045 -0500,
33,33,0,critical,whd,35.0,3.0,upper,125.0,200.0,200.0,125.0,127.0,127.0,1,1.868393898010254,None,,,,,0,0,0,0,0,33,33,87,182.21110773086548,,,,,,,,,,,,,,,,,,,,,,,,,,,,,,,,,,,,,,,,,,,,,,,,,,,,,,,,,,,,,,,,,,,,,,,,,,,,,,,,,125.0,200.0,200.0,125.0,127.0,127.0,3.0,3.2,-258,-277,0,-6,222,259,182.19662499427795,182.19675993919373,182.20036435127258,182.21110773086548,182.363614320755,182.363614320755,182.363614320755,182.363614320755,182.363614320755,182.363614320755,182.363614320755,184.09605360031128,1,1.868393898010254,None,,,,,,,,,,,,,,,,,,103,2,2025-02-24_16h09.46.052,comp,2024.2.4,57.30401030686984,2025-02-24 16h10.01.924045 -0500,
34,34,0,critical,whd,20.0,2.1,upper,125.0,200.0,200.0,125.0,141.0,141.0,1,1.4715540409088135,None,,,,,0,0,0,0,0,34,34,39,184.11200714111328,,,,,,,,,,,,,,,,,,,,,,,,,,,,,,,,,,,,,,,,,,,,,,,,,,,,,,,,,,,,,,,,,,,,,,,,,,,,,,,,,125.0,200.0,200.0,125.0,141.0,141.0,2.1,2.12,-258,-278,0,-252,229,258,184.0975468158722,184.09762239456177,184.10175395011902,184.11200714111328,184.26152086257935,184.26152086257935,184.26152086257935,184.26152086257935,184.26152086257935,184.26152086257935,184.26152086257935,185.6030445098877,1,1.4715540409088135,None,,,,,,,,,,,,,,,,,,103,2,2025-02-24_16h09.46.052,comp,2024.2.4,57.30401030686984,2025-02-24 16h10.01.924045 -0500,
35,35,0,critical,whd,20.0,1.0,upper,125.0,200.0,200.0,125.0,141.0,141.0,1,1.5373220443725586,None,,,,,0,0,0,0,0,35,35,91,185.62288165092468,,,,,,,,,,,,,,,,,,,,,,,,,,,,,,,,,,,,,,,,,,,,,,,,,,,,,,,,,,,,,,,,,,,,,,,,,,,,,,,,,125.0,200.0,200.0,125.0,141.0,141.0,1.0,1.3,222,-281,480,-250,709,-284,185.60453844070435,185.60461735725403,185.60762310028076,185.62288165092468,185.7625274658203,185.7625274658203,185.7625274658203,185.7625274658203,185.7625274658203,185.7625274658203,185.7625274658203,187.1801347732544,1,1.5373220443725586,None,,,,,,,,,,,,,,,,,,103,2,2025-02-24_16h09.46.052,comp,2024.2.4,57.30401030686984,2025-02-24 16h10.01.924045 -0500,
36,36,0,filler_square,None,None,None,None,None,None,None,None,None,None,3,0.9460873603820801,None,,,,,0,0,0,0,0,36,36,171,187.19799876213074,,,,,,,,,,,,,,,,,,,,,,,,,,,,,,,,,,,,,,,,,,,,,,,,,,,,,,,,,,,,,,,,,,,,,,,,,,,,,,,,,111.21332412635088,177.2083100664637,129.1644262267646,64.43830912846197,191.86226076730352,191.86226076730352,1.0,1.2,-217,-16,0,13,224,11,187.18199062347412,187.18209886550903,187.18533492088318,187.19799876213074,187.34591460227966,187.34591460227966,187.34591460227966,187.34591460227966,187.34591460227966,187.34591460227966,187.34591460227966,188.15095233917236,3,0.9460873603820801,None,,,,,,,,,,,,,,,,,,103,2,2025-02-24_16h09.46.052,comp,2024.2.4,57.30401030686984,2025-02-24 16h10.01.924045 -0500,
37,37,0,critical,dhw,20.0,2.1,upper,141.0,141.0,200.0,125.0,125.0,200.0,3,1.3095052242279053,None,,,,,0,0,0,0,0,37,37,27,188.1699755191803,,,,,,,,,,,,,,,,,,,,,,,,,,,,,,,,,,,,,,,,,,,,,,,,,,,,,,,,,,,,,,,,,,,,,,,,,,,,,,,,,141.0,141.0,200.0,125.0,125.0,200.0,2.1,2.12,-229,-275,0,-283,258,259,188.15253710746765,188.15261912345886,188.15573573112488,188.1699755191803,188.33667993545532,188.33667993545532,188.33667993545532,188.33667993545532,188.33667993545532,188.33667993545532,188.33667993545532,189.49371767044067,3,1.3095052242279053,None,,,,,,,,,,,,,,,,,,103,2,2025-02-24_16h09.46.052,comp,2024.2.4,57.30401030686984,2025-02-24 16h10.01.924045 -0500,
38,38,0,filler_square,None,None,None,None,None,None,None,None,None,None,3,0.9533772468566895,None,,,,,0,0,0,0,0,38,38,202,189.5100176334381,,,,,,,,,,,,,,,,,,,,,,,,,,,,,,,,,,,,,,,,,,,,,,,,,,,,,,,,,,,,,,,,,,,,,,,,,,,,,,,,,169.62740205550512,154.89728180461887,185.69477568101604,158.27130204354611,194.63351860151724,194.63351860151724,1.0,1.2,-253,14,0,-3,272,-5,189.49571251869202,189.4957890510559,189.49918174743652,189.5100176334381,189.66139841079712,189.66139841079712,189.66139841079712,189.66139841079712,189.66139841079712,189.66139841079712,189.66139841079712,190.47882771492004,3,0.9533772468566895,None,,,,,,,,,,,,,,,,,,103,2,2025-02-24_16h09.46.052,comp,2024.2.4,57.30401030686984,2025-02-24 16h10.01.924045 -0500,
39,39,0,filler_random,None,None,None,None,None,None,None,None,None,None,2,4.498889207839966,None,,,,,0,0,0,0,0,39,39,132,190.49328780174255,,,,,,,,,,,,,,,,,,,,,,,,,,,,,,,,,,,,,,,,,,,,,,,,,,,,,,,,,,,,,,,,,,,,,,,,,,,,,,,,,183.42542964375093,87.50267730993208,192.18645046601543,153.97493653156303,119.78103005101974,134.89781763261675,2.1,2.12,-217,-262,0,-272,240,287,190.48069524765015,190.48083090782166,190.4842722415924,190.49328780174255,190.64673566818237,190.64673566818237,190.64673566818237,190.64673566818237,190.64673566818237,190.64673566818237,190.64673566818237,194.99985814094543,2,4.498889207839966,None,,,,,,,,,,,,,,,,,,103,2,2025-02-24_16h09.46.052,comp,2024.2.4,57.30401030686984,2025-02-24 16h10.01.924045 -0500,
40,40,0,critical,wdh,35.0,3.0,upper,125.0,200.0,127.0,127.0,200.0,125.0,1,1.3509578704833984,None,,,,,0,0,0,0,0,40,40,75,195.01651859283447,,,,,,,,,,,,,,,,,,,,,,,,,,,,,,,,,,,,,,,,,,,,,,,,,,,,,,,,,,,,,,,,,,,,,,,,,,,,,,,,,125.0,200.0,127.0,127.0,200.0,125.0,3.0,3.1,-260,284,0,0,222,-250,195.00140857696533,195.00156211853027,195.00488567352295,195.01651859283447,195.16512966156006,195.16512966156006,195.16512966156006,195.16512966156006,195.16512966156006,195.16512966156006,195.16512966156006,196.38191056251526,1,1.3509578704833984,None,,,,,,,,,,,,,,,,,,103,2,2025-02-24_16h09.46.052,comp,2024.2.4,57.30401030686984,2025-02-24 16h10.01.924045 -0500,
41,41,0,filler_random,None,None,None,None,None,None,None,None,None,None,2,1.9054036140441895,None,,,,,0,0,0,0,0,41,41,160,196.39798021316528,,,,,,,,,,,,,,,,,,,,,,,,,,,,,,,,,,,,,,,,,,,,,,,,,,,,,,,,,,,,,,,,,,,,,,,,,,,,,,,,,137.39619260950195,101.8631261000888,183.39818356665427,81.18056134192703,109.47648825051871,88.64636692380311,3.0,3.1,-188,285,0,-1,181,-289,196.38379454612732,196.38393425941467,196.38759207725525,196.39798021316528,196.54557943344116,196.54557943344116,196.54557943344116,196.54557943344116,196.54557943344116,196.54557943344116,196.54557943344116,198.32107543945312,2,1.9054036140441895,None,,,,,,,,,,,,,,,,,,103,2,2025-02-24_16h09.46.052,comp,2024.2.4,57.30401030686984,2025-02-24 16h10.01.924045 -0500,
42,42,0,filler_random,None,None,None,None,None,None,None,None,None,None,1,1.25361967086792,None,,,,,0,0,0,0,0,42,42,158,198.3384952545166,,,,,,,,,,,,,,,,,,,,,,,,,,,,,,,,,,,,,,,,,,,,,,,,,,,,,,,,,,,,,,,,,,,,,,,,,,,,,,,,,75.66472232201099,188.336418565066,67.62261635321656,198.6774486082375,108.82399335971695,152.69784401183836,2.2,2.21,-290,-285,0,269,272,272,198.32286763191223,198.32294821739197,198.3260533809662,198.3384952545166,198.48360085487366,198.48360085487366,198.48360085487366,198.48360085487366,198.48360085487366,198.48360085487366,198.48360085487366,199.6003134250641,1,1.25361967086792,None,,,,,,,,,,,,,,,,,,103,2,2025-02-24_16h09.46.052,comp,2024.2.4,57.30401030686984,2025-02-24 16h10.01.924045 -0500,
43,43,0,critical,dhw,35.0,4.0,upper,127.0,127.0,200.0,125.0,125.0,200.0,3,2.159977912902832,None,,,,,0,0,0,0,0,43,43,53,199.61617350578308,,,,,,,,,,,,,,,,,,,,,,,,,,,,,,,,,,,,,,,,,,,,,,,,,,,,,,,,,,,,,,,,,,,,,,,,,,,,,,,,,127.0,127.0,200.0,125.0,125.0,200.0,4.0,4.2,-222,3,0,-268,258,5,199.60185766220093,199.60194063186646,199.6054186820984,199.61617350578308,199.77083826065063,199.77083826065063,199.77083826065063,199.77083826065063,199.77083826065063,199.77083826065063,199.77083826065063,201.78215408325195,3,2.159977912902832,None,,,,,,,,,,,,,,,,,,103,2,2025-02-24_16h09.46.052,comp,2024.2.4,57.30401030686984,2025-02-24 16h10.01.924045 -0500,
44,44,0,critical,dwh,20.0,2.1,lower,78.0,78.0,57.0,133.0,133.0,57.0,2,1.976820707321167,None,,,,,0,0,0,0,0,44,44,6,201.79867124557495,,,,,,,,,,,,,,,,,,,,,,,,,,,,,,,,,,,,,,,,,,,,,,,,,,,,,,,,,,,,,,,,,,,,,,,,,,,,,,,,,78.0,78.0,57.0,133.0,133.0,57.0,2.1,2.11,-202,279,0,268,191,-264,201.78369402885437,201.78377413749695,201.7870216369629,201.79867124557495,201.9466118812561,201.9466118812561,201.9466118812561,201.9466118812561,201.9466118812561,201.9466118812561,201.9466118812561,203.7890613079071,2,1.976820707321167,None,,,,,,,,,,,,,,,,,,103,2,2025-02-24_16h09.46.052,comp,2024.2.4,57.30401030686984,2025-02-24 16h10.01.924045 -0500,
45,45,0,critical,dwh,35.0,2.1,upper,127.0,127.0,125.0,200.0,200.0,125.0,2,1.2473781108856201,None,,,,,0,0,0,0,0,45,45,29,203.80095052719116,,,,,,,,,,,,,,,,,,,,,,,,,,,,,,,,,,,,,,,,,,,,,,,,,,,,,,,,,,,,,,,,,,,,,,,,,,,,,,,,,127.0,127.0,125.0,200.0,200.0,125.0,2.1,2.11,-260,262,0,275,258,-283,203.78969979286194,203.78972864151,203.7909369468689,203.80095052719116,203.9509584903717,203.9509584903717,203.9509584903717,203.9509584903717,203.9509584903717,203.9509584903717,203.9509584903717,205.05373740196228,2,1.2473781108856201,None,,,,,,,,,,,,,,,,,,103,2,2025-02-24_16h09.46.052,comp,2024.2.4,57.30401030686984,2025-02-24 16h10.01.924045 -0500,
46,46,0,filler_random,None,None,None,None,None,None,None,None,None,None,2,0.792813777923584,None,,,,,0,0,0,0,0,46,46,166,205.07075881958008,,,,,,,,,,,,,,,,,,,,,,,,,,,,,,,,,,,,,,,,,,,,,,,,,,,,,,,,,,,,,,,,,,,,,,,,,,,,,,,,,107.35387832260182,117.49531676058103,124.01191015630894,194.2656320991771,69.57293070592821,180.08059927937626,4.0,4.1,-252,-277,0,-7,283,-264,205.0559904575348,205.05612182617188,205.0592634677887,205.07075881958008,205.218257188797,205.218257188797,205.218257188797,205.218257188797,205.218257188797,205.218257188797,205.218257188797,205.87375712394714,2,0.792813777923584,None,,,,,,,,,,,,,,,,,,103,2,2025-02-24_16h09.46.052,comp,2024.2.4,57.30401030686984,2025-02-24 16h10.01.924045 -0500,
47,47,0,critical,hwd,20.0,1.0,upper,200.0,125.0,125.0,200.0,141.0,141.0,2,1.0452594757080078,None,,,,,0,0,0,0,0,47,47,103,205.89034414291382,,,,,,,,,,,,,,,,,,,,,,,,,,,,,,,,,,,,,,,,,,,,,,,,,,,,,,,,,,,,,,,,,,,,,,,,,,,,,,,,,200.0,125.0,125.0,200.0,141.0,141.0,1.0,1.1,-738,262,-480,280,-214,260,205.87570452690125,205.875821352005,205.87950491905212,205.89034414291382,206.03419852256775,206.03419852256775,206.03419852256775,206.03419852256775,206.03419852256775,206.03419852256775,206.03419852256775,206.9382359981537,2,1.0452594757080078,None,,,,,,,,,,,,,,,,,,103,2,2025-02-24_16h09.46.052,comp,2024.2.4,57.30401030686984,2025-02-24 16h10.01.924045 -0500,
48,48,0,critical,wdh,35.0,4.0,lower,57.0,133.0,70.0,70.0,133.0,57.0,1,1.739074945449829,None,,,,,0,0,0,0,0,48,48,76,206.95702505111694,,,,,,,,,,,,,,,,,,,,,,,,,,,,,,,,,,,,,,,,,,,,,,,,,,,,,,,,,,,,,,,,,,,,,,,,,,,,,,,,,57.0,133.0,70.0,70.0,133.0,57.0,4.0,4.1,-198,-263,0,16,160,-252,206.9401605129242,206.94028759002686,206.94351482391357,206.95702505111694,207.1030614376068,207.1030614376068,207.1030614376068,207.1030614376068,207.1030614376068,207.1030614376068,207.1030614376068,208.70271825790405,1,1.739074945449829,None,,,,,,,,,,,,,,,,,,103,2,2025-02-24_16h09.46.052,comp,2024.2.4,57.30401030686984,2025-02-24 16h10.01.924045 -0500,
49,49,0,filler_random,None,None,None,None,None,None,None,None,None,None,1,1.4415032863616943,None,,,,,0,0,0,0,0,49,49,135,208.7187614440918,,,,,,,,,,,,,,,,,,,,,,,,,,,,,,,,,,,,,,,,,,,,,,,,,,,,,,,,,,,,,,,,,,,,,,,,,,,,,,,,,126.81419442543346,199.2982132340316,105.55180829534677,199.8665617814168,95.84988805725624,131.66953681176597,3.0,3.2,-296,-288,0,-1,262,287,208.70440244674683,208.70449900627136,208.70793223381042,208.7187614440918,208.86872792243958,208.86872792243958,208.86872792243958,208.86872792243958,208.86872792243958,208.86872792243958,208.86872792243958,210.17073488235474,1,1.4415032863616943,None,,,,,,,,,,,,,,,,,,103,2,2025-02-24_16h09.46.052,comp,2024.2.4,57.30401030686984,2025-02-24 16h10.01.924045 -0500,
50,50,0,critical,whd,20.0,3.0,upper,125.0,200.0,200.0,125.0,141.0,141.0,2,1.204923391342163,None,,,,,0,0,0,0,0,50,50,93,210.1866328716278,,,,,,,,,,,,,,,,,,,,,,,,,,,,,,,,,,,,,,,,,,,,,,,,,,,,,,,,,,,,,,,,,,,,,,,,,,,,,,,,,125.0,200.0,200.0,125.0,141.0,141.0,3.0,3.2,-258,-268,0,19,229,264,210.17222356796265,210.17229866981506,210.175776720047,210.1866328716278,210.33874821662903,210.33874821662903,210.33874821662903,210.33874821662903,210.33874821662903,210.33874821662903,210.33874821662903,211.40254974365234,2,1.204923391342163,None,,,,,,,,,,,,,,,,,,103,2,2025-02-24_16h09.46.052,comp,2024.2.4,57.30401030686984,2025-02-24 16h10.01.924045 -0500,
51,51,0,critical,wdh,20.0,1.0,lower,57.0,133.0,78.0,78.0,133.0,57.0,3,1.3324754238128662,None,,,,,0,0,0,0,0,51,51,78,211.41953301429749,,,,,,,,,,,,,,,,,,,,,,,,,,,,,,,,,,,,,,,,,,,,,,,,,,,,,,,,,,,,,,,,,,,,,,,,,,,,,,,,,57.0,133.0,78.0,78.0,133.0,57.0,1.0,1.2,-202,15,0,-18,164,-15,211.40408611297607,211.40416502952576,211.40744543075562,211.41953301429749,211.571702003479,211.571702003479,211.571702003479,211.571702003479,211.571702003479,211.571702003479,211.571702003479,212.75992012023926,3,1.3324754238128662,None,,,,,,,,,,,,,,,,,,103,2,2025-02-24_16h09.46.052,comp,2024.2.4,57.30401030686984,2025-02-24 16h10.01.924045 -0500,
52,52,0,critical,dhw,35.0,3.0,upper,127.0,127.0,200.0,125.0,125.0,200.0,3,1.5387217998504639,None,,,,,0,0,0,0,0,52,52,51,212.78067898750305,,,,,,,,,,,,,,,,,,,,,,,,,,,,,,,,,,,,,,,,,,,,,,,,,,,,,,,,,,,,,,,,,,,,,,,,,,,,,,,,,127.0,127.0,200.0,125.0,125.0,200.0,3.0,3.2,-222,-254,0,-8,258,279,212.76144790649414,212.76155614852905,212.7649528980255,212.78067898750305,212.9183578491211,212.9183578491211,212.9183578491211,212.9183578491211,212.9183578491211,212.9183578491211,212.9183578491211,214.33791851997375,3,1.5387217998504639,None,,,,,,,,,,,,,,,,,,103,2,2025-02-24_16h09.46.052,comp,2024.2.4,57.30401030686984,2025-02-24 16h10.01.924045 -0500,
53,53,0,filler_square,None,None,None,None,None,None,None,None,None,None,2,1.0138962268829346,None,,,,,0,0,0,0,0,53,53,192,214.35408329963684,,,,,,,,,,,,,,,,,,,,,,,,,,,,,,,,,,,,,,,,,,,,,,,,,,,,,,,,,,,,,,,,,,,,,,,,,,,,,,,,,84.3830459495248,64.61022882052923,170.9219017140312,170.9219017140312,82.78619521618842,167.77663795135058,2.2,2.21,-214,-287,0,264,265,282,214.33982181549072,214.3398995399475,214.34374713897705,214.35408329963684,214.5013108253479,214.5013108253479,214.5013108253479,214.5013108253479,214.5013108253479,214.5013108253479,214.5013108253479,215.37195992469788,2,1.0138962268829346,None,,,,,,,,,,,,,,,,,,103,2,2025-02-24_16h09.46.052,comp,2024.2.4,57.30401030686984,2025-02-24 16h10.01.924045 -0500,
54,54,0,catch,None,None,None,None,None,None,None,None,None,None,3,1.1148788928985596,None,,,,,0,0,0,0,0,54,54,128,215.38855957984924,,,,,,,,,,,,,,,,,,,,,,,,,,,,,,,,,,,,,,,,,,,,,,,,,,,,,,,,,,,,,,,,,,,,,,,,,,,,,,,,,95,95,60,130,188,137,2.2,2.21,-208,-283,0,277,230,259,215.37393808364868,215.374014377594,215.3778669834137,215.38855957984924,215.54288744926453,215.54288744926453,215.54288744926453,215.54288744926453,215.54288744926453,215.54288744926453,215.54288744926453,216.50559782981873,3,1.1148788928985596,None,,,,,,,,,,,,,,,,,,103,2,2025-02-24_16h09.46.052,comp,2024.2.4,57.30401030686984,2025-02-24 16h10.01.924045 -0500,
55,55,0,filler_square,None,None,None,None,None,None,None,None,None,None,3,2.565469264984131,None,,,,,0,0,0,0,0,55,55,184,216.5220046043396,,,,,,,,,,,,,,,,,,,,,,,,,,,,,,,,,,,,,,,,,,,,,,,,,,,,,,,,,,,,,,,,,,,,,,,,,,,,,,,,,70.81445134798858,70.81445134798858,57.1986423535521,63.24935548557542,65.14718030076463,58.33056439196948,2.1,2.11,-163,281,0,258,157,-262,216.50758600234985,216.5076675415039,216.51116490364075,216.5220046043396,216.6716604232788,216.6716604232788,216.6716604232788,216.6716604232788,216.6716604232788,216.6716604232788,216.6716604232788,219.1053078174591,3,2.565469264984131,None,,,,,,,,,,,,,,,,,,103,2,2025-02-24_16h09.46.052,comp,2024.2.4,57.30401030686984,2025-02-24 16h10.01.924045 -0500,
56,56,0,critical,whd,35.0,3.0,lower,57.0,133.0,133.0,57.0,70.0,70.0,3,1.4058666229248047,None,,,,,0,0,0,0,0,56,56,86,219.12160539627075,,,,,,,,,,,,,,,,,,,,,,,,,,,,,,,,,,,,,,,,,,,,,,,,,,,,,,,,,,,,,,,,,,,,,,,,,,,,,,,,,57.0,133.0,133.0,57.0,70.0,70.0,3.0,3.2,-191,-253,0,9,160,267,219.10694289207458,219.10701966285706,219.11035990715027,219.12160539627075,219.27281522750854,219.27281522750854,219.27281522750854,219.27281522750854,219.27281522750854,219.27281522750854,219.27281522750854,220.53791618347168,3,1.4058666229248047,None,,,,,,,,,,,,,,,,,,103,2,2025-02-24_16h09.46.052,comp,2024.2.4,57.30401030686984,2025-02-24 16h10.01.924045 -0500,
57,57,0,filler_random,None,None,None,None,None,None,None,None,None,None,2,1.5477609634399414,None,,,,,0,0,0,0,0,57,57,153,220.55595922470093,,,,,,,,,,,,,,,,,,,,,,,,,,,,,,,,,,,,,,,,,,,,,,,,,,,,,,,,,,,,,,,,,,,,,,,,,,,,,,,,,178.6064585286961,76.77729666158197,126.22543624168709,146.40745871837566,185.4171199094698,84.37795393188887,2.2,2.21,-208,-274,0,288,211,280,220.53958868980408,220.5396637916565,220.5427577495575,220.55595922470093,220.70973706245422,220.70973706245422,220.70973706245422,220.70973706245422,220.70973706245422,220.70973706245422,220.70973706245422,222.10888838768005,2,1.5477609634399414,None,,,,,,,,,,,,,,,,,,103,2,2025-02-24_16h09.46.052,comp,2024.2.4,57.30401030686984,2025-02-24 16h10.01.924045 -0500,
58,58,0,critical,dhw,35.0,2.1,lower,70.0,70.0,133.0,57.0,57.0,133.0,3,1.5786526203155518,None,,,,,0,0,0,0,0,58,58,24,222.1255588531494,,,,,,,,,,,,,,,,,,,,,,,,,,,,,,,,,,,,,,,,,,,,,,,,,,,,,,,,,,,,,,,,,,,,,,,,,,,,,,,,,70.0,70.0,133.0,57.0,57.0,133.0,2.1,2.11,-160,286,0,263,191,-287,222.11067962646484,222.11081314086914,222.1148910522461,222.1255588531494,222.27497339248657,222.27497339248657,222.27497339248657,222.27497339248657,222.27497339248657,222.27497339248657,222.27497339248657,223.70770239830017,3,1.5786526203155518,None,,,,,,,,,,,,,,,,,,103,2,2025-02-24_16h09.46.052,comp,2024.2.4,57.30401030686984,2025-02-24 16h10.01.924045 -0500,
59,59,0,critical,wdh,35.0,2.1,lower,57.0,133.0,70.0,70.0,133.0,57.0,1,1.8278379440307617,None,,,,,0,0,0,0,0,59,59,8,223.72415280342102,,,,,,,,,,,,,,,,,,,,,,,,,,,,,,,,,,,,,,,,,,,,,,,,,,,,,,,,,,,,,,,,,,,,,,,,,,,,,,,,,57.0,133.0,70.0,70.0,133.0,57.0,2.1,2.12,-198,-283,0,-252,160,286,223.70927214622498,223.70934915542603,223.71292233467102,223.72415280342102,223.8782193660736,223.8782193660736,223.8782193660736,223.8782193660736,223.8782193660736,223.8782193660736,223.8782193660736,225.56055545806885,1,1.8278379440307617,None,,,,,,,,,,,,,,,,,,103,2,2025-02-24_16h09.46.052,comp,2024.2.4,57.30401030686984,2025-02-24 16h10.01.924045 -0500,
60,60,0,filler_random,None,None,None,None,None,None,None,None,None,None,1,1.290111780166626,None,,,,,0,0,0,0,0,60,60,162,225.58193922042847,,,,,,,,,,,,,,,,,,,,,,,,,,,,,,,,,,,,,,,,,,,,,,,,,,,,,,,,,,,,,,,,,,,,,,,,,,,,,,,,,123.02683155224206,92.714220326604,132.63563322396237,77.72958411374316,91.2030028487923,90.8583386414759,2.1,2.11,-181,263,0,288,180,-259,225.56253361701965,225.56266140937805,225.5661644935608,225.58193922042847,225.72445702552795,225.72445702552795,225.72445702552795,225.72445702552795,225.72445702552795,225.72445702552795,225.72445702552795,226.87849473953247,1,1.290111780166626,None,,,,,,,,,,,,,,,,,,103,2,2025-02-24_16h09.46.052,comp,2024.2.4,57.30401030686984,2025-02-24 16h10.01.924045 -0500,
61,61,0,critical,hwd,35.0,1.0,upper,200.0,125.0,125.0,200.0,127.0,127.0,1,1.5127384662628174,None,,,,,0,0,0,0,0,61,61,97,226.89492344856262,,,,,,,,,,,,,,,,,,,,,,,,,,,,,,,,,,,,,,,,,,,,,,,,,,,,,,,,,,,,,,,,,,,,,,,,,,,,,,,,,200.0,125.0,125.0,200.0,127.0,127.0,1.0,1.3,222,-269,480,-252,740,-261,226.87997913360596,226.88005685806274,226.8832700252533,226.89492344856262,227.04179859161377,227.04179859161377,227.04179859161377,227.04179859161377,227.04179859161377,227.04179859161377,227.04179859161377,228.41311931610107,1,1.5127384662628174,None,,,,,,,,,,,,,,,,,,103,2,2025-02-24_16h09.46.052,comp,2024.2.4,57.30401030686984,2025-02-24 16h10.01.924045 -0500,
62,62,0,critical,dwh,20.0,4.0,upper,141.0,141.0,125.0,200.0,200.0,125.0,2,1.2327589988708496,None,,,,,0,0,0,0,0,62,62,71,228.43079543113708,,,,,,,,,,,,,,,,,,,,,,,,,,,,,,,,,,,,,,,,,,,,,,,,,,,,,,,,,,,,,,,,,,,,,,,,,,,,,,,,,141.0,141.0,125.0,200.0,200.0,125.0,4.0,4.1,-266,-266,0,6,258,-284,228.41473388671875,228.41481351852417,228.41785979270935,228.43079543113708,228.57616209983826,228.57616209983826,228.57616209983826,228.57616209983826,228.57616209983826,228.57616209983826,228.57616209983826,229.6777527332306,2,1.2327589988708496,None,,,,,,,,,,,,,,,,,,103,2,2025-02-24_16h09.46.052,comp,2024.2.4,57.30401030686984,2025-02-24 16h10.01.924045 -0500,
63,63,0,critical,wdh,20.0,2.1,upper,125.0,200.0,141.0,141.0,200.0,125.0,3,2.4016215801239014,None,,,,,0,0,0,0,0,63,63,35,229.69383239746094,,,,,,,,,,,,,,,,,,,,,,,,,,,,,,,,,,,,,,,,,,,,,,,,,,,,,,,,,,,,,,,,,,,,,,,,,,,,,,,,,125.0,200.0,141.0,141.0,200.0,125.0,2.1,2.11,-266,277,0,283,229,-257,229.679541349411,229.67968249320984,229.6832628250122,229.69383239746094,229.84326457977295,229.84326457977295,229.84326457977295,229.84326457977295,229.84326457977295,229.84326457977295,229.84326457977295,232.1109094619751,3,2.4016215801239014,None,,,,,,,,,,,,,,,,,,103,2,2025-02-24_16h09.46.052,comp,2024.2.4,57.30401030686984,2025-02-24 16h10.01.924045 -0500,
64,64,0,critical,dhw,20.0,2.1,lower,78.0,78.0,133.0,57.0,57.0,133.0,3,1.4578306674957275,None,,,,,0,0,0,0,0,64,64,26,232.12710690498352,,,,,,,,,,,,,,,,,,,,,,,,,,,,,,,,,,,,,,,,,,,,,,,,,,,,,,,,,,,,,,,,,,,,,,,,,,,,,,,,,78.0,78.0,133.0,57.0,57.0,133.0,2.1,2.12,-164,-277,0,-288,191,287,232.11249041557312,232.11257123947144,232.1167495250702,232.12710690498352,232.27509665489197,232.27509665489197,232.27509665489197,232.27509665489197,232.27509665489197,232.27509665489197,232.27509665489197,233.59526300430298,3,1.4578306674957275,None,,,,,,,,,,,,,,,,,,103,2,2025-02-24_16h09.46.052,comp,2024.2.4,57.30401030686984,2025-02-24 16h10.01.924045 -0500,
65,65,0,filler_square,None,None,None,None,None,None,None,None,None,None,1,1.0274975299835205,None,,,,,0,0,0,0,0,65,65,193,233.61231684684753,,,,,,,,,,,,,,,,,,,,,,,,,,,,,,,,,,,,,,,,,,,,,,,,,,,,,,,,,,,,,,,,,,,,,,,,,,,,,,,,,177.68496659548828,177.68496659548828,121.67608179148641,133.93667266125146,74.96570876212171,108.14119051691264,1.0,1.3,228,-265,480,-268,697,-258,233.59730339050293,233.59738039970398,233.60133361816406,233.61231684684753,233.76758432388306,233.76758432388306,233.76758432388306,233.76758432388306,233.76758432388306,233.76758432388306,233.76758432388306,234.6442413330078,1,1.0274975299835205,None,,,,,,,,,,,,,,,,,,103,2,2025-02-24_16h09.46.052,comp,2024.2.4,57.30401030686984,2025-02-24 16h10.01.924045 -0500,
66,66,0,critical,hwd,20.0,1.0,lower,133.0,57.0,57.0,133.0,78.0,78.0,2,9.433432817459106,None,,,,,0,0,0,0,0,66,66,102,234.66206741333008,,,,,,,,,,,,,,,,,,,,,,,,,,,,,,,,,,,,,,,,,,,,,,,,,,,,,,,,,,,,,,,,,,,,,,,,,,,,,,,,,133.0,57.0,57.0,133.0,78.0,78.0,1.0,1.2,-191,-1,0,0,202,-13,234.64570713043213,234.6457817554474,234.6490671634674,234.66206741333008,234.82074117660522,234.82074117660522,234.82074117660522,234.82074117660522,234.82074117660522,234.82074117660522,234.82074117660522,244.09938526153564,2,9.433432817459106,None,,,,,,,,,,,,,,,,,,103,2,2025-02-24_16h09.46.052,comp,2024.2.4,57.30401030686984,2025-02-24 16h10.01.924045 -0500,
67,67,0,critical,dhw,35.0,2.1,lower,70.0,70.0,133.0,57.0,57.0,133.0,3,1.5399644374847412,None,,,,,0,0,0,0,0,67,67,0,244.11635828018188,,,,,,,,,,,,,,,,,,,,,,,,,,,,,,,,,,,,,,,,,,,,,,,,,,,,,,,,,,,,,,,,,,,,,,,,,,,,,,,,,70.0,70.0,133.0,57.0,57.0,133.0,2.1,2.11,-160,250,0,269,191,-285,244.10116052627563,244.101243019104,244.1052782535553,244.11635828018188,244.2623279094696,244.2623279094696,244.2623279094696,244.2623279094696,244.2623279094696,244.2623279094696,244.2623279094696,245.6626534461975,3,1.5399644374847412,None,,,,,,,,,,,,,,,,,,103,2,2025-02-24_16h09.46.052,comp,2024.2.4,57.30401030686984,2025-02-24 16h10.01.924045 -0500,
68,68,0,filler_square,None,None,None,None,None,None,None,None,None,None,3,1.8042359352111816,None,,,,,0,0,0,0,0,68,68,179,245.68326354026794,,,,,,,,,,,,,,,,,,,,,,,,,,,,,,,,,,,,,,,,,,,,,,,,,,,,,,,,,,,,,,,,,,,,,,,,,,,,,,,,,57.280015867893866,57.42447059434909,57.29705095696515,57.012747028264656,57.69586925517419,57.69586925517419,4.0,4.2,-153,7,0,-258,153,-5,245.66438722610474,245.66446185112,245.6677050590515,245.68326354026794,245.82017135620117,245.82017135620117,245.82017135620117,245.82017135620117,245.82017135620117,245.82017135620117,245.82017135620117,247.5007402896881,3,1.8042359352111816,None,,,,,,,,,,,,,,,,,,103,2,2025-02-24_16h09.46.052,comp,2024.2.4,57.30401030686984,2025-02-24 16h10.01.924045 -0500,
69,69,0,critical,wdh,35.0,4.0,upper,125.0,200.0,127.0,127.0,200.0,125.0,3,1.4639513492584229,None,,,,,0,0,0,0,0,69,69,77,247.51961612701416,,,,,,,,,,,,,,,,,,,,,,,,,,,,,,,,,,,,,,,,,,,,,,,,,,,,,,,,,,,,,,,,,,,,,,,,,,,,,,,,,125.0,200.0,127.0,127.0,200.0,125.0,4.0,4.2,-260,10,0,-267,222,-18,247.5024163722992,247.50254940986633,247.50615215301514,247.51961612701416,247.6653528213501,247.6653528213501,247.6653528213501,247.6653528213501,247.6653528213501,247.6653528213501,247.6653528213501,248.99879360198975,3,1.4639513492584229,None,,,,,,,,,,,,,,,,,,103,2,2025-02-24_16h09.46.052,comp,2024.2.4,57.30401030686984,2025-02-24 16h10.01.924045 -0500,
70,70,0,filler_square,None,None,None,None,None,None,None,None,None,None,3,1.112889051437378,None,,,,,0,0,0,0,0,70,70,195,249.01467871665955,,,,,,,,,,,,,,,,,,,,,,,,,,,,,,,,,,,,,,,,,,,,,,,,,,,,,,,,,,,,,,,,,,,,,,,,,,,,,,,,,109.44213033764362,109.44213033764362,84.6327638215412,70.52690002916505,102.9019839349989,107.35820777197915,2.1,2.11,-186,282,0,262,185,-276,249.00070524215698,249.00078797340393,249.00435876846313,249.01467871665955,249.1725001335144,249.1725001335144,249.1725001335144,249.1725001335144,249.1725001335144,249.1725001335144,249.1725001335144,250.13954496383667,3,1.112889051437378,None,,,,,,,,,,,,,,,,,,103,2,2025-02-24_16h09.46.052,comp,2024.2.4,57.30401030686984,2025-02-24 16h10.01.924045 -0500,
71,71,0,filler_random,None,None,None,None,None,None,None,None,None,None,1,0.888145923614502,None,,,,,0,0,0,0,0,71,71,133,250.1598927974701,,,,,,,,,,,,,,,,,,,,,,,,,,,,,,,,,,,,,,,,,,,,,,,,,,,,,,,,,,,,,,,,,,,,,,,,,,,,,,,,,137.47975341834024,179.3561508323595,95.6105593183033,85.73717279484706,180.0225756945547,72.78978894516497,2.1,2.11,-229,283,0,272,175,-272,250.14151978492737,250.14159989356995,250.14513278007507,250.1598927974701,250.2952184677124,250.2952184677124,250.2952184677124,250.2952184677124,250.2952184677124,250.2952184677124,250.2952184677124,251.05780267715454,1,0.888145923614502,None,,,,,,,,,,,,,,,,,,103,2,2025-02-24_16h09.46.052,comp,2024.2.4,57.30401030686984,2025-02-24 16h10.01.924045 -0500,
72,72,0,critical,hdw,35.0,3.0,upper,200.0,125.0,127.0,127.0,125.0,200.0,1,1.3161628246307373,None,,,,,0,0,0,0,0,72,72,111,251.0760953426361,,,,,,,,,,,,,,,,,,,,,,,,,,,,,,,,,,,,,,,,,,,,,,,,,,,,,,,,,,,,,,,,,,,,,,,,,,,,,,,,,200.0,125.0,127.0,127.0,125.0,200.0,3.0,3.1,-222,259,0,10,260,-287,251.05942344665527,251.05956864356995,251.06307315826416,251.0760953426361,251.21585726737976,251.21585726737976,251.21585726737976,251.21585726737976,251.21585726737976,251.21585726737976,251.21585726737976,252.3991997241974,1,1.3161628246307373,None,,,,,,,,,,,,,,,,,,103,2,2025-02-24_16h09.46.052,comp,2024.2.4,57.30401030686984,2025-02-24 16h10.01.924045 -0500,
73,73,0,filler_random,None,None,None,None,None,None,None,None,None,None,1,1.2102785110473633,None,,,,,0,0,0,0,0,73,73,165,252.42193794250488,,,,,,,,,,,,,,,,,,,,,,,,,,,,,,,,,,,,,,,,,,,,,,,,,,,,,,,,,,,,,,,,,,,,,,,,,,,,,,,,,69.77246564536858,179.9307548197445,117.153326592023,76.72890384423386,149.8743784706276,79.15841913389607,4.0,4.2,-224,10,0,-279,174,-11,252.400874376297,252.40095353126526,252.40401101112366,252.42193794250488,252.55563163757324,252.55563163757324,252.55563163757324,252.55563163757324,252.55563163757324,252.55563163757324,252.55563163757324,253.63476371765137,1,1.2102785110473633,None,,,,,,,,,,,,,,,,,,103,2,2025-02-24_16h09.46.052,comp,2024.2.4,57.30401030686984,2025-02-24 16h10.01.924045 -0500,
74,74,0,critical,whd,35.0,2.1,upper,125.0,200.0,200.0,125.0,127.0,127.0,2,0.9965989589691162,None,,,,,0,0,0,0,0,74,74,37,253.65161895751953,,,,,,,,,,,,,,,,,,,,,,,,,,,,,,,,,,,,,,,,,,,,,,,,,,,,,,,,,,,,,,,,,,,,,,,,,,,,,,,,,125.0,200.0,200.0,125.0,127.0,127.0,2.1,2.12,-258,-290,0,-268,222,276,253.63651585578918,253.63665223121643,253.64078402519226,253.65161895751953,253.79992866516113,253.79992866516113,253.79992866516113,253.79992866516113,253.79992866516113,253.79992866516113,253.79992866516113,254.65415334701538,2,0.9965989589691162,None,,,,,,,,,,,,,,,,,,103,2,2025-02-24_16h09.46.052,comp,2024.2.4,57.30401030686984,2025-02-24 16h10.01.924045 -0500,
75,75,0,filler_square,None,None,None,None,None,None,None,None,None,None,2,0.920978307723999,None,,,,,0,0,0,0,0,75,75,173,254.670560836792,,,,,,,,,,,,,,,,,,,,,,,,,,,,,,,,,,,,,,,,,,,,,,,,,,,,,,,,,,,,,,,,,,,,,,,,,,,,,,,,,118.32531109528747,94.71531857700228,190.3595886194872,190.3595886194872,63.95818864009926,162.8394777986328,1.0,1.2,-239,18,0,-7,273,1,254.65611791610718,254.6561963558197,254.6597981452942,254.670560836792,254.81586933135986,254.81586933135986,254.81586933135986,254.81586933135986,254.81586933135986,254.81586933135986,254.81586933135986,255.60290956497192,2,0.920978307723999,None,,,,,,,,,,,,,,,,,,103,2,2025-02-24_16h09.46.052,comp,2024.2.4,57.30401030686984,2025-02-24 16h10.01.924045 -0500,
76,76,0,critical,whd,35.0,2.1,upper,125.0,200.0,200.0,125.0,127.0,127.0,2,1.252162218093872,None,,,,,0,0,0,0,0,76,76,13,255.61945104599,,,,,,,,,,,,,,,,,,,,,,,,,,,,,,,,,,,,,,,,,,,,,,,,,,,,,,,,,,,,,,,,,,,,,,,,,,,,,,,,,125.0,200.0,200.0,125.0,127.0,127.0,2.1,2.11,-258,262,0,256,222,-275,255.604585647583,255.60466861724854,255.6081302165985,255.61945104599,255.76623272895813,255.76623272895813,255.76623272895813,255.76623272895813,255.76623272895813,255.76623272895813,255.76623272895813,256.8857932090759,2,1.252162218093872,None,,,,,,,,,,,,,,,,,,103,2,2025-02-24_16h09.46.052,comp,2024.2.4,57.30401030686984,2025-02-24 16h10.01.924045 -0500,
77,77,0,critical,hdw,20.0,4.0,upper,200.0,125.0,141.0,141.0,125.0,200.0,3,2.2496578693389893,None,,,,,0,0,0,0,0,77,77,119,256.9019875526428,,,,,,,,,,,,,,,,,,,,,,,,,,,,,,,,,,,,,,,,,,,,,,,,,,,,,,,,,,,,,,,,,,,,,,,,,,,,,,,,,200.0,125.0,141.0,141.0,125.0,200.0,4.0,4.2,-229,-18,0,-266,266,14,256.8874590396881,256.8876111507416,256.89124631881714,256.9019875526428,257.0503571033478,257.0503571033478,257.0503571033478,257.0503571033478,257.0503571033478,257.0503571033478,257.0503571033478,259.16987347602844,3,2.2496578693389893,None,,,,,,,,,,,,,,,,,,103,2,2025-02-24_16h09.46.052,comp,2024.2.4,57.30401030686984,2025-02-24 16h10.01.924045 -0500,
78,78,0,critical,hwd,35.0,4.0,lower,133.0,57.0,57.0,133.0,70.0,70.0,2,0.8540370464324951,None,,,,,0,0,0,0,0,78,78,100,259.18689703941345,,,,,,,,,,,,,,,,,,,,,,,,,,,,,,,,,,,,,,,,,,,,,,,,,,,,,,,,,,,,,,,,,,,,,,,,,,,,,,,,,133.0,57.0,57.0,133.0,70.0,70.0,4.0,4.1,-191,-274,0,2,198,-272,259.1713993549347,259.1715850830078,259.175728559494,259.18689703941345,259.33968687057495,259.33968687057495,259.33968687057495,259.33968687057495,259.33968687057495,259.33968687057495,259.33968687057495,260.05924439430237,2,0.8540370464324951,None,,,,,,,,,,,,,,,,,,103,2,2025-02-24_16h09.46.052,comp,2024.2.4,57.30401030686984,2025-02-24 16h10.01.924045 -0500,
79,79,0,critical,hdw,35.0,2.1,upper,200.0,125.0,127.0,127.0,125.0,200.0,3,1.162421703338623,None,,,,,0,0,0,0,0,79,79,45,260.0774550437927,,,,,,,,,,,,,,,,,,,,,,,,,,,,,,,,,,,,,,,,,,,,,,,,,,,,,,,,,,,,,,,,,,,,,,,,,,,,,,,,,200.0,125.0,127.0,127.0,125.0,200.0,2.1,2.12,-222,-251,0,-265,260,287,260.06089448928833,260.06099939346313,260.0644612312317,260.0774550437927,260.2185478210449,260.2185478210449,260.2185478210449,260.2185478210449,260.2185478210449,260.2185478210449,260.2185478210449,261.2455563545227,3,1.162421703338623,None,,,,,,,,,,,,,,,,,,103,2,2025-02-24_16h09.46.052,comp,2024.2.4,57.30401030686984,2025-02-24 16h10.01.924045 -0500,
80,80,0,filler_random,None,None,None,None,None,None,None,None,None,None,3,0.8002674579620361,None,,,,,0,0,0,0,0,80,80,146,261.26340651512146,,,,,,,,,,,,,,,,,,,,,,,,,,,,,,,,,,,,,,,,,,,,,,,,,,,,,,,,,,,,,,,,,,,,,,,,,,,,,,,,,90.15041271736484,69.28554885488896,91.58061433277658,139.76772905699187,178.9461168889236,127.26677249697144,1.0,1.1,-681,255,-480,287,-250,252,261.2472553253174,261.247332572937,261.25037384033203,261.26340651512146,261.4034230709076,261.4034230709076,261.4034230709076,261.4034230709076,261.4034230709076,261.4034230709076,261.4034230709076,262.07623410224915,3,0.8002674579620361,None,,,,,,,,,,,,,,,,,,103,2,2025-02-24_16h09.46.052,comp,2024.2.4,57.30401030686984,2025-02-24 16h10.01.924045 -0500,
81,81,0,filler_random,None,None,None,None,None,None,None,None,None,None,1,1.1078786849975586,None,,,,,0,0,0,0,0,81,81,150,262.09222054481506,,,,,,,,,,,,,,,,,,,,,,,,,,,,,,,,,,,,,,,,,,,,,,,,,,,,,,,,,,,,,,,,,,,,,,,,,,,,,,,,,83.78143843127694,156.49427402180598,65.1383170449438,169.1898926503449,69.80401418827665,123.63721186560501,2.1,2.12,-259,-270,0,-287,242,253,262.0779650211334,262.0780394077301,262.081086397171,262.09222054481506,262.23624563217163,262.23624563217163,262.23624563217163,262.23624563217163,262.23624563217163,262.23624563217163,262.23624563217163,263.2021007537842,1,1.1078786849975586,None,,,,,,,,,,,,,,,,,,103,2,2025-02-24_16h09.46.052,comp,2024.2.4,57.30401030686984,2025-02-24 16h10.01.924045 -0500,
82,82,0,critical,hwd,20.0,3.0,lower,133.0,57.0,57.0,133.0,78.0,78.0,2,0.897254228591919,None,,,,,0,0,0,0,0,82,82,104,263.222327709198,,,,,,,,,,,,,,,,,,,,,,,,,,,,,,,,,,,,,,,,,,,,,,,,,,,,,,,,,,,,,,,,,,,,,,,,,,,,,,,,,133.0,57.0,57.0,133.0,78.0,78.0,3.0,3.2,-191,-282,0,17,202,285,263.2035894393921,263.20366501808167,263.20685935020447,263.222327709198,263.35795640945435,263.35795640945435,263.35795640945435,263.35795640945435,263.35795640945435,263.35795640945435,263.35795640945435,264.1220061779022,2,0.897254228591919,None,,,,,,,,,,,,,,,,,,103,2,2025-02-24_16h09.46.052,comp,2024.2.4,57.30401030686984,2025-02-24 16h10.01.924045 -0500,
83,83,0,critical,hdw,20.0,2.1,upper,200.0,125.0,141.0,141.0,125.0,200.0,3,1.0689680576324463,None,,,,,0,0,0,0,0,83,83,23,264.13855600357056,,,,,,,,,,,,,,,,,,,,,,,,,,,,,,,,,,,,,,,,,,,,,,,,,,,,,,,,,,,,,,,,,,,,,,,,,,,,,,,,,200.0,125.0,141.0,141.0,125.0,200.0,2.1,2.11,-229,282,0,260,266,-286,264.12378573417664,264.1239233016968,264.12772154808044,264.13855600357056,264.28625559806824,264.28625559806824,264.28625559806824,264.28625559806824,264.28625559806824,264.28625559806824,264.28625559806824,265.2199854850769,3,1.0689680576324463,None,,,,,,,,,,,,,,,,,,103,2,2025-02-24_16h09.46.052,comp,2024.2.4,57.30401030686984,2025-02-24 16h10.01.924045 -0500,
84,84,0,catch,None,None,None,None,None,None,None,None,None,None,3,0.8514103889465332,None,,,,,0,0,0,0,0,84,84,127,265.23620772361755,,,,,,,,,,,,,,,,,,,,,,,,,,,,,,,,,,,,,,,,,,,,,,,,,,,,,,,,,,,,,,,,,,,,,,,,,,,,,,,,,122,68,100,90,190,135,2.1,2.12,-175,-253,0,-284,208,287,265.22215247154236,265.2222321033478,265.225789308548,265.23620772361755,265.38741278648376,265.38741278648376,265.38741278648376,265.38741278648376,265.38741278648376,265.38741278648376,265.38741278648376,266.103143453598,3,0.8514103889465332,None,,,,,,,,,,,,,,,,,,103,2,2025-02-24_16h09.46.052,comp,2024.2.4,57.30401030686984,2025-02-24 16h10.01.924045 -0500,
85,85,0,critical,hwd,35.0,2.1,lower,133.0,57.0,57.0,133.0,70.0,70.0,2,1.2731497287750244,None,,,,,0,0,0,0,0,85,85,16,266.1185691356659,,,,,,,,,,,,,,,,,,,,,,,,,,,,,,,,,,,,,,,,,,,,,,,,,,,,,,,,,,,,,,,,,,,,,,,,,,,,,,,,,133.0,57.0,57.0,133.0,70.0,70.0,2.1,2.11,-191,281,0,288,198,-282,266.1047451496124,266.104843378067,266.10807180404663,266.1185691356659,266.27064275741577,266.27064275741577,266.27064275741577,266.27064275741577,266.27064275741577,266.27064275741577,266.27064275741577,267.4117040634155,2,1.2731497287750244,None,,,,,,,,,,,,,,,,,,103,2,2025-02-24_16h09.46.052,comp,2024.2.4,57.30401030686984,2025-02-24 16h10.01.924045 -0500,
86,86,0,critical,hdw,20.0,3.0,lower,133.0,57.0,78.0,78.0,57.0,133.0,1,2.0505099296569824,None,,,,,0,0,0,0,0,86,86,116,267.4290244579315,,,,,,,,,,,,,,,,,,,,,,,,,,,,,,,,,,,,,,,,,,,,,,,,,,,,,,,,,,,,,,,,,,,,,,,,,,,,,,,,,133.0,57.0,78.0,78.0,57.0,133.0,3.0,3.2,-164,-288,0,-14,202,258,267.41321778297424,267.41329312324524,267.41639256477356,267.4290244579315,267.5723843574524,267.5723843574524,267.5723843574524,267.5723843574524,267.5723843574524,267.5723843574524,267.5723843574524,269.49859523773193,1,2.0505099296569824,None,,,,,,,,,,,,,,,,,,103,2,2025-02-24_16h09.46.052,comp,2024.2.4,57.30401030686984,2025-02-24 16h10.01.924045 -0500,
87,87,0,filler_square,None,None,None,None,None,None,None,None,None,None,3,1.978795051574707,None,,,,,0,0,0,0,0,87,87,181,269.51672315597534,,,,,,,,,,,,,,,,,,,,,,,,,,,,,,,,,,,,,,,,,,,,,,,,,,,,,,,,,,,,,,,,,,,,,,,,,,,,,,,,,159.46180480927248,92.30847139065713,116.62767887464646,114.75531340857003,181.12150429251687,181.12150429251687,2.1,2.11,-200,282,0,267,244,-251,269.5005090236664,269.5005886554718,269.5039722919464,269.51672315597534,269.65759778022766,269.65759778022766,269.65759778022766,269.65759778022766,269.65759778022766,269.65759778022766,269.65759778022766,271.5057067871094,3,1.978795051574707,None,,,,,,,,,,,,,,,,,,103,2,2025-02-24_16h09.46.052,comp,2024.2.4,57.30401030686984,2025-02-24 16h10.01.924045 -0500,
88,88,0,critical,dwh,20.0,2.1,lower,78.0,78.0,57.0,133.0,133.0,57.0,2,1.0609138011932373,None,,,,,0,0,0,0,0,88,88,30,271.5232689380646,,,,,,,,,,,,,,,,,,,,,,,,,,,,,,,,,,,,,,,,,,,,,,,,,,,,,,,,,,,,,,,,,,,,,,,,,,,,,,,,,78.0,78.0,57.0,133.0,133.0,57.0,2.1,2.11,-202,287,0,274,191,-282,271.5072965621948,271.5073764324188,271.5116114616394,271.5232689380646,271.67252588272095,271.67252588272095,271.67252588272095,271.67252588272095,271.67252588272095,271.67252588272095,271.67252588272095,272.5920069217682,2,1.0609138011932373,None,,,,,,,,,,,,,,,,,,103,2,2025-02-24_16h09.46.052,comp,2024.2.4,57.30401030686984,2025-02-24 16h10.01.924045 -0500,
89,89,0,filler_square,None,None,None,None,None,None,None,None,None,None,1,0.8628444671630859,None,,,,,0,0,0,0,0,89,89,200,272.6092007160187,,,,,,,,,,,,,,,,,,,,,,,,,,,,,,,,,,,,,,,,,,,,,,,,,,,,,,,,,,,,,,,,,,,,,,,,,,,,,,,,,174.03314780623538,174.03314780623538,96.87214524679365,124.91583583434159,158.70942763288917,152.86994594169755,3.0,3.1,-245,278,0,8,235,-264,272.59404587745667,272.59412240982056,272.5980772972107,272.6092007160187,272.75464248657227,272.75464248657227,272.75464248657227,272.75464248657227,272.75464248657227,272.75464248657227,272.75464248657227,273.47905135154724,1,0.8628444671630859,None,,,,,,,,,,,,,,,,,,103,2,2025-02-24_16h09.46.052,comp,2024.2.4,57.30401030686984,2025-02-24 16h10.01.924045 -0500,
90,90,0,critical,hdw,20.0,1.0,lower,133.0,57.0,78.0,78.0,57.0,133.0,2,0.9350399971008301,None,,,,,0,0,0,0,0,90,90,114,273.4967167377472,,,,,,,,,,,,,,,,,,,,,,,,,,,,,,,,,,,,,,,,,,,,,,,,,,,,,,,,,,,,,,,,,,,,,,,,,,,,,,,,,133.0,57.0,78.0,78.0,57.0,133.0,1.0,1.2,-164,-13,0,-11,202,-19,273.4805884361267,273.4806671142578,273.4837348461151,273.4967167377472,273.6405839920044,273.6405839920044,273.6405839920044,273.6405839920044,273.6405839920044,273.6405839920044,273.6405839920044,274.44928455352783,2,0.9350399971008301,None,,,,,,,,,,,,,,,,,,103,2,2025-02-24_16h09.46.052,comp,2024.2.4,57.30401030686984,2025-02-24 16h10.01.924045 -0500,
91,91,0,critical,hdw,20.0,2.1,lower,133.0,57.0,78.0,78.0,57.0,133.0,2,1.6452836990356445,None,,,,,0,0,0,0,0,91,91,22,274.4665467739105,,,,,,,,,,,,,,,,,,,,,,,,,,,,,,,,,,,,,,,,,,,,,,,,,,,,,,,,,,,,,,,,,,,,,,,,,,,,,,,,,133.0,57.0,78.0,78.0,57.0,133.0,2.1,2.11,-164,276,0,289,202,-260,274.4508731365204,274.45094871520996,274.45399355888367,274.4665467739105,274.6065762042999,274.6065762042999,274.6065762042999,274.6065762042999,274.6065762042999,274.6065762042999,274.6065762042999,276.12589597702026,2,1.6452836990356445,None,,,,,,,,,,,,,,,,,,103,2,2025-02-24_16h09.46.052,comp,2024.2.4,57.30401030686984,2025-02-24 16h10.01.924045 -0500,
92,92,0,critical,hdw,35.0,2.1,lower,133.0,57.0,70.0,70.0,57.0,133.0,2,1.2179462909698486,None,,,,,0,0,0,0,0,92,92,20,276.1415889263153,,,,,,,,,,,,,,,,,,,,,,,,,,,,,,,,,,,,,,,,,,,,,,,,,,,,,,,,,,,,,,,,,,,,,,,,,,,,,,,,,133.0,57.0,70.0,70.0,57.0,133.0,2.1,2.12,-160,-271,0,-259,198,262,276.12734961509705,276.12742137908936,276.1308784484863,276.1415889263153,276.2894194126129,276.2894194126129,276.2894194126129,276.2894194126129,276.2894194126129,276.2894194126129,276.2894194126129,277.37357902526855,2,1.2179462909698486,None,,,,,,,,,,,,,,,,,,103,2,2025-02-24_16h09.46.052,comp,2024.2.4,57.30401030686984,2025-02-24 16h10.01.924045 -0500,
93,93,0,critical,dwh,20.0,3.0,upper,141.0,141.0,125.0,200.0,200.0,125.0,2,1.737959384918213,None,,,,,0,0,0,0,0,93,93,69,277.38970136642456,,,,,,,,,,,,,,,,,,,,,,,,,,,,,,,,,,,,,,,,,,,,,,,,,,,,,,,,,,,,,,,,,,,,,,,,,,,,,,,,,141.0,141.0,125.0,200.0,200.0,125.0,3.0,3.2,-266,-284,0,1,258,258,277.37521386146545,277.3753032684326,277.3792519569397,277.38970136642456,277.5445680618286,277.5445680618286,277.5445680618286,277.5445680618286,277.5445680618286,277.5445680618286,277.5445680618286,279.14142990112305,2,1.737959384918213,None,,,,,,,,,,,,,,,,,,103,2,2025-02-24_16h09.46.052,comp,2024.2.4,57.30401030686984,2025-02-24 16h10.01.924045 -0500,
94,94,0,filler_square,None,None,None,None,None,None,None,None,None,None,2,1.4357986450195312,None,,,,,0,0,0,0,0,94,94,177,279.15673422813416,,,,,,,,,,,,,,,,,,,,,,,,,,,,,,,,,,,,,,,,,,,,,,,,,,,,,,,,,,,,,,,,,,,,,,,,,,,,,,,,,136.40001257406985,63.03888263118474,136.9014372341429,136.9014372341429,70.79892136837978,136.85829924140745,4.0,4.2,-196,8,0,-251,233,9,279.1432945728302,279.143367767334,279.1472969055176,279.15673422813416,279.306923866272,279.306923866272,279.306923866272,279.306923866272,279.306923866272,279.306923866272,279.306923866272,280.59867429733276,2,1.4357986450195312,None,,,,,,,,,,,,,,,,,,103,2,2025-02-24_16h09.46.052,comp,2024.2.4,57.30401030686984,2025-02-24 16h10.01.924045 -0500,
95,95,0,filler_random,None,None,None,None,None,None,None,None,None,None,1,1.5773720741271973,None,,,,,0,0,0,0,0,95,95,161,280.6141617298126,,,,,,,,,,,,,,,,,,,,,,,,,,,,,,,,,,,,,,,,,,,,,,,,,,,,,,,,,,,,,,,,,,,,,,,,,,,,,,,,,185.97987485256186,173.08978489492296,167.7417773609958,90.32616416012355,178.7361379995713,114.05063904683497,1.0,1.3,252,-275,480,-285,678,-260,280.60035467147827,280.60043478012085,280.60344672203064,280.6141617298126,280.75920271873474,280.75920271873474,280.75920271873474,280.75920271873474,280.75920271873474,280.75920271873474,280.75920271873474,282.20876574516296,1,1.5773720741271973,None,,,,,,,,,,,,,,,,,,103,2,2025-02-24_16h09.46.052,comp,2024.2.4,57.30401030686984,2025-02-24 16h10.01.924045 -0500,
96,96,0,filler_random,None,None,None,None,None,None,None,None,None,None,3,2.354813575744629,None,,,,,0,0,0,0,0,96,96,155,282.22906970977783,,,,,,,,,,,,,,,,,,,,,,,,,,,,,,,,,,,,,,,,,,,,,,,,,,,,,,,,,,,,,,,,,,,,,,,,,,,,,,,,,112.22523444384231,109.99502808731965,136.6549396719685,184.0831799248317,166.62291623446072,176.51774368362067,1.0,1.3,237,-262,480,-260,756,-252,282.2104513645172,282.21055579185486,282.2138285636902,282.22906970977783,282.37662172317505,282.37662172317505,282.37662172317505,282.37662172317505,282.37662172317505,282.37662172317505,282.37662172317505,284.5996754169464,3,2.354813575744629,None,,,,,,,,,,,,,,,,,,103,2,2025-02-24_16h09.46.052,comp,2024.2.4,57.30401030686984,2025-02-24 16h10.01.924045 -0500,
97,97,0,filler_random,None,None,None,None,None,None,None,None,None,None,3,1.3289525508880615,None,,,,,0,0,0,0,0,97,97,163,284.6147906780243,,,,,,,,,,,,,,,,,,,,,,,,,,,,,,,,,,,,,,,,,,,,,,,,,,,,,,,,,,,,,,,,,,,,,,,,,,,,,,,,,140.20200568980476,166.26824123571376,133.8397678045983,134.9158855844432,125.53155321012973,197.22719430855452,2.2,2.22,-247,254,0,-261,262,-283,284.60133266448975,284.60140442848206,284.6044306755066,284.6147906780243,284.7599227428436,284.7599227428436,284.7599227428436,284.7599227428436,284.7599227428436,284.7599227428436,284.7599227428436,285.9619297981262,3,1.3289525508880615,None,,,,,,,,,,,,,,,,,,103,2,2025-02-24_16h09.46.052,comp,2024.2.4,57.30401030686984,2025-02-24 16h10.01.924045 -0500,
98,98,0,critical,hwd,35.0,2.1,upper,200.0,125.0,125.0,200.0,127.0,127.0,2,1.1256515979766846,None,,,,,0,0,0,0,0,98,98,17,285.9778769016266,,,,,,,,,,,,,,,,,,,,,,,,,,,,,,,,,,,,,,,,,,,,,,,,,,,,,,,,,,,,,,,,,,,,,,,,,,,,,,,,,200.0,125.0,125.0,200.0,127.0,127.0,2.1,2.11,-258,254,0,264,260,-277,285.9637188911438,285.9638521671295,285.9675271511078,285.9778769016266,286.12742948532104,286.12742948532104,286.12742948532104,286.12742948532104,286.12742948532104,286.12742948532104,286.12742948532104,287.11282229423523,2,1.1256515979766846,None,,,,,,,,,,,,,,,,,,103,2,2025-02-24_16h09.46.052,comp,2024.2.4,57.30401030686984,2025-02-24 16h10.01.924045 -0500,
99,99,0,filler_random,None,None,None,None,None,None,None,None,None,None,1,1.5580203533172607,None,,,,,0,0,0,0,0,99,99,131,287.1303369998932,,,,,,,,,,,,,,,,,,,,,,,,,,,,,,,,,,,,,,,,,,,,,,,,,,,,,,,,,,,,,,,,,,,,,,,,,,,,,,,,,91.47047841565197,102.88782744543727,58.86475097803129,80.49623071488385,63.833582556519914,138.40925330749542,3.0,3.1,-188,263,0,-2,205,-281,287.1148612499237,287.11494421958923,287.118705034256,287.1303369998932,287.2815239429474,287.2815239429474,287.2815239429474,287.2815239429474,287.2815239429474,287.2815239429474,287.2815239429474,288.6961395740509,1,1.5580203533172607,None,,,,,,,,,,,,,,,,,,103,2,2025-02-24_16h09.46.052,comp,2024.2.4,57.30401030686984,2025-02-24 16h10.01.924045 -0500,
100,100,0,filler_square,None,None,None,None,None,None,None,None,None,None,1,1.274857521057129,None,,,,,0,0,0,0,0,100,100,180,288.7171311378479,,,,,,,,,,,,,,,,,,,,,,,,,,,,,,,,,,,,,,,,,,,,,,,,,,,,,,,,,,,,,,,,,,,,,,,,,,,,,,,,,188.20555969672708,188.20555969672708,86.80393238006882,75.05298524449869,158.57296302237566,106.29245604241167,2.2,2.21,-228,-267,0,267,187,261,288.6981647014618,288.69824600219727,288.70152401924133,288.7171311378479,288.86334133148193,288.86334133148193,288.86334133148193,288.86334133148193,288.86334133148193,288.86334133148193,288.86334133148193,289.99414587020874,1,1.274857521057129,None,,,,,,,,,,,,,,,,,,103,2,2025-02-24_16h09.46.052,comp,2024.2.4,57.30401030686984,2025-02-24 16h10.01.924045 -0500,
101,101,0,filler_square,None,None,None,None,None,None,None,None,None,None,3,0.9612092971801758,None,,,,,0,0,0,0,0,101,101,183,290.01436853408813,,,,,,,,,,,,,,,,,,,,,,,,,,,,,,,,,,,,,,,,,,,,,,,,,,,,,,,,,,,,,,,,,,,,,,,,,,,,,,,,,90.03717071921395,103.72195787869875,85.45280365233671,76.60016956264526,147.22203600092763,147.22203600092763,3.0,3.2,-186,-252,0,-13,208,260,289.9961745738983,289.9962525367737,289.999938249588,290.01436853408813,290.1638374328613,290.1638374328613,290.1638374328613,290.1638374328613,290.1638374328613,290.1638374328613,290.1638374328613,290.97897148132324,3,0.9612092971801758,None,,,,,,,,,,,,,,,,,,103,2,2025-02-24_16h09.46.052,comp,2024.2.4,57.30401030686984,2025-02-24 16h10.01.924045 -0500,
102,102,0,filler_square,None,None,None,None,None,None,None,None,None,None,1,1.651815414428711,None,,,,,0,0,0,0,0,102,102,172,290.9960563182831,,,,,,,,,,,,,,,,,,,,,,,,,,,,,,,,,,,,,,,,,,,,,,,,,,,,,,,,,,,,,,,,,,,,,,,,,,,,,,,,,58.40358627989999,58.33897693748285,58.3534623299773,57.27551554039412,58.463559494650525,58.463559494650525,2.2,2.22,-154,281,0,-256,154,-259,290.98097562789917,290.98105239868164,290.984493970871,290.9960563182831,291.1549644470215,291.1549644470215,291.1549644470215,291.1549644470215,291.1549644470215,291.1549644470215,291.1549644470215,292.6622643470764,1,1.651815414428711,None,,,,,,,,,,,,,,,,,,103,2,2025-02-24_16h09.46.052,comp,2024.2.4,57.30401030686984,2025-02-24 16h10.01.924045 -0500,
103,103,0,critical,whd,35.0,4.0,lower,57.0,133.0,133.0,57.0,70.0,70.0,1,2.291170358657837,None,,,,,0,0,0,0,0,103,103,88,292.67829513549805,,,,,,,,,,,,,,,,,,,,,,,,,,,,,,,,,,,,,,,,,,,,,,,,,,,,,,,,,,,,,,,,,,,,,,,,,,,,,,,,,57.0,133.0,133.0,57.0,70.0,70.0,4.0,4.1,-191,-257,0,1,160,-262,292.66383266448975,292.6639051437378,292.6679961681366,292.67829513549805,292.8296480178833,292.8296480178833,292.8296480178833,292.8296480178833,292.8296480178833,292.8296480178833,292.8296480178833,294.98022198677063,1,2.291170358657837,None,,,,,,,,,,,,,,,,,,103,2,2025-02-24_16h09.46.052,comp,2024.2.4,57.30401030686984,2025-02-24 16h10.01.924045 -0500,
104,104,0,critical,hdw,35.0,4.0,lower,133.0,57.0,70.0,70.0,57.0,133.0,3,1.2830252647399902,None,,,,,0,0,0,0,0,104,104,112,294.99725222587585,,,,,,,,,,,,,,,,,,,,,,,,,,,,,,,,,,,,,,,,,,,,,,,,,,,,,,,,,,,,,,,,,,,,,,,,,,,,,,,,,133.0,57.0,70.0,70.0,57.0,133.0,4.0,4.2,-160,7,0,-289,198,15,294.9818398952484,294.98191475868225,294.98590564727783,294.99725222587585,295.1498305797577,295.1498305797577,295.1498305797577,295.1498305797577,295.1498305797577,295.1498305797577,295.1498305797577,296.2840235233307,3,1.2830252647399902,None,,,,,,,,,,,,,,,,,,103,2,2025-02-24_16h09.46.052,comp,2024.2.4,57.30401030686984,2025-02-24 16h10.01.924045 -0500,
105,105,0,critical,dwh,20.0,1.0,upper,141.0,141.0,125.0,200.0,200.0,125.0,3,0.9154553413391113,None,,,,,0,0,0,0,0,105,105,67,296.30022716522217,,,,,,,,,,,,,,,,,,,,,,,,,,,,,,,,,,,,,,,,,,,,,,,,,,,,,,,,,,,,,,,,,,,,,,,,,,,,,,,,,141.0,141.0,125.0,200.0,200.0,125.0,1.0,1.2,-266,7,0,2,258,-5,296.2856225967407,296.285697221756,296.2886629104614,296.30022716522217,296.44757413864136,296.44757413864136,296.44757413864136,296.44757413864136,296.44757413864136,296.44757413864136,296.44757413864136,297.2287862300873,3,0.9154553413391113,None,,,,,,,,,,,,,,,,,,103,2,2025-02-24_16h09.46.052,comp,2024.2.4,57.30401030686984,2025-02-24 16h10.01.924045 -0500,
106,106,0,critical,dhw,20.0,4.0,upper,141.0,141.0,200.0,125.0,125.0,200.0,3,1.059410572052002,None,,,,,0,0,0,0,0,106,106,59,297.24463534355164,,,,,,,,,,,,,,,,,,,,,,,,,,,,,,,,,,,,,,,,,,,,,,,,,,,,,,,,,,,,,,,,,,,,,,,,,,,,,,,,,141.0,141.0,200.0,125.0,125.0,200.0,4.0,4.2,-229,17,0,-259,258,-11,297.2303030490875,297.23037338256836,297.2335069179535,297.24463534355164,297.3935523033142,297.3935523033142,297.3935523033142,297.3935523033142,297.3935523033142,297.3935523033142,297.3935523033142,298.31339383125305,3,1.059410572052002,None,,,,,,,,,,,,,,,,,,103,2,2025-02-24_16h09.46.052,comp,2024.2.4,57.30401030686984,2025-02-24 16h10.01.924045 -0500,
107,107,0,filler_random,None,None,None,None,None,None,None,None,None,None,3,1.046276330947876,None,,,,,0,0,0,0,0,107,107,140,298.32941460609436,,,,,,,,,,,,,,,,,,,,,,,,,,,,,,,,,,,,,,,,,,,,,,,,,,,,,,,,,,,,,,,,,,,,,,,,,,,,,,,,,174.77036757316972,69.04111492449832,113.11624433738936,148.1994029163912,113.66921803430074,196.12512156449358,2.1,2.11,-205,268,0,279,268,-286,298.31455731391907,298.3146047592163,298.3165965080261,298.32941460609436,298.4795708656311,298.4795708656311,298.4795708656311,298.4795708656311,298.4795708656311,298.4795708656311,298.4795708656311,299.3855528831482,3,1.046276330947876,None,,,,,,,,,,,,,,,,,,103,2,2025-02-24_16h09.46.052,comp,2024.2.4,57.30401030686984,2025-02-24 16h10.01.924045 -0500,
108,108,0,filler_random,None,None,None,None,None,None,None,None,None,None,1,0.9651529788970947,None,,,,,0,0,0,0,0,108,108,169,299.40257120132446,,,,,,,,,,,,,,,,,,,,,,,,,,,,,,,,,,,,,,,,,,,,,,,,,,,,,,,,,,,,,,,,,,,,,,,,,,,,,,,,,109.591625161937,143.66940858223404,74.13539967627429,75.61491777643482,63.85795391466227,127.67617312914112,2.1,2.12,-206,-271,0,-282,198,251,299.38742303848267,299.38759088516235,299.39098143577576,299.40257120132446,299.54879355430603,299.54879355430603,299.54879355430603,299.54879355430603,299.54879355430603,299.54879355430603,299.54879355430603,300.3709909915924,1,0.9651529788970947,None,,,,,,,,,,,,,,,,,,103,2,2025-02-24_16h09.46.052,comp,2024.2.4,57.30401030686984,2025-02-24 16h10.01.924045 -0500,
109,109,0,critical,dwh,20.0,3.0,lower,78.0,78.0,57.0,133.0,133.0,57.0,2,1.162383794784546,None,,,,,0,0,0,0,0,109,109,68,300.38926577568054,,,,,,,,,,,,,,,,,,,,,,,,,,,,,,,,,,,,,,,,,,,,,,,,,,,,,,,,,,,,,,,,,,,,,,,,,,,,,,,,,78.0,78.0,57.0,133.0,133.0,57.0,3.0,3.2,-202,-252,0,-17,191,267,300.372554063797,300.3726325035095,300.37569069862366,300.38926577568054,300.5342535972595,300.5342535972595,300.5342535972595,300.5342535972595,300.5342535972595,300.5342535972595,300.5342535972595,301.5687930583954,2,1.162383794784546,None,,,,,,,,,,,,,,,,,,103,2,2025-02-24_16h09.46.052,comp,2024.2.4,57.30401030686984,2025-02-24 16h10.01.924045 -0500,
110,110,0,filler_square,None,None,None,None,None,None,None,None,None,None,3,1.0098490715026855,None,,,,,0,0,0,0,0,110,110,190,301.58976674079895,,,,,,,,,,,,,,,,,,,,,,,,,,,,,,,,,,,,,,,,,,,,,,,,,,,,,,,,,,,,,,,,,,,,,,,,,,,,,,,,,165.06633787844953,87.04365468175519,98.51279093327935,63.89504023051251,195.7276767898683,195.7276767898683,1.0,1.1,-651,285,-480,253,-254,274,301.5707709789276,301.5708465576172,301.57435274124146,301.58976674079895,301.73292350769043,301.73292350769043,301.73292350769043,301.73292350769043,301.73292350769043,301.73292350769043,301.73292350769043,302.6150245666504,3,1.0098490715026855,None,,,,,,,,,,,,,,,,,,103,2,2025-02-24_16h09.46.052,comp,2024.2.4,57.30401030686984,2025-02-24 16h10.01.924045 -0500,
111,111,0,filler_square,None,None,None,None,None,None,None,None,None,None,3,1.0967943668365479,None,,,,,0,0,0,0,0,111,111,189,302.630984544754,,,,,,,,,,,,,,,,,,,,,,,,,,,,,,,,,,,,,,,,,,,,,,,,,,,,,,,,,,,,,,,,,,,,,,,,,,,,,,,,,60.525600069303955,81.37380065219875,83.94103652604797,83.94103652604797,75.31623092772786,68.68813329244176,2.1,2.12,-179,-266,0,-260,172,266,302.617063999176,302.61713790893555,302.6205954551697,302.630984544754,302.7825999259949,302.7825999259949,302.7825999259949,302.7825999259949,302.7825999259949,302.7825999259949,302.7825999259949,303.7330000400543,3,1.0967943668365479,None,,,,,,,,,,,,,,,,,,103,2,2025-02-24_16h09.46.052,comp,2024.2.4,57.30401030686984,2025-02-24 16h10.01.924045 -0500,
112,112,0,critical,wdh,35.0,2.1,upper,125.0,200.0,127.0,127.0,200.0,125.0,3,1.738093614578247,None,,,,,0,0,0,0,0,112,112,33,303.7499725818634,,,,,,,,,,,,,,,,,,,,,,,,,,,,,,,,,,,,,,,,,,,,,,,,,,,,,,,,,,,,,,,,,,,,,,,,,,,,,,,,,125.0,200.0,127.0,127.0,200.0,125.0,2.1,2.11,-260,268,0,266,222,-265,303.7346787452698,303.73481273651123,303.7384560108185,303.7499725818634,303.902551651001,303.902551651001,303.902551651001,303.902551651001,303.902551651001,303.902551651001,303.902551651001,305.5046453475952,3,1.738093614578247,None,,,,,,,,,,,,,,,,,,103,2,2025-02-24_16h09.46.052,comp,2024.2.4,57.30401030686984,2025-02-24 16h10.01.924045 -0500,
113,113,0,filler_square,None,None,None,None,None,None,None,None,None,None,2,1.4547173976898193,None,,,,,0,0,0,0,0,113,113,191,305.52155351638794,,,,,,,,,,,,,,,,,,,,,,,,,,,,,,,,,,,,,,,,,,,,,,,,,,,,,,,,,,,,,,,,,,,,,,,,,,,,,,,,,62.38919579499381,58.30329527917345,60.37008721529363,59.871711060481815,63.7101745867481,63.7101745867481,2.2,2.22,-155,262,0,-258,158,-267,305.50667786598206,305.50675988197327,305.5101807117462,305.52155351638794,305.6662223339081,305.6662223339081,305.6662223339081,305.6662223339081,305.6662223339081,305.6662223339081,305.6662223339081,306.98364090919495,2,1.4547173976898193,None,,,,,,,,,,,,,,,,,,103,2,2025-02-24_16h09.46.052,comp,2024.2.4,57.30401030686984,2025-02-24 16h10.01.924045 -0500,
114,114,0,filler_random,None,None,None,None,None,None,None,None,None,None,2,1.4001829624176025,None,,,,,0,0,0,0,0,114,114,164,307.00007581710815,,,,,,,,,,,,,,,,,,,,,,,,,,,,,,,,,,,,,,,,,,,,,,,,,,,,,,,,,,,,,,,,,,,,,,,,,,,,,,,,,99.80070399263082,94.08714809033373,180.0770917565727,120.10086917722981,168.9639903312056,157.4337394891814,1.0,1.3,277,-264,480,-254,715,-265,306.9854426383972,306.9855945110321,306.9891605377197,307.00007581710815,307.14901900291443,307.14901900291443,307.14901900291443,307.14901900291443,307.14901900291443,307.14901900291443,307.14901900291443,308.40690183639526,2,1.4001829624176025,None,,,,,,,,,,,,,,,,,,103,2,2025-02-24_16h09.46.052,comp,2024.2.4,57.30401030686984,2025-02-24 16h10.01.924045 -0500,
115,115,0,catch,None,None,None,None,None,None,None,None,None,None,2,0.9216046333312988,None,,,,,0,0,0,0,0,115,115,129,308.4240939617157,,,,,,,,,,,,,,,,,,,,,,,,,,,,,,,,,,,,,,,,,,,,,,,,,,,,,,,,,,,,,,,,,,,,,,,,,,,,,,,,,85,105,155,170,131,59,2.2,2.21,-234,-257,0,279,210,258,308.4090189933777,308.4090967178345,308.41251254081726,308.4240939617157,308.5639715194702,308.5639715194702,308.5639715194702,308.5639715194702,308.5639715194702,308.5639715194702,308.5639715194702,309.3492913246155,2,0.9216046333312988,None,,,,,,,,,,,,,,,,,,103,2,2025-02-24_16h09.46.052,comp,2024.2.4,57.30401030686984,2025-02-24 16h10.01.924045 -0500,
116,116,0,filler_random,None,None,None,None,None,None,None,None,None,None,3,1.337421178817749,None,,,,,0,0,0,0,0,116,116,137,309.3665554523468,,,,,,,,,,,,,,,,,,,,,,,,,,,,,,,,,,,,,,,,,,,,,,,,,,,,,,,,,,,,,,,,,,,,,,,,,,,,,,,,,84.8646712202956,179.01113521433732,167.6689907058892,106.24486962723304,138.64218594255232,100.77654075530845,2.1,2.12,-239,-251,0,-271,200,258,309.35124230384827,309.3513197898865,309.3546986579895,309.3665554523468,309.5033612251282,309.5033612251282,309.5033612251282,309.5033612251282,309.5033612251282,309.5033612251282,309.5033612251282,310.7080430984497,3,1.337421178817749,None,,,,,,,,,,,,,,,,,,103,2,2025-02-24_16h09.46.052,comp,2024.2.4,57.30401030686984,2025-02-24 16h10.01.924045 -0500,
117,117,0,critical,wdh,20.0,4.0,upper,125.0,200.0,141.0,141.0,200.0,125.0,2,2.620863199234009,None,,,,,0,0,0,0,0,117,117,83,310.7258667945862,,,,,,,,,,,,,,,,,,,,,,,,,,,,,,,,,,,,,,,,,,,,,,,,,,,,,,,,,,,,,,,,,,,,,,,,,,,,,,,,,125.0,200.0,141.0,141.0,200.0,125.0,4.0,4.2,-266,-18,0,-288,229,12,310.70958948135376,310.70966815948486,310.71273136138916,310.7258667945862,310.8675265312195,310.8675265312195,310.8675265312195,310.8675265312195,310.8675265312195,310.8675265312195,310.8675265312195,313.3506348133087,2,2.620863199234009,None,,,,,,,,,,,,,,,,,,103,2,2025-02-24_16h09.46.052,comp,2024.2.4,57.30401030686984,2025-02-24 16h10.01.924045 -0500,
118,118,0,critical,dwh,35.0,1.0,lower,70.0,70.0,57.0,133.0,133.0,57.0,2,0.9367568492889404,None,,,,,0,0,0,0,0,118,118,60,313.36691975593567,,,,,,,,,,,,,,,,,,,,,,,,,,,,,,,,,,,,,,,,,,,,,,,,,,,,,,,,,,,,,,,,,,,,,,,,,,,,,,,,,70.0,70.0,57.0,133.0,133.0,57.0,1.0,1.1,-678,277,-480,260,-289,252,313.35220766067505,313.35228657722473,313.35549783706665,313.36691975593567,313.5177357196808,313.5177357196808,313.5177357196808,313.5177357196808,313.5177357196808,313.5177357196808,313.5177357196808,314.3189380168915,2,0.9367568492889404,None,,,,,,,,,,,,,,,,,,103,2,2025-02-24_16h09.46.052,comp,2024.2.4,57.30401030686984,2025-02-24 16h10.01.924045 -0500,
119,119,0,filler_random,None,None,None,None,None,None,None,None,None,None,2,0.9127967357635498,None,,,,,0,0,0,0,0,119,119,156,314.33542680740356,,,,,,,,,,,,,,,,,,,,,,,,,,,,,,,,,,,,,,,,,,,,,,,,,,,,,,,,,,,,,,,,,,,,,,,,,,,,,,,,,112.54773790069501,177.0535710446301,175.4700161144529,154.33286167284723,83.01520837960501,71.87234118810656,3.0,3.2,-262,-265,0,14,209,281,314.3206698894501,314.3207457065582,314.32401990890503,314.33542680740356,314.4923400878906,314.4923400878906,314.4923400878906,314.4923400878906,314.4923400878906,314.4923400878906,314.4923400878906,315.25783348083496,2,0.9127967357635498,None,,,,,,,,,,,,,,,,,,103,2,2025-02-24_16h09.46.052,comp,2024.2.4,57.30401030686984,2025-02-24 16h10.01.924045 -0500,
120,120,0,critical,dhw,35.0,4.0,lower,70.0,70.0,133.0,57.0,57.0,133.0,3,0.9587090015411377,None,,,,,0,0,0,0,0,120,120,52,315.2731385231018,,,,,,,,,,,,,,,,,,,,,,,,,,,,,,,,,,,,,,,,,,,,,,,,,,,,,,,,,,,,,,,,,,,,,,,,,,,,,,,,,70.0,70.0,133.0,57.0,57.0,133.0,4.0,4.2,-160,19,0,-259,191,-18,315.25931215286255,315.25939106941223,315.26251554489136,315.2731385231018,315.4193983078003,315.4193983078003,315.4193983078003,315.4193983078003,315.4193983078003,315.4193983078003,315.4193983078003,316.23622155189514,3,0.9587090015411377,None,,,,,,,,,,,,,,,,,,103,2,2025-02-24_16h09.46.052,comp,2024.2.4,57.30401030686984,2025-02-24 16h10.01.924045 -0500,
121,121,0,critical,dwh,35.0,2.1,upper,127.0,127.0,125.0,200.0,200.0,125.0,3,1.25184965133667,None,,,,,0,0,0,0,0,121,121,5,316.25187373161316,,,,,,,,,,,,,,,,,,,,,,,,,,,,,,,,,,,,,,,,,,,,,,,,,,,,,,,,,,,,,,,,,,,,,,,,,,,,,,,,,127.0,127.0,125.0,200.0,200.0,125.0,2.1,2.12,-260,-262,0,-269,258,256,316.23774099349976,316.2378191947937,316.2412476539612,316.25187373161316,316.4019730091095,316.4019730091095,316.4019730091095,316.4019730091095,316.4019730091095,316.4019730091095,316.4019730091095,317.5212049484253,3,1.25184965133667,None,,,,,,,,,,,,,,,,,,103,2,2025-02-24_16h09.46.052,comp,2024.2.4,57.30401030686984,2025-02-24 16h10.01.924045 -0500,
122,122,0,critical,hwd,20.0,3.0,upper,200.0,125.0,125.0,200.0,141.0,141.0,2,0.774512529373169,None,,,,,0,0,0,0,0,122,122,105,317.537091255188,,,,,,,,,,,,,,,,,,,,,,,,,,,,,,,,,,,,,,,,,,,,,,,,,,,,,,,,,,,,,,,,,,,,,,,,,,,,,,,,,200.0,125.0,125.0,200.0,141.0,141.0,3.0,3.1,-258,266,0,-1,266,-285,317.522846698761,317.5229215621948,317.5266013145447,317.537091255188,317.6888806819916,317.6888806819916,317.6888806819916,317.6888806819916,317.6888806819916,317.6888806819916,317.6888806819916,318.32153487205505,2,0.774512529373169,None,,,,,,,,,,,,,,,,,,103,2,2025-02-24_16h09.46.052,comp,2024.2.4,57.30401030686984,2025-02-24 16h10.01.924045 -0500,
123,123,0,critical,wdh,20.0,2.1,lower,57.0,133.0,78.0,78.0,133.0,57.0,2,1.1108860969543457,None,,,,,0,0,0,0,0,123,123,34,318.3373181819916,,,,,,,,,,,,,,,,,,,,,,,,,,,,,,,,,,,,,,,,,,,,,,,,,,,,,,,,,,,,,,,,,,,,,,,,,,,,,,,,,57.0,133.0,78.0,78.0,133.0,57.0,2.1,2.11,-202,289,0,273,164,-261,318.3231317996979,318.32323122024536,318.3266181945801,318.3373181819916,318.4905786514282,318.4905786514282,318.4905786514282,318.4905786514282,318.4905786514282,318.4905786514282,318.4905786514282,319.45305132865906,2,1.1108860969543457,None,,,,,,,,,,,,,,,,,,103,2,2025-02-24_16h09.46.052,comp,2024.2.4,57.30401030686984,2025-02-24 16h10.01.924045 -0500,
124,124,0,filler_square,None,None,None,None,None,None,None,None,None,None,2,0.759110689163208,None,,,,,0,0,0,0,0,124,124,205,319.4725036621094,,,,,,,,,,,,,,,,,,,,,,,,,,,,,,,,,,,,,,,,,,,,,,,,,,,,,,,,,,,,,,,,,,,,,,,,,,,,,,,,,158.78968059542228,138.35832584607613,180.4511415735268,180.4511415735268,164.22245089423575,108.78837188773647,4.0,4.1,-255,-287,0,-19,241,-281,319.455037355423,319.45511531829834,319.45862865448,319.4725036621094,319.62141275405884,319.62141275405884,319.62141275405884,319.62141275405884,319.62141275405884,319.62141275405884,319.62141275405884,320.2433989048004,2,0.759110689163208,None,,,,,,,,,,,,,,,,,,103,2,2025-02-24_16h09.46.052,comp,2024.2.4,57.30401030686984,2025-02-24 16h10.01.924045 -0500,
125,125,0,filler_square,None,None,None,None,None,None,None,None,None,None,1,0.8580756187438965,None,,,,,0,0,0,0,0,125,125,176,320.2621157169342,,,,,,,,,,,,,,,,,,,,,,,,,,,,,,,,,,,,,,,,,,,,,,,,,,,,,,,,,,,,,,,,,,,,,,,,,,,,,,,,,96.13319682587637,96.13319682587637,83.01197756608929,75.03577888379542,64.50290318183778,83.53722620538647,3.0,3.2,-182,-260,0,-4,175,267,320.2454478740692,320.245552778244,320.2490801811218,320.2621157169342,320.40826630592346,320.40826630592346,320.40826630592346,320.40826630592346,320.40826630592346,320.40826630592346,320.40826630592346,321.12274050712585,1,0.8580756187438965,None,,,,,,,,,,,,,,,,,,103,2,2025-02-24_16h09.46.052,comp,2024.2.4,57.30401030686984,2025-02-24 16h10.01.924045 -0500,
126,126,0,critical,whd,35.0,1.0,lower,57.0,133.0,133.0,57.0,70.0,70.0,1,0.9319193363189697,None,,,,,0,0,0,0,0,126,126,84,321.1397452354431,,,,,,,,,,,,,,,,,,,,,,,,,,,,,,,,,,,,,,,,,,,,,,,,,,,,,,,,,,,,,,,,,,,,,,,,,,,,,,,,,57.0,133.0,133.0,57.0,70.0,70.0,1.0,1.3,289,-255,480,-276,640,-282,321.12433767318726,321.1244912147522,321.128577709198,321.1397452354431,321.28881549835205,321.28881549835205,321.28881549835205,321.28881549835205,321.28881549835205,321.28881549835205,321.28881549835205,322.0894227027893,1,0.9319193363189697,None,,,,,,,,,,,,,,,,,,103,2,2025-02-24_16h09.46.052,comp,2024.2.4,57.30401030686984,2025-02-24 16h10.01.924045 -0500,
127,127,0,critical,hwd,20.0,4.0,lower,133.0,57.0,57.0,133.0,78.0,78.0,2,0.9787821769714355,None,,,,,0,0,0,0,0,127,127,106,322.1093771457672,,,,,,,,,,,,,,,,,,,,,,,,,,,,,,,,,,,,,,,,,,,,,,,,,,,,,,,,,,,,,,,,,,,,,,,,,,,,,,,,,133.0,57.0,57.0,133.0,78.0,78.0,4.0,4.1,-191,-277,0,4,202,-275,322.0909466743469,322.0910611152649,322.09426736831665,322.1093771457672,322.2558252811432,322.2558252811432,322.2558252811432,322.2558252811432,322.2558252811432,322.2558252811432,322.2558252811432,323.0901563167572,2,0.9787821769714355,None,,,,,,,,,,,,,,,,,,103,2,2025-02-24_16h09.46.052,comp,2024.2.4,57.30401030686984,2025-02-24 16h10.01.924045 -0500,
128,128,0,filler_random,None,None,None,None,None,None,None,None,None,None,2,0.8616335391998291,None,,,,,0,0,0,0,0,128,128,157,323.1070291996002,,,,,,,,,,,,,,,,,,,,,,,,,,,,,,,,,,,,,,,,,,,,,,,,,,,,,,,,,,,,,,,,,,,,,,,,,,,,,,,,,84.06229620048359,91.98803691265834,136.571310958038,82.03442952923379,80.32014571875266,106.77172745208134,1.0,1.2,-183,-7,0,5,190,-16,323.0921354293823,323.09221720695496,323.09610056877136,323.1070291996002,323.25459122657776,323.25459122657776,323.25459122657776,323.25459122657776,323.25459122657776,323.25459122657776,323.25459122657776,323.97562766075134,2,0.8616335391998291,None,,,,,,,,,,,,,,,,,,103,2,2025-02-24_16h09.46.052,comp,2024.2.4,57.30401030686984,2025-02-24 16h10.01.924045 -0500,
129,129,0,critical,dhw,20.0,2.1,upper,141.0,141.0,200.0,125.0,125.0,200.0,3,1.19246244430542,None,,,,,0,0,0,0,0,129,129,3,323.99219393730164,,,,,,,,,,,,,,,,,,,,,,,,,,,,,,,,,,,,,,,,,,,,,,,,,,,,,,,,,,,,,,,,,,,,,,,,,,,,,,,,,141.0,141.0,200.0,125.0,125.0,200.0,2.1,2.11,-229,274,0,254,258,-254,323.97754287719727,323.9776303768158,323.9807813167572,323.99219393730164,324.13937282562256,324.13937282562256,324.13937282562256,324.13937282562256,324.13937282562256,324.13937282562256,324.13937282562256,325.18934869766235,3,1.19246244430542,None,,,,,,,,,,,,,,,,,,103,2,2025-02-24_16h09.46.052,comp,2024.2.4,57.30401030686984,2025-02-24 16h10.01.924045 -0500,
130,130,0,critical,whd,20.0,2.1,upper,125.0,200.0,200.0,125.0,141.0,141.0,1,1.0016932487487793,None,,,,,0,0,0,0,0,130,130,15,325.20603036880493,,,,,,,,,,,,,,,,,,,,,,,,,,,,,,,,,,,,,,,,,,,,,,,,,,,,,,,,,,,,,,,,,,,,,,,,,,,,,,,,,125.0,200.0,200.0,125.0,141.0,141.0,2.1,2.11,-258,288,0,253,229,-285,325.1908679008484,325.1909456253052,325.19522762298584,325.20603036880493,325.35369062423706,325.35369062423706,325.35369062423706,325.35369062423706,325.35369062423706,325.35369062423706,325.35369062423706,326.2231023311615,1,1.0016932487487793,None,,,,,,,,,,,,,,,,,,103,2,2025-02-24_16h09.46.052,comp,2024.2.4,57.30401030686984,2025-02-24 16h10.01.924045 -0500,
131,131,0,critical,whd,20.0,3.0,lower,57.0,133.0,133.0,57.0,78.0,78.0,1,0.8723492622375488,None,,,,,0,0,0,0,0,131,131,92,326.2392523288727,,,,,,,,,,,,,,,,,,,,,,,,,,,,,,,,,,,,,,,,,,,,,,,,,,,,,,,,,,,,,,,,,,,,,,,,,,,,,,,,,57.0,133.0,133.0,57.0,78.0,78.0,3.0,3.1,-191,276,0,15,164,-262,326.22464990615845,326.2247278690338,326.2289173603058,326.2392523288727,326.3876311779022,326.3876311779022,326.3876311779022,326.3876311779022,326.3876311779022,326.3876311779022,326.3876311779022,327.1220648288727,1,0.8723492622375488,None,,,,,,,,,,,,,,,,,,103,2,2025-02-24_16h09.46.052,comp,2024.2.4,57.30401030686984,2025-02-24 16h10.01.924045 -0500,
132,132,0,critical,hwd,35.0,1.0,lower,133.0,57.0,57.0,133.0,70.0,70.0,2,0.7496843338012695,None,,,,,0,0,0,0,0,132,132,96,327.1389775276184,,,,,,,,,,,,,,,,,,,,,,,,,,,,,,,,,,,,,,,,,,,,,,,,,,,,,,,,,,,,,,,,,,,,,,,,,,,,,,,,,133.0,57.0,57.0,133.0,70.0,70.0,1.0,1.2,-191,-17,0,8,198,11,327.12367582321167,327.123779296875,327.1272087097168,327.1389775276184,327.2902810573578,327.2902810573578,327.2902810573578,327.2902810573578,327.2902810573578,327.2902810573578,327.2902810573578,327.89443612098694,2,0.7496843338012695,None,,,,,,,,,,,,,,,,,,103,2,2025-02-24_16h09.46.052,comp,2024.2.4,57.30401030686984,2025-02-24 16h10.01.924045 -0500,
133,133,0,filler_square,None,None,None,None,None,None,None,None,None,None,1,0.7937500476837158,None,,,,,0,0,0,0,0,133,133,199,327.9100320339203,,,,,,,,,,,,,,,,,,,,,,,,,,,,,,,,,,,,,,,,,,,,,,,,,,,,,,,,,,,,,,,,,,,,,,,,,,,,,,,,,193.21178498892206,193.21178498892206,93.74960998945778,154.54085855016217,80.05973807428805,89.22024655784838,3.0,3.2,-270,-274,0,-6,218,252,327.8962416648865,327.8963215351105,327.89937353134155,327.9100320339203,328.0566713809967,328.0566713809967,328.0566713809967,328.0566713809967,328.0566713809967,328.0566713809967,328.0566713809967,328.71893787384033,1,0.7937500476837158,None,,,,,,,,,,,,,,,,,,103,2,2025-02-24_16h09.46.052,comp,2024.2.4,57.30401030686984,2025-02-24 16h10.01.924045 -0500,
134,134,0,critical,dhw,20.0,3.0,lower,78.0,78.0,133.0,57.0,57.0,133.0,3,1.0879943370819092,None,,,,,0,0,0,0,0,134,134,56,328.7362229824066,,,,,,,,,,,,,,,,,,,,,,,,,,,,,,,,,,,,,,,,,,,,,,,,,,,,,,,,,,,,,,,,,,,,,,,,,,,,,,,,,78.0,78.0,133.0,57.0,57.0,133.0,3.0,3.2,-164,-287,0,0,191,267,328.72044229507446,328.7205436229706,328.72357153892517,328.7362229824066,328.8740334510803,328.8740334510803,328.8740334510803,328.8740334510803,328.8740334510803,328.8740334510803,328.8740334510803,329.83020997047424,3,1.0879943370819092,None,,,,,,,,,,,,,,,,,,103,2,2025-02-24_16h09.46.052,comp,2024.2.4,57.30401030686984,2025-02-24 16h10.01.924045 -0500,
135,135,0,critical,whd,35.0,2.1,lower,57.0,133.0,133.0,57.0,70.0,70.0,2,1.0898115634918213,None,,,,,0,0,0,0,0,135,135,36,329.8460519313812,,,,,,,,,,,,,,,,,,,,,,,,,,,,,,,,,,,,,,,,,,,,,,,,,,,,,,,,,,,,,,,,,,,,,,,,,,,,,,,,,57.0,133.0,133.0,57.0,70.0,70.0,2.1,2.12,-191,-275,0,-260,160,275,329.8317754268646,329.83185482025146,329.83487486839294,329.8460519313812,329.99687457084656,329.99687457084656,329.99687457084656,329.99687457084656,329.99687457084656,329.99687457084656,329.99687457084656,330.9430196285248,2,1.0898115634918213,None,,,,,,,,,,,,,,,,,,103,2,2025-02-24_16h09.46.052,comp,2024.2.4,57.30401030686984,2025-02-24 16h10.01.924045 -0500,
136,136,0,filler_square,None,None,None,None,None,None,None,None,None,None,1,0.9819891452789307,None,,,,,0,0,0,0,0,136,136,178,330.9619641304016,,,,,,,,,,,,,,,,,,,,,,,,,,,,,,,,,,,,,,,,,,,,,,,,,,,,,,,,,,,,,,,,,,,,,,,,,,,,,,,,,139.53764698554122,139.53764698554122,117.08168503556709,102.11103849578487,113.41401925658614,112.47299880345253,2.1,2.11,-217,265,0,252,203,-282,330.94511437416077,330.9451949596405,330.94883847236633,330.9619641304016,331.1078236103058,331.1078236103058,331.1078236103058,331.1078236103058,331.1078236103058,331.1078236103058,331.1078236103058,331.94829177856445,1,0.9819891452789307,None,,,,,,,,,,,,,,,,,,103,2,2025-02-24_16h09.46.052,comp,2024.2.4,57.30401030686984,2025-02-24 16h10.01.924045 -0500,
137,137,0,critical,hwd,20.0,2.1,lower,133.0,57.0,57.0,133.0,78.0,78.0,2,0.9197766780853271,None,,,,,0,0,0,0,0,137,137,42,331.9678282737732,,,,,,,,,,,,,,,,,,,,,,,,,,,,,,,,,,,,,,,,,,,,,,,,,,,,,,,,,,,,,,,,,,,,,,,,,,,,,,,,,133.0,57.0,57.0,133.0,78.0,78.0,2.1,2.11,-191,259,0,276,202,-252,331.94994258880615,331.9500503540039,331.9534182548523,331.9678282737732,332.10845923423767,332.10845923423767,332.10845923423767,332.10845923423767,332.10845923423767,332.10845923423767,332.10845923423767,332.89176321029663,2,0.9197766780853271,None,,,,,,,,,,,,,,,,,,103,2,2025-02-24_16h09.46.052,comp,2024.2.4,57.30401030686984,2025-02-24 16h10.01.924045 -0500,
138,138,0,filler_square,None,None,None,None,None,None,None,None,None,None,2,0.7561931610107422,None,,,,,0,0,0,0,0,138,138,194,332.907413482666,,,,,,,,,,,,,,,,,,,,,,,,,,,,,,,,,,,,,,,,,,,,,,,,,,,,,,,,,,,,,,,,,,,,,,,,,,,,,,,,,88.35681198472932,82.65339189328915,70.00256901565635,82.24965966738026,91.79003646551345,91.79003646551345,1.0,1.2,-178,17,0,4,183,-7,332.89352560043335,332.89360308647156,332.8968470096588,332.907413482666,333.0553855895996,333.0553855895996,333.0553855895996,333.0553855895996,333.0553855895996,333.0553855895996,333.0553855895996,333.6739568710327,2,0.7561931610107422,None,,,,,,,,,,,,,,,,,,103,2,2025-02-24_16h09.46.052,comp,2024.2.4,57.30401030686984,2025-02-24 16h10.01.924045 -0500,
139,139,0,critical,dhw,35.0,1.0,upper,127.0,127.0,200.0,125.0,125.0,200.0,2,1.0447025299072266,None,,,,,0,0,0,0,0,139,139,49,333.69088196754456,,,,,,,,,,,,,,,,,,,,,,,,,,,,,,,,,,,,,,,,,,,,,,,,,,,,,,,,,,,,,,,,,,,,,,,,,,,,,,,,,127.0,127.0,200.0,125.0,125.0,200.0,1.0,1.1,-702,277,-480,277,-222,289,333.6755931377411,333.67569375038147,333.67919969558716,333.69088196754456,333.84251952171326,333.84251952171326,333.84251952171326,333.84251952171326,333.84251952171326,333.84251952171326,333.84251952171326,334.74655866622925,2,1.0447025299072266,None,,,,,,,,,,,,,,,,,,103,2,2025-02-24_16h09.46.052,comp,2024.2.4,57.30401030686984,2025-02-24 16h10.01.924045 -0500,
