thisN,thisTrialN,thisRepN,effect,order,distance,config,diag,h_1,w_1,h_2,w_2,h_3,w_3,rect_choice.keys,rect_choice.rt,rect_choice.duration,instructions_loop.thisRepN,instructions_loop.thisTrialN,instructions_loop.thisN,instructions_loop.thisIndex,blocks.thisRepN,blocks.thisTrialN,blocks.thisN,blocks.thisIndex,trials.thisRepN,trials.thisTrialN,trials.thisN,trials.thisIndex,thisRow.t,notes,consent.started,agree_button.started,decline_button.started,consent_img.started,mouse.started,consent.stopped,agree_button.numClicks,agree_button.timesOn,agree_button.timesOff,decline_button.numClicks,decline_button.timesOn,decline_button.timesOff,mouse.x,mouse.y,mouse.leftButton,mouse.midButton,mouse.rightButton,mouse.time,mouse.clicked_name,exp_params.started,exp_params.stopped,welcome.started,welcome_text.started,welcome_text.stopped,welcome.stopped,instructions_1.started,instructions_1_text_1.started,instructions_1_text_2.started,key_resp.started,instructions_1.stopped,instructions_loop.key_resp.keys,instructions_loop.key_resp.rt,instructions_loop.key_resp.duration,instructions_2.started,instructions_2_text_1.started,instructions_2_text_2.started,key_resp_2.started,instructions_2.stopped,instructions_loop.key_resp_2.keys,instructions_loop.key_resp_2.rt,instructions_loop.key_resp_2.duration,instructions_3.started,instructions_3_text_1.started,r1_instr3.started,r2_instr3.started,r3_instr3.started,r1_instr3_label.started,r2_instr3_label.started,r3_instr3_label.started,instructions_3_text_3.started,instructions_3_text_4.started,key_resp_3.started,instructions_3.stopped,instructions_loop.key_resp_3.keys,instructions_loop.key_resp_3.rt,instructions_loop.key_resp_3.duration,instructions_4.started,instructions_4_text_1.started,instructions_4_text_3.started,instructions_4_text_2.started,key_resp_4.started,instructions_4.stopped,instructions_loop.key_resp_4.keys,instructions_loop.key_resp_4.rt,instructions_loop.key_resp_4.duration,instructions_5.started,instructions_5_text_1.started,instructions_5_text_2.started,key_resp_5.started,instructions_5.stopped,instructions_loop.key_resp_5.keys,instructions_loop.key_resp_5.rt,instructions_loop.key_resp_5.duration,start_exp.started,start_exp_text.started,key_resp_6.started,start_exp.stopped,key_resp_6.keys,key_resp_6.rt,key_resp_6.duration,h_1_tmp,w_1_tmp,h_2_tmp,w_2_tmp,h_3_tmp,w_3_tmp,config_tmp,config_tmp_1,r_1_x,r_1_y,r_2_x,r_2_y,r_3_x,r_3_y,pre_trial.started,pre_trial.stopped,choice_trial.started,rect_choice.started,r_1.started,r_2.started,r_3.started,r_1_label.started,r_2_label.started,r_3_label.started,prompt.started,choice_trial.stopped,trials.rect_choice.keys,trials.rect_choice.rt,trials.rect_choice.duration,end_block.started,end_block_text.started,end_block.stopped,end.started,end_text.started,key_resp_7.started,end.stopped,key_resp_7.keys,key_resp_7.rt,key_resp_7.duration,debriefing.started,debrief_form.started,end_debrief.started,debriefing.stopped,end_debrief.keys,end_debrief.rt,end_debrief.duration,participant,computer,date,expName,psychopyVersion,frameRate,expStart,
,,,,,,,,,,,,,,,,,,,,,,,,,,,,,,,0.01501607894897461,0.038928985595703125,0.038928985595703125,0.038928985595703125,0.014805793762207031,103.98288106918335,1,[103.94130730628967],[103.94133377075195],0,,,[-93.0],[-496.0],[1],[0],[0],[103.96723365783691],['agree_button'],,,,,,,,,,,,,,,,,,,,,,,,,,,,,,,,,,,,,,,,,,,,,,,,,,,,,,,,,,,,,,,,,,,,,,,,,,,,,,,,,,,,,,,,,,,,,,,,,,,,,,,,,,,,104,1,2025-02-25_09h57.44.637,comp,2024.2.4,57.511919077791774,2025-02-25 09h57.53.321098 -0500,
,,,,,,,,,,,,,,,,,,,,,,,,,,,,,,,,,,,,,,,,,,,,,,,,,,103.9834554195404,103.98352289199829,,,,,,,,,,,,,,,,,,,,,,,,,,,,,,,,,,,,,,,,,,,,,,,,,,,,,,,,,,,,,,,,,,,,,,,,,,,,,,,,,,,,,,,,,,,,,,,,,,,,,,,,,,104,1,2025-02-25_09h57.44.637,comp,2024.2.4,57.511919077791774,2025-02-25 09h57.53.321098 -0500,
,,,,,,,,,,,,,,,,,,,,,,,,,,,,,,,,,,,,,,,,,,,,,,,,,,,,103.98356747627258,103.99952507019043,105.99881267547607,105.98241972923279,,,,,,,,,,,,,,,,,,,,,,,,,,,,,,,,,,,,,,,,,,,,,,,,,,,,,,,,,,,,,,,,,,,,,,,,,,,,,,,,,,,,,,,,,,,,,,,,,,,,,,104,1,2025-02-25_09h57.44.637,comp,2024.2.4,57.511919077791774,2025-02-25 09h57.53.321098 -0500,
0,0,0,,,,,,,,,,,,,,,0,0,0,0,,,,,,,,,105.99881267547607,,,,,,,,,,,,,,,,,,,,,,,,,,,105.98328065872192,105.99881267547607,105.99881267547607,107.49926257133484,110.73732829093933,space,3.228886842727661,None,110.73747754096985,110.75501918792725,110.75501918792725,112.23952198028564,117.13721704483032,space,4.894773960113525,None,117.13737177848816,117.16610145568848,117.16610145568848,117.16610145568848,117.16610145568848,117.16610145568848,117.16610145568848,117.16610145568848,117.16610145568848,117.16610145568848,118.64210176467896,122.17012000083923,space,3.5165839195251465,None,122.17032551765442,122.18979859352112,122.18979859352112,122.18979859352112,123.67147946357727,130.3077049255371,space,6.622990846633911,None,130.30785727500916,130.32390666007996,130.32390666007996,131.8237659931183,132.58952617645264,space,0.7506575584411621,None,132.58972215652466,132.61018061637878,132.61018061637878,133.6420750617981,space,1.0212039947509766,None,,,,,,,,,,,,,,,,,,,,,,,,,,,,,,,,,,,,,,,,,,,,,,,104,1,2025-02-25_09h57.44.637,comp,2024.2.4,57.511919077791774,2025-02-25 09h57.53.321098 -0500,
0,0,0,critical,wdh,35.0,3.0,upper,125.0,200.0,127.0,127.0,200.0,125.0,1,6.800922155380249,None,,,,,0,0,0,0,0,0,0,75,133.71835589408875,,,,,,,,,,,,,,,,,,,,,,,,,,,,,,,,,,,,,,,,,,,,,,,,,,,,,,,,,,,,,,,,,,,,,,,,,,,,,,,,,,125.0,200.0,127.0,127.0,200.0,125.0,3.0,3.2,-260,-270,0,3,222,288,133.70124292373657,133.7012951374054,133.7030429840088,133.71835589408875,133.86639595031738,133.86639595031738,133.86639595031738,133.86639595031738,133.86639595031738,133.86639595031738,133.86639595031738,140.52517533302307,1,6.800922155380249,None,,,,,,,,,,,,,,,,,,104,1,2025-02-25_09h57.44.637,comp,2024.2.4,57.511919077791774,2025-02-25 09h57.53.321098 -0500,
1,1,0,filler_random,None,None,None,None,None,None,None,None,None,None,3,3.7861905097961426,None,,,,,0,0,0,0,0,1,1,132,140.54071378707886,,,,,,,,,,,,,,,,,,,,,,,,,,,,,,,,,,,,,,,,,,,,,,,,,,,,,,,,,,,,,,,,,,,,,,,,,,,,,,,,,,182.96693042184228,107.20593362574087,127.40564451395356,149.75635793061934,193.44978245794812,187.12981042188116,2.1,2.11,-224,265,0,254,264,-261,140.52687883377075,140.52695870399475,140.52982473373413,140.54071378707886,140.67846870422363,140.67846870422363,140.67846870422363,140.67846870422363,140.67846870422363,140.67846870422363,140.67846870422363,144.33685684204102,3,3.7861905097961426,None,,,,,,,,,,,,,,,,,,104,1,2025-02-25_09h57.44.637,comp,2024.2.4,57.511919077791774,2025-02-25 09h57.53.321098 -0500,
2,2,0,critical,whd,20.0,3.0,upper,125.0,200.0,200.0,125.0,141.0,141.0,1,9.597293853759766,None,,,,,0,0,0,0,0,2,2,93,144.35317397117615,,,,,,,,,,,,,,,,,,,,,,,,,,,,,,,,,,,,,,,,,,,,,,,,,,,,,,,,,,,,,,,,,,,,,,,,,,,,,,,,,,125.0,200.0,200.0,125.0,141.0,141.0,3.0,3.2,-258,-264,0,-2,229,264,144.33852529525757,144.33864307403564,144.34183430671692,144.35317397117615,144.49342560768127,144.49342560768127,144.49342560768127,144.49342560768127,144.49342560768127,144.49342560768127,144.49342560768127,153.96463704109192,1,9.597293853759766,None,,,,,,,,,,,,,,,,,,104,1,2025-02-25_09h57.44.637,comp,2024.2.4,57.511919077791774,2025-02-25 09h57.53.321098 -0500,
3,3,0,critical,hwd,20.0,3.0,lower,133.0,57.0,57.0,133.0,78.0,78.0,1,9.554947137832642,None,,,,,0,0,0,0,0,3,3,104,153.97954559326172,,,,,,,,,,,,,,,,,,,,,,,,,,,,,,,,,,,,,,,,,,,,,,,,,,,,,,,,,,,,,,,,,,,,,,,,,,,,,,,,,,133.0,57.0,57.0,133.0,78.0,78.0,3.0,3.1,-191,285,0,-10,202,-277,153.9660792350769,153.96618461608887,153.9689929485321,153.97954559326172,154.13175439834595,154.13175439834595,154.13175439834595,154.13175439834595,154.13175439834595,154.13175439834595,154.13175439834595,163.55247354507446,1,9.554947137832642,None,,,,,,,,,,,,,,,,,,104,1,2025-02-25_09h57.44.637,comp,2024.2.4,57.511919077791774,2025-02-25 09h57.53.321098 -0500,
4,4,0,critical,hdw,35.0,4.0,lower,133.0,57.0,70.0,70.0,57.0,133.0,1,6.774746894836426,None,,,,,0,0,0,0,0,4,4,112,163.56770658493042,,,,,,,,,,,,,,,,,,,,,,,,,,,,,,,,,,,,,,,,,,,,,,,,,,,,,,,,,,,,,,,,,,,,,,,,,,,,,,,,,,133.0,57.0,70.0,70.0,57.0,133.0,4.0,4.1,-160,-267,0,3,198,-269,163.55403566360474,163.5541126728058,163.557302236557,163.56770658493042,163.7243366241455,163.7243366241455,163.7243366241455,163.7243366241455,163.7243366241455,163.7243366241455,163.7243366241455,170.3527011871338,1,6.774746894836426,None,,,,,,,,,,,,,,,,,,104,1,2025-02-25_09h57.44.637,comp,2024.2.4,57.511919077791774,2025-02-25 09h57.53.321098 -0500,
5,5,0,critical,dhw,35.0,2.1,lower,70.0,70.0,133.0,57.0,57.0,133.0,2,3.037489652633667,None,,,,,0,0,0,0,0,5,5,0,170.36894536018372,,,,,,,,,,,,,,,,,,,,,,,,,,,,,,,,,,,,,,,,,,,,,,,,,,,,,,,,,,,,,,,,,,,,,,,,,,,,,,,,,,70.0,70.0,133.0,57.0,57.0,133.0,2.1,2.11,-160,275,0,268,191,-272,170.35427236557007,170.35435009002686,170.35750675201416,170.36894536018372,170.51942682266235,170.51942682266235,170.51942682266235,170.51942682266235,170.51942682266235,170.51942682266235,170.51942682266235,173.42011094093323,2,3.037489652633667,None,,,,,,,,,,,,,,,,,,104,1,2025-02-25_09h57.44.637,comp,2024.2.4,57.511919077791774,2025-02-25 09h57.53.321098 -0500,
6,6,0,filler_square,None,None,None,None,None,None,None,None,None,None,3,3.5143511295318604,None,,,,,0,0,0,0,0,6,6,197,173.4365017414093,,,,,,,,,,,,,,,,,,,,,,,,,,,,,,,,,,,,,,,,,,,,,,,,,,,,,,,,,,,,,,,,,,,,,,,,,,,,,,,,,,165.19008323857983,57.51179168554552,158.37253564204906,70.66013288122222,194.73164684357678,194.73164684357678,2.2,2.22,-160,278,0,-270,229,-272,173.4219264984131,173.4219994544983,173.42516446113586,173.4365017414093,173.59164428710938,173.59164428710938,173.59164428710938,173.59164428710938,173.59164428710938,173.59164428710938,173.59164428710938,176.95444297790527,3,3.5143511295318604,None,,,,,,,,,,,,,,,,,,104,1,2025-02-25_09h57.44.637,comp,2024.2.4,57.511919077791774,2025-02-25 09h57.53.321098 -0500,
7,7,0,critical,hdw,20.0,4.0,upper,200.0,125.0,141.0,141.0,125.0,200.0,3,12.56412386894226,None,,,,,0,0,0,0,0,7,7,119,176.97124934196472,,,,,,,,,,,,,,,,,,,,,,,,,,,,,,,,,,,,,,,,,,,,,,,,,,,,,,,,,,,,,,,,,,,,,,,,,,,,,,,,,,200.0,125.0,141.0,141.0,125.0,200.0,4.0,4.1,-229,-263,0,-18,266,-273,176.95597910881042,176.95605397224426,176.95935702323914,176.97124934196472,177.11129355430603,177.11129355430603,177.11129355430603,177.11129355430603,177.11129355430603,177.11129355430603,177.11129355430603,189.541654586792,3,12.56412386894226,None,,,,,,,,,,,,,,,,,,104,1,2025-02-25_09h57.44.637,comp,2024.2.4,57.511919077791774,2025-02-25 09h57.53.321098 -0500,
8,8,0,filler_square,None,None,None,None,None,None,None,None,None,None,1,5.792389154434204,None,,,,,0,0,0,0,0,8,8,180,189.55810260772705,,,,,,,,,,,,,,,,,,,,,,,,,,,,,,,,,,,,,,,,,,,,,,,,,,,,,,,,,,,,,,,,,,,,,,,,,,,,,,,,,,59.76760142751384,62.25352051258098,59.7770169169997,61.020284807030116,62.44483087498328,62.44483087498328,3.0,3.1,-158,261,0,18,158,-282,189.54339218139648,189.54346919059753,189.54649901390076,189.55810260772705,189.7096962928772,189.7096962928772,189.7096962928772,189.7096962928772,189.7096962928772,189.7096962928772,189.7096962928772,195.3636441230774,1,5.792389154434204,None,,,,,,,,,,,,,,,,,,104,1,2025-02-25_09h57.44.637,comp,2024.2.4,57.511919077791774,2025-02-25 09h57.53.321098 -0500,
9,9,0,critical,wdh,35.0,1.0,lower,57.0,133.0,70.0,70.0,133.0,57.0,1,2.9155189990997314,None,,,,,0,0,0,0,0,9,9,72,195.37990021705627,,,,,,,,,,,,,,,,,,,,,,,,,,,,,,,,,,,,,,,,,,,,,,,,,,,,,,,,,,,,,,,,,,,,,,,,,,,,,,,,,,57.0,133.0,70.0,70.0,133.0,57.0,1.0,1.1,-678,274,-480,258,-320,264,195.36556458473206,195.36570596694946,195.36877965927124,195.37990021705627,195.527410030365,195.527410030365,195.527410030365,195.527410030365,195.527410030365,195.527410030365,195.527410030365,198.29975414276123,1,2.9155189990997314,None,,,,,,,,,,,,,,,,,,104,1,2025-02-25_09h57.44.637,comp,2024.2.4,57.511919077791774,2025-02-25 09h57.53.321098 -0500,
10,10,0,critical,hwd,35.0,2.1,upper,200.0,125.0,125.0,200.0,127.0,127.0,2,3.1144163608551025,None,,,,,0,0,0,0,0,10,10,17,198.31618309020996,,,,,,,,,,,,,,,,,,,,,,,,,,,,,,,,,,,,,,,,,,,,,,,,,,,,,,,,,,,,,,,,,,,,,,,,,,,,,,,,,,200.0,125.0,125.0,200.0,127.0,127.0,2.1,2.11,-258,283,0,267,260,-262,198.3016002178192,198.30167818069458,198.30456376075745,198.31618309020996,198.46557664871216,198.46557664871216,198.46557664871216,198.46557664871216,198.46557664871216,198.46557664871216,198.46557664871216,201.45387864112854,2,3.1144163608551025,None,,,,,,,,,,,,,,,,,,104,1,2025-02-25_09h57.44.637,comp,2024.2.4,57.511919077791774,2025-02-25 09h57.53.321098 -0500,
11,11,0,critical,dwh,35.0,4.0,upper,127.0,127.0,125.0,200.0,200.0,125.0,2,1.6007249355316162,None,,,,,0,0,0,0,0,11,11,65,201.46974539756775,,,,,,,,,,,,,,,,,,,,,,,,,,,,,,,,,,,,,,,,,,,,,,,,,,,,,,,,,,,,,,,,,,,,,,,,,,,,,,,,,,127.0,127.0,125.0,200.0,200.0,125.0,4.0,4.2,-260,-16,0,-265,258,-6,201.45549273490906,201.45558643341064,201.4589056968689,201.46974539756775,201.61334562301636,201.61334562301636,201.61334562301636,201.61334562301636,201.61334562301636,201.61334562301636,201.61334562301636,203.0806167125702,2,1.6007249355316162,None,,,,,,,,,,,,,,,,,,104,1,2025-02-25_09h57.44.637,comp,2024.2.4,57.511919077791774,2025-02-25 09h57.53.321098 -0500,
12,12,0,critical,hdw,35.0,2.1,lower,133.0,57.0,70.0,70.0,57.0,133.0,1,1.8693392276763916,None,,,,,0,0,0,0,0,12,12,44,203.09722447395325,,,,,,,,,,,,,,,,,,,,,,,,,,,,,,,,,,,,,,,,,,,,,,,,,,,,,,,,,,,,,,,,,,,,,,,,,,,,,,,,,,133.0,57.0,70.0,70.0,57.0,133.0,2.1,2.12,-160,-259,0,-284,198,259,203.08203601837158,203.0821099281311,203.08603763580322,203.09722447395325,203.2470419406891,203.2470419406891,203.2470419406891,203.2470419406891,203.2470419406891,203.2470419406891,203.2470419406891,204.98422360420227,1,1.8693392276763916,None,,,,,,,,,,,,,,,,,,104,1,2025-02-25_09h57.44.637,comp,2024.2.4,57.511919077791774,2025-02-25 09h57.53.321098 -0500,
13,13,0,filler_random,None,None,None,None,None,None,None,None,None,None,2,1.6627979278564453,None,,,,,0,0,0,0,0,13,13,133,205.00021052360535,,,,,,,,,,,,,,,,,,,,,,,,,,,,,,,,,,,,,,,,,,,,,,,,,,,,,,,,,,,,,,,,,,,,,,,,,,,,,,,,,,100.85159342950482,66.86532393540232,195.62435870774547,84.63401407292409,87.5603212113647,140.94847570021074,2.1,2.12,-172,-288,0,-269,209,283,204.98628544807434,204.9863657951355,204.98978662490845,205.00021052360535,205.14790201187134,205.14790201187134,205.14790201187134,205.14790201187134,205.14790201187134,205.14790201187134,205.14790201187134,206.66537356376648,2,1.6627979278564453,None,,,,,,,,,,,,,,,,,,104,1,2025-02-25_09h57.44.637,comp,2024.2.4,57.511919077791774,2025-02-25 09h57.53.321098 -0500,
14,14,0,filler_square,None,None,None,None,None,None,None,None,None,None,3,1.6435160636901855,None,,,,,0,0,0,0,0,14,14,183,206.68295168876648,,,,,,,,,,,,,,,,,,,,,,,,,,,,,,,,,,,,,,,,,,,,,,,,,,,,,,,,,,,,,,,,,,,,,,,,,,,,,,,,,,91.51306853727134,127.83510781304699,115.54754639905266,99.366367774752,165.96855887242478,165.96855887242478,4.0,4.2,-210,-17,0,-268,229,-8,206.66726779937744,206.66740560531616,206.67092752456665,206.68295168876648,206.8349757194519,206.8349757194519,206.8349757194519,206.8349757194519,206.8349757194519,206.8349757194519,206.8349757194519,208.33677506446838,3,1.6435160636901855,None,,,,,,,,,,,,,,,,,,104,1,2025-02-25_09h57.44.637,comp,2024.2.4,57.511919077791774,2025-02-25 09h57.53.321098 -0500,
15,15,0,filler_random,None,None,None,None,None,None,None,None,None,None,3,1.1264293193817139,None,,,,,0,0,0,0,0,15,15,158,208.3529074192047,,,,,,,,,,,,,,,,,,,,,,,,,,,,,,,,,,,,,,,,,,,,,,,,,,,,,,,,,,,,,,,,,,,,,,,,,,,,,,,,,,130.14431354528634,138.6262491699542,65.97453126476078,171.98223738110286,159.7931020600592,162.73122537005227,3.0,3.1,-251,281,0,9,263,-284,208.33847284317017,208.33855271339417,208.3413872718811,208.3529074192047,208.49951148033142,208.49951148033142,208.49951148033142,208.49951148033142,208.49951148033142,208.49951148033142,208.49951148033142,209.48644161224365,3,1.1264293193817139,None,,,,,,,,,,,,,,,,,,104,1,2025-02-25_09h57.44.637,comp,2024.2.4,57.511919077791774,2025-02-25 09h57.53.321098 -0500,
16,16,0,critical,dwh,35.0,1.0,upper,127.0,127.0,125.0,200.0,200.0,125.0,2,3.9051618576049805,None,,,,,0,0,0,0,0,16,16,61,209.502845287323,,,,,,,,,,,,,,,,,,,,,,,,,,,,,,,,,,,,,,,,,,,,,,,,,,,,,,,,,,,,,,,,,,,,,,,,,,,,,,,,,,127.0,127.0,125.0,200.0,200.0,125.0,1.0,1.3,220,-285,480,-270,738,-263,209.48826098442078,209.48834466934204,209.49182868003845,209.502845287323,209.64905405044556,209.64905405044556,209.64905405044556,209.64905405044556,209.64905405044556,209.64905405044556,209.64905405044556,213.42567014694214,2,3.9051618576049805,None,,,,,,,,,,,,,,,,,,104,1,2025-02-25_09h57.44.637,comp,2024.2.4,57.511919077791774,2025-02-25 09h57.53.321098 -0500,
17,17,0,critical,hdw,35.0,2.1,upper,200.0,125.0,127.0,127.0,125.0,200.0,3,2.81179141998291,None,,,,,0,0,0,0,0,17,17,45,213.44288992881775,,,,,,,,,,,,,,,,,,,,,,,,,,,,,,,,,,,,,,,,,,,,,,,,,,,,,,,,,,,,,,,,,,,,,,,,,,,,,,,,,,200.0,125.0,127.0,127.0,125.0,200.0,2.1,2.12,-222,-251,0,-276,260,263,213.42741680145264,213.4275505542755,213.43125319480896,213.44288992881775,213.58510994911194,213.58510994911194,213.58510994911194,213.58510994911194,213.58510994911194,213.58510994911194,213.58510994911194,216.26892590522766,3,2.81179141998291,None,,,,,,,,,,,,,,,,,,104,1,2025-02-25_09h57.44.637,comp,2024.2.4,57.511919077791774,2025-02-25 09h57.53.321098 -0500,
18,18,0,filler_square,None,None,None,None,None,None,None,None,None,None,3,1.7853844165802002,None,,,,,0,0,0,0,0,18,18,171,216.28522038459778,,,,,,,,,,,,,,,,,,,,,,,,,,,,,,,,,,,,,,,,,,,,,,,,,,,,,,,,,,,,,,,,,,,,,,,,,,,,,,,,,,66.76676314005202,58.770859546309055,67.67201092602969,73.71249429848552,82.33091123718962,82.33091123718962,3.0,3.2,-162,-253,0,-17,174,262,216.27107214927673,216.27118301391602,216.2748715877533,216.28522038459778,216.4315950870514,216.4315950870514,216.4315950870514,216.4315950870514,216.4315950870514,216.4315950870514,216.4315950870514,218.0851695537567,3,1.7853844165802002,None,,,,,,,,,,,,,,,,,,104,1,2025-02-25_09h57.44.637,comp,2024.2.4,57.511919077791774,2025-02-25 09h57.53.321098 -0500,
19,19,0,filler_random,None,None,None,None,None,None,None,None,None,None,3,1.761641502380371,None,,,,,0,0,0,0,0,19,19,154,218.10092544555664,,,,,,,,,,,,,,,,,,,,,,,,,,,,,,,,,,,,,,,,,,,,,,,,,,,,,,,,,,,,,,,,,,,,,,,,,,,,,,,,,,84.54397198789134,109.68953609832721,109.53779926516401,131.27382357000158,88.04956039821622,186.39505328918537,4.0,4.2,-216,-1,0,-282,255,4,218.08698868751526,218.08712601661682,218.0905888080597,218.10092544555664,218.25045037269592,218.25045037269592,218.25045037269592,218.25045037269592,218.25045037269592,218.25045037269592,218.25045037269592,219.87822198867798,3,1.761641502380371,None,,,,,,,,,,,,,,,,,,104,1,2025-02-25_09h57.44.637,comp,2024.2.4,57.511919077791774,2025-02-25 09h57.53.321098 -0500,
20,20,0,critical,dwh,35.0,2.1,upper,127.0,127.0,125.0,200.0,200.0,125.0,2,3.2735931873321533,None,,,,,0,0,0,0,0,20,20,5,219.89297699928284,,,,,,,,,,,,,,,,,,,,,,,,,,,,,,,,,,,,,,,,,,,,,,,,,,,,,,,,,,,,,,,,,,,,,,,,,,,,,,,,,,127.0,127.0,125.0,200.0,200.0,125.0,2.1,2.11,-260,262,0,252,258,-260,219.8797562122345,219.87983345985413,219.88288474082947,219.89297699928284,220.03623175621033,220.03623175621033,220.03623175621033,220.03623175621033,220.03623175621033,220.03623175621033,220.03623175621033,223.17911005020142,2,3.2735931873321533,None,,,,,,,,,,,,,,,,,,104,1,2025-02-25_09h57.44.637,comp,2024.2.4,57.511919077791774,2025-02-25 09h57.53.321098 -0500,
21,21,0,catch,None,None,None,None,None,None,None,None,None,None,1,1.7441818714141846,None,,,,,0,0,0,0,0,21,21,121,223.19834566116333,,,,,,,,,,,,,,,,,,,,,,,,,,,,,,,,,,,,,,,,,,,,,,,,,,,,,,,,,,,,,,,,,,,,,,,,,,,,,,,,,,191,134,79,111,78,112,3.0,3.1,-218,268,0,18,208,-264,223.18133020401,223.18140935897827,223.1846432685852,223.19834566116333,223.33379817008972,223.33379817008972,223.33379817008972,223.33379817008972,223.33379817008972,223.33379817008972,223.33379817008972,224.95465683937073,1,1.7441818714141846,None,,,,,,,,,,,,,,,,,,104,1,2025-02-25_09h57.44.637,comp,2024.2.4,57.511919077791774,2025-02-25 09h57.53.321098 -0500,
22,22,0,critical,wdh,20.0,3.0,upper,125.0,200.0,141.0,141.0,200.0,125.0,1,1.480098009109497,None,,,,,0,0,0,0,0,22,22,81,224.9744930267334,,,,,,,,,,,,,,,,,,,,,,,,,,,,,,,,,,,,,,,,,,,,,,,,,,,,,,,,,,,,,,,,,,,,,,,,,,,,,,,,,,125.0,200.0,141.0,141.0,200.0,125.0,3.0,3.1,-266,287,0,15,229,-261,224.95611381530762,224.95621299743652,224.95924854278564,224.9744930267334,225.12058901786804,225.12058901786804,225.12058901786804,225.12058901786804,225.12058901786804,225.12058901786804,225.12058901786804,226.47117853164673,1,1.480098009109497,None,,,,,,,,,,,,,,,,,,104,1,2025-02-25_09h57.44.637,comp,2024.2.4,57.511919077791774,2025-02-25 09h57.53.321098 -0500,
23,23,0,critical,hwd,35.0,2.1,lower,133.0,57.0,57.0,133.0,70.0,70.0,1,3.423929452896118,None,,,,,0,0,0,0,0,23,23,16,226.4868049621582,,,,,,,,,,,,,,,,,,,,,,,,,,,,,,,,,,,,,,,,,,,,,,,,,,,,,,,,,,,,,,,,,,,,,,,,,,,,,,,,,,133.0,57.0,57.0,133.0,70.0,70.0,2.1,2.12,-191,-284,0,-274,198,280,226.4728467464447,226.47298383712769,226.47638607025146,226.4868049621582,226.6390883922577,226.6390883922577,226.6390883922577,226.6390883922577,226.6390883922577,226.6390883922577,226.6390883922577,229.91281056404114,1,3.423929452896118,None,,,,,,,,,,,,,,,,,,104,1,2025-02-25_09h57.44.637,comp,2024.2.4,57.511919077791774,2025-02-25 09h57.53.321098 -0500,
24,24,0,critical,dhw,35.0,2.1,lower,70.0,70.0,133.0,57.0,57.0,133.0,2,1.5371038913726807,None,,,,,0,0,0,0,0,24,24,24,229.93370413780212,,,,,,,,,,,,,,,,,,,,,,,,,,,,,,,,,,,,,,,,,,,,,,,,,,,,,,,,,,,,,,,,,,,,,,,,,,,,,,,,,,70.0,70.0,133.0,57.0,57.0,133.0,2.1,2.11,-160,269,0,263,191,-283,229.91446232795715,229.91457557678223,229.9177827835083,229.93370413780212,230.07223320007324,230.07223320007324,230.07223320007324,230.07223320007324,230.07223320007324,230.07223320007324,230.07223320007324,231.47778415679932,2,1.5371038913726807,None,,,,,,,,,,,,,,,,,,104,1,2025-02-25_09h57.44.637,comp,2024.2.4,57.511919077791774,2025-02-25 09h57.53.321098 -0500,
25,25,0,filler_square,None,None,None,None,None,None,None,None,None,None,3,2.9166736602783203,None,,,,,0,0,0,0,0,25,25,188,231.49817323684692,,,,,,,,,,,,,,,,,,,,,,,,,,,,,,,,,,,,,,,,,,,,,,,,,,,,,,,,,,,,,,,,,,,,,,,,,,,,,,,,,,71.98628273322318,137.21573245250158,101.3332575752737,111.6180031434298,146.01061244718494,146.01061244718494,2.1,2.11,-220,284,0,277,225,-256,231.47958898544312,231.47966647148132,231.4825360774994,231.49817323684692,231.64711141586304,231.64711141586304,231.64711141586304,231.64711141586304,231.64711141586304,231.64711141586304,231.64711141586304,234.42633700370789,3,2.9166736602783203,None,,,,,,,,,,,,,,,,,,104,1,2025-02-25_09h57.44.637,comp,2024.2.4,57.511919077791774,2025-02-25 09h57.53.321098 -0500,
26,26,0,critical,wdh,20.0,3.0,lower,57.0,133.0,78.0,78.0,133.0,57.0,2,4.0572686195373535,None,,,,,0,0,0,0,0,26,26,80,234.44527006149292,,,,,,,,,,,,,,,,,,,,,,,,,,,,,,,,,,,,,,,,,,,,,,,,,,,,,,,,,,,,,,,,,,,,,,,,,,,,,,,,,,57.0,133.0,78.0,78.0,133.0,57.0,3.0,3.1,-202,267,0,-15,164,-269,234.4280185699463,234.42809796333313,234.4311203956604,234.44527006149292,234.59057760238647,234.59057760238647,234.59057760238647,234.59057760238647,234.59057760238647,234.59057760238647,234.59057760238647,238.51257419586182,2,4.0572686195373535,None,,,,,,,,,,,,,,,,,,104,1,2025-02-25_09h57.44.637,comp,2024.2.4,57.511919077791774,2025-02-25 09h57.53.321098 -0500,
27,27,0,critical,dhw,20.0,2.1,lower,78.0,78.0,133.0,57.0,57.0,133.0,1,3.2071051597595215,None,,,,,0,0,0,0,0,27,27,2,238.52956700325012,,,,,,,,,,,,,,,,,,,,,,,,,,,,,,,,,,,,,,,,,,,,,,,,,,,,,,,,,,,,,,,,,,,,,,,,,,,,,,,,,,78.0,78.0,133.0,57.0,57.0,133.0,2.1,2.11,-164,277,0,257,191,-272,238.5145766735077,238.51470828056335,238.51787877082825,238.52956700325012,238.6748285293579,238.6748285293579,238.6748285293579,238.6748285293579,238.6748285293579,238.6748285293579,238.6748285293579,241.74186754226685,1,3.2071051597595215,None,,,,,,,,,,,,,,,,,,104,1,2025-02-25_09h57.44.637,comp,2024.2.4,57.511919077791774,2025-02-25 09h57.53.321098 -0500,
28,28,0,critical,hwd,20.0,2.1,upper,200.0,125.0,125.0,200.0,141.0,141.0,1,3.768049478530884,None,,,,,0,0,0,0,0,28,28,19,241.75854992866516,,,,,,,,,,,,,,,,,,,,,,,,,,,,,,,,,,,,,,,,,,,,,,,,,,,,,,,,,,,,,,,,,,,,,,,,,,,,,,,,,,200.0,125.0,125.0,200.0,141.0,141.0,2.1,2.11,-258,256,0,285,266,-274,241.74345111846924,241.7435290813446,241.7467122077942,241.75854992866516,241.90960502624512,241.90960502624512,241.90960502624512,241.90960502624512,241.90960502624512,241.90960502624512,241.90960502624512,245.52874732017517,1,3.768049478530884,None,,,,,,,,,,,,,,,,,,104,1,2025-02-25_09h57.44.637,comp,2024.2.4,57.511919077791774,2025-02-25 09h57.53.321098 -0500,
29,29,0,critical,dhw,35.0,4.0,upper,127.0,127.0,200.0,125.0,125.0,200.0,2,1.8699681758880615,None,,,,,0,0,0,0,0,29,29,53,245.54466152191162,,,,,,,,,,,,,,,,,,,,,,,,,,,,,,,,,,,,,,,,,,,,,,,,,,,,,,,,,,,,,,,,,,,,,,,,,,,,,,,,,,127.0,127.0,200.0,125.0,125.0,200.0,4.0,4.2,-222,-3,0,-277,258,6,245.5303750038147,245.53045082092285,245.53379821777344,245.54466152191162,245.69294905662537,245.69294905662537,245.69294905662537,245.69294905662537,245.69294905662537,245.69294905662537,245.69294905662537,247.4278428554535,2,1.8699681758880615,None,,,,,,,,,,,,,,,,,,104,1,2025-02-25_09h57.44.637,comp,2024.2.4,57.511919077791774,2025-02-25 09h57.53.321098 -0500,
30,30,0,critical,dwh,35.0,2.1,lower,70.0,70.0,57.0,133.0,133.0,57.0,3,3.1952426433563232,None,,,,,0,0,0,0,0,30,30,4,247.4432828426361,,,,,,,,,,,,,,,,,,,,,,,,,,,,,,,,,,,,,,,,,,,,,,,,,,,,,,,,,,,,,,,,,,,,,,,,,,,,,,,,,,70.0,70.0,57.0,133.0,133.0,57.0,2.1,2.12,-198,-278,0,-257,191,288,247.4294798374176,247.4295814037323,247.43291783332825,247.4432828426361,247.5836181640625,247.5836181640625,247.5836181640625,247.5836181640625,247.5836181640625,247.5836181640625,247.5836181640625,250.6490466594696,3,3.1952426433563232,None,,,,,,,,,,,,,,,,,,104,1,2025-02-25_09h57.44.637,comp,2024.2.4,57.511919077791774,2025-02-25 09h57.53.321098 -0500,
31,31,0,filler_random,None,None,None,None,None,None,None,None,None,None,1,1.4607188701629639,None,,,,,0,0,0,0,0,31,31,139,250.6663236618042,,,,,,,,,,,,,,,,,,,,,,,,,,,,,,,,,,,,,,,,,,,,,,,,,,,,,,,,,,,,,,,,,,,,,,,,,,,,,,,,,,76.80357440749387,186.3214537690171,86.35142710515836,66.19704798260756,58.027225147168565,105.56237044687487,2.2,2.22,-222,275,0,-275,182,-272,250.65102910995483,250.6511116027832,250.65451788902283,250.6663236618042,250.81679940223694,250.81679940223694,250.81679940223694,250.81679940223694,250.81679940223694,250.81679940223694,250.81679940223694,252.14532685279846,1,1.4607188701629639,None,,,,,,,,,,,,,,,,,,104,1,2025-02-25_09h57.44.637,comp,2024.2.4,57.511919077791774,2025-02-25 09h57.53.321098 -0500,
32,32,0,critical,dwh,35.0,2.1,lower,70.0,70.0,57.0,133.0,133.0,57.0,3,2.230206251144409,None,,,,,0,0,0,0,0,32,32,28,252.16111159324646,,,,,,,,,,,,,,,,,,,,,,,,,,,,,,,,,,,,,,,,,,,,,,,,,,,,,,,,,,,,,,,,,,,,,,,,,,,,,,,,,,70.0,70.0,57.0,133.0,133.0,57.0,2.1,2.12,-198,-272,0,-267,191,257,252.14675402641296,252.14682722091675,252.14978623390198,252.16111159324646,252.3025107383728,252.3025107383728,252.3025107383728,252.3025107383728,252.3025107383728,252.3025107383728,252.3025107383728,254.39684009552002,3,2.230206251144409,None,,,,,,,,,,,,,,,,,,104,1,2025-02-25_09h57.44.637,comp,2024.2.4,57.511919077791774,2025-02-25 09h57.53.321098 -0500,
33,33,0,critical,dwh,35.0,3.0,upper,127.0,127.0,125.0,200.0,200.0,125.0,2,3.0027098655700684,None,,,,,0,0,0,0,0,33,33,63,254.41264748573303,,,,,,,,,,,,,,,,,,,,,,,,,,,,,,,,,,,,,,,,,,,,,,,,,,,,,,,,,,,,,,,,,,,,,,,,,,,,,,,,,,127.0,127.0,125.0,200.0,200.0,125.0,3.0,3.1,-260,259,0,-11,258,-256,254.39837408065796,254.3984546661377,254.40188765525818,254.41264748573303,254.56325101852417,254.56325101852417,254.56325101852417,254.56325101852417,254.56325101852417,254.56325101852417,254.56325101852417,257.4204742908478,2,3.0027098655700684,None,,,,,,,,,,,,,,,,,,104,1,2025-02-25_09h57.44.637,comp,2024.2.4,57.511919077791774,2025-02-25 09h57.53.321098 -0500,
34,34,0,critical,dwh,35.0,1.0,lower,70.0,70.0,57.0,133.0,133.0,57.0,2,2.6087846755981445,None,,,,,0,0,0,0,0,34,34,60,257.43780541419983,,,,,,,,,,,,,,,,,,,,,,,,,,,,,,,,,,,,,,,,,,,,,,,,,,,,,,,,,,,,,,,,,,,,,,,,,,,,,,,,,,70.0,70.0,57.0,133.0,133.0,57.0,1.0,1.3,282,-290,480,-288,671,-259,257.4219665527344,257.42204570770264,257.4248847961426,257.43780541419983,257.5795249938965,257.5795249938965,257.5795249938965,257.5795249938965,257.5795249938965,257.5795249938965,257.5795249938965,260.04890513420105,2,2.6087846755981445,None,,,,,,,,,,,,,,,,,,104,1,2025-02-25_09h57.44.637,comp,2024.2.4,57.511919077791774,2025-02-25 09h57.53.321098 -0500,
35,35,0,filler_random,None,None,None,None,None,None,None,None,None,None,2,1.7568788528442383,None,,,,,0,0,0,0,0,35,35,147,260.0657651424408,,,,,,,,,,,,,,,,,,,,,,,,,,,,,,,,,,,,,,,,,,,,,,,,,,,,,,,,,,,,,,,,,,,,,,,,,,,,,,,,,,140.75308036893784,102.68302564259093,139.57687507140093,170.97453717359275,181.5365303329801,69.85933113204355,4.0,4.1,-233,-261,0,-9,216,-274,260.05090522766113,260.05098843574524,260.05485105514526,260.0657651424408,260.21604108810425,260.21604108810425,260.21604108810425,260.21604108810425,260.21604108810425,260.21604108810425,260.21604108810425,261.8354299068451,2,1.7568788528442383,None,,,,,,,,,,,,,,,,,,104,1,2025-02-25_09h57.44.637,comp,2024.2.4,57.511919077791774,2025-02-25 09h57.53.321098 -0500,
36,36,0,critical,dhw,35.0,2.1,upper,127.0,127.0,200.0,125.0,125.0,200.0,3,2.018991231918335,None,,,,,0,0,0,0,0,36,36,25,261.85159516334534,,,,,,,,,,,,,,,,,,,,,,,,,,,,,,,,,,,,,,,,,,,,,,,,,,,,,,,,,,,,,,,,,,,,,,,,,,,,,,,,,,127.0,127.0,200.0,125.0,125.0,200.0,2.1,2.12,-222,-252,0,-258,258,288,261.83729672431946,261.83741879463196,261.8406629562378,261.85159516334534,261.9991946220398,261.9991946220398,261.9991946220398,261.9991946220398,261.9991946220398,261.9991946220398,261.9991946220398,263.88195848464966,3,2.018991231918335,None,,,,,,,,,,,,,,,,,,104,1,2025-02-25_09h57.44.637,comp,2024.2.4,57.511919077791774,2025-02-25 09h57.53.321098 -0500,
37,37,0,filler_random,None,None,None,None,None,None,None,None,None,None,2,1.452415943145752,None,,,,,0,0,0,0,0,37,37,136,263.8982651233673,,,,,,,,,,,,,,,,,,,,,,,,,,,,,,,,,,,,,,,,,,,,,,,,,,,,,,,,,,,,,,,,,,,,,,,,,,,,,,,,,,196.63197535311684,72.7586174580281,176.1676002331639,190.47007444041373,155.78243983498055,92.50879891720555,3.0,3.1,-228,280,0,1,237,-288,263.88368034362793,263.8837616443634,263.8867919445038,263.8982651233673,264.05524253845215,264.05524253845215,264.05524253845215,264.05524253845215,264.05524253845215,264.05524253845215,264.05524253845215,265.3666093349457,2,1.452415943145752,None,,,,,,,,,,,,,,,,,,104,1,2025-02-25_09h57.44.637,comp,2024.2.4,57.511919077791774,2025-02-25 09h57.53.321098 -0500,
38,38,0,catch,None,None,None,None,None,None,None,None,None,None,2,1.4725842475891113,None,,,,,0,0,0,0,0,38,38,125,265.3823289871216,,,,,,,,,,,,,,,,,,,,,,,,,,,,,,,,,,,,,,,,,,,,,,,,,,,,,,,,,,,,,,,,,,,,,,,,,,,,,,,,,,119,71,152,173,74,116,4.0,4.2,-218,9,0,-259,240,7,265.3685426712036,265.368620634079,265.37202882766724,265.3823289871216,265.537401676178,265.537401676178,265.537401676178,265.537401676178,265.537401676178,265.537401676178,265.537401676178,266.857036113739,2,1.4725842475891113,None,,,,,,,,,,,,,,,,,,104,1,2025-02-25_09h57.44.637,comp,2024.2.4,57.511919077791774,2025-02-25 09h57.53.321098 -0500,
39,39,0,filler_square,None,None,None,None,None,None,None,None,None,None,1,2.220209836959839,None,,,,,0,0,0,0,0,39,39,176,266.8745365142822,,,,,,,,,,,,,,,,,,,,,,,,,,,,,,,,,,,,,,,,,,,,,,,,,,,,,,,,,,,,,,,,,,,,,,,,,,,,,,,,,,143.96281628467597,143.96281628467597,57.25963763833185,111.55940267910272,127.9355258860424,122.10822402336687,1.0,1.1,-704,256,-480,260,-267,288,266.8587465286255,266.85882234573364,266.86167430877686,266.8745365142822,267.01779437065125,267.01779437065125,267.01779437065125,267.01779437065125,267.01779437065125,267.01779437065125,267.01779437065125,269.1053657531738,1,2.220209836959839,None,,,,,,,,,,,,,,,,,,104,1,2025-02-25_09h57.44.637,comp,2024.2.4,57.511919077791774,2025-02-25 09h57.53.321098 -0500,
40,40,0,critical,hdw,35.0,3.0,upper,200.0,125.0,127.0,127.0,125.0,200.0,3,1.7474274635314941,None,,,,,0,0,0,0,0,40,40,111,269.12337946891785,,,,,,,,,,,,,,,,,,,,,,,,,,,,,,,,,,,,,,,,,,,,,,,,,,,,,,,,,,,,,,,,,,,,,,,,,,,,,,,,,,200.0,125.0,127.0,127.0,125.0,200.0,3.0,3.2,-222,-257,0,-9,260,288,269.1069896221161,269.1070671081543,269.11039209365845,269.12337946891785,269.2686722278595,269.2686722278595,269.2686722278595,269.2686722278595,269.2686722278595,269.2686722278595,269.2686722278595,270.8884036540985,3,1.7474274635314941,None,,,,,,,,,,,,,,,,,,104,1,2025-02-25_09h57.44.637,comp,2024.2.4,57.511919077791774,2025-02-25 09h57.53.321098 -0500,
41,41,0,critical,hwd,20.0,3.0,upper,200.0,125.0,125.0,200.0,141.0,141.0,1,3.230008602142334,None,,,,,0,0,0,0,0,41,41,105,270.9045660495758,,,,,,,,,,,,,,,,,,,,,,,,,,,,,,,,,,,,,,,,,,,,,,,,,,,,,,,,,,,,,,,,,,,,,,,,,,,,,,,,,,200.0,125.0,125.0,200.0,141.0,141.0,3.0,3.1,-258,260,0,-18,266,-289,270.89031505584717,270.89045119285583,270.8934168815613,270.9045660495758,271.0532953739166,271.0532953739166,271.0532953739166,271.0532953739166,271.0532953739166,271.0532953739166,271.0532953739166,274.13675236701965,1,3.230008602142334,None,,,,,,,,,,,,,,,,,,104,1,2025-02-25_09h57.44.637,comp,2024.2.4,57.511919077791774,2025-02-25 09h57.53.321098 -0500,
42,42,0,filler_square,None,None,None,None,None,None,None,None,None,None,1,1.2138450145721436,None,,,,,0,0,0,0,0,42,42,185,274.1534311771393,,,,,,,,,,,,,,,,,,,,,,,,,,,,,,,,,,,,,,,,,,,,,,,,,,,,,,,,,,,,,,,,,,,,,,,,,,,,,,,,,,165.3293586439724,165.3293586439724,67.46611651353301,150.33914212150938,59.46122057326288,144.17274674425153,1.0,1.3,226,-269,480,-258,723,-277,274.1385991573334,274.1386799812317,274.1426453590393,274.1534311771393,274.30450463294983,274.30450463294983,274.30450463294983,274.30450463294983,274.30450463294983,274.30450463294983,274.30450463294983,275.37199902534485,1,1.2138450145721436,None,,,,,,,,,,,,,,,,,,104,1,2025-02-25_09h57.44.637,comp,2024.2.4,57.511919077791774,2025-02-25 09h57.53.321098 -0500,
43,43,0,filler_square,None,None,None,None,None,None,None,None,None,None,2,2.0664172172546387,None,,,,,0,0,0,0,0,43,43,204,275.3883240222931,,,,,,,,,,,,,,,,,,,,,,,,,,,,,,,,,,,,,,,,,,,,,,,,,,,,,,,,,,,,,,,,,,,,,,,,,,,,,,,,,,153.9653666622408,138.4391233842053,180.64644068837026,180.64644068837026,175.30737480662395,162.12024905723462,1.0,1.3,224,-290,480,-289,747,-255,275.3744840621948,275.3746192455292,275.37761974334717,275.3883240222931,275.5368938446045,275.5368938446045,275.5368938446045,275.5368938446045,275.5368938446045,275.5368938446045,275.5368938446045,277.47490406036377,2,2.0664172172546387,None,,,,,,,,,,,,,,,,,,104,1,2025-02-25_09h57.44.637,comp,2024.2.4,57.511919077791774,2025-02-25 09h57.53.321098 -0500,
44,44,0,critical,wdh,35.0,3.0,lower,57.0,133.0,70.0,70.0,133.0,57.0,3,2.0681612491607666,None,,,,,0,0,0,0,0,44,44,74,277.4904816150665,,,,,,,,,,,,,,,,,,,,,,,,,,,,,,,,,,,,,,,,,,,,,,,,,,,,,,,,,,,,,,,,,,,,,,,,,,,,,,,,,,57.0,133.0,70.0,70.0,133.0,57.0,3.0,3.2,-198,-272,0,18,160,289,277.47641825675964,277.47649693489075,277.47936606407166,277.4904816150665,277.63713359832764,277.63713359832764,277.63713359832764,277.63713359832764,277.63713359832764,277.63713359832764,277.63713359832764,279.5726432800293,3,2.0681612491607666,None,,,,,,,,,,,,,,,,,,104,1,2025-02-25_09h57.44.637,comp,2024.2.4,57.511919077791774,2025-02-25 09h57.53.321098 -0500,
45,45,0,critical,wdh,35.0,4.0,lower,57.0,133.0,70.0,70.0,133.0,57.0,3,2.1787166595458984,None,,,,,0,0,0,0,0,45,45,76,279.58854627609253,,,,,,,,,,,,,,,,,,,,,,,,,,,,,,,,,,,,,,,,,,,,,,,,,,,,,,,,,,,,,,,,,,,,,,,,,,,,,,,,,,57.0,133.0,70.0,70.0,133.0,57.0,4.0,4.1,-198,-283,0,6,160,-257,279.57412004470825,279.5742781162262,279.5782573223114,279.58854627609253,279.73837757110596,279.73837757110596,279.73837757110596,279.73837757110596,279.73837757110596,279.73837757110596,279.73837757110596,281.7711317539215,3,2.1787166595458984,None,,,,,,,,,,,,,,,,,,104,1,2025-02-25_09h57.44.637,comp,2024.2.4,57.511919077791774,2025-02-25 09h57.53.321098 -0500,
46,46,0,critical,whd,35.0,2.1,upper,125.0,200.0,200.0,125.0,127.0,127.0,2,3.74780535697937,None,,,,,0,0,0,0,0,46,46,13,281.7872157096863,,,,,,,,,,,,,,,,,,,,,,,,,,,,,,,,,,,,,,,,,,,,,,,,,,,,,,,,,,,,,,,,,,,,,,,,,,,,,,,,,,125.0,200.0,200.0,125.0,127.0,127.0,2.1,2.11,-258,275,0,276,222,-262,281.7726662158966,281.7727437019348,281.7757887840271,281.7872157096863,281.93511271476746,281.93511271476746,281.93511271476746,281.93511271476746,281.93511271476746,281.93511271476746,281.93511271476746,285.5390250682831,2,3.74780535697937,None,,,,,,,,,,,,,,,,,,104,1,2025-02-25_09h57.44.637,comp,2024.2.4,57.511919077791774,2025-02-25 09h57.53.321098 -0500,
47,47,0,critical,whd,35.0,2.1,lower,57.0,133.0,133.0,57.0,70.0,70.0,2,3.4075913429260254,None,,,,,0,0,0,0,0,47,47,36,285.5601978302002,,,,,,,,,,,,,,,,,,,,,,,,,,,,,,,,,,,,,,,,,,,,,,,,,,,,,,,,,,,,,,,,,,,,,,,,,,,,,,,,,,57.0,133.0,133.0,57.0,70.0,70.0,2.1,2.12,-191,-277,0,-272,160,271,285.5406439304352,285.5407235622406,285.5442736148834,285.5601978302002,285.70693278312683,285.70693278312683,285.70693278312683,285.70693278312683,285.70693278312683,285.70693278312683,285.70693278312683,288.9733695983887,2,3.4075913429260254,None,,,,,,,,,,,,,,,,,,104,1,2025-02-25_09h57.44.637,comp,2024.2.4,57.511919077791774,2025-02-25 09h57.53.321098 -0500,
48,48,0,filler_random,None,None,None,None,None,None,None,None,None,None,3,4.807344198226929,None,,,,,0,0,0,0,0,48,48,169,288.9913749694824,,,,,,,,,,,,,,,,,,,,,,,,,,,,,,,,,,,,,,,,,,,,,,,,,,,,,,,,,,,,,,,,,,,,,,,,,,,,,,,,,,100.74254153305658,63.24521354891728,71.66559320384714,128.13512882191458,85.86279863674366,104.7679962038147,2.2,2.21,-192,-258,0,287,212,287,288.97506189346313,288.9751605987549,288.97818517684937,288.9913749694824,289.12635803222656,289.12635803222656,289.12635803222656,289.12635803222656,289.12635803222656,289.12635803222656,289.12635803222656,293.81408858299255,3,4.807344198226929,None,,,,,,,,,,,,,,,,,,104,1,2025-02-25_09h57.44.637,comp,2024.2.4,57.511919077791774,2025-02-25 09h57.53.321098 -0500,
49,49,0,filler_random,None,None,None,None,None,None,None,None,None,None,2,1.142897367477417,None,,,,,0,0,0,0,0,49,49,156,293.831734418869,,,,,,,,,,,,,,,,,,,,,,,,,,,,,,,,,,,,,,,,,,,,,,,,,,,,,,,,,,,,,,,,,,,,,,,,,,,,,,,,,,189.0349316781317,104.9733068795025,150.19567260614485,174.73013146085674,103.02562681059271,106.47556188393935,3.0,3.1,-236,254,0,14,237,-267,293.81572103500366,293.81579637527466,293.8186264038086,293.831734418869,293.9734835624695,293.9734835624695,293.9734835624695,293.9734835624695,293.9734835624695,293.9734835624695,293.9734835624695,294.9941189289093,2,1.142897367477417,None,,,,,,,,,,,,,,,,,,104,1,2025-02-25_09h57.44.637,comp,2024.2.4,57.511919077791774,2025-02-25 09h57.53.321098 -0500,
50,50,0,critical,wdh,20.0,4.0,lower,57.0,133.0,78.0,78.0,133.0,57.0,1,3.292320966720581,None,,,,,0,0,0,0,0,50,50,82,295.01104855537415,,,,,,,,,,,,,,,,,,,,,,,,,,,,,,,,,,,,,,,,,,,,,,,,,,,,,,,,,,,,,,,,,,,,,,,,,,,,,,,,,,57.0,133.0,78.0,78.0,133.0,57.0,4.0,4.2,-202,12,0,-255,164,15,294.9956967830658,294.99577355384827,294.99866795539856,295.01104855537415,295.15979170799255,295.15979170799255,295.15979170799255,295.15979170799255,295.15979170799255,295.15979170799255,295.15979170799255,298.31136322021484,1,3.292320966720581,None,,,,,,,,,,,,,,,,,,104,1,2025-02-25_09h57.44.637,comp,2024.2.4,57.511919077791774,2025-02-25 09h57.53.321098 -0500,
51,51,0,critical,whd,20.0,1.0,upper,125.0,200.0,200.0,125.0,141.0,141.0,1,6.159961938858032,None,,,,,0,0,0,0,0,51,51,91,298.32755613327026,,,,,,,,,,,,,,,,,,,,,,,,,,,,,,,,,,,,,,,,,,,,,,,,,,,,,,,,,,,,,,,,,,,,,,,,,,,,,,,,,,125.0,200.0,200.0,125.0,141.0,141.0,1.0,1.1,-738,257,-480,287,-251,274,298.3129155635834,298.3129925727844,298.31636095046997,298.32755613327026,298.4778153896332,298.4778153896332,298.4778153896332,298.4778153896332,298.4778153896332,298.4778153896332,298.4778153896332,304.49651288986206,1,6.159961938858032,None,,,,,,,,,,,,,,,,,,104,1,2025-02-25_09h57.44.637,comp,2024.2.4,57.511919077791774,2025-02-25 09h57.53.321098 -0500,
52,52,0,critical,whd,35.0,2.1,upper,125.0,200.0,200.0,125.0,127.0,127.0,1,1.6127960681915283,None,,,,,0,0,0,0,0,52,52,37,304.51456236839294,,,,,,,,,,,,,,,,,,,,,,,,,,,,,,,,,,,,,,,,,,,,,,,,,,,,,,,,,,,,,,,,,,,,,,,,,,,,,,,,,,125.0,200.0,200.0,125.0,127.0,127.0,2.1,2.12,-258,-275,0,-256,222,274,304.4980938434601,304.4982054233551,304.5014395713806,304.51456236839294,304.66230607032776,304.66230607032776,304.66230607032776,304.66230607032776,304.66230607032776,304.66230607032776,304.66230607032776,306.1366250514984,1,1.6127960681915283,None,,,,,,,,,,,,,,,,,,104,1,2025-02-25_09h57.44.637,comp,2024.2.4,57.511919077791774,2025-02-25 09h57.53.321098 -0500,
53,53,0,critical,whd,20.0,2.1,upper,125.0,200.0,200.0,125.0,141.0,141.0,1,12.460813045501709,None,,,,,0,0,0,0,0,53,53,39,306.1542258262634,,,,,,,,,,,,,,,,,,,,,,,,,,,,,,,,,,,,,,,,,,,,,,,,,,,,,,,,,,,,,,,,,,,,,,,,,,,,,,,,,,125.0,200.0,200.0,125.0,141.0,141.0,2.1,2.12,-258,-288,0,-259,229,250,306.13809156417847,306.1381907463074,306.14101362228394,306.1542258262634,306.30632877349854,306.30632877349854,306.30632877349854,306.30632877349854,306.30632877349854,306.30632877349854,306.30632877349854,318.6198585033417,1,12.460813045501709,None,,,,,,,,,,,,,,,,,,104,1,2025-02-25_09h57.44.637,comp,2024.2.4,57.511919077791774,2025-02-25 09h57.53.321098 -0500,
54,54,0,critical,hwd,35.0,2.1,upper,200.0,125.0,125.0,200.0,127.0,127.0,1,2.419372320175171,None,,,,,0,0,0,0,0,54,54,41,318.63533091545105,,,,,,,,,,,,,,,,,,,,,,,,,,,,,,,,,,,,,,,,,,,,,,,,,,,,,,,,,,,,,,,,,,,,,,,,,,,,,,,,,,200.0,125.0,125.0,200.0,127.0,127.0,2.1,2.12,-258,-261,0,-282,260,285,318.621554851532,318.6216390132904,318.6246132850647,318.63533091545105,318.7834448814392,318.7834448814392,318.7834448814392,318.7834448814392,318.7834448814392,318.7834448814392,318.7834448814392,321.06918692588806,1,2.419372320175171,None,,,,,,,,,,,,,,,,,,104,1,2025-02-25_09h57.44.637,comp,2024.2.4,57.511919077791774,2025-02-25 09h57.53.321098 -0500,
55,55,0,filler_square,None,None,None,None,None,None,None,None,None,None,1,2.7838292121887207,None,,,,,0,0,0,0,0,55,55,179,321.08694982528687,,,,,,,,,,,,,,,,,,,,,,,,,,,,,,,,,,,,,,,,,,,,,,,,,,,,,,,,,,,,,,,,,,,,,,,,,,,,,,,,,,165.9836757051747,165.9836757051747,71.66220356627383,67.81496287574107,64.8697127922058,105.1418492964294,2.1,2.11,-213,254,0,280,182,-258,321.0711920261383,321.0712733268738,321.0743238925934,321.08694982528687,321.23434567451477,321.23434567451477,321.23434567451477,321.23434567451477,321.23434567451477,321.23434567451477,321.23434567451477,323.88515996932983,1,2.7838292121887207,None,,,,,,,,,,,,,,,,,,104,1,2025-02-25_09h57.44.637,comp,2024.2.4,57.511919077791774,2025-02-25 09h57.53.321098 -0500,
56,56,0,critical,whd,35.0,2.1,lower,57.0,133.0,133.0,57.0,70.0,70.0,2,2.3778061866760254,None,,,,,0,0,0,0,0,56,56,12,323.9009940624237,,,,,,,,,,,,,,,,,,,,,,,,,,,,,,,,,,,,,,,,,,,,,,,,,,,,,,,,,,,,,,,,,,,,,,,,,,,,,,,,,,57.0,133.0,133.0,57.0,70.0,70.0,2.1,2.11,-191,261,0,269,160,-264,323.8866832256317,323.8867609500885,323.89069533348083,323.9009940624237,324.05575489997864,324.05575489997864,324.05575489997864,324.05575489997864,324.05575489997864,324.05575489997864,324.05575489997864,326.2892699241638,2,2.3778061866760254,None,,,,,,,,,,,,,,,,,,104,1,2025-02-25_09h57.44.637,comp,2024.2.4,57.511919077791774,2025-02-25 09h57.53.321098 -0500,
57,57,0,critical,hdw,35.0,1.0,upper,200.0,125.0,127.0,127.0,125.0,200.0,3,1.3466665744781494,None,,,,,0,0,0,0,0,57,57,109,326.3090054988861,,,,,,,,,,,,,,,,,,,,,,,,,,,,,,,,,,,,,,,,,,,,,,,,,,,,,,,,,,,,,,,,,,,,,,,,,,,,,,,,,,200.0,125.0,127.0,127.0,125.0,200.0,1.0,1.1,-702,259,-480,258,-220,285,326.2907934188843,326.290869474411,326.2938928604126,326.3090054988861,326.45169043540955,326.45169043540955,326.45169043540955,326.45169043540955,326.45169043540955,326.45169043540955,326.45169043540955,327.6702210903168,3,1.3466665744781494,None,,,,,,,,,,,,,,,,,,104,1,2025-02-25_09h57.44.637,comp,2024.2.4,57.511919077791774,2025-02-25 09h57.53.321098 -0500,
58,58,0,critical,dhw,35.0,1.0,upper,127.0,127.0,200.0,125.0,125.0,200.0,3,1.4801316261291504,None,,,,,0,0,0,0,0,58,58,49,327.6865568161011,,,,,,,,,,,,,,,,,,,,,,,,,,,,,,,,,,,,,,,,,,,,,,,,,,,,,,,,,,,,,,,,,,,,,,,,,,,,,,,,,,127.0,127.0,200.0,125.0,125.0,200.0,1.0,1.1,-702,267,-480,269,-222,271,327.6717131137848,327.6717908382416,327.67532229423523,327.6865568161011,327.8363027572632,327.8363027572632,327.8363027572632,327.8363027572632,327.8363027572632,327.8363027572632,327.8363027572632,329.1773419380188,3,1.4801316261291504,None,,,,,,,,,,,,,,,,,,104,1,2025-02-25_09h57.44.637,comp,2024.2.4,57.511919077791774,2025-02-25 09h57.53.321098 -0500,
59,59,0,critical,hwd,35.0,3.0,lower,133.0,57.0,57.0,133.0,70.0,70.0,1,2.2223093509674072,None,,,,,0,0,0,0,0,59,59,98,329.1929440498352,,,,,,,,,,,,,,,,,,,,,,,,,,,,,,,,,,,,,,,,,,,,,,,,,,,,,,,,,,,,,,,,,,,,,,,,,,,,,,,,,,133.0,57.0,57.0,133.0,70.0,70.0,3.0,3.1,-191,264,0,5,198,-267,329.1788287162781,329.17890429496765,329.1817305088043,329.1929440498352,329.3386709690094,329.3386709690094,329.3386709690094,329.3386709690094,329.3386709690094,329.3386709690094,329.3386709690094,331.4197430610657,1,2.2223093509674072,None,,,,,,,,,,,,,,,,,,104,1,2025-02-25_09h57.44.637,comp,2024.2.4,57.511919077791774,2025-02-25 09h57.53.321098 -0500,
60,60,0,filler_random,None,None,None,None,None,None,None,None,None,None,1,0.9257636070251465,None,,,,,0,0,0,0,0,60,60,159,331.441201210022,,,,,,,,,,,,,,,,,,,,,,,,,,,,,,,,,,,,,,,,,,,,,,,,,,,,,,,,,,,,,,,,,,,,,,,,,,,,,,,,,,153.55930945707456,137.99251159516194,86.0653886610272,127.730371628058,99.45701986996133,57.61857223770583,2.2,2.22,-229,251,0,-269,189,-268,331.4213855266571,331.4214608669281,331.4243903160095,331.441201210022,331.59485363960266,331.59485363960266,331.59485363960266,331.59485363960266,331.59485363960266,331.59485363960266,331.59485363960266,332.37084674835205,1,0.9257636070251465,None,,,,,,,,,,,,,,,,,,104,1,2025-02-25_09h57.44.637,comp,2024.2.4,57.511919077791774,2025-02-25 09h57.53.321098 -0500,
61,61,0,filler_square,None,None,None,None,None,None,None,None,None,None,1,3.346583127975464,None,,,,,0,0,0,0,0,61,61,205,332.3889057636261,,,,,,,,,,,,,,,,,,,,,,,,,,,,,,,,,,,,,,,,,,,,,,,,,,,,,,,,,,,,,,,,,,,,,,,,,,,,,,,,,,64.34872660720129,64.34872660720129,61.04986615843387,58.21240503305929,61.51766710406078,60.85777238365902,3.0,3.1,-157,255,0,7,156,-256,332.3726668357849,332.37274718284607,332.3757154941559,332.3889057636261,332.53932428359985,332.53932428359985,332.53932428359985,332.53932428359985,332.53932428359985,332.53932428359985,332.53932428359985,335.7412054538727,1,3.346583127975464,None,,,,,,,,,,,,,,,,,,104,1,2025-02-25_09h57.44.637,comp,2024.2.4,57.511919077791774,2025-02-25 09h57.53.321098 -0500,
62,62,0,filler_square,None,None,None,None,None,None,None,None,None,None,2,1.6808404922485352,None,,,,,0,0,0,0,0,62,62,177,335.7578401565552,,,,,,,,,,,,,,,,,,,,,,,,,,,,,,,,,,,,,,,,,,,,,,,,,,,,,,,,,,,,,,,,,,,,,,,,,,,,,,,,,,72.39900866062163,60.38646865644896,95.37304432569708,95.37304432569708,75.97688202759662,92.61401953545862,2.2,2.21,-174,-264,0,258,190,278,335.74343395233154,335.7435579299927,335.7468900680542,335.7578401565552,335.9038782119751,335.9038782119751,335.9038782119751,335.9038782119751,335.9038782119751,335.9038782119751,335.9038782119751,337.44147181510925,2,1.6808404922485352,None,,,,,,,,,,,,,,,,,,104,1,2025-02-25_09h57.44.637,comp,2024.2.4,57.511919077791774,2025-02-25 09h57.53.321098 -0500,
63,63,0,critical,dhw,35.0,2.1,upper,127.0,127.0,200.0,125.0,125.0,200.0,3,2.7816972732543945,None,,,,,0,0,0,0,0,63,63,1,337.45702481269836,,,,,,,,,,,,,,,,,,,,,,,,,,,,,,,,,,,,,,,,,,,,,,,,,,,,,,,,,,,,,,,,,,,,,,,,,,,,,,,,,,127.0,127.0,200.0,125.0,125.0,200.0,2.1,2.12,-222,-254,0,-263,258,262,337.4430160522461,337.4430959224701,337.4462630748749,337.45702481269836,337.6149425506592,337.6149425506592,337.6149425506592,337.6149425506592,337.6149425506592,337.6149425506592,337.6149425506592,340.2408995628357,3,2.7816972732543945,None,,,,,,,,,,,,,,,,,,104,1,2025-02-25_09h57.44.637,comp,2024.2.4,57.511919077791774,2025-02-25 09h57.53.321098 -0500,
64,64,0,filler_square,None,None,None,None,None,None,None,None,None,None,3,1.1589887142181396,None,,,,,0,0,0,0,0,64,64,195,340.25653409957886,,,,,,,,,,,,,,,,,,,,,,,,,,,,,,,,,,,,,,,,,,,,,,,,,,,,,,,,,,,,,,,,,,,,,,,,,,,,,,,,,,108.0633881736513,71.51955484369057,83.53929321533164,90.56470041423746,175.39023423773475,175.39023423773475,2.1,2.11,-177,285,0,271,229,-259,340.2427306175232,340.24280881881714,340.2458074092865,340.25653409957886,340.412264585495,340.412264585495,340.412264585495,340.412264585495,340.412264585495,340.412264585495,340.412264585495,341.42533898353577,3,1.1589887142181396,None,,,,,,,,,,,,,,,,,,104,1,2025-02-25_09h57.44.637,comp,2024.2.4,57.511919077791774,2025-02-25 09h57.53.321098 -0500,
65,65,0,critical,wdh,20.0,2.1,upper,125.0,200.0,141.0,141.0,200.0,125.0,1,1.7729525566101074,None,,,,,0,0,0,0,0,65,65,11,341.44187474250793,,,,,,,,,,,,,,,,,,,,,,,,,,,,,,,,,,,,,,,,,,,,,,,,,,,,,,,,,,,,,,,,,,,,,,,,,,,,,,,,,,125.0,200.0,141.0,141.0,200.0,125.0,2.1,2.12,-266,-271,0,-253,229,262,341.4269685745239,341.4270992279053,341.4310965538025,341.44187474250793,341.6009056568146,341.6009056568146,341.6009056568146,341.6009056568146,341.6009056568146,341.6009056568146,341.6009056568146,343.2169301509857,1,1.7729525566101074,None,,,,,,,,,,,,,,,,,,104,1,2025-02-25_09h57.44.637,comp,2024.2.4,57.511919077791774,2025-02-25 09h57.53.321098 -0500,
66,66,0,filler_square,None,None,None,None,None,None,None,None,None,None,1,1.289398431777954,None,,,,,0,0,0,0,0,66,66,174,343.2374436855316,,,,,,,,,,,,,,,,,,,,,,,,,,,,,,,,,,,,,,,,,,,,,,,,,,,,,,,,,,,,,,,,,,,,,,,,,,,,,,,,,,84.85374021676145,84.85374021676145,58.5030048883434,72.47462920446122,67.86034472555644,72.8521049720018,2.2,2.22,-175,259,0,-269,169,-257,343.2187600135803,343.21883893013,343.2216691970825,343.2374436855316,343.3750009536743,343.3750009536743,343.3750009536743,343.3750009536743,343.3750009536743,343.3750009536743,343.3750009536743,344.54163908958435,1,1.289398431777954,None,,,,,,,,,,,,,,,,,,104,1,2025-02-25_09h57.44.637,comp,2024.2.4,57.511919077791774,2025-02-25 09h57.53.321098 -0500,
67,67,0,critical,hwd,35.0,3.0,upper,200.0,125.0,125.0,200.0,127.0,127.0,2,2.0022106170654297,None,,,,,0,0,0,0,0,67,67,99,344.5567400455475,,,,,,,,,,,,,,,,,,,,,,,,,,,,,,,,,,,,,,,,,,,,,,,,,,,,,,,,,,,,,,,,,,,,,,,,,,,,,,,,,,200.0,125.0,125.0,200.0,127.0,127.0,3.0,3.1,-258,266,0,15,260,-279,344.54319953918457,344.54327607154846,344.5464355945587,344.5567400455475,344.7125117778778,344.7125117778778,344.7125117778778,344.7125117778778,344.7125117778778,344.7125117778778,344.7125117778778,346.57664728164673,2,2.0022106170654297,None,,,,,,,,,,,,,,,,,,104,1,2025-02-25_09h57.44.637,comp,2024.2.4,57.511919077791774,2025-02-25 09h57.53.321098 -0500,
68,68,0,critical,hdw,35.0,1.0,lower,133.0,57.0,70.0,70.0,57.0,133.0,1,2.0229690074920654,None,,,,,0,0,0,0,0,68,68,108,346.591805934906,,,,,,,,,,,,,,,,,,,,,,,,,,,,,,,,,,,,,,,,,,,,,,,,,,,,,,,,,,,,,,,,,,,,,,,,,,,,,,,,,,133.0,57.0,70.0,70.0,57.0,133.0,1.0,1.1,-640,289,-480,250,-282,260,346.578222990036,346.57830023765564,346.5814743041992,346.591805934906,346.74389934539795,346.74389934539795,346.74389934539795,346.74389934539795,346.74389934539795,346.74389934539795,346.74389934539795,348.6326584815979,1,2.0229690074920654,None,,,,,,,,,,,,,,,,,,104,1,2025-02-25_09h57.44.637,comp,2024.2.4,57.511919077791774,2025-02-25 09h57.53.321098 -0500,
69,69,0,filler_square,None,None,None,None,None,None,None,None,None,None,3,1.3988261222839355,None,,,,,0,0,0,0,0,69,69,173,348.6479058265686,,,,,,,,,,,,,,,,,,,,,,,,,,,,,,,,,,,,,,,,,,,,,,,,,,,,,,,,,,,,,,,,,,,,,,,,,,,,,,,,,,82.78135180491007,165.50032848878422,69.19708915525234,126.17650445632346,195.09405780732223,195.09405780732223,4.0,4.2,-242,-14,0,-282,257,10,348.6346848011017,348.634761095047,348.6376392841339,348.6479058265686,348.78919196128845,348.78919196128845,348.78919196128845,348.78919196128845,348.78919196128845,348.78919196128845,348.78919196128845,350.0595543384552,3,1.3988261222839355,None,,,,,,,,,,,,,,,,,,104,1,2025-02-25_09h57.44.637,comp,2024.2.4,57.511919077791774,2025-02-25 09h57.53.321098 -0500,
70,70,0,catch,None,None,None,None,None,None,None,None,None,None,2,1.1181960105895996,None,,,,,0,0,0,0,0,70,70,124,350.0805153846741,,,,,,,,,,,,,,,,,,,,,,,,,,,,,,,,,,,,,,,,,,,,,,,,,,,,,,,,,,,,,,,,,,,,,,,,,,,,,,,,,,121,69,177,148,129,61,4.0,4.1,-204,-253,0,0,200,-283,350.061589717865,350.06166887283325,350.0650227069855,350.0805153846741,350.22688150405884,350.22688150405884,350.22688150405884,350.22688150405884,350.22688150405884,350.22688150405884,350.22688150405884,351.2094347476959,2,1.1181960105895996,None,,,,,,,,,,,,,,,,,,104,1,2025-02-25_09h57.44.637,comp,2024.2.4,57.511919077791774,2025-02-25 09h57.53.321098 -0500,
71,71,0,filler_random,None,None,None,None,None,None,None,None,None,None,2,1.9893114566802979,None,,,,,0,0,0,0,0,71,71,166,351.2255358695984,,,,,,,,,,,,,,,,,,,,,,,,,,,,,,,,,,,,,,,,,,,,,,,,,,,,,,,,,,,,,,,,,,,,,,,,,,,,,,,,,,78.37125430309547,140.95732323247034,67.40535637631717,192.95042520590988,69.76195067501436,180.09439037823375,3.0,3.1,-263,288,0,-18,283,-274,351.2110459804535,351.2111213207245,351.2142844200134,351.2255358695984,351.38338232040405,351.38338232040405,351.38338232040405,351.38338232040405,351.38338232040405,351.38338232040405,351.38338232040405,353.22774362564087,2,1.9893114566802979,None,,,,,,,,,,,,,,,,,,104,1,2025-02-25_09h57.44.637,comp,2024.2.4,57.511919077791774,2025-02-25 09h57.53.321098 -0500,
72,72,0,critical,wdh,35.0,2.1,upper,125.0,200.0,127.0,127.0,200.0,125.0,3,2.403273344039917,None,,,,,0,0,0,0,0,72,72,33,353.2435483932495,,,,,,,,,,,,,,,,,,,,,,,,,,,,,,,,,,,,,,,,,,,,,,,,,,,,,,,,,,,,,,,,,,,,,,,,,,,,,,,,,,125.0,200.0,127.0,127.0,200.0,125.0,2.1,2.12,-260,-256,0,-257,222,277,353.2295436859131,353.22966861724854,353.2331020832062,353.2435483932495,353.4010407924652,353.4010407924652,353.4010407924652,353.4010407924652,353.4010407924652,353.4010407924652,353.4010407924652,355.66378712654114,3,2.403273344039917,None,,,,,,,,,,,,,,,,,,104,1,2025-02-25_09h57.44.637,comp,2024.2.4,57.511919077791774,2025-02-25 09h57.53.321098 -0500,
73,73,0,critical,hdw,35.0,2.1,lower,133.0,57.0,70.0,70.0,57.0,133.0,1,2.2163338661193848,None,,,,,0,0,0,0,0,73,73,20,355.67898869514465,,,,,,,,,,,,,,,,,,,,,,,,,,,,,,,,,,,,,,,,,,,,,,,,,,,,,,,,,,,,,,,,,,,,,,,,,,,,,,,,,,133.0,57.0,70.0,70.0,57.0,133.0,2.1,2.12,-160,-288,0,-287,198,283,355.66540479660034,355.6654863357544,355.6686112880707,355.67898869514465,355.8281009197235,355.8281009197235,355.8281009197235,355.8281009197235,355.8281009197235,355.8281009197235,355.8281009197235,357.9125626087189,1,2.2163338661193848,None,,,,,,,,,,,,,,,,,,104,1,2025-02-25_09h57.44.637,comp,2024.2.4,57.511919077791774,2025-02-25 09h57.53.321098 -0500,
74,74,0,filler_square,None,None,None,None,None,None,None,None,None,None,1,3.070992946624756,None,,,,,0,0,0,0,0,74,74,184,357.92848801612854,,,,,,,,,,,,,,,,,,,,,,,,,,,,,,,,,,,,,,,,,,,,,,,,,,,,,,,,,,,,,,,,,,,,,,,,,,,,,,,,,,142.54520602794008,142.54520602794008,96.90647012840842,99.87637746615292,112.15088037326097,131.53096834759316,1.0,1.1,-697,253,-480,265,-268,265,357.91467571258545,357.91475796699524,357.91819310188293,357.92848801612854,358.07975339889526,358.07975339889526,358.07975339889526,358.07975339889526,358.07975339889526,358.07975339889526,358.07975339889526,361.0079257488251,1,3.070992946624756,None,,,,,,,,,,,,,,,,,,104,1,2025-02-25_09h57.44.637,comp,2024.2.4,57.511919077791774,2025-02-25 09h57.53.321098 -0500,
75,75,0,critical,hdw,20.0,2.1,lower,133.0,57.0,78.0,78.0,57.0,133.0,1,2.03804087638855,None,,,,,0,0,0,0,0,75,75,22,361.0248064994812,,,,,,,,,,,,,,,,,,,,,,,,,,,,,,,,,,,,,,,,,,,,,,,,,,,,,,,,,,,,,,,,,,,,,,,,,,,,,,,,,,133.0,57.0,78.0,78.0,57.0,133.0,2.1,2.11,-164,288,0,260,202,-273,361.0095965862274,361.009672164917,361.0128605365753,361.0248064994812,361.16450023651123,361.16450023651123,361.16450023651123,361.16450023651123,361.16450023651123,361.16450023651123,361.16450023651123,363.0647659301758,1,2.03804087638855,None,,,,,,,,,,,,,,,,,,104,1,2025-02-25_09h57.44.637,comp,2024.2.4,57.511919077791774,2025-02-25 09h57.53.321098 -0500,
76,76,0,filler_square,None,None,None,None,None,None,None,None,None,None,1,1.5174789428710938,None,,,,,0,0,0,0,0,76,76,192,363.08128452301025,,,,,,,,,,,,,,,,,,,,,,,,,,,,,,,,,,,,,,,,,,,,,,,,,,,,,,,,,,,,,,,,,,,,,,,,,,,,,,,,,,74.06403279609064,74.06403279609064,69.85550157259556,58.46062858879819,63.11716758001004,70.33809144605098,2.2,2.22,-162,289,0,-276,160,-290,363.06666803359985,363.0667459964752,363.0697226524353,363.08128452301025,363.23573875427246,363.23573875427246,363.23573875427246,363.23573875427246,363.23573875427246,363.23573875427246,363.23573875427246,364.61432552337646,1,1.5174789428710938,None,,,,,,,,,,,,,,,,,,104,1,2025-02-25_09h57.44.637,comp,2024.2.4,57.511919077791774,2025-02-25 09h57.53.321098 -0500,
77,77,0,filler_square,None,None,None,None,None,None,None,None,None,None,3,1.787773609161377,None,,,,,0,0,0,0,0,77,77,189,364.6350257396698,,,,,,,,,,,,,,,,,,,,,,,,,,,,,,,,,,,,,,,,,,,,,,,,,,,,,,,,,,,,,,,,,,,,,,,,,,,,,,,,,,58.67562185953024,75.13263691439693,66.00364500031932,73.30592616579385,81.0400159151724,81.0400159151724,3.0,3.1,-170,253,0,18,173,-274,364.61634278297424,364.61642122268677,364.6196196079254,364.6350257396698,364.7820496559143,364.7820496559143,364.7820496559143,364.7820496559143,364.7820496559143,364.7820496559143,364.7820496559143,366.4317698478699,3,1.787773609161377,None,,,,,,,,,,,,,,,,,,104,1,2025-02-25_09h57.44.637,comp,2024.2.4,57.511919077791774,2025-02-25 09h57.53.321098 -0500,
78,78,0,filler_random,None,None,None,None,None,None,None,None,None,None,3,1.5349736213684082,None,,,,,0,0,0,0,0,78,78,162,366.44798159599304,,,,,,,,,,,,,,,,,,,,,,,,,,,,,,,,,,,,,,,,,,,,,,,,,,,,,,,,,,,,,,,,,,,,,,,,,,,,,,,,,,175.79687855208658,118.10903743756468,157.72555451533137,176.7616802818601,176.39418051867625,199.45962813188956,1.0,1.2,-243,-5,0,1,284,-5,366.4334030151367,366.43348145484924,366.43692779541016,366.44798159599304,366.5985596179962,366.5985596179962,366.5985596179962,366.5985596179962,366.5985596179962,366.5985596179962,366.5985596179962,367.9901990890503,3,1.5349736213684082,None,,,,,,,,,,,,,,,,,,104,1,2025-02-25_09h57.44.637,comp,2024.2.4,57.511919077791774,2025-02-25 09h57.53.321098 -0500,
79,79,0,filler_square,None,None,None,None,None,None,None,None,None,None,1,1.5485756397247314,None,,,,,0,0,0,0,0,79,79,194,368.01069498062134,,,,,,,,,,,,,,,,,,,,,,,,,,,,,,,,,,,,,,,,,,,,,,,,,,,,,,,,,,,,,,,,,,,,,,,,,,,,,,,,,,133.665487881765,133.665487881765,116.41272125129024,122.54022386084799,121.66230051358818,78.65904347257766,4.0,4.1,-224,-262,0,11,197,-269,367.9920244216919,367.9921045303345,367.99494433403015,368.01069498062134,368.14926958084106,368.14926958084106,368.14926958084106,368.14926958084106,368.14926958084106,368.14926958084106,368.14926958084106,369.567018032074,1,1.5485756397247314,None,,,,,,,,,,,,,,,,,,104,1,2025-02-25_09h57.44.637,comp,2024.2.4,57.511919077791774,2025-02-25 09h57.53.321098 -0500,
80,80,0,catch,None,None,None,None,None,None,None,None,None,None,1,0.9446544647216797,None,,,,,0,0,0,0,0,80,80,120,369.58254861831665,,,,,,,,,,,,,,,,,,,,,,,,,,,,,,,,,,,,,,,,,,,,,,,,,,,,,,,,,,,,,,,,,,,,,,,,,,,,,,,,,,152,173,90,100,61,129,4.0,4.2,-232,-14,0,-270,210,15,369.56893587112427,369.5690152645111,369.57196736335754,369.58254861831665,369.73518466949463,369.73518466949463,369.73518466949463,369.73518466949463,369.73518466949463,369.73518466949463,369.73518466949463,370.53531312942505,1,0.9446544647216797,None,,,,,,,,,,,,,,,,,,104,1,2025-02-25_09h57.44.637,comp,2024.2.4,57.511919077791774,2025-02-25 09h57.53.321098 -0500,
81,81,0,critical,hwd,35.0,4.0,lower,133.0,57.0,57.0,133.0,70.0,70.0,2,1.333188772201538,None,,,,,0,0,0,0,0,81,81,100,370.5536720752716,,,,,,,,,,,,,,,,,,,,,,,,,,,,,,,,,,,,,,,,,,,,,,,,,,,,,,,,,,,,,,,,,,,,,,,,,,,,,,,,,,133.0,57.0,57.0,133.0,70.0,70.0,4.0,4.1,-191,-277,0,6,198,-282,370.53691387176514,370.5370149612427,370.54044818878174,370.5536720752716,370.6991744041443,370.6991744041443,370.6991744041443,370.6991744041443,370.6991744041443,370.6991744041443,370.6991744041443,371.9015905857086,2,1.333188772201538,None,,,,,,,,,,,,,,,,,,104,1,2025-02-25_09h57.44.637,comp,2024.2.4,57.511919077791774,2025-02-25 09h57.53.321098 -0500,
82,82,0,critical,dwh,20.0,2.1,lower,78.0,78.0,57.0,133.0,133.0,57.0,3,1.4099984169006348,None,,,,,0,0,0,0,0,82,82,6,371.91735887527466,,,,,,,,,,,,,,,,,,,,,,,,,,,,,,,,,,,,,,,,,,,,,,,,,,,,,,,,,,,,,,,,,,,,,,,,,,,,,,,,,,78.0,78.0,57.0,133.0,133.0,57.0,2.1,2.12,-202,-279,0,-274,191,280,371.90307545661926,371.90322041511536,371.9070723056793,371.91735887527466,372.0670349597931,372.0670349597931,372.0670349597931,372.0670349597931,372.0670349597931,372.0670349597931,372.0670349597931,373.33638405799866,3,1.4099984169006348,None,,,,,,,,,,,,,,,,,,104,1,2025-02-25_09h57.44.637,comp,2024.2.4,57.511919077791774,2025-02-25 09h57.53.321098 -0500,
83,83,0,filler_random,None,None,None,None,None,None,None,None,None,None,3,0.9474337100982666,None,,,,,0,0,0,0,0,83,83,155,373.35578894615173,,,,,,,,,,,,,,,,,,,,,,,,,,,,,,,,,,,,,,,,,,,,,,,,,,,,,,,,,,,,,,,,,,,,,,,,,,,,,,,,,,121.81744651324362,174.3839722275498,193.04527585674057,124.74189449047616,195.4004117402285,180.4833406336847,2.1,2.12,-246,-268,0,-277,249,287,373.33829951286316,373.3383831977844,373.3413996696472,373.35578894615173,373.50164437294006,373.50164437294006,373.50164437294006,373.50164437294006,373.50164437294006,373.50164437294006,373.50164437294006,374.306845664978,3,0.9474337100982666,None,,,,,,,,,,,,,,,,,,104,1,2025-02-25_09h57.44.637,comp,2024.2.4,57.511919077791774,2025-02-25 09h57.53.321098 -0500,
84,84,0,critical,hdw,20.0,2.1,lower,133.0,57.0,78.0,78.0,57.0,133.0,3,1.331728458404541,None,,,,,0,0,0,0,0,84,84,46,374.3230633735657,,,,,,,,,,,,,,,,,,,,,,,,,,,,,,,,,,,,,,,,,,,,,,,,,,,,,,,,,,,,,,,,,,,,,,,,,,,,,,,,,,133.0,57.0,78.0,78.0,57.0,133.0,2.1,2.12,-164,-264,0,-278,202,282,374.3084132671356,374.3084931373596,374.3113663196564,374.3230633735657,374.46527194976807,374.46527194976807,374.46527194976807,374.46527194976807,374.46527194976807,374.46527194976807,374.46527194976807,375.65674471855164,3,1.331728458404541,None,,,,,,,,,,,,,,,,,,104,1,2025-02-25_09h57.44.637,comp,2024.2.4,57.511919077791774,2025-02-25 09h57.53.321098 -0500,
85,85,0,critical,hdw,20.0,2.1,upper,200.0,125.0,141.0,141.0,125.0,200.0,1,2.4826512336730957,None,,,,,0,0,0,0,0,85,85,23,375.67696738243103,,,,,,,,,,,,,,,,,,,,,,,,,,,,,,,,,,,,,,,,,,,,,,,,,,,,,,,,,,,,,,,,,,,,,,,,,,,,,,,,,,200.0,125.0,141.0,141.0,125.0,200.0,2.1,2.12,-229,-268,0,-272,266,275,375.6582944393158,375.6583740711212,375.66128754615784,375.67696738243103,375.81852769851685,375.81852769851685,375.81852769851685,375.81852769851685,375.81852769851685,375.81852769851685,375.81852769851685,378.1671054363251,1,2.4826512336730957,None,,,,,,,,,,,,,,,,,,104,1,2025-02-25_09h57.44.637,comp,2024.2.4,57.511919077791774,2025-02-25 09h57.53.321098 -0500,
86,86,0,critical,dhw,20.0,2.1,upper,141.0,141.0,200.0,125.0,125.0,200.0,2,1.9462981224060059,None,,,,,0,0,0,0,0,86,86,27,378.1813907623291,,,,,,,,,,,,,,,,,,,,,,,,,,,,,,,,,,,,,,,,,,,,,,,,,,,,,,,,,,,,,,,,,,,,,,,,,,,,,,,,,,141.0,141.0,200.0,125.0,125.0,200.0,2.1,2.11,-229,280,0,257,258,-254,378.1687042713165,378.1687843799591,378.17176246643066,378.1813907623291,378.32226490974426,378.32226490974426,378.32226490974426,378.32226490974426,378.32226490974426,378.32226490974426,378.32226490974426,380.1350131034851,2,1.9462981224060059,None,,,,,,,,,,,,,,,,,,104,1,2025-02-25_09h57.44.637,comp,2024.2.4,57.511919077791774,2025-02-25 09h57.53.321098 -0500,
87,87,0,filler_random,None,None,None,None,None,None,None,None,None,None,1,1.279139518737793,None,,,,,0,0,0,0,0,87,87,145,380.1515791416168,,,,,,,,,,,,,,,,,,,,,,,,,,,,,,,,,,,,,,,,,,,,,,,,,,,,,,,,,,,,,,,,,,,,,,,,,,,,,,,,,,197.69022723153515,130.434923265983,117.28281563674014,188.41562443838114,120.91745296444324,66.45211098754953,1.0,1.2,-255,-8,0,19,223,10,380.1366684436798,380.1367440223694,380.1397843360901,380.1515791416168,380.3061146736145,380.3061146736145,380.3061146736145,380.3061146736145,380.3061146736145,380.3061146736145,380.3061146736145,381.44051599502563,1,1.279139518737793,None,,,,,,,,,,,,,,,,,,104,1,2025-02-25_09h57.44.637,comp,2024.2.4,57.511919077791774,2025-02-25 09h57.53.321098 -0500,
88,88,0,critical,whd,35.0,3.0,upper,125.0,200.0,200.0,125.0,127.0,127.0,1,4.758697748184204,None,,,,,0,0,0,0,0,88,88,87,381.45676279067993,,,,,,,,,,,,,,,,,,,,,,,,,,,,,,,,,,,,,,,,,,,,,,,,,,,,,,,,,,,,,,,,,,,,,,,,,,,,,,,,,,125.0,200.0,200.0,125.0,127.0,127.0,3.0,3.2,-258,-275,0,-16,222,281,381.44217705726624,381.4422619342804,381.4452614784241,381.45676279067993,381.602486371994,381.602486371994,381.602486371994,381.602486371994,381.602486371994,381.602486371994,381.602486371994,386.2204716205597,1,4.758697748184204,None,,,,,,,,,,,,,,,,,,104,1,2025-02-25_09h57.44.637,comp,2024.2.4,57.511919077791774,2025-02-25 09h57.53.321098 -0500,
89,89,0,filler_random,None,None,None,None,None,None,None,None,None,None,1,0.9348268508911133,None,,,,,0,0,0,0,0,89,89,135,386.241192817688,,,,,,,,,,,,,,,,,,,,,,,,,,,,,,,,,,,,,,,,,,,,,,,,,,,,,,,,,,,,,,,,,,,,,,,,,,,,,,,,,,135.04266805329604,176.6903686927372,147.77038556885316,79.43801721514012,128.81902560336852,104.60643762044472,4.0,4.2,-224,12,0,-281,188,-15,386.2223618030548,386.22249484062195,386.22566652297974,386.241192817688,386.38797545433044,386.38797545433044,386.38797545433044,386.38797545433044,386.38797545433044,386.38797545433044,386.38797545433044,387.18986082077026,1,0.9348268508911133,None,,,,,,,,,,,,,,,,,,104,1,2025-02-25_09h57.44.637,comp,2024.2.4,57.511919077791774,2025-02-25 09h57.53.321098 -0500,
90,90,0,filler_square,None,None,None,None,None,None,None,None,None,None,1,0.9439985752105713,None,,,,,0,0,0,0,0,90,90,170,387.2071690559387,,,,,,,,,,,,,,,,,,,,,,,,,,,,,,,,,,,,,,,,,,,,,,,,,,,,,,,,,,,,,,,,,,,,,,,,,,,,,,,,,,98.37220642773428,98.37220642773428,72.71393126463485,68.86285566533695,60.808374673245076,90.65229614283174,4.0,4.2,-180,-14,0,-260,176,-18,387.1915922164917,387.1916666030884,387.19448471069336,387.2071690559387,387.34327149391174,387.34327149391174,387.34327149391174,387.34327149391174,387.34327149391174,387.34327149391174,387.34327149391174,388.1550166606903,1,0.9439985752105713,None,,,,,,,,,,,,,,,,,,104,1,2025-02-25_09h57.44.637,comp,2024.2.4,57.511919077791774,2025-02-25 09h57.53.321098 -0500,
91,91,0,filler_random,None,None,None,None,None,None,None,None,None,None,3,2.2180235385894775,None,,,,,0,0,0,0,0,91,91,168,388.1729168891907,,,,,,,,,,,,,,,,,,,,,,,,,,,,,,,,,,,,,,,,,,,,,,,,,,,,,,,,,,,,,,,,,,,,,,,,,,,,,,,,,,78.61900817622175,84.95079926735465,185.4178865574676,60.94276866796727,167.27944436068208,115.68530804725174,2.2,2.22,-169,283,0,-286,184,-287,388.1566860675812,388.1567723751068,388.1598596572876,388.1729168891907,388.3232264518738,388.3232264518738,388.3232264518738,388.3232264518738,388.3232264518738,388.3232264518738,388.3232264518738,390.40595269203186,3,2.2180235385894775,None,,,,,,,,,,,,,,,,,,104,1,2025-02-25_09h57.44.637,comp,2024.2.4,57.511919077791774,2025-02-25 09h57.53.321098 -0500,
92,92,0,critical,whd,20.0,2.1,lower,57.0,133.0,133.0,57.0,78.0,78.0,2,3.1532182693481445,None,,,,,0,0,0,0,0,92,92,38,390.421621799469,,,,,,,,,,,,,,,,,,,,,,,,,,,,,,,,,,,,,,,,,,,,,,,,,,,,,,,,,,,,,,,,,,,,,,,,,,,,,,,,,,57.0,133.0,133.0,57.0,78.0,78.0,2.1,2.12,-191,-254,0,-271,164,278,390.40761733055115,390.4077396392822,390.4111831188202,390.421621799469,390.5775110721588,390.5775110721588,390.5775110721588,390.5775110721588,390.5775110721588,390.5775110721588,390.5775110721588,393.58805322647095,2,3.1532182693481445,None,,,,,,,,,,,,,,,,,,104,1,2025-02-25_09h57.44.637,comp,2024.2.4,57.511919077791774,2025-02-25 09h57.53.321098 -0500,
93,93,0,catch,None,None,None,None,None,None,None,None,None,None,2,1.5379891395568848,None,,,,,0,0,0,0,0,93,93,126,393.605309009552,,,,,,,,,,,,,,,,,,,,,,,,,,,,,,,,,,,,,,,,,,,,,,,,,,,,,,,,,,,,,,,,,,,,,,,,,,,,,,,,,,122,68,136,189,129,61,2.1,2.12,-224,-288,0,-282,221,277,393.5899848937988,393.59009194374084,393.5938079357147,393.605309009552,393.7544918060303,393.7544918060303,393.7544918060303,393.7544918060303,393.7544918060303,393.7544918060303,393.7544918060303,395.16165947914124,2,1.5379891395568848,None,,,,,,,,,,,,,,,,,,104,1,2025-02-25_09h57.44.637,comp,2024.2.4,57.511919077791774,2025-02-25 09h57.53.321098 -0500,
94,94,0,filler_random,None,None,None,None,None,None,None,None,None,None,1,1.041010856628418,None,,,,,0,0,0,0,0,94,94,134,395.18172812461853,,,,,,,,,,,,,,,,,,,,,,,,,,,,,,,,,,,,,,,,,,,,,,,,,,,,,,,,,,,,,,,,,,,,,,,,,,,,,,,,,,136.27350441977256,175.52824248931216,187.217396151013,58.093135704708565,92.52480818808286,84.25373937973872,4.0,4.2,-213,-3,0,-266,167,7,395.163476228714,395.1635551452637,395.1664173603058,395.18172812461853,395.32610607147217,395.32610607147217,395.32610607147217,395.32610607147217,395.32610607147217,395.32610607147217,395.32610607147217,396.2405307292938,1,1.041010856628418,None,,,,,,,,,,,,,,,,,,104,1,2025-02-25_09h57.44.637,comp,2024.2.4,57.511919077791774,2025-02-25 09h57.53.321098 -0500,
95,95,0,critical,whd,20.0,4.0,lower,57.0,133.0,133.0,57.0,78.0,78.0,2,1.7155814170837402,None,,,,,0,0,0,0,0,95,95,94,396.25931453704834,,,,,,,,,,,,,,,,,,,,,,,,,,,,,,,,,,,,,,,,,,,,,,,,,,,,,,,,,,,,,,,,,,,,,,,,,,,,,,,,,,57.0,133.0,133.0,57.0,78.0,78.0,4.0,4.2,-191,15,0,-264,164,9,396.24199652671814,396.24207496643066,396.2451717853546,396.25931453704834,396.40724420547485,396.40724420547485,396.40724420547485,396.40724420547485,396.40724420547485,396.40724420547485,396.40724420547485,397.9908061027527,2,1.7155814170837402,None,,,,,,,,,,,,,,,,,,104,1,2025-02-25_09h57.44.637,comp,2024.2.4,57.511919077791774,2025-02-25 09h57.53.321098 -0500,
96,96,0,critical,dhw,20.0,3.0,lower,78.0,78.0,133.0,57.0,57.0,133.0,2,0.9195842742919922,None,,,,,0,0,0,0,0,96,96,56,398.0072364807129,,,,,,,,,,,,,,,,,,,,,,,,,,,,,,,,,,,,,,,,,,,,,,,,,,,,,,,,,,,,,,,,,,,,,,,,,,,,,,,,,,78.0,78.0,133.0,57.0,57.0,133.0,3.0,3.2,-164,-271,0,13,191,253,397.99242305755615,397.99249839782715,397.9957866668701,398.0072364807129,398.1479470729828,398.1479470729828,398.1479470729828,398.1479470729828,398.1479470729828,398.1479470729828,398.1479470729828,398.9419596195221,2,0.9195842742919922,None,,,,,,,,,,,,,,,,,,104,1,2025-02-25_09h57.44.637,comp,2024.2.4,57.511919077791774,2025-02-25 09h57.53.321098 -0500,
97,97,0,critical,whd,35.0,1.0,upper,125.0,200.0,200.0,125.0,127.0,127.0,1,1.8734567165374756,None,,,,,0,0,0,0,0,97,97,85,398.9575538635254,,,,,,,,,,,,,,,,,,,,,,,,,,,,,,,,,,,,,,,,,,,,,,,,,,,,,,,,,,,,,,,,,,,,,,,,,,,,,,,,,,125.0,200.0,200.0,125.0,127.0,127.0,1.0,1.2,-258,-7,0,-1,222,6,398.9435284137726,398.94361090660095,398.94704723358154,398.9575538635254,399.109210729599,399.109210729599,399.109210729599,399.109210729599,399.109210729599,399.109210729599,399.109210729599,400.8471140861511,1,1.8734567165374756,None,,,,,,,,,,,,,,,,,,104,1,2025-02-25_09h57.44.637,comp,2024.2.4,57.511919077791774,2025-02-25 09h57.53.321098 -0500,
98,98,0,critical,hdw,20.0,3.0,upper,200.0,125.0,141.0,141.0,125.0,200.0,3,2.056239366531372,None,,,,,0,0,0,0,0,98,98,117,400.86334800720215,,,,,,,,,,,,,,,,,,,,,,,,,,,,,,,,,,,,,,,,,,,,,,,,,,,,,,,,,,,,,,,,,,,,,,,,,,,,,,,,,,200.0,125.0,141.0,141.0,125.0,200.0,3.0,3.2,-229,-252,0,12,266,257,400.8487124443054,400.8488359451294,400.85206389427185,400.86334800720215,401.0095593929291,401.0095593929291,401.0095593929291,401.0095593929291,401.0095593929291,401.0095593929291,401.0095593929291,402.92702436447144,3,2.056239366531372,None,,,,,,,,,,,,,,,,,,104,1,2025-02-25_09h57.44.637,comp,2024.2.4,57.511919077791774,2025-02-25 09h57.53.321098 -0500,
99,99,0,critical,wdh,20.0,1.0,upper,125.0,200.0,141.0,141.0,200.0,125.0,1,1.4962177276611328,None,,,,,0,0,0,0,0,99,99,79,402.9433698654175,,,,,,,,,,,,,,,,,,,,,,,,,,,,,,,,,,,,,,,,,,,,,,,,,,,,,,,,,,,,,,,,,,,,,,,,,,,,,,,,,,125.0,200.0,141.0,141.0,200.0,125.0,1.0,1.3,214,-265,480,-250,709,-268,402.92856454849243,402.92864298820496,402.9326195716858,402.9433698654175,403.09431076049805,403.09431076049805,403.09431076049805,403.09431076049805,403.09431076049805,403.09431076049805,403.09431076049805,404.44740104675293,1,1.4962177276611328,None,,,,,,,,,,,,,,,,,,104,1,2025-02-25_09h57.44.637,comp,2024.2.4,57.511919077791774,2025-02-25 09h57.53.321098 -0500,
100,100,0,critical,whd,20.0,2.1,upper,125.0,200.0,200.0,125.0,141.0,141.0,1,1.4553821086883545,None,,,,,0,0,0,0,0,100,100,15,404.46348094940186,,,,,,,,,,,,,,,,,,,,,,,,,,,,,,,,,,,,,,,,,,,,,,,,,,,,,,,,,,,,,,,,,,,,,,,,,,,,,,,,,,125.0,200.0,200.0,125.0,141.0,141.0,2.1,2.11,-258,278,0,273,229,-268,404.4490237236023,404.44910502433777,404.45201587677,404.46348094940186,404.6109890937805,404.6109890937805,404.6109890937805,404.6109890937805,404.6109890937805,404.6109890937805,404.6109890937805,405.93316888809204,1,1.4553821086883545,None,,,,,,,,,,,,,,,,,,104,1,2025-02-25_09h57.44.637,comp,2024.2.4,57.511919077791774,2025-02-25 09h57.53.321098 -0500,
101,101,0,filler_random,None,None,None,None,None,None,None,None,None,None,3,1.411107063293457,None,,,,,0,0,0,0,0,101,101,167,405.9479820728302,,,,,,,,,,,,,,,,,,,,,,,,,,,,,,,,,,,,,,,,,,,,,,,,,,,,,,,,,,,,,,,,,,,,,,,,,,,,,,,,,,98.9399657226749,190.0732133909847,90.36979676043947,84.80268954498473,150.75003559565823,167.3090629265883,2.2,2.22,-233,258,0,-267,222,-282,405.9348404407501,405.93491554260254,405.937707901001,405.9479820728302,406.09416031837463,406.09416031837463,406.09416031837463,406.09416031837463,406.09416031837463,406.09416031837463,406.09416031837463,407.36375522613525,3,1.411107063293457,None,,,,,,,,,,,,,,,,,,104,1,2025-02-25_09h57.44.637,comp,2024.2.4,57.511919077791774,2025-02-25 09h57.53.321098 -0500,
102,102,0,critical,dhw,20.0,4.0,lower,78.0,78.0,133.0,57.0,57.0,133.0,2,2.572303056716919,None,,,,,0,0,0,0,0,102,102,58,407.3799538612366,,,,,,,,,,,,,,,,,,,,,,,,,,,,,,,,,,,,,,,,,,,,,,,,,,,,,,,,,,,,,,,,,,,,,,,,,,,,,,,,,,78.0,78.0,133.0,57.0,57.0,133.0,4.0,4.2,-164,-19,0,-273,191,-2,407.36543107032776,407.3655090332031,407.369252204895,407.3799538612366,407.5377504825592,407.5377504825592,407.5377504825592,407.5377504825592,407.5377504825592,407.5377504825592,407.5377504825592,409.9543995857239,2,2.572303056716919,None,,,,,,,,,,,,,,,,,,104,1,2025-02-25_09h57.44.637,comp,2024.2.4,57.511919077791774,2025-02-25 09h57.53.321098 -0500,
103,103,0,filler_square,None,None,None,None,None,None,None,None,None,None,2,1.340158462524414,None,,,,,0,0,0,0,0,103,103,202,409.9706161022186,,,,,,,,,,,,,,,,,,,,,,,,,,,,,,,,,,,,,,,,,,,,,,,,,,,,,,,,,,,,,,,,,,,,,,,,,,,,,,,,,,125.27475145246287,95.7934027558403,166.93425526674616,166.93425526674616,157.6174875634734,125.51714019979822,2.1,2.11,-227,283,0,280,242,-274,409.95616149902344,409.95625376701355,409.9591255187988,409.9706161022186,410.10997772216797,410.10997772216797,410.10997772216797,410.10997772216797,410.10997772216797,410.10997772216797,410.10997772216797,411.3154077529907,2,1.340158462524414,None,,,,,,,,,,,,,,,,,,104,1,2025-02-25_09h57.44.637,comp,2024.2.4,57.511919077791774,2025-02-25 09h57.53.321098 -0500,
104,104,0,critical,whd,35.0,1.0,lower,57.0,133.0,133.0,57.0,70.0,70.0,2,1.275635004043579,None,,,,,0,0,0,0,0,104,104,84,411.3318395614624,,,,,,,,,,,,,,,,,,,,,,,,,,,,,,,,,,,,,,,,,,,,,,,,,,,,,,,,,,,,,,,,,,,,,,,,,,,,,,,,,,57.0,133.0,133.0,57.0,70.0,70.0,1.0,1.1,-671,284,-480,254,-320,258,411.3171730041504,411.3172650337219,411.3211073875427,411.3318395614624,411.4845428466797,411.4845428466797,411.4845428466797,411.4845428466797,411.4845428466797,411.4845428466797,411.4845428466797,412.6282215118408,2,1.275635004043579,None,,,,,,,,,,,,,,,,,,104,1,2025-02-25_09h57.44.637,comp,2024.2.4,57.511919077791774,2025-02-25 09h57.53.321098 -0500,
105,105,0,critical,hwd,20.0,4.0,upper,200.0,125.0,125.0,200.0,141.0,141.0,1,2.6104981899261475,None,,,,,0,0,0,0,0,105,105,107,412.64503598213196,,,,,,,,,,,,,,,,,,,,,,,,,,,,,,,,,,,,,,,,,,,,,,,,,,,,,,,,,,,,,,,,,,,,,,,,,,,,,,,,,,200.0,125.0,125.0,200.0,141.0,141.0,4.0,4.1,-258,-256,0,-17,266,-262,412.6297709941864,412.6298494338989,412.6334869861603,412.64503598213196,412.78569531440735,412.78569531440735,412.78569531440735,412.78569531440735,412.78569531440735,412.78569531440735,412.78569531440735,415.2641234397888,1,2.6104981899261475,None,,,,,,,,,,,,,,,,,,104,1,2025-02-25_09h57.44.637,comp,2024.2.4,57.511919077791774,2025-02-25 09h57.53.321098 -0500,
106,106,0,critical,whd,20.0,4.0,upper,125.0,200.0,200.0,125.0,141.0,141.0,1,1.7277021408081055,None,,,,,0,0,0,0,0,106,106,95,415.28005027770996,,,,,,,,,,,,,,,,,,,,,,,,,,,,,,,,,,,,,,,,,,,,,,,,,,,,,,,,,,,,,,,,,,,,,,,,,,,,,,,,,,125.0,200.0,200.0,125.0,141.0,141.0,4.0,4.2,-258,4,0,-273,229,19,415.2657382488251,415.26581835746765,415.26910495758057,415.28005027770996,415.4335753917694,415.4335753917694,415.4335753917694,415.4335753917694,415.4335753917694,415.4335753917694,415.4335753917694,417.0146987438202,1,1.7277021408081055,None,,,,,,,,,,,,,,,,,,104,1,2025-02-25_09h57.44.637,comp,2024.2.4,57.511919077791774,2025-02-25 09h57.53.321098 -0500,
107,107,0,critical,hdw,20.0,4.0,lower,133.0,57.0,78.0,78.0,57.0,133.0,3,2.170222520828247,None,,,,,0,0,0,0,0,107,107,118,417.0291705131531,,,,,,,,,,,,,,,,,,,,,,,,,,,,,,,,,,,,,,,,,,,,,,,,,,,,,,,,,,,,,,,,,,,,,,,,,,,,,,,,,,133.0,57.0,78.0,78.0,57.0,133.0,4.0,4.2,-164,15,0,-262,202,-9,417.01626229286194,417.01634216308594,417.01950907707214,417.0291705131531,417.17968702316284,417.17968702316284,417.17968702316284,417.17968702316284,417.17968702316284,417.17968702316284,417.17968702316284,419.20425248146057,3,2.170222520828247,None,,,,,,,,,,,,,,,,,,104,1,2025-02-25_09h57.44.637,comp,2024.2.4,57.511919077791774,2025-02-25 09h57.53.321098 -0500,
108,108,0,filler_random,None,None,None,None,None,None,None,None,None,None,1,2.2745161056518555,None,,,,,0,0,0,0,0,108,108,149,419.2202739715576,,,,,,,,,,,,,,,,,,,,,,,,,,,,,,,,,,,,,,,,,,,,,,,,,,,,,,,,,,,,,,,,,,,,,,,,,,,,,,,,,,171.54982512167328,76.40618669416195,113.99498929165694,104.67498006122293,96.36138394274303,95.87759314799274,1.0,1.3,293,-257,480,-253,676,-261,419.20599579811096,419.2060737609863,419.20892810821533,419.2202739715576,419.3632986545563,419.3632986545563,419.3632986545563,419.3632986545563,419.3632986545563,419.3632986545563,419.3632986545563,421.4996476173401,1,2.2745161056518555,None,,,,,,,,,,,,,,,,,,104,1,2025-02-25_09h57.44.637,comp,2024.2.4,57.511919077791774,2025-02-25 09h57.53.321098 -0500,
109,109,0,filler_random,None,None,None,None,None,None,None,None,None,None,3,0.9233560562133789,None,,,,,0,0,0,0,0,109,109,164,421.5154287815094,,,,,,,,,,,,,,,,,,,,,,,,,,,,,,,,,,,,,,,,,,,,,,,,,,,,,,,,,,,,,,,,,,,,,,,,,,,,,,,,,,111.72290663314169,89.12974663582075,138.39665602354086,105.2373124503846,188.0609424814805,177.9031049295985,1.0,1.2,-193,5,0,-20,238,-7,421.5012423992157,421.5013179779053,421.50474071502686,421.5154287815094,421.66499376296997,421.66499376296997,421.66499376296997,421.66499376296997,421.66499376296997,421.66499376296997,421.66499376296997,422.44853496551514,3,0.9233560562133789,None,,,,,,,,,,,,,,,,,,104,1,2025-02-25_09h57.44.637,comp,2024.2.4,57.511919077791774,2025-02-25 09h57.53.321098 -0500,
110,110,0,critical,hdw,35.0,3.0,lower,133.0,57.0,70.0,70.0,57.0,133.0,1,1.386690616607666,None,,,,,0,0,0,0,0,110,110,110,422.46825098991394,,,,,,,,,,,,,,,,,,,,,,,,,,,,,,,,,,,,,,,,,,,,,,,,,,,,,,,,,,,,,,,,,,,,,,,,,,,,,,,,,,133.0,57.0,70.0,70.0,57.0,133.0,3.0,3.2,-160,-285,0,-18,198,279,422.4501645565033,422.4503014087677,422.4535639286041,422.46825098991394,422.61554312705994,422.61554312705994,422.61554312705994,422.61554312705994,422.61554312705994,422.61554312705994,422.61554312705994,423.8691065311432,1,1.386690616607666,None,,,,,,,,,,,,,,,,,,104,1,2025-02-25_09h57.44.637,comp,2024.2.4,57.511919077791774,2025-02-25 09h57.53.321098 -0500,
111,111,0,critical,whd,20.0,1.0,lower,57.0,133.0,133.0,57.0,78.0,78.0,2,2.0926101207733154,None,,,,,0,0,0,0,0,111,111,90,423.8902473449707,,,,,,,,,,,,,,,,,,,,,,,,,,,,,,,,,,,,,,,,,,,,,,,,,,,,,,,,,,,,,,,,,,,,,,,,,,,,,,,,,,57.0,133.0,133.0,57.0,78.0,78.0,1.0,1.3,289,-267,480,-286,644,-250,423.8708806037903,423.8709599971771,423.8748137950897,423.8902473449707,424.03773641586304,424.03773641586304,424.03773641586304,424.03773641586304,424.03773641586304,424.03773641586304,424.03773641586304,426.00310707092285,2,2.0926101207733154,None,,,,,,,,,,,,,,,,,,104,1,2025-02-25_09h57.44.637,comp,2024.2.4,57.511919077791774,2025-02-25 09h57.53.321098 -0500,
112,112,0,filler_square,None,None,None,None,None,None,None,None,None,None,2,1.1224207878112793,None,,,,,0,0,0,0,0,112,112,187,426.02149415016174,,,,,,,,,,,,,,,,,,,,,,,,,,,,,,,,,,,,,,,,,,,,,,,,,,,,,,,,,,,,,,,,,,,,,,,,,,,,,,,,,,116.4935482160538,118.15277177709933,157.79052773761927,157.79052773761927,128.28709635789943,109.74367546969388,3.0,3.1,-234,278,0,-11,230,-264,426.0052378177643,426.00531554222107,426.0087184906006,426.02149415016174,426.1658170223236,426.1658170223236,426.1658170223236,426.1658170223236,426.1658170223236,426.1658170223236,426.1658170223236,427.14938855171204,2,1.1224207878112793,None,,,,,,,,,,,,,,,,,,104,1,2025-02-25_09h57.44.637,comp,2024.2.4,57.511919077791774,2025-02-25 09h57.53.321098 -0500,
113,113,0,critical,dwh,20.0,2.1,lower,78.0,78.0,57.0,133.0,133.0,57.0,1,2.7300124168395996,None,,,,,0,0,0,0,0,113,113,30,427.1656868457794,,,,,,,,,,,,,,,,,,,,,,,,,,,,,,,,,,,,,,,,,,,,,,,,,,,,,,,,,,,,,,,,,,,,,,,,,,,,,,,,,,78.0,78.0,57.0,133.0,133.0,57.0,2.1,2.11,-202,270,0,250,191,-259,427.15092301368713,427.1509985923767,427.1539373397827,427.1656868457794,427.30138897895813,427.30138897895813,427.30138897895813,427.30138897895813,427.30138897895813,427.30138897895813,427.30138897895813,429.9016783237457,1,2.7300124168395996,None,,,,,,,,,,,,,,,,,,104,1,2025-02-25_09h57.44.637,comp,2024.2.4,57.511919077791774,2025-02-25 09h57.53.321098 -0500,
114,114,0,filler_random,None,None,None,None,None,None,None,None,None,None,3,1.4643561840057373,None,,,,,0,0,0,0,0,114,114,148,429.9184293746948,,,,,,,,,,,,,,,,,,,,,,,,,,,,,,,,,,,,,,,,,,,,,,,,,,,,,,,,,,,,,,,,,,,,,,,,,,,,,,,,,,116.09086413267471,140.07888142987161,103.23261425157358,125.44703277428574,198.0414821801284,199.39844456752772,1.0,1.3,251,-269,480,-267,738,-276,429.90339636802673,429.90347242355347,429.9067931175232,429.9184293746948,430.06712460517883,430.06712460517883,430.06712460517883,430.06712460517883,430.06712460517883,430.06712460517883,430.06712460517883,431.38558530807495,3,1.4643561840057373,None,,,,,,,,,,,,,,,,,,104,1,2025-02-25_09h57.44.637,comp,2024.2.4,57.511919077791774,2025-02-25 09h57.53.321098 -0500,
115,115,0,filler_random,None,None,None,None,None,None,None,None,None,None,1,1.173302412033081,None,,,,,0,0,0,0,0,115,115,146,431.40207600593567,,,,,,,,,,,,,,,,,,,,,,,,,,,,,,,,,,,,,,,,,,,,,,,,,,,,,,,,,,,,,,,,,,,,,,,,,,,,,,,,,,170.28846943302716,183.4272923332684,147.3042831332944,102.750484492559,141.40622625610803,65.90423690340138,2.2,2.21,-239,-287,0,272,180,271,431.3873097896576,431.3874056339264,431.39140582084656,431.40207600593567,431.55076599121094,431.55076599121094,431.55076599121094,431.55076599121094,431.55076599121094,431.55076599121094,431.55076599121094,432.5785849094391,1,1.173302412033081,None,,,,,,,,,,,,,,,,,,104,1,2025-02-25_09h57.44.637,comp,2024.2.4,57.511919077791774,2025-02-25 09h57.53.321098 -0500,
116,116,0,critical,hdw,35.0,4.0,upper,200.0,125.0,127.0,127.0,125.0,200.0,1,2.589000701904297,None,,,,,0,0,0,0,0,116,116,113,432.59458446502686,,,,,,,,,,,,,,,,,,,,,,,,,,,,,,,,,,,,,,,,,,,,,,,,,,,,,,,,,,,,,,,,,,,,,,,,,,,,,,,,,,200.0,125.0,127.0,127.0,125.0,200.0,4.0,4.2,-222,16,0,-286,260,-11,432.57999205589294,432.5800669193268,432.58287167549133,432.59458446502686,432.73662066459656,432.73662066459656,432.73662066459656,432.73662066459656,432.73662066459656,432.73662066459656,432.73662066459656,435.18802785873413,1,2.589000701904297,None,,,,,,,,,,,,,,,,,,104,1,2025-02-25_09h57.44.637,comp,2024.2.4,57.511919077791774,2025-02-25 09h57.53.321098 -0500,
117,117,0,critical,dwh,20.0,1.0,upper,141.0,141.0,125.0,200.0,200.0,125.0,2,1.475759506225586,None,,,,,0,0,0,0,0,117,117,67,435.20379161834717,,,,,,,,,,,,,,,,,,,,,,,,,,,,,,,,,,,,,,,,,,,,,,,,,,,,,,,,,,,,,,,,,,,,,,,,,,,,,,,,,,141.0,141.0,125.0,200.0,200.0,125.0,1.0,1.1,-746,279,-480,284,-222,273,435.1895318031311,435.18964767456055,435.19304943084717,435.20379161834717,435.3589355945587,435.3589355945587,435.3589355945587,435.3589355945587,435.3589355945587,435.3589355945587,435.3589355945587,436.68570590019226,2,1.475759506225586,None,,,,,,,,,,,,,,,,,,104,1,2025-02-25_09h57.44.637,comp,2024.2.4,57.511919077791774,2025-02-25 09h57.53.321098 -0500,
118,118,0,catch,None,None,None,None,None,None,None,None,None,None,2,1.1206691265106201,None,,,,,0,0,0,0,0,118,118,128,436.702228307724,,,,,,,,,,,,,,,,,,,,,,,,,,,,,,,,,,,,,,,,,,,,,,,,,,,,,,,,,,,,,,,,,,,,,,,,,,,,,,,,,,93,97,186,139,110,80,4.0,4.2,-214,4,0,-283,206,19,436.68754410743713,436.6876242160797,436.69064593315125,436.702228307724,436.85451340675354,436.85451340675354,436.85451340675354,436.85451340675354,436.85451340675354,436.85451340675354,436.85451340675354,437.8387861251831,2,1.1206691265106201,None,,,,,,,,,,,,,,,,,,104,1,2025-02-25_09h57.44.637,comp,2024.2.4,57.511919077791774,2025-02-25 09h57.53.321098 -0500,
119,119,0,critical,wdh,20.0,2.1,upper,125.0,200.0,141.0,141.0,200.0,125.0,1,1.3919956684112549,None,,,,,0,0,0,0,0,119,119,35,437.85481333732605,,,,,,,,,,,,,,,,,,,,,,,,,,,,,,,,,,,,,,,,,,,,,,,,,,,,,,,,,,,,,,,,,,,,,,,,,,,,,,,,,,125.0,200.0,141.0,141.0,200.0,125.0,2.1,2.11,-266,251,0,261,229,-269,437.8403477668762,437.84045147895813,437.84452199935913,437.85481333732605,438.0144770145416,438.0144770145416,438.0144770145416,438.0144770145416,438.0144770145416,438.0144770145416,438.0144770145416,439.25734090805054,1,1.3919956684112549,None,,,,,,,,,,,,,,,,,,104,1,2025-02-25_09h57.44.637,comp,2024.2.4,57.511919077791774,2025-02-25 09h57.53.321098 -0500,
120,120,0,filler_square,None,None,None,None,None,None,None,None,None,None,2,1.2855923175811768,None,,,,,0,0,0,0,0,120,120,186,439.2732973098755,,,,,,,,,,,,,,,,,,,,,,,,,,,,,,,,,,,,,,,,,,,,,,,,,,,,,,,,,,,,,,,,,,,,,,,,,,,,,,,,,,161.98647703708133,121.57930547289625,169.45061005522686,169.45061005522686,140.3437982294398,65.66181673899095,1.0,1.2,-242,14,0,14,214,-15,439.25957107543945,439.2596507072449,439.26255679130554,439.2732973098755,439.4195086956024,439.4195086956024,439.4195086956024,439.4195086956024,439.4195086956024,439.4195086956024,439.4195086956024,440.57098054885864,2,1.2855923175811768,None,,,,,,,,,,,,,,,,,,104,1,2025-02-25_09h57.44.637,comp,2024.2.4,57.511919077791774,2025-02-25 09h57.53.321098 -0500,
121,121,0,filler_square,None,None,None,None,None,None,None,None,None,None,1,1.2038087844848633,None,,,,,0,0,0,0,0,121,121,200,440.58722710609436,,,,,,,,,,,,,,,,,,,,,,,,,,,,,,,,,,,,,,,,,,,,,,,,,,,,,,,,,,,,,,,,,,,,,,,,,,,,,,,,,,189.81637916985153,189.81637916985153,154.32760509372574,121.82872972235967,74.95164087045426,76.2652292967187,1.0,1.3,228,-259,480,-282,675,-289,440.5728189945221,440.5728962421417,440.57604932785034,440.58722710609436,440.7395944595337,440.7395944595337,440.7395944595337,440.7395944595337,440.7395944595337,440.7395944595337,440.7395944595337,441.80535674095154,1,1.2038087844848633,None,,,,,,,,,,,,,,,,,,104,1,2025-02-25_09h57.44.637,comp,2024.2.4,57.511919077791774,2025-02-25 09h57.53.321098 -0500,
122,122,0,filler_square,None,None,None,None,None,None,None,None,None,None,2,1.3533201217651367,None,,,,,0,0,0,0,0,122,122,196,441.82153820991516,,,,,,,,,,,,,,,,,,,,,,,,,,,,,,,,,,,,,,,,,,,,,,,,,,,,,,,,,,,,,,,,,,,,,,,,,,,,,,,,,,91.50762082531406,124.17680409482254,143.5020770559134,143.5020770559134,125.36136621318614,118.83067078504558,3.0,3.2,-230,-254,0,10,227,275,441.8074109554291,441.8074915409088,441.8111791610718,441.82153820991516,441.9747850894928,441.9747850894928,441.9747850894928,441.9747850894928,441.9747850894928,441.9747850894928,441.9747850894928,443.18463492393494,2,1.3533201217651367,None,,,,,,,,,,,,,,,,,,104,1,2025-02-25_09h57.44.637,comp,2024.2.4,57.511919077791774,2025-02-25 09h57.53.321098 -0500,
123,123,0,critical,wdh,20.0,2.1,lower,57.0,133.0,78.0,78.0,133.0,57.0,1,2.173527956008911,None,,,,,0,0,0,0,0,123,123,34,443.2014355659485,,,,,,,,,,,,,,,,,,,,,,,,,,,,,,,,,,,,,,,,,,,,,,,,,,,,,,,,,,,,,,,,,,,,,,,,,,,,,,,,,,57.0,133.0,78.0,78.0,133.0,57.0,2.1,2.11,-202,287,0,265,164,-277,443.18624806404114,443.18633008003235,443.1896278858185,443.2014355659485,443.3435089588165,443.3435089588165,443.3435089588165,443.3435089588165,443.3435089588165,443.3435089588165,443.3435089588165,445.38037061691284,1,2.173527956008911,None,,,,,,,,,,,,,,,,,,104,1,2025-02-25_09h57.44.637,comp,2024.2.4,57.511919077791774,2025-02-25 09h57.53.321098 -0500,
124,124,0,filler_square,None,None,None,None,None,None,None,None,None,None,3,1.0547103881835938,None,,,,,0,0,0,0,0,124,124,182,445.4012405872345,,,,,,,,,,,,,,,,,,,,,,,,,,,,,,,,,,,,,,,,,,,,,,,,,,,,,,,,,,,,,,,,,,,,,,,,,,,,,,,,,,93.57321937977017,90.2137555768978,129.24618224695013,147.72262440305784,189.85783069504075,189.85783069504075,3.0,3.2,-215,-263,0,2,265,265,445.3823387622833,445.382417678833,445.3855903148651,445.4012405872345,445.5359580516815,445.5359580516815,445.5359580516815,445.5359580516815,445.5359580516815,445.5359580516815,445.5359580516815,446.46161103248596,3,1.0547103881835938,None,,,,,,,,,,,,,,,,,,104,1,2025-02-25_09h57.44.637,comp,2024.2.4,57.511919077791774,2025-02-25 09h57.53.321098 -0500,
125,125,0,critical,wdh,35.0,4.0,upper,125.0,200.0,127.0,127.0,200.0,125.0,1,1.593855619430542,None,,,,,0,0,0,0,0,125,125,77,446.47809958457947,,,,,,,,,,,,,,,,,,,,,,,,,,,,,,,,,,,,,,,,,,,,,,,,,,,,,,,,,,,,,,,,,,,,,,,,,,,,,,,,,,125.0,200.0,127.0,127.0,200.0,125.0,4.0,4.2,-260,-7,0,-286,222,-6,446.46344232559204,446.4635741710663,446.4665982723236,446.47809958457947,446.6226317882538,446.6226317882538,446.6226317882538,446.6226317882538,446.6226317882538,446.6226317882538,446.6226317882538,448.074339389801,1,1.593855619430542,None,,,,,,,,,,,,,,,,,,104,1,2025-02-25_09h57.44.637,comp,2024.2.4,57.511919077791774,2025-02-25 09h57.53.321098 -0500,
126,126,0,critical,hwd,35.0,4.0,upper,200.0,125.0,125.0,200.0,127.0,127.0,2,1.6613154411315918,None,,,,,0,0,0,0,0,126,126,101,448.0903604030609,,,,,,,,,,,,,,,,,,,,,,,,,,,,,,,,,,,,,,,,,,,,,,,,,,,,,,,,,,,,,,,,,,,,,,,,,,,,,,,,,,200.0,125.0,125.0,200.0,127.0,127.0,4.0,4.2,-258,-15,0,-287,260,-17,448.07586669921875,448.07594752311707,448.07933807373047,448.0903604030609,448.22696828842163,448.22696828842163,448.22696828842163,448.22696828842163,448.22696828842163,448.22696828842163,448.22696828842163,449.7563862800598,2,1.6613154411315918,None,,,,,,,,,,,,,,,,,,104,1,2025-02-25_09h57.44.637,comp,2024.2.4,57.511919077791774,2025-02-25 09h57.53.321098 -0500,
127,127,0,filler_random,None,None,None,None,None,None,None,None,None,None,3,1.3152902126312256,None,,,,,0,0,0,0,0,127,127,151,449.772362947464,,,,,,,,,,,,,,,,,,,,,,,,,,,,,,,,,,,,,,,,,,,,,,,,,,,,,,,,,,,,,,,,,,,,,,,,,,,,,,,,,,188.51913920115356,96.26225677570105,168.1194278330022,105.20358628629893,193.21680374576923,120.53757090137842,1.0,1.2,-197,-13,0,18,209,1,449.758163690567,449.75828194618225,449.76148438453674,449.772362947464,449.913898229599,449.913898229599,449.913898229599,449.913898229599,449.913898229599,449.913898229599,449.913898229599,451.095739364624,3,1.3152902126312256,None,,,,,,,,,,,,,,,,,,104,1,2025-02-25_09h57.44.637,comp,2024.2.4,57.511919077791774,2025-02-25 09h57.53.321098 -0500,
128,128,0,critical,hwd,35.0,1.0,upper,200.0,125.0,125.0,200.0,127.0,127.0,1,1.1338458061218262,None,,,,,0,0,0,0,0,128,128,97,451.114275932312,,,,,,,,,,,,,,,,,,,,,,,,,,,,,,,,,,,,,,,,,,,,,,,,,,,,,,,,,,,,,,,,,,,,,,,,,,,,,,,,,,200.0,125.0,125.0,200.0,127.0,127.0,1.0,1.1,-738,279,-480,285,-220,280,451.09739232063293,451.09746980667114,451.1003839969635,451.114275932312,451.25835943222046,451.25835943222046,451.25835943222046,451.25835943222046,451.25835943222046,451.25835943222046,451.25835943222046,452.25895953178406,1,1.1338458061218262,None,,,,,,,,,,,,,,,,,,104,1,2025-02-25_09h57.44.637,comp,2024.2.4,57.511919077791774,2025-02-25 09h57.53.321098 -0500,
129,129,0,filler_square,None,None,None,None,None,None,None,None,None,None,3,1.3639543056488037,None,,,,,0,0,0,0,0,129,129,209,452.2748863697052,,,,,,,,,,,,,,,,,,,,,,,,,,,,,,,,,,,,,,,,,,,,,,,,,,,,,,,,,,,,,,,,,,,,,,,,,,,,,,,,,,67.52689779674452,61.06057077133467,83.53846700906296,65.09427878679992,86.79288812843959,86.79288812843959,2.1,2.11,-159,286,0,272,172,-288,452.2607789039612,452.26086044311523,452.2642652988434,452.2748863697052,452.42384696006775,452.42384696006775,452.42384696006775,452.42384696006775,452.42384696006775,452.42384696006775,452.42384696006775,453.65156531333923,3,1.3639543056488037,None,,,,,,,,,,,,,,,,,,104,1,2025-02-25_09h57.44.637,comp,2024.2.4,57.511919077791774,2025-02-25 09h57.53.321098 -0500,
130,130,0,filler_square,None,None,None,None,None,None,None,None,None,None,2,2.2109901905059814,None,,,,,0,0,0,0,0,130,130,206,453.6679184436798,,,,,,,,,,,,,,,,,,,,,,,,,,,,,,,,,,,,,,,,,,,,,,,,,,,,,,,,,,,,,,,,,,,,,,,,,,,,,,,,,,88.96898564267595,75.40874139928343,90.82929428672242,90.82929428672242,77.41982353014956,68.63029465722273,2.1,2.11,-179,286,0,289,176,-268,453.6533999443054,453.65353655815125,453.6567826271057,453.6679184436798,453.8103241920471,453.8103241920471,453.8103241920471,453.8103241920471,453.8103241920471,453.8103241920471,453.8103241920471,455.8934373855591,2,2.2109901905059814,None,,,,,,,,,,,,,,,,,,104,1,2025-02-25_09h57.44.637,comp,2024.2.4,57.511919077791774,2025-02-25 09h57.53.321098 -0500,
131,131,0,filler_random,None,None,None,None,None,None,None,None,None,None,1,1.4460043907165527,None,,,,,0,0,0,0,0,131,131,140,455.9075360298157,,,,,,,,,,,,,,,,,,,,,,,,,,,,,,,,,,,,,,,,,,,,,,,,,,,,,,,,,,,,,,,,,,,,,,,,,,,,,,,,,,144.22407785105733,157.16856626944434,178.56045669200148,74.46368249662825,165.81414876982217,142.82650788093872,2.1,2.11,-212,260,0,257,205,-272,455.89518189430237,455.89526295661926,455.8985073566437,455.9075360298157,456.0588028430939,456.0588028430939,456.0588028430939,456.0588028430939,456.0588028430939,456.0588028430939,456.0588028430939,457.3596556186676,1,1.4460043907165527,None,,,,,,,,,,,,,,,,,,104,1,2025-02-25_09h57.44.637,comp,2024.2.4,57.511919077791774,2025-02-25 09h57.53.321098 -0500,
132,132,0,catch,None,None,None,None,None,None,None,None,None,None,1,0.691002607345581,None,,,,,0,0,0,0,0,132,132,122,457.380464553833,,,,,,,,,,,,,,,,,,,,,,,,,,,,,,,,,,,,,,,,,,,,,,,,,,,,,,,,,,,,,,,,,,,,,,,,,,,,,,,,,,161,164,131,59,106,84,3.0,3.1,-208,257,0,1,168,-263,457.3617012500763,457.3617808818817,457.365079164505,457.380464553833,457.52623653411865,457.52623653411865,457.52623653411865,457.52623653411865,457.52623653411865,457.52623653411865,457.52623653411865,458.0757169723511,1,0.691002607345581,None,,,,,,,,,,,,,,,,,,104,1,2025-02-25_09h57.44.637,comp,2024.2.4,57.511919077791774,2025-02-25 09h57.53.321098 -0500,
133,133,0,critical,hwd,20.0,1.0,upper,200.0,125.0,125.0,200.0,141.0,141.0,2,3.730989933013916,None,,,,,0,0,0,0,0,133,133,103,458.09241676330566,,,,,,,,,,,,,,,,,,,,,,,,,,,,,,,,,,,,,,,,,,,,,,,,,,,,,,,,,,,,,,,,,,,,,,,,,,,,,,,,,,200.0,125.0,125.0,200.0,141.0,141.0,1.0,1.2,-258,5,0,-8,266,5,458.0773162841797,458.07740783691406,458.08070611953735,458.09241676330566,458.24522066116333,458.24522066116333,458.24522066116333,458.24522066116333,458.24522066116333,458.24522066116333,458.24522066116333,461.83556842803955,2,3.730989933013916,None,,,,,,,,,,,,,,,,,,104,1,2025-02-25_09h57.44.637,comp,2024.2.4,57.511919077791774,2025-02-25 09h57.53.321098 -0500,
134,134,0,critical,dwh,35.0,2.1,upper,127.0,127.0,125.0,200.0,200.0,125.0,2,1.5319020748138428,None,,,,,0,0,0,0,0,134,134,29,461.8509964942932,,,,,,,,,,,,,,,,,,,,,,,,,,,,,,,,,,,,,,,,,,,,,,,,,,,,,,,,,,,,,,,,,,,,,,,,,,,,,,,,,,127.0,127.0,125.0,200.0,200.0,125.0,2.1,2.11,-260,255,0,255,258,-282,461.8371069431305,461.8372094631195,461.8400545120239,461.8509964942932,461.99649143218994,461.99649143218994,461.99649143218994,461.99649143218994,461.99649143218994,461.99649143218994,461.99649143218994,463.3959860801697,2,1.5319020748138428,None,,,,,,,,,,,,,,,,,,104,1,2025-02-25_09h57.44.637,comp,2024.2.4,57.511919077791774,2025-02-25 09h57.53.321098 -0500,
135,135,0,critical,dwh,20.0,2.1,upper,141.0,141.0,125.0,200.0,200.0,125.0,2,0.861314058303833,None,,,,,0,0,0,0,0,135,135,31,463.4122929573059,,,,,,,,,,,,,,,,,,,,,,,,,,,,,,,,,,,,,,,,,,,,,,,,,,,,,,,,,,,,,,,,,,,,,,,,,,,,,,,,,,141.0,141.0,125.0,200.0,200.0,125.0,2.1,2.11,-266,283,0,258,258,-268,463.3975191116333,463.39759945869446,463.40163135528564,463.4122929573059,463.56212091445923,463.56212091445923,463.56212091445923,463.56212091445923,463.56212091445923,463.56212091445923,463.56212091445923,464.27830719947815,2,0.861314058303833,None,,,,,,,,,,,,,,,,,,104,1,2025-02-25_09h57.44.637,comp,2024.2.4,57.511919077791774,2025-02-25 09h57.53.321098 -0500,
136,136,0,filler_square,None,None,None,None,None,None,None,None,None,None,3,2.8649280071258545,None,,,,,0,0,0,0,0,136,136,181,464.29482102394104,,,,,,,,,,,,,,,,,,,,,,,,,,,,,,,,,,,,,,,,,,,,,,,,,,,,,,,,,,,,,,,,,,,,,,,,,,,,,,,,,,129.76454288306718,120.24806252488436,84.83982272099553,65.36596903074202,131.61362187558484,131.61362187558484,2.1,2.12,-189,-289,0,-284,194,279,464.2800817489624,464.28018450737,464.28330540657043,464.29482102394104,464.43179416656494,464.43179416656494,464.43179416656494,464.43179416656494,464.43179416656494,464.43179416656494,464.43179416656494,467.16351199150085,3,2.8649280071258545,None,,,,,,,,,,,,,,,,,,104,1,2025-02-25_09h57.44.637,comp,2024.2.4,57.511919077791774,2025-02-25 09h57.53.321098 -0500,
137,137,0,critical,dhw,20.0,1.0,lower,78.0,78.0,133.0,57.0,57.0,133.0,2,2.1553754806518555,None,,,,,0,0,0,0,0,137,137,54,467.179634809494,,,,,,,,,,,,,,,,,,,,,,,,,,,,,,,,,,,,,,,,,,,,,,,,,,,,,,,,,,,,,,,,,,,,,,,,,,,,,,,,,,78.0,78.0,133.0,57.0,57.0,133.0,1.0,1.1,-644,270,-480,263,-289,254,467.1652600765228,467.16534090042114,467.16880106925964,467.179634809494,467.33729577064514,467.33729577064514,467.33729577064514,467.33729577064514,467.33729577064514,467.33729577064514,467.33729577064514,469.35192251205444,2,2.1553754806518555,None,,,,,,,,,,,,,,,,,,104,1,2025-02-25_09h57.44.637,comp,2024.2.4,57.511919077791774,2025-02-25 09h57.53.321098 -0500,
138,138,0,critical,dhw,20.0,4.0,upper,141.0,141.0,200.0,125.0,125.0,200.0,2,1.9355573654174805,None,,,,,0,0,0,0,0,138,138,59,469.36766958236694,,,,,,,,,,,,,,,,,,,,,,,,,,,,,,,,,,,,,,,,,,,,,,,,,,,,,,,,,,,,,,,,,,,,,,,,,,,,,,,,,,141.0,141.0,200.0,125.0,125.0,200.0,4.0,4.2,-229,-14,0,-263,258,7,469.3538706302643,469.35398721694946,469.35724544525146,469.36766958236694,469.5197353363037,469.5197353363037,469.5197353363037,469.5197353363037,469.5197353363037,469.5197353363037,469.5197353363037,471.3230357170105,2,1.9355573654174805,None,,,,,,,,,,,,,,,,,,104,1,2025-02-25_09h57.44.637,comp,2024.2.4,57.511919077791774,2025-02-25 09h57.53.321098 -0500,
139,139,0,critical,hwd,20.0,2.1,upper,200.0,125.0,125.0,200.0,141.0,141.0,2,0.9055795669555664,None,,,,,0,0,0,0,0,139,139,43,471.3412413597107,,,,,,,,,,,,,,,,,,,,,,,,,,,,,,,,,,,,,,,,,,,,,,,,,,,,,,,,,,,,,,,,,,,,,,,,,,,,,,,,,,200.0,125.0,125.0,200.0,141.0,141.0,2.1,2.11,-258,273,0,252,266,-253,471.3247001171112,471.3248281478882,471.3280439376831,471.3412413597107,471.4818985462189,471.4818985462189,471.4818985462189,471.4818985462189,471.4818985462189,471.4818985462189,471.4818985462189,472.2491569519043,2,0.9055795669555664,None,,,,,,,,,,,,,,,,,,104,1,2025-02-25_09h57.44.637,comp,2024.2.4,57.511919077791774,2025-02-25 09h57.53.321098 -0500,
