thisN,thisTrialN,thisRepN,effect,order,distance,config,diag,h_1,w_1,h_2,w_2,h_3,w_3,rect_choice.keys,rect_choice.rt,rect_choice.duration,instructions_loop.thisRepN,instructions_loop.thisTrialN,instructions_loop.thisN,instructions_loop.thisIndex,blocks.thisRepN,blocks.thisTrialN,blocks.thisN,blocks.thisIndex,trials.thisRepN,trials.thisTrialN,trials.thisN,trials.thisIndex,thisRow.t,notes,consent.started,agree_button.started,decline_button.started,consent_img.started,mouse.started,consent.stopped,agree_button.numClicks,agree_button.timesOn,agree_button.timesOff,decline_button.numClicks,decline_button.timesOn,decline_button.timesOff,mouse.x,mouse.y,mouse.leftButton,mouse.midButton,mouse.rightButton,mouse.time,mouse.clicked_name,exp_params.started,exp_params.stopped,welcome.started,welcome_text.started,welcome.stopped,instructions_1.started,instructions_1_text_1.started,instructions_1_text_2.started,key_resp.started,instructions_1.stopped,instructions_loop.key_resp.keys,instructions_loop.key_resp.rt,instructions_loop.key_resp.duration,instructions_2.started,instructions_2_text_1.started,instructions_2_text_2.started,key_resp_2.started,instructions_2.stopped,instructions_loop.key_resp_2.keys,instructions_loop.key_resp_2.rt,instructions_loop.key_resp_2.duration,instructions_3.started,instructions_3_text_1.started,r1_instr3.started,r2_instr3.started,r3_instr3.started,r1_instr3_label.started,r2_instr3_label.started,r3_instr3_label.started,instructions_3_text_3.started,instructions_3_text_4.started,key_resp_3.started,instructions_3.stopped,instructions_loop.key_resp_3.keys,instructions_loop.key_resp_3.rt,instructions_loop.key_resp_3.duration,instructions_4.started,instructions_4_text_1.started,instructions_4_text_3.started,instructions_4_text_2.started,key_resp_4.started,instructions_4.stopped,instructions_loop.key_resp_4.keys,instructions_loop.key_resp_4.rt,instructions_loop.key_resp_4.duration,instructions_5.started,instructions_5_text_1.started,instructions_5_text_2.started,key_resp_5.started,instructions_5.stopped,instructions_loop.key_resp_5.keys,instructions_loop.key_resp_5.rt,instructions_loop.key_resp_5.duration,start_exp.started,start_exp_text.started,key_resp_6.started,start_exp.stopped,key_resp_6.keys,key_resp_6.rt,key_resp_6.duration,h_1_tmp,w_1_tmp,h_2_tmp,w_2_tmp,h_3_tmp,w_3_tmp,config_tmp,config_tmp_1,r_1_x,r_1_y,r_2_x,r_2_y,r_3_x,r_3_y,pre_trial.started,pre_trial.stopped,choice_trial.started,rect_choice.started,r_1.started,r_2.started,r_3.started,r_1_label.started,r_2_label.started,r_3_label.started,prompt.started,choice_trial.stopped,trials.rect_choice.keys,trials.rect_choice.rt,trials.rect_choice.duration,end_block.started,end_block_text.started,end_block.stopped,end.started,end_text.started,key_resp_7.started,end.stopped,key_resp_7.keys,key_resp_7.rt,key_resp_7.duration,debriefing.started,debrief_form.started,end_debrief.started,debriefing.stopped,end_debrief.keys,end_debrief.rt,end_debrief.duration,participant,computer,date,expName,psychopyVersion,frameRate,expStart,
,,,,,,,,,,,,,,,,,,,,,,,,,,,,,,,0.014650583267211914,0.03679370880126953,0.03679370880126953,0.03679370880126953,0.014451026916503906,64.58256316184998,1,[64.54365372657776],[64.5436737537384],0,,,"[175.0, -55.0]","[-4.0, -500.0]","[1, 1]","[0, 0]","[0, 0]","[46.68092465400696, 64.56749987602234]","[None, 'agree_button']",,,,,,,,,,,,,,,,,,,,,,,,,,,,,,,,,,,,,,,,,,,,,,,,,,,,,,,,,,,,,,,,,,,,,,,,,,,,,,,,,,,,,,,,,,,,,,,,,,,,,,,,,,,105,2,2025-02-25_09h57.59.139,comp,2024.2.4,None,2025-02-25 09h58.18.240149 -0500,
,,,,,,,,,,,,,,,,,,,,,,,,,,,,,,,,,,,,,,,,,,,,,,,,,,64.58308243751526,64.58314037322998,,,,,,,,,,,,,,,,,,,,,,,,,,,,,,,,,,,,,,,,,,,,,,,,,,,,,,,,,,,,,,,,,,,,,,,,,,,,,,,,,,,,,,,,,,,,,,,,,,,,,,,,,105,2,2025-02-25_09h57.59.139,comp,2024.2.4,None,2025-02-25 09h58.18.240149 -0500,
,,,,,,,,,,,,,,,,,,,,,,,,,,,,,,,,,,,,,,,,,,,,,,,,,,,,64.58317947387695,64.5970892906189,66.59248447418213,,,,,,,,,,,,,,,,,,,,,,,,,,,,,,,,,,,,,,,,,,,,,,,,,,,,,,,,,,,,,,,,,,,,,,,,,,,,,,,,,,,,,,,,,,,,,,,,,,,,,,105,2,2025-02-25_09h57.59.139,comp,2024.2.4,None,2025-02-25 09h58.18.240149 -0500,
0,0,0,,,,,,,,,,,,,,,0,0,0,0,,,,,,,,,66.60926580429077,,,,,,,,,,,,,,,,,,,,,,,,,,66.59343218803406,66.60926580429077,66.60926580429077,68.09130048751831,72.88131070137024,space,4.7830421924591064,None,72.88145518302917,72.89951133728027,72.89951133728027,74.39462375640869,81.18154311180115,space,6.776149272918701,None,81.1816954612732,81.21064472198486,81.21064472198486,81.21064472198486,81.21064472198486,81.21064472198486,81.21064472198486,81.21064472198486,81.21064472198486,81.21064472198486,82.68166041374207,87.95692801475525,space,5.2559814453125,None,87.95709347724915,87.97854995727539,87.97854995727539,87.97854995727539,89.46402049064636,93.93732762336731,space,4.457730293273926,None,93.93748736381531,93.95485186576843,93.95485186576843,95.4494059085846,97.13628578186035,space,1.6724977493286133,None,97.13648819923401,97.15247702598572,97.15247702598572,98.67053699493408,space,1.5059866905212402,None,,,,,,,,,,,,,,,,,,,,,,,,,,,,,,,,,,,,,,,,,,,,,,,105,2,2025-02-25_09h57.59.139,comp,2024.2.4,None,2025-02-25 09h58.18.240149 -0500,
0,0,0,critical,hwd,20.0,4.0,upper,200.0,125.0,125.0,200.0,141.0,141.0,2,19.62269949913025,None,,,,,0,0,0,0,0,0,0,107,98.74767589569092,,,,,,,,,,,,,,,,,,,,,,,,,,,,,,,,,,,,,,,,,,,,,,,,,,,,,,,,,,,,,,,,,,,,,,,,,,,,,,,,,200.0,125.0,125.0,200.0,141.0,141.0,4.0,4.1,-258,-257,0,13,266,-260,98.73157668113708,98.73161172866821,98.73291730880737,98.74767589569092,98.89491534233093,98.89491534233093,98.89491534233093,98.89491534233093,98.89491534233093,98.89491534233093,98.89491534233093,118.37563729286194,2,19.62269949913025,None,,,,,,,,,,,,,,,,,,105,2,2025-02-25_09h57.59.139,comp,2024.2.4,None,2025-02-25 09h58.18.240149 -0500,
1,1,0,filler_random,None,None,None,None,None,None,None,None,None,None,3,10.263858556747437,None,,,,,0,0,0,0,0,1,1,147,118.39399147033691,,,,,,,,,,,,,,,,,,,,,,,,,,,,,,,,,,,,,,,,,,,,,,,,,,,,,,,,,,,,,,,,,,,,,,,,,,,,,,,,,81.2188101032686,179.6824042035048,83.52268626471307,147.9820502953551,167.85532556135178,118.41848188738902,2.1,2.11,-260,283,0,288,229,-288,118.37736392021179,118.37742590904236,118.38068962097168,118.39399147033691,118.54426407814026,118.54426407814026,118.54426407814026,118.54426407814026,118.54426407814026,118.54426407814026,118.54426407814026,128.66413402557373,3,10.263858556747437,None,,,,,,,,,,,,,,,,,,105,2,2025-02-25_09h57.59.139,comp,2024.2.4,None,2025-02-25 09h58.18.240149 -0500,
2,2,0,filler_random,None,None,None,None,None,None,None,None,None,None,2,5.023730993270874,None,,,,,0,0,0,0,0,2,2,133,128.68272423744202,,,,,,,,,,,,,,,,,,,,,,,,,,,,,,,,,,,,,,,,,,,,,,,,,,,,,,,,,,,,,,,,,,,,,,,,,,,,,,,,,132.98799651251426,73.93967627645122,166.67191991740208,145.02227201793733,69.83638376139423,124.74060806126663,2.1,2.12,-205,-282,0,-273,231,271,128.66594004631042,128.66607403755188,128.66960763931274,128.68272423744202,128.82891082763672,128.82891082763672,128.82891082763672,128.82891082763672,128.82891082763672,128.82891082763672,128.82891082763672,133.71731996536255,2,5.023730993270874,None,,,,,,,,,,,,,,,,,,105,2,2025-02-25_09h57.59.139,comp,2024.2.4,None,2025-02-25 09h58.18.240149 -0500,
3,3,0,critical,whd,35.0,2.1,lower,57.0,133.0,133.0,57.0,70.0,70.0,1,22.507736682891846,None,,,,,0,0,0,0,0,3,3,12,133.7343213558197,,,,,,,,,,,,,,,,,,,,,,,,,,,,,,,,,,,,,,,,,,,,,,,,,,,,,,,,,,,,,,,,,,,,,,,,,,,,,,,,,57.0,133.0,133.0,57.0,70.0,70.0,2.1,2.12,-191,-259,0,-252,160,253,133.71906757354736,133.71921825408936,133.72314071655273,133.7343213558197,133.88265466690063,133.88265466690063,133.88265466690063,133.88265466690063,133.88265466690063,133.88265466690063,133.88265466690063,156.25538301467896,1,22.507736682891846,None,,,,,,,,,,,,,,,,,,105,2,2025-02-25_09h57.59.139,comp,2024.2.4,None,2025-02-25 09h58.18.240149 -0500,
4,4,0,critical,dwh,20.0,2.1,lower,78.0,78.0,57.0,133.0,133.0,57.0,2,35.17993521690369,None,,,,,0,0,0,0,0,4,4,30,156.26990365982056,,,,,,,,,,,,,,,,,,,,,,,,,,,,,,,,,,,,,,,,,,,,,,,,,,,,,,,,,,,,,,,,,,,,,,,,,,,,,,,,,78.0,78.0,57.0,133.0,133.0,57.0,2.1,2.12,-202,-288,0,-274,191,266,156.25674271583557,156.25678420066833,156.2591197490692,156.26990365982056,156.4233705997467,156.4233705997467,156.4233705997467,156.4233705997467,156.4233705997467,156.4233705997467,156.4233705997467,191.46825075149536,2,35.17993521690369,None,,,,,,,,,,,,,,,,,,105,2,2025-02-25_09h57.59.139,comp,2024.2.4,None,2025-02-25 09h58.18.240149 -0500,
5,5,0,critical,dhw,20.0,1.0,upper,141.0,141.0,200.0,125.0,125.0,200.0,2,74.09412264823914,None,,,,,0,0,0,0,0,5,5,55,191.48544335365295,,,,,,,,,,,,,,,,,,,,,,,,,,,,,,,,,,,,,,,,,,,,,,,,,,,,,,,,,,,,,,,,,,,,,,,,,,,,,,,,,141.0,141.0,200.0,125.0,125.0,200.0,1.0,1.2,-229,-1,0,-2,258,-1,191.46990132331848,191.469984292984,191.47339582443237,191.48544335365295,191.62155294418335,191.62155294418335,191.62155294418335,191.62155294418335,191.62155294418335,191.62155294418335,191.62155294418335,265.58702540397644,2,74.09412264823914,None,,,,,,,,,,,,,,,,,,105,2,2025-02-25_09h57.59.139,comp,2024.2.4,None,2025-02-25 09h58.18.240149 -0500,
6,6,0,filler_square,None,None,None,None,None,None,None,None,None,None,3,11.333692789077759,None,,,,,0,0,0,0,0,6,6,178,265.6041805744171,,,,,,,,,,,,,,,,,,,,,,,,,,,,,,,,,,,,,,,,,,,,,,,,,,,,,,,,,,,,,,,,,,,,,,,,,,,,,,,,,156.9169771866135,149.905893283078,115.05059752309869,81.24300740951153,163.0985707506843,163.0985707506843,3.0,3.1,-212,289,0,-7,218,-281,265.5891463756561,265.5892553329468,265.5930516719818,265.6041805744171,265.75604820251465,265.75604820251465,265.75604820251465,265.75604820251465,265.75604820251465,265.75604820251465,265.75604820251465,276.95363569259644,3,11.333692789077759,None,,,,,,,,,,,,,,,,,,105,2,2025-02-25_09h57.59.139,comp,2024.2.4,None,2025-02-25 09h58.18.240149 -0500,
7,7,0,critical,hdw,20.0,4.0,upper,200.0,125.0,141.0,141.0,125.0,200.0,3,27.693933486938477,None,,,,,0,0,0,0,0,7,7,119,276.9720799922943,,,,,,,,,,,,,,,,,,,,,,,,,,,,,,,,,,,,,,,,,,,,,,,,,,,,,,,,,,,,,,,,,,,,,,,,,,,,,,,,,200.0,125.0,141.0,141.0,125.0,200.0,4.0,4.2,-229,-3,0,-280,266,16,276.9552936553955,276.9553723335266,276.95908188819885,276.9720799922943,277.1127369403839,277.1127369403839,277.1127369403839,277.1127369403839,277.1127369403839,277.1127369403839,277.1127369403839,304.66936707496643,3,27.693933486938477,None,,,,,,,,,,,,,,,,,,105,2,2025-02-25_09h57.59.139,comp,2024.2.4,None,2025-02-25 09h58.18.240149 -0500,
8,8,0,critical,dhw,20.0,3.0,upper,141.0,141.0,200.0,125.0,125.0,200.0,3,13.413367748260498,None,,,,,0,0,0,0,0,8,8,57,304.685546875,,,,,,,,,,,,,,,,,,,,,,,,,,,,,,,,,,,,,,,,,,,,,,,,,,,,,,,,,,,,,,,,,,,,,,,,,,,,,,,,,141.0,141.0,200.0,125.0,125.0,200.0,3.0,3.2,-229,-259,0,14,258,273,304.67089438438416,304.6709794998169,304.6747691631317,304.685546875,304.83571100234985,304.83571100234985,304.83571100234985,304.83571100234985,304.83571100234985,304.83571100234985,304.83571100234985,318.10744857788086,3,13.413367748260498,None,,,,,,,,,,,,,,,,,,105,2,2025-02-25_09h57.59.139,comp,2024.2.4,None,2025-02-25 09h58.18.240149 -0500,
9,9,0,critical,dwh,20.0,4.0,lower,78.0,78.0,57.0,133.0,133.0,57.0,2,12.797209978103638,None,,,,,0,0,0,0,0,9,9,70,318.12504863739014,,,,,,,,,,,,,,,,,,,,,,,,,,,,,,,,,,,,,,,,,,,,,,,,,,,,,,,,,,,,,,,,,,,,,,,,,,,,,,,,,78.0,78.0,57.0,133.0,133.0,57.0,4.0,4.2,-202,-12,0,-270,191,4,318.10916471481323,318.10933542251587,318.11328411102295,318.12504863739014,318.2725307941437,318.2725307941437,318.2725307941437,318.2725307941437,318.2725307941437,318.2725307941437,318.2725307941437,330.92437839508057,2,12.797209978103638,None,,,,,,,,,,,,,,,,,,105,2,2025-02-25_09h57.59.139,comp,2024.2.4,None,2025-02-25 09h58.18.240149 -0500,
10,10,0,critical,whd,20.0,3.0,lower,57.0,133.0,133.0,57.0,78.0,78.0,1,11.013727903366089,None,,,,,0,0,0,0,0,10,10,92,330.9412362575531,,,,,,,,,,,,,,,,,,,,,,,,,,,,,,,,,,,,,,,,,,,,,,,,,,,,,,,,,,,,,,,,,,,,,,,,,,,,,,,,,57.0,133.0,133.0,57.0,78.0,78.0,3.0,3.2,-191,-250,0,5,164,270,330.9259023666382,330.92598700523376,330.92932295799255,330.9412362575531,331.0845527648926,331.0845527648926,331.0845527648926,331.0845527648926,331.0845527648926,331.0845527648926,331.0845527648926,341.96233654022217,1,11.013727903366089,None,,,,,,,,,,,,,,,,,,105,2,2025-02-25_09h57.59.139,comp,2024.2.4,None,2025-02-25 09h58.18.240149 -0500,
11,11,0,critical,wdh,35.0,1.0,upper,125.0,200.0,127.0,127.0,200.0,125.0,1,8.800348281860352,None,,,,,0,0,0,0,0,11,11,73,341.98572182655334,,,,,,,,,,,,,,,,,,,,,,,,,,,,,,,,,,,,,,,,,,,,,,,,,,,,,,,,,,,,,,,,,,,,,,,,,,,,,,,,,125.0,200.0,127.0,127.0,200.0,125.0,1.0,1.1,-740,283,-480,270,-258,273,341.9638829231262,341.9639644622803,341.9675495624542,341.98572182655334,342.131445646286,342.131445646286,342.131445646286,342.131445646286,342.131445646286,342.131445646286,342.131445646286,350.8016588687897,1,8.800348281860352,None,,,,,,,,,,,,,,,,,,105,2,2025-02-25_09h57.59.139,comp,2024.2.4,None,2025-02-25 09h58.18.240149 -0500,
12,12,0,filler_square,None,None,None,None,None,None,None,None,None,None,1,3.1364035606384277,None,,,,,0,0,0,0,0,12,12,179,350.8189437389374,,,,,,,,,,,,,,,,,,,,,,,,,,,,,,,,,,,,,,,,,,,,,,,,,,,,,,,,,,,,,,,,,,,,,,,,,,,,,,,,,180.99026584396847,180.99026584396847,143.004531441216,129.0879822798659,140.7601895793057,161.87731924872702,3.0,3.2,-251,-278,0,-16,241,262,350.8037600517273,350.80384349823,350.8079946041107,350.8189437389374,350.96750497817993,350.96750497817993,350.96750497817993,350.96750497817993,350.96750497817993,350.96750497817993,350.96750497817993,353.96934247016907,1,3.1364035606384277,None,,,,,,,,,,,,,,,,,,105,2,2025-02-25_09h57.59.139,comp,2024.2.4,None,2025-02-25 09h58.18.240149 -0500,
13,13,0,filler_random,None,None,None,None,None,None,None,None,None,None,3,2.8923733234405518,None,,,,,0,0,0,0,0,13,13,132,353.9818592071533,,,,,,,,,,,,,,,,,,,,,,,,,,,,,,,,,,,,,,,,,,,,,,,,,,,,,,,,,,,,,,,,,,,,,,,,,,,,,,,,,62.35645285576209,107.0904258389836,134.88987152505217,80.02540291248923,160.98389749045253,143.00646577097308,4.0,4.2,-190,4,0,-264,208,12,353.97082257270813,353.97085976600647,353.9723355770111,353.9818592071533,354.1339008808136,354.1339008808136,354.1339008808136,354.1339008808136,354.1339008808136,354.1339008808136,354.1339008808136,356.8876910209656,3,2.8923733234405518,None,,,,,,,,,,,,,,,,,,105,2,2025-02-25_09h57.59.139,comp,2024.2.4,None,2025-02-25 09h58.18.240149 -0500,
14,14,0,critical,wdh,20.0,1.0,lower,57.0,133.0,78.0,78.0,133.0,57.0,1,22.634812831878662,None,,,,,0,0,0,0,0,14,14,78,356.90409445762634,,,,,,,,,,,,,,,,,,,,,,,,,,,,,,,,,,,,,,,,,,,,,,,,,,,,,,,,,,,,,,,,,,,,,,,,,,,,,,,,,57.0,133.0,78.0,78.0,133.0,57.0,1.0,1.2,-202,-13,0,0,164,3,356.88954043388367,356.88963294029236,356.8937153816223,356.90409445762634,357.03977513313293,357.03977513313293,357.03977513313293,357.03977513313293,357.03977513313293,357.03977513313293,357.03977513313293,379.5445034503937,1,22.634812831878662,None,,,,,,,,,,,,,,,,,,105,2,2025-02-25_09h57.59.139,comp,2024.2.4,None,2025-02-25 09h58.18.240149 -0500,
15,15,0,critical,wdh,20.0,2.1,upper,125.0,200.0,141.0,141.0,200.0,125.0,1,12.881839752197266,None,,,,,0,0,0,0,0,15,15,35,379.5610418319702,,,,,,,,,,,,,,,,,,,,,,,,,,,,,,,,,,,,,,,,,,,,,,,,,,,,,,,,,,,,,,,,,,,,,,,,,,,,,,,,,125.0,200.0,141.0,141.0,200.0,125.0,2.1,2.11,-266,286,0,253,229,-275,379.54642844200134,379.5465438365936,379.54985666275024,379.5610418319702,379.7088477611542,379.7088477611542,379.7088477611542,379.7088477611542,379.7088477611542,379.7088477611542,379.7088477611542,392.445898771286,1,12.881839752197266,None,,,,,,,,,,,,,,,,,,105,2,2025-02-25_09h57.59.139,comp,2024.2.4,None,2025-02-25 09h58.18.240149 -0500,
16,16,0,filler_random,None,None,None,None,None,None,None,None,None,None,3,5.2518510818481445,None,,,,,0,0,0,0,0,16,16,165,392.4626553058624,,,,,,,,,,,,,,,,,,,,,,,,,,,,,,,,,,,,,,,,,,,,,,,,,,,,,,,,,,,,,,,,,,,,,,,,,,,,,,,,,89.35325593342752,172.67987866089243,116.55266028276142,123.50900957782271,103.44417008325254,194.1957078217794,1.0,1.1,-724,265,-480,277,-225,265,392.4476180076599,392.4476978778839,392.45180559158325,392.4626553058624,392.61214995384216,392.61214995384216,392.61214995384216,392.61214995384216,392.61214995384216,392.61214995384216,392.61214995384216,397.7197403907776,3,5.2518510818481445,None,,,,,,,,,,,,,,,,,,105,2,2025-02-25_09h57.59.139,comp,2024.2.4,None,2025-02-25 09h58.18.240149 -0500,
17,17,0,critical,hwd,20.0,2.1,upper,200.0,125.0,125.0,200.0,141.0,141.0,2,9.666888236999512,None,,,,,0,0,0,0,0,17,17,43,397.73571848869324,,,,,,,,,,,,,,,,,,,,,,,,,,,,,,,,,,,,,,,,,,,,,,,,,,,,,,,,,,,,,,,,,,,,,,,,,,,,,,,,,200.0,125.0,125.0,200.0,141.0,141.0,2.1,2.12,-258,-288,0,-265,266,286,397.72139525413513,397.72147703170776,397.72476744651794,397.73571848869324,397.88114380836487,397.88114380836487,397.88114380836487,397.88114380836487,397.88114380836487,397.88114380836487,397.88114380836487,407.4053637981415,2,9.666888236999512,None,,,,,,,,,,,,,,,,,,105,2,2025-02-25_09h57.59.139,comp,2024.2.4,None,2025-02-25 09h58.18.240149 -0500,
18,18,0,critical,dhw,35.0,4.0,upper,127.0,127.0,200.0,125.0,125.0,200.0,3,4.988240957260132,None,,,,,0,0,0,0,0,18,18,53,407.42197036743164,,,,,,,,,,,,,,,,,,,,,,,,,,,,,,,,,,,,,,,,,,,,,,,,,,,,,,,,,,,,,,,,,,,,,,,,,,,,,,,,,127.0,127.0,200.0,125.0,125.0,200.0,4.0,4.2,-222,9,0,-261,258,15,407.4069209098816,407.4070038795471,407.41032671928406,407.42197036743164,407.572473526001,407.572473526001,407.572473526001,407.572473526001,407.572473526001,407.572473526001,407.572473526001,412.42486667633057,3,4.988240957260132,None,,,,,,,,,,,,,,,,,,105,2,2025-02-25_09h57.59.139,comp,2024.2.4,None,2025-02-25 09h58.18.240149 -0500,
19,19,0,filler_square,None,None,None,None,None,None,None,None,None,None,2,4.506418943405151,None,,,,,0,0,0,0,0,19,19,200,412.4402434825897,,,,,,,,,,,,,,,,,,,,,,,,,,,,,,,,,,,,,,,,,,,,,,,,,,,,,,,,,,,,,,,,,,,,,,,,,,,,,,,,,68.24371252289062,63.37914121108524,78.35671386422936,78.35671386422936,71.51756085200427,57.95131551340595,2.1,2.11,-167,276,0,270,164,-253,412.4266097545624,412.42668628692627,412.42987155914307,412.4402434825897,412.58497762680054,412.58497762680054,412.58497762680054,412.58497762680054,412.58497762680054,412.58497762680054,412.58497762680054,416.9502890110016,2,4.506418943405151,None,,,,,,,,,,,,,,,,,,105,2,2025-02-25_09h57.59.139,comp,2024.2.4,None,2025-02-25 09h58.18.240149 -0500,
20,20,0,filler_square,None,None,None,None,None,None,None,None,None,None,1,2.01118540763855,None,,,,,0,0,0,0,0,20,20,171,416.96698665618896,,,,,,,,,,,,,,,,,,,,,,,,,,,,,,,,,,,,,,,,,,,,,,,,,,,,,,,,,,,,,,,,,,,,,,,,,,,,,,,,,182.34715582343046,182.34715582343046,158.34427217195173,71.90720199591492,179.13455850711898,89.71294931727085,2.2,2.22,-223,261,0,-282,177,-275,416.9520900249481,416.9521687030792,416.9554226398468,416.96698665618896,417.11252617836,417.11252617836,417.11252617836,417.11252617836,417.11252617836,417.11252617836,417.11252617836,418.9889826774597,1,2.01118540763855,None,,,,,,,,,,,,,,,,,,105,2,2025-02-25_09h57.59.139,comp,2024.2.4,None,2025-02-25 09h58.18.240149 -0500,
21,21,0,catch,None,None,None,None,None,None,None,None,None,None,1,2.204096794128418,None,,,,,0,0,0,0,0,21,21,127,419.0060625076294,,,,,,,,,,,,,,,,,,,,,,,,,,,,,,,,,,,,,,,,,,,,,,,,,,,,,,,,,,,,,,,,,,,,,,,,,,,,,,,,,200,125,126,64,60,130,1.0,1.2,-190,-1,0,12,193,-8,418.99110436439514,418.9912078380585,418.9944796562195,419.0060625076294,419.1542866230011,419.1542866230011,419.1542866230011,419.1542866230011,419.1542866230011,419.1542866230011,419.1542866230011,421.22347235679626,1,2.204096794128418,None,,,,,,,,,,,,,,,,,,105,2,2025-02-25_09h57.59.139,comp,2024.2.4,None,2025-02-25 09h58.18.240149 -0500,
22,22,0,filler_square,None,None,None,None,None,None,None,None,None,None,3,6.335670471191406,None,,,,,0,0,0,0,0,22,22,209,421.2427053451538,,,,,,,,,,,,,,,,,,,,,,,,,,,,,,,,,,,,,,,,,,,,,,,,,,,,,,,,,,,,,,,,,,,,,,,,,,,,,,,,,103.79368782532137,96.5772034423563,87.27564481257647,85.66569623269567,107.46721466179042,107.46721466179042,2.2,2.21,-187,-284,0,252,193,278,421.22548818588257,421.22557067871094,421.2296071052551,421.2427053451538,421.38707971572876,421.38707971572876,421.38707971572876,421.38707971572876,421.38707971572876,421.38707971572876,421.38707971572876,427.5914354324341,3,6.335670471191406,None,,,,,,,,,,,,,,,,,,105,2,2025-02-25_09h57.59.139,comp,2024.2.4,None,2025-02-25 09h58.18.240149 -0500,
23,23,0,critical,whd,20.0,4.0,lower,57.0,133.0,133.0,57.0,78.0,78.0,1,7.554763317108154,None,,,,,0,0,0,0,0,23,23,94,427.6075539588928,,,,,,,,,,,,,,,,,,,,,,,,,,,,,,,,,,,,,,,,,,,,,,,,,,,,,,,,,,,,,,,,,,,,,,,,,,,,,,,,,57.0,133.0,133.0,57.0,78.0,78.0,4.0,4.2,-191,16,0,-258,164,-17,427.59296464920044,427.593044757843,427.59652400016785,427.6075539588928,427.7578213214874,427.7578213214874,427.7578213214874,427.7578213214874,427.7578213214874,427.7578213214874,427.7578213214874,435.17692017555237,1,7.554763317108154,None,,,,,,,,,,,,,,,,,,105,2,2025-02-25_09h57.59.139,comp,2024.2.4,None,2025-02-25 09h58.18.240149 -0500,
24,24,0,critical,hwd,35.0,2.1,upper,200.0,125.0,125.0,200.0,127.0,127.0,2,8.985676050186157,None,,,,,0,0,0,0,0,24,24,41,435.19290137290955,,,,,,,,,,,,,,,,,,,,,,,,,,,,,,,,,,,,,,,,,,,,,,,,,,,,,,,,,,,,,,,,,,,,,,,,,,,,,,,,,200.0,125.0,125.0,200.0,127.0,127.0,2.1,2.11,-258,284,0,288,260,-285,435.1785855293274,435.17871046066284,435.18265891075134,435.19290137290955,435.3429868221283,435.3429868221283,435.3429868221283,435.3429868221283,435.3429868221283,435.3429868221283,435.3429868221283,444.1854135990143,2,8.985676050186157,None,,,,,,,,,,,,,,,,,,105,2,2025-02-25_09h57.59.139,comp,2024.2.4,None,2025-02-25 09h58.18.240149 -0500,
25,25,0,critical,hwd,20.0,2.1,upper,200.0,125.0,125.0,200.0,141.0,141.0,2,24.380512237548828,None,,,,,0,0,0,0,0,25,25,19,444.2060089111328,,,,,,,,,,,,,,,,,,,,,,,,,,,,,,,,,,,,,,,,,,,,,,,,,,,,,,,,,,,,,,,,,,,,,,,,,,,,,,,,,200.0,125.0,125.0,200.0,141.0,141.0,2.1,2.11,-258,279,0,268,266,-287,444.18697786331177,444.18706035614014,444.19035816192627,444.2060089111328,444.34592604637146,444.34592604637146,444.34592604637146,444.34592604637146,444.34592604637146,444.34592604637146,444.34592604637146,468.60672068595886,2,24.380512237548828,None,,,,,,,,,,,,,,,,,,105,2,2025-02-25_09h57.59.139,comp,2024.2.4,None,2025-02-25 09h58.18.240149 -0500,
26,26,0,critical,dwh,20.0,1.0,upper,141.0,141.0,125.0,200.0,200.0,125.0,2,19.13521647453308,None,,,,,0,0,0,0,0,26,26,67,468.6274530887604,,,,,,,,,,,,,,,,,,,,,,,,,,,,,,,,,,,,,,,,,,,,,,,,,,,,,,,,,,,,,,,,,,,,,,,,,,,,,,,,,141.0,141.0,125.0,200.0,200.0,125.0,1.0,1.1,-746,259,-480,288,-222,255,468.6083710193634,468.60848689079285,468.6120939254761,468.6274530887604,468.7697069644928,468.7697069644928,468.7697069644928,468.7697069644928,468.7697069644928,468.7697069644928,468.7697069644928,487.7758903503418,2,19.13521647453308,None,,,,,,,,,,,,,,,,,,105,2,2025-02-25_09h57.59.139,comp,2024.2.4,None,2025-02-25 09h58.18.240149 -0500,
27,27,0,filler_square,None,None,None,None,None,None,None,None,None,None,3,1.2670233249664307,None,,,,,0,0,0,0,0,27,27,184,487.7922372817993,,,,,,,,,,,,,,,,,,,,,,,,,,,,,,,,,,,,,,,,,,,,,,,,,,,,,,,,,,,,,,,,,,,,,,,,,,,,,,,,,57.09564740293089,57.22300502619142,123.57378824687349,97.21230889652787,158.49249608098518,158.49249608098518,2.1,2.12,-173,-278,0,-259,224,260,487.77791595458984,487.77801489830017,487.7818241119385,487.7922372817993,487.9400792121887,487.9400792121887,487.9400792121887,487.9400792121887,487.9400792121887,487.9400792121887,487.9400792121887,489.067111492157,3,1.2670233249664307,None,,,,,,,,,,,,,,,,,,105,2,2025-02-25_09h57.59.139,comp,2024.2.4,None,2025-02-25 09h58.18.240149 -0500,
28,28,0,critical,wdh,35.0,3.0,lower,57.0,133.0,70.0,70.0,133.0,57.0,1,2.5430562496185303,None,,,,,0,0,0,0,0,28,28,74,489.08320236206055,,,,,,,,,,,,,,,,,,,,,,,,,,,,,,,,,,,,,,,,,,,,,,,,,,,,,,,,,,,,,,,,,,,,,,,,,,,,,,,,,57.0,133.0,70.0,70.0,133.0,57.0,3.0,3.2,-198,-259,0,-14,160,265,489.06858944892883,489.0686676502228,489.0718412399292,489.08320236206055,489.22750449180603,489.22750449180603,489.22750449180603,489.22750449180603,489.22750449180603,489.22750449180603,489.22750449180603,491.64306592941284,1,2.5430562496185303,None,,,,,,,,,,,,,,,,,,105,2,2025-02-25_09h57.59.139,comp,2024.2.4,None,2025-02-25 09h58.18.240149 -0500,
29,29,0,critical,hwd,35.0,2.1,lower,133.0,57.0,57.0,133.0,70.0,70.0,2,5.4762654304504395,None,,,,,0,0,0,0,0,29,29,40,491.6626727581024,,,,,,,,,,,,,,,,,,,,,,,,,,,,,,,,,,,,,,,,,,,,,,,,,,,,,,,,,,,,,,,,,,,,,,,,,,,,,,,,,133.0,57.0,57.0,133.0,70.0,70.0,2.1,2.11,-191,257,0,252,198,-273,491.64463329315186,491.6447114944458,491.6481533050537,491.6626727581024,491.8102378845215,491.8102378845215,491.8102378845215,491.8102378845215,491.8102378845215,491.8102378845215,491.8102378845215,497.1466360092163,2,5.4762654304504395,None,,,,,,,,,,,,,,,,,,105,2,2025-02-25_09h57.59.139,comp,2024.2.4,None,2025-02-25 09h58.18.240149 -0500,
30,30,0,critical,whd,35.0,4.0,upper,125.0,200.0,200.0,125.0,127.0,127.0,1,9.226858377456665,None,,,,,0,0,0,0,0,30,30,89,497.167995929718,,,,,,,,,,,,,,,,,,,,,,,,,,,,,,,,,,,,,,,,,,,,,,,,,,,,,,,,,,,,,,,,,,,,,,,,,,,,,,,,,125.0,200.0,200.0,125.0,127.0,127.0,4.0,4.1,-258,-281,0,-9,222,-277,497.1482107639313,497.14833092689514,497.15177726745605,497.167995929718,497.31020641326904,497.31020641326904,497.31020641326904,497.31020641326904,497.31020641326904,497.31020641326904,497.31020641326904,506.4029915332794,1,9.226858377456665,None,,,,,,,,,,,,,,,,,,105,2,2025-02-25_09h57.59.139,comp,2024.2.4,None,2025-02-25 09h58.18.240149 -0500,
31,31,0,critical,hwd,35.0,1.0,lower,133.0,57.0,57.0,133.0,70.0,70.0,2,2.446967601776123,None,,,,,0,0,0,0,0,31,31,96,506.4195113182068,,,,,,,,,,,,,,,,,,,,,,,,,,,,,,,,,,,,,,,,,,,,,,,,,,,,,,,,,,,,,,,,,,,,,,,,,,,,,,,,,133.0,57.0,57.0,133.0,70.0,70.0,1.0,1.2,-191,16,0,6,198,10,506.4046883583069,506.4048237800598,506.4085340499878,506.4195113182068,506.5651578903198,506.5651578903198,506.5651578903198,506.5651578903198,506.5651578903198,506.5651578903198,506.5651578903198,508.88278818130493,2,2.446967601776123,None,,,,,,,,,,,,,,,,,,105,2,2025-02-25_09h57.59.139,comp,2024.2.4,None,2025-02-25 09h58.18.240149 -0500,
32,32,0,filler_random,None,None,None,None,None,None,None,None,None,None,2,8.48863697052002,None,,,,,0,0,0,0,0,32,32,154,508.90566515922546,,,,,,,,,,,,,,,,,,,,,,,,,,,,,,,,,,,,,,,,,,,,,,,,,,,,,,,,,,,,,,,,,,,,,,,,,,,,,,,,,130.61559749413536,115.12005893701556,145.52802254732887,169.28621944143558,180.18976584178702,121.50405841724343,4.0,4.2,-238,17,0,-285,241,-12,508.8853793144226,508.88549637794495,508.89037585258484,508.90566515922546,509.0488212108612,509.0488212108612,509.0488212108612,509.0488212108612,509.0488212108612,509.0488212108612,509.0488212108612,517.40660572052,2,8.48863697052002,None,,,,,,,,,,,,,,,,,,105,2,2025-02-25_09h57.59.139,comp,2024.2.4,None,2025-02-25 09h58.18.240149 -0500,
33,33,0,critical,dhw,20.0,3.0,lower,78.0,78.0,133.0,57.0,57.0,133.0,3,3.064760446548462,None,,,,,0,0,0,0,0,33,33,56,517.4278604984283,,,,,,,,,,,,,,,,,,,,,,,,,,,,,,,,,,,,,,,,,,,,,,,,,,,,,,,,,,,,,,,,,,,,,,,,,,,,,,,,,78.0,78.0,133.0,57.0,57.0,133.0,3.0,3.1,-164,259,0,-14,191,-275,517.4082617759705,517.4083456993103,517.4119598865509,517.4278604984283,517.5688774585724,517.5688774585724,517.5688774585724,517.5688774585724,517.5688774585724,517.5688774585724,517.5688774585724,520.5033795833588,3,3.064760446548462,None,,,,,,,,,,,,,,,,,,105,2,2025-02-25_09h57.59.139,comp,2024.2.4,None,2025-02-25 09h58.18.240149 -0500,
34,34,0,critical,whd,35.0,4.0,lower,57.0,133.0,133.0,57.0,70.0,70.0,1,4.626638889312744,None,,,,,0,0,0,0,0,34,34,88,520.5204298496246,,,,,,,,,,,,,,,,,,,,,,,,,,,,,,,,,,,,,,,,,,,,,,,,,,,,,,,,,,,,,,,,,,,,,,,,,,,,,,,,,57.0,133.0,133.0,57.0,70.0,70.0,4.0,4.1,-191,-265,0,-11,160,-270,520.5050101280212,520.5050919055939,520.5094578266144,520.5204298496246,520.6679666042328,520.6679666042328,520.6679666042328,520.6679666042328,520.6679666042328,520.6679666042328,520.6679666042328,525.1541731357574,1,4.626638889312744,None,,,,,,,,,,,,,,,,,,105,2,2025-02-25_09h57.59.139,comp,2024.2.4,None,2025-02-25 09h58.18.240149 -0500,
35,35,0,filler_square,None,None,None,None,None,None,None,None,None,None,2,2.015618324279785,None,,,,,0,0,0,0,0,35,35,182,525.1709349155426,,,,,,,,,,,,,,,,,,,,,,,,,,,,,,,,,,,,,,,,,,,,,,,,,,,,,,,,,,,,,,,,,,,,,,,,,,,,,,,,,77.10131227854586,72.68634008208541,98.59443445222468,98.59443445222468,58.9425730268305,57.74853037481976,1.0,1.1,-662,288,-480,285,-306,261,525.1560745239258,525.1561570167542,525.1601467132568,525.1709349155426,525.3206841945648,525.3206841945648,525.3206841945648,525.3206841945648,525.3206841945648,525.3206841945648,525.3206841945648,527.1888175010681,2,2.015618324279785,None,,,,,,,,,,,,,,,,,,105,2,2025-02-25_09h57.59.139,comp,2024.2.4,None,2025-02-25 09h58.18.240149 -0500,
36,36,0,critical,dhw,35.0,3.0,upper,127.0,127.0,200.0,125.0,125.0,200.0,3,8.88483214378357,None,,,,,0,0,0,0,0,36,36,51,527.2055215835571,,,,,,,,,,,,,,,,,,,,,,,,,,,,,,,,,,,,,,,,,,,,,,,,,,,,,,,,,,,,,,,,,,,,,,,,,,,,,,,,,127.0,127.0,200.0,125.0,125.0,200.0,3.0,3.2,-222,-268,0,14,258,274,527.1904482841492,527.1905288696289,527.1940040588379,527.2055215835571,527.3506999015808,527.3506999015808,527.3506999015808,527.3506999015808,527.3506999015808,527.3506999015808,527.3506999015808,536.1085436344147,3,8.88483214378357,None,,,,,,,,,,,,,,,,,,105,2,2025-02-25_09h57.59.139,comp,2024.2.4,None,2025-02-25 09h58.18.240149 -0500,
37,37,0,critical,whd,35.0,2.1,upper,125.0,200.0,200.0,125.0,127.0,127.0,1,16.2929790019989,None,,,,,0,0,0,0,0,37,37,37,536.1253306865692,,,,,,,,,,,,,,,,,,,,,,,,,,,,,,,,,,,,,,,,,,,,,,,,,,,,,,,,,,,,,,,,,,,,,,,,,,,,,,,,,125.0,200.0,200.0,125.0,127.0,127.0,2.1,2.12,-258,-283,0,-278,222,262,536.1101632118225,536.110274553299,536.1139225959778,536.1253306865692,536.2779288291931,536.2779288291931,536.2779288291931,536.2779288291931,536.2779288291931,536.2779288291931,536.2779288291931,552.4375801086426,1,16.2929790019989,None,,,,,,,,,,,,,,,,,,105,2,2025-02-25_09h57.59.139,comp,2024.2.4,None,2025-02-25 09h58.18.240149 -0500,
38,38,0,critical,dwh,20.0,2.1,upper,141.0,141.0,125.0,200.0,200.0,125.0,2,6.331244468688965,None,,,,,0,0,0,0,0,38,38,7,552.4551148414612,,,,,,,,,,,,,,,,,,,,,,,,,,,,,,,,,,,,,,,,,,,,,,,,,,,,,,,,,,,,,,,,,,,,,,,,,,,,,,,,,141.0,141.0,125.0,200.0,200.0,125.0,2.1,2.11,-266,274,0,253,258,-263,552.4390923976898,552.4391713142395,552.4424631595612,552.4551148414612,552.597128868103,552.597128868103,552.597128868103,552.597128868103,552.597128868103,552.597128868103,552.597128868103,558.7963442802429,2,6.331244468688965,None,,,,,,,,,,,,,,,,,,105,2,2025-02-25_09h57.59.139,comp,2024.2.4,None,2025-02-25 09h58.18.240149 -0500,
39,39,0,filler_square,None,None,None,None,None,None,None,None,None,None,2,2.2690699100494385,None,,,,,0,0,0,0,0,39,39,175,558.8133809566498,,,,,,,,,,,,,,,,,,,,,,,,,,,,,,,,,,,,,,,,,,,,,,,,,,,,,,,,,,,,,,,,,,,,,,,,,,,,,,,,,69.78795011942111,60.20329685074843,80.16099678679115,80.16099678679115,75.20368774461042,60.654509186527925,1.0,1.1,-646,267,-480,255,-314,288,558.7981815338135,558.7982952594757,558.8017570972443,558.8133809566498,558.9655044078827,558.9655044078827,558.9655044078827,558.9655044078827,558.9655044078827,558.9655044078827,558.9655044078827,561.0988433361053,2,2.2690699100494385,None,,,,,,,,,,,,,,,,,,105,2,2025-02-25_09h57.59.139,comp,2024.2.4,None,2025-02-25 09h58.18.240149 -0500,
40,40,0,critical,dwh,35.0,1.0,lower,70.0,70.0,57.0,133.0,133.0,57.0,2,5.343451738357544,None,,,,,0,0,0,0,0,40,40,60,561.1150250434875,,,,,,,,,,,,,,,,,,,,,,,,,,,,,,,,,,,,,,,,,,,,,,,,,,,,,,,,,,,,,,,,,,,,,,,,,,,,,,,,,70.0,70.0,57.0,133.0,133.0,57.0,1.0,1.3,282,-281,480,-288,671,-263,561.1006162166595,561.1007030010223,561.104526758194,561.1150250434875,561.2680640220642,561.2680640220642,561.2680640220642,561.2680640220642,561.2680640220642,561.2680640220642,561.2680640220642,566.4674162864685,2,5.343451738357544,None,,,,,,,,,,,,,,,,,,105,2,2025-02-25_09h57.59.139,comp,2024.2.4,None,2025-02-25 09h58.18.240149 -0500,
41,41,0,critical,whd,20.0,1.0,upper,125.0,200.0,200.0,125.0,141.0,141.0,2,23.27763080596924,None,,,,,0,0,0,0,0,41,41,91,566.4848098754883,,,,,,,,,,,,,,,,,,,,,,,,,,,,,,,,,,,,,,,,,,,,,,,,,,,,,,,,,,,,,,,,,,,,,,,,,,,,,,,,,125.0,200.0,200.0,125.0,141.0,141.0,1.0,1.1,-738,253,-480,266,-251,260,566.4690086841583,566.4690883159637,566.4734773635864,566.4848098754883,566.633941411972,566.633941411972,566.633941411972,566.633941411972,566.633941411972,566.633941411972,566.633941411972,589.7737448215485,2,23.27763080596924,None,,,,,,,,,,,,,,,,,,105,2,2025-02-25_09h57.59.139,comp,2024.2.4,None,2025-02-25 09h58.18.240149 -0500,
42,42,0,critical,hwd,20.0,2.1,lower,133.0,57.0,57.0,133.0,78.0,78.0,3,8.523839950561523,None,,,,,0,0,0,0,0,42,42,18,589.7908959388733,,,,,,,,,,,,,,,,,,,,,,,,,,,,,,,,,,,,,,,,,,,,,,,,,,,,,,,,,,,,,,,,,,,,,,,,,,,,,,,,,133.0,57.0,57.0,133.0,78.0,78.0,2.1,2.12,-191,-262,0,-274,202,253,589.7753908634186,589.7754712104797,589.7791256904602,589.7908959388733,589.9414014816284,589.9414014816284,589.9414014816284,589.9414014816284,589.9414014816284,589.9414014816284,589.9414014816284,598.3178012371063,3,8.523839950561523,None,,,,,,,,,,,,,,,,,,105,2,2025-02-25_09h57.59.139,comp,2024.2.4,None,2025-02-25 09h58.18.240149 -0500,
43,43,0,critical,dhw,35.0,3.0,lower,70.0,70.0,133.0,57.0,57.0,133.0,3,6.180044412612915,None,,,,,0,0,0,0,0,43,43,50,598.3343942165375,,,,,,,,,,,,,,,,,,,,,,,,,,,,,,,,,,,,,,,,,,,,,,,,,,,,,,,,,,,,,,,,,,,,,,,,,,,,,,,,,70.0,70.0,133.0,57.0,57.0,133.0,3.0,3.2,-160,-262,0,19,191,258,598.3194587230682,598.3195421695709,598.3228042125702,598.3343942165375,598.4789717197418,598.4789717197418,598.4789717197418,598.4789717197418,598.4789717197418,598.4789717197418,598.4789717197418,604.52836561203,3,6.180044412612915,None,,,,,,,,,,,,,,,,,,105,2,2025-02-25_09h57.59.139,comp,2024.2.4,None,2025-02-25 09h58.18.240149 -0500,
44,44,0,critical,dwh,35.0,4.0,upper,127.0,127.0,125.0,200.0,200.0,125.0,2,3.2903661727905273,None,,,,,0,0,0,0,0,44,44,65,604.5446019172668,,,,,,,,,,,,,,,,,,,,,,,,,,,,,,,,,,,,,,,,,,,,,,,,,,,,,,,,,,,,,,,,,,,,,,,,,,,,,,,,,127.0,127.0,125.0,200.0,200.0,125.0,4.0,4.1,-260,-257,0,8,258,-261,604.5299458503723,604.5300278663635,604.5335094928741,604.5446019172668,604.6948325634003,604.6948325634003,604.6948325634003,604.6948325634003,604.6948325634003,604.6948325634003,604.6948325634003,607.854873418808,2,3.2903661727905273,None,,,,,,,,,,,,,,,,,,105,2,2025-02-25_09h57.59.139,comp,2024.2.4,None,2025-02-25 09h58.18.240149 -0500,
45,45,0,critical,hdw,35.0,1.0,upper,200.0,125.0,127.0,127.0,125.0,200.0,3,6.7600319385528564,None,,,,,0,0,0,0,0,45,45,109,607.8749997615814,,,,,,,,,,,,,,,,,,,,,,,,,,,,,,,,,,,,,,,,,,,,,,,,,,,,,,,,,,,,,,,,,,,,,,,,,,,,,,,,,200.0,125.0,127.0,127.0,125.0,200.0,1.0,1.1,-702,270,-480,282,-220,266,607.8564312458038,607.8565075397491,607.8597614765167,607.8749997615814,608.0181815624237,608.0181815624237,608.0181815624237,608.0181815624237,608.0181815624237,608.0181815624237,608.0181815624237,614.641704082489,3,6.7600319385528564,None,,,,,,,,,,,,,,,,,,105,2,2025-02-25_09h57.59.139,comp,2024.2.4,None,2025-02-25 09h58.18.240149 -0500,
46,46,0,filler_random,None,None,None,None,None,None,None,None,None,None,1,1.3647377490997314,None,,,,,0,0,0,0,0,46,46,143,614.6617374420166,,,,,,,,,,,,,,,,,,,,,,,,,,,,,,,,,,,,,,,,,,,,,,,,,,,,,,,,,,,,,,,,,,,,,,,,,,,,,,,,,180.98047456366788,198.2055576995817,137.28060526566185,110.96738897929364,65.53914070275705,138.39866404167782,4.0,4.2,-251,-14,0,-281,221,16,614.6434562206268,614.6435377597809,614.6468257904053,614.6617374420166,614.7991752624512,614.7991752624512,614.7991752624512,614.7991752624512,614.7991752624512,614.7991752624512,614.7991752624512,616.0433073043823,1,1.3647377490997314,None,,,,,,,,,,,,,,,,,,105,2,2025-02-25_09h57.59.139,comp,2024.2.4,None,2025-02-25 09h58.18.240149 -0500,
47,47,0,critical,dwh,35.0,2.1,upper,127.0,127.0,125.0,200.0,200.0,125.0,1,12.605802297592163,None,,,,,0,0,0,0,0,47,47,29,616.0614295005798,,,,,,,,,,,,,,,,,,,,,,,,,,,,,,,,,,,,,,,,,,,,,,,,,,,,,,,,,,,,,,,,,,,,,,,,,,,,,,,,,127.0,127.0,125.0,200.0,200.0,125.0,2.1,2.11,-260,261,0,258,258,-251,616.0449104309082,616.0450139045715,616.0486779212952,616.0614295005798,616.207594871521,616.207594871521,616.207594871521,616.207594871521,616.207594871521,616.207594871521,616.207594871521,628.6705541610718,1,12.605802297592163,None,,,,,,,,,,,,,,,,,,105,2,2025-02-25_09h57.59.139,comp,2024.2.4,None,2025-02-25 09h58.18.240149 -0500,
48,48,0,critical,hdw,20.0,2.1,lower,133.0,57.0,78.0,78.0,57.0,133.0,3,2.723761558532715,None,,,,,0,0,0,0,0,48,48,46,628.6868190765381,,,,,,,,,,,,,,,,,,,,,,,,,,,,,,,,,,,,,,,,,,,,,,,,,,,,,,,,,,,,,,,,,,,,,,,,,,,,,,,,,133.0,57.0,78.0,78.0,57.0,133.0,2.1,2.12,-164,-261,0,-264,202,272,628.6721074581146,628.6722142696381,628.6760075092316,628.6868190765381,628.837705373764,628.837705373764,628.837705373764,628.837705373764,628.837705373764,628.837705373764,628.837705373764,631.4273264408112,3,2.723761558532715,None,,,,,,,,,,,,,,,,,,105,2,2025-02-25_09h57.59.139,comp,2024.2.4,None,2025-02-25 09h58.18.240149 -0500,
49,49,0,filler_square,None,None,None,None,None,None,None,None,None,None,1,8.917814493179321,None,,,,,0,0,0,0,0,49,49,183,631.4448730945587,,,,,,,,,,,,,,,,,,,,,,,,,,,,,,,,,,,,,,,,,,,,,,,,,,,,,,,,,,,,,,,,,,,,,,,,,,,,,,,,,66.02275319015214,66.02275319015214,57.34071603114088,60.47486154327935,59.7757824074386,65.3639639693438,3.0,3.2,-159,-289,0,12,159,261,631.429089307785,631.4291694164276,631.4323883056641,631.4448730945587,631.5884709358215,631.5884709358215,631.5884709358215,631.5884709358215,631.5884709358215,631.5884709358215,631.5884709358215,640.3738355636597,1,8.917814493179321,None,,,,,,,,,,,,,,,,,,105,2,2025-02-25_09h57.59.139,comp,2024.2.4,None,2025-02-25 09h58.18.240149 -0500,
50,50,0,filler_random,None,None,None,None,None,None,None,None,None,None,1,3.548492193222046,None,,,,,0,0,0,0,0,50,50,135,640.3902397155762,,,,,,,,,,,,,,,,,,,,,,,,,,,,,,,,,,,,,,,,,,,,,,,,,,,,,,,,,,,,,,,,,,,,,,,,,,,,,,,,,160.5041284183394,136.16257733172154,133.80275225498457,116.47338379356684,147.22331506485799,114.4719136305359,2.2,2.22,-222,264,0,-254,211,-262,640.3755578994751,640.3756377696991,640.3794205188751,640.3902397155762,640.5389397144318,640.5389397144318,640.5389397144318,640.5389397144318,640.5389397144318,640.5389397144318,640.5389397144318,643.9423780441284,1,3.548492193222046,None,,,,,,,,,,,,,,,,,,105,2,2025-02-25_09h57.59.139,comp,2024.2.4,None,2025-02-25 09h58.18.240149 -0500,
51,51,0,filler_square,None,None,None,None,None,None,None,None,None,None,1,1.2120139598846436,None,,,,,0,0,0,0,0,51,51,194,643.9589121341705,,,,,,,,,,,,,,,,,,,,,,,,,,,,,,,,,,,,,,,,,,,,,,,,,,,,,,,,,,,,,,,,,,,,,,,,,,,,,,,,,190.50177427450737,190.50177427450737,61.68523592382175,93.04023758372475,95.5748228262583,99.91780527342993,2.2,2.22,-238,282,0,-252,192,-258,643.944399356842,643.9445011615753,643.9481339454651,643.9589121341705,644.1072180271149,644.1072180271149,644.1072180271149,644.1072180271149,644.1072180271149,644.1072180271149,644.1072180271149,645.1763968467712,1,1.2120139598846436,None,,,,,,,,,,,,,,,,,,105,2,2025-02-25_09h57.59.139,comp,2024.2.4,None,2025-02-25 09h58.18.240149 -0500,
52,52,0,filler_random,None,None,None,None,None,None,None,None,None,None,3,1.1622340679168701,None,,,,,0,0,0,0,0,52,52,167,645.1926681995392,,,,,,,,,,,,,,,,,,,,,,,,,,,,,,,,,,,,,,,,,,,,,,,,,,,,,,,,,,,,,,,,,,,,,,,,,,,,,,,,,185.96850158918494,72.98642756989568,118.01922632326809,105.12177983220799,144.40082680939227,152.0923868561366,2.1,2.12,-185,-256,0,-288,225,264,645.1782851219177,645.1783695220947,645.1819553375244,645.1926681995392,645.3452479839325,645.3452479839325,645.3452479839325,645.3452479839325,645.3452479839325,645.3452479839325,645.3452479839325,646.3573961257935,3,1.1622340679168701,None,,,,,,,,,,,,,,,,,,105,2,2025-02-25_09h57.59.139,comp,2024.2.4,None,2025-02-25 09h58.18.240149 -0500,
53,53,0,filler_random,None,None,None,None,None,None,None,None,None,None,3,4.68456506729126,None,,,,,0,0,0,0,0,53,53,156,646.3744912147522,,,,,,,,,,,,,,,,,,,,,,,,,,,,,,,,,,,,,,,,,,,,,,,,,,,,,,,,,,,,,,,,,,,,,,,,,,,,,,,,,75.34548946618324,131.3617971309411,170.58495769735572,157.52141669275787,154.26536641863436,195.39509734129652,3.0,3.1,-240,288,0,13,272,-255,646.3591406345367,646.3592550754547,646.3626976013184,646.3744912147522,646.5285747051239,646.5285747051239,646.5285747051239,646.5285747051239,646.5285747051239,646.5285747051239,646.5285747051239,651.0611758232117,3,4.68456506729126,None,,,,,,,,,,,,,,,,,,105,2,2025-02-25_09h57.59.139,comp,2024.2.4,None,2025-02-25 09h58.18.240149 -0500,
54,54,0,filler_square,None,None,None,None,None,None,None,None,None,None,3,1.3949775695800781,None,,,,,0,0,0,0,0,54,54,170,651.0804629325867,,,,,,,,,,,,,,,,,,,,,,,,,,,,,,,,,,,,,,,,,,,,,,,,,,,,,,,,,,,,,,,,,,,,,,,,,,,,,,,,,133.78392529157833,148.3512749174015,95.29549305606639,138.3355053099874,187.70908529799996,187.70908529799996,1.0,1.1,-719,260,-480,285,-221,283,651.0630886554718,651.0631711483002,651.0667626857758,651.0804629325867,651.226377248764,651.226377248764,651.226377248764,651.226377248764,651.226377248764,651.226377248764,651.226377248764,652.4821262359619,3,1.3949775695800781,None,,,,,,,,,,,,,,,,,,105,2,2025-02-25_09h57.59.139,comp,2024.2.4,None,2025-02-25 09h58.18.240149 -0500,
55,55,0,filler_square,None,None,None,None,None,None,None,None,None,None,1,1.4471750259399414,None,,,,,0,0,0,0,0,55,55,172,652.4995009899139,,,,,,,,,,,,,,,,,,,,,,,,,,,,,,,,,,,,,,,,,,,,,,,,,,,,,,,,,,,,,,,,,,,,,,,,,,,,,,,,,126.13996224791299,126.13996224791299,81.05020379026107,96.8987447903724,62.82304660496528,69.52171284955142,3.0,3.1,-208,270,0,1,179,-271,652.4839680194855,652.484049320221,652.4881715774536,652.4995009899139,652.6449966430664,652.6449966430664,652.6449966430664,652.6449966430664,652.6449966430664,652.6449966430664,652.6449966430664,653.9609589576721,1,1.4471750259399414,None,,,,,,,,,,,,,,,,,,105,2,2025-02-25_09h57.59.139,comp,2024.2.4,None,2025-02-25 09h58.18.240149 -0500,
56,56,0,critical,hwd,35.0,4.0,lower,133.0,57.0,57.0,133.0,70.0,70.0,2,8.417405128479004,None,,,,,0,0,0,0,0,56,56,100,653.9771330356598,,,,,,,,,,,,,,,,,,,,,,,,,,,,,,,,,,,,,,,,,,,,,,,,,,,,,,,,,,,,,,,,,,,,,,,,,,,,,,,,,133.0,57.0,57.0,133.0,70.0,70.0,4.0,4.2,-191,-14,0,-277,198,-10,653.9627485275269,653.962878704071,653.9668271541595,653.9771330356598,654.1268119812012,654.1268119812012,654.1268119812012,654.1268119812012,654.1268119812012,654.1268119812012,654.1268119812012,662.3974752426147,2,8.417405128479004,None,,,,,,,,,,,,,,,,,,105,2,2025-02-25_09h57.59.139,comp,2024.2.4,None,2025-02-25 09h58.18.240149 -0500,
57,57,0,critical,hwd,20.0,3.0,upper,200.0,125.0,125.0,200.0,141.0,141.0,2,8.388395071029663,None,,,,,0,0,0,0,0,57,57,105,662.414158821106,,,,,,,,,,,,,,,,,,,,,,,,,,,,,,,,,,,,,,,,,,,,,,,,,,,,,,,,,,,,,,,,,,,,,,,,,,,,,,,,,200.0,125.0,125.0,200.0,141.0,141.0,3.0,3.1,-258,270,0,3,266,-277,662.3991057872772,662.3992338180542,662.4030373096466,662.414158821106,662.5641596317291,662.5641596317291,662.5641596317291,662.5641596317291,662.5641596317291,662.5641596317291,662.5641596317291,670.8176865577698,2,8.388395071029663,None,,,,,,,,,,,,,,,,,,105,2,2025-02-25_09h57.59.139,comp,2024.2.4,None,2025-02-25 09h58.18.240149 -0500,
58,58,0,critical,wdh,20.0,4.0,lower,57.0,133.0,78.0,78.0,133.0,57.0,1,4.128859996795654,None,,,,,0,0,0,0,0,58,58,82,670.8348624706268,,,,,,,,,,,,,,,,,,,,,,,,,,,,,,,,,,,,,,,,,,,,,,,,,,,,,,,,,,,,,,,,,,,,,,,,,,,,,,,,,57.0,133.0,78.0,78.0,133.0,57.0,4.0,4.2,-202,10,0,-286,164,-6,670.8193016052246,670.8194375038147,670.8237102031708,670.8348624706268,670.983521938324,670.983521938324,670.983521938324,670.983521938324,670.983521938324,670.983521938324,670.983521938324,674.9708480834961,1,4.128859996795654,None,,,,,,,,,,,,,,,,,,105,2,2025-02-25_09h57.59.139,comp,2024.2.4,None,2025-02-25 09h58.18.240149 -0500,
59,59,0,critical,dhw,35.0,1.0,lower,70.0,70.0,133.0,57.0,57.0,133.0,3,3.7175168991088867,None,,,,,0,0,0,0,0,59,59,48,674.9890460968018,,,,,,,,,,,,,,,,,,,,,,,,,,,,,,,,,,,,,,,,,,,,,,,,,,,,,,,,,,,,,,,,,,,,,,,,,,,,,,,,,70.0,70.0,133.0,57.0,57.0,133.0,1.0,1.2,-160,-6,0,-16,191,16,674.9725942611694,674.9726779460907,674.9759941101074,674.9890460968018,675.134480714798,675.134480714798,675.134480714798,675.134480714798,675.134480714798,675.134480714798,675.134480714798,678.7222871780396,3,3.7175168991088867,None,,,,,,,,,,,,,,,,,,105,2,2025-02-25_09h57.59.139,comp,2024.2.4,None,2025-02-25 09h58.18.240149 -0500,
60,60,0,filler_random,None,None,None,None,None,None,None,None,None,None,3,2.0002999305725098,None,,,,,0,0,0,0,0,60,60,155,678.7387673854828,,,,,,,,,,,,,,,,,,,,,,,,,,,,,,,,,,,,,,,,,,,,,,,,,,,,,,,,,,,,,,,,,,,,,,,,,,,,,,,,,142.68635551963428,91.86900523939957,138.91868629811518,107.27618807131364,182.9984736802395,175.32955620127615,1.0,1.1,-676,272,-480,253,-243,264,678.7243390083313,678.7244427204132,678.7284166812897,678.7387673854828,678.885449886322,678.885449886322,678.885449886322,678.885449886322,678.885449886322,678.885449886322,678.885449886322,680.7412950992584,3,2.0002999305725098,None,,,,,,,,,,,,,,,,,,105,2,2025-02-25_09h57.59.139,comp,2024.2.4,None,2025-02-25 09h58.18.240149 -0500,
61,61,0,critical,hdw,35.0,1.0,lower,133.0,57.0,70.0,70.0,57.0,133.0,3,20.26057004928589,None,,,,,0,0,0,0,0,61,61,108,680.7588641643524,,,,,,,,,,,,,,,,,,,,,,,,,,,,,,,,,,,,,,,,,,,,,,,,,,,,,,,,,,,,,,,,,,,,,,,,,,,,,,,,,133.0,57.0,70.0,70.0,57.0,133.0,1.0,1.1,-640,266,-480,281,-282,264,680.7430050373077,680.7431242465973,680.7471084594727,680.7588641643524,680.9033181667328,680.9033181667328,680.9033181667328,680.9033181667328,680.9033181667328,680.9033181667328,680.9033181667328,701.0283007621765,3,20.26057004928589,None,,,,,,,,,,,,,,,,,,105,2,2025-02-25_09h57.59.139,comp,2024.2.4,None,2025-02-25 09h58.18.240149 -0500,
62,62,0,filler_square,None,None,None,None,None,None,None,None,None,None,2,1.5719578266143799,None,,,,,0,0,0,0,0,62,62,177,701.0474963188171,,,,,,,,,,,,,,,,,,,,,,,,,,,,,,,,,,,,,,,,,,,,,,,,,,,,,,,,,,,,,,,,,,,,,,,,,,,,,,,,,100.78093661150967,73.35150755107134,131.1852187456903,131.1852187456903,82.65750040363788,108.3118431399837,2.1,2.12,-198,-273,0,-283,216,279,701.0303328037262,701.0304141044617,701.0341186523438,701.0474963188171,701.1985788345337,701.1985788345337,701.1985788345337,701.1985788345337,701.1985788345337,701.1985788345337,701.1985788345337,702.62850689888,2,1.5719578266143799,None,,,,,,,,,,,,,,,,,,105,2,2025-02-25_09h57.59.139,comp,2024.2.4,None,2025-02-25 09h58.18.240149 -0500,
63,63,0,catch,None,None,None,None,None,None,None,None,None,None,2,1.221916675567627,None,,,,,0,0,0,0,0,63,63,123,702.6454541683197,,,,,,,,,,,,,,,,,,,,,,,,,,,,,,,,,,,,,,,,,,,,,,,,,,,,,,,,,,,,,,,,,,,,,,,,,,,,,,,,,100,90,150,175,105,85,2.2,2.21,-228,-285,0,271,226,288,702.6307926177979,702.6308727264404,702.6347308158875,702.6454541683197,702.7937815189362,702.7937815189362,702.7937815189362,702.7937815189362,702.7937815189362,702.7937815189362,702.7937815189362,703.87517619133,2,1.221916675567627,None,,,,,,,,,,,,,,,,,,105,2,2025-02-25_09h57.59.139,comp,2024.2.4,None,2025-02-25 09h58.18.240149 -0500,
64,64,0,critical,hwd,20.0,2.1,lower,133.0,57.0,57.0,133.0,78.0,78.0,3,4.871597051620483,None,,,,,0,0,0,0,0,64,64,42,703.8917572498322,,,,,,,,,,,,,,,,,,,,,,,,,,,,,,,,,,,,,,,,,,,,,,,,,,,,,,,,,,,,,,,,,,,,,,,,,,,,,,,,,133.0,57.0,57.0,133.0,78.0,78.0,2.1,2.11,-191,254,0,257,202,-284,703.8768157958984,703.876921415329,703.8805165290833,703.8917572498322,704.0307483673096,704.0307483673096,704.0307483673096,704.0307483673096,704.0307483673096,704.0307483673096,704.0307483673096,708.7708969116211,3,4.871597051620483,None,,,,,,,,,,,,,,,,,,105,2,2025-02-25_09h57.59.139,comp,2024.2.4,None,2025-02-25 09h58.18.240149 -0500,
65,65,0,filler_random,None,None,None,None,None,None,None,None,None,None,3,4.567068338394165,None,,,,,0,0,0,0,0,65,65,146,708.7878885269165,,,,,,,,,,,,,,,,,,,,,,,,,,,,,,,,,,,,,,,,,,,,,,,,,,,,,,,,,,,,,,,,,,,,,,,,,,,,,,,,,72.88304864816855,195.26995192132267,109.88695457179158,74.59356530342357,190.1138968232643,92.11275944586302,1.0,1.3,249,-282,480,-282,659,-265,708.772805929184,708.7729461193085,708.7767205238342,708.7878885269165,708.9286663532257,708.9286663532257,708.9286663532257,708.9286663532257,708.9286663532257,708.9286663532257,708.9286663532257,713.3633315563202,3,4.567068338394165,None,,,,,,,,,,,,,,,,,,105,2,2025-02-25_09h57.59.139,comp,2024.2.4,None,2025-02-25 09h58.18.240149 -0500,
66,66,0,filler_random,None,None,None,None,None,None,None,None,None,None,1,1.5584065914154053,None,,,,,0,0,0,0,0,66,66,169,713.3805050849915,,,,,,,,,,,,,,,,,,,,,,,,,,,,,,,,,,,,,,,,,,,,,,,,,,,,,,,,,,,,,,,,,,,,,,,,,,,,,,,,,129.10799321423386,160.99695170950642,59.37942488751708,148.85951577494208,89.4509963275784,182.9473674090784,2.1,2.12,-251,-255,0,-278,262,263,713.3654677867889,713.3655521869659,713.3695960044861,713.3805050849915,713.5274620056152,713.5274620056152,713.5274620056152,713.5274620056152,713.5274620056152,713.5274620056152,713.5274620056152,714.9473156929016,1,1.5584065914154053,None,,,,,,,,,,,,,,,,,,105,2,2025-02-25_09h57.59.139,comp,2024.2.4,None,2025-02-25 09h58.18.240149 -0500,
67,67,0,filler_square,None,None,None,None,None,None,None,None,None,None,3,2.749626398086548,None,,,,,0,0,0,0,0,67,67,195,714.9649925231934,,,,,,,,,,,,,,,,,,,,,,,,,,,,,,,,,,,,,,,,,,,,,,,,,,,,,,,,,,,,,,,,,,,,,,,,,,,,,,,,,68.59117196265072,65.49511129275906,63.14037909463303,57.06452605804402,72.7846476279687,72.7846476279687,2.2,2.21,-157,-280,0,269,161,272,714.9491038322449,714.9491822719574,714.9535365104675,714.9649925231934,715.1137509346008,715.1137509346008,715.1137509346008,715.1137509346008,715.1137509346008,715.1137509346008,715.1137509346008,717.7310853004456,3,2.749626398086548,None,,,,,,,,,,,,,,,,,,105,2,2025-02-25_09h57.59.139,comp,2024.2.4,None,2025-02-25 09h58.18.240149 -0500,
68,68,0,filler_square,None,None,None,None,None,None,None,None,None,None,1,2.7836601734161377,None,,,,,0,0,0,0,0,68,68,174,717.746993303299,,,,,,,,,,,,,,,,,,,,,,,,,,,,,,,,,,,,,,,,,,,,,,,,,,,,,,,,,,,,,,,,,,,,,,,,,,,,,,,,,168.32593129441727,168.32593129441727,111.79411227827597,141.7664111190784,63.24767189051771,109.59737542611754,2.2,2.21,-251,-262,0,278,222,289,717.7329168319702,717.7329955101013,717.7367670536041,717.746993303299,717.8967111110687,717.8967111110687,717.8967111110687,717.8967111110687,717.8967111110687,717.8967111110687,717.8967111110687,720.5432608127594,1,2.7836601734161377,None,,,,,,,,,,,,,,,,,,105,2,2025-02-25_09h57.59.139,comp,2024.2.4,None,2025-02-25 09h58.18.240149 -0500,
69,69,0,filler_square,None,None,None,None,None,None,None,None,None,None,3,1.274677038192749,None,,,,,0,0,0,0,0,69,69,196,720.560067653656,,,,,,,,,,,,,,,,,,,,,,,,,,,,,,,,,,,,,,,,,,,,,,,,,,,,,,,,,,,,,,,,,,,,,,,,,,,,,,,,,135.34962147067867,189.68199575708036,92.52850470659203,143.05444682814334,195.24975216183483,195.24975216183483,2.2,2.21,-262,-285,0,258,265,253,720.5453135967255,720.5454125404358,720.5491087436676,720.560067653656,720.7004852294922,720.7004852294922,720.7004852294922,720.7004852294922,720.7004852294922,720.7004852294922,720.7004852294922,721.849289894104,3,1.274677038192749,None,,,,,,,,,,,,,,,,,,105,2,2025-02-25_09h57.59.139,comp,2024.2.4,None,2025-02-25 09h58.18.240149 -0500,
70,70,0,critical,whd,35.0,2.1,upper,125.0,200.0,200.0,125.0,127.0,127.0,1,7.2655768394470215,None,,,,,0,0,0,0,0,70,70,13,721.8654091358185,,,,,,,,,,,,,,,,,,,,,,,,,,,,,,,,,,,,,,,,,,,,,,,,,,,,,,,,,,,,,,,,,,,,,,,,,,,,,,,,,125.0,200.0,200.0,125.0,127.0,127.0,2.1,2.11,-258,264,0,286,222,-274,721.8508582115173,721.8509385585785,721.854681968689,721.8654091358185,722.0206072330475,722.0206072330475,722.0206072330475,722.0206072330475,722.0206072330475,722.0206072330475,722.0206072330475,729.1474406719208,1,7.2655768394470215,None,,,,,,,,,,,,,,,,,,105,2,2025-02-25_09h57.59.139,comp,2024.2.4,None,2025-02-25 09h58.18.240149 -0500,
71,71,0,critical,whd,20.0,3.0,upper,125.0,200.0,200.0,125.0,141.0,141.0,2,5.718622922897339,None,,,,,0,0,0,0,0,71,71,93,729.1646897792816,,,,,,,,,,,,,,,,,,,,,,,,,,,,,,,,,,,,,,,,,,,,,,,,,,,,,,,,,,,,,,,,,,,,,,,,,,,,,,,,,125.0,200.0,200.0,125.0,141.0,141.0,3.0,3.2,-258,-286,0,8,229,271,729.1490380764008,729.1491184234619,729.1523704528809,729.1646897792816,729.300279378891,729.300279378891,729.300279378891,729.300279378891,729.300279378891,729.300279378891,729.300279378891,734.88587641716,2,5.718622922897339,None,,,,,,,,,,,,,,,,,,105,2,2025-02-25_09h57.59.139,comp,2024.2.4,None,2025-02-25 09h58.18.240149 -0500,
72,72,0,critical,dwh,35.0,2.1,lower,70.0,70.0,57.0,133.0,133.0,57.0,1,7.045652866363525,None,,,,,0,0,0,0,0,72,72,4,734.9037754535675,,,,,,,,,,,,,,,,,,,,,,,,,,,,,,,,,,,,,,,,,,,,,,,,,,,,,,,,,,,,,,,,,,,,,,,,,,,,,,,,,70.0,70.0,57.0,133.0,133.0,57.0,2.1,2.11,-198,280,0,287,191,-284,734.8874342441559,734.8875122070312,734.8906877040863,734.9037754535675,735.0546295642853,735.0546295642853,735.0546295642853,735.0546295642853,735.0546295642853,735.0546295642853,735.0546295642853,741.9546546936035,1,7.045652866363525,None,,,,,,,,,,,,,,,,,,105,2,2025-02-25_09h57.59.139,comp,2024.2.4,None,2025-02-25 09h58.18.240149 -0500,
73,73,0,filler_square,None,None,None,None,None,None,None,None,None,None,2,1.3517682552337646,None,,,,,0,0,0,0,0,73,73,197,741.9713344573975,,,,,,,,,,,,,,,,,,,,,,,,,,,,,,,,,,,,,,,,,,,,,,,,,,,,,,,,,,,,,,,,,,,,,,,,,,,,,,,,,87.44699504360923,137.95981824297945,193.36301308970212,193.36301308970212,123.5186970974347,137.16124194223005,4.0,4.1,-262,-276,0,-2,261,-284,741.9564573764801,741.9565410614014,741.9599583148956,741.9713344573975,742.1216578483582,742.1216578483582,742.1216578483582,742.1216578483582,742.1216578483582,742.1216578483582,742.1216578483582,743.3285765647888,2,1.3517682552337646,None,,,,,,,,,,,,,,,,,,105,2,2025-02-25_09h57.59.139,comp,2024.2.4,None,2025-02-25 09h58.18.240149 -0500,
74,74,0,catch,None,None,None,None,None,None,None,None,None,None,2,0.9613525867462158,None,,,,,0,0,0,0,0,74,74,121,743.3457274436951,,,,,,,,,,,,,,,,,,,,,,,,,,,,,,,,,,,,,,,,,,,,,,,,,,,,,,,,,,,,,,,,,,,,,,,,,,,,,,,,,125,65,174,151,79,111,3.0,3.2,-204,-279,0,1,227,280,743.3306562900543,743.3307411670685,743.33496260643,743.3457274436951,743.4875943660736,743.4875943660736,743.4875943660736,743.4875943660736,743.4875943660736,743.4875943660736,743.4875943660736,744.3096203804016,2,0.9613525867462158,None,,,,,,,,,,,,,,,,,,105,2,2025-02-25_09h57.59.139,comp,2024.2.4,None,2025-02-25 09h58.18.240149 -0500,
75,75,0,filler_random,None,None,None,None,None,None,None,None,None,None,3,1.4425404071807861,None,,,,,0,0,0,0,0,75,75,150,744.3286294937134,,,,,,,,,,,,,,,,,,,,,,,,,,,,,,,,,,,,,,,,,,,,,,,,,,,,,,,,,,,,,,,,,,,,,,,,,,,,,,,,,198.54701146959772,58.42683580208674,195.94848218917502,79.32352226533578,183.38801823125414,116.6376966141977,2.2,2.21,-165,-253,0,286,194,258,744.3117027282715,744.3117897510529,744.3155076503754,744.3286294937134,744.4732668399811,744.4732668399811,744.4732668399811,744.4732668399811,744.4732668399811,744.4732668399811,744.4732668399811,745.7814950942993,3,1.4425404071807861,None,,,,,,,,,,,,,,,,,,105,2,2025-02-25_09h57.59.139,comp,2024.2.4,None,2025-02-25 09h58.18.240149 -0500,
76,76,0,filler_random,None,None,None,None,None,None,None,None,None,None,2,1.968611717224121,None,,,,,0,0,0,0,0,76,76,134,745.802766084671,,,,,,,,,,,,,,,,,,,,,,,,,,,,,,,,,,,,,,,,,,,,,,,,,,,,,,,,,,,,,,,,,,,,,,,,,,,,,,,,,130.83372233007725,58.367270276391054,112.61394504302562,110.11076075987253,197.74740274794712,82.30266292042063,2.2,2.22,-180,262,0,-289,192,-284,745.7832872867584,745.7834198474884,745.7869443893433,745.802766084671,745.94109416008,745.94109416008,745.94109416008,745.94109416008,745.94109416008,745.94109416008,745.94109416008,747.7756469249725,2,1.968611717224121,None,,,,,,,,,,,,,,,,,,105,2,2025-02-25_09h57.59.139,comp,2024.2.4,None,2025-02-25 09h58.18.240149 -0500,
77,77,0,critical,dhw,20.0,2.1,upper,141.0,141.0,200.0,125.0,125.0,200.0,3,2.2810583114624023,None,,,,,0,0,0,0,0,77,77,27,747.7935621738434,,,,,,,,,,,,,,,,,,,,,,,,,,,,,,,,,,,,,,,,,,,,,,,,,,,,,,,,,,,,,,,,,,,,,,,,,,,,,,,,,141.0,141.0,200.0,125.0,125.0,200.0,2.1,2.11,-229,258,0,278,258,-285,747.7775309085846,747.7776143550873,747.7810039520264,747.7935621738434,747.9437763690948,747.9437763690948,747.9437763690948,747.9437763690948,747.9437763690948,747.9437763690948,747.9437763690948,750.0855967998505,3,2.2810583114624023,None,,,,,,,,,,,,,,,,,,105,2,2025-02-25_09h57.59.139,comp,2024.2.4,None,2025-02-25 09h58.18.240149 -0500,
78,78,0,filler_random,None,None,None,None,None,None,None,None,None,None,1,10.652525424957275,None,,,,,0,0,0,0,0,78,78,136,750.1026518344879,,,,,,,,,,,,,,,,,,,,,,,,,,,,,,,,,,,,,,,,,,,,,,,,,,,,,,,,,,,,,,,,,,,,,,,,,,,,,,,,,135.0313447063393,137.06100009310535,76.7542066385137,193.84868884001057,89.67257357856093,57.703688031760954,2.2,2.22,-261,262,0,-264,222,-269,750.087589263916,750.08766746521,750.0909459590912,750.1026518344879,750.240315914154,750.240315914154,750.240315914154,750.240315914154,750.240315914154,750.240315914154,750.240315914154,760.762148141861,1,10.652525424957275,None,,,,,,,,,,,,,,,,,,105,2,2025-02-25_09h57.59.139,comp,2024.2.4,None,2025-02-25 09h58.18.240149 -0500,
79,79,0,filler_random,None,None,None,None,None,None,None,None,None,None,2,1.720371961593628,None,,,,,0,0,0,0,0,79,79,131,760.778377532959,,,,,,,,,,,,,,,,,,,,,,,,,,,,,,,,,,,,,,,,,,,,,,,,,,,,,,,,,,,,,,,,,,,,,,,,,,,,,,,,,136.905473705051,157.1652557285741,183.68502474917125,167.01775219968323,130.45689234101627,76.03572767441302,4.0,4.1,-258,-280,0,-4,218,-273,760.7638185024261,760.7638990879059,760.7676510810852,760.778377532959,760.9279339313507,760.9279339313507,760.9279339313507,760.9279339313507,760.9279339313507,760.9279339313507,760.9279339313507,762.5135235786438,2,1.720371961593628,None,,,,,,,,,,,,,,,,,,105,2,2025-02-25_09h57.59.139,comp,2024.2.4,None,2025-02-25 09h58.18.240149 -0500,
80,80,0,critical,wdh,20.0,2.1,lower,57.0,133.0,78.0,78.0,133.0,57.0,1,17.514994144439697,None,,,,,0,0,0,0,0,80,80,10,762.5301177501678,,,,,,,,,,,,,,,,,,,,,,,,,,,,,,,,,,,,,,,,,,,,,,,,,,,,,,,,,,,,,,,,,,,,,,,,,,,,,,,,,57.0,133.0,78.0,78.0,133.0,57.0,2.1,2.11,-202,251,0,257,164,-284,762.5151085853577,762.515248298645,762.5188572406769,762.5301177501678,762.674516916275,762.674516916275,762.674516916275,762.674516916275,762.674516916275,762.674516916275,762.674516916275,780.049932718277,1,17.514994144439697,None,,,,,,,,,,,,,,,,,,105,2,2025-02-25_09h57.59.139,comp,2024.2.4,None,2025-02-25 09h58.18.240149 -0500,
81,81,0,filler_square,None,None,None,None,None,None,None,None,None,None,3,1.515843152999878,None,,,,,0,0,0,0,0,81,81,185,780.0709302425385,,,,,,,,,,,,,,,,,,,,,,,,,,,,,,,,,,,,,,,,,,,,,,,,,,,,,,,,,,,,,,,,,,,,,,,,,,,,,,,,,67.44275979023358,72.72387250384222,65.82092492788944,68.5371883229967,80.94809157219518,80.94809157219518,2.2,2.21,-167,-267,0,288,171,253,780.0517830848694,780.0518610477448,780.0554473400116,780.0709302425385,780.2173407077789,780.2173407077789,780.2173407077789,780.2173407077789,780.2173407077789,780.2173407077789,780.2173407077789,781.6035532951355,3,1.515843152999878,None,,,,,,,,,,,,,,,,,,105,2,2025-02-25_09h57.59.139,comp,2024.2.4,None,2025-02-25 09h58.18.240149 -0500,
82,82,0,filler_random,None,None,None,None,None,None,None,None,None,None,1,1.7992932796478271,None,,,,,0,0,0,0,0,82,82,149,781.6199560165405,,,,,,,,,,,,,,,,,,,,,,,,,,,,,,,,,,,,,,,,,,,,,,,,,,,,,,,,,,,,,,,,,,,,,,,,,,,,,,,,,187.24895202031075,122.03654295491832,155.16904739634907,97.05580107773378,125.60580221117814,88.79239779836722,2.2,2.22,-206,272,0,-282,189,-277,781.605589389801,781.605672121048,781.6095345020294,781.6199560165405,781.7774755954742,781.7774755954742,781.7774755954742,781.7774755954742,781.7774755954742,781.7774755954742,781.7774755954742,783.4370157718658,1,1.7992932796478271,None,,,,,,,,,,,,,,,,,,105,2,2025-02-25_09h57.59.139,comp,2024.2.4,None,2025-02-25 09h58.18.240149 -0500,
83,83,0,filler_square,None,None,None,None,None,None,None,None,None,None,1,13.220904111862183,None,,,,,0,0,0,0,0,83,83,202,783.454142332077,,,,,,,,,,,,,,,,,,,,,,,,,,,,,,,,,,,,,,,,,,,,,,,,,,,,,,,,,,,,,,,,,,,,,,,,,,,,,,,,,78.10824360046125,78.10824360046125,77.2802061128928,63.55059734728597,64.10367133307193,76.35640070919902,3.0,3.2,-167,-256,0,14,166,269,783.4390230178833,783.4391150474548,783.4429302215576,783.454142332077,783.6051292419434,783.6051292419434,783.6051292419434,783.6051292419434,783.6051292419434,783.6051292419434,783.6051292419434,796.680104970932,1,13.220904111862183,None,,,,,,,,,,,,,,,,,,105,2,2025-02-25_09h57.59.139,comp,2024.2.4,None,2025-02-25 09h58.18.240149 -0500,
84,84,0,critical,dhw,35.0,2.1,lower,70.0,70.0,133.0,57.0,57.0,133.0,2,28.151515007019043,None,,,,,0,0,0,0,0,84,84,24,796.6995389461517,,,,,,,,,,,,,,,,,,,,,,,,,,,,,,,,,,,,,,,,,,,,,,,,,,,,,,,,,,,,,,,,,,,,,,,,,,,,,,,,,70.0,70.0,133.0,57.0,57.0,133.0,2.1,2.11,-160,274,0,286,191,-270,796.6817810535431,796.6818647384644,796.685154914856,796.6995389461517,796.8359389305115,796.8359389305115,796.8359389305115,796.8359389305115,796.8359389305115,796.8359389305115,796.8359389305115,824.8706519603729,2,28.151515007019043,None,,,,,,,,,,,,,,,,,,105,2,2025-02-25_09h57.59.139,comp,2024.2.4,None,2025-02-25 09h58.18.240149 -0500,
85,85,0,critical,wdh,20.0,3.0,lower,57.0,133.0,78.0,78.0,133.0,57.0,1,4.6425251960754395,None,,,,,0,0,0,0,0,85,85,80,824.888281583786,,,,,,,,,,,,,,,,,,,,,,,,,,,,,,,,,,,,,,,,,,,,,,,,,,,,,,,,,,,,,,,,,,,,,,,,,,,,,,,,,57.0,133.0,78.0,78.0,133.0,57.0,3.0,3.2,-202,-282,0,-18,164,277,824.8722550868988,824.8723361492157,824.8756029605865,824.888281583786,825.0316741466522,825.0316741466522,825.0316741466522,825.0316741466522,825.0316741466522,825.0316741466522,825.0316741466522,829.5346577167511,1,4.6425251960754395,None,,,,,,,,,,,,,,,,,,105,2,2025-02-25_09h57.59.139,comp,2024.2.4,None,2025-02-25 09h58.18.240149 -0500,
86,86,0,critical,whd,20.0,2.1,lower,57.0,133.0,133.0,57.0,78.0,78.0,1,4.547240972518921,None,,,,,0,0,0,0,0,86,86,38,829.5517842769623,,,,,,,,,,,,,,,,,,,,,,,,,,,,,,,,,,,,,,,,,,,,,,,,,,,,,,,,,,,,,,,,,,,,,,,,,,,,,,,,,57.0,133.0,133.0,57.0,78.0,78.0,2.1,2.11,-191,251,0,284,164,-276,829.5364904403687,829.5365734100342,829.5407271385193,829.5517842769623,829.7004289627075,829.7004289627075,829.7004289627075,829.7004289627075,829.7004289627075,829.7004289627075,829.7004289627075,834.1018545627594,1,4.547240972518921,None,,,,,,,,,,,,,,,,,,105,2,2025-02-25_09h57.59.139,comp,2024.2.4,None,2025-02-25 09h58.18.240149 -0500,
87,87,0,filler_random,None,None,None,None,None,None,None,None,None,None,3,12.61631464958191,None,,,,,0,0,0,0,0,87,87,166,834.1225571632385,,,,,,,,,,,,,,,,,,,,,,,,,,,,,,,,,,,,,,,,,,,,,,,,,,,,,,,,,,,,,,,,,,,,,,,,,,,,,,,,,149.4314228717138,120.61851671069985,182.15099811178874,118.75363450499773,108.92647567076307,186.58420789199917,3.0,3.1,-216,283,0,16,249,-255,834.1035981178284,834.1036784648895,834.1069431304932,834.1225571632385,834.2674763202667,834.2674763202667,834.2674763202667,834.2674763202667,834.2674763202667,834.2674763202667,834.2674763202667,846.7586860656738,3,12.61631464958191,None,,,,,,,,,,,,,,,,,,105,2,2025-02-25_09h57.59.139,comp,2024.2.4,None,2025-02-25 09h58.18.240149 -0500,
88,88,0,filler_square,None,None,None,None,None,None,None,None,None,None,3,1.5358514785766602,None,,,,,0,0,0,0,0,88,88,187,846.7796177864075,,,,,,,,,,,,,,,,,,,,,,,,,,,,,,,,,,,,,,,,,,,,,,,,,,,,,,,,,,,,,,,,,,,,,,,,,,,,,,,,,83.27633595520109,93.00480722534833,107.13658354049832,92.88503742720803,115.21647823478254,115.21647823478254,2.2,2.21,-189,-277,0,269,200,275,846.7608730792999,846.7609515190125,846.7648138999939,846.7796177864075,846.9209923744202,846.9209923744202,846.9209923744202,846.9209923744202,846.9209923744202,846.9209923744202,846.9209923744202,848.3246774673462,3,1.5358514785766602,None,,,,,,,,,,,,,,,,,,105,2,2025-02-25_09h57.59.139,comp,2024.2.4,None,2025-02-25 09h58.18.240149 -0500,
89,89,0,critical,dwh,20.0,2.1,upper,141.0,141.0,125.0,200.0,200.0,125.0,3,7.5150721073150635,None,,,,,0,0,0,0,0,89,89,31,848.3442237377167,,,,,,,,,,,,,,,,,,,,,,,,,,,,,,,,,,,,,,,,,,,,,,,,,,,,,,,,,,,,,,,,,,,,,,,,,,,,,,,,,141.0,141.0,125.0,200.0,200.0,125.0,2.1,2.12,-266,-252,0,-251,258,269,848.326384305954,848.3264648914337,848.3298270702362,848.3442237377167,848.4892106056213,848.4892106056213,848.4892106056213,848.4892106056213,848.4892106056213,848.4892106056213,848.4892106056213,855.8621411323547,3,7.5150721073150635,None,,,,,,,,,,,,,,,,,,105,2,2025-02-25_09h57.59.139,comp,2024.2.4,None,2025-02-25 09h58.18.240149 -0500,
90,90,0,critical,wdh,35.0,4.0,lower,57.0,133.0,70.0,70.0,133.0,57.0,1,2.6604957580566406,None,,,,,0,0,0,0,0,90,90,76,855.8788063526154,,,,,,,,,,,,,,,,,,,,,,,,,,,,,,,,,,,,,,,,,,,,,,,,,,,,,,,,,,,,,,,,,,,,,,,,,,,,,,,,,57.0,133.0,70.0,70.0,133.0,57.0,4.0,4.1,-198,-264,0,-11,160,-254,855.8638224601746,855.8639042377472,855.8672268390656,855.8788063526154,856.0239262580872,856.0239262580872,856.0239262580872,856.0239262580872,856.0239262580872,856.0239262580872,856.0239262580872,858.5578525066376,1,2.6604957580566406,None,,,,,,,,,,,,,,,,,,105,2,2025-02-25_09h57.59.139,comp,2024.2.4,None,2025-02-25 09h58.18.240149 -0500,
91,91,0,critical,hdw,35.0,2.1,upper,200.0,125.0,127.0,127.0,125.0,200.0,3,6.884608507156372,None,,,,,0,0,0,0,0,91,91,45,858.5741801261902,,,,,,,,,,,,,,,,,,,,,,,,,,,,,,,,,,,,,,,,,,,,,,,,,,,,,,,,,,,,,,,,,,,,,,,,,,,,,,,,,200.0,125.0,127.0,127.0,125.0,200.0,2.1,2.12,-222,-258,0,-273,260,276,858.5593726634979,858.5594499111176,858.562891960144,858.5741801261902,858.7286672592163,858.7286672592163,858.7286672592163,858.7286672592163,858.7286672592163,858.7286672592163,858.7286672592163,865.4617910385132,3,6.884608507156372,None,,,,,,,,,,,,,,,,,,105,2,2025-02-25_09h57.59.139,comp,2024.2.4,None,2025-02-25 09h58.18.240149 -0500,
92,92,0,filler_square,None,None,None,None,None,None,None,None,None,None,3,1.0039985179901123,None,,,,,0,0,0,0,0,92,92,176,865.478807926178,,,,,,,,,,,,,,,,,,,,,,,,,,,,,,,,,,,,,,,,,,,,,,,,,,,,,,,,,,,,,,,,,,,,,,,,,,,,,,,,,110.72839593585091,146.22734940370182,141.9837732575431,69.7682566047518,187.75625361481326,187.75625361481326,2.1,2.12,-204,-263,0,-259,225,283,865.4638493061066,865.4639325141907,865.4679381847382,865.478807926178,865.6314449310303,865.6314449310303,865.6314449310303,865.6314449310303,865.6314449310303,865.6314449310303,865.6314449310303,866.4967439174652,3,1.0039985179901123,None,,,,,,,,,,,,,,,,,,105,2,2025-02-25_09h57.59.139,comp,2024.2.4,None,2025-02-25 09h58.18.240149 -0500,
93,93,0,critical,hdw,20.0,2.1,upper,200.0,125.0,141.0,141.0,125.0,200.0,3,9.590982437133789,None,,,,,0,0,0,0,0,93,93,23,866.5158181190491,,,,,,,,,,,,,,,,,,,,,,,,,,,,,,,,,,,,,,,,,,,,,,,,,,,,,,,,,,,,,,,,,,,,,,,,,,,,,,,,,200.0,125.0,141.0,141.0,125.0,200.0,2.1,2.12,-229,-282,0,-253,266,265,866.4985191822052,866.4986519813538,866.5023806095123,866.5158181190491,866.6621253490448,866.6621253490448,866.6621253490448,866.6621253490448,866.6621253490448,866.6621253490448,866.6621253490448,876.1181015968323,3,9.590982437133789,None,,,,,,,,,,,,,,,,,,105,2,2025-02-25_09h57.59.139,comp,2024.2.4,None,2025-02-25 09h58.18.240149 -0500,
94,94,0,filler_square,None,None,None,None,None,None,None,None,None,None,2,5.875786781311035,None,,,,,0,0,0,0,0,94,94,181,876.13503241539,,,,,,,,,,,,,,,,,,,,,,,,,,,,,,,,,,,,,,,,,,,,,,,,,,,,,,,,,,,,,,,,,,,,,,,,,,,,,,,,,59.008162865176764,58.03088167045706,59.12136372520427,58.503960670388025,59.84152790346196,59.84152790346196,2.2,2.21,-154,-260,0,255,155,283,876.1202917098999,876.1203780174255,876.1240925788879,876.13503241539,876.284384727478,876.284384727478,876.284384727478,876.284384727478,876.284384727478,876.284384727478,876.284384727478,882.0247318744659,2,5.875786781311035,None,,,,,,,,,,,,,,,,,,105,2,2025-02-25_09h57.59.139,comp,2024.2.4,None,2025-02-25 09h58.18.240149 -0500,
95,95,0,filler_random,None,None,None,None,None,None,None,None,None,None,1,1.1627578735351562,None,,,,,0,0,0,0,0,95,95,162,882.0402326583862,,,,,,,,,,,,,,,,,,,,,,,,,,,,,,,,,,,,,,,,,,,,,,,,,,,,,,,,,,,,,,,,,,,,,,,,,,,,,,,,,191.80699851699896,189.0579493437069,78.39492736718083,147.6820523287915,68.37132441187006,192.72123570568036,1.0,1.2,-264,-5,0,13,266,-3,882.0264887809753,882.0265862941742,882.029914855957,882.0402326583862,882.182409286499,882.182409286499,882.182409286499,882.182409286499,882.182409286499,882.182409286499,882.182409286499,883.2180001735687,1,1.1627578735351562,None,,,,,,,,,,,,,,,,,,105,2,2025-02-25_09h57.59.139,comp,2024.2.4,None,2025-02-25 09h58.18.240149 -0500,
96,96,0,critical,hwd,35.0,2.1,upper,200.0,125.0,125.0,200.0,127.0,127.0,2,6.625115871429443,None,,,,,0,0,0,0,0,96,96,17,883.2342436313629,,,,,,,,,,,,,,,,,,,,,,,,,,,,,,,,,,,,,,,,,,,,,,,,,,,,,,,,,,,,,,,,,,,,,,,,,,,,,,,,,200.0,125.0,125.0,200.0,127.0,127.0,2.1,2.12,-258,-285,0,-274,260,284,883.2197794914246,883.2199170589447,883.2239093780518,883.2342436313629,883.3841214179993,883.3841214179993,883.3841214179993,883.3841214179993,883.3841214179993,883.3841214179993,883.3841214179993,889.8688669204712,2,6.625115871429443,None,,,,,,,,,,,,,,,,,,105,2,2025-02-25_09h57.59.139,comp,2024.2.4,None,2025-02-25 09h58.18.240149 -0500,
97,97,0,critical,dhw,20.0,1.0,lower,78.0,78.0,133.0,57.0,57.0,133.0,3,4.85719633102417,None,,,,,0,0,0,0,0,97,97,54,889.8901569843292,,,,,,,,,,,,,,,,,,,,,,,,,,,,,,,,,,,,,,,,,,,,,,,,,,,,,,,,,,,,,,,,,,,,,,,,,,,,,,,,,78.0,78.0,133.0,57.0,57.0,133.0,1.0,1.3,316,-278,480,-280,671,-259,889.8705492019653,889.8706364631653,889.8743612766266,889.8901569843292,890.0361092090607,890.0361092090607,890.0361092090607,890.0361092090607,890.0361092090607,890.0361092090607,890.0361092090607,894.7543566226959,3,4.85719633102417,None,,,,,,,,,,,,,,,,,,105,2,2025-02-25_09h57.59.139,comp,2024.2.4,None,2025-02-25 09h58.18.240149 -0500,
98,98,0,critical,hdw,35.0,4.0,lower,133.0,57.0,70.0,70.0,57.0,133.0,3,5.356241226196289,None,,,,,0,0,0,0,0,98,98,112,894.7756428718567,,,,,,,,,,,,,,,,,,,,,,,,,,,,,,,,,,,,,,,,,,,,,,,,,,,,,,,,,,,,,,,,,,,,,,,,,,,,,,,,,133.0,57.0,70.0,70.0,57.0,133.0,4.0,4.1,-160,-255,0,6,198,-259,894.7559673786163,894.7560977935791,894.7597661018372,894.7756428718567,894.9203498363495,894.9203498363495,894.9203498363495,894.9203498363495,894.9203498363495,894.9203498363495,894.9203498363495,900.1420676708221,3,5.356241226196289,None,,,,,,,,,,,,,,,,,,105,2,2025-02-25_09h57.59.139,comp,2024.2.4,None,2025-02-25 09h58.18.240149 -0500,
99,99,0,filler_random,None,None,None,None,None,None,None,None,None,None,2,1.7090532779693604,None,,,,,0,0,0,0,0,99,99,164,900.1586456298828,,,,,,,,,,,,,,,,,,,,,,,,,,,,,,,,,,,,,,,,,,,,,,,,,,,,,,,,,,,,,,,,,,,,,,,,,,,,,,,,,105.91158094889404,67.91184942378142,106.66073789219465,144.45013907406332,131.07064828616416,87.28518935629877,3.0,3.1,-202,266,0,8,212,-254,900.1438972949982,900.1439781188965,900.14781665802,900.1586456298828,900.3115940093994,900.3115940093994,900.3115940093994,900.3115940093994,900.3115940093994,900.3115940093994,900.3115940093994,901.8728258609772,2,1.7090532779693604,None,,,,,,,,,,,,,,,,,,105,2,2025-02-25_09h57.59.139,comp,2024.2.4,None,2025-02-25 09h58.18.240149 -0500,
100,100,0,critical,wdh,20.0,1.0,upper,125.0,200.0,141.0,141.0,200.0,125.0,3,8.23330283164978,None,,,,,0,0,0,0,0,100,100,79,901.8896210193634,,,,,,,,,,,,,,,,,,,,,,,,,,,,,,,,,,,,,,,,,,,,,,,,,,,,,,,,,,,,,,,,,,,,,,,,,,,,,,,,,125.0,200.0,141.0,141.0,200.0,125.0,1.0,1.1,-746,279,-480,266,-251,275,901.8743996620178,901.8744778633118,901.8788352012634,901.8896210193634,902.0395412445068,902.0395412445068,902.0395412445068,902.0395412445068,902.0395412445068,902.0395412445068,902.0395412445068,910.1418278217316,3,8.23330283164978,None,,,,,,,,,,,,,,,,,,105,2,2025-02-25_09h57.59.139,comp,2024.2.4,None,2025-02-25 09h58.18.240149 -0500,
101,101,0,critical,whd,20.0,2.1,upper,125.0,200.0,200.0,125.0,141.0,141.0,1,5.042731046676636,None,,,,,0,0,0,0,0,101,101,15,910.1608316898346,,,,,,,,,,,,,,,,,,,,,,,,,,,,,,,,,,,,,,,,,,,,,,,,,,,,,,,,,,,,,,,,,,,,,,,,,,,,,,,,,125.0,200.0,200.0,125.0,141.0,141.0,2.1,2.12,-258,-271,0,-283,229,279,910.1434419155121,910.143520116806,910.1473774909973,910.1608316898346,910.3106098175049,910.3106098175049,910.3106098175049,910.3106098175049,910.3106098175049,910.3106098175049,910.3106098175049,915.2083117961884,1,5.042731046676636,None,,,,,,,,,,,,,,,,,,105,2,2025-02-25_09h57.59.139,comp,2024.2.4,None,2025-02-25 09h58.18.240149 -0500,
102,102,0,critical,hdw,35.0,3.0,upper,200.0,125.0,127.0,127.0,125.0,200.0,3,1.8499984741210938,None,,,,,0,0,0,0,0,102,102,111,915.225019454956,,,,,,,,,,,,,,,,,,,,,,,,,,,,,,,,,,,,,,,,,,,,,,,,,,,,,,,,,,,,,,,,,,,,,,,,,,,,,,,,,200.0,125.0,127.0,127.0,125.0,200.0,3.0,3.2,-222,-289,0,14,260,282,915.2098941802979,915.209974527359,915.213413476944,915.225019454956,915.3728387355804,915.3728387355804,915.3728387355804,915.3728387355804,915.3728387355804,915.3728387355804,915.3728387355804,917.0934941768646,3,1.8499984741210938,None,,,,,,,,,,,,,,,,,,105,2,2025-02-25_09h57.59.139,comp,2024.2.4,None,2025-02-25 09h58.18.240149 -0500,
103,103,0,critical,wdh,20.0,2.1,upper,125.0,200.0,141.0,141.0,200.0,125.0,1,3.201551914215088,None,,,,,0,0,0,0,0,103,103,11,917.1134781837463,,,,,,,,,,,,,,,,,,,,,,,,,,,,,,,,,,,,,,,,,,,,,,,,,,,,,,,,,,,,,,,,,,,,,,,,,,,,,,,,,125.0,200.0,141.0,141.0,200.0,125.0,2.1,2.12,-266,-279,0,-280,229,272,917.0950577259064,917.095136642456,917.0985727310181,917.1134781837463,917.2612748146057,917.2612748146057,917.2612748146057,917.2612748146057,917.2612748146057,917.2612748146057,917.2612748146057,920.3266308307648,1,3.201551914215088,None,,,,,,,,,,,,,,,,,,105,2,2025-02-25_09h57.59.139,comp,2024.2.4,None,2025-02-25 09h58.18.240149 -0500,
104,104,0,critical,hdw,20.0,2.1,upper,200.0,125.0,141.0,141.0,125.0,200.0,3,2.5490002632141113,None,,,,,0,0,0,0,0,104,104,47,920.3425552845001,,,,,,,,,,,,,,,,,,,,,,,,,,,,,,,,,,,,,,,,,,,,,,,,,,,,,,,,,,,,,,,,,,,,,,,,,,,,,,,,,200.0,125.0,141.0,141.0,125.0,200.0,2.1,2.12,-229,-288,0,-270,266,251,920.328159570694,920.3282716274261,920.3318276405334,920.3425552845001,920.5010738372803,920.5010738372803,920.5010738372803,920.5010738372803,920.5010738372803,920.5010738372803,920.5010738372803,922.8959436416626,3,2.5490002632141113,None,,,,,,,,,,,,,,,,,,105,2,2025-02-25_09h57.59.139,comp,2024.2.4,None,2025-02-25 09h58.18.240149 -0500,
105,105,0,critical,hwd,35.0,1.0,upper,200.0,125.0,125.0,200.0,127.0,127.0,2,8.787142753601074,None,,,,,0,0,0,0,0,105,105,97,922.9125893115997,,,,,,,,,,,,,,,,,,,,,,,,,,,,,,,,,,,,,,,,,,,,,,,,,,,,,,,,,,,,,,,,,,,,,,,,,,,,,,,,,200.0,125.0,125.0,200.0,127.0,127.0,1.0,1.3,222,-271,480,-269,740,-278,922.8974061012268,922.8974843025208,922.9017946720123,922.9125893115997,923.060964345932,923.060964345932,923.060964345932,923.060964345932,923.060964345932,923.060964345932,923.060964345932,931.7078011035919,2,8.787142753601074,None,,,,,,,,,,,,,,,,,,105,2,2025-02-25_09h57.59.139,comp,2024.2.4,None,2025-02-25 09h58.18.240149 -0500,
106,106,0,critical,hdw,20.0,3.0,upper,200.0,125.0,141.0,141.0,125.0,200.0,3,1.7490174770355225,None,,,,,0,0,0,0,0,106,106,117,931.7283470630646,,,,,,,,,,,,,,,,,,,,,,,,,,,,,,,,,,,,,,,,,,,,,,,,,,,,,,,,,,,,,,,,,,,,,,,,,,,,,,,,,200.0,125.0,141.0,141.0,125.0,200.0,3.0,3.2,-229,-283,0,-9,266,257,931.709356546402,931.7094397544861,931.7126615047455,931.7283470630646,931.8655505180359,931.8655505180359,931.8655505180359,931.8655505180359,931.8655505180359,931.8655505180359,931.8655505180359,933.4886608123779,3,1.7490174770355225,None,,,,,,,,,,,,,,,,,,105,2,2025-02-25_09h57.59.139,comp,2024.2.4,None,2025-02-25 09h58.18.240149 -0500,
107,107,0,critical,dwh,35.0,1.0,upper,127.0,127.0,125.0,200.0,200.0,125.0,2,4.187214136123657,None,,,,,0,0,0,0,0,107,107,61,933.5045521259308,,,,,,,,,,,,,,,,,,,,,,,,,,,,,,,,,,,,,,,,,,,,,,,,,,,,,,,,,,,,,,,,,,,,,,,,,,,,,,,,,127.0,127.0,125.0,200.0,200.0,125.0,1.0,1.3,220,-259,480,-275,738,-276,933.4902420043945,933.4903740882874,933.4938199520111,933.5045521259308,933.6495537757874,933.6495537757874,933.6495537757874,933.6495537757874,933.6495537757874,933.6495537757874,933.6495537757874,937.7006011009216,2,4.187214136123657,None,,,,,,,,,,,,,,,,,,105,2,2025-02-25_09h57.59.139,comp,2024.2.4,None,2025-02-25 09h58.18.240149 -0500,
108,108,0,filler_square,None,None,None,None,None,None,None,None,None,None,1,1.1500513553619385,None,,,,,0,0,0,0,0,108,108,189,937.717214345932,,,,,,,,,,,,,,,,,,,,,,,,,,,,,,,,,,,,,,,,,,,,,,,,,,,,,,,,,,,,,,,,,,,,,,,,,,,,,,,,,145.9793244921297,145.9793244921297,73.58405940188521,64.4341712185425,80.11379795617738,63.31202952988514,2.1,2.12,-201,-275,0,-273,160,262,937.7025761604309,937.7026610374451,937.7064609527588,937.717214345932,937.8698251247406,937.8698251247406,937.8698251247406,937.8698251247406,937.8698251247406,937.8698251247406,937.8698251247406,938.8830618858337,1,1.1500513553619385,None,,,,,,,,,,,,,,,,,,105,2,2025-02-25_09h57.59.139,comp,2024.2.4,None,2025-02-25 09h58.18.240149 -0500,
109,109,0,filler_random,None,None,None,None,None,None,None,None,None,None,2,2.496004819869995,None,,,,,0,0,0,0,0,109,109,145,938.8997449874878,,,,,,,,,,,,,,,,,,,,,,,,,,,,,,,,,,,,,,,,,,,,,,,,,,,,,,,,,,,,,,,,,,,,,,,,,,,,,,,,,97.72923467008829,93.4760861598013,104.04076095683129,166.48122485301266,146.40244956425812,117.04338030522939,2.1,2.11,-226,255,0,266,238,-278,938.884788274765,938.8848617076874,938.8884253501892,938.8997449874878,939.0531401634216,939.0531401634216,939.0531401634216,939.0531401634216,939.0531401634216,939.0531401634216,939.0531401634216,941.3999588489532,2,2.496004819869995,None,,,,,,,,,,,,,,,,,,105,2,2025-02-25_09h57.59.139,comp,2024.2.4,None,2025-02-25 09h58.18.240149 -0500,
110,110,0,critical,dwh,20.0,3.0,lower,78.0,78.0,57.0,133.0,133.0,57.0,2,5.186532020568848,None,,,,,0,0,0,0,0,110,110,68,941.4163663387299,,,,,,,,,,,,,,,,,,,,,,,,,,,,,,,,,,,,,,,,,,,,,,,,,,,,,,,,,,,,,,,,,,,,,,,,,,,,,,,,,78.0,78.0,57.0,133.0,133.0,57.0,3.0,3.1,-202,271,0,5,191,-278,941.4014713764191,941.4015481472015,941.4049904346466,941.4163663387299,941.565092086792,941.565092086792,941.565092086792,941.565092086792,941.565092086792,941.565092086792,941.565092086792,946.6186335086823,2,5.186532020568848,None,,,,,,,,,,,,,,,,,,105,2,2025-02-25_09h57.59.139,comp,2024.2.4,None,2025-02-25 09h58.18.240149 -0500,
111,111,0,critical,whd,20.0,4.0,upper,125.0,200.0,200.0,125.0,141.0,141.0,1,4.823815822601318,None,,,,,0,0,0,0,0,111,111,95,946.6351206302643,,,,,,,,,,,,,,,,,,,,,,,,,,,,,,,,,,,,,,,,,,,,,,,,,,,,,,,,,,,,,,,,,,,,,,,,,,,,,,,,,125.0,200.0,200.0,125.0,141.0,141.0,4.0,4.2,-258,-17,0,-279,229,19,946.620167016983,946.6202688217163,946.623747587204,946.6351206302643,946.7753677368164,946.7753677368164,946.7753677368164,946.7753677368164,946.7753677368164,946.7753677368164,946.7753677368164,951.4690048694611,1,4.823815822601318,None,,,,,,,,,,,,,,,,,,105,2,2025-02-25_09h57.59.139,comp,2024.2.4,None,2025-02-25 09h58.18.240149 -0500,
112,112,0,filler_random,None,None,None,None,None,None,None,None,None,None,1,1.1585979461669922,None,,,,,0,0,0,0,0,112,112,137,951.4847803115845,,,,,,,,,,,,,,,,,,,,,,,,,,,,,,,,,,,,,,,,,,,,,,,,,,,,,,,,,,,,,,,,,,,,,,,,,,,,,,,,,142.6343229860003,186.44591891074003,108.22081952175125,146.4978904537357,194.26412921608753,68.703937736444,3.0,3.1,-262,252,0,-10,204,-255,951.4707677364349,951.470846414566,951.4741060733795,951.4847803115845,951.6219234466553,951.6219234466553,951.6219234466553,951.6219234466553,951.6219234466553,951.6219234466553,951.6219234466553,952.6567652225494,1,1.1585979461669922,None,,,,,,,,,,,,,,,,,,105,2,2025-02-25_09h57.59.139,comp,2024.2.4,None,2025-02-25 09h58.18.240149 -0500,
113,113,0,filler_square,None,None,None,None,None,None,None,None,None,None,1,3.2671313285827637,None,,,,,0,0,0,0,0,113,113,193,952.6725623607635,,,,,,,,,,,,,,,,,,,,,,,,,,,,,,,,,,,,,,,,,,,,,,,,,,,,,,,,,,,,,,,,,,,,,,,,,,,,,,,,,68.99830916590406,68.99830916590406,67.87658091349172,59.60859538715653,62.692062073410156,64.2744539230364,2.1,2.12,-160,-264,0,-266,158,251,952.6587226390839,952.6588089466095,952.6623466014862,952.6725623607635,952.8198647499084,952.8198647499084,952.8198647499084,952.8198647499084,952.8198647499084,952.8198647499084,952.8198647499084,955.9455516338348,1,3.2671313285827637,None,,,,,,,,,,,,,,,,,,105,2,2025-02-25_09h57.59.139,comp,2024.2.4,None,2025-02-25 09h58.18.240149 -0500,
114,114,0,filler_square,None,None,None,None,None,None,None,None,None,None,1,0.8972823619842529,None,,,,,0,0,0,0,0,114,114,192,955.961719751358,,,,,,,,,,,,,,,,,,,,,,,,,,,,,,,,,,,,,,,,,,,,,,,,,,,,,,,,,,,,,,,,,,,,,,,,,,,,,,,,,155.6871012802858,155.6871012802858,59.15848850285427,126.76094824285674,117.77645704396059,59.03330473392488,2.2,2.22,-237,280,0,-259,189,-262,955.947422504425,955.9475016593933,955.9507539272308,955.961719751358,956.1069798469543,956.1069798469543,956.1069798469543,956.1069798469543,956.1069798469543,956.1069798469543,956.1069798469543,956.881135225296,1,0.8972823619842529,None,,,,,,,,,,,,,,,,,,105,2,2025-02-25_09h57.59.139,comp,2024.2.4,None,2025-02-25 09h58.18.240149 -0500,
115,115,0,critical,wdh,35.0,3.0,upper,125.0,200.0,127.0,127.0,200.0,125.0,1,1.9266347885131836,None,,,,,0,0,0,0,0,115,115,75,956.9003298282623,,,,,,,,,,,,,,,,,,,,,,,,,,,,,,,,,,,,,,,,,,,,,,,,,,,,,,,,,,,,,,,,,,,,,,,,,,,,,,,,,125.0,200.0,127.0,127.0,200.0,125.0,3.0,3.1,-260,278,0,17,222,-275,956.8827164173126,956.8827946186066,956.886029958725,956.9003298282623,957.0402715206146,957.0402715206146,957.0402715206146,957.0402715206146,957.0402715206146,957.0402715206146,957.0402715206146,958.8398241996765,1,1.9266347885131836,None,,,,,,,,,,,,,,,,,,105,2,2025-02-25_09h57.59.139,comp,2024.2.4,None,2025-02-25 09h58.18.240149 -0500,
116,116,0,critical,hwd,20.0,4.0,lower,133.0,57.0,57.0,133.0,78.0,78.0,2,3.3856685161590576,None,,,,,0,0,0,0,0,116,116,106,958.8581619262695,,,,,,,,,,,,,,,,,,,,,,,,,,,,,,,,,,,,,,,,,,,,,,,,,,,,,,,,,,,,,,,,,,,,,,,,,,,,,,,,,133.0,57.0,57.0,133.0,78.0,78.0,4.0,4.1,-191,-280,0,-5,202,-277,958.8413944244385,958.8414740562439,958.844916343689,958.8581619262695,959.0114312171936,959.0114312171936,959.0114312171936,959.0114312171936,959.0114312171936,959.0114312171936,959.0114312171936,962.2515041828156,2,3.3856685161590576,None,,,,,,,,,,,,,,,,,,105,2,2025-02-25_09h57.59.139,comp,2024.2.4,None,2025-02-25 09h58.18.240149 -0500,
117,117,0,filler_square,None,None,None,None,None,None,None,None,None,None,1,1.094571828842163,None,,,,,0,0,0,0,0,117,117,205,962.2684381008148,,,,,,,,,,,,,,,,,,,,,,,,,,,,,,,,,,,,,,,,,,,,,,,,,,,,,,,,,,,,,,,,,,,,,,,,,,,,,,,,,128.79260901537384,128.79260901537384,97.74586891735214,57.84208826749034,74.67095907890705,113.15257051169576,2.1,2.11,-189,255,0,278,181,-251,962.2532732486725,962.2533514499664,962.2567474842072,962.2684381008148,962.4079306125641,962.4079306125641,962.4079306125641,962.4079306125641,962.4079306125641,962.4079306125641,962.4079306125641,963.3739995956421,1,1.094571828842163,None,,,,,,,,,,,,,,,,,,105,2,2025-02-25_09h57.59.139,comp,2024.2.4,None,2025-02-25 09h58.18.240149 -0500,
118,118,0,critical,wdh,35.0,1.0,lower,57.0,133.0,70.0,70.0,133.0,57.0,1,3.5365219116210938,None,,,,,0,0,0,0,0,118,118,72,963.3947472572327,,,,,,,,,,,,,,,,,,,,,,,,,,,,,,,,,,,,,,,,,,,,,,,,,,,,,,,,,,,,,,,,,,,,,,,,,,,,,,,,,57.0,133.0,70.0,70.0,133.0,57.0,1.0,1.2,-198,6,0,15,160,18,963.3755712509155,963.375650882721,963.3791785240173,963.3947472572327,963.5420031547546,963.5420031547546,963.5420031547546,963.5420031547546,963.5420031547546,963.5420031547546,963.5420031547546,966.9453039169312,1,3.5365219116210938,None,,,,,,,,,,,,,,,,,,105,2,2025-02-25_09h57.59.139,comp,2024.2.4,None,2025-02-25 09h58.18.240149 -0500,
119,119,0,critical,dhw,35.0,2.1,upper,127.0,127.0,200.0,125.0,125.0,200.0,3,3.026581287384033,None,,,,,0,0,0,0,0,119,119,25,966.9616627693176,,,,,,,,,,,,,,,,,,,,,,,,,,,,,,,,,,,,,,,,,,,,,,,,,,,,,,,,,,,,,,,,,,,,,,,,,,,,,,,,,127.0,127.0,200.0,125.0,125.0,200.0,2.1,2.11,-222,264,0,266,258,-280,966.9471483230591,966.9473159313202,966.9513227939606,966.9616627693176,967.1100380420685,967.1100380420685,967.1100380420685,967.1100380420685,967.1100380420685,967.1100380420685,967.1100380420685,969.9941773414612,3,3.026581287384033,None,,,,,,,,,,,,,,,,,,105,2,2025-02-25_09h57.59.139,comp,2024.2.4,None,2025-02-25 09h58.18.240149 -0500,
120,120,0,filler_random,None,None,None,None,None,None,None,None,None,None,3,4.176884174346924,None,,,,,0,0,0,0,0,120,120,168,970.0100772380829,,,,,,,,,,,,,,,,,,,,,,,,,,,,,,,,,,,,,,,,,,,,,,,,,,,,,,,,,,,,,,,,,,,,,,,,,,,,,,,,,90.45884005818434,173.16153329064036,129.8142617375113,98.73947831599256,99.51137063608617,189.48101415738915,1.0,1.1,-712,272,-480,256,-240,262,969.9959530830383,969.9960322380066,969.9997851848602,970.0100772380829,970.1611025333405,970.1611025333405,970.1611025333405,970.1611025333405,970.1611025333405,970.1611025333405,970.1611025333405,974.1993451118469,3,4.176884174346924,None,,,,,,,,,,,,,,,,,,105,2,2025-02-25_09h57.59.139,comp,2024.2.4,None,2025-02-25 09h58.18.240149 -0500,
121,121,0,critical,hdw,20.0,1.0,upper,200.0,125.0,141.0,141.0,125.0,200.0,3,10.485890626907349,None,,,,,0,0,0,0,0,121,121,115,974.2133986949921,,,,,,,,,,,,,,,,,,,,,,,,,,,,,,,,,,,,,,,,,,,,,,,,,,,,,,,,,,,,,,,,,,,,,,,,,,,,,,,,,200.0,125.0,141.0,141.0,125.0,200.0,1.0,1.2,-229,-3,0,14,266,-2,974.200856924057,974.2009325027466,974.2042546272278,974.2133986949921,974.3614463806152,974.3614463806152,974.3614463806152,974.3614463806152,974.3614463806152,974.3614463806152,974.3614463806152,984.7173964977264,3,10.485890626907349,None,,,,,,,,,,,,,,,,,,105,2,2025-02-25_09h57.59.139,comp,2024.2.4,None,2025-02-25 09h58.18.240149 -0500,
122,122,0,critical,dwh,35.0,2.1,upper,127.0,127.0,125.0,200.0,200.0,125.0,2,1.6857819557189941,None,,,,,0,0,0,0,0,122,122,5,984.7332909107208,,,,,,,,,,,,,,,,,,,,,,,,,,,,,,,,,,,,,,,,,,,,,,,,,,,,,,,,,,,,,,,,,,,,,,,,,,,,,,,,,127.0,127.0,125.0,200.0,200.0,125.0,2.1,2.11,-260,287,0,267,258,-283,984.7190771102905,984.7191636562347,984.7229223251343,984.7332909107208,984.8821530342102,984.8821530342102,984.8821530342102,984.8821530342102,984.8821530342102,984.8821530342102,984.8821530342102,986.4406769275665,2,1.6857819557189941,None,,,,,,,,,,,,,,,,,,105,2,2025-02-25_09h57.59.139,comp,2024.2.4,None,2025-02-25 09h58.18.240149 -0500,
123,123,0,critical,hdw,35.0,2.1,upper,200.0,125.0,127.0,127.0,125.0,200.0,3,1.8568179607391357,None,,,,,0,0,0,0,0,123,123,21,986.4582414627075,,,,,,,,,,,,,,,,,,,,,,,,,,,,,,,,,,,,,,,,,,,,,,,,,,,,,,,,,,,,,,,,,,,,,,,,,,,,,,,,,200.0,125.0,127.0,127.0,125.0,200.0,2.1,2.11,-222,259,0,282,260,-265,986.4421591758728,986.4422616958618,986.4455177783966,986.4582414627075,986.598504781723,986.598504781723,986.598504781723,986.598504781723,986.598504781723,986.598504781723,986.598504781723,988.3173491954803,3,1.8568179607391357,None,,,,,,,,,,,,,,,,,,105,2,2025-02-25_09h57.59.139,comp,2024.2.4,None,2025-02-25 09h58.18.240149 -0500,
124,124,0,critical,whd,35.0,3.0,upper,125.0,200.0,200.0,125.0,127.0,127.0,1,3.2130849361419678,None,,,,,0,0,0,0,0,124,124,87,988.3340923786163,,,,,,,,,,,,,,,,,,,,,,,,,,,,,,,,,,,,,,,,,,,,,,,,,,,,,,,,,,,,,,,,,,,,,,,,,,,,,,,,,125.0,200.0,200.0,125.0,127.0,127.0,3.0,3.1,-258,276,0,-20,222,-252,988.31906914711,988.3192205429077,988.3231821060181,988.3340923786163,988.4854371547699,988.4854371547699,988.4854371547699,988.4854371547699,988.4854371547699,988.4854371547699,988.4854371547699,991.5502882003784,1,3.2130849361419678,None,,,,,,,,,,,,,,,,,,105,2,2025-02-25_09h57.59.139,comp,2024.2.4,None,2025-02-25 09h58.18.240149 -0500,
125,125,0,critical,dwh,20.0,1.0,lower,78.0,78.0,57.0,133.0,133.0,57.0,1,5.778513669967651,None,,,,,0,0,0,0,0,125,125,66,991.5689311027527,,,,,,,,,,,,,,,,,,,,,,,,,,,,,,,,,,,,,,,,,,,,,,,,,,,,,,,,,,,,,,,,,,,,,,,,,,,,,,,,,78.0,78.0,57.0,133.0,133.0,57.0,1.0,1.1,-682,285,-480,284,-289,254,991.5519032478333,991.5519952774048,991.5557181835175,991.5689311027527,991.7166290283203,991.7166290283203,991.7166290283203,991.7166290283203,991.7166290283203,991.7166290283203,991.7166290283203,997.3515813350677,1,5.778513669967651,None,,,,,,,,,,,,,,,,,,105,2,2025-02-25_09h57.59.139,comp,2024.2.4,None,2025-02-25 09h58.18.240149 -0500,
126,126,0,critical,hdw,35.0,2.1,lower,133.0,57.0,70.0,70.0,57.0,133.0,2,6.674958229064941,None,,,,,0,0,0,0,0,126,126,44,997.3682959079742,,,,,,,,,,,,,,,,,,,,,,,,,,,,,,,,,,,,,,,,,,,,,,,,,,,,,,,,,,,,,,,,,,,,,,,,,,,,,,,,,133.0,57.0,70.0,70.0,57.0,133.0,2.1,2.12,-160,-279,0,-270,198,263,997.3531203269958,997.3532173633575,997.3566672801971,997.3682959079742,997.5179579257965,997.5179579257965,997.5179579257965,997.5179579257965,997.5179579257965,997.5179579257965,997.5179579257965,1004.0534136295319,2,6.674958229064941,None,,,,,,,,,,,,,,,,,,105,2,2025-02-25_09h57.59.139,comp,2024.2.4,None,2025-02-25 09h58.18.240149 -0500,
127,127,0,filler_random,None,None,None,None,None,None,None,None,None,None,2,1.3079051971435547,None,,,,,0,0,0,0,0,127,127,152,1004.0711050033569,,,,,,,,,,,,,,,,,,,,,,,,,,,,,,,,,,,,,,,,,,,,,,,,,,,,,,,,,,,,,,,,,,,,,,,,,,,,,,,,,127.44339103977735,172.85448682359163,145.55627249988441,186.56159540990652,161.94097201917515,82.26549963446557,2.1,2.11,-276,287,0,250,230,-259,1004.0553948879242,1004.0554757118225,1004.0592925548553,1004.0711050033569,1004.2269766330719,1004.2269766330719,1004.2269766330719,1004.2269766330719,1004.2269766330719,1004.2269766330719,1004.2269766330719,1005.3883938789368,2,1.3079051971435547,None,,,,,,,,,,,,,,,,,,105,2,2025-02-25_09h57.59.139,comp,2024.2.4,None,2025-02-25 09h58.18.240149 -0500,
128,128,0,catch,None,None,None,None,None,None,None,None,None,None,3,1.109947919845581,None,,,,,0,0,0,0,0,128,128,128,1005.4056508541107,,,,,,,,,,,,,,,,,,,,,,,,,,,,,,,,,,,,,,,,,,,,,,,,,,,,,,,,,,,,,,,,,,,,,,,,,,,,,,,,,76,114,121,69,142,183,2.1,2.11,-188,287,0,262,222,-251,1005.3904685974121,1005.3905513286591,1005.394896030426,1005.4056508541107,1005.5554971694946,1005.5554971694946,1005.5554971694946,1005.5554971694946,1005.5554971694946,1005.5554971694946,1005.5554971694946,1006.5252630710602,3,1.109947919845581,None,,,,,,,,,,,,,,,,,,105,2,2025-02-25_09h57.59.139,comp,2024.2.4,None,2025-02-25 09h58.18.240149 -0500,
129,129,0,critical,whd,20.0,1.0,lower,57.0,133.0,133.0,57.0,78.0,78.0,1,3.0099663734436035,None,,,,,0,0,0,0,0,129,129,90,1006.5459582805634,,,,,,,,,,,,,,,,,,,,,,,,,,,,,,,,,,,,,,,,,,,,,,,,,,,,,,,,,,,,,,,,,,,,,,,,,,,,,,,,,57.0,133.0,133.0,57.0,78.0,78.0,1.0,1.2,-191,5,0,11,164,-1,1006.5267181396484,1006.5267941951752,1006.5302574634552,1006.5459582805634,1006.6890065670013,1006.6890065670013,1006.6890065670013,1006.6890065670013,1006.6890065670013,1006.6890065670013,1006.6890065670013,1009.5630402565002,1,3.0099663734436035,None,,,,,,,,,,,,,,,,,,105,2,2025-02-25_09h57.59.139,comp,2024.2.4,None,2025-02-25 09h58.18.240149 -0500,
130,130,0,filler_square,None,None,None,None,None,None,None,None,None,None,2,2.102153778076172,None,,,,,0,0,0,0,0,130,130,203,1009.5813698768616,,,,,,,,,,,,,,,,,,,,,,,,,,,,,,,,,,,,,,,,,,,,,,,,,,,,,,,,,,,,,,,,,,,,,,,,,,,,,,,,,76.34735850829068,62.54520572807219,123.2190202667058,123.2190202667058,112.1083278996534,105.93623462399518,2.1,2.12,-189,-272,0,-265,211,276,1009.5649011135101,1009.5649824142456,1009.5682730674744,1009.5813698768616,1009.7222967147827,1009.7222967147827,1009.7222967147827,1009.7222967147827,1009.7222967147827,1009.7222967147827,1009.7222967147827,1011.686365365982,2,2.102153778076172,None,,,,,,,,,,,,,,,,,,105,2,2025-02-25_09h57.59.139,comp,2024.2.4,None,2025-02-25 09h58.18.240149 -0500,
131,131,0,filler_random,None,None,None,None,None,None,None,None,None,None,3,1.3891985416412354,None,,,,,0,0,0,0,0,131,131,163,1011.702064037323,,,,,,,,,,,,,,,,,,,,,,,,,,,,,,,,,,,,,,,,,,,,,,,,,,,,,,,,,,,,,,,,,,,,,,,,,,,,,,,,,130.47773751470487,57.7948242211065,105.36419995358551,198.6455574905464,134.68618210051304,165.83751504948643,3.0,3.2,-224,-280,0,17,278,281,1011.6880135536194,1011.6880910396576,1011.6913259029388,1011.702064037323,1011.842161655426,1011.842161655426,1011.842161655426,1011.842161655426,1011.842161655426,1011.842161655426,1011.842161655426,1013.10981798172,3,1.3891985416412354,None,,,,,,,,,,,,,,,,,,105,2,2025-02-25_09h57.59.139,comp,2024.2.4,None,2025-02-25 09h58.18.240149 -0500,
132,132,0,catch,None,None,None,None,None,None,None,None,None,None,3,1.5003244876861572,None,,,,,0,0,0,0,0,132,132,124,1013.1267111301422,,,,,,,,,,,,,,,,,,,,,,,,,,,,,,,,,,,,,,,,,,,,,,,,,,,,,,,,,,,,,,,,,,,,,,,,,,,,,,,,,62,128,61,129,136,189,3.0,3.2,-224,-287,0,-7,255,267,1013.1121277809143,1013.1122915744781,1013.1162974834442,1013.1267111301422,1013.2766065597534,1013.2766065597534,1013.2766065597534,1013.2766065597534,1013.2766065597534,1013.2766065597534,1013.2766065597534,1014.6306779384613,3,1.5003244876861572,None,,,,,,,,,,,,,,,,,,105,2,2025-02-25_09h57.59.139,comp,2024.2.4,None,2025-02-25 09h58.18.240149 -0500,
133,133,0,critical,hwd,20.0,1.0,upper,200.0,125.0,125.0,200.0,141.0,141.0,2,5.024951696395874,None,,,,,0,0,0,0,0,133,133,103,1014.6509249210358,,,,,,,,,,,,,,,,,,,,,,,,,,,,,,,,,,,,,,,,,,,,,,,,,,,,,,,,,,,,,,,,,,,,,,,,,,,,,,,,,200.0,125.0,125.0,200.0,141.0,141.0,1.0,1.1,-738,263,-480,285,-214,257,1014.6322948932648,1014.6323893070221,1014.6359596252441,1014.6509249210358,1014.7918519973755,1014.7918519973755,1014.7918519973755,1014.7918519973755,1014.7918519973755,1014.7918519973755,1014.7918519973755,1019.67795586586,2,5.024951696395874,None,,,,,,,,,,,,,,,,,,105,2,2025-02-25_09h57.59.139,comp,2024.2.4,None,2025-02-25 09h58.18.240149 -0500,
134,134,0,filler_random,None,None,None,None,None,None,None,None,None,None,1,1.5970423221588135,None,,,,,0,0,0,0,0,134,134,144,1019.6941754817963,,,,,,,,,,,,,,,,,,,,,,,,,,,,,,,,,,,,,,,,,,,,,,,,,,,,,,,,,,,,,,,,,,,,,,,,,,,,,,,,,144.79095458083253,127.590386800284,181.60667375519853,63.61297409277759,90.78452045919445,145.93043164962148,2.2,2.22,-192,257,0,-265,201,-271,1019.6797850131989,1019.6798706054688,1019.6834011077881,1019.6941754817963,1019.8492810726166,1019.8492810726166,1019.8492810726166,1019.8492810726166,1019.8492810726166,1019.8492810726166,1019.8492810726166,1021.2940278053284,1,1.5970423221588135,None,,,,,,,,,,,,,,,,,,105,2,2025-02-25_09h57.59.139,comp,2024.2.4,None,2025-02-25 09h58.18.240149 -0500,
135,135,0,filler_random,None,None,None,None,None,None,None,None,None,None,2,1.0042541027069092,None,,,,,0,0,0,0,0,135,135,130,1021.3108913898468,,,,,,,,,,,,,,,,,,,,,,,,,,,,,,,,,,,,,,,,,,,,,,,,,,,,,,,,,,,,,,,,,,,,,,,,,,,,,,,,,80.30518333893193,58.9874330611733,156.49254054385318,199.54693022082412,78.5116648508279,132.33493084059387,2.2,2.21,-225,-277,0,288,262,269,1021.2959859371185,1021.2961280345917,1021.3000633716583,1021.3108913898468,1021.4628949165344,1021.4628949165344,1021.4628949165344,1021.4628949165344,1021.4628949165344,1021.4628949165344,1021.4628949165344,1022.3281328678131,2,1.0042541027069092,None,,,,,,,,,,,,,,,,,,105,2,2025-02-25_09h57.59.139,comp,2024.2.4,None,2025-02-25 09h58.18.240149 -0500,
136,136,0,critical,hdw,20.0,2.1,lower,133.0,57.0,78.0,78.0,57.0,133.0,3,3.595827102661133,None,,,,,0,0,0,0,0,136,136,22,1022.3439280986786,,,,,,,,,,,,,,,,,,,,,,,,,,,,,,,,,,,,,,,,,,,,,,,,,,,,,,,,,,,,,,,,,,,,,,,,,,,,,,,,,133.0,57.0,78.0,78.0,57.0,133.0,2.1,2.11,-164,262,0,263,202,-287,1022.3297579288483,1022.3298723697662,1022.3336441516876,1022.3439280986786,1022.4954717159271,1022.4954717159271,1022.4954717159271,1022.4954717159271,1022.4954717159271,1022.4954717159271,1022.4954717159271,1025.9464175701141,3,3.595827102661133,None,,,,,,,,,,,,,,,,,,105,2,2025-02-25_09h57.59.139,comp,2024.2.4,None,2025-02-25 09h58.18.240149 -0500,
137,137,0,critical,hdw,20.0,1.0,lower,133.0,57.0,78.0,78.0,57.0,133.0,3,3.4569971561431885,None,,,,,0,0,0,0,0,137,137,114,1025.963097333908,,,,,,,,,,,,,,,,,,,,,,,,,,,,,,,,,,,,,,,,,,,,,,,,,,,,,,,,,,,,,,,,,,,,,,,,,,,,,,,,,133.0,57.0,78.0,78.0,57.0,133.0,1.0,1.2,-164,18,0,6,202,9,1025.9480817317963,1025.9481604099274,1025.9523522853851,1025.963097333908,1026.1140503883362,1026.1140503883362,1026.1140503883362,1026.1140503883362,1026.1140503883362,1026.1140503883362,1026.1140503883362,1029.4289767742157,3,3.4569971561431885,None,,,,,,,,,,,,,,,,,,105,2,2025-02-25_09h57.59.139,comp,2024.2.4,None,2025-02-25 09h58.18.240149 -0500,
138,138,0,critical,whd,20.0,2.1,upper,125.0,200.0,200.0,125.0,141.0,141.0,1,2.1184473037719727,None,,,,,0,0,0,0,0,138,138,39,1029.4448211193085,,,,,,,,,,,,,,,,,,,,,,,,,,,,,,,,,,,,,,,,,,,,,,,,,,,,,,,,,,,,,,,,,,,,,,,,,,,,,,,,,125.0,200.0,200.0,125.0,141.0,141.0,2.1,2.11,-258,264,0,274,229,-281,1029.4305143356323,1029.4305951595306,1029.4340720176697,1029.4448211193085,1029.597415447235,1029.597415447235,1029.597415447235,1029.597415447235,1029.597415447235,1029.597415447235,1029.597415447235,1031.5808653831482,1,2.1184473037719727,None,,,,,,,,,,,,,,,,,,105,2,2025-02-25_09h57.59.139,comp,2024.2.4,None,2025-02-25 09h58.18.240149 -0500,
139,139,0,filler_square,None,None,None,None,None,None,None,None,None,None,3,1.0061712265014648,None,,,,,0,0,0,0,0,139,139,204,1031.5982112884521,,,,,,,,,,,,,,,,,,,,,,,,,,,,,,,,,,,,,,,,,,,,,,,,,,,,,,,,,,,,,,,,,,,,,,,,,,,,,,,,,78.21671870873381,96.47203226064309,140.46900459562903,148.84122224784625,167.37958780688712,167.37958780688712,2.2,2.21,-219,-262,0,254,254,271,1031.582947731018,1031.583027124405,1031.5867505073547,1031.5982112884521,1031.7453005313873,1031.7453005313873,1031.7453005313873,1031.7453005313873,1031.7453005313873,1031.7453005313873,1031.7453005313873,1032.6105997562408,3,1.0061712265014648,None,,,,,,,,,,,,,,,,,,105,2,2025-02-25_09h57.59.139,comp,2024.2.4,None,2025-02-25 09h58.18.240149 -0500,
140,140,0,filler_square,None,None,None,None,None,None,None,None,None,None,2,2.145082473754883,None,,,,,0,0,0,0,0,140,140,208,1032.6267516613007,,,,,,,,,,,,,,,,,,,,,,,,,,,,,,,,,,,,,,,,,,,,,,,,,,,,,,,,,,,,,,,,,,,,,,,,,,,,,,,,,59.45996151117364,80.47779813602848,118.83549855433174,118.83549855433174,116.53297222309726,111.62991103622161,3.0,3.1,-196,277,0,5,211,-259,1032.612372636795,1032.612450838089,1032.6158576011658,1032.6267516613007,1032.7793004512787,1032.7793004512787,1032.7793004512787,1032.7793004512787,1032.7793004512787,1032.7793004512787,1032.7793004512787,1034.780794620514,2,2.145082473754883,None,,,,,,,,,,,,,,,,,,105,2,2025-02-25_09h57.59.139,comp,2024.2.4,None,2025-02-25 09h58.18.240149 -0500,
141,141,0,critical,dwh,35.0,4.0,lower,70.0,70.0,57.0,133.0,133.0,57.0,2,5.644955635070801,None,,,,,0,0,0,0,0,141,141,64,1034.7988021373749,,,,,,,,,,,,,,,,,,,,,,,,,,,,,,,,,,,,,,,,,,,,,,,,,,,,,,,,,,,,,,,,,,,,,,,,,,,,,,,,,70.0,70.0,57.0,133.0,133.0,57.0,4.0,4.1,-198,-277,0,-14,191,-278,1034.7823045253754,1034.7823808193207,1034.78568983078,1034.7988021373749,1034.9478039741516,1034.9478039741516,1034.9478039741516,1034.9478039741516,1034.9478039741516,1034.9478039741516,1034.9478039741516,1040.4507336616516,2,5.644955635070801,None,,,,,,,,,,,,,,,,,,105,2,2025-02-25_09h57.59.139,comp,2024.2.4,None,2025-02-25 09h58.18.240149 -0500,
142,142,0,critical,hdw,35.0,3.0,lower,133.0,57.0,70.0,70.0,57.0,133.0,3,8.096080303192139,None,,,,,0,0,0,0,0,142,142,110,1040.4675161838531,,,,,,,,,,,,,,,,,,,,,,,,,,,,,,,,,,,,,,,,,,,,,,,,,,,,,,,,,,,,,,,,,,,,,,,,,,,,,,,,,133.0,57.0,70.0,70.0,57.0,133.0,3.0,3.1,-160,275,0,-15,198,-257,1040.4523503780365,1040.452433347702,1040.456036567688,1040.4675161838531,1040.6170272827148,1040.6170272827148,1040.6170272827148,1040.6170272827148,1040.6170272827148,1040.6170272827148,1040.6170272827148,1048.568515777588,3,8.096080303192139,None,,,,,,,,,,,,,,,,,,105,2,2025-02-25_09h57.59.139,comp,2024.2.4,None,2025-02-25 09h58.18.240149 -0500,
143,143,0,filler_random,None,None,None,None,None,None,None,None,None,None,1,1.23388671875,None,,,,,0,0,0,0,0,143,143,140,1048.5855631828308,,,,,,,,,,,,,,,,,,,,,,,,,,,,,,,,,,,,,,,,,,,,,,,,,,,,,,,,,,,,,,,,,,,,,,,,,,,,,,,,,168.9100322531811,151.59190478005854,144.441392143965,67.15740844998894,115.7210572002956,119.94279117453735,4.0,4.1,-205,-269,0,20,190,-269,1048.570392370224,1048.5704753398895,1048.5748403072357,1048.5855631828308,1048.7368457317352,1048.7368457317352,1048.7368457317352,1048.7368457317352,1048.7368457317352,1048.7368457317352,1048.7368457317352,1049.8355543613434,1,1.23388671875,None,,,,,,,,,,,,,,,,,,105,2,2025-02-25_09h57.59.139,comp,2024.2.4,None,2025-02-25 09h58.18.240149 -0500,
