thisN,thisTrialN,thisRepN,effect,order,distance,config,diag,h_1,w_1,h_2,w_2,h_3,w_3,rect_choice.keys,rect_choice.rt,rect_choice.duration,instructions_loop.thisRepN,instructions_loop.thisTrialN,instructions_loop.thisN,instructions_loop.thisIndex,blocks.thisRepN,blocks.thisTrialN,blocks.thisN,blocks.thisIndex,trials.thisRepN,trials.thisTrialN,trials.thisN,trials.thisIndex,thisRow.t,notes,consent.started,agree_button.started,decline_button.started,consent_img.started,mouse.started,consent.stopped,agree_button.numClicks,agree_button.timesOn,agree_button.timesOff,decline_button.numClicks,decline_button.timesOn,decline_button.timesOff,mouse.x,mouse.y,mouse.leftButton,mouse.midButton,mouse.rightButton,mouse.time,mouse.clicked_name,exp_params.started,exp_params.stopped,welcome.started,welcome_text.started,welcome.stopped,instructions_1.started,instructions_1_text_1.started,instructions_1_text_2.started,key_resp.started,instructions_1.stopped,instructions_loop.key_resp.keys,instructions_loop.key_resp.rt,instructions_loop.key_resp.duration,instructions_2.started,instructions_2_text_1.started,instructions_2_text_2.started,key_resp_2.started,instructions_2.stopped,instructions_loop.key_resp_2.keys,instructions_loop.key_resp_2.rt,instructions_loop.key_resp_2.duration,instructions_3.started,instructions_3_text_1.started,r1_instr3.started,r2_instr3.started,r3_instr3.started,r1_instr3_label.started,r2_instr3_label.started,r3_instr3_label.started,instructions_3_text_3.started,instructions_3_text_4.started,key_resp_3.started,instructions_3.stopped,instructions_loop.key_resp_3.keys,instructions_loop.key_resp_3.rt,instructions_loop.key_resp_3.duration,instructions_4.started,instructions_4_text_1.started,instructions_4_text_3.started,instructions_4_text_2.started,key_resp_4.started,instructions_4.stopped,instructions_loop.key_resp_4.keys,instructions_loop.key_resp_4.rt,instructions_loop.key_resp_4.duration,instructions_5.started,instructions_5_text_1.started,instructions_5_text_2.started,key_resp_5.started,instructions_5.stopped,instructions_loop.key_resp_5.keys,instructions_loop.key_resp_5.rt,instructions_loop.key_resp_5.duration,start_exp.started,start_exp_text.started,key_resp_6.started,start_exp.stopped,key_resp_6.keys,key_resp_6.rt,key_resp_6.duration,h_1_tmp,w_1_tmp,h_2_tmp,w_2_tmp,h_3_tmp,w_3_tmp,config_tmp,config_tmp_1,r_1_x,r_1_y,r_2_x,r_2_y,r_3_x,r_3_y,pre_trial.started,pre_trial.stopped,choice_trial.started,rect_choice.started,r_1.started,r_2.started,r_3.started,r_1_label.started,r_2_label.started,r_3_label.started,prompt.started,choice_trial.stopped,trials.rect_choice.keys,trials.rect_choice.rt,trials.rect_choice.duration,end_block.started,end_block_text.started,end_block.stopped,end.started,end_text.started,key_resp_7.started,end.stopped,key_resp_7.keys,key_resp_7.rt,key_resp_7.duration,debriefing.started,debrief_form.started,end_debrief.started,debriefing.stopped,end_debrief.keys,end_debrief.rt,end_debrief.duration,participant,computer,date,expName,psychopyVersion,frameRate,expStart,
,,,,,,,,,,,,,,,,,,,,,,,,,,,,,,,0.014724016189575195,0.041419267654418945,0.041419267654418945,0.041419267654418945,0.014408111572265625,96.27906107902527,1,[96.23649144172668],[96.23650169372559],0,,,[-56.0],[-500.0],[1],[0],[0],[96.26364827156067],['agree_button'],,,,,,,,,,,,,,,,,,,,,,,,,,,,,,,,,,,,,,,,,,,,,,,,,,,,,,,,,,,,,,,,,,,,,,,,,,,,,,,,,,,,,,,,,,,,,,,,,,,,,,,,,,,106,3,2025-02-25_09h58.25.116,comp,2024.2.4,62.149254085194904,2025-02-25 09h58.36.997599 -0500,
,,,,,,,,,,,,,,,,,,,,,,,,,,,,,,,,,,,,,,,,,,,,,,,,,,96.2793447971344,96.27937579154968,,,,,,,,,,,,,,,,,,,,,,,,,,,,,,,,,,,,,,,,,,,,,,,,,,,,,,,,,,,,,,,,,,,,,,,,,,,,,,,,,,,,,,,,,,,,,,,,,,,,,,,,,106,3,2025-02-25_09h58.25.116,comp,2024.2.4,62.149254085194904,2025-02-25 09h58.36.997599 -0500,
,,,,,,,,,,,,,,,,,,,,,,,,,,,,,,,,,,,,,,,,,,,,,,,,,,,,96.27939748764038,96.29297590255737,98.28216576576233,,,,,,,,,,,,,,,,,,,,,,,,,,,,,,,,,,,,,,,,,,,,,,,,,,,,,,,,,,,,,,,,,,,,,,,,,,,,,,,,,,,,,,,,,,,,,,,,,,,,,,106,3,2025-02-25_09h58.25.116,comp,2024.2.4,62.149254085194904,2025-02-25 09h58.36.997599 -0500,
0,0,0,,,,,,,,,,,,,,,0,0,0,0,,,,,,,,,98.29934024810791,,,,,,,,,,,,,,,,,,,,,,,,,,98.28272318840027,98.29934024810791,98.29934024810791,99.78223991394043,102.50019645690918,space,2.7081475257873535,None,102.50029730796814,102.51618218421936,102.51618218421936,104.01544952392578,115.41636800765991,space,11.38537073135376,None,115.4164559841156,115.43811249732971,115.43811249732971,115.43811249732971,115.43811249732971,115.43811249732971,115.43811249732971,115.43811249732971,115.43811249732971,115.43811249732971,116.91576361656189,126.26687717437744,space,9.333657503128052,None,126.26696157455444,126.2823646068573,126.2823646068573,126.2823646068573,127.78208518028259,132.2999451160431,space,4.5079429149627686,None,132.30002808570862,132.31564688682556,132.31564688682556,133.81527662277222,139.13286924362183,space,5.300124406814575,None,139.1329824924469,139.1485378742218,139.1485378742218,141.04962849617004,space,1.884169101715088,None,,,,,,,,,,,,,,,,,,,,,,,,,,,,,,,,,,,,,,,,,,,,,,,106,3,2025-02-25_09h58.25.116,comp,2024.2.4,62.149254085194904,2025-02-25 09h58.36.997599 -0500,
0,0,0,critical,wdh,35.0,2.1,lower,57.0,133.0,70.0,70.0,133.0,57.0,3,4.548325300216675,None,,,,,0,0,0,0,0,0,0,8,141.10931992530823,,,,,,,,,,,,,,,,,,,,,,,,,,,,,,,,,,,,,,,,,,,,,,,,,,,,,,,,,,,,,,,,,,,,,,,,,,,,,,,,,57.0,133.0,70.0,70.0,133.0,57.0,2.1,2.11,-198,282,0,278,160,-275,141.09580397605896,141.09584975242615,141.09789323806763,141.10931992530823,141.25479197502136,141.25479197502136,141.25479197502136,141.25479197502136,141.25479197502136,141.25479197502136,141.25479197502136,145.66638660430908,3,4.548325300216675,None,,,,,,,,,,,,,,,,,,106,3,2025-02-25_09h58.25.116,comp,2024.2.4,62.149254085194904,2025-02-25 09h58.36.997599 -0500,
1,1,0,critical,whd,35.0,1.0,upper,125.0,200.0,200.0,125.0,127.0,127.0,2,4.248636245727539,None,,,,,0,0,0,0,0,1,1,85,145.68235278129578,,,,,,,,,,,,,,,,,,,,,,,,,,,,,,,,,,,,,,,,,,,,,,,,,,,,,,,,,,,,,,,,,,,,,,,,,,,,,,,,,125.0,200.0,200.0,125.0,127.0,127.0,1.0,1.3,222,-263,480,-279,702,-274,145.66716694831848,145.66720724105835,145.66940760612488,145.68235278129578,145.83215045928955,145.83215045928955,145.83215045928955,145.83215045928955,145.83215045928955,145.83215045928955,145.83215045928955,149.93330311775208,2,4.248636245727539,None,,,,,,,,,,,,,,,,,,106,3,2025-02-25_09h58.25.116,comp,2024.2.4,62.149254085194904,2025-02-25 09h58.36.997599 -0500,
2,2,0,critical,hwd,35.0,3.0,lower,133.0,57.0,57.0,133.0,70.0,70.0,1,7.133365869522095,None,,,,,0,0,0,0,0,2,2,98,149.94872188568115,,,,,,,,,,,,,,,,,,,,,,,,,,,,,,,,,,,,,,,,,,,,,,,,,,,,,,,,,,,,,,,,,,,,,,,,,,,,,,,,,133.0,57.0,57.0,133.0,70.0,70.0,3.0,3.2,-191,-253,0,19,198,267,149.93409323692322,149.93413257598877,149.93641209602356,149.94872188568115,150.098735332489,150.098735332489,150.098735332489,150.098735332489,150.098735332489,150.098735332489,150.098735332489,157.09953451156616,1,7.133365869522095,None,,,,,,,,,,,,,,,,,,106,3,2025-02-25_09h58.25.116,comp,2024.2.4,62.149254085194904,2025-02-25 09h58.36.997599 -0500,
3,3,0,critical,whd,20.0,2.1,lower,57.0,133.0,133.0,57.0,78.0,78.0,1,4.710344552993774,None,,,,,0,0,0,0,0,3,3,38,157.11505603790283,,,,,,,,,,,,,,,,,,,,,,,,,,,,,,,,,,,,,,,,,,,,,,,,,,,,,,,,,,,,,,,,,,,,,,,,,,,,,,,,,57.0,133.0,133.0,57.0,78.0,78.0,2.1,2.11,-191,263,0,270,164,-268,157.10035181045532,157.10039353370667,157.10287809371948,157.11505603790283,157.26517486572266,157.26517486572266,157.26517486572266,157.26517486572266,157.26517486572266,157.26517486572266,157.26517486572266,161.83290719985962,1,4.710344552993774,None,,,,,,,,,,,,,,,,,,106,3,2025-02-25_09h58.25.116,comp,2024.2.4,62.149254085194904,2025-02-25 09h58.36.997599 -0500,
4,4,0,filler_random,None,None,None,None,None,None,None,None,None,None,2,3.8664016723632812,None,,,,,0,0,0,0,0,4,4,140,161.84863376617432,,,,,,,,,,,,,,,,,,,,,,,,,,,,,,,,,,,,,,,,,,,,,,,,,,,,,,,,,,,,,,,,,,,,,,,,,,,,,,,,,112.78490481368107,191.4812224943895,169.02956158572857,137.29749131710668,195.65294264844454,94.01924860828609,1.0,1.2,-260,-15,0,15,212,16,161.83383321762085,161.83387351036072,161.83656692504883,161.84863376617432,161.99868869781494,161.99868869781494,161.99868869781494,161.99868869781494,161.99868869781494,161.99868869781494,161.99868869781494,165.71661281585693,2,3.8664016723632812,None,,,,,,,,,,,,,,,,,,106,3,2025-02-25_09h58.25.116,comp,2024.2.4,62.149254085194904,2025-02-25 09h58.36.997599 -0500,
5,5,0,critical,hwd,35.0,4.0,lower,133.0,57.0,57.0,133.0,70.0,70.0,1,2.1254820823669434,None,,,,,0,0,0,0,0,5,5,100,165.73189115524292,,,,,,,,,,,,,,,,,,,,,,,,,,,,,,,,,,,,,,,,,,,,,,,,,,,,,,,,,,,,,,,,,,,,,,,,,,,,,,,,,133.0,57.0,57.0,133.0,70.0,70.0,4.0,4.2,-191,-11,0,-273,198,-17,165.7174026966095,165.7174437046051,165.71989107131958,165.73189115524292,165.88174533843994,165.88174533843994,165.88174533843994,165.88174533843994,165.88174533843994,165.88174533843994,165.88174533843994,167.8661825656891,1,2.1254820823669434,None,,,,,,,,,,,,,,,,,,106,3,2025-02-25_09h58.25.116,comp,2024.2.4,62.149254085194904,2025-02-25 09h58.36.997599 -0500,
6,6,0,filler_random,None,None,None,None,None,None,None,None,None,None,1,3.583477735519409,None,,,,,0,0,0,0,0,6,6,157,167.88192057609558,,,,,,,,,,,,,,,,,,,,,,,,,,,,,,,,,,,,,,,,,,,,,,,,,,,,,,,,,,,,,,,,,,,,,,,,,,,,,,,,,181.32567011113372,57.79593905401993,169.28486558737978,59.64294186051474,65.02680082966681,164.9062364778162,1.0,1.2,-155,2,0,-1,208,8,167.86706638336182,167.86710667610168,167.86924505233765,167.88192057609558,168.0318579673767,168.0318579673767,168.0318579673767,168.0318579673767,168.0318579673767,168.0318579673767,168.0318579673767,171.48291540145874,1,3.583477735519409,None,,,,,,,,,,,,,,,,,,106,3,2025-02-25_09h58.25.116,comp,2024.2.4,62.149254085194904,2025-02-25 09h58.36.997599 -0500,
7,7,0,filler_square,None,None,None,None,None,None,None,None,None,None,1,4.221924066543579,None,,,,,0,0,0,0,0,7,7,202,171.49840331077576,,,,,,,,,,,,,,,,,,,,,,,,,,,,,,,,,,,,,,,,,,,,,,,,,,,,,,,,,,,,,,,,,,,,,,,,,,,,,,,,,78.2682132143288,75.68159705980382,73.656606577557,76.25611904416698,79.45286656029539,79.45286656029539,1.0,1.2,-172,8,0,20,174,-10,171.48387217521667,171.48391246795654,171.48652124404907,171.49840331077576,171.64833045005798,171.64833045005798,171.64833045005798,171.64833045005798,171.64833045005798,171.64833045005798,171.64833045005798,175.73297429084778,1,4.221924066543579,None,,,,,,,,,,,,,,,,,,106,3,2025-02-25_09h58.25.116,comp,2024.2.4,62.149254085194904,2025-02-25 09h58.36.997599 -0500,
8,8,0,filler_random,None,None,None,None,None,None,None,None,None,None,3,7.771972417831421,None,,,,,0,0,0,0,0,8,8,167,175.74835395812988,,,,,,,,,,,,,,,,,,,,,,,,,,,,,,,,,,,,,,,,,,,,,,,,,,,,,,,,,,,,,,,,,,,,,,,,,,,,,,,,,77.2815261069579,167.3539617676318,72.15678547741807,176.26191008349946,147.60392594931824,102.32352189211352,1.0,1.1,-748,258,-480,271,-245,279,175.73386645317078,175.73390555381775,175.73662972450256,175.74835395812988,175.898442029953,175.898442029953,175.898442029953,175.898442029953,175.898442029953,175.898442029953,175.898442029953,183.5328929424286,3,7.771972417831421,None,,,,,,,,,,,,,,,,,,106,3,2025-02-25_09h58.25.116,comp,2024.2.4,62.149254085194904,2025-02-25 09h58.36.997599 -0500,
9,9,0,critical,wdh,20.0,3.0,upper,125.0,200.0,141.0,141.0,200.0,125.0,1,6.908817768096924,None,,,,,0,0,0,0,0,9,9,81,183.54828882217407,,,,,,,,,,,,,,,,,,,,,,,,,,,,,,,,,,,,,,,,,,,,,,,,,,,,,,,,,,,,,,,,,,,,,,,,,,,,,,,,,125.0,200.0,141.0,141.0,200.0,125.0,3.0,3.2,-266,-260,0,17,229,281,183.53370428085327,183.53374361991882,183.53631711006165,183.54828882217407,183.69864916801453,183.69864916801453,183.69864916801453,183.69864916801453,183.69864916801453,183.69864916801453,183.69864916801453,190.46618342399597,1,6.908817768096924,None,,,,,,,,,,,,,,,,,,106,3,2025-02-25_09h58.25.116,comp,2024.2.4,62.149254085194904,2025-02-25 09h58.36.997599 -0500,
10,10,0,critical,hwd,20.0,2.1,lower,133.0,57.0,57.0,133.0,78.0,78.0,1,3.816682815551758,None,,,,,0,0,0,0,0,10,10,42,190.48178362846375,,,,,,,,,,,,,,,,,,,,,,,,,,,,,,,,,,,,,,,,,,,,,,,,,,,,,,,,,,,,,,,,,,,,,,,,,,,,,,,,,133.0,57.0,57.0,133.0,78.0,78.0,2.1,2.12,-191,-276,0,-278,202,287,190.4669988155365,190.46703910827637,190.46919059753418,190.48178362846375,190.63163208961487,190.63163208961487,190.63163208961487,190.63163208961487,190.63163208961487,190.63163208961487,190.63163208961487,194.31608247756958,1,3.816682815551758,None,,,,,,,,,,,,,,,,,,106,3,2025-02-25_09h58.25.116,comp,2024.2.4,62.149254085194904,2025-02-25 09h58.36.997599 -0500,
11,11,0,critical,hdw,20.0,3.0,upper,200.0,125.0,141.0,141.0,125.0,200.0,1,3.2298014163970947,None,,,,,0,0,0,0,0,11,11,117,194.3317449092865,,,,,,,,,,,,,,,,,,,,,,,,,,,,,,,,,,,,,,,,,,,,,,,,,,,,,,,,,,,,,,,,,,,,,,,,,,,,,,,,,200.0,125.0,141.0,141.0,125.0,200.0,3.0,3.2,-229,-286,0,-14,266,261,194.31692147254944,194.31696128845215,194.31966066360474,194.3317449092865,194.4821057319641,194.4821057319641,194.4821057319641,194.4821057319641,194.4821057319641,194.4821057319641,194.4821057319641,197.56637382507324,1,3.2298014163970947,None,,,,,,,,,,,,,,,,,,106,3,2025-02-25_09h58.25.116,comp,2024.2.4,62.149254085194904,2025-02-25 09h58.36.997599 -0500,
12,12,0,critical,whd,35.0,4.0,upper,125.0,200.0,200.0,125.0,127.0,127.0,2,2.395251989364624,None,,,,,0,0,0,0,0,12,12,89,197.58176350593567,,,,,,,,,,,,,,,,,,,,,,,,,,,,,,,,,,,,,,,,,,,,,,,,,,,,,,,,,,,,,,,,,,,,,,,,,,,,,,,,,125.0,200.0,200.0,125.0,127.0,127.0,4.0,4.2,-258,13,0,-275,222,2,197.56716442108154,197.5672037601471,197.56938123703003,197.58176350593567,197.73205614089966,197.73205614089966,197.73205614089966,197.73205614089966,197.73205614089966,197.73205614089966,197.73205614089966,199.98289585113525,2,2.395251989364624,None,,,,,,,,,,,,,,,,,,106,3,2025-02-25_09h58.25.116,comp,2024.2.4,62.149254085194904,2025-02-25 09h58.36.997599 -0500,
13,13,0,critical,hwd,20.0,1.0,upper,200.0,125.0,125.0,200.0,141.0,141.0,1,3.548203468322754,None,,,,,0,0,0,0,0,13,13,103,199.99837255477905,,,,,,,,,,,,,,,,,,,,,,,,,,,,,,,,,,,,,,,,,,,,,,,,,,,,,,,,,,,,,,,,,,,,,,,,,,,,,,,,,200.0,125.0,125.0,200.0,141.0,141.0,1.0,1.3,222,-272,480,-275,746,-257,199.98369240760803,199.9837327003479,199.98625135421753,199.99837255477905,200.14842462539673,200.14842462539673,200.14842462539673,200.14842462539673,200.14842462539673,200.14842462539673,200.14842462539673,203.55058693885803,1,3.548203468322754,None,,,,,,,,,,,,,,,,,,106,3,2025-02-25_09h58.25.116,comp,2024.2.4,62.149254085194904,2025-02-25 09h58.36.997599 -0500,
14,14,0,filler_random,None,None,None,None,None,None,None,None,None,None,3,3.6416311264038086,None,,,,,0,0,0,0,0,14,14,144,203.56735014915466,,,,,,,,,,,,,,,,,,,,,,,,,,,,,,,,,,,,,,,,,,,,,,,,,,,,,,,,,,,,,,,,,,,,,,,,,,,,,,,,,199.5456561281662,79.33977122262714,104.92117006236592,176.47554264643367,175.0241120422092,88.5142720476004,2.1,2.11,-224,289,0,256,228,-258,203.55157589912415,203.55162072181702,203.55491495132446,203.56735014915466,203.71498203277588,203.71498203277588,203.71498203277588,203.71498203277588,203.71498203277588,203.71498203277588,203.71498203277588,207.2160129547119,3,3.6416311264038086,None,,,,,,,,,,,,,,,,,,106,3,2025-02-25_09h58.25.116,comp,2024.2.4,62.149254085194904,2025-02-25 09h58.36.997599 -0500,
15,15,0,critical,hwd,35.0,3.0,upper,200.0,125.0,125.0,200.0,127.0,127.0,2,3.729698896408081,None,,,,,0,0,0,0,0,15,15,99,207.2316188812256,,,,,,,,,,,,,,,,,,,,,,,,,,,,,,,,,,,,,,,,,,,,,,,,,,,,,,,,,,,,,,,,,,,,,,,,,,,,,,,,,200.0,125.0,125.0,200.0,127.0,127.0,3.0,3.1,-258,251,0,2,260,-279,207.2168173789978,207.2168595790863,207.2195384502411,207.2316188812256,207.38165879249573,207.38165879249573,207.38165879249573,207.38165879249573,207.38165879249573,207.38165879249573,207.38165879249573,210.96625876426697,2,3.729698896408081,None,,,,,,,,,,,,,,,,,,106,3,2025-02-25_09h58.25.116,comp,2024.2.4,62.149254085194904,2025-02-25 09h58.36.997599 -0500,
16,16,0,critical,dhw,35.0,2.1,lower,70.0,70.0,133.0,57.0,57.0,133.0,2,2.6026291847229004,None,,,,,0,0,0,0,0,16,16,24,210.9816415309906,,,,,,,,,,,,,,,,,,,,,,,,,,,,,,,,,,,,,,,,,,,,,,,,,,,,,,,,,,,,,,,,,,,,,,,,,,,,,,,,,70.0,70.0,133.0,57.0,57.0,133.0,2.1,2.12,-160,-277,0,-250,191,266,210.96703958511353,210.96707916259766,210.96926641464233,210.9816415309906,211.13152313232422,211.13152313232422,211.13152313232422,211.13152313232422,211.13152313232422,211.13152313232422,211.13152313232422,213.59921145439148,2,2.6026291847229004,None,,,,,,,,,,,,,,,,,,106,3,2025-02-25_09h58.25.116,comp,2024.2.4,62.149254085194904,2025-02-25 09h58.36.997599 -0500,
17,17,0,filler_random,None,None,None,None,None,None,None,None,None,None,3,1.9942066669464111,None,,,,,0,0,0,0,0,17,17,145,213.6146912574768,,,,,,,,,,,,,,,,,,,,,,,,,,,,,,,,,,,,,,,,,,,,,,,,,,,,,,,,,,,,,,,,,,,,,,,,,,,,,,,,,113.04382258255797,111.89918399797813,112.15855373632724,78.07098245476597,166.55760188793096,160.51023919853273,1.0,1.1,-671,272,-480,278,-265,253,213.60012030601501,213.600159406662,213.60256600379944,213.6146912574768,213.76497554779053,213.76497554779053,213.76497554779053,213.76497554779053,213.76497554779053,213.76497554779053,213.76497554779053,215.6160774230957,3,1.9942066669464111,None,,,,,,,,,,,,,,,,,,106,3,2025-02-25_09h58.25.116,comp,2024.2.4,62.149254085194904,2025-02-25 09h58.36.997599 -0500,
18,18,0,catch,None,None,None,None,None,None,None,None,None,None,2,1.3685736656188965,None,,,,,0,0,0,0,0,18,18,121,215.6316888332367,,,,,,,,,,,,,,,,,,,,,,,,,,,,,,,,,,,,,,,,,,,,,,,,,,,,,,,,,,,,,,,,,,,,,,,,,,,,,,,,,117,73,170,155,109,81,1.0,1.2,-210,17,0,-15,214,5,215.61712431907654,215.61716747283936,215.61972951889038,215.6316888332367,215.78155207633972,215.78155207633972,215.78155207633972,215.78155207633972,215.78155207633972,215.78155207633972,215.78155207633972,217.01587843894958,2,1.3685736656188965,None,,,,,,,,,,,,,,,,,,106,3,2025-02-25_09h58.25.116,comp,2024.2.4,62.149254085194904,2025-02-25 09h58.36.997599 -0500,
19,19,0,filler_square,None,None,None,None,None,None,None,None,None,None,1,2.4504449367523193,None,,,,,0,0,0,0,0,19,19,185,217.03137040138245,,,,,,,,,,,,,,,,,,,,,,,,,,,,,,,,,,,,,,,,,,,,,,,,,,,,,,,,,,,,,,,,,,,,,,,,,,,,,,,,,150.03869326832762,150.03869326832762,59.66445801034339,78.33875088263017,129.71248105188172,133.71105643433924,2.1,2.11,-210,255,0,277,202,-276,217.01688265800476,217.01692414283752,217.01952195167542,217.03137040138245,217.18161416053772,217.18161416053772,217.18161416053772,217.18161416053772,217.18161416053772,217.18161416053772,217.18161416053772,219.49925208091736,1,2.4504449367523193,None,,,,,,,,,,,,,,,,,,106,3,2025-02-25_09h58.25.116,comp,2024.2.4,62.149254085194904,2025-02-25 09h58.36.997599 -0500,
20,20,0,critical,dhw,35.0,3.0,upper,127.0,127.0,200.0,125.0,125.0,200.0,2,3.68575119972229,None,,,,,0,0,0,0,0,20,20,51,219.51451110839844,,,,,,,,,,,,,,,,,,,,,,,,,,,,,,,,,,,,,,,,,,,,,,,,,,,,,,,,,,,,,,,,,,,,,,,,,,,,,,,,,127.0,127.0,200.0,125.0,125.0,200.0,3.0,3.2,-222,-251,0,-3,258,258,219.50002527236938,219.50006437301636,219.50243592262268,219.51451110839844,219.66522765159607,219.66522765159607,219.66522765159607,219.66522765159607,219.66522765159607,219.66522765159607,219.66522765159607,223.2161567211151,2,3.68575119972229,None,,,,,,,,,,,,,,,,,,106,3,2025-02-25_09h58.25.116,comp,2024.2.4,62.149254085194904,2025-02-25 09h58.36.997599 -0500,
21,21,0,catch,None,None,None,None,None,None,None,None,None,None,1,1.1847264766693115,None,,,,,0,0,0,0,0,21,21,126,223.23140859603882,,,,,,,,,,,,,,,,,,,,,,,,,,,,,,,,,,,,,,,,,,,,,,,,,,,,,,,,,,,,,,,,,,,,,,,,,,,,,,,,,189,136,66,124,106,84,2.2,2.21,-226,-259,0,270,200,266,223.21723675727844,223.21728038787842,223.21989607810974,223.23140859603882,223.38154983520508,223.38154983520508,223.38154983520508,223.38154983520508,223.38154983520508,223.38154983520508,223.38154983520508,224.4325602054596,1,1.1847264766693115,None,,,,,,,,,,,,,,,,,,106,3,2025-02-25_09h58.25.116,comp,2024.2.4,62.149254085194904,2025-02-25 09h58.36.997599 -0500,
22,22,0,filler_square,None,None,None,None,None,None,None,None,None,None,3,3.9523565769195557,None,,,,,0,0,0,0,0,22,22,195,224.4479968547821,,,,,,,,,,,,,,,,,,,,,,,,,,,,,,,,,,,,,,,,,,,,,,,,,,,,,,,,,,,,,,,,,,,,,,,,,,,,,,,,,85.67545784587597,75.54175974173701,75.84423175466983,57.78285368113939,86.21106087826705,86.21106087826705,4.0,4.1,-163,-272,0,3,168,-267,224.43352437019348,224.43356370925903,224.43601942062378,224.4479968547821,224.59809803962708,224.59809803962708,224.59809803962708,224.59809803962708,224.59809803962708,224.59809803962708,224.59809803962708,228.41594099998474,3,3.9523565769195557,None,,,,,,,,,,,,,,,,,,106,3,2025-02-25_09h58.25.116,comp,2024.2.4,62.149254085194904,2025-02-25 09h58.36.997599 -0500,
23,23,0,critical,whd,20.0,3.0,upper,125.0,200.0,200.0,125.0,141.0,141.0,2,3.072680711746216,None,,,,,0,0,0,0,0,23,23,93,228.43131041526794,,,,,,,,,,,,,,,,,,,,,,,,,,,,,,,,,,,,,,,,,,,,,,,,,,,,,,,,,,,,,,,,,,,,,,,,,,,,,,,,,125.0,200.0,200.0,125.0,141.0,141.0,3.0,3.1,-258,276,0,18,229,-256,228.41677403450012,228.41681504249573,228.41942143440247,228.43131041526794,228.58164358139038,228.58164358139038,228.58164358139038,228.58164358139038,228.58164358139038,228.58164358139038,228.58164358139038,231.5165135860443,2,3.072680711746216,None,,,,,,,,,,,,,,,,,,106,3,2025-02-25_09h58.25.116,comp,2024.2.4,62.149254085194904,2025-02-25 09h58.36.997599 -0500,
24,24,0,catch,None,None,None,None,None,None,None,None,None,None,2,1.1886675357818604,None,,,,,0,0,0,0,0,24,24,127,231.53133368492126,,,,,,,,,,,,,,,,,,,,,,,,,,,,,,,,,,,,,,,,,,,,,,,,,,,,,,,,,,,,,,,,,,,,,,,,,,,,,,,,,86,104,147,178,104,86,2.2,2.21,-237,-265,0,263,228,261,231.5175998210907,231.5176420211792,231.51979637145996,231.53133368492126,231.68140268325806,231.68140268325806,231.68140268325806,231.68140268325806,231.68140268325806,231.68140268325806,231.68140268325806,232.73274111747742,2,1.1886675357818604,None,,,,,,,,,,,,,,,,,,106,3,2025-02-25_09h58.25.116,comp,2024.2.4,62.149254085194904,2025-02-25 09h58.36.997599 -0500,
25,25,0,critical,dhw,35.0,3.0,lower,70.0,70.0,133.0,57.0,57.0,133.0,2,4.7664666175842285,None,,,,,0,0,0,0,0,25,25,50,232.74801421165466,,,,,,,,,,,,,,,,,,,,,,,,,,,,,,,,,,,,,,,,,,,,,,,,,,,,,,,,,,,,,,,,,,,,,,,,,,,,,,,,,70.0,70.0,133.0,57.0,57.0,133.0,3.0,3.2,-160,-251,0,17,191,260,232.73354625701904,232.73358702659607,232.73623156547546,232.74801421165466,232.89802050590515,232.89802050590515,232.89802050590515,232.89802050590515,232.89802050590515,232.89802050590515,232.89802050590515,237.51601338386536,2,4.7664666175842285,None,,,,,,,,,,,,,,,,,,106,3,2025-02-25_09h58.25.116,comp,2024.2.4,62.149254085194904,2025-02-25 09h58.36.997599 -0500,
26,26,0,critical,whd,35.0,2.1,lower,57.0,133.0,133.0,57.0,70.0,70.0,2,3.4773287773132324,None,,,,,0,0,0,0,0,26,26,36,237.53142476081848,,,,,,,,,,,,,,,,,,,,,,,,,,,,,,,,,,,,,,,,,,,,,,,,,,,,,,,,,,,,,,,,,,,,,,,,,,,,,,,,,57.0,133.0,133.0,57.0,70.0,70.0,2.1,2.12,-191,-263,0,-253,160,284,237.5168333053589,237.51687335968018,237.51911616325378,237.53142476081848,237.6813781261444,237.6813781261444,237.6813781261444,237.6813781261444,237.6813781261444,237.6813781261444,237.6813781261444,241.01571249961853,2,3.4773287773132324,None,,,,,,,,,,,,,,,,,,106,3,2025-02-25_09h58.25.116,comp,2024.2.4,62.149254085194904,2025-02-25 09h58.36.997599 -0500,
27,27,0,critical,whd,20.0,2.1,upper,125.0,200.0,200.0,125.0,141.0,141.0,2,4.425223350524902,None,,,,,0,0,0,0,0,27,27,15,241.0314817428589,,,,,,,,,,,,,,,,,,,,,,,,,,,,,,,,,,,,,,,,,,,,,,,,,,,,,,,,,,,,,,,,,,,,,,,,,,,,,,,,,125.0,200.0,200.0,125.0,141.0,141.0,2.1,2.12,-258,-254,0,-276,229,284,241.0165536403656,241.01659440994263,241.01909923553467,241.0314817428589,241.18146872520447,241.18146872520447,241.18146872520447,241.18146872520447,241.18146872520447,241.18146872520447,241.18146872520447,245.46593499183655,2,4.425223350524902,None,,,,,,,,,,,,,,,,,,106,3,2025-02-25_09h58.25.116,comp,2024.2.4,62.149254085194904,2025-02-25 09h58.36.997599 -0500,
28,28,0,critical,hwd,20.0,2.1,upper,200.0,125.0,125.0,200.0,141.0,141.0,2,4.607433319091797,None,,,,,0,0,0,0,0,28,28,19,245.48168921470642,,,,,,,,,,,,,,,,,,,,,,,,,,,,,,,,,,,,,,,,,,,,,,,,,,,,,,,,,,,,,,,,,,,,,,,,,,,,,,,,,200.0,125.0,125.0,200.0,141.0,141.0,2.1,2.11,-258,267,0,255,266,-276,245.46673393249512,245.4667751789093,245.4689359664917,245.48168921470642,245.63152313232422,245.63152313232422,245.63152313232422,245.63152313232422,245.63152313232422,245.63152313232422,245.63152313232422,250.09929251670837,2,4.607433319091797,None,,,,,,,,,,,,,,,,,,106,3,2025-02-25_09h58.25.116,comp,2024.2.4,62.149254085194904,2025-02-25 09h58.36.997599 -0500,
29,29,0,filler_square,None,None,None,None,None,None,None,None,None,None,1,2.615809679031372,None,,,,,0,0,0,0,0,29,29,192,250.11471843719482,,,,,,,,,,,,,,,,,,,,,,,,,,,,,,,,,,,,,,,,,,,,,,,,,,,,,,,,,,,,,,,,,,,,,,,,,,,,,,,,,108.10773449518894,108.10773449518894,102.7267627370365,82.60989263488689,90.2056523879854,76.95909558859286,4.0,4.2,-191,17,0,-274,176,-13,250.1002390384674,250.10028314590454,250.10242915153503,250.11471843719482,250.2646541595459,250.2646541595459,250.2646541595459,250.2646541595459,250.2646541595459,250.2646541595459,250.2646541595459,252.7325849533081,1,2.615809679031372,None,,,,,,,,,,,,,,,,,,106,3,2025-02-25_09h58.25.116,comp,2024.2.4,62.149254085194904,2025-02-25 09h58.36.997599 -0500,
30,30,0,filler_random,None,None,None,None,None,None,None,None,None,None,3,3.1087117195129395,None,,,,,0,0,0,0,0,30,30,147,252.74801516532898,,,,,,,,,,,,,,,,,,,,,,,,,,,,,,,,,,,,,,,,,,,,,,,,,,,,,,,,,,,,,,,,,,,,,,,,,,,,,,,,,97.10180738272717,139.5444480882556,148.3593223587143,64.88230011208235,85.61885945071162,156.17210957721875,4.0,4.2,-198,0,0,-251,207,-2,252.73354411125183,252.73358607292175,252.7359504699707,252.74801516532898,252.89798998832703,252.89798998832703,252.89798998832703,252.89798998832703,252.89798998832703,252.89798998832703,252.89798998832703,255.86566185951233,3,3.1087117195129395,None,,,,,,,,,,,,,,,,,,106,3,2025-02-25_09h58.25.116,comp,2024.2.4,62.149254085194904,2025-02-25 09h58.36.997599 -0500,
31,31,0,filler_random,None,None,None,None,None,None,None,None,None,None,2,1.8384149074554443,None,,,,,0,0,0,0,0,31,31,150,255.88137912750244,,,,,,,,,,,,,,,,,,,,,,,,,,,,,,,,,,,,,,,,,,,,,,,,,,,,,,,,,,,,,,,,,,,,,,,,,,,,,,,,,110.02673255816747,68.9704496014418,167.31457885358864,199.63822845870516,180.76566310500542,80.25602427777493,2.1,2.12,-230,-258,0,-260,236,289,255.86657524108887,255.86661505699158,255.86869978904724,255.88137912750244,256.03145480155945,256.03145480155945,256.03145480155945,256.03145480155945,256.03145480155945,256.03145480155945,256.03145480155945,257.7325303554535,2,1.8384149074554443,None,,,,,,,,,,,,,,,,,,106,3,2025-02-25_09h58.25.116,comp,2024.2.4,62.149254085194904,2025-02-25 09h58.36.997599 -0500,
32,32,0,critical,hwd,20.0,3.0,upper,200.0,125.0,125.0,200.0,141.0,141.0,2,2.7172412872314453,None,,,,,0,0,0,0,0,32,32,105,257.7478258609772,,,,,,,,,,,,,,,,,,,,,,,,,,,,,,,,,,,,,,,,,,,,,,,,,,,,,,,,,,,,,,,,,,,,,,,,,,,,,,,,,200.0,125.0,125.0,200.0,141.0,141.0,3.0,3.1,-258,289,0,8,266,-257,257.7333633899689,257.7334041595459,257.7358121871948,257.7478258609772,257.8980886936188,257.8980886936188,257.8980886936188,257.8980886936188,257.8980886936188,257.8980886936188,257.8980886936188,260.4662301540375,2,2.7172412872314453,None,,,,,,,,,,,,,,,,,,106,3,2025-02-25_09h58.25.116,comp,2024.2.4,62.149254085194904,2025-02-25 09h58.36.997599 -0500,
33,33,0,critical,dhw,20.0,4.0,lower,78.0,78.0,133.0,57.0,57.0,133.0,2,2.465125560760498,None,,,,,0,0,0,0,0,33,33,58,260.48141598701477,,,,,,,,,,,,,,,,,,,,,,,,,,,,,,,,,,,,,,,,,,,,,,,,,,,,,,,,,,,,,,,,,,,,,,,,,,,,,,,,,78.0,78.0,133.0,57.0,57.0,133.0,4.0,4.2,-164,7,0,-284,191,5,260.46700286865234,260.4670445919037,260.46936082839966,260.48141598701477,260.63126516342163,260.63126516342163,260.63126516342163,260.63126516342163,260.63126516342163,260.63126516342163,260.63126516342163,262.94918847084045,2,2.465125560760498,None,,,,,,,,,,,,,,,,,,106,3,2025-02-25_09h58.25.116,comp,2024.2.4,62.149254085194904,2025-02-25 09h58.36.997599 -0500,
34,34,0,filler_square,None,None,None,None,None,None,None,None,None,None,1,2.2439234256744385,None,,,,,0,0,0,0,0,34,34,190,262.9646735191345,,,,,,,,,,,,,,,,,,,,,,,,,,,,,,,,,,,,,,,,,,,,,,,,,,,,,,,,,,,,,,,,,,,,,,,,,,,,,,,,,75.64941921313678,75.64941921313678,63.016185269487295,70.25073826373618,60.08190157723774,73.89430118243449,4.0,4.1,-169,-284,0,-11,168,-278,262.9501678943634,262.95020818710327,262.9526355266571,262.9646735191345,263.1145076751709,263.1145076751709,263.1145076751709,263.1145076751709,263.1145076751709,263.1145076751709,263.1145076751709,265.2155456542969,1,2.2439234256744385,None,,,,,,,,,,,,,,,,,,106,3,2025-02-25_09h58.25.116,comp,2024.2.4,62.149254085194904,2025-02-25 09h58.36.997599 -0500,
35,35,0,filler_square,None,None,None,None,None,None,None,None,None,None,3,1.8415069580078125,None,,,,,0,0,0,0,0,35,35,197,265.2313582897186,,,,,,,,,,,,,,,,,,,,,,,,,,,,,,,,,,,,,,,,,,,,,,,,,,,,,,,,,,,,,,,,,,,,,,,,,,,,,,,,,86.64266023724663,139.3584225722086,146.55985109767659,183.80011968349282,188.60654720485564,188.60654720485564,2.2,2.21,-258,-274,0,256,282,270,265.21650767326355,265.2165470123291,265.218697309494,265.2313582897186,265.38164472579956,265.38164472579956,265.38164472579956,265.38164472579956,265.38164472579956,265.38164472579956,265.38164472579956,267.0825684070587,3,1.8415069580078125,None,,,,,,,,,,,,,,,,,,106,3,2025-02-25_09h58.25.116,comp,2024.2.4,62.149254085194904,2025-02-25 09h58.36.997599 -0500,
36,36,0,filler_square,None,None,None,None,None,None,None,None,None,None,3,5.648375511169434,None,,,,,0,0,0,0,0,36,36,201,267.09803795814514,,,,,,,,,,,,,,,,,,,,,,,,,,,,,,,,,,,,,,,,,,,,,,,,,,,,,,,,,,,,,,,,,,,,,,,,,,,,,,,,,73.93621339283611,79.6231604543146,73.89235345563034,64.95051615508719,81.34237716863767,81.34237716863767,1.0,1.1,-648,261,-480,273,-311,275,267.083548784256,267.08359122276306,267.0858385562897,267.09803795814514,267.248108625412,267.248108625412,267.248108625412,267.248108625412,267.248108625412,267.248108625412,267.248108625412,272.74899530410767,3,5.648375511169434,None,,,,,,,,,,,,,,,,,,106,3,2025-02-25_09h58.25.116,comp,2024.2.4,62.149254085194904,2025-02-25 09h58.36.997599 -0500,
37,37,0,critical,whd,20.0,3.0,lower,57.0,133.0,133.0,57.0,78.0,78.0,2,2.9002461433410645,None,,,,,0,0,0,0,0,37,37,92,272.76450657844543,,,,,,,,,,,,,,,,,,,,,,,,,,,,,,,,,,,,,,,,,,,,,,,,,,,,,,,,,,,,,,,,,,,,,,,,,,,,,,,,,57.0,133.0,133.0,57.0,78.0,78.0,3.0,3.1,-191,283,0,-5,164,-257,272.7497956752777,272.7498354911804,272.75199365615845,272.76450657844543,272.91506266593933,272.91506266593933,272.91506266593933,272.91506266593933,272.91506266593933,272.91506266593933,272.91506266593933,275.6822922229767,2,2.9002461433410645,None,,,,,,,,,,,,,,,,,,106,3,2025-02-25_09h58.25.116,comp,2024.2.4,62.149254085194904,2025-02-25 09h58.36.997599 -0500,
38,38,0,filler_random,None,None,None,None,None,None,None,None,None,None,1,2.005866527557373,None,,,,,0,0,0,0,0,38,38,152,275.6977424621582,,,,,,,,,,,,,,,,,,,,,,,,,,,,,,,,,,,,,,,,,,,,,,,,,,,,,,,,,,,,,,,,,,,,,,,,,,,,,,,,,104.10267271136524,133.3742472781222,70.12553856234442,102.10821897694424,156.6474309077804,67.64325018349952,1.0,1.3,266,-273,480,-269,661,-277,275.6832377910614,275.68327808380127,275.6864960193634,275.6977424621582,275.8479371070862,275.8479371070862,275.8479371070862,275.8479371070862,275.8479371070862,275.8479371070862,275.8479371070862,277.7156753540039,1,2.005866527557373,None,,,,,,,,,,,,,,,,,,106,3,2025-02-25_09h58.25.116,comp,2024.2.4,62.149254085194904,2025-02-25 09h58.36.997599 -0500,
39,39,0,critical,dhw,20.0,3.0,upper,141.0,141.0,200.0,125.0,125.0,200.0,3,2.5173749923706055,None,,,,,0,0,0,0,0,39,39,57,277.73106718063354,,,,,,,,,,,,,,,,,,,,,,,,,,,,,,,,,,,,,,,,,,,,,,,,,,,,,,,,,,,,,,,,,,,,,,,,,,,,,,,,,141.0,141.0,200.0,125.0,125.0,200.0,3.0,3.1,-229,261,0,15,258,-252,277.7164795398712,277.7165176868439,277.71996426582336,277.73106718063354,277.88152861595154,277.88152861595154,277.88152861595154,277.88152861595154,277.88152861595154,277.88152861595154,277.88152861595154,280.2657308578491,3,2.5173749923706055,None,,,,,,,,,,,,,,,,,,106,3,2025-02-25_09h58.25.116,comp,2024.2.4,62.149254085194904,2025-02-25 09h58.36.997599 -0500,
40,40,0,critical,whd,35.0,2.1,upper,125.0,200.0,200.0,125.0,127.0,127.0,2,3.791834831237793,None,,,,,0,0,0,0,0,40,40,13,280.28102445602417,,,,,,,,,,,,,,,,,,,,,,,,,,,,,,,,,,,,,,,,,,,,,,,,,,,,,,,,,,,,,,,,,,,,,,,,,,,,,,,,,125.0,200.0,200.0,125.0,127.0,127.0,2.1,2.12,-258,-253,0,-287,222,273,280.2665641307831,280.2666046619415,280.26926612854004,280.28102445602417,280.4313337802887,280.4313337802887,280.4313337802887,280.4313337802887,280.4313337802887,280.4313337802887,280.4313337802887,284.0824761390686,2,3.791834831237793,None,,,,,,,,,,,,,,,,,,106,3,2025-02-25_09h58.25.116,comp,2024.2.4,62.149254085194904,2025-02-25 09h58.36.997599 -0500,
41,41,0,catch,None,None,None,None,None,None,None,None,None,None,3,2.2860889434814453,None,,,,,0,0,0,0,0,41,41,128,284.0979619026184,,,,,,,,,,,,,,,,,,,,,,,,,,,,,,,,,,,,,,,,,,,,,,,,,,,,,,,,,,,,,,,,,,,,,,,,,,,,,,,,,85,105,101,89,131,194,2.2,2.22,-193,266,0,-288,238,-288,284.08354330062866,284.0835852622986,284.08598828315735,284.0979619026184,284.2477526664734,284.2477526664734,284.2477526664734,284.2477526664734,284.2477526664734,284.2477526664734,284.2477526664734,286.39879965782166,3,2.2860889434814453,None,,,,,,,,,,,,,,,,,,106,3,2025-02-25_09h58.25.116,comp,2024.2.4,62.149254085194904,2025-02-25 09h58.36.997599 -0500,
42,42,0,critical,wdh,35.0,2.1,upper,125.0,200.0,127.0,127.0,200.0,125.0,3,3.4342479705810547,None,,,,,0,0,0,0,0,42,42,33,286.41416692733765,,,,,,,,,,,,,,,,,,,,,,,,,,,,,,,,,,,,,,,,,,,,,,,,,,,,,,,,,,,,,,,,,,,,,,,,,,,,,,,,,125.0,200.0,127.0,127.0,200.0,125.0,2.1,2.12,-260,-256,0,-253,222,264,286.3996105194092,286.39964985847473,286.40220165252686,286.41416692733765,286.56450748443604,286.56450748443604,286.56450748443604,286.56450748443604,286.56450748443604,286.56450748443604,286.56450748443604,289.86557936668396,3,3.4342479705810547,None,,,,,,,,,,,,,,,,,,106,3,2025-02-25_09h58.25.116,comp,2024.2.4,62.149254085194904,2025-02-25 09h58.36.997599 -0500,
43,43,0,critical,wdh,20.0,2.1,upper,125.0,200.0,141.0,141.0,200.0,125.0,3,5.750952959060669,None,,,,,0,0,0,0,0,43,43,11,289.88087153434753,,,,,,,,,,,,,,,,,,,,,,,,,,,,,,,,,,,,,,,,,,,,,,,,,,,,,,,,,,,,,,,,,,,,,,,,,,,,,,,,,125.0,200.0,141.0,141.0,200.0,125.0,2.1,2.11,-266,270,0,290,229,-251,289.86637139320374,289.86641025543213,289.8688232898712,289.88087153434753,290.0313193798065,290.0313193798065,290.0313193798065,290.0313193798065,290.0313193798065,290.0313193798065,290.0313193798065,295.64892864227295,3,5.750952959060669,None,,,,,,,,,,,,,,,,,,106,3,2025-02-25_09h58.25.116,comp,2024.2.4,62.149254085194904,2025-02-25 09h58.36.997599 -0500,
44,44,0,filler_random,None,None,None,None,None,None,None,None,None,None,2,2.5852410793304443,None,,,,,0,0,0,0,0,44,44,133,295.6641335487366,,,,,,,,,,,,,,,,,,,,,,,,,,,,,,,,,,,,,,,,,,,,,,,,,,,,,,,,,,,,,,,,,,,,,,,,,,,,,,,,,68.99360147513703,105.21151248419477,189.95906346421734,164.42254227080758,77.96049986738436,144.26309088677232,1.0,1.2,-231,-5,0,-1,250,10,295.64984369277954,295.64988350868225,295.6521291732788,295.6641335487366,295.8143308162689,295.8143308162689,295.8143308162689,295.8143308162689,295.8143308162689,295.8143308162689,295.8143308162689,298.265620470047,2,2.5852410793304443,None,,,,,,,,,,,,,,,,,,106,3,2025-02-25_09h58.25.116,comp,2024.2.4,62.149254085194904,2025-02-25 09h58.36.997599 -0500,
45,45,0,critical,hdw,35.0,3.0,upper,200.0,125.0,127.0,127.0,125.0,200.0,1,2.1032354831695557,None,,,,,0,0,0,0,0,45,45,111,298.280885219574,,,,,,,,,,,,,,,,,,,,,,,,,,,,,,,,,,,,,,,,,,,,,,,,,,,,,,,,,,,,,,,,,,,,,,,,,,,,,,,,,200.0,125.0,127.0,127.0,125.0,200.0,3.0,3.2,-222,-257,0,8,260,264,298.26642632484436,298.2664668560028,298.2688715457916,298.280885219574,298.43107295036316,298.43107295036316,298.43107295036316,298.43107295036316,298.43107295036316,298.43107295036316,298.43107295036316,300.3988139629364,1,2.1032354831695557,None,,,,,,,,,,,,,,,,,,106,3,2025-02-25_09h58.25.116,comp,2024.2.4,62.149254085194904,2025-02-25 09h58.36.997599 -0500,
46,46,0,critical,hdw,35.0,4.0,lower,133.0,57.0,70.0,70.0,57.0,133.0,1,2.5473721027374268,None,,,,,0,0,0,0,0,46,46,112,300.41412925720215,,,,,,,,,,,,,,,,,,,,,,,,,,,,,,,,,,,,,,,,,,,,,,,,,,,,,,,,,,,,,,,,,,,,,,,,,,,,,,,,,133.0,57.0,70.0,70.0,57.0,133.0,4.0,4.2,-160,5,0,-262,198,-13,300.3995907306671,300.39962792396545,300.4021134376526,300.41412925720215,300.5642590522766,300.5642590522766,300.5642590522766,300.5642590522766,300.5642590522766,300.5642590522766,300.5642590522766,302.9654951095581,1,2.5473721027374268,None,,,,,,,,,,,,,,,,,,106,3,2025-02-25_09h58.25.116,comp,2024.2.4,62.149254085194904,2025-02-25 09h58.36.997599 -0500,
47,47,0,filler_random,None,None,None,None,None,None,None,None,None,None,1,1.9000952243804932,None,,,,,0,0,0,0,0,47,47,163,302.9810400009155,,,,,,,,,,,,,,,,,,,,,,,,,,,,,,,,,,,,,,,,,,,,,,,,,,,,,,,,,,,,,,,,,,,,,,,,,,,,,,,,,177.75998952495036,93.36584046837935,84.39412052813617,73.64501349738973,119.9767987123451,66.70740220773757,2.2,2.21,-180,-274,0,275,166,258,302.96639585494995,302.96643710136414,302.9685800075531,302.9810400009155,303.13091683387756,303.13091683387756,303.13091683387756,303.13091683387756,303.13091683387756,303.13091683387756,303.13091683387756,304.89865350723267,1,1.9000952243804932,None,,,,,,,,,,,,,,,,,,106,3,2025-02-25_09h58.25.116,comp,2024.2.4,62.149254085194904,2025-02-25 09h58.36.997599 -0500,
48,48,0,critical,wdh,20.0,4.0,upper,125.0,200.0,141.0,141.0,200.0,125.0,1,6.510281085968018,None,,,,,0,0,0,0,0,48,48,83,304.91412568092346,,,,,,,,,,,,,,,,,,,,,,,,,,,,,,,,,,,,,,,,,,,,,,,,,,,,,,,,,,,,,,,,,,,,,,,,,,,,,,,,,125.0,200.0,141.0,141.0,200.0,125.0,4.0,4.2,-266,17,0,-288,229,9,304.8994565010071,304.89949560165405,304.9019868373871,304.91412568092346,305.0647463798523,305.0647463798523,305.0647463798523,305.0647463798523,305.0647463798523,305.0647463798523,305.0647463798523,311.43225264549255,1,6.510281085968018,None,,,,,,,,,,,,,,,,,,106,3,2025-02-25_09h58.25.116,comp,2024.2.4,62.149254085194904,2025-02-25 09h58.36.997599 -0500,
49,49,0,critical,dwh,20.0,2.1,upper,141.0,141.0,125.0,200.0,200.0,125.0,3,2.600792407989502,None,,,,,0,0,0,0,0,49,49,31,311.4477000236511,,,,,,,,,,,,,,,,,,,,,,,,,,,,,,,,,,,,,,,,,,,,,,,,,,,,,,,,,,,,,,,,,,,,,,,,,,,,,,,,,141.0,141.0,125.0,200.0,200.0,125.0,2.1,2.11,-266,276,0,281,258,-288,311.43304681777954,311.4330883026123,311.4354066848755,311.4477000236511,311.59780645370483,311.59780645370483,311.59780645370483,311.59780645370483,311.59780645370483,311.59780645370483,311.59780645370483,314.0655448436737,3,2.600792407989502,None,,,,,,,,,,,,,,,,,,106,3,2025-02-25_09h58.25.116,comp,2024.2.4,62.149254085194904,2025-02-25 09h58.36.997599 -0500,
50,50,0,critical,hdw,20.0,2.1,upper,200.0,125.0,141.0,141.0,125.0,200.0,1,1.9918270111083984,None,,,,,0,0,0,0,0,50,50,23,314.0808045864105,,,,,,,,,,,,,,,,,,,,,,,,,,,,,,,,,,,,,,,,,,,,,,,,,,,,,,,,,,,,,,,,,,,,,,,,,,,,,,,,,200.0,125.0,141.0,141.0,125.0,200.0,2.1,2.11,-229,268,0,261,266,-286,314.06634974479675,314.06638956069946,314.06885051727295,314.0808045864105,314.2205150127411,314.2205150127411,314.2205150127411,314.2205150127411,314.2205150127411,314.2205150127411,314.2205150127411,316.0822401046753,1,1.9918270111083984,None,,,,,,,,,,,,,,,,,,106,3,2025-02-25_09h58.25.116,comp,2024.2.4,62.149254085194904,2025-02-25 09h58.36.997599 -0500,
51,51,0,critical,dwh,20.0,3.0,upper,141.0,141.0,125.0,200.0,200.0,125.0,3,1.2861552238464355,None,,,,,0,0,0,0,0,51,51,69,316.0975921154022,,,,,,,,,,,,,,,,,,,,,,,,,,,,,,,,,,,,,,,,,,,,,,,,,,,,,,,,,,,,,,,,,,,,,,,,,,,,,,,,,141.0,141.0,125.0,200.0,200.0,125.0,3.0,3.2,-266,-278,0,1,258,254,316.0830428600311,316.08308458328247,316.08548069000244,316.0975921154022,316.24773716926575,316.24773716926575,316.24773716926575,316.24773716926575,316.24773716926575,316.24773716926575,316.24773716926575,317.3985826969147,3,1.2861552238464355,None,,,,,,,,,,,,,,,,,,106,3,2025-02-25_09h58.25.116,comp,2024.2.4,62.149254085194904,2025-02-25 09h58.36.997599 -0500,
52,52,0,filler_square,None,None,None,None,None,None,None,None,None,None,1,1.7320466041564941,None,,,,,0,0,0,0,0,52,52,178,317.41408348083496,,,,,,,,,,,,,,,,,,,,,,,,,,,,,,,,,,,,,,,,,,,,,,,,,,,,,,,,,,,,,,,,,,,,,,,,,,,,,,,,,82.63725341457567,82.63725341457567,67.13731864382883,64.35979724343396,68.33125952915522,63.65090107070954,3.0,3.1,-169,260,0,-2,160,-289,317.3996789455414,317.3997185230255,317.40200686454773,317.41408348083496,317.56416416168213,317.56416416168213,317.56416416168213,317.56416416168213,317.56416416168213,317.56416416168213,317.56416416168213,319.14877581596375,1,1.7320466041564941,None,,,,,,,,,,,,,,,,,,106,3,2025-02-25_09h58.25.116,comp,2024.2.4,62.149254085194904,2025-02-25 09h58.36.997599 -0500,
53,53,0,critical,hwd,35.0,2.1,upper,200.0,125.0,125.0,200.0,127.0,127.0,1,2.9003336429595947,None,,,,,0,0,0,0,0,53,53,41,319.16427850723267,,,,,,,,,,,,,,,,,,,,,,,,,,,,,,,,,,,,,,,,,,,,,,,,,,,,,,,,,,,,,,,,,,,,,,,,,,,,,,,,,200.0,125.0,125.0,200.0,127.0,127.0,2.1,2.12,-258,-263,0,-275,260,262,319.1496253013611,319.1496648788452,319.1518461704254,319.16427850723267,319.3146538734436,319.3146538734436,319.3146538734436,319.3146538734436,319.3146538734436,319.3146538734436,319.3146538734436,322.06574010849,1,2.9003336429595947,None,,,,,,,,,,,,,,,,,,106,3,2025-02-25_09h58.25.116,comp,2024.2.4,62.149254085194904,2025-02-25 09h58.36.997599 -0500,
54,54,0,critical,dhw,20.0,2.1,upper,141.0,141.0,200.0,125.0,125.0,200.0,2,2.3505194187164307,None,,,,,0,0,0,0,0,54,54,3,322.0809020996094,,,,,,,,,,,,,,,,,,,,,,,,,,,,,,,,,,,,,,,,,,,,,,,,,,,,,,,,,,,,,,,,,,,,,,,,,,,,,,,,,141.0,141.0,200.0,125.0,125.0,200.0,2.1,2.12,-229,-273,0,-286,258,263,322.0665280818939,322.0665702819824,322.0687234401703,322.0809020996094,322.2310254573822,322.2310254573822,322.2310254573822,322.2310254573822,322.2310254573822,322.2310254573822,322.2310254573822,324.4486930370331,2,2.3505194187164307,None,,,,,,,,,,,,,,,,,,106,3,2025-02-25_09h58.25.116,comp,2024.2.4,62.149254085194904,2025-02-25 09h58.36.997599 -0500,
55,55,0,critical,dwh,35.0,2.1,upper,127.0,127.0,125.0,200.0,200.0,125.0,3,1.51188325881958,None,,,,,0,0,0,0,0,55,55,5,324.4805829524994,,,,,,,,,,,,,,,,,,,,,,,,,,,,,,,,,,,,,,,,,,,,,,,,,,,,,,,,,,,,,,,,,,,,,,,,,,,,,,,,,127.0,127.0,125.0,200.0,200.0,125.0,2.1,2.11,-260,260,0,290,258,-284,324.4495086669922,324.4495484828949,324.45203161239624,324.4805829524994,324.6143412590027,324.6143412590027,324.6143412590027,324.6143412590027,324.6143412590027,324.6143412590027,324.6143412590027,325.9988317489624,3,1.51188325881958,None,,,,,,,,,,,,,,,,,,106,3,2025-02-25_09h58.25.116,comp,2024.2.4,62.149254085194904,2025-02-25 09h58.36.997599 -0500,
56,56,0,critical,dhw,35.0,4.0,lower,70.0,70.0,133.0,57.0,57.0,133.0,2,2.169257164001465,None,,,,,0,0,0,0,0,56,56,52,326.0142731666565,,,,,,,,,,,,,,,,,,,,,,,,,,,,,,,,,,,,,,,,,,,,,,,,,,,,,,,,,,,,,,,,,,,,,,,,,,,,,,,,,70.0,70.0,133.0,57.0,57.0,133.0,4.0,4.2,-160,-17,0,-279,191,-18,325.9996213912964,325.9996612071991,326.002197265625,326.0142731666565,326.16402077674866,326.16402077674866,326.16402077674866,326.16402077674866,326.16402077674866,326.16402077674866,326.16402077674866,328.1984622478485,2,2.169257164001465,None,,,,,,,,,,,,,,,,,,106,3,2025-02-25_09h58.25.116,comp,2024.2.4,62.149254085194904,2025-02-25 09h58.36.997599 -0500,
57,57,0,filler_random,None,None,None,None,None,None,None,None,None,None,1,7.7214577198028564,None,,,,,0,0,0,0,0,57,57,158,328.21391558647156,,,,,,,,,,,,,,,,,,,,,,,,,,,,,,,,,,,,,,,,,,,,,,,,,,,,,,,,,,,,,,,,,,,,,,,,,,,,,,,,,168.15376965387878,132.16476373875892,141.66066865001494,169.22690311527248,115.0611645592769,173.62343301462752,2.2,2.21,-247,-259,0,282,267,276,328.1993353366852,328.1993749141693,328.20179510116577,328.21391558647156,328.3642964363098,328.3642964363098,328.3642964363098,328.3642964363098,328.3642964363098,328.3642964363098,328.3642964363098,335.94863533973694,1,7.7214577198028564,None,,,,,,,,,,,,,,,,,,106,3,2025-02-25_09h58.25.116,comp,2024.2.4,62.149254085194904,2025-02-25 09h58.36.997599 -0500,
58,58,0,filler_random,None,None,None,None,None,None,None,None,None,None,1,1.1086597442626953,None,,,,,0,0,0,0,0,58,58,169,335.9638478755951,,,,,,,,,,,,,,,,,,,,,,,,,,,,,,,,,,,,,,,,,,,,,,,,,,,,,,,,,,,,,,,,,,,,,,,,,,,,,,,,,191.1134902223593,198.13308552530515,185.26058555516818,75.99125086921866,81.18720191135552,84.81214463708777,1.0,1.2,-233,8,0,6,176,-5,335.94954919815063,335.9495904445648,335.95204877853394,335.9638478755951,336.11413741111755,336.11413741111755,336.11413741111755,336.11413741111755,336.11413741111755,336.11413741111755,336.11413741111755,337.08189392089844,1,1.1086597442626953,None,,,,,,,,,,,,,,,,,,106,3,2025-02-25_09h58.25.116,comp,2024.2.4,62.149254085194904,2025-02-25 09h58.36.997599 -0500,
59,59,0,critical,whd,20.0,2.1,lower,57.0,133.0,133.0,57.0,78.0,78.0,2,2.5668444633483887,None,,,,,0,0,0,0,0,59,59,14,337.09743452072144,,,,,,,,,,,,,,,,,,,,,,,,,,,,,,,,,,,,,,,,,,,,,,,,,,,,,,,,,,,,,,,,,,,,,,,,,,,,,,,,,57.0,133.0,133.0,57.0,78.0,78.0,2.1,2.12,-191,-250,0,-275,164,255,337.08268904685974,337.0827281475067,337.0852336883545,337.09743452072144,337.247597694397,337.247597694397,337.247597694397,337.247597694397,337.247597694397,337.247597694397,337.247597694397,339.68171668052673,2,2.5668444633483887,None,,,,,,,,,,,,,,,,,,106,3,2025-02-25_09h58.25.116,comp,2024.2.4,62.149254085194904,2025-02-25 09h58.36.997599 -0500,
60,60,0,filler_square,None,None,None,None,None,None,None,None,None,None,3,1.663872241973877,None,,,,,0,0,0,0,0,60,60,188,339.6971969604492,,,,,,,,,,,,,,,,,,,,,,,,,,,,,,,,,,,,,,,,,,,,,,,,,,,,,,,,,,,,,,,,,,,,,,,,,,,,,,,,,69.15613432830023,82.84395947111867,91.70584539714005,81.54208376508072,110.41406836344242,110.41406836344242,3.0,3.1,-178,272,0,-20,192,-263,339.6826388835907,339.68267822265625,339.68523693084717,339.6971969604492,339.84733390808105,339.84733390808105,339.84733390808105,339.84733390808105,339.84733390808105,339.84733390808105,339.84733390808105,341.3652081489563,3,1.663872241973877,None,,,,,,,,,,,,,,,,,,106,3,2025-02-25_09h58.25.116,comp,2024.2.4,62.149254085194904,2025-02-25 09h58.36.997599 -0500,
61,61,0,critical,dwh,35.0,4.0,lower,70.0,70.0,57.0,133.0,133.0,57.0,2,3.2113075256347656,None,,,,,0,0,0,0,0,61,61,64,341.3807907104492,,,,,,,,,,,,,,,,,,,,,,,,,,,,,,,,,,,,,,,,,,,,,,,,,,,,,,,,,,,,,,,,,,,,,,,,,,,,,,,,,70.0,70.0,57.0,133.0,133.0,57.0,4.0,4.2,-198,-16,0,-280,191,-2,341.36601161956787,341.36605072021484,341.36819648742676,341.3807907104492,341.53067326545715,341.53067326545715,341.53067326545715,341.53067326545715,341.53067326545715,341.53067326545715,341.53067326545715,344.5983591079712,2,3.2113075256347656,None,,,,,,,,,,,,,,,,,,106,3,2025-02-25_09h58.25.116,comp,2024.2.4,62.149254085194904,2025-02-25 09h58.36.997599 -0500,
62,62,0,critical,dhw,20.0,2.1,lower,78.0,78.0,133.0,57.0,57.0,133.0,2,2.801262617111206,None,,,,,0,0,0,0,0,62,62,26,344.61406898498535,,,,,,,,,,,,,,,,,,,,,,,,,,,,,,,,,,,,,,,,,,,,,,,,,,,,,,,,,,,,,,,,,,,,,,,,,,,,,,,,,78.0,78.0,133.0,57.0,57.0,133.0,2.1,2.11,-164,283,0,267,191,-275,344.59914994239807,344.5991909503937,344.6012713909149,344.61406898498535,344.76393389701843,344.76393389701843,344.76393389701843,344.76393389701843,344.76393389701843,344.76393389701843,344.76393389701843,347.4318323135376,2,2.801262617111206,None,,,,,,,,,,,,,,,,,,106,3,2025-02-25_09h58.25.116,comp,2024.2.4,62.149254085194904,2025-02-25 09h58.36.997599 -0500,
63,63,0,catch,None,None,None,None,None,None,None,None,None,None,1,1.1930818557739258,None,,,,,0,0,0,0,0,63,63,122,347.4472436904907,,,,,,,,,,,,,,,,,,,,,,,,,,,,,,,,,,,,,,,,,,,,,,,,,,,,,,,,,,,,,,,,,,,,,,,,,,,,,,,,,134,191,70,120,116,74,2.2,2.21,-252,-274,0,263,193,281,347.4329044818878,347.4329442977905,347.43550515174866,347.4472436904907,347.59733271598816,347.59733271598816,347.59733271598816,347.59733271598816,347.59733271598816,347.59733271598816,347.59733271598816,348.64844608306885,1,1.1930818557739258,None,,,,,,,,,,,,,,,,,,106,3,2025-02-25_09h58.25.116,comp,2024.2.4,62.149254085194904,2025-02-25 09h58.36.997599 -0500,
64,64,0,critical,hwd,20.0,2.1,lower,133.0,57.0,57.0,133.0,78.0,78.0,1,2.255218029022217,None,,,,,0,0,0,0,0,64,64,18,348.6639337539673,,,,,,,,,,,,,,,,,,,,,,,,,,,,,,,,,,,,,,,,,,,,,,,,,,,,,,,,,,,,,,,,,,,,,,,,,,,,,,,,,133.0,57.0,57.0,133.0,78.0,78.0,2.1,2.12,-191,-289,0,-273,202,282,348.6492557525635,348.6492977142334,348.6517639160156,348.6639337539673,348.8139171600342,348.8139171600342,348.8139171600342,348.8139171600342,348.8139171600342,348.8139171600342,348.8139171600342,350.93171072006226,1,2.255218029022217,None,,,,,,,,,,,,,,,,,,106,3,2025-02-25_09h58.25.116,comp,2024.2.4,62.149254085194904,2025-02-25 09h58.36.997599 -0500,
65,65,0,critical,whd,35.0,4.0,lower,57.0,133.0,133.0,57.0,70.0,70.0,2,2.836458683013916,None,,,,,0,0,0,0,0,65,65,88,350.9471261501312,,,,,,,,,,,,,,,,,,,,,,,,,,,,,,,,,,,,,,,,,,,,,,,,,,,,,,,,,,,,,,,,,,,,,,,,,,,,,,,,,57.0,133.0,133.0,57.0,70.0,70.0,4.0,4.2,-191,8,0,-288,160,-11,350.93251061439514,350.9325501918793,350.9350552558899,350.9471261501312,351.09748125076294,351.09748125076294,351.09748125076294,351.09748125076294,351.09748125076294,351.09748125076294,351.09748125076294,353.79847240448,2,2.836458683013916,None,,,,,,,,,,,,,,,,,,106,3,2025-02-25_09h58.25.116,comp,2024.2.4,62.149254085194904,2025-02-25 09h58.36.997599 -0500,
66,66,0,filler_square,None,None,None,None,None,None,None,None,None,None,2,1.499861240386963,None,,,,,0,0,0,0,0,66,66,203,353.8138270378113,,,,,,,,,,,,,,,,,,,,,,,,,,,,,,,,,,,,,,,,,,,,,,,,,,,,,,,,,,,,,,,,,,,,,,,,,,,,,,,,,72.13690881870714,89.0340719246687,103.70364651613187,103.70364651613187,85.79612520433696,57.007108998207656,1.0,1.3,288,-274,480,-279,656,-259,353.7994649410248,353.7995054721832,353.8019480705261,353.8138270378113,353.9638569355011,353.9638569355011,353.9638569355011,353.9638569355011,353.9638569355011,353.9638569355011,353.9638569355011,355.3151547908783,2,1.499861240386963,None,,,,,,,,,,,,,,,,,,106,3,2025-02-25_09h58.25.116,comp,2024.2.4,62.149254085194904,2025-02-25 09h58.36.997599 -0500,
67,67,0,filler_square,None,None,None,None,None,None,None,None,None,None,2,1.125382900238037,None,,,,,0,0,0,0,0,67,67,184,355.330712556839,,,,,,,,,,,,,,,,,,,,,,,,,,,,,,,,,,,,,,,,,,,,,,,,,,,,,,,,,,,,,,,,,,,,,,,,,,,,,,,,,57.03354987945407,90.74154983621314,97.53257329395474,97.53257329395474,84.01305782115602,94.15766038913267,2.1,2.12,-190,-283,0,-267,192,280,355.31619143486023,355.316241979599,355.31840991973877,355.330712556839,355.4807960987091,355.4807960987091,355.4807960987091,355.4807960987091,355.4807960987091,355.4807960987091,355.4807960987091,356.46492743492126,2,1.125382900238037,None,,,,,,,,,,,,,,,,,,106,3,2025-02-25_09h58.25.116,comp,2024.2.4,62.149254085194904,2025-02-25 09h58.36.997599 -0500,
68,68,0,critical,dhw,20.0,1.0,upper,141.0,141.0,200.0,125.0,125.0,200.0,2,2.433095693588257,None,,,,,0,0,0,0,0,68,68,55,356.48058342933655,,,,,,,,,,,,,,,,,,,,,,,,,,,,,,,,,,,,,,,,,,,,,,,,,,,,,,,,,,,,,,,,,,,,,,,,,,,,,,,,,141.0,141.0,200.0,125.0,125.0,200.0,1.0,1.1,-709,265,-480,273,-222,250,356.4657521247864,356.46579337120056,356.4683358669281,356.48058342933655,356.63081455230713,356.63081455230713,356.63081455230713,356.63081455230713,356.63081455230713,356.63081455230713,356.63081455230713,358.91543912887573,2,2.433095693588257,None,,,,,,,,,,,,,,,,,,106,3,2025-02-25_09h58.25.116,comp,2024.2.4,62.149254085194904,2025-02-25 09h58.36.997599 -0500,
69,69,0,critical,wdh,20.0,4.0,lower,57.0,133.0,78.0,78.0,133.0,57.0,3,4.8044281005859375,None,,,,,0,0,0,0,0,69,69,82,358.9307999610901,,,,,,,,,,,,,,,,,,,,,,,,,,,,,,,,,,,,,,,,,,,,,,,,,,,,,,,,,,,,,,,,,,,,,,,,,,,,,,,,,57.0,133.0,78.0,78.0,133.0,57.0,4.0,4.1,-202,-255,0,12,164,-270,358.91639494895935,358.91643476486206,358.9186861515045,358.9307999610901,359.08163189888,359.08163189888,359.08163189888,359.08163189888,359.08163189888,359.08163189888,359.08163189888,363.7482795715332,3,4.8044281005859375,None,,,,,,,,,,,,,,,,,,106,3,2025-02-25_09h58.25.116,comp,2024.2.4,62.149254085194904,2025-02-25 09h58.36.997599 -0500,
70,70,0,critical,whd,35.0,2.1,upper,125.0,200.0,200.0,125.0,127.0,127.0,2,3.517324209213257,None,,,,,0,0,0,0,0,70,70,37,363.7636787891388,,,,,,,,,,,,,,,,,,,,,,,,,,,,,,,,,,,,,,,,,,,,,,,,,,,,,,,,,,,,,,,,,,,,,,,,,,,,,,,,,125.0,200.0,200.0,125.0,127.0,127.0,2.1,2.11,-258,257,0,276,222,-284,363.74906396865845,363.74910283088684,363.7511775493622,363.7636787891388,363.9140088558197,363.9140088558197,363.9140088558197,363.9140088558197,363.9140088558197,363.9140088558197,363.9140088558197,367.2986261844635,2,3.517324209213257,None,,,,,,,,,,,,,,,,,,106,3,2025-02-25_09h58.25.116,comp,2024.2.4,62.149254085194904,2025-02-25 09h58.36.997599 -0500,
71,71,0,filler_random,None,None,None,None,None,None,None,None,None,None,3,1.0161561965942383,None,,,,,0,0,0,0,0,71,71,153,367.31381487846375,,,,,,,,,,,,,,,,,,,,,,,,,,,,,,,,,,,,,,,,,,,,,,,,,,,,,,,,,,,,,,,,,,,,,,,,,,,,,,,,,100.51178985793405,108.8151624409941,172.79446040948028,74.57517427160691,195.90187430565283,165.89478412681643,2.1,2.12,-188,-272,0,-267,216,280,367.29951548576355,367.2995536327362,367.301926612854,367.31381487846375,367.4639563560486,367.4639563560486,367.4639563560486,367.4639563560486,367.4639563560486,367.4639563560486,367.4639563560486,368.3483395576477,3,1.0161561965942383,None,,,,,,,,,,,,,,,,,,106,3,2025-02-25_09h58.25.116,comp,2024.2.4,62.149254085194904,2025-02-25 09h58.36.997599 -0500,
72,72,0,critical,hdw,20.0,1.0,lower,133.0,57.0,78.0,78.0,57.0,133.0,1,1.7338674068450928,None,,,,,0,0,0,0,0,72,72,114,368.36369228363037,,,,,,,,,,,,,,,,,,,,,,,,,,,,,,,,,,,,,,,,,,,,,,,,,,,,,,,,,,,,,,,,,,,,,,,,,,,,,,,,,133.0,57.0,78.0,78.0,57.0,133.0,1.0,1.2,-164,-12,0,18,202,-3,368.3490900993347,368.34912872314453,368.35149455070496,368.36369228363037,368.5138158798218,368.5138158798218,368.5138158798218,368.5138158798218,368.5138158798218,368.5138158798218,368.5138158798218,370.11474776268005,1,1.7338674068450928,None,,,,,,,,,,,,,,,,,,106,3,2025-02-25_09h58.25.116,comp,2024.2.4,62.149254085194904,2025-02-25 09h58.36.997599 -0500,
73,73,0,critical,dwh,20.0,1.0,upper,141.0,141.0,125.0,200.0,200.0,125.0,3,1.7835109233856201,None,,,,,0,0,0,0,0,73,73,67,370.1302800178528,,,,,,,,,,,,,,,,,,,,,,,,,,,,,,,,,,,,,,,,,,,,,,,,,,,,,,,,,,,,,,,,,,,,,,,,,,,,,,,,,141.0,141.0,125.0,200.0,200.0,125.0,1.0,1.3,214,-274,480,-286,738,-288,370.1155605316162,370.11560010910034,370.1181056499481,370.1302800178528,370.2808487415314,370.2808487415314,370.2808487415314,370.2808487415314,370.2808487415314,370.2808487415314,370.2808487415314,371.93172574043274,3,1.7835109233856201,None,,,,,,,,,,,,,,,,,,106,3,2025-02-25_09h58.25.116,comp,2024.2.4,62.149254085194904,2025-02-25 09h58.36.997599 -0500,
74,74,0,filler_square,None,None,None,None,None,None,None,None,None,None,3,2.236146926879883,None,,,,,0,0,0,0,0,74,74,175,371.94701194763184,,,,,,,,,,,,,,,,,,,,,,,,,,,,,,,,,,,,,,,,,,,,,,,,,,,,,,,,,,,,,,,,,,,,,,,,,,,,,,,,,78.39985819521313,60.105499511269166,80.44711947919785,59.054841523884384,81.5596365418432,81.5596365418432,3.0,3.1,-156,259,0,-11,166,-280,371.93273067474365,371.93277072906494,371.9352524280548,371.94701194763184,372.0974192619324,372.0974192619324,372.0974192619324,372.0974192619324,372.0974192619324,372.0974192619324,372.0974192619324,374.19817757606506,3,2.236146926879883,None,,,,,,,,,,,,,,,,,,106,3,2025-02-25_09h58.25.116,comp,2024.2.4,62.149254085194904,2025-02-25 09h58.36.997599 -0500,
75,75,0,critical,hwd,20.0,4.0,lower,133.0,57.0,57.0,133.0,78.0,78.0,1,1.5053467750549316,None,,,,,0,0,0,0,0,75,75,106,374.2136402130127,,,,,,,,,,,,,,,,,,,,,,,,,,,,,,,,,,,,,,,,,,,,,,,,,,,,,,,,,,,,,,,,,,,,,,,,,,,,,,,,,133.0,57.0,57.0,133.0,78.0,78.0,4.0,4.1,-191,-267,0,14,202,-284,374.19899320602417,374.19903349876404,374.20117235183716,374.2136402130127,374.36371326446533,374.36371326446533,374.36371326446533,374.36371326446533,374.36371326446533,374.36371326446533,374.36371326446533,375.7315764427185,1,1.5053467750549316,None,,,,,,,,,,,,,,,,,,106,3,2025-02-25_09h58.25.116,comp,2024.2.4,62.149254085194904,2025-02-25 09h58.36.997599 -0500,
76,76,0,critical,hdw,35.0,3.0,lower,133.0,57.0,70.0,70.0,57.0,133.0,1,2.220137357711792,None,,,,,0,0,0,0,0,76,76,110,375.74702739715576,,,,,,,,,,,,,,,,,,,,,,,,,,,,,,,,,,,,,,,,,,,,,,,,,,,,,,,,,,,,,,,,,,,,,,,,,,,,,,,,,133.0,57.0,70.0,70.0,57.0,133.0,3.0,3.2,-160,-276,0,5,198,281,375.7323977947235,375.7324376106262,375.73501539230347,375.74702739715576,375.8971836566925,375.8971836566925,375.8971836566925,375.8971836566925,375.8971836566925,375.8971836566925,375.8971836566925,377.9813861846924,1,2.220137357711792,None,,,,,,,,,,,,,,,,,,106,3,2025-02-25_09h58.25.116,comp,2024.2.4,62.149254085194904,2025-02-25 09h58.36.997599 -0500,
77,77,0,critical,hwd,35.0,2.1,lower,133.0,57.0,57.0,133.0,70.0,70.0,1,1.9862759113311768,None,,,,,0,0,0,0,0,77,77,40,377.99684882164,,,,,,,,,,,,,,,,,,,,,,,,,,,,,,,,,,,,,,,,,,,,,,,,,,,,,,,,,,,,,,,,,,,,,,,,,,,,,,,,,133.0,57.0,57.0,133.0,70.0,70.0,2.1,2.12,-191,-265,0,-280,198,261,377.9821810722351,377.9822301864624,377.98464727401733,377.99684882164,378.1471252441406,378.1471252441406,378.1471252441406,378.1471252441406,378.1471252441406,378.1471252441406,378.1471252441406,379.99799156188965,1,1.9862759113311768,None,,,,,,,,,,,,,,,,,,106,3,2025-02-25_09h58.25.116,comp,2024.2.4,62.149254085194904,2025-02-25 09h58.36.997599 -0500,
78,78,0,filler_square,None,None,None,None,None,None,None,None,None,None,1,1.962245225906372,None,,,,,0,0,0,0,0,78,78,207,380.0135908126831,,,,,,,,,,,,,,,,,,,,,,,,,,,,,,,,,,,,,,,,,,,,,,,,,,,,,,,,,,,,,,,,,,,,,,,,,,,,,,,,,179.2058884878661,179.2058884878661,79.12411460229205,102.72119477180819,169.98308204555775,61.810731719703035,2.2,2.21,-237,-268,0,257,178,275,379.9989540576935,379.9989938735962,380.00162076950073,380.0135908126831,380.1640362739563,380.1640362739563,380.1640362739563,380.1640362739563,380.1640362739563,380.1640362739563,380.1640362739563,381.98155069351196,1,1.962245225906372,None,,,,,,,,,,,,,,,,,,106,3,2025-02-25_09h58.25.116,comp,2024.2.4,62.149254085194904,2025-02-25 09h58.36.997599 -0500,
79,79,0,critical,dwh,35.0,2.1,upper,127.0,127.0,125.0,200.0,200.0,125.0,3,5.867405414581299,None,,,,,0,0,0,0,0,79,79,29,381.99702286720276,,,,,,,,,,,,,,,,,,,,,,,,,,,,,,,,,,,,,,,,,,,,,,,,,,,,,,,,,,,,,,,,,,,,,,,,,,,,,,,,,127.0,127.0,125.0,200.0,200.0,125.0,2.1,2.11,-260,264,0,251,258,-285,381.98235273361206,381.9823920726776,381.9847640991211,381.99702286720276,382.1473033428192,382.1473033428192,382.1473033428192,382.1473033428192,382.1473033428192,382.1473033428192,382.1473033428192,387.8816945552826,3,5.867405414581299,None,,,,,,,,,,,,,,,,,,106,3,2025-02-25_09h58.25.116,comp,2024.2.4,62.149254085194904,2025-02-25 09h58.36.997599 -0500,
80,80,0,filler_random,None,None,None,None,None,None,None,None,None,None,1,2.750885009765625,None,,,,,0,0,0,0,0,80,80,162,387.8968713283539,,,,,,,,,,,,,,,,,,,,,,,,,,,,,,,,,,,,,,,,,,,,,,,,,,,,,,,,,,,,,,,,,,,,,,,,,,,,,,,,,177.89107984553084,180.61236086627957,195.71221255636394,61.44334883141257,150.65576785065824,185.50638741820927,1.0,1.3,263,-281,480,-264,699,-254,387.882670879364,387.8827123641968,387.88537073135376,387.8968713283539,388.04771423339844,388.04771423339844,388.04771423339844,388.04771423339844,388.04771423339844,388.04771423339844,388.04771423339844,390.6649634838104,1,2.750885009765625,None,,,,,,,,,,,,,,,,,,106,3,2025-02-25_09h58.25.116,comp,2024.2.4,62.149254085194904,2025-02-25 09h58.36.997599 -0500,
81,81,0,filler_random,None,None,None,None,None,None,None,None,None,None,1,6.975596904754639,None,,,,,0,0,0,0,0,81,81,154,390.6801471710205,,,,,,,,,,,,,,,,,,,,,,,,,,,,,,,,,,,,,,,,,,,,,,,,,,,,,,,,,,,,,,,,,,,,,,,,,,,,,,,,,194.0871054241016,195.1041813111546,146.63598256098595,163.68781935026695,153.53298208790494,186.6336979976726,3.0,3.1,-275,285,0,-7,271,-273,390.66586780548096,390.6659080982208,390.6685094833374,390.6801471710205,390.83066630363464,390.83066630363464,390.83066630363464,390.83066630363464,390.83066630363464,390.83066630363464,390.83066630363464,397.6650507450104,1,6.975596904754639,None,,,,,,,,,,,,,,,,,,106,3,2025-02-25_09h58.25.116,comp,2024.2.4,62.149254085194904,2025-02-25 09h58.36.997599 -0500,
82,82,0,critical,dwh,35.0,1.0,lower,70.0,70.0,57.0,133.0,133.0,57.0,3,1.5025458335876465,None,,,,,0,0,0,0,0,82,82,60,397.68043518066406,,,,,,,,,,,,,,,,,,,,,,,,,,,,,,,,,,,,,,,,,,,,,,,,,,,,,,,,,,,,,,,,,,,,,,,,,,,,,,,,,70.0,70.0,57.0,133.0,133.0,57.0,1.0,1.1,-678,269,-480,258,-289,273,397.6658682823181,397.6659061908722,397.66805028915405,397.68043518066406,397.83019065856934,397.83019065856934,397.83019065856934,397.83019065856934,397.83019065856934,397.83019065856934,397.83019065856934,399.19803261756897,3,1.5025458335876465,None,,,,,,,,,,,,,,,,,,106,3,2025-02-25_09h58.25.116,comp,2024.2.4,62.149254085194904,2025-02-25 09h58.36.997599 -0500,
83,83,0,filler_square,None,None,None,None,None,None,None,None,None,None,1,1.3213860988616943,None,,,,,0,0,0,0,0,83,83,200,399.21357798576355,,,,,,,,,,,,,,,,,,,,,,,,,,,,,,,,,,,,,,,,,,,,,,,,,,,,,,,,,,,,,,,,,,,,,,,,,,,,,,,,,158.99975354047416,158.99975354047416,66.32038336863289,57.455351182589155,61.17327013028891,109.57986819744687,2.1,2.12,-204,-257,0,-262,180,290,399.1989760398865,399.1990158557892,399.20110034942627,399.21357798576355,399.36368703842163,399.36368703842163,399.36368703842163,399.36368703842163,399.36368703842163,399.36368703842163,399.36368703842163,400.5480909347534,1,1.3213860988616943,None,,,,,,,,,,,,,,,,,,106,3,2025-02-25_09h58.25.116,comp,2024.2.4,62.149254085194904,2025-02-25 09h58.36.997599 -0500,
84,84,0,filler_square,None,None,None,None,None,None,None,None,None,None,2,3.3249831199645996,None,,,,,0,0,0,0,0,84,84,208,400.56347942352295,,,,,,,,,,,,,,,,,,,,,,,,,,,,,,,,,,,,,,,,,,,,,,,,,,,,,,,,,,,,,,,,,,,,,,,,,,,,,,,,,61.02743582771468,61.02743582771468,60.22186712276877,60.41059571743542,59.28948136789618,59.79272965913759,4.0,4.2,-157,-12,0,-277,156,13,400.54902744293213,400.549067735672,400.55119347572327,400.56347942352295,400.71388006210327,400.71388006210327,400.71388006210327,400.71388006210327,400.71388006210327,400.71388006210327,400.71388006210327,403.8981604576111,2,3.3249831199645996,None,,,,,,,,,,,,,,,,,,106,3,2025-02-25_09h58.25.116,comp,2024.2.4,62.149254085194904,2025-02-25 09h58.36.997599 -0500,
85,85,0,filler_square,None,None,None,None,None,None,None,None,None,None,2,1.646864891052246,None,,,,,0,0,0,0,0,85,85,209,403.91378831863403,,,,,,,,,,,,,,,,,,,,,,,,,,,,,,,,,,,,,,,,,,,,,,,,,,,,,,,,,,,,,,,,,,,,,,,,,,,,,,,,,69.2789854825173,108.21457929125683,110.46295337349733,110.46295337349733,91.8326363417088,99.41301644121253,1.0,1.2,-205,-19,0,-15,201,6,403.89907717704773,403.8991165161133,403.90171933174133,403.91378831863403,404.0636696815491,404.0636696815491,404.0636696815491,404.0636696815491,404.0636696815491,404.0636696815491,404.0636696815491,405.56478571891785,2,1.646864891052246,None,,,,,,,,,,,,,,,,,,106,3,2025-02-25_09h58.25.116,comp,2024.2.4,62.149254085194904,2025-02-25 09h58.36.997599 -0500,
86,86,0,filler_square,None,None,None,None,None,None,None,None,None,None,1,1.9329349994659424,None,,,,,0,0,0,0,0,86,86,183,405.58034682273865,,,,,,,,,,,,,,,,,,,,,,,,,,,,,,,,,,,,,,,,,,,,,,,,,,,,,,,,,,,,,,,,,,,,,,,,,,,,,,,,,123.97220056706306,123.97220056706306,102.23423479548649,60.03949492548063,87.08309641342429,82.13224531987527,4.0,4.1,-188,-278,0,-9,167,-278,405.5657501220703,405.5657901763916,405.5679452419281,405.58034682273865,405.73028349876404,405.73028349876404,405.73028349876404,405.73028349876404,405.73028349876404,405.73028349876404,405.73028349876404,407.5148572921753,1,1.9329349994659424,None,,,,,,,,,,,,,,,,,,106,3,2025-02-25_09h58.25.116,comp,2024.2.4,62.149254085194904,2025-02-25 09h58.36.997599 -0500,
87,87,0,filler_random,None,None,None,None,None,None,None,None,None,None,1,3.1172001361846924,None,,,,,0,0,0,0,0,87,87,155,407.53031945228577,,,,,,,,,,,,,,,,,,,,,,,,,,,,,,,,,,,,,,,,,,,,,,,,,,,,,,,,,,,,,,,,,,,,,,,,,,,,,,,,,177.3864714853421,181.97306015378484,167.50853647676598,186.8405243999647,81.04642596707777,125.29367026132876,4.0,4.1,-280,-267,0,5,252,-279,407.5158348083496,407.5158748626709,407.51853799819946,407.53031945228577,407.6807851791382,407.6807851791382,407.6807851791382,407.6807851791382,407.6807851791382,407.6807851791382,407.6807851791382,410.6647927761078,1,3.1172001361846924,None,,,,,,,,,,,,,,,,,,106,3,2025-02-25_09h58.25.116,comp,2024.2.4,62.149254085194904,2025-02-25 09h58.36.997599 -0500,
88,88,0,critical,hwd,35.0,2.1,upper,200.0,125.0,125.0,200.0,127.0,127.0,1,3.271009922027588,None,,,,,0,0,0,0,0,88,88,17,410.68013095855713,,,,,,,,,,,,,,,,,,,,,,,,,,,,,,,,,,,,,,,,,,,,,,,,,,,,,,,,,,,,,,,,,,,,,,,,,,,,,,,,,200.0,125.0,125.0,200.0,127.0,127.0,2.1,2.11,-258,261,0,255,260,-289,410.6656274795532,410.6656668186188,410.668194770813,410.68013095855713,410.83064222335815,410.83064222335815,410.83064222335815,410.83064222335815,410.83064222335815,410.83064222335815,410.83064222335815,413.9647636413574,1,3.271009922027588,None,,,,,,,,,,,,,,,,,,106,3,2025-02-25_09h58.25.116,comp,2024.2.4,62.149254085194904,2025-02-25 09h58.36.997599 -0500,
89,89,0,filler_random,None,None,None,None,None,None,None,None,None,None,3,1.8276164531707764,None,,,,,0,0,0,0,0,89,89,168,413.9800500869751,,,,,,,,,,,,,,,,,,,,,,,,,,,,,,,,,,,,,,,,,,,,,,,,,,,,,,,,,,,,,,,,,,,,,,,,,,,,,,,,,80.78917908567288,152.5465065664641,60.419218920479445,153.64054401602417,159.98967392183425,196.42656954010405,2.2,2.21,-249,-255,0,279,271,263,413.965678691864,413.96571826934814,413.9682242870331,413.9800500869751,414.1303679943085,414.1303679943085,414.1303679943085,414.1303679943085,414.1303679943085,414.1303679943085,414.1303679943085,415.81468629837036,3,1.8276164531707764,None,,,,,,,,,,,,,,,,,,106,3,2025-02-25_09h58.25.116,comp,2024.2.4,62.149254085194904,2025-02-25 09h58.36.997599 -0500,
90,90,0,filler_random,None,None,None,None,None,None,None,None,None,None,1,1.9212334156036377,None,,,,,0,0,0,0,0,90,90,139,415.8303174972534,,,,,,,,,,,,,,,,,,,,,,,,,,,,,,,,,,,,,,,,,,,,,,,,,,,,,,,,,,,,,,,,,,,,,,,,,,,,,,,,,184.8084748198994,185.15929498042942,197.34680445450712,60.297297833671415,141.73440271787305,126.22983937216412,1.0,1.2,-219,7,0,20,189,4,415.81553530693054,415.8155748844147,415.81767296791077,415.8303174972534,415.98029947280884,415.98029947280884,415.98029947280884,415.98029947280884,415.98029947280884,415.98029947280884,415.98029947280884,417.76479172706604,1,1.9212334156036377,None,,,,,,,,,,,,,,,,,,106,3,2025-02-25_09h58.25.116,comp,2024.2.4,62.149254085194904,2025-02-25 09h58.36.997599 -0500,
91,91,0,filler_random,None,None,None,None,None,None,None,None,None,None,1,2.0595908164978027,None,,,,,0,0,0,0,0,91,91,149,417.78007316589355,,,,,,,,,,,,,,,,,,,,,,,,,,,,,,,,,,,,,,,,,,,,,,,,,,,,,,,,,,,,,,,,,,,,,,,,,,,,,,,,,180.86655485118314,162.93004811209573,158.0470214370465,163.4696810910064,158.24102898516935,121.93380562745052,3.0,3.2,-259,-283,0,-2,239,278,417.7657024860382,417.7657415866852,417.7682423591614,417.78007316589355,417.9303619861603,417.9303619861603,417.9303619861603,417.9303619861603,417.9303619861603,417.9303619861603,417.9303619861603,419.84828424453735,1,2.0595908164978027,None,,,,,,,,,,,,,,,,,,106,3,2025-02-25_09h58.25.116,comp,2024.2.4,62.149254085194904,2025-02-25 09h58.36.997599 -0500,
92,92,0,critical,dwh,35.0,3.0,upper,127.0,127.0,125.0,200.0,200.0,125.0,3,2.633441686630249,None,,,,,0,0,0,0,0,92,92,63,419.86365818977356,,,,,,,,,,,,,,,,,,,,,,,,,,,,,,,,,,,,,,,,,,,,,,,,,,,,,,,,,,,,,,,,,,,,,,,,,,,,,,,,,127.0,127.0,125.0,200.0,200.0,125.0,3.0,3.1,-260,266,0,0,258,-275,419.8490755558014,419.84911584854126,419.8512809276581,419.86365818977356,420.01368141174316,420.01368141174316,420.01368141174316,420.01368141174316,420.01368141174316,420.01368141174316,420.01368141174316,422.49836325645447,3,2.633441686630249,None,,,,,,,,,,,,,,,,,,106,3,2025-02-25_09h58.25.116,comp,2024.2.4,62.149254085194904,2025-02-25 09h58.36.997599 -0500,
93,93,0,filler_square,None,None,None,None,None,None,None,None,None,None,1,1.966679573059082,None,,,,,0,0,0,0,0,93,93,171,422.5135793685913,,,,,,,,,,,,,,,,,,,,,,,,,,,,,,,,,,,,,,,,,,,,,,,,,,,,,,,,,,,,,,,,,,,,,,,,,,,,,,,,,68.5893449443969,68.5893449443969,65.36536799290532,57.70217196178971,64.55278385100259,63.454196960369536,3.0,3.1,-159,279,0,-9,157,-269,422.4992895126343,422.4993281364441,422.5015962123871,422.5135793685913,422.6634364128113,422.6634364128113,422.6634364128113,422.6634364128113,422.6634364128113,422.6634364128113,422.6634364128113,424.4978606700897,1,1.966679573059082,None,,,,,,,,,,,,,,,,,,106,3,2025-02-25_09h58.25.116,comp,2024.2.4,62.149254085194904,2025-02-25 09h58.36.997599 -0500,
94,94,0,critical,whd,35.0,2.1,lower,57.0,133.0,133.0,57.0,70.0,70.0,2,2.5583419799804688,None,,,,,0,0,0,0,0,94,94,12,424.51322197914124,,,,,,,,,,,,,,,,,,,,,,,,,,,,,,,,,,,,,,,,,,,,,,,,,,,,,,,,,,,,,,,,,,,,,,,,,,,,,,,,,57.0,133.0,133.0,57.0,70.0,70.0,2.1,2.12,-191,-274,0,-264,160,270,424.49864387512207,424.4986834526062,424.50127696990967,424.51322197914124,424.66363048553467,424.66363048553467,424.66363048553467,424.66363048553467,424.66363048553467,424.66363048553467,424.66363048553467,427.0810992717743,2,2.5583419799804688,None,,,,,,,,,,,,,,,,,,106,3,2025-02-25_09h58.25.116,comp,2024.2.4,62.149254085194904,2025-02-25 09h58.36.997599 -0500,
95,95,0,filler_square,None,None,None,None,None,None,None,None,None,None,2,2.0378050804138184,None,,,,,0,0,0,0,0,95,95,179,427.0969033241272,,,,,,,,,,,,,,,,,,,,,,,,,,,,,,,,,,,,,,,,,,,,,,,,,,,,,,,,,,,,,,,,,,,,,,,,,,,,,,,,,150.42223071363296,119.86983815538355,162.72130203215767,162.72130203215767,111.61146386700902,157.07656753944562,4.0,4.1,-237,-275,0,-18,256,-281,427.08205103874207,427.0820915699005,427.08470129966736,427.0969033241272,427.2469117641449,427.2469117641449,427.2469117641449,427.2469117641449,427.2469117641449,427.2469117641449,427.2469117641449,429.1479721069336,2,2.0378050804138184,None,,,,,,,,,,,,,,,,,,106,3,2025-02-25_09h58.25.116,comp,2024.2.4,62.149254085194904,2025-02-25 09h58.36.997599 -0500,
96,96,0,critical,dwh,20.0,1.0,lower,78.0,78.0,57.0,133.0,133.0,57.0,3,2.228248357772827,None,,,,,0,0,0,0,0,96,96,66,429.16325545310974,,,,,,,,,,,,,,,,,,,,,,,,,,,,,,,,,,,,,,,,,,,,,,,,,,,,,,,,,,,,,,,,,,,,,,,,,,,,,,,,,78.0,78.0,57.0,133.0,133.0,57.0,1.0,1.2,-202,0,0,9,191,-6,429.14876103401184,429.14880204200745,429.1513693332672,429.16325545310974,429.31339144706726,429.31339144706726,429.31339144706726,429.31339144706726,429.31339144706726,429.31339144706726,429.31339144706726,431.3977324962616,3,2.228248357772827,None,,,,,,,,,,,,,,,,,,106,3,2025-02-25_09h58.25.116,comp,2024.2.4,62.149254085194904,2025-02-25 09h58.36.997599 -0500,
97,97,0,critical,whd,20.0,4.0,lower,57.0,133.0,133.0,57.0,78.0,78.0,2,1.7940444946289062,None,,,,,0,0,0,0,0,97,97,94,431.41348814964294,,,,,,,,,,,,,,,,,,,,,,,,,,,,,,,,,,,,,,,,,,,,,,,,,,,,,,,,,,,,,,,,,,,,,,,,,,,,,,,,,57.0,133.0,133.0,57.0,78.0,78.0,4.0,4.1,-191,-260,0,-11,164,-288,431.39849305152893,431.39853167533875,431.4009850025177,431.41348814964294,431.5633158683777,431.5633158683777,431.5633158683777,431.5633158683777,431.5633158683777,431.5633158683777,431.5633158683777,433.2144629955292,2,1.7940444946289062,None,,,,,,,,,,,,,,,,,,106,3,2025-02-25_09h58.25.116,comp,2024.2.4,62.149254085194904,2025-02-25 09h58.36.997599 -0500,
98,98,0,critical,hdw,20.0,3.0,lower,133.0,57.0,78.0,78.0,57.0,133.0,1,1.9366414546966553,None,,,,,0,0,0,0,0,98,98,116,433.230126619339,,,,,,,,,,,,,,,,,,,,,,,,,,,,,,,,,,,,,,,,,,,,,,,,,,,,,,,,,,,,,,,,,,,,,,,,,,,,,,,,,133.0,57.0,78.0,78.0,57.0,133.0,3.0,3.2,-164,-251,0,14,202,281,433.21523809432983,433.2152805328369,433.2174220085144,433.230126619339,433.38000082969666,433.38000082969666,433.38000082969666,433.38000082969666,433.38000082969666,433.38000082969666,433.38000082969666,435.1811156272888,1,1.9366414546966553,None,,,,,,,,,,,,,,,,,,106,3,2025-02-25_09h58.25.116,comp,2024.2.4,62.149254085194904,2025-02-25 09h58.36.997599 -0500,
99,99,0,filler_random,None,None,None,None,None,None,None,None,None,None,1,2.475106954574585,None,,,,,0,0,0,0,0,99,99,146,435.19655108451843,,,,,,,,,,,,,,,,,,,,,,,,,,,,,,,,,,,,,,,,,,,,,,,,,,,,,,,,,,,,,,,,,,,,,,,,,,,,,,,,,199.85189117563166,86.51845297255532,97.51826388605774,199.56006222026375,84.60614758590616,197.4519648423201,2.2,2.22,-239,279,0,-278,295,-252,435.1820411682129,435.1820812225342,435.18469738960266,435.19655108451843,435.3468585014343,435.3468585014343,435.3468585014343,435.3468585014343,435.3468585014343,435.3468585014343,435.3468585014343,437.6812777519226,1,2.475106954574585,None,,,,,,,,,,,,,,,,,,106,3,2025-02-25_09h58.25.116,comp,2024.2.4,62.149254085194904,2025-02-25 09h58.36.997599 -0500,
100,100,0,critical,whd,20.0,1.0,lower,57.0,133.0,133.0,57.0,78.0,78.0,2,3.133824586868286,None,,,,,0,0,0,0,0,100,100,90,437.69680166244507,,,,,,,,,,,,,,,,,,,,,,,,,,,,,,,,,,,,,,,,,,,,,,,,,,,,,,,,,,,,,,,,,,,,,,,,,,,,,,,,,57.0,133.0,133.0,57.0,78.0,78.0,1.0,1.3,289,-274,480,-253,644,-269,437.68209624290466,437.68213725090027,437.68448638916016,437.69680166244507,437.8466238975525,437.8466238975525,437.8466238975525,437.8466238975525,437.8466238975525,437.8466238975525,437.8466238975525,440.84771609306335,2,3.133824586868286,None,,,,,,,,,,,,,,,,,,106,3,2025-02-25_09h58.25.116,comp,2024.2.4,62.149254085194904,2025-02-25 09h58.36.997599 -0500,
101,101,0,critical,wdh,35.0,1.0,lower,57.0,133.0,70.0,70.0,133.0,57.0,3,3.4336435794830322,None,,,,,0,0,0,0,0,101,101,72,440.8631534576416,,,,,,,,,,,,,,,,,,,,,,,,,,,,,,,,,,,,,,,,,,,,,,,,,,,,,,,,,,,,,,,,,,,,,,,,,,,,,,,,,57.0,133.0,70.0,70.0,133.0,57.0,1.0,1.3,282,-264,480,-266,640,-253,440.848516702652,440.84855675697327,440.8510880470276,440.8631534576416,441.01319694519043,441.01319694519043,441.01319694519043,441.01319694519043,441.01319694519043,441.01319694519043,441.01319694519043,444.2979974746704,3,3.4336435794830322,None,,,,,,,,,,,,,,,,,,106,3,2025-02-25_09h58.25.116,comp,2024.2.4,62.149254085194904,2025-02-25 09h58.36.997599 -0500,
102,102,0,critical,dwh,35.0,4.0,upper,127.0,127.0,125.0,200.0,200.0,125.0,3,4.3996381759643555,None,,,,,0,0,0,0,0,102,102,65,444.3133978843689,,,,,,,,,,,,,,,,,,,,,,,,,,,,,,,,,,,,,,,,,,,,,,,,,,,,,,,,,,,,,,,,,,,,,,,,,,,,,,,,,127.0,127.0,125.0,200.0,200.0,125.0,4.0,4.2,-260,-7,0,-285,258,1,444.2987582683563,444.29879689216614,444.300879240036,444.3133978843689,444.46355843544006,444.46355843544006,444.46355843544006,444.46355843544006,444.46355843544006,444.46355843544006,444.46355843544006,448.7148530483246,3,4.3996381759643555,None,,,,,,,,,,,,,,,,,,106,3,2025-02-25_09h58.25.116,comp,2024.2.4,62.149254085194904,2025-02-25 09h58.36.997599 -0500,
103,103,0,critical,dwh,35.0,2.1,lower,70.0,70.0,57.0,133.0,133.0,57.0,3,6.60450553894043,None,,,,,0,0,0,0,0,103,103,4,448.7300617694855,,,,,,,,,,,,,,,,,,,,,,,,,,,,,,,,,,,,,,,,,,,,,,,,,,,,,,,,,,,,,,,,,,,,,,,,,,,,,,,,,70.0,70.0,57.0,133.0,133.0,57.0,2.1,2.12,-198,-276,0,-287,191,262,448.7156641483307,448.7157063484192,448.71792912483215,448.7300617694855,448.87989044189453,448.87989044189453,448.87989044189453,448.87989044189453,448.87989044189453,448.87989044189453,448.87989044189453,455.34770154953003,3,6.60450553894043,None,,,,,,,,,,,,,,,,,,106,3,2025-02-25_09h58.25.116,comp,2024.2.4,62.149254085194904,2025-02-25 09h58.36.997599 -0500,
104,104,0,filler_random,None,None,None,None,None,None,None,None,None,None,3,1.6282439231872559,None,,,,,0,0,0,0,0,104,104,138,455.36310291290283,,,,,,,,,,,,,,,,,,,,,,,,,,,,,,,,,,,,,,,,,,,,,,,,,,,,,,,,,,,,,,,,,,,,,,,,,,,,,,,,,116.31384041193985,87.3658842537529,60.72628971378515,158.97805105646245,145.2174409385577,170.29679277954054,2.2,2.22,-219,273,0,-258,261,-284,455.34864497184753,455.3486850261688,455.35121178627014,455.36310291290283,455.51327180862427,455.51327180862427,455.51327180862427,455.51327180862427,455.51327180862427,455.51327180862427,455.51327180862427,456.9976840019226,3,1.6282439231872559,None,,,,,,,,,,,,,,,,,,106,3,2025-02-25_09h58.25.116,comp,2024.2.4,62.149254085194904,2025-02-25 09h58.36.997599 -0500,
105,105,0,critical,wdh,35.0,3.0,upper,125.0,200.0,127.0,127.0,200.0,125.0,3,3.0671136379241943,None,,,,,0,0,0,0,0,105,105,75,457.01320934295654,,,,,,,,,,,,,,,,,,,,,,,,,,,,,,,,,,,,,,,,,,,,,,,,,,,,,,,,,,,,,,,,,,,,,,,,,,,,,,,,,125.0,200.0,127.0,127.0,200.0,125.0,3.0,3.2,-260,-269,0,-4,222,275,456.99844098091125,456.9984803199768,457.0004532337189,457.01320934295654,457.1634340286255,457.1634340286255,457.1634340286255,457.1634340286255,457.1634340286255,457.1634340286255,457.1634340286255,460.0977509021759,3,3.0671136379241943,None,,,,,,,,,,,,,,,,,,106,3,2025-02-25_09h58.25.116,comp,2024.2.4,62.149254085194904,2025-02-25 09h58.36.997599 -0500,
106,106,0,critical,hdw,20.0,1.0,upper,200.0,125.0,141.0,141.0,125.0,200.0,1,6.317444324493408,None,,,,,0,0,0,0,0,106,106,115,460.11297392845154,,,,,,,,,,,,,,,,,,,,,,,,,,,,,,,,,,,,,,,,,,,,,,,,,,,,,,,,,,,,,,,,,,,,,,,,,,,,,,,,,200.0,125.0,141.0,141.0,125.0,200.0,1.0,1.2,-229,-1,0,19,266,-11,460.098521232605,460.0985600948334,460.1010925769806,460.11297392845154,460.26344656944275,460.26344656944275,460.26344656944275,460.26344656944275,460.26344656944275,460.26344656944275,460.26344656944275,466.4477608203888,1,6.317444324493408,None,,,,,,,,,,,,,,,,,,106,3,2025-02-25_09h58.25.116,comp,2024.2.4,62.149254085194904,2025-02-25 09h58.36.997599 -0500,
107,107,0,critical,hdw,20.0,4.0,lower,133.0,57.0,78.0,78.0,57.0,133.0,1,1.5924158096313477,None,,,,,0,0,0,0,0,107,107,118,466.463082075119,,,,,,,,,,,,,,,,,,,,,,,,,,,,,,,,,,,,,,,,,,,,,,,,,,,,,,,,,,,,,,,,,,,,,,,,,,,,,,,,,133.0,57.0,78.0,78.0,57.0,133.0,4.0,4.1,-164,-257,0,-6,202,-285,466.448561668396,466.44860076904297,466.45110988616943,466.463082075119,466.61311054229736,466.61311054229736,466.61311054229736,466.61311054229736,466.61311054229736,466.61311054229736,466.61311054229736,468.0641620159149,1,1.5924158096313477,None,,,,,,,,,,,,,,,,,,106,3,2025-02-25_09h58.25.116,comp,2024.2.4,62.149254085194904,2025-02-25 09h58.36.997599 -0500,
108,108,0,critical,wdh,35.0,2.1,lower,57.0,133.0,70.0,70.0,133.0,57.0,3,2.6544666290283203,None,,,,,0,0,0,0,0,108,108,32,468.07995653152466,,,,,,,,,,,,,,,,,,,,,,,,,,,,,,,,,,,,,,,,,,,,,,,,,,,,,,,,,,,,,,,,,,,,,,,,,,,,,,,,,57.0,133.0,70.0,70.0,133.0,57.0,2.1,2.12,-198,-270,0,-264,160,283,468.06500339508057,468.0650441646576,468.0672116279602,468.07995653152466,468.229763507843,468.229763507843,468.229763507843,468.229763507843,468.229763507843,468.229763507843,468.229763507843,470.7475152015686,3,2.6544666290283203,None,,,,,,,,,,,,,,,,,,106,3,2025-02-25_09h58.25.116,comp,2024.2.4,62.149254085194904,2025-02-25 09h58.36.997599 -0500,
109,109,0,filler_square,None,None,None,None,None,None,None,None,None,None,1,1.4764738082885742,None,,,,,0,0,0,0,0,109,109,180,470.76300072669983,,,,,,,,,,,,,,,,,,,,,,,,,,,,,,,,,,,,,,,,,,,,,,,,,,,,,,,,,,,,,,,,,,,,,,,,,,,,,,,,,121.95518180887154,121.95518180887154,118.46894399409331,99.44538112944815,60.61558572084175,68.59134677904296,4.0,4.1,-207,-259,0,15,180,-269,470.7484784126282,470.74851870536804,470.75100350379944,470.76300072669983,470.913028717041,470.913028717041,470.913028717041,470.913028717041,470.913028717041,470.913028717041,470.913028717041,472.24753046035767,1,1.4764738082885742,None,,,,,,,,,,,,,,,,,,106,3,2025-02-25_09h58.25.116,comp,2024.2.4,62.149254085194904,2025-02-25 09h58.36.997599 -0500,
110,110,0,filler_square,None,None,None,None,None,None,None,None,None,None,3,3.576336622238159,None,,,,,0,0,0,0,0,110,110,194,472.2631688117981,,,,,,,,,,,,,,,,,,,,,,,,,,,,,,,,,,,,,,,,,,,,,,,,,,,,,,,,,,,,,,,,,,,,,,,,,,,,,,,,,96.13919881706292,124.86795483879607,119.05329905290378,80.64664304667815,128.48389653585056,128.48389653585056,2.1,2.12,-199,-278,0,-254,201,262,472.2485718727112,472.24861001968384,472.2511658668518,472.2631688117981,472.41308975219727,472.41308975219727,472.41308975219727,472.41308975219727,472.41308975219727,472.41308975219727,472.41308975219727,475.8475935459137,3,3.576336622238159,None,,,,,,,,,,,,,,,,,,106,3,2025-02-25_09h58.25.116,comp,2024.2.4,62.149254085194904,2025-02-25 09h58.36.997599 -0500,
111,111,0,catch,None,None,None,None,None,None,None,None,None,None,3,0.9438729286193848,None,,,,,0,0,0,0,0,111,111,123,475.86326932907104,,,,,,,,,,,,,,,,,,,,,,,,,,,,,,,,,,,,,,,,,,,,,,,,,,,,,,,,,,,,,,,,,,,,,,,,,,,,,,,,,101,89,64,126,160,165,1.0,1.3,276,-261,480,-269,722,-273,475.8486611843109,475.84870195388794,475.8508770465851,475.86326932907104,476.0133457183838,476.0133457183838,476.0133457183838,476.0133457183838,476.0133457183838,476.0133457183838,476.0133457183838,476.81411600112915,3,0.9438729286193848,None,,,,,,,,,,,,,,,,,,106,3,2025-02-25_09h58.25.116,comp,2024.2.4,62.149254085194904,2025-02-25 09h58.36.997599 -0500,
112,112,0,filler_random,None,None,None,None,None,None,None,None,None,None,2,2.2666876316070557,None,,,,,0,0,0,0,0,112,112,141,476.8298842906952,,,,,,,,,,,,,,,,,,,,,,,,,,,,,,,,,,,,,,,,,,,,,,,,,,,,,,,,,,,,,,,,,,,,,,,,,,,,,,,,,87.48818764611119,96.43458463010623,168.67191958490668,98.35452171797654,107.31001293159645,131.64398427892434,4.0,4.1,-193,-266,0,-15,211,-284,476.8150007724762,476.815039396286,476.81716203689575,476.8298842906952,476.97986817359924,476.97986817359924,476.97986817359924,476.97986817359924,476.97986817359924,476.97986817359924,476.97986817359924,479.1141896247864,2,2.2666876316070557,None,,,,,,,,,,,,,,,,,,106,3,2025-02-25_09h58.25.116,comp,2024.2.4,62.149254085194904,2025-02-25 09h58.36.997599 -0500,
113,113,0,critical,whd,35.0,3.0,upper,125.0,200.0,200.0,125.0,127.0,127.0,1,8.629851341247559,None,,,,,0,0,0,0,0,113,113,87,479.12958455085754,,,,,,,,,,,,,,,,,,,,,,,,,,,,,,,,,,,,,,,,,,,,,,,,,,,,,,,,,,,,,,,,,,,,,,,,,,,,,,,,,125.0,200.0,200.0,125.0,127.0,127.0,3.0,3.1,-258,253,0,-1,222,-260,479.11496806144714,479.11500549316406,479.11827969551086,479.12958455085754,479.28026366233826,479.28026366233826,479.28026366233826,479.28026366233826,479.28026366233826,479.28026366233826,479.28026366233826,487.7643303871155,1,8.629851341247559,None,,,,,,,,,,,,,,,,,,106,3,2025-02-25_09h58.25.116,comp,2024.2.4,62.149254085194904,2025-02-25 09h58.36.997599 -0500,
114,114,0,filler_random,None,None,None,None,None,None,None,None,None,None,2,1.2113173007965088,None,,,,,0,0,0,0,0,114,114,136,487.7797966003418,,,,,,,,,,,,,,,,,,,,,,,,,,,,,,,,,,,,,,,,,,,,,,,,,,,,,,,,,,,,,,,,,,,,,,,,,,,,,,,,,62.18067237063073,133.0835463540028,133.72394931463975,143.11595353534796,77.3928225403783,94.44289994409897,2.1,2.11,-234,276,0,274,215,-277,487.7652053833008,487.7652680873871,487.7677173614502,487.7797966003418,487.92971897125244,487.92971897125244,487.92971897125244,487.92971897125244,487.92971897125244,487.92971897125244,487.92971897125244,488.9973883628845,2,1.2113173007965088,None,,,,,,,,,,,,,,,,,,106,3,2025-02-25_09h58.25.116,comp,2024.2.4,62.149254085194904,2025-02-25 09h58.36.997599 -0500,
115,115,0,critical,dhw,35.0,2.1,lower,70.0,70.0,133.0,57.0,57.0,133.0,2,1.8100197315216064,None,,,,,0,0,0,0,0,115,115,0,489.01308035850525,,,,,,,,,,,,,,,,,,,,,,,,,,,,,,,,,,,,,,,,,,,,,,,,,,,,,,,,,,,,,,,,,,,,,,,,,,,,,,,,,70.0,70.0,133.0,57.0,57.0,133.0,2.1,2.11,-160,286,0,264,191,-286,488.99816703796387,488.9982075691223,489.0005955696106,489.01308035850525,489.16296792030334,489.16296792030334,489.16296792030334,489.16296792030334,489.16296792030334,489.16296792030334,489.16296792030334,490.8307180404663,2,1.8100197315216064,None,,,,,,,,,,,,,,,,,,106,3,2025-02-25_09h58.25.116,comp,2024.2.4,62.149254085194904,2025-02-25 09h58.36.997599 -0500,
116,116,0,filler_random,None,None,None,None,None,None,None,None,None,None,3,2.3765597343444824,None,,,,,0,0,0,0,0,116,116,165,490.8466684818268,,,,,,,,,,,,,,,,,,,,,,,,,,,,,,,,,,,,,,,,,,,,,,,,,,,,,,,,,,,,,,,,,,,,,,,,,,,,,,,,,122.26858788906742,103.56835958756477,85.64850909095766,92.92725441392386,150.63563590459307,126.56325068845405,4.0,4.1,-194,-286,0,5,206,-255,490.8316185474396,490.83165860176086,490.8341510295868,490.8466684818268,490.99650382995605,490.99650382995605,490.99650382995605,490.99650382995605,490.99650382995605,490.99650382995605,490.99650382995605,493.23075437545776,3,2.3765597343444824,None,,,,,,,,,,,,,,,,,,106,3,2025-02-25_09h58.25.116,comp,2024.2.4,62.149254085194904,2025-02-25 09h58.36.997599 -0500,
117,117,0,critical,dhw,20.0,3.0,lower,78.0,78.0,133.0,57.0,57.0,133.0,2,3.6335389614105225,None,,,,,0,0,0,0,0,117,117,56,493.2462992668152,,,,,,,,,,,,,,,,,,,,,,,,,,,,,,,,,,,,,,,,,,,,,,,,,,,,,,,,,,,,,,,,,,,,,,,,,,,,,,,,,78.0,78.0,133.0,57.0,57.0,133.0,3.0,3.2,-164,-280,0,-13,191,273,493.2315821647644,493.2316219806671,493.2342920303345,493.2462992668152,493.3961524963379,493.3961524963379,493.3961524963379,493.3961524963379,493.3961524963379,493.3961524963379,493.3961524963379,496.89726090431213,2,3.6335389614105225,None,,,,,,,,,,,,,,,,,,106,3,2025-02-25_09h58.25.116,comp,2024.2.4,62.149254085194904,2025-02-25 09h58.36.997599 -0500,
118,118,0,critical,wdh,20.0,2.1,lower,57.0,133.0,78.0,78.0,133.0,57.0,3,3.2382376194000244,None,,,,,0,0,0,0,0,118,118,34,496.91275000572205,,,,,,,,,,,,,,,,,,,,,,,,,,,,,,,,,,,,,,,,,,,,,,,,,,,,,,,,,,,,,,,,,,,,,,,,,,,,,,,,,57.0,133.0,78.0,78.0,133.0,57.0,2.1,2.12,-202,-268,0,-256,164,288,496.89803290367126,496.89807176589966,496.9004535675049,496.91275000572205,497.0629105567932,497.0629105567932,497.0629105567932,497.0629105567932,497.0629105567932,497.0629105567932,497.0629105567932,500.164030790329,3,3.2382376194000244,None,,,,,,,,,,,,,,,,,,106,3,2025-02-25_09h58.25.116,comp,2024.2.4,62.149254085194904,2025-02-25 09h58.36.997599 -0500,
119,119,0,filler_square,None,None,None,None,None,None,None,None,None,None,1,1.5227484703063965,None,,,,,0,0,0,0,0,119,119,170,500.17939829826355,,,,,,,,,,,,,,,,,,,,,,,,,,,,,,,,,,,,,,,,,,,,,,,,,,,,,,,,,,,,,,,,,,,,,,,,,,,,,,,,,78.3361951656055,78.3361951656055,63.95673073932574,61.56084280490352,61.12247849258017,61.03064406038889,2.2,2.22,-166,252,0,-256,157,-258,500.1649899482727,500.16502952575684,500.1676483154297,500.17939829826355,500.32957696914673,500.32957696914673,500.32957696914673,500.32957696914673,500.32957696914673,500.32957696914673,500.32957696914673,501.7143352031708,1,1.5227484703063965,None,,,,,,,,,,,,,,,,,,106,3,2025-02-25_09h58.25.116,comp,2024.2.4,62.149254085194904,2025-02-25 09h58.36.997599 -0500,
120,120,0,filler_random,None,None,None,None,None,None,None,None,None,None,3,1.6935644149780273,None,,,,,0,0,0,0,0,120,120,160,501.7295072078705,,,,,,,,,,,,,,,,,,,,,,,,,,,,,,,,,,,,,,,,,,,,,,,,,,,,,,,,,,,,,,,,,,,,,,,,,,,,,,,,,98.20239732778857,58.87993746249261,92.40687287590706,177.51899657974246,99.08325041046473,169.92313328243284,1.0,1.1,-694,281,-480,276,-210,281,501.71524596214294,501.7152862548828,501.7174303531647,501.7295072078705,501.87968158721924,501.87968158721924,501.87968158721924,501.87968158721924,501.87968158721924,501.87968158721924,501.87968158721924,503.43071246147156,3,1.6935644149780273,None,,,,,,,,,,,,,,,,,,106,3,2025-02-25_09h58.25.116,comp,2024.2.4,62.149254085194904,2025-02-25 09h58.36.997599 -0500,
121,121,0,critical,wdh,20.0,1.0,upper,125.0,200.0,141.0,141.0,200.0,125.0,3,3.319934368133545,None,,,,,0,0,0,0,0,121,121,79,503.4463608264923,,,,,,,,,,,,,,,,,,,,,,,,,,,,,,,,,,,,,,,,,,,,,,,,,,,,,,,,,,,,,,,,,,,,,,,,,,,,,,,,,125.0,200.0,141.0,141.0,200.0,125.0,1.0,1.3,214,-259,480,-274,709,-286,503.43154072761536,503.4315812587738,503.4340672492981,503.4463608264923,503.596538066864,503.596538066864,503.596538066864,503.596538066864,503.596538066864,503.596538066864,503.596538066864,506.7808222770691,3,3.319934368133545,None,,,,,,,,,,,,,,,,,,106,3,2025-02-25_09h58.25.116,comp,2024.2.4,62.149254085194904,2025-02-25 09h58.36.997599 -0500,
122,122,0,critical,wdh,35.0,4.0,upper,125.0,200.0,127.0,127.0,200.0,125.0,3,2.0748097896575928,None,,,,,0,0,0,0,0,122,122,77,506.7962121963501,,,,,,,,,,,,,,,,,,,,,,,,,,,,,,,,,,,,,,,,,,,,,,,,,,,,,,,,,,,,,,,,,,,,,,,,,,,,,,,,,125.0,200.0,127.0,127.0,200.0,125.0,4.0,4.1,-260,-270,0,1,222,-286,506.78160071372986,506.78164052963257,506.7837562561035,506.7962121963501,506.9465410709381,506.9465410709381,506.9465410709381,506.9465410709381,506.9465410709381,506.9465410709381,506.9465410709381,508.8808526992798,3,2.0748097896575928,None,,,,,,,,,,,,,,,,,,106,3,2025-02-25_09h58.25.116,comp,2024.2.4,62.149254085194904,2025-02-25 09h58.36.997599 -0500,
123,123,0,filler_square,None,None,None,None,None,None,None,None,None,None,2,1.4163281917572021,None,,,,,0,0,0,0,0,123,123,206,508.8963212966919,,,,,,,,,,,,,,,,,,,,,,,,,,,,,,,,,,,,,,,,,,,,,,,,,,,,,,,,,,,,,,,,,,,,,,,,,,,,,,,,,76.7219402797545,60.85221435917398,88.16685193426443,88.16685193426443,75.92709765727815,85.92645545003344,3.0,3.2,-171,-269,0,16,183,252,508.88181138038635,508.8818519115448,508.8844974040985,508.8963212966919,509.04631328582764,509.04631328582764,509.04631328582764,509.04631328582764,509.04631328582764,509.04631328582764,509.04631328582764,510.33055782318115,2,1.4163281917572021,None,,,,,,,,,,,,,,,,,,106,3,2025-02-25_09h58.25.116,comp,2024.2.4,62.149254085194904,2025-02-25 09h58.36.997599 -0500,
124,124,0,critical,dwh,20.0,2.1,lower,78.0,78.0,57.0,133.0,133.0,57.0,3,2.22890305519104,None,,,,,0,0,0,0,0,124,124,30,510.34605145454407,,,,,,,,,,,,,,,,,,,,,,,,,,,,,,,,,,,,,,,,,,,,,,,,,,,,,,,,,,,,,,,,,,,,,,,,,,,,,,,,,78.0,78.0,57.0,133.0,133.0,57.0,2.1,2.12,-202,-251,0,-274,191,289,510.3315064907074,510.3315460681915,510.3341495990753,510.34605145454407,510.4961233139038,510.4961233139038,510.4961233139038,510.4961233139038,510.4961233139038,510.4961233139038,510.4961233139038,512.580578327179,3,2.22890305519104,None,,,,,,,,,,,,,,,,,,106,3,2025-02-25_09h58.25.116,comp,2024.2.4,62.149254085194904,2025-02-25 09h58.36.997599 -0500,
125,125,0,filler_square,None,None,None,None,None,None,None,None,None,None,1,1.4587290287017822,None,,,,,0,0,0,0,0,125,125,182,512.5962691307068,,,,,,,,,,,,,,,,,,,,,,,,,,,,,,,,,,,,,,,,,,,,,,,,,,,,,,,,,,,,,,,,,,,,,,,,,,,,,,,,,179.44261368214586,179.44261368214586,113.09568286241208,158.51811386652793,99.76599438965195,126.33586878855877,2.1,2.11,-265,273,0,273,238,-280,512.5815253257751,512.5815641880035,512.5840229988098,512.5962691307068,512.7464287281036,512.7464287281036,512.7464287281036,512.7464287281036,512.7464287281036,512.7464287281036,512.7464287281036,514.0640578269958,1,1.4587290287017822,None,,,,,,,,,,,,,,,,,,106,3,2025-02-25_09h58.25.116,comp,2024.2.4,62.149254085194904,2025-02-25 09h58.36.997599 -0500,
126,126,0,critical,hdw,35.0,1.0,lower,133.0,57.0,70.0,70.0,57.0,133.0,1,1.8224875926971436,None,,,,,0,0,0,0,0,126,126,108,514.0795726776123,,,,,,,,,,,,,,,,,,,,,,,,,,,,,,,,,,,,,,,,,,,,,,,,,,,,,,,,,,,,,,,,,,,,,,,,,,,,,,,,,133.0,57.0,70.0,70.0,57.0,133.0,1.0,1.2,-160,-2,0,-11,198,-6,514.0648198127747,514.064859867096,514.0670049190521,514.0795726776123,514.2293720245361,514.2293720245361,514.2293720245361,514.2293720245361,514.2293720245361,514.2293720245361,514.2293720245361,515.9141979217529,1,1.8224875926971436,None,,,,,,,,,,,,,,,,,,106,3,2025-02-25_09h58.25.116,comp,2024.2.4,62.149254085194904,2025-02-25 09h58.36.997599 -0500,
127,127,0,critical,hdw,20.0,4.0,upper,200.0,125.0,141.0,141.0,125.0,200.0,1,2.5421364307403564,None,,,,,0,0,0,0,0,127,127,119,515.9292771816254,,,,,,,,,,,,,,,,,,,,,,,,,,,,,,,,,,,,,,,,,,,,,,,,,,,,,,,,,,,,,,,,,,,,,,,,,,,,,,,,,200.0,125.0,141.0,141.0,125.0,200.0,4.0,4.2,-229,8,0,-280,266,7,515.9149911403656,515.9150304794312,515.9174242019653,515.9292771816254,516.0796422958374,516.0796422958374,516.0796422958374,516.0796422958374,516.0796422958374,516.0796422958374,516.0796422958374,518.480929851532,1,2.5421364307403564,None,,,,,,,,,,,,,,,,,,106,3,2025-02-25_09h58.25.116,comp,2024.2.4,62.149254085194904,2025-02-25 09h58.36.997599 -0500,
128,128,0,critical,wdh,20.0,2.1,upper,125.0,200.0,141.0,141.0,200.0,125.0,3,6.174877166748047,None,,,,,0,0,0,0,0,128,128,35,518.4964244365692,,,,,,,,,,,,,,,,,,,,,,,,,,,,,,,,,,,,,,,,,,,,,,,,,,,,,,,,,,,,,,,,,,,,,,,,,,,,,,,,,125.0,200.0,141.0,141.0,200.0,125.0,2.1,2.12,-266,-285,0,-286,229,273,518.4817306995392,518.4817724227905,518.4843556880951,518.4964244365692,518.6466071605682,518.6466071605682,518.6466071605682,518.6466071605682,518.6466071605682,518.6466071605682,518.6466071605682,524.6808302402496,3,6.174877166748047,None,,,,,,,,,,,,,,,,,,106,3,2025-02-25_09h58.25.116,comp,2024.2.4,62.149254085194904,2025-02-25 09h58.36.997599 -0500,
129,129,0,filler_random,None,None,None,None,None,None,None,None,None,None,1,0.9425852298736572,None,,,,,0,0,0,0,0,129,129,137,524.6963245868683,,,,,,,,,,,,,,,,,,,,,,,,,,,,,,,,,,,,,,,,,,,,,,,,,,,,,,,,,,,,,,,,,,,,,,,,,,,,,,,,,171.4659444061699,71.915376303496,77.17167509325974,71.63114472474568,90.60381614220213,72.80095823037145,1.0,1.2,-168,-15,0,8,168,12,524.6817805767059,524.6818215847015,524.6843574047089,524.6963245868683,524.8462829589844,524.8462829589844,524.8462829589844,524.8462829589844,524.8462829589844,524.8462829589844,524.8462829589844,525.6471223831177,1,0.9425852298736572,None,,,,,,,,,,,,,,,,,,106,3,2025-02-25_09h58.25.116,comp,2024.2.4,62.149254085194904,2025-02-25 09h58.36.997599 -0500,
130,130,0,catch,None,None,None,None,None,None,None,None,None,None,2,1.2879538536071777,None,,,,,0,0,0,0,0,130,130,125,525.6628351211548,,,,,,,,,,,,,,,,,,,,,,,,,,,,,,,,,,,,,,,,,,,,,,,,,,,,,,,,,,,,,,,,,,,,,,,,,,,,,,,,,85,105,186,139,133,57,2.1,2.11,-218,287,0,271,194,-272,525.6481924057007,525.6482462882996,525.6509482860565,525.6628351211548,525.8132910728455,525.8132910728455,525.8132910728455,525.8132910728455,525.8132910728455,525.8132910728455,525.8132910728455,526.9640069007874,2,1.2879538536071777,None,,,,,,,,,,,,,,,,,,106,3,2025-02-25_09h58.25.116,comp,2024.2.4,62.149254085194904,2025-02-25 09h58.36.997599 -0500,
131,131,0,filler_random,None,None,None,None,None,None,None,None,None,None,2,1.5957117080688477,None,,,,,0,0,0,0,0,131,131,164,526.9791812896729,,,,,,,,,,,,,,,,,,,,,,,,,,,,,,,,,,,,,,,,,,,,,,,,,,,,,,,,,,,,,,,,,,,,,,,,,,,,,,,,,153.87335045307094,95.62576485739193,156.85130050238064,183.6612010656171,145.3873381926309,62.56737268171083,3.0,3.1,-236,264,0,13,219,-280,526.9649078845978,526.9649479389191,526.9675872325897,526.9791812896729,527.1295671463013,527.1295671463013,527.1295671463013,527.1295671463013,527.1295671463013,527.1295671463013,527.1295671463013,528.5809834003448,2,1.5957117080688477,None,,,,,,,,,,,,,,,,,,106,3,2025-02-25_09h58.25.116,comp,2024.2.4,62.149254085194904,2025-02-25 09h58.36.997599 -0500,
132,132,0,filler_random,None,None,None,None,None,None,None,None,None,None,1,2.6179678440093994,None,,,,,0,0,0,0,0,132,132,142,528.5961527824402,,,,,,,,,,,,,,,,,,,,,,,,,,,,,,,,,,,,,,,,,,,,,,,,,,,,,,,,,,,,,,,,,,,,,,,,,,,,,,,,,168.47987032719794,167.83669578132788,144.14138758395455,150.89238108960717,134.60561762102998,106.05231727984068,2.2,2.21,-255,-260,0,261,224,254,528.5818862915039,528.5819265842438,528.5844886302948,528.5961527824402,528.7462999820709,528.7462999820709,528.7462999820709,528.7462999820709,528.7462999820709,528.7462999820709,528.7462999820709,531.2308020591736,1,2.6179678440093994,None,,,,,,,,,,,,,,,,,,106,3,2025-02-25_09h58.25.116,comp,2024.2.4,62.149254085194904,2025-02-25 09h58.36.997599 -0500,
133,133,0,filler_square,None,None,None,None,None,None,None,None,None,None,3,1.9201745986938477,None,,,,,0,0,0,0,0,133,133,193,531.2459237575531,,,,,,,,,,,,,,,,,,,,,,,,,,,,,,,,,,,,,,,,,,,,,,,,,,,,,,,,,,,,,,,,,,,,,,,,,,,,,,,,,104.70730655590268,103.06518483585563,79.2854320534691,80.3749655831687,118.81763890535413,118.81763890535413,3.0,3.2,-188,-258,0,3,196,275,531.2317681312561,531.2318098545074,531.2339868545532,531.2459237575531,531.3960447311401,531.3960447311401,531.3960447311401,531.3960447311401,531.3960447311401,531.3960447311401,531.3960447311401,533.180511713028,3,1.9201745986938477,None,,,,,,,,,,,,,,,,,,106,3,2025-02-25_09h58.25.116,comp,2024.2.4,62.149254085194904,2025-02-25 09h58.36.997599 -0500,
134,134,0,critical,hwd,20.0,1.0,lower,133.0,57.0,57.0,133.0,78.0,78.0,1,2.994849443435669,None,,,,,0,0,0,0,0,134,134,102,533.1959466934204,,,,,,,,,,,,,,,,,,,,,,,,,,,,,,,,,,,,,,,,,,,,,,,,,,,,,,,,,,,,,,,,,,,,,,,,,,,,,,,,,133.0,57.0,57.0,133.0,78.0,78.0,1.0,1.2,-191,12,0,1,202,3,533.1813087463379,533.1813485622406,533.1838307380676,533.1959466934204,533.3460354804993,533.3460354804993,533.3460354804993,533.3460354804993,533.3460354804993,533.3460354804993,533.3460354804993,536.1970839500427,1,2.994849443435669,None,,,,,,,,,,,,,,,,,,106,3,2025-02-25_09h58.25.116,comp,2024.2.4,62.149254085194904,2025-02-25 09h58.36.997599 -0500,
135,135,0,critical,hdw,20.0,2.1,upper,200.0,125.0,141.0,141.0,125.0,200.0,1,2.3939473628997803,None,,,,,0,0,0,0,0,135,135,47,536.2128188610077,,,,,,,,,,,,,,,,,,,,,,,,,,,,,,,,,,,,,,,,,,,,,,,,,,,,,,,,,,,,,,,,,,,,,,,,,,,,,,,,,200.0,125.0,141.0,141.0,125.0,200.0,2.1,2.11,-229,289,0,287,266,-263,536.197874546051,536.1979134082794,536.2005944252014,536.2128188610077,536.3629965782166,536.3629965782166,536.3629965782166,536.3629965782166,536.3629965782166,536.3629965782166,536.3629965782166,538.613977432251,1,2.3939473628997803,None,,,,,,,,,,,,,,,,,,106,3,2025-02-25_09h58.25.116,comp,2024.2.4,62.149254085194904,2025-02-25 09h58.36.997599 -0500,
136,136,0,critical,hwd,35.0,1.0,lower,133.0,57.0,57.0,133.0,70.0,70.0,1,4.136674642562866,None,,,,,0,0,0,0,0,136,136,96,538.6293859481812,,,,,,,,,,,,,,,,,,,,,,,,,,,,,,,,,,,,,,,,,,,,,,,,,,,,,,,,,,,,,,,,,,,,,,,,,,,,,,,,,133.0,57.0,57.0,133.0,70.0,70.0,1.0,1.3,289,-265,480,-287,678,-288,538.6147711277008,538.6148109436035,538.6174540519714,538.6293859481812,538.7792549133301,538.7792549133301,538.7792549133301,538.7792549133301,538.7792549133301,538.7792549133301,538.7792549133301,542.7803001403809,1,4.136674642562866,None,,,,,,,,,,,,,,,,,,106,3,2025-02-25_09h58.25.116,comp,2024.2.4,62.149254085194904,2025-02-25 09h58.36.997599 -0500,
137,137,0,filler_square,None,None,None,None,None,None,None,None,None,None,3,1.7950797080993652,None,,,,,0,0,0,0,0,137,137,181,542.7958672046661,,,,,,,,,,,,,,,,,,,,,,,,,,,,,,,,,,,,,,,,,,,,,,,,,,,,,,,,,,,,,,,,,,,,,,,,,,,,,,,,,70.55415995360921,65.06325207024871,61.76896473898391,64.49250807169436,71.55819953938173,71.55819953938173,1.0,1.2,-161,0,0,13,164,-2,542.7812530994415,542.7812938690186,542.7837283611298,542.7958672046661,542.9462823867798,542.9462823867798,542.9462823867798,542.9462823867798,542.9462823867798,542.9462823867798,542.9462823867798,544.5969858169556,3,1.7950797080993652,None,,,,,,,,,,,,,,,,,,106,3,2025-02-25_09h58.25.116,comp,2024.2.4,62.149254085194904,2025-02-25 09h58.36.997599 -0500,
138,138,0,filler_square,None,None,None,None,None,None,None,None,None,None,1,1.289088487625122,None,,,,,0,0,0,0,0,138,138,176,544.6127116680145,,,,,,,,,,,,,,,,,,,,,,,,,,,,,,,,,,,,,,,,,,,,,,,,,,,,,,,,,,,,,,,,,,,,,,,,,,,,,,,,,175.33275004738147,175.33275004738147,150.7958186676488,141.2515964723499,163.454127863804,88.41486816139484,3.0,3.1,-254,285,0,-9,211,-274,544.5979557037354,544.5979962348938,544.6006121635437,544.6127116680145,544.7628891468048,544.7628891468048,544.7628891468048,544.7628891468048,544.7628891468048,544.7628891468048,544.7628891468048,545.9141252040863,1,1.289088487625122,None,,,,,,,,,,,,,,,,,,106,3,2025-02-25_09h58.25.116,comp,2024.2.4,62.149254085194904,2025-02-25 09h58.36.997599 -0500,
139,139,0,critical,hdw,35.0,2.1,lower,133.0,57.0,70.0,70.0,57.0,133.0,1,1.49365234375,None,,,,,0,0,0,0,0,139,139,44,545.929089307785,,,,,,,,,,,,,,,,,,,,,,,,,,,,,,,,,,,,,,,,,,,,,,,,,,,,,,,,,,,,,,,,,,,,,,,,,,,,,,,,,133.0,57.0,70.0,70.0,57.0,133.0,2.1,2.12,-160,-286,0,-264,198,270,545.9149305820465,545.9149701595306,545.9172337055206,545.929089307785,546.079304933548,546.079304933548,546.079304933548,546.079304933548,546.079304933548,546.079304933548,546.079304933548,547.4303002357483,1,1.49365234375,None,,,,,,,,,,,,,,,,,,106,3,2025-02-25_09h58.25.116,comp,2024.2.4,62.149254085194904,2025-02-25 09h58.36.997599 -0500,
