thisN,thisTrialN,thisRepN,effect,order,distance,config,diag,h_1,w_1,h_2,w_2,h_3,w_3,rect_choice.keys,rect_choice.rt,rect_choice.duration,instructions_loop.thisRepN,instructions_loop.thisTrialN,instructions_loop.thisN,instructions_loop.thisIndex,blocks.thisRepN,blocks.thisTrialN,blocks.thisN,blocks.thisIndex,trials.thisRepN,trials.thisTrialN,trials.thisN,trials.thisIndex,thisRow.t,notes,consent.started,agree_button.started,decline_button.started,consent_img.started,mouse.started,consent.stopped,agree_button.numClicks,agree_button.timesOn,agree_button.timesOff,decline_button.numClicks,decline_button.timesOn,decline_button.timesOff,mouse.x,mouse.y,mouse.leftButton,mouse.midButton,mouse.rightButton,mouse.time,mouse.clicked_name,exp_params.started,exp_params.stopped,welcome.started,welcome_text.started,welcome.stopped,instructions_1.started,instructions_1_text_1.started,instructions_1_text_2.started,key_resp.started,instructions_1.stopped,instructions_loop.key_resp.keys,instructions_loop.key_resp.rt,instructions_loop.key_resp.duration,instructions_2.started,instructions_2_text_1.started,instructions_2_text_2.started,key_resp_2.started,instructions_2.stopped,instructions_loop.key_resp_2.keys,instructions_loop.key_resp_2.rt,instructions_loop.key_resp_2.duration,instructions_3.started,instructions_3_text_1.started,r1_instr3.started,r2_instr3.started,r3_instr3.started,r1_instr3_label.started,r2_instr3_label.started,r3_instr3_label.started,instructions_3_text_3.started,instructions_3_text_4.started,key_resp_3.started,instructions_3.stopped,instructions_loop.key_resp_3.keys,instructions_loop.key_resp_3.rt,instructions_loop.key_resp_3.duration,instructions_4.started,instructions_4_text_1.started,instructions_4_text_3.started,instructions_4_text_2.started,key_resp_4.started,instructions_4.stopped,instructions_loop.key_resp_4.keys,instructions_loop.key_resp_4.rt,instructions_loop.key_resp_4.duration,instructions_5.started,instructions_5_text_1.started,instructions_5_text_2.started,key_resp_5.started,instructions_5.stopped,instructions_loop.key_resp_5.keys,instructions_loop.key_resp_5.rt,instructions_loop.key_resp_5.duration,start_exp.started,start_exp_text.started,key_resp_6.started,start_exp.stopped,key_resp_6.keys,key_resp_6.rt,key_resp_6.duration,h_1_tmp,w_1_tmp,h_2_tmp,w_2_tmp,h_3_tmp,w_3_tmp,config_tmp,config_tmp_1,r_1_x,r_1_y,r_2_x,r_2_y,r_3_x,r_3_y,pre_trial.started,pre_trial.stopped,choice_trial.started,rect_choice.started,r_1.started,r_2.started,r_3.started,r_1_label.started,r_2_label.started,r_3_label.started,prompt.started,choice_trial.stopped,trials.rect_choice.keys,trials.rect_choice.rt,trials.rect_choice.duration,end_block.started,end_block_text.started,end_block.stopped,end.started,end_text.started,key_resp_7.started,end.stopped,key_resp_7.keys,key_resp_7.rt,key_resp_7.duration,debriefing.started,debrief_form.started,end_debrief.started,debriefing.stopped,end_debrief.keys,end_debrief.rt,end_debrief.duration,participant,computer,date,expName,psychopyVersion,frameRate,expStart,
,,,,,,,,,,,,,,,,,,,,,,,,,,,,,,,0.01515507698059082,0.0416102409362793,0.0416102409362793,0.0416102409362793,0.014684677124023438,9.831175804138184,1,[9.787904739379883],[9.787918329238892],0,,,[-45.0],[-517.0],[1],[0],[0],[9.81531047821045],['agree_button'],,,,,,,,,,,,,,,,,,,,,,,,,,,,,,,,,,,,,,,,,,,,,,,,,,,,,,,,,,,,,,,,,,,,,,,,,,,,,,,,,,,,,,,,,,,,,,,,,,,,,,,,,,,108,5,2025-02-25_09h59.02.774,comp,2024.2.4,60.77600434703858,2025-02-25 09h59.13.661791 -0500,
,,,,,,,,,,,,,,,,,,,,,,,,,,,,,,,,,,,,,,,,,,,,,,,,,,9.831544160842896,9.831593036651611,,,,,,,,,,,,,,,,,,,,,,,,,,,,,,,,,,,,,,,,,,,,,,,,,,,,,,,,,,,,,,,,,,,,,,,,,,,,,,,,,,,,,,,,,,,,,,,,,,,,,,,,,108,5,2025-02-25_09h59.02.774,comp,2024.2.4,60.77600434703858,2025-02-25 09h59.13.661791 -0500,
,,,,,,,,,,,,,,,,,,,,,,,,,,,,,,,,,,,,,,,,,,,,,,,,,,,,9.83162546157837,9.845631837844849,11.832536220550537,,,,,,,,,,,,,,,,,,,,,,,,,,,,,,,,,,,,,,,,,,,,,,,,,,,,,,,,,,,,,,,,,,,,,,,,,,,,,,,,,,,,,,,,,,,,,,,,,,,,,,108,5,2025-02-25_09h59.02.774,comp,2024.2.4,60.77600434703858,2025-02-25 09h59.13.661791 -0500,
0,0,0,,,,,,,,,,,,,,,0,0,0,0,,,,,,,,,11.849728107452393,,,,,,,,,,,,,,,,,,,,,,,,,,11.83309292793274,11.849728107452393,11.849728107452393,13.33288025856018,17.167242765426636,space,3.8274292945861816,None,17.167332887649536,17.183112859725952,17.183112859725952,18.66652226448059,25.201712369918823,space,6.526615619659424,None,25.20180034637451,25.22441554069519,25.22441554069519,25.22441554069519,25.22441554069519,25.22441554069519,25.22441554069519,25.22441554069519,25.22441554069519,25.22441554069519,26.71625256538391,31.434186935424805,space,4.707972764968872,None,31.434273719787598,31.4497172832489,31.4497172832489,31.4497172832489,32.949766397476196,36.58433818817139,space,3.6175708770751953,None,36.584420680999756,36.599772691726685,36.599772691726685,38.099042654037476,39.11734175682068,space,1.0147242546081543,None,39.1174521446228,39.13296985626221,39.13296985626221,40.15071678161621,space,1.002807378768921,None,,,,,,,,,,,,,,,,,,,,,,,,,,,,,,,,,,,,,,,,,,,,,,,108,5,2025-02-25_09h59.02.774,comp,2024.2.4,60.77600434703858,2025-02-25 09h59.13.661791 -0500,
0,0,0,filler_random,None,None,None,None,None,None,None,None,None,None,3,4.324689626693726,None,,,,,0,0,0,0,0,0,0,138,40.210997581481934,,,,,,,,,,,,,,,,,,,,,,,,,,,,,,,,,,,,,,,,,,,,,,,,,,,,,,,,,,,,,,,,,,,,,,,,,,,,,,,,,162.1019520251815,93.64869819972579,192.47705890788725,137.76900689623486,79.73627836707169,101.92752628251532,2.1,2.12,-212,-282,0,-284,216,277,40.19764280319214,40.197691202163696,40.19975137710571,40.210997581481934,40.35352063179016,40.35352063179016,40.35352063179016,40.35352063179016,40.35352063179016,40.35352063179016,40.35352063179016,44.55046010017395,3,4.324689626693726,None,,,,,,,,,,,,,,,,,,108,5,2025-02-25_09h59.02.774,comp,2024.2.4,60.77600434703858,2025-02-25 09h59.13.661791 -0500,
1,1,0,filler_random,None,None,None,None,None,None,None,None,None,None,3,0.13842248916625977,None,,,,,0,0,0,0,0,1,1,166,44.56595802307129,,,,,,,,,,,,,,,,,,,,,,,,,,,,,,,,,,,,,,,,,,,,,,,,,,,,,,,,,,,,,,,,,,,,,,,,,,,,,,,,,133.32133794751886,181.83303697013,190.14087114127523,63.36402413820297,100.91974999397522,59.7984838725294,2.1,2.12,-219,-283,0,-260,158,257,44.55142617225647,44.55146789550781,44.554959774017334,44.56595802307129,44.71612095832825,44.71612095832825,44.71612095832825,44.71612095832825,44.71612095832825,44.71612095832825,44.71612095832825,44.71715211868286,3,0.13842248916625977,None,,,,,,,,,,,,,,,,,,108,5,2025-02-25_09h59.02.774,comp,2024.2.4,60.77600434703858,2025-02-25 09h59.13.661791 -0500,
2,2,0,critical,dhw,35.0,2.1,upper,127.0,127.0,200.0,125.0,125.0,200.0,2,10.56558346748352,None,,,,,0,0,0,0,0,2,2,25,44.73236346244812,,,,,,,,,,,,,,,,,,,,,,,,,,,,,,,,,,,,,,,,,,,,,,,,,,,,,,,,,,,,,,,,,,,,,,,,,,,,,,,,,127.0,127.0,200.0,125.0,125.0,200.0,2.1,2.11,-222,284,0,251,258,-283,44.717960357666016,44.718000650405884,44.72037410736084,44.73236346244812,44.88279986381531,44.88279986381531,44.88279986381531,44.88279986381531,44.88279986381531,44.88279986381531,44.88279986381531,55.300559759140015,2,10.56558346748352,None,,,,,,,,,,,,,,,,,,108,5,2025-02-25_09h59.02.774,comp,2024.2.4,60.77600434703858,2025-02-25 09h59.13.661791 -0500,
3,3,0,filler_square,None,None,None,None,None,None,None,None,None,None,3,2.203094482421875,None,,,,,0,0,0,0,0,3,3,177,55.31599569320679,,,,,,,,,,,,,,,,,,,,,,,,,,,,,,,,,,,,,,,,,,,,,,,,,,,,,,,,,,,,,,,,,,,,,,,,,,,,,,,,,160.63518559459015,59.662241165894365,113.48144665769779,83.92584336298238,174.40775742728715,174.40775742728715,1.0,1.3,312,-286,480,-289,705,-277,55.30153727531433,55.301578521728516,55.30402731895447,55.31599569320679,55.46599221229553,55.46599221229553,55.46599221229553,55.46599221229553,55.46599221229553,55.46599221229553,55.46599221229553,57.53369760513306,3,2.203094482421875,None,,,,,,,,,,,,,,,,,,108,5,2025-02-25_09h59.02.774,comp,2024.2.4,60.77600434703858,2025-02-25 09h59.13.661791 -0500,
4,4,0,critical,whd,20.0,1.0,lower,57.0,133.0,133.0,57.0,78.0,78.0,2,7.627025365829468,None,,,,,0,0,0,0,0,4,4,90,57.548964977264404,,,,,,,,,,,,,,,,,,,,,,,,,,,,,,,,,,,,,,,,,,,,,,,,,,,,,,,,,,,,,,,,,,,,,,,,,,,,,,,,,57.0,133.0,133.0,57.0,78.0,78.0,1.0,1.3,289,-267,480,-258,644,-281,57.53450417518616,57.534544467926025,57.537079095840454,57.548964977264404,57.699469804763794,57.699469804763794,57.699469804763794,57.699469804763794,57.699469804763794,57.699469804763794,57.699469804763794,65.18340039253235,2,7.627025365829468,None,,,,,,,,,,,,,,,,,,108,5,2025-02-25_09h59.02.774,comp,2024.2.4,60.77600434703858,2025-02-25 09h59.13.661791 -0500,
5,5,0,filler_square,None,None,None,None,None,None,None,None,None,None,2,2.234071731567383,None,,,,,0,0,0,0,0,5,5,200,65.19902443885803,,,,,,,,,,,,,,,,,,,,,,,,,,,,,,,,,,,,,,,,,,,,,,,,,,,,,,,,,,,,,,,,,,,,,,,,,,,,,,,,,108.16337120692617,76.49298432008302,108.69527548441275,108.69527548441275,66.60912235335306,103.71967277396237,1.0,1.2,-189,5,0,1,202,8,65.18430519104004,65.18434357643127,65.18683171272278,65.19902443885803,65.34907531738281,65.34907531738281,65.34907531738281,65.34907531738281,65.34907531738281,65.34907531738281,65.34907531738281,67.45013427734375,2,2.234071731567383,None,,,,,,,,,,,,,,,,,,108,5,2025-02-25_09h59.02.774,comp,2024.2.4,60.77600434703858,2025-02-25 09h59.13.661791 -0500,
6,6,0,filler_square,None,None,None,None,None,None,None,None,None,None,2,1.534003734588623,None,,,,,0,0,0,0,0,6,6,174,67.46554446220398,,,,,,,,,,,,,,,,,,,,,,,,,,,,,,,,,,,,,,,,,,,,,,,,,,,,,,,,,,,,,,,,,,,,,,,,,,,,,,,,,93.86905231975325,97.20904859722688,105.29757495281768,105.29757495281768,95.10695090745625,78.37719786570105,2.1,2.11,-197,265,0,286,188,-275,67.451096534729,67.45113754272461,67.45361709594727,67.46554446220398,67.6156222820282,67.6156222820282,67.6156222820282,67.6156222820282,67.6156222820282,67.6156222820282,67.6156222820282,69.01677370071411,2,1.534003734588623,None,,,,,,,,,,,,,,,,,,108,5,2025-02-25_09h59.02.774,comp,2024.2.4,60.77600434703858,2025-02-25 09h59.13.661791 -0500,
7,7,0,critical,dhw,35.0,1.0,lower,70.0,70.0,133.0,57.0,57.0,133.0,3,3.238617420196533,None,,,,,0,0,0,0,0,7,7,48,69.03226923942566,,,,,,,,,,,,,,,,,,,,,,,,,,,,,,,,,,,,,,,,,,,,,,,,,,,,,,,,,,,,,,,,,,,,,,,,,,,,,,,,,70.0,70.0,133.0,57.0,57.0,133.0,1.0,1.3,320,-260,480,-287,671,-273,69.0176146030426,69.017653465271,69.02024269104004,69.03226923942566,69.1823558807373,69.1823558807373,69.1823558807373,69.1823558807373,69.1823558807373,69.1823558807373,69.1823558807373,72.28344750404358,3,3.238617420196533,None,,,,,,,,,,,,,,,,,,108,5,2025-02-25_09h59.02.774,comp,2024.2.4,60.77600434703858,2025-02-25 09h59.13.661791 -0500,
8,8,0,critical,hdw,20.0,2.1,lower,133.0,57.0,78.0,78.0,57.0,133.0,3,2.508944511413574,None,,,,,0,0,0,0,0,8,8,22,72.29887270927429,,,,,,,,,,,,,,,,,,,,,,,,,,,,,,,,,,,,,,,,,,,,,,,,,,,,,,,,,,,,,,,,,,,,,,,,,,,,,,,,,133.0,57.0,78.0,78.0,57.0,133.0,2.1,2.11,-164,283,0,286,202,-270,72.28425335884094,72.28429388999939,72.28684735298157,72.29887270927429,72.4489517211914,72.4489517211914,72.4489517211914,72.4489517211914,72.4489517211914,72.4489517211914,72.4489517211914,74.8167507648468,3,2.508944511413574,None,,,,,,,,,,,,,,,,,,108,5,2025-02-25_09h59.02.774,comp,2024.2.4,60.77600434703858,2025-02-25 09h59.13.661791 -0500,
9,9,0,critical,hwd,35.0,4.0,upper,200.0,125.0,125.0,200.0,127.0,127.0,2,6.00775408744812,None,,,,,0,0,0,0,0,9,9,101,74.83247375488281,,,,,,,,,,,,,,,,,,,,,,,,,,,,,,,,,,,,,,,,,,,,,,,,,,,,,,,,,,,,,,,,,,,,,,,,,,,,,,,,,200.0,125.0,125.0,200.0,127.0,127.0,4.0,4.2,-258,-10,0,-258,260,-10,74.81758165359497,74.81762146949768,74.82016777992249,74.83247375488281,74.98260188102722,74.98260188102722,74.98260188102722,74.98260188102722,74.98260188102722,74.98260188102722,74.98260188102722,80.85016345977783,2,6.00775408744812,None,,,,,,,,,,,,,,,,,,108,5,2025-02-25_09h59.02.774,comp,2024.2.4,60.77600434703858,2025-02-25 09h59.13.661791 -0500,
10,10,0,filler_random,None,None,None,None,None,None,None,None,None,None,3,1.8533778190612793,None,,,,,0,0,0,0,0,10,10,150,80.8656120300293,,,,,,,,,,,,,,,,,,,,,,,,,,,,,,,,,,,,,,,,,,,,,,,,,,,,,,,,,,,,,,,,,,,,,,,,,,,,,,,,,77.57396079126136,124.90170051811191,166.54627186793803,87.40189909815938,169.5882530406208,123.45066053145153,1.0,1.1,-682,288,-480,255,-279,269,80.85106825828552,80.85110878944397,80.85352182388306,80.8656120300293,81.0157310962677,81.0157310962677,81.0157310962677,81.0157310962677,81.0157310962677,81.0157310962677,81.0157310962677,82.7334451675415,3,1.8533778190612793,None,,,,,,,,,,,,,,,,,,108,5,2025-02-25_09h59.02.774,comp,2024.2.4,60.77600434703858,2025-02-25 09h59.13.661791 -0500,
11,11,0,critical,dwh,20.0,3.0,upper,141.0,141.0,125.0,200.0,200.0,125.0,3,5.132755279541016,None,,,,,0,0,0,0,0,11,11,69,82.74883008003235,,,,,,,,,,,,,,,,,,,,,,,,,,,,,,,,,,,,,,,,,,,,,,,,,,,,,,,,,,,,,,,,,,,,,,,,,,,,,,,,,141.0,141.0,125.0,200.0,200.0,125.0,3.0,3.1,-266,269,0,2,258,-275,82.7342619895935,82.73430037498474,82.73676609992981,82.74883008003235,82.89929485321045,82.89929485321045,82.89929485321045,82.89929485321045,82.89929485321045,82.89929485321045,82.89929485321045,87.900155544281,3,5.132755279541016,None,,,,,,,,,,,,,,,,,,108,5,2025-02-25_09h59.02.774,comp,2024.2.4,60.77600434703858,2025-02-25 09h59.13.661791 -0500,
12,12,0,critical,hdw,35.0,2.1,lower,133.0,57.0,70.0,70.0,57.0,133.0,3,1.8934733867645264,None,,,,,0,0,0,0,0,12,12,44,87.91542291641235,,,,,,,,,,,,,,,,,,,,,,,,,,,,,,,,,,,,,,,,,,,,,,,,,,,,,,,,,,,,,,,,,,,,,,,,,,,,,,,,,133.0,57.0,70.0,70.0,57.0,133.0,2.1,2.11,-160,265,0,261,198,-277,87.90092873573303,87.90096735954285,87.90427613258362,87.91542291641235,88.06604599952698,88.06604599952698,88.06604599952698,88.06604599952698,88.06604599952698,88.06604599952698,88.06604599952698,89.81713461875916,3,1.8934733867645264,None,,,,,,,,,,,,,,,,,,108,5,2025-02-25_09h59.02.774,comp,2024.2.4,60.77600434703858,2025-02-25 09h59.13.661791 -0500,
13,13,0,critical,whd,20.0,3.0,upper,125.0,200.0,200.0,125.0,141.0,141.0,1,11.864691734313965,None,,,,,0,0,0,0,0,13,13,93,89.83286643028259,,,,,,,,,,,,,,,,,,,,,,,,,,,,,,,,,,,,,,,,,,,,,,,,,,,,,,,,,,,,,,,,,,,,,,,,,,,,,,,,,125.0,200.0,200.0,125.0,141.0,141.0,3.0,3.1,-258,281,0,10,229,-276,89.81792068481445,89.81796193122864,89.82008862495422,89.83286643028259,89.98271155357361,89.98271155357361,89.98271155357361,89.98271155357361,89.98271155357361,89.98271155357361,89.98271155357361,101.7005066871643,1,11.864691734313965,None,,,,,,,,,,,,,,,,,,108,5,2025-02-25_09h59.02.774,comp,2024.2.4,60.77600434703858,2025-02-25 09h59.13.661791 -0500,
14,14,0,critical,hdw,20.0,2.1,lower,133.0,57.0,78.0,78.0,57.0,133.0,1,4.338660001754761,None,,,,,0,0,0,0,0,14,14,46,101.71601891517639,,,,,,,,,,,,,,,,,,,,,,,,,,,,,,,,,,,,,,,,,,,,,,,,,,,,,,,,,,,,,,,,,,,,,,,,,,,,,,,,,133.0,57.0,78.0,78.0,57.0,133.0,2.1,2.11,-164,285,0,268,202,-282,101.70134329795837,101.70138430595398,101.70371556282043,101.71601891517639,101.86604499816895,101.86604499816895,101.86604499816895,101.86604499816895,101.86604499816895,101.86604499816895,101.86604499816895,106.06748294830322,1,4.338660001754761,None,,,,,,,,,,,,,,,,,,108,5,2025-02-25_09h59.02.774,comp,2024.2.4,60.77600434703858,2025-02-25 09h59.13.661791 -0500,
15,15,0,filler_random,None,None,None,None,None,None,None,None,None,None,2,2.2772252559661865,None,,,,,0,0,0,0,0,15,15,147,106.08239889144897,,,,,,,,,,,,,,,,,,,,,,,,,,,,,,,,,,,,,,,,,,,,,,,,,,,,,,,,,,,,,,,,,,,,,,,,,,,,,,,,,135.60559967262287,134.17038535510517,189.01237216684882,156.5838842242617,91.8967766412803,180.98929111082745,2.2,2.21,-241,-286,0,286,265,285,106.06842613220215,106.06846785545349,106.07059907913208,106.08239889144897,106.2328748703003,106.2328748703003,106.2328748703003,106.2328748703003,106.2328748703003,106.2328748703003,106.2328748703003,108.36670112609863,2,2.2772252559661865,None,,,,,,,,,,,,,,,,,,108,5,2025-02-25_09h59.02.774,comp,2024.2.4,60.77600434703858,2025-02-25 09h59.13.661791 -0500,
16,16,0,catch,None,None,None,None,None,None,None,None,None,None,2,1.315246820449829,None,,,,,0,0,0,0,0,16,16,126,108.38252305984497,,,,,,,,,,,,,,,,,,,,,,,,,,,,,,,,,,,,,,,,,,,,,,,,,,,,,,,,,,,,,,,,,,,,,,,,,,,,,,,,,89,101,200,125,73,117,2.1,2.11,-209,262,0,266,217,-263,108.3677568435669,108.36779689788818,108.37043499946594,108.38252305984497,108.53215479850769,108.53215479850769,108.53215479850769,108.53215479850769,108.53215479850769,108.53215479850769,108.53215479850769,109.70009732246399,2,1.315246820449829,None,,,,,,,,,,,,,,,,,,108,5,2025-02-25_09h59.02.774,comp,2024.2.4,60.77600434703858,2025-02-25 09h59.13.661791 -0500,
17,17,0,filler_square,None,None,None,None,None,None,None,None,None,None,1,2.9391732215881348,None,,,,,0,0,0,0,0,17,17,198,109.71543049812317,,,,,,,,,,,,,,,,,,,,,,,,,,,,,,,,,,,,,,,,,,,,,,,,,,,,,,,,,,,,,,,,,,,,,,,,,,,,,,,,,114.79253341723896,114.79253341723896,87.89628011726107,78.39140868520907,93.61505724584214,108.14141866822834,4.0,4.2,-193,-10,0,-257,189,14,109.70105504989624,109.70109629631042,109.70321822166443,109.71543049812317,109.8654899597168,109.8654899597168,109.8654899597168,109.8654899597168,109.8654899597168,109.8654899597168,109.8654899597168,112.66738700866699,1,2.9391732215881348,None,,,,,,,,,,,,,,,,,,108,5,2025-02-25_09h59.02.774,comp,2024.2.4,60.77600434703858,2025-02-25 09h59.13.661791 -0500,
18,18,0,critical,dwh,20.0,2.1,upper,141.0,141.0,125.0,200.0,200.0,125.0,3,3.004828691482544,None,,,,,0,0,0,0,0,18,18,31,112.68186688423157,,,,,,,,,,,,,,,,,,,,,,,,,,,,,,,,,,,,,,,,,,,,,,,,,,,,,,,,,,,,,,,,,,,,,,,,,,,,,,,,,141.0,141.0,125.0,200.0,200.0,125.0,2.1,2.11,-266,272,0,262,258,-273,112.66820764541626,112.6682493686676,112.67032885551453,112.68186688423157,112.83243346214294,112.83243346214294,112.83243346214294,112.83243346214294,112.83243346214294,112.83243346214294,112.83243346214294,115.70011734962463,3,3.004828691482544,None,,,,,,,,,,,,,,,,,,108,5,2025-02-25_09h59.02.774,comp,2024.2.4,60.77600434703858,2025-02-25 09h59.13.661791 -0500,
19,19,0,critical,hdw,35.0,3.0,upper,200.0,125.0,127.0,127.0,125.0,200.0,1,11.387735843658447,None,,,,,0,0,0,0,0,19,19,111,115.71516156196594,,,,,,,,,,,,,,,,,,,,,,,,,,,,,,,,,,,,,,,,,,,,,,,,,,,,,,,,,,,,,,,,,,,,,,,,,,,,,,,,,200.0,125.0,127.0,127.0,125.0,200.0,3.0,3.2,-222,-254,0,10,260,285,115.70092439651489,115.70096564292908,115.70304679870605,115.71516156196594,115.86543893814087,115.86543893814087,115.86543893814087,115.86543893814087,115.86543893814087,115.86543893814087,115.86543893814087,127.1172308921814,1,11.387735843658447,None,,,,,,,,,,,,,,,,,,108,5,2025-02-25_09h59.02.774,comp,2024.2.4,60.77600434703858,2025-02-25 09h59.13.661791 -0500,
20,20,0,filler_square,None,None,None,None,None,None,None,None,None,None,3,1.2592628002166748,None,,,,,0,0,0,0,0,20,20,204,127.13235211372375,,,,,,,,,,,,,,,,,,,,,,,,,,,,,,,,,,,,,,,,,,,,,,,,,,,,,,,,,,,,,,,,,,,,,,,,,,,,,,,,,105.29523281296272,115.90774167839473,110.8134268891638,68.16662838699766,193.31628229539416,193.31628229539416,2.2,2.21,-188,-270,0,283,227,257,127.11830377578735,127.11834788322449,127.12088179588318,127.13235211372375,127.28369975090027,127.28369975090027,127.28369975090027,127.28369975090027,127.28369975090027,127.28369975090027,127.28369975090027,128.3998465538025,3,1.2592628002166748,None,,,,,,,,,,,,,,,,,,108,5,2025-02-25_09h59.02.774,comp,2024.2.4,60.77600434703858,2025-02-25 09h59.13.661791 -0500,
21,21,0,filler_random,None,None,None,None,None,None,None,None,None,None,2,1.4390711784362793,None,,,,,0,0,0,0,0,21,21,156,128.415429353714,,,,,,,,,,,,,,,,,,,,,,,,,,,,,,,,,,,,,,,,,,,,,,,,,,,,,,,,,,,,,,,,,,,,,,,,,,,,,,,,,182.82241088221738,109.01304188587962,197.251181784987,176.81341572040128,74.64950319867216,158.2801450911262,2.1,2.12,-239,-252,0,-277,264,263,128.40087246894836,128.40092706680298,128.40311813354492,128.415429353714,128.56549382209778,128.56549382209778,128.56549382209778,128.56549382209778,128.56549382209778,128.56549382209778,128.56549382209778,129.8668873310089,2,1.4390711784362793,None,,,,,,,,,,,,,,,,,,108,5,2025-02-25_09h59.02.774,comp,2024.2.4,60.77600434703858,2025-02-25 09h59.13.661791 -0500,
22,22,0,filler_random,None,None,None,None,None,None,None,None,None,None,3,1.4047715663909912,None,,,,,0,0,0,0,0,22,22,139,129.8817846775055,,,,,,,,,,,,,,,,,,,,,,,,,,,,,,,,,,,,,,,,,,,,,,,,,,,,,,,,,,,,,,,,,,,,,,,,,,,,,,,,,70.86197422336959,95.83800809653204,181.73287313462723,88.79022368664036,196.63372783110776,125.55494196419232,1.0,1.2,-188,-7,0,6,203,2,129.86780405044556,129.8678433895111,129.87005186080933,129.8817846775055,130.03195118904114,130.03195118904114,130.03195118904114,130.03195118904114,130.03195118904114,130.03195118904114,130.03195118904114,131.29977989196777,3,1.4047715663909912,None,,,,,,,,,,,,,,,,,,108,5,2025-02-25_09h59.02.774,comp,2024.2.4,60.77600434703858,2025-02-25 09h59.13.661791 -0500,
23,23,0,critical,hwd,20.0,3.0,upper,200.0,125.0,125.0,200.0,141.0,141.0,1,16.355268478393555,None,,,,,0,0,0,0,0,23,23,105,131.31503582000732,,,,,,,,,,,,,,,,,,,,,,,,,,,,,,,,,,,,,,,,,,,,,,,,,,,,,,,,,,,,,,,,,,,,,,,,,,,,,,,,,200.0,125.0,125.0,200.0,141.0,141.0,3.0,3.2,-258,-276,0,-18,266,273,131.30056738853455,131.3006076812744,131.30323815345764,131.31503582000732,131.4653604030609,131.4653604030609,131.4653604030609,131.4653604030609,131.4653604030609,131.4653604030609,131.4653604030609,147.68316626548767,1,16.355268478393555,None,,,,,,,,,,,,,,,,,,108,5,2025-02-25_09h59.02.774,comp,2024.2.4,60.77600434703858,2025-02-25 09h59.13.661791 -0500,
24,24,0,critical,wdh,35.0,4.0,upper,125.0,200.0,127.0,127.0,200.0,125.0,3,5.4840826988220215,None,,,,,0,0,0,0,0,24,24,77,147.6984384059906,,,,,,,,,,,,,,,,,,,,,,,,,,,,,,,,,,,,,,,,,,,,,,,,,,,,,,,,,,,,,,,,,,,,,,,,,,,,,,,,,125.0,200.0,127.0,127.0,200.0,125.0,4.0,4.1,-260,-252,0,-14,222,-285,147.6840000152588,147.68404173851013,147.68742680549622,147.6984384059906,147.84880757331848,147.84880757331848,147.84880757331848,147.84880757331848,147.84880757331848,147.84880757331848,147.84880757331848,153.19970655441284,3,5.4840826988220215,None,,,,,,,,,,,,,,,,,,108,5,2025-02-25_09h59.02.774,comp,2024.2.4,60.77600434703858,2025-02-25 09h59.13.661791 -0500,
25,25,0,critical,wdh,20.0,2.1,lower,57.0,133.0,78.0,78.0,133.0,57.0,1,4.008337020874023,None,,,,,0,0,0,0,0,25,25,10,153.21494722366333,,,,,,,,,,,,,,,,,,,,,,,,,,,,,,,,,,,,,,,,,,,,,,,,,,,,,,,,,,,,,,,,,,,,,,,,,,,,,,,,,57.0,133.0,78.0,78.0,133.0,57.0,2.1,2.12,-202,-267,0,-262,164,256,153.2005376815796,153.20057845115662,153.20314073562622,153.21494722366333,153.36536836624146,153.36536836624146,153.36536836624146,153.36536836624146,153.36536836624146,153.36536836624146,153.36536836624146,157.23272013664246,1,4.008337020874023,None,,,,,,,,,,,,,,,,,,108,5,2025-02-25_09h59.02.774,comp,2024.2.4,60.77600434703858,2025-02-25 09h59.13.661791 -0500,
26,26,0,critical,dhw,20.0,1.0,upper,141.0,141.0,200.0,125.0,125.0,200.0,2,8.478697538375854,None,,,,,0,0,0,0,0,26,26,55,157.24878978729248,,,,,,,,,,,,,,,,,,,,,,,,,,,,,,,,,,,,,,,,,,,,,,,,,,,,,,,,,,,,,,,,,,,,,,,,,,,,,,,,,141.0,141.0,200.0,125.0,125.0,200.0,1.0,1.2,-229,-15,0,-8,258,6,157.23346042633057,157.23349785804749,157.23547887802124,157.24878978729248,157.39862203598022,157.39862203598022,157.39862203598022,157.39862203598022,157.39862203598022,157.39862203598022,157.39862203598022,165.73299908638,2,8.478697538375854,None,,,,,,,,,,,,,,,,,,108,5,2025-02-25_09h59.02.774,comp,2024.2.4,60.77600434703858,2025-02-25 09h59.13.661791 -0500,
27,27,0,filler_random,None,None,None,None,None,None,None,None,None,None,1,2.0107927322387695,None,,,,,0,0,0,0,0,27,27,154,165.7484211921692,,,,,,,,,,,,,,,,,,,,,,,,,,,,,,,,,,,,,,,,,,,,,,,,,,,,,,,,,,,,,,,,,,,,,,,,,,,,,,,,,167.78672879347707,149.25920245424618,176.45357714900257,110.11468087402318,137.70728996741155,117.78279121800588,4.0,4.1,-226,-279,0,-1,210,-274,165.73390436172485,165.73394775390625,165.736230134964,165.7484211921692,165.8984396457672,165.8984396457672,165.8984396457672,165.8984396457672,165.8984396457672,165.8984396457672,165.8984396457672,167.7663230895996,1,2.0107927322387695,None,,,,,,,,,,,,,,,,,,108,5,2025-02-25_09h59.02.774,comp,2024.2.4,60.77600434703858,2025-02-25 09h59.13.661791 -0500,
28,28,0,critical,whd,20.0,2.1,lower,57.0,133.0,133.0,57.0,78.0,78.0,1,17.066538095474243,None,,,,,0,0,0,0,0,28,28,14,167.78176951408386,,,,,,,,,,,,,,,,,,,,,,,,,,,,,,,,,,,,,,,,,,,,,,,,,,,,,,,,,,,,,,,,,,,,,,,,,,,,,,,,,57.0,133.0,133.0,57.0,78.0,78.0,2.1,2.12,-191,-275,0,-273,164,265,167.76719737052917,167.76723885536194,167.7697331905365,167.78176951408386,167.93161273002625,167.93161273002625,167.93161273002625,167.93161273002625,167.93161273002625,167.93161273002625,167.93161273002625,184.865905046463,1,17.066538095474243,None,,,,,,,,,,,,,,,,,,108,5,2025-02-25_09h59.02.774,comp,2024.2.4,60.77600434703858,2025-02-25 09h59.13.661791 -0500,
29,29,0,critical,wdh,20.0,2.1,lower,57.0,133.0,78.0,78.0,133.0,57.0,1,11.215632438659668,None,,,,,0,0,0,0,0,29,29,34,184.88135433197021,,,,,,,,,,,,,,,,,,,,,,,,,,,,,,,,,,,,,,,,,,,,,,,,,,,,,,,,,,,,,,,,,,,,,,,,,,,,,,,,,57.0,133.0,78.0,78.0,133.0,57.0,2.1,2.12,-202,-258,0,-259,164,261,184.8666889667511,184.8667278289795,184.8690116405487,184.88135433197021,185.03180289268494,185.03180289268494,185.03180289268494,185.03180289268494,185.03180289268494,185.03180289268494,185.03180289268494,196.09930849075317,1,11.215632438659668,None,,,,,,,,,,,,,,,,,,108,5,2025-02-25_09h59.02.774,comp,2024.2.4,60.77600434703858,2025-02-25 09h59.13.661791 -0500,
30,30,0,critical,hdw,35.0,2.1,lower,133.0,57.0,70.0,70.0,57.0,133.0,3,3.092440605163574,None,,,,,0,0,0,0,0,30,30,20,196.1148557662964,,,,,,,,,,,,,,,,,,,,,,,,,,,,,,,,,,,,,,,,,,,,,,,,,,,,,,,,,,,,,,,,,,,,,,,,,,,,,,,,,133.0,57.0,70.0,70.0,57.0,133.0,2.1,2.11,-160,270,0,284,198,-265,196.10012316703796,196.10016322135925,196.10226345062256,196.1148557662964,196.26527976989746,196.26527976989746,196.26527976989746,196.26527976989746,196.26527976989746,196.26527976989746,196.26527976989746,199.21578097343445,3,3.092440605163574,None,,,,,,,,,,,,,,,,,,108,5,2025-02-25_09h59.02.774,comp,2024.2.4,60.77600434703858,2025-02-25 09h59.13.661791 -0500,
31,31,0,critical,hwd,20.0,2.1,upper,200.0,125.0,125.0,200.0,141.0,141.0,1,7.438485383987427,None,,,,,0,0,0,0,0,31,31,43,199.23151755332947,,,,,,,,,,,,,,,,,,,,,,,,,,,,,,,,,,,,,,,,,,,,,,,,,,,,,,,,,,,,,,,,,,,,,,,,,,,,,,,,,200.0,125.0,125.0,200.0,141.0,141.0,2.1,2.11,-258,274,0,274,266,-266,199.21661043167114,199.21665000915527,199.21934247016907,199.23151755332947,199.38193464279175,199.38193464279175,199.38193464279175,199.38193464279175,199.38193464279175,199.38193464279175,199.38193464279175,206.68278551101685,1,7.438485383987427,None,,,,,,,,,,,,,,,,,,108,5,2025-02-25_09h59.02.774,comp,2024.2.4,60.77600434703858,2025-02-25 09h59.13.661791 -0500,
32,32,0,critical,hwd,35.0,3.0,lower,133.0,57.0,57.0,133.0,70.0,70.0,1,7.350301027297974,None,,,,,0,0,0,0,0,32,32,98,206.69787764549255,,,,,,,,,,,,,,,,,,,,,,,,,,,,,,,,,,,,,,,,,,,,,,,,,,,,,,,,,,,,,,,,,,,,,,,,,,,,,,,,,133.0,57.0,57.0,133.0,70.0,70.0,3.0,3.2,-191,-260,0,11,198,290,206.683580160141,206.6836187839508,206.68582820892334,206.69787764549255,206.84804511070251,206.84804511070251,206.84804511070251,206.84804511070251,206.84804511070251,206.84804511070251,206.84804511070251,214.06576299667358,1,7.350301027297974,None,,,,,,,,,,,,,,,,,,108,5,2025-02-25_09h59.02.774,comp,2024.2.4,60.77600434703858,2025-02-25 09h59.13.661791 -0500,
33,33,0,critical,whd,35.0,2.1,upper,125.0,200.0,200.0,125.0,127.0,127.0,2,22.21477437019348,None,,,,,0,0,0,0,0,33,33,13,214.08119082450867,,,,,,,,,,,,,,,,,,,,,,,,,,,,,,,,,,,,,,,,,,,,,,,,,,,,,,,,,,,,,,,,,,,,,,,,,,,,,,,,,125.0,200.0,200.0,125.0,127.0,127.0,2.1,2.11,-258,276,0,256,222,-261,214.0665671825409,214.06660676002502,214.06921863555908,214.08119082450867,214.23165369033813,214.23165369033813,214.23165369033813,214.23165369033813,214.23165369033813,214.23165369033813,214.23165369033813,236.29946970939636,2,22.21477437019348,None,,,,,,,,,,,,,,,,,,108,5,2025-02-25_09h59.02.774,comp,2024.2.4,60.77600434703858,2025-02-25 09h59.13.661791 -0500,
34,34,0,critical,hdw,35.0,4.0,lower,133.0,57.0,70.0,70.0,57.0,133.0,3,3.212794780731201,None,,,,,0,0,0,0,0,34,34,112,236.3147096633911,,,,,,,,,,,,,,,,,,,,,,,,,,,,,,,,,,,,,,,,,,,,,,,,,,,,,,,,,,,,,,,,,,,,,,,,,,,,,,,,,133.0,57.0,70.0,70.0,57.0,133.0,4.0,4.2,-160,19,0,-259,198,-13,236.3002860546112,236.30032634735107,236.30273604393005,236.3147096633911,236.4812753200531,236.4812753200531,236.4812753200531,236.4812753200531,236.4812753200531,236.4812753200531,236.4812753200531,239.53257036209106,3,3.212794780731201,None,,,,,,,,,,,,,,,,,,108,5,2025-02-25_09h59.02.774,comp,2024.2.4,60.77600434703858,2025-02-25 09h59.13.661791 -0500,
35,35,0,filler_random,None,None,None,None,None,None,None,None,None,None,2,2.554527759552002,None,,,,,0,0,0,0,0,35,35,148,239.54807233810425,,,,,,,,,,,,,,,,,,,,,,,,,,,,,,,,,,,,,,,,,,,,,,,,,,,,,,,,,,,,,,,,,,,,,,,,,,,,,,,,,160.02623569820145,88.29437483478667,184.02797462704586,160.9001316372021,101.14373727714377,156.03335257026816,2.1,2.12,-221,-271,0,-252,254,261,239.53351187705994,239.53355312347412,239.53566217422485,239.54807233810425,239.6986038684845,239.6986038684845,239.6986038684845,239.6986038684845,239.6986038684845,239.6986038684845,239.6986038684845,242.11572360992432,2,2.554527759552002,None,,,,,,,,,,,,,,,,,,108,5,2025-02-25_09h59.02.774,comp,2024.2.4,60.77600434703858,2025-02-25 09h59.13.661791 -0500,
36,36,0,filler_square,None,None,None,None,None,None,None,None,None,None,3,14.954718589782715,None,,,,,0,0,0,0,0,36,36,173,242.13100051879883,,,,,,,,,,,,,,,,,,,,,,,,,,,,,,,,,,,,,,,,,,,,,,,,,,,,,,,,,,,,,,,,,,,,,,,,,,,,,,,,,142.93757515079224,114.09739259815464,63.39660867929356,81.62906310457033,147.7531347805213,147.7531347805213,2.1,2.11,-194,266,0,285,211,-281,242.11665630340576,242.11669445037842,242.1192557811737,242.13100051879883,242.2812304496765,242.2812304496765,242.2812304496765,242.2812304496765,242.2812304496765,242.2812304496765,242.2812304496765,257.0989422798157,3,14.954718589782715,None,,,,,,,,,,,,,,,,,,108,5,2025-02-25_09h59.02.774,comp,2024.2.4,60.77600434703858,2025-02-25 09h59.13.661791 -0500,
37,37,0,filler_square,None,None,None,None,None,None,None,None,None,None,1,4.467534065246582,None,,,,,0,0,0,0,0,37,37,192,257.1143333911896,,,,,,,,,,,,,,,,,,,,,,,,,,,,,,,,,,,,,,,,,,,,,,,,,,,,,,,,,,,,,,,,,,,,,,,,,,,,,,,,,65.03247663103933,65.03247663103933,64.75902210551544,60.93670500450167,59.16187942809676,59.351070733122356,4.0,4.2,-159,9,0,-256,156,-8,257.09992575645447,257.0999665260315,257.1021897792816,257.1143333911896,257.2652060985565,257.2652060985565,257.2652060985565,257.2652060985565,257.2652060985565,257.2652060985565,257.2652060985565,261.59861302375793,1,4.467534065246582,None,,,,,,,,,,,,,,,,,,108,5,2025-02-25_09h59.02.774,comp,2024.2.4,60.77600434703858,2025-02-25 09h59.13.661791 -0500,
38,38,0,filler_square,None,None,None,None,None,None,None,None,None,None,1,1.584071397781372,None,,,,,0,0,0,0,0,38,38,180,261.61421060562134,,,,,,,,,,,,,,,,,,,,,,,,,,,,,,,,,,,,,,,,,,,,,,,,,,,,,,,,,,,,,,,,,,,,,,,,,,,,,,,,,136.6719742502006,136.6719742502006,97.9531913163924,65.14138987656519,61.93830312122763,84.23517518340475,1.0,1.2,-197,-18,0,-8,171,4,261.59953713417053,261.5995764732361,261.60217690467834,261.61421060562134,261.76432943344116,261.76432943344116,261.76432943344116,261.76432943344116,261.76432943344116,261.76432943344116,261.76432943344116,263.21539211273193,1,1.584071397781372,None,,,,,,,,,,,,,,,,,,108,5,2025-02-25_09h59.02.774,comp,2024.2.4,60.77600434703858,2025-02-25 09h59.13.661791 -0500,
39,39,0,critical,wdh,35.0,2.1,lower,57.0,133.0,70.0,70.0,133.0,57.0,1,4.7435948848724365,None,,,,,0,0,0,0,0,39,39,8,263.230849981308,,,,,,,,,,,,,,,,,,,,,,,,,,,,,,,,,,,,,,,,,,,,,,,,,,,,,,,,,,,,,,,,,,,,,,,,,,,,,,,,,57.0,133.0,70.0,70.0,133.0,57.0,2.1,2.12,-198,-272,0,-275,160,278,263.2161748409271,263.2162127494812,263.2186608314514,263.230849981308,263.38099193573,263.38099193573,263.38099193573,263.38099193573,263.38099193573,263.38099193573,263.38099193573,267.98206067085266,1,4.7435948848724365,None,,,,,,,,,,,,,,,,,,108,5,2025-02-25_09h59.02.774,comp,2024.2.4,60.77600434703858,2025-02-25 09h59.13.661791 -0500,
40,40,0,critical,dhw,35.0,2.1,upper,127.0,127.0,200.0,125.0,125.0,200.0,3,5.56071138381958,None,,,,,0,0,0,0,0,40,40,1,267.9977903366089,,,,,,,,,,,,,,,,,,,,,,,,,,,,,,,,,,,,,,,,,,,,,,,,,,,,,,,,,,,,,,,,,,,,,,,,,,,,,,,,,127.0,127.0,200.0,125.0,125.0,200.0,2.1,2.11,-222,252,0,268,258,-264,267.98284697532654,267.9828884601593,267.9852685928345,267.9977903366089,268.14779448509216,268.14779448509216,268.14779448509216,268.14779448509216,268.14779448509216,268.14779448509216,268.14779448509216,273.56561946868896,3,5.56071138381958,None,,,,,,,,,,,,,,,,,,108,5,2025-02-25_09h59.02.774,comp,2024.2.4,60.77600434703858,2025-02-25 09h59.13.661791 -0500,
41,41,0,critical,hwd,35.0,2.1,lower,133.0,57.0,57.0,133.0,70.0,70.0,2,12.057673931121826,None,,,,,0,0,0,0,0,41,41,40,273.5810639858246,,,,,,,,,,,,,,,,,,,,,,,,,,,,,,,,,,,,,,,,,,,,,,,,,,,,,,,,,,,,,,,,,,,,,,,,,,,,,,,,,133.0,57.0,57.0,133.0,70.0,70.0,2.1,2.12,-191,-267,0,-257,198,254,273.5664620399475,273.5665032863617,273.5689935684204,273.5810639858246,273.7309081554413,273.7309081554413,273.7309081554413,273.7309081554413,273.7309081554413,273.7309081554413,273.7309081554413,285.6486532688141,2,12.057673931121826,None,,,,,,,,,,,,,,,,,,108,5,2025-02-25_09h59.02.774,comp,2024.2.4,60.77600434703858,2025-02-25 09h59.13.661791 -0500,
42,42,0,critical,whd,35.0,3.0,lower,57.0,133.0,133.0,57.0,70.0,70.0,2,8.18903398513794,None,,,,,0,0,0,0,0,42,42,86,285.66435384750366,,,,,,,,,,,,,,,,,,,,,,,,,,,,,,,,,,,,,,,,,,,,,,,,,,,,,,,,,,,,,,,,,,,,,,,,,,,,,,,,,57.0,133.0,133.0,57.0,70.0,70.0,3.0,3.1,-191,270,0,7,160,-275,285.6494553089142,285.6494972705841,285.65199065208435,285.66435384750366,285.8142671585083,285.8142671585083,285.8142671585083,285.8142671585083,285.8142671585083,285.8142671585083,285.8142671585083,293.8652138710022,2,8.18903398513794,None,,,,,,,,,,,,,,,,,,108,5,2025-02-25_09h59.02.774,comp,2024.2.4,60.77600434703858,2025-02-25 09h59.13.661791 -0500,
43,43,0,critical,wdh,20.0,2.1,upper,125.0,200.0,141.0,141.0,200.0,125.0,3,19.645672082901,None,,,,,0,0,0,0,0,43,43,11,293.8806505203247,,,,,,,,,,,,,,,,,,,,,,,,,,,,,,,,,,,,,,,,,,,,,,,,,,,,,,,,,,,,,,,,,,,,,,,,,,,,,,,,,125.0,200.0,141.0,141.0,200.0,125.0,2.1,2.11,-266,262,0,285,229,-275,293.86601161956787,293.86605191230774,293.86857318878174,293.8806505203247,294.0311439037323,294.0311439037323,294.0311439037323,294.0311439037323,294.0311439037323,294.0311439037323,294.0311439037323,313.53219294548035,3,19.645672082901,None,,,,,,,,,,,,,,,,,,108,5,2025-02-25_09h59.02.774,comp,2024.2.4,60.77600434703858,2025-02-25 09h59.13.661791 -0500,
44,44,0,critical,wdh,35.0,2.1,upper,125.0,200.0,127.0,127.0,200.0,125.0,1,3.163081645965576,None,,,,,0,0,0,0,0,44,44,33,313.547523021698,,,,,,,,,,,,,,,,,,,,,,,,,,,,,,,,,,,,,,,,,,,,,,,,,,,,,,,,,,,,,,,,,,,,,,,,,,,,,,,,,125.0,200.0,127.0,127.0,200.0,125.0,2.1,2.12,-260,-287,0,-265,222,252,313.5330011844635,313.5330421924591,313.5354344844818,313.547523021698,313.6977698802948,313.6977698802948,313.6977698802948,313.6977698802948,313.6977698802948,313.6977698802948,313.6977698802948,316.71539402008057,1,3.163081645965576,None,,,,,,,,,,,,,,,,,,108,5,2025-02-25_09h59.02.774,comp,2024.2.4,60.77600434703858,2025-02-25 09h59.13.661791 -0500,
45,45,0,filler_random,None,None,None,None,None,None,None,None,None,None,1,1.1806755065917969,None,,,,,0,0,0,0,0,45,45,165,316.73072838783264,,,,,,,,,,,,,,,,,,,,,,,,,,,,,,,,,,,,,,,,,,,,,,,,,,,,,,,,,,,,,,,,,,,,,,,,,,,,,,,,,156.8902553426858,170.26853514706315,148.8745914057754,143.50114853669686,169.8301160610858,75.53025163890187,3.0,3.2,-253,-251,0,0,206,253,316.71629524230957,316.7163345813751,316.7184295654297,316.73072838783264,316.8808252811432,316.8808252811432,316.8808252811432,316.8808252811432,316.8808252811432,316.8808252811432,316.8808252811432,317.91550493240356,1,1.1806755065917969,None,,,,,,,,,,,,,,,,,,108,5,2025-02-25_09h59.02.774,comp,2024.2.4,60.77600434703858,2025-02-25 09h59.13.661791 -0500,
46,46,0,critical,hdw,20.0,1.0,lower,133.0,57.0,78.0,78.0,57.0,133.0,3,9.21099853515625,None,,,,,0,0,0,0,0,46,46,114,317.9310700893402,,,,,,,,,,,,,,,,,,,,,,,,,,,,,,,,,,,,,,,,,,,,,,,,,,,,,,,,,,,,,,,,,,,,,,,,,,,,,,,,,133.0,57.0,78.0,78.0,57.0,133.0,1.0,1.1,-644,273,-480,267,-278,268,317.91633892059326,317.916380405426,317.9184913635254,317.9310700893402,318.0807149410248,318.0807149410248,318.0807149410248,318.0807149410248,318.0807149410248,318.0807149410248,318.0807149410248,327.1482985019684,3,9.21099853515625,None,,,,,,,,,,,,,,,,,,108,5,2025-02-25_09h59.02.774,comp,2024.2.4,60.77600434703858,2025-02-25 09h59.13.661791 -0500,
47,47,0,filler_square,None,None,None,None,None,None,None,None,None,None,1,3.77017879486084,None,,,,,0,0,0,0,0,47,47,185,327.16403102874756,,,,,,,,,,,,,,,,,,,,,,,,,,,,,,,,,,,,,,,,,,,,,,,,,,,,,,,,,,,,,,,,,,,,,,,,,,,,,,,,,100.45897104532568,79.11458084652057,100.97714331434221,100.97714331434221,88.91870411000632,71.29297491965403,4.0,4.1,-186,-272,0,-18,182,-276,327.14925813674927,327.1492974758148,327.1514050960541,327.16403102874756,327.3142740726471,327.3142740726471,327.3142740726471,327.3142740726471,327.3142740726471,327.3142740726471,327.3142740726471,330.94833397865295,1,3.77017879486084,None,,,,,,,,,,,,,,,,,,108,5,2025-02-25_09h59.02.774,comp,2024.2.4,60.77600434703858,2025-02-25 09h59.13.661791 -0500,
48,48,0,critical,whd,35.0,2.1,upper,125.0,200.0,200.0,125.0,127.0,127.0,2,7.516503095626831,None,,,,,0,0,0,0,0,48,48,37,330.96360063552856,,,,,,,,,,,,,,,,,,,,,,,,,,,,,,,,,,,,,,,,,,,,,,,,,,,,,,,,,,,,,,,,,,,,,,,,,,,,,,,,,125.0,200.0,200.0,125.0,127.0,127.0,2.1,2.12,-258,-287,0,-257,222,258,330.9491229057312,330.94916319847107,330.95161747932434,330.96360063552856,331.1141541004181,331.1141541004181,331.1141541004181,331.1141541004181,331.1141541004181,331.1141541004181,331.1141541004181,338.4983882904053,2,7.516503095626831,None,,,,,,,,,,,,,,,,,,108,5,2025-02-25_09h59.02.774,comp,2024.2.4,60.77600434703858,2025-02-25 09h59.13.661791 -0500,
49,49,0,filler_square,None,None,None,None,None,None,None,None,None,None,1,11.53934931755066,None,,,,,0,0,0,0,0,49,49,182,338.51368165016174,,,,,,,,,,,,,,,,,,,,,,,,,,,,,,,,,,,,,,,,,,,,,,,,,,,,,,,,,,,,,,,,,,,,,,,,,,,,,,,,,138.49623737419603,138.49623737419603,81.74581671074695,132.69448924579558,128.50021656280717,65.79342578482115,3.0,3.1,-232,282,0,1,195,-280,338.49937677383423,338.4994161128998,338.5019361972809,338.51368165016174,338.66436886787415,338.66436886787415,338.66436886787415,338.66436886787415,338.66436886787415,338.66436886787415,338.66436886787415,350.06504368782043,1,11.53934931755066,None,,,,,,,,,,,,,,,,,,108,5,2025-02-25_09h59.02.774,comp,2024.2.4,60.77600434703858,2025-02-25 09h59.13.661791 -0500,
50,50,0,filler_square,None,None,None,None,None,None,None,None,None,None,2,23.4299099445343,None,,,,,0,0,0,0,0,50,50,190,350.08031249046326,,,,,,,,,,,,,,,,,,,,,,,,,,,,,,,,,,,,,,,,,,,,,,,,,,,,,,,,,,,,,,,,,,,,,,,,,,,,,,,,,100.91759721888329,58.58389568194925,115.89410320996286,115.89410320996286,74.11635590140133,108.22153251458606,3.0,3.2,-183,-259,0,-15,208,266,350.06601572036743,350.0660560131073,350.06844997406006,350.08031249046326,350.2304906845093,350.2304906845093,350.2304906845093,350.2304906845093,350.2304906845093,350.2304906845093,350.2304906845093,373.51484870910645,2,23.4299099445343,None,,,,,,,,,,,,,,,,,,108,5,2025-02-25_09h59.02.774,comp,2024.2.4,60.77600434703858,2025-02-25 09h59.13.661791 -0500,
51,51,0,critical,whd,35.0,4.0,lower,57.0,133.0,133.0,57.0,70.0,70.0,2,2.6670422554016113,None,,,,,0,0,0,0,0,51,51,88,373.5303773880005,,,,,,,,,,,,,,,,,,,,,,,,,,,,,,,,,,,,,,,,,,,,,,,,,,,,,,,,,,,,,,,,,,,,,,,,,,,,,,,,,57.0,133.0,133.0,57.0,70.0,70.0,4.0,4.2,-191,10,0,-264,160,8,373.5156481266022,373.5156910419464,373.51782631874084,373.5303773880005,373.68054127693176,373.68054127693176,373.68054127693176,373.68054127693176,373.68054127693176,373.68054127693176,373.68054127693176,376.214732170105,2,2.6670422554016113,None,,,,,,,,,,,,,,,,,,108,5,2025-02-25_09h59.02.774,comp,2024.2.4,60.77600434703858,2025-02-25 09h59.13.661791 -0500,
52,52,0,critical,whd,20.0,4.0,upper,125.0,200.0,200.0,125.0,141.0,141.0,1,6.687104225158691,None,,,,,0,0,0,0,0,52,52,95,376.2300136089325,,,,,,,,,,,,,,,,,,,,,,,,,,,,,,,,,,,,,,,,,,,,,,,,,,,,,,,,,,,,,,,,,,,,,,,,,,,,,,,,,125.0,200.0,200.0,125.0,141.0,141.0,4.0,4.1,-258,-274,0,-5,229,-276,376.2155306339264,376.2155704498291,376.2181508541107,376.2300136089325,376.3803617954254,376.3803617954254,376.3803617954254,376.3803617954254,376.3803617954254,376.3803617954254,376.3803617954254,382.9316725730896,1,6.687104225158691,None,,,,,,,,,,,,,,,,,,108,5,2025-02-25_09h59.02.774,comp,2024.2.4,60.77600434703858,2025-02-25 09h59.13.661791 -0500,
53,53,0,filler_square,None,None,None,None,None,None,None,None,None,None,2,1.7634479999542236,None,,,,,0,0,0,0,0,53,53,179,382.94684052467346,,,,,,,,,,,,,,,,,,,,,,,,,,,,,,,,,,,,,,,,,,,,,,,,,,,,,,,,,,,,,,,,,,,,,,,,,,,,,,,,,83.3278554972372,103.78285106075461,140.89846986507703,140.89846986507703,105.88279914101886,61.610866728793965,1.0,1.3,262,-284,480,-287,677,-265,382.93276810646057,382.93281626701355,382.93541264533997,382.94684052467346,383.096960067749,383.096960067749,383.096960067749,383.096960067749,383.096960067749,383.096960067749,383.096960067749,384.7149348258972,2,1.7634479999542236,None,,,,,,,,,,,,,,,,,,108,5,2025-02-25_09h59.02.774,comp,2024.2.4,60.77600434703858,2025-02-25 09h59.13.661791 -0500,
54,54,0,filler_square,None,None,None,None,None,None,None,None,None,None,1,3.171262741088867,None,,,,,0,0,0,0,0,54,54,208,384.7302761077881,,,,,,,,,,,,,,,,,,,,,,,,,,,,,,,,,,,,,,,,,,,,,,,,,,,,,,,,,,,,,,,,,,,,,,,,,,,,,,,,,121.16616988206493,121.16616988206493,67.27599818303784,103.30019708783232,88.15888004634517,112.97286756232421,3.0,3.2,-208,-255,0,-17,204,283,384.7159221172333,384.7159643173218,384.7180914878845,384.7302761077881,384.8802955150604,384.8802955150604,384.8802955150604,384.8802955150604,384.8802955150604,384.8802955150604,384.8802955150604,387.91458797454834,1,3.171262741088867,None,,,,,,,,,,,,,,,,,,108,5,2025-02-25_09h59.02.774,comp,2024.2.4,60.77600434703858,2025-02-25 09h59.13.661791 -0500,
55,55,0,critical,hdw,35.0,1.0,lower,133.0,57.0,70.0,70.0,57.0,133.0,1,2.9079272747039795,None,,,,,0,0,0,0,0,55,55,108,387.9299919605255,,,,,,,,,,,,,,,,,,,,,,,,,,,,,,,,,,,,,,,,,,,,,,,,,,,,,,,,,,,,,,,,,,,,,,,,,,,,,,,,,133.0,57.0,70.0,70.0,57.0,133.0,1.0,1.1,-640,271,-480,286,-282,262,387.91540479660034,387.9154462814331,387.91804027557373,387.9299919605255,388.08022117614746,388.08022117614746,388.08022117614746,388.08022117614746,388.08022117614746,388.08022117614746,388.08022117614746,390.8478858470917,1,2.9079272747039795,None,,,,,,,,,,,,,,,,,,108,5,2025-02-25_09h59.02.774,comp,2024.2.4,60.77600434703858,2025-02-25 09h59.13.661791 -0500,
56,56,0,critical,whd,20.0,2.1,upper,125.0,200.0,200.0,125.0,141.0,141.0,2,9.837928056716919,None,,,,,0,0,0,0,0,56,56,39,390.863534450531,,,,,,,,,,,,,,,,,,,,,,,,,,,,,,,,,,,,,,,,,,,,,,,,,,,,,,,,,,,,,,,,,,,,,,,,,,,,,,,,,125.0,200.0,200.0,125.0,141.0,141.0,2.1,2.12,-258,-270,0,-276,229,282,390.84869599342346,390.8487358093262,390.8510353565216,390.863534450531,391.01382303237915,391.01382303237915,391.01382303237915,391.01382303237915,391.01382303237915,391.01382303237915,391.01382303237915,400.7146632671356,2,9.837928056716919,None,,,,,,,,,,,,,,,,,,108,5,2025-02-25_09h59.02.774,comp,2024.2.4,60.77600434703858,2025-02-25 09h59.13.661791 -0500,
57,57,0,filler_square,None,None,None,None,None,None,None,None,None,None,1,16.602717638015747,None,,,,,0,0,0,0,0,57,57,206,400.729932308197,,,,,,,,,,,,,,,,,,,,,,,,,,,,,,,,,,,,,,,,,,,,,,,,,,,,,,,,,,,,,,,,,,,,,,,,,,,,,,,,,171.19788961603808,84.21256455641716,179.6374527236605,164.04865615187208,188.07432882415927,188.07432882415927,2.1,2.11,-220,256,0,253,272,-266,400.71562600135803,400.71566438674927,400.71819138526917,400.729932308197,400.8802897930145,400.8802897930145,400.8802897930145,400.8802897930145,400.8802897930145,400.8802897930145,400.8802897930145,417.34809613227844,1,16.602717638015747,None,,,,,,,,,,,,,,,,,,108,5,2025-02-25_09h59.02.774,comp,2024.2.4,60.77600434703858,2025-02-25 09h59.13.661791 -0500,
58,58,0,catch,None,None,None,None,None,None,None,None,None,None,3,3.531554937362671,None,,,,,0,0,0,0,0,58,58,125,417.36322474479675,,,,,,,,,,,,,,,,,,,,,,,,,,,,,,,,,,,,,,,,,,,,,,,,,,,,,,,,,,,,,,,,,,,,,,,,,,,,,,,,,70,120,129,61,182,143,2.2,2.22,-186,283,0,-268,198,-253,417.3491418361664,417.3491802215576,417.35122203826904,417.36322474479675,417.5137228965759,417.5137228965759,417.5137228965759,417.5137228965759,417.5137228965759,417.5137228965759,417.5137228965759,420.89793610572815,3,3.531554937362671,None,,,,,,,,,,,,,,,,,,108,5,2025-02-25_09h59.02.774,comp,2024.2.4,60.77600434703858,2025-02-25 09h59.13.661791 -0500,
59,59,0,critical,dhw,20.0,4.0,lower,78.0,78.0,133.0,57.0,57.0,133.0,3,0.1002500057220459,None,,,,,0,0,0,0,0,59,59,58,420.913348197937,,,,,,,,,,,,,,,,,,,,,,,,,,,,,,,,,,,,,,,,,,,,,,,,,,,,,,,,,,,,,,,,,,,,,,,,,,,,,,,,,78.0,78.0,133.0,57.0,57.0,133.0,4.0,4.1,-164,-256,0,-7,191,-279,420.89872908592224,420.8987693786621,420.90099120140076,420.913348197937,,,,,,,,421.03067684173584,3,0.1002500057220459,None,,,,,,,,,,,,,,,,,,108,5,2025-02-25_09h59.02.774,comp,2024.2.4,60.77600434703858,2025-02-25 09h59.13.661791 -0500,
60,60,0,critical,dwh,35.0,4.0,lower,70.0,70.0,57.0,133.0,133.0,57.0,3,2.7589807510375977,None,,,,,0,0,0,0,0,60,60,64,421.04647493362427,,,,,,,,,,,,,,,,,,,,,,,,,,,,,,,,,,,,,,,,,,,,,,,,,,,,,,,,,,,,,,,,,,,,,,,,,,,,,,,,,70.0,70.0,57.0,133.0,133.0,57.0,4.0,4.1,-198,-256,0,0,191,-264,421.0315041542053,421.0315444469452,421.03378653526306,421.04647493362427,421.196572303772,421.196572303772,421.196572303772,421.196572303772,421.196572303772,421.196572303772,421.196572303772,423.8142499923706,3,2.7589807510375977,None,,,,,,,,,,,,,,,,,,108,5,2025-02-25_09h59.02.774,comp,2024.2.4,60.77600434703858,2025-02-25 09h59.13.661791 -0500,
61,61,0,critical,dhw,20.0,2.1,lower,78.0,78.0,133.0,57.0,57.0,133.0,3,2.270901918411255,None,,,,,0,0,0,0,0,61,61,2,423.83040475845337,,,,,,,,,,,,,,,,,,,,,,,,,,,,,,,,,,,,,,,,,,,,,,,,,,,,,,,,,,,,,,,,,,,,,,,,,,,,,,,,,78.0,78.0,133.0,57.0,57.0,133.0,2.1,2.11,-164,273,0,288,191,-265,423.8150610923767,423.8151021003723,423.8172130584717,423.83040475845337,423.98009991645813,423.98009991645813,423.98009991645813,423.98009991645813,423.98009991645813,423.98009991645813,423.98009991645813,426.1144199371338,3,2.270901918411255,None,,,,,,,,,,,,,,,,,,108,5,2025-02-25_09h59.02.774,comp,2024.2.4,60.77600434703858,2025-02-25 09h59.13.661791 -0500,
62,62,0,filler_random,None,None,None,None,None,None,None,None,None,None,3,3.1715855598449707,None,,,,,0,0,0,0,0,62,62,146,426.12965631484985,,,,,,,,,,,,,,,,,,,,,,,,,,,,,,,,,,,,,,,,,,,,,,,,,,,,,,,,,,,,,,,,,,,,,,,,,,,,,,,,,191.5045068725269,61.15817014052265,159.08396288915057,124.16030151120925,187.09436487592845,138.21599696170867,4.0,4.1,-189,-256,0,14,227,-270,426.11532950401306,426.11536979675293,426.11782336235046,426.12965631484985,426.2800750732422,426.2800750732422,426.2800750732422,426.2800750732422,426.2800750732422,426.2800750732422,426.2800750732422,429.3145418167114,3,3.1715855598449707,None,,,,,,,,,,,,,,,,,,108,5,2025-02-25_09h59.02.774,comp,2024.2.4,60.77600434703858,2025-02-25 09h59.13.661791 -0500,
63,63,0,filler_random,None,None,None,None,None,None,None,None,None,None,1,6.25085711479187,None,,,,,0,0,0,0,0,63,63,145,429.3463590145111,,,,,,,,,,,,,,,,,,,,,,,,,,,,,,,,,,,,,,,,,,,,,,,,,,,,,,,,,,,,,,,,,,,,,,,,,,,,,,,,,173.87255643164576,197.87033635929902,109.17526648984636,198.7163182033389,181.9781626890382,163.3295960507496,2.1,2.12,-294,-279,0,-254,277,252,429.31545186042786,429.31549072265625,429.3180298805237,429.3463590145111,429.48012137413025,429.48012137413025,429.48012137413025,429.48012137413025,429.48012137413025,429.48012137413025,429.48012137413025,435.61455821990967,1,6.25085711479187,None,,,,,,,,,,,,,,,,,,108,5,2025-02-25_09h59.02.774,comp,2024.2.4,60.77600434703858,2025-02-25 09h59.13.661791 -0500,
64,64,0,critical,wdh,20.0,4.0,lower,57.0,133.0,78.0,78.0,133.0,57.0,3,2.5670530796051025,None,,,,,0,0,0,0,0,64,64,82,435.62978434562683,,,,,,,,,,,,,,,,,,,,,,,,,,,,,,,,,,,,,,,,,,,,,,,,,,,,,,,,,,,,,,,,,,,,,,,,,,,,,,,,,57.0,133.0,78.0,78.0,133.0,57.0,4.0,4.2,-202,-11,0,-282,164,14,435.61532855033875,435.6153690814972,435.61778450012207,435.62978434562683,435.7798707485199,435.7798707485199,435.7798707485199,435.7798707485199,435.7798707485199,435.7798707485199,435.7798707485199,438.21426725387573,3,2.5670530796051025,None,,,,,,,,,,,,,,,,,,108,5,2025-02-25_09h59.02.774,comp,2024.2.4,60.77600434703858,2025-02-25 09h59.13.661791 -0500,
65,65,0,filler_random,None,None,None,None,None,None,None,None,None,None,2,6.60824990272522,None,,,,,0,0,0,0,0,65,65,153,438.22964549064636,,,,,,,,,,,,,,,,,,,,,,,,,,,,,,,,,,,,,,,,,,,,,,,,,,,,,,,,,,,,,,,,,,,,,,,,,,,,,,,,,60.43384188198928,133.78395656298602,102.31757836059823,181.59576171663483,178.1055990704504,111.09390763828128,4.0,4.2,-254,6,0,-273,242,0,438.2152531147003,438.21529245376587,438.2178461551666,438.22964549064636,438.3799178600311,438.3799178600311,438.3799178600311,438.3799178600311,438.3799178600311,438.3799178600311,438.3799178600311,444.8480110168457,2,6.60824990272522,None,,,,,,,,,,,,,,,,,,108,5,2025-02-25_09h59.02.774,comp,2024.2.4,60.77600434703858,2025-02-25 09h59.13.661791 -0500,
66,66,0,critical,whd,35.0,3.0,upper,125.0,200.0,200.0,125.0,127.0,127.0,2,7.237771272659302,None,,,,,0,0,0,0,0,66,66,87,444.8633396625519,,,,,,,,,,,,,,,,,,,,,,,,,,,,,,,,,,,,,,,,,,,,,,,,,,,,,,,,,,,,,,,,,,,,,,,,,,,,,,,,,125.0,200.0,200.0,125.0,127.0,127.0,3.0,3.2,-258,-268,0,8,222,272,444.84879064559937,444.84883213043213,444.8513798713684,444.8633396625519,445.0132067203522,445.0132067203522,445.0132067203522,445.0132067203522,445.0132067203522,445.0132067203522,445.0132067203522,452.11440420150757,2,7.237771272659302,None,,,,,,,,,,,,,,,,,,108,5,2025-02-25_09h59.02.774,comp,2024.2.4,60.77600434703858,2025-02-25 09h59.13.661791 -0500,
67,67,0,filler_square,None,None,None,None,None,None,None,None,None,None,3,9.41891622543335,None,,,,,0,0,0,0,0,67,67,194,452.129602432251,,,,,,,,,,,,,,,,,,,,,,,,,,,,,,,,,,,,,,,,,,,,,,,,,,,,,,,,,,,,,,,,,,,,,,,,,,,,,,,,,62.50662734154633,70.73728716978255,98.09834445981281,71.97294110638921,103.43376518871185,103.43376518871185,2.2,2.22,-167,275,0,-269,184,-276,452.115389585495,452.1154305934906,452.11794447898865,452.129602432251,452.2799949645996,452.2799949645996,452.2799949645996,452.2799949645996,452.2799949645996,452.2799949645996,452.2799949645996,461.5640413761139,3,9.41891622543335,None,,,,,,,,,,,,,,,,,,108,5,2025-02-25_09h59.02.774,comp,2024.2.4,60.77600434703858,2025-02-25 09h59.13.661791 -0500,
68,68,0,critical,dwh,35.0,1.0,lower,70.0,70.0,57.0,133.0,133.0,57.0,2,2.7457151412963867,None,,,,,0,0,0,0,0,68,68,60,461.5794265270233,,,,,,,,,,,,,,,,,,,,,,,,,,,,,,,,,,,,,,,,,,,,,,,,,,,,,,,,,,,,,,,,,,,,,,,,,,,,,,,,,70.0,70.0,57.0,133.0,133.0,57.0,1.0,1.1,-678,256,-480,277,-289,263,461.564820766449,461.56486082077026,461.5672104358673,461.5794265270233,461.72968673706055,461.72968673706055,461.72968673706055,461.72968673706055,461.72968673706055,461.72968673706055,461.72968673706055,464.3307886123657,2,2.7457151412963867,None,,,,,,,,,,,,,,,,,,108,5,2025-02-25_09h59.02.774,comp,2024.2.4,60.77600434703858,2025-02-25 09h59.13.661791 -0500,
69,69,0,filler_random,None,None,None,None,None,None,None,None,None,None,3,5.674804210662842,None,,,,,0,0,0,0,0,69,69,140,464.3464193344116,,,,,,,,,,,,,,,,,,,,,,,,,,,,,,,,,,,,,,,,,,,,,,,,,,,,,,,,,,,,,,,,,,,,,,,,,,,,,,,,,127.04107984267857,128.09118469955888,95.74893999646359,157.3566271397909,188.6541639815569,169.2993710926955,4.0,4.2,-239,17,0,-289,259,-2,464.3317048549652,464.33174538612366,464.33402490615845,464.3464193344116,464.4966161251068,464.4966161251068,464.4966161251068,464.4966161251068,464.4966161251068,464.4966161251068,464.4966161251068,470.0309739112854,3,5.674804210662842,None,,,,,,,,,,,,,,,,,,108,5,2025-02-25_09h59.02.774,comp,2024.2.4,60.77600434703858,2025-02-25 09h59.13.661791 -0500,
70,70,0,critical,dhw,20.0,2.1,upper,141.0,141.0,200.0,125.0,125.0,200.0,2,3.2324321269989014,None,,,,,0,0,0,0,0,70,70,27,470.04655361175537,,,,,,,,,,,,,,,,,,,,,,,,,,,,,,,,,,,,,,,,,,,,,,,,,,,,,,,,,,,,,,,,,,,,,,,,,,,,,,,,,141.0,141.0,200.0,125.0,125.0,200.0,2.1,2.12,-229,-273,0,-260,258,289,470.0317635536194,470.03180408477783,470.0339422225952,470.04655361175537,470.1964876651764,470.1964876651764,470.1964876651764,470.1964876651764,470.1964876651764,470.1964876651764,470.1964876651764,473.28109669685364,2,3.2324321269989014,None,,,,,,,,,,,,,,,,,,108,5,2025-02-25_09h59.02.774,comp,2024.2.4,60.77600434703858,2025-02-25 09h59.13.661791 -0500,
71,71,0,critical,dhw,20.0,3.0,lower,78.0,78.0,133.0,57.0,57.0,133.0,3,2.4767134189605713,None,,,,,0,0,0,0,0,71,71,56,473.29644560813904,,,,,,,,,,,,,,,,,,,,,,,,,,,,,,,,,,,,,,,,,,,,,,,,,,,,,,,,,,,,,,,,,,,,,,,,,,,,,,,,,78.0,78.0,133.0,57.0,57.0,133.0,3.0,3.1,-164,266,0,-17,191,-274,473.2819175720215,473.28196024894714,473.28415632247925,473.29644560813904,473.44626235961914,473.44626235961914,473.44626235961914,473.44626235961914,473.44626235961914,473.44626235961914,473.44626235961914,475.7806475162506,3,2.4767134189605713,None,,,,,,,,,,,,,,,,,,108,5,2025-02-25_09h59.02.774,comp,2024.2.4,60.77600434703858,2025-02-25 09h59.13.661791 -0500,
72,72,0,filler_square,None,None,None,None,None,None,None,None,None,None,1,5.760749816894531,None,,,,,0,0,0,0,0,72,72,197,475.79644560813904,,,,,,,,,,,,,,,,,,,,,,,,,,,,,,,,,,,,,,,,,,,,,,,,,,,,,,,,,,,,,,,,,,,,,,,,,,,,,,,,,148.27072121225177,148.27072121225177,119.36544298837985,113.43990848026456,62.97479551111519,136.835423509512,3.0,3.1,-227,287,0,14,221,-265,475.78160977363586,475.7816512584686,475.7841942310333,475.79644560813904,475.9464330673218,475.9464330673218,475.9464330673218,475.9464330673218,475.9464330673218,475.9464330673218,475.9464330673218,481.56408309936523,1,5.760749816894531,None,,,,,,,,,,,,,,,,,,108,5,2025-02-25_09h59.02.774,comp,2024.2.4,60.77600434703858,2025-02-25 09h59.13.661791 -0500,
73,73,0,filler_random,None,None,None,None,None,None,None,None,None,None,1,7.633393049240112,None,,,,,0,0,0,0,0,73,73,167,481.5797116756439,,,,,,,,,,,,,,,,,,,,,,,,,,,,,,,,,,,,,,,,,,,,,,,,,,,,,,,,,,,,,,,,,,,,,,,,,,,,,,,,,91.50012734654578,155.9593294356099,108.43769925179654,64.23968195664534,107.44192490192546,91.00120151650901,3.0,3.2,-206,-274,0,18,174,279,481.56499457359314,481.56503558158875,481.56716537475586,481.5797116756439,481.7294981479645,481.7294981479645,481.7294981479645,481.7294981479645,481.7294981479645,481.7294981479645,481.7294981479645,489.2142403125763,1,7.633393049240112,None,,,,,,,,,,,,,,,,,,108,5,2025-02-25_09h59.02.774,comp,2024.2.4,60.77600434703858,2025-02-25 09h59.13.661791 -0500,
74,74,0,critical,hwd,20.0,2.1,upper,200.0,125.0,125.0,200.0,141.0,141.0,1,1.5272958278656006,None,,,,,0,0,0,0,0,74,74,19,489.22983050346375,,,,,,,,,,,,,,,,,,,,,,,,,,,,,,,,,,,,,,,,,,,,,,,,,,,,,,,,,,,,,,,,,,,,,,,,,,,,,,,,,200.0,125.0,125.0,200.0,141.0,141.0,2.1,2.11,-258,268,0,271,266,-257,489.21505999565125,489.2151017189026,489.21720361709595,489.22983050346375,489.3796491622925,489.3796491622925,489.3796491622925,489.3796491622925,489.3796491622925,489.3796491622925,489.3796491622925,490.76411843299866,1,1.5272958278656006,None,,,,,,,,,,,,,,,,,,108,5,2025-02-25_09h59.02.774,comp,2024.2.4,60.77600434703858,2025-02-25 09h59.13.661791 -0500,
75,75,0,critical,hwd,35.0,3.0,upper,200.0,125.0,125.0,200.0,127.0,127.0,1,3.8170719146728516,None,,,,,0,0,0,0,0,75,75,99,490.7795879840851,,,,,,,,,,,,,,,,,,,,,,,,,,,,,,,,,,,,,,,,,,,,,,,,,,,,,,,,,,,,,,,,,,,,,,,,,,,,,,,,,200.0,125.0,125.0,200.0,127.0,127.0,3.0,3.2,-258,-267,0,-3,260,268,490.76486325263977,490.76491522789,490.7669632434845,490.7795879840851,490.92960476875305,490.92960476875305,490.92960476875305,490.92960476875305,490.92960476875305,490.92960476875305,490.92960476875305,494.5977404117584,1,3.8170719146728516,None,,,,,,,,,,,,,,,,,,108,5,2025-02-25_09h59.02.774,comp,2024.2.4,60.77600434703858,2025-02-25 09h59.13.661791 -0500,
76,76,0,critical,dwh,35.0,1.0,upper,127.0,127.0,125.0,200.0,200.0,125.0,3,4.800387859344482,None,,,,,0,0,0,0,0,76,76,61,494.61293172836304,,,,,,,,,,,,,,,,,,,,,,,,,,,,,,,,,,,,,,,,,,,,,,,,,,,,,,,,,,,,,,,,,,,,,,,,,,,,,,,,,127.0,127.0,125.0,200.0,200.0,125.0,1.0,1.3,220,-260,480,-260,738,-260,494.59864568710327,494.5986876487732,494.6009840965271,494.61293172836304,494.76295137405396,494.76295137405396,494.76295137405396,494.76295137405396,494.76295137405396,494.76295137405396,494.76295137405396,499.43079710006714,3,4.800387859344482,None,,,,,,,,,,,,,,,,,,108,5,2025-02-25_09h59.02.774,comp,2024.2.4,60.77600434703858,2025-02-25 09h59.13.661791 -0500,
77,77,0,critical,dwh,20.0,2.1,upper,141.0,141.0,125.0,200.0,200.0,125.0,3,4.783783674240112,None,,,,,0,0,0,0,0,77,77,7,499.44595432281494,,,,,,,,,,,,,,,,,,,,,,,,,,,,,,,,,,,,,,,,,,,,,,,,,,,,,,,,,,,,,,,,,,,,,,,,,,,,,,,,,141.0,141.0,125.0,200.0,200.0,125.0,2.1,2.12,-266,-251,0,-259,258,256,499.4316143989563,499.4316544532776,499.43421626091003,499.44595432281494,499.5963306427002,499.5963306427002,499.5963306427002,499.5963306427002,499.5963306427002,499.5963306427002,499.5963306427002,504.2473728656769,3,4.783783674240112,None,,,,,,,,,,,,,,,,,,108,5,2025-02-25_09h59.02.774,comp,2024.2.4,60.77600434703858,2025-02-25 09h59.13.661791 -0500,
78,78,0,catch,None,None,None,None,None,None,None,None,None,None,2,8.637883186340332,None,,,,,0,0,0,0,0,78,78,128,504.26284885406494,,,,,,,,,,,,,,,,,,,,,,,,,,,,,,,,,,,,,,,,,,,,,,,,,,,,,,,,,,,,,,,,,,,,,,,,,,,,,,,,,105,85,140,185,122,68,3.0,3.2,-231,-273,0,-1,222,251,504.2484278678894,504.24846935272217,504.2518832683563,504.26284885406494,504.4128751754761,504.4128751754761,504.4128751754761,504.4128751754761,504.4128751754761,504.4128751754761,504.4128751754761,512.9137871265411,2,8.637883186340332,None,,,,,,,,,,,,,,,,,,108,5,2025-02-25_09h59.02.774,comp,2024.2.4,60.77600434703858,2025-02-25 09h59.13.661791 -0500,
79,79,0,critical,hwd,35.0,2.1,upper,200.0,125.0,125.0,200.0,127.0,127.0,2,15.202683925628662,None,,,,,0,0,0,0,0,79,79,41,512.9291586875916,,,,,,,,,,,,,,,,,,,,,,,,,,,,,,,,,,,,,,,,,,,,,,,,,,,,,,,,,,,,,,,,,,,,,,,,,,,,,,,,,200.0,125.0,125.0,200.0,127.0,127.0,2.1,2.11,-258,287,0,267,260,-251,512.914617061615,512.9146564006805,512.9167191982269,512.9291586875916,513.0798425674438,513.0798425674438,513.0798425674438,513.0798425674438,513.0798425674438,513.0798425674438,513.0798425674438,528.1472611427307,2,15.202683925628662,None,,,,,,,,,,,,,,,,,,108,5,2025-02-25_09h59.02.774,comp,2024.2.4,60.77600434703858,2025-02-25 09h59.13.661791 -0500,
80,80,0,filler_square,None,None,None,None,None,None,None,None,None,None,2,5.994339227676392,None,,,,,0,0,0,0,0,80,80,209,528.1623950004578,,,,,,,,,,,,,,,,,,,,,,,,,,,,,,,,,,,,,,,,,,,,,,,,,,,,,,,,,,,,,,,,,,,,,,,,,,,,,,,,,70.74569158233767,67.90043188056578,78.07464988390211,78.07464988390211,76.5432181131961,77.97718811871987,2.1,2.12,-169,-273,0,-266,174,258,528.1482136249542,528.1482539176941,528.1506595611572,528.1623950004578,528.3125562667847,528.3125562667847,528.3125562667847,528.3125562667847,528.3125562667847,528.3125562667847,528.3125562667847,534.1634364128113,2,5.994339227676392,None,,,,,,,,,,,,,,,,,,108,5,2025-02-25_09h59.02.774,comp,2024.2.4,60.77600434703858,2025-02-25 09h59.13.661791 -0500,
81,81,0,critical,wdh,20.0,3.0,upper,125.0,200.0,141.0,141.0,200.0,125.0,3,10.899397134780884,None,,,,,0,0,0,0,0,81,81,81,534.1792299747467,,,,,,,,,,,,,,,,,,,,,,,,,,,,,,,,,,,,,,,,,,,,,,,,,,,,,,,,,,,,,,,,,,,,,,,,,,,,,,,,,125.0,200.0,141.0,141.0,200.0,125.0,3.0,3.1,-266,267,0,7,229,-281,534.1642088890076,534.1642508506775,534.166356086731,534.1792299747467,534.3292858600616,534.3292858600616,534.3292858600616,534.3292858600616,534.3292858600616,534.3292858600616,534.3292858600616,545.0972638130188,3,10.899397134780884,None,,,,,,,,,,,,,,,,,,108,5,2025-02-25_09h59.02.774,comp,2024.2.4,60.77600434703858,2025-02-25 09h59.13.661791 -0500,
82,82,0,filler_square,None,None,None,None,None,None,None,None,None,None,1,4.635671615600586,None,,,,,0,0,0,0,0,82,82,207,545.1123452186584,,,,,,,,,,,,,,,,,,,,,,,,,,,,,,,,,,,,,,,,,,,,,,,,,,,,,,,,,,,,,,,,,,,,,,,,,,,,,,,,,190.4887015247793,190.4887015247793,68.90189920906393,165.13942150482686,115.37920649644593,183.52639497292154,1.0,1.1,-754,281,-480,255,-210,286,545.0982251167297,545.0982656478882,545.100644826889,545.1123452186584,545.2626283168793,545.2626283168793,545.2626283168793,545.2626283168793,545.2626283168793,545.2626283168793,545.2626283168793,549.7636671066284,1,4.635671615600586,None,,,,,,,,,,,,,,,,,,108,5,2025-02-25_09h59.02.774,comp,2024.2.4,60.77600434703858,2025-02-25 09h59.13.661791 -0500,
83,83,0,critical,dhw,20.0,3.0,upper,141.0,141.0,200.0,125.0,125.0,200.0,2,6.530048131942749,None,,,,,0,0,0,0,0,83,83,57,549.7789671421051,,,,,,,,,,,,,,,,,,,,,,,,,,,,,,,,,,,,,,,,,,,,,,,,,,,,,,,,,,,,,,,,,,,,,,,,,,,,,,,,,141.0,141.0,200.0,125.0,125.0,200.0,3.0,3.2,-229,-251,0,-16,258,275,549.7644536495209,549.764493227005,549.7669966220856,549.7789671421051,549.9292674064636,549.9292674064636,549.9292674064636,549.9292674064636,549.9292674064636,549.9292674064636,549.9292674064636,556.3138375282288,2,6.530048131942749,None,,,,,,,,,,,,,,,,,,108,5,2025-02-25_09h59.02.774,comp,2024.2.4,60.77600434703858,2025-02-25 09h59.13.661791 -0500,
84,84,0,filler_random,None,None,None,None,None,None,None,None,None,None,2,5.716705322265625,None,,,,,0,0,0,0,0,84,84,135,556.3291947841644,,,,,,,,,,,,,,,,,,,,,,,,,,,,,,,,,,,,,,,,,,,,,,,,,,,,,,,,,,,,,,,,,,,,,,,,,,,,,,,,,176.560011974215,101.65644359554693,160.56738634468815,159.2313112181723,63.77287707154194,151.814085960076,1.0,1.3,254,-251,480,-287,732,-275,556.3149039745331,556.3149480819702,556.31742811203,556.3291947841644,556.4791438579559,556.4791438579559,556.4791438579559,556.4791438579559,556.4791438579559,556.4791438579559,556.4791438579559,562.047155380249,2,5.716705322265625,None,,,,,,,,,,,,,,,,,,108,5,2025-02-25_09h59.02.774,comp,2024.2.4,60.77600434703858,2025-02-25 09h59.13.661791 -0500,
85,85,0,filler_random,None,None,None,None,None,None,None,None,None,None,3,9.133790731430054,None,,,,,0,0,0,0,0,85,85,151,562.0624585151672,,,,,,,,,,,,,,,,,,,,,,,,,,,,,,,,,,,,,,,,,,,,,,,,,,,,,,,,,,,,,,,,,,,,,,,,,,,,,,,,,176.3418256768548,166.28637079771448,83.19527702645422,185.07964130880535,94.78698739927252,183.83289530861356,4.0,4.1,-272,-258,0,9,280,-275,562.048023223877,562.0480608940125,562.0504212379456,562.0624585151672,562.21253490448,562.21253490448,562.21253490448,562.21253490448,562.21253490448,562.21253490448,562.21253490448,571.2136282920837,3,9.133790731430054,None,,,,,,,,,,,,,,,,,,108,5,2025-02-25_09h59.02.774,comp,2024.2.4,60.77600434703858,2025-02-25 09h59.13.661791 -0500,
86,86,0,filler_square,None,None,None,None,None,None,None,None,None,None,3,6.086660861968994,None,,,,,0,0,0,0,0,86,86,196,571.2289226055145,,,,,,,,,,,,,,,,,,,,,,,,,,,,,,,,,,,,,,,,,,,,,,,,,,,,,,,,,,,,,,,,,,,,,,,,,,,,,,,,,100.72535273071094,96.1240405740941,116.65075685964905,58.82252967131019,163.12540417279243,163.12540417279243,3.0,3.1,-173,270,0,-5,207,-254,571.2145926952362,571.2146339416504,571.2171711921692,571.2289226055145,571.3791286945343,571.3791286945343,571.3791286945343,571.3791286945343,571.3791286945343,571.3791286945343,571.3791286945343,577.330010175705,3,6.086660861968994,None,,,,,,,,,,,,,,,,,,108,5,2025-02-25_09h59.02.774,comp,2024.2.4,60.77600434703858,2025-02-25 09h59.13.661791 -0500,
87,87,0,filler_random,None,None,None,None,None,None,None,None,None,None,1,3.354905366897583,None,,,,,0,0,0,0,0,87,87,130,577.345380783081,,,,,,,,,,,,,,,,,,,,,,,,,,,,,,,,,,,,,,,,,,,,,,,,,,,,,,,,,,,,,,,,,,,,,,,,,,,,,,,,,195.2118550419387,167.17551725314527,71.25700587880117,147.8582854949068,151.1956786203175,96.3449908568443,2.1,2.12,-254,-258,0,-284,218,261,577.3309526443481,577.3309943675995,577.333384513855,577.345380783081,577.4960851669312,577.4960851669312,577.4960851669312,577.4960851669312,577.4960851669312,577.4960851669312,577.4960851669312,580.7134766578674,1,3.354905366897583,None,,,,,,,,,,,,,,,,,,108,5,2025-02-25_09h59.02.774,comp,2024.2.4,60.77600434703858,2025-02-25 09h59.13.661791 -0500,
88,88,0,critical,wdh,35.0,2.1,lower,57.0,133.0,70.0,70.0,133.0,57.0,3,4.795500993728638,None,,,,,0,0,0,0,0,88,88,32,580.7287836074829,,,,,,,,,,,,,,,,,,,,,,,,,,,,,,,,,,,,,,,,,,,,,,,,,,,,,,,,,,,,,,,,,,,,,,,,,,,,,,,,,57.0,133.0,70.0,70.0,133.0,57.0,2.1,2.11,-198,264,0,281,160,-255,580.7142677307129,580.7143085002899,580.7177078723907,580.7287836074829,580.8787662982941,580.8787662982941,580.8787662982941,580.8787662982941,580.8787662982941,580.8787662982941,580.8787662982941,585.5299315452576,3,4.795500993728638,None,,,,,,,,,,,,,,,,,,108,5,2025-02-25_09h59.02.774,comp,2024.2.4,60.77600434703858,2025-02-25 09h59.13.661791 -0500,
89,89,0,catch,None,None,None,None,None,None,None,None,None,None,3,3.3632116317749023,None,,,,,0,0,0,0,0,89,89,124,585.5456051826477,,,,,,,,,,,,,,,,,,,,,,,,,,,,,,,,,,,,,,,,,,,,,,,,,,,,,,,,,,,,,,,,,,,,,,,,,,,,,,,,,68,122,108,82,127,198,1.0,1.3,282,-254,480,-265,716,-271,585.5309507846832,585.5309925079346,585.5332553386688,585.5456051826477,585.6955394744873,585.6955394744873,585.6955394744873,585.6955394744873,585.6955394744873,585.6955394744873,585.6955394744873,588.9133462905884,3,3.3632116317749023,None,,,,,,,,,,,,,,,,,,108,5,2025-02-25_09h59.02.774,comp,2024.2.4,60.77600434703858,2025-02-25 09h59.13.661791 -0500,
90,90,0,filler_random,None,None,None,None,None,None,None,None,None,None,2,2.9002997875213623,None,,,,,0,0,0,0,0,90,90,141,588.928878068924,,,,,,,,,,,,,,,,,,,,,,,,,,,,,,,,,,,,,,,,,,,,,,,,,,,,,,,,,,,,,,,,,,,,,,,,,,,,,,,,,71.11223053661718,184.5336479841152,188.27216519821508,135.54545825826966,99.12208344569216,136.10332476290375,2.1,2.11,-256,256,0,262,232,-258,588.9142782688141,588.9143197536469,588.9168763160706,588.928878068924,589.0788819789886,589.0788819789886,589.0788819789886,589.0788819789886,589.0788819789886,589.0788819789886,589.0788819789886,591.8467965126038,2,2.9002997875213623,None,,,,,,,,,,,,,,,,,,108,5,2025-02-25_09h59.02.774,comp,2024.2.4,60.77600434703858,2025-02-25 09h59.13.661791 -0500,
91,91,0,critical,dwh,35.0,2.1,lower,70.0,70.0,57.0,133.0,133.0,57.0,2,7.062249422073364,None,,,,,0,0,0,0,0,91,91,4,591.8619759082794,,,,,,,,,,,,,,,,,,,,,,,,,,,,,,,,,,,,,,,,,,,,,,,,,,,,,,,,,,,,,,,,,,,,,,,,,,,,,,,,,70.0,70.0,57.0,133.0,133.0,57.0,2.1,2.12,-198,-259,0,-261,191,272,591.8476161956787,591.8476560115814,591.8502938747406,591.8619759082794,592.0121397972107,592.0121397972107,592.0121397972107,592.0121397972107,592.0121397972107,592.0121397972107,592.0121397972107,598.9297811985016,2,7.062249422073364,None,,,,,,,,,,,,,,,,,,108,5,2025-02-25_09h59.02.774,comp,2024.2.4,60.77600434703858,2025-02-25 09h59.13.661791 -0500,
92,92,0,critical,hdw,20.0,2.1,upper,200.0,125.0,141.0,141.0,125.0,200.0,1,1.890977382659912,None,,,,,0,0,0,0,0,92,92,23,598.9454720020294,,,,,,,,,,,,,,,,,,,,,,,,,,,,,,,,,,,,,,,,,,,,,,,,,,,,,,,,,,,,,,,,,,,,,,,,,,,,,,,,,200.0,125.0,141.0,141.0,125.0,200.0,2.1,2.12,-229,-265,0,-271,266,279,598.930587053299,598.9306268692017,598.9327433109283,598.9454720020294,599.0956451892853,599.0956451892853,599.0956451892853,599.0956451892853,599.0956451892853,599.0956451892853,599.0956451892853,600.8467271327972,1,1.890977382659912,None,,,,,,,,,,,,,,,,,,108,5,2025-02-25_09h59.02.774,comp,2024.2.4,60.77600434703858,2025-02-25 09h59.13.661791 -0500,
93,93,0,critical,hdw,20.0,3.0,upper,200.0,125.0,141.0,141.0,125.0,200.0,1,3.533876895904541,None,,,,,0,0,0,0,0,93,93,117,600.8622586727142,,,,,,,,,,,,,,,,,,,,,,,,,,,,,,,,,,,,,,,,,,,,,,,,,,,,,,,,,,,,,,,,,,,,,,,,,,,,,,,,,200.0,125.0,141.0,141.0,125.0,200.0,3.0,3.1,-229,264,0,-12,266,-260,600.8475470542908,600.847588300705,600.8496615886688,600.8622586727142,601.0123248100281,601.0123248100281,601.0123248100281,601.0123248100281,601.0123248100281,601.0123248100281,601.0123248100281,604.4133815765381,1,3.533876895904541,None,,,,,,,,,,,,,,,,,,108,5,2025-02-25_09h59.02.774,comp,2024.2.4,60.77600434703858,2025-02-25 09h59.13.661791 -0500,
94,94,0,filler_random,None,None,None,None,None,None,None,None,None,None,2,2.6005682945251465,None,,,,,0,0,0,0,0,94,94,155,604.4285743236542,,,,,,,,,,,,,,,,,,,,,,,,,,,,,,,,,,,,,,,,,,,,,,,,,,,,,,,,,,,,,,,,,,,,,,,,,,,,,,,,,173.9669291836692,113.3404731017416,167.1852403054307,183.9057622297501,160.76879385059488,173.57828107013,4.0,4.1,-245,-270,0,13,275,-257,604.4143102169037,604.4143517017365,604.4165155887604,604.4285743236542,604.5789301395416,604.5789301395416,604.5789301395416,604.5789301395416,604.5789301395416,604.5789301395416,604.5789301395416,607.0466494560242,2,2.6005682945251465,None,,,,,,,,,,,,,,,,,,108,5,2025-02-25_09h59.02.774,comp,2024.2.4,60.77600434703858,2025-02-25 09h59.13.661791 -0500,
95,95,0,critical,whd,20.0,4.0,lower,57.0,133.0,133.0,57.0,78.0,78.0,1,2.966860771179199,None,,,,,0,0,0,0,0,95,95,94,607.0619194507599,,,,,,,,,,,,,,,,,,,,,,,,,,,,,,,,,,,,,,,,,,,,,,,,,,,,,,,,,,,,,,,,,,,,,,,,,,,,,,,,,57.0,133.0,133.0,57.0,78.0,78.0,4.0,4.2,-191,19,0,-282,164,10,607.0474901199341,607.0475313663483,607.050036907196,607.0619194507599,607.2120580673218,607.2120580673218,607.2120580673218,607.2120580673218,607.2120580673218,607.2120580673218,607.2120580673218,610.0464963912964,1,2.966860771179199,None,,,,,,,,,,,,,,,,,,108,5,2025-02-25_09h59.02.774,comp,2024.2.4,60.77600434703858,2025-02-25 09h59.13.661791 -0500,
96,96,0,critical,dwh,35.0,2.1,lower,70.0,70.0,57.0,133.0,133.0,57.0,2,8.374258279800415,None,,,,,0,0,0,0,0,96,96,28,610.0618891716003,,,,,,,,,,,,,,,,,,,,,,,,,,,,,,,,,,,,,,,,,,,,,,,,,,,,,,,,,,,,,,,,,,,,,,,,,,,,,,,,,70.0,70.0,57.0,133.0,133.0,57.0,2.1,2.11,-198,284,0,276,191,-257,610.0473012924194,610.0473401546478,610.0498223304749,610.0618891716003,610.2121529579163,610.2121529579163,610.2121529579163,610.2121529579163,610.2121529579163,610.2121529579163,610.2121529579163,618.4464433193207,2,8.374258279800415,None,,,,,,,,,,,,,,,,,,108,5,2025-02-25_09h59.02.774,comp,2024.2.4,60.77600434703858,2025-02-25 09h59.13.661791 -0500,
97,97,0,critical,hwd,20.0,1.0,lower,133.0,57.0,57.0,133.0,78.0,78.0,1,2.253286123275757,None,,,,,0,0,0,0,0,97,97,102,618.4620985984802,,,,,,,,,,,,,,,,,,,,,,,,,,,,,,,,,,,,,,,,,,,,,,,,,,,,,,,,,,,,,,,,,,,,,,,,,,,,,,,,,133.0,57.0,57.0,133.0,78.0,78.0,1.0,1.2,-191,5,0,10,202,1,618.447252035141,618.4472923278809,618.4498336315155,618.4620985984802,618.6120884418488,618.6120884418488,618.6120884418488,618.6120884418488,618.6120884418488,618.6120884418488,618.6120884418488,620.7296423912048,1,2.253286123275757,None,,,,,,,,,,,,,,,,,,108,5,2025-02-25_09h59.02.774,comp,2024.2.4,60.77600434703858,2025-02-25 09h59.13.661791 -0500,
98,98,0,critical,dhw,20.0,1.0,lower,78.0,78.0,133.0,57.0,57.0,133.0,2,1.5325000286102295,None,,,,,0,0,0,0,0,98,98,54,620.7451436519623,,,,,,,,,,,,,,,,,,,,,,,,,,,,,,,,,,,,,,,,,,,,,,,,,,,,,,,,,,,,,,,,,,,,,,,,,,,,,,,,,78.0,78.0,133.0,57.0,57.0,133.0,1.0,1.1,-644,253,-480,282,-289,265,620.7305278778076,620.7305700778961,620.7326831817627,620.7451436519623,620.8952667713165,620.8952667713165,620.8952667713165,620.8952667713165,620.8952667713165,620.8952667713165,620.8952667713165,622.2797060012817,2,1.5325000286102295,None,,,,,,,,,,,,,,,,,,108,5,2025-02-25_09h59.02.774,comp,2024.2.4,60.77600434703858,2025-02-25 09h59.13.661791 -0500,
99,99,0,critical,dhw,20.0,2.1,lower,78.0,78.0,133.0,57.0,57.0,133.0,3,2.660809278488159,None,,,,,0,0,0,0,0,99,99,26,622.2952482700348,,,,,,,,,,,,,,,,,,,,,,,,,,,,,,,,,,,,,,,,,,,,,,,,,,,,,,,,,,,,,,,,,,,,,,,,,,,,,,,,,78.0,78.0,133.0,57.0,57.0,133.0,2.1,2.11,-164,252,0,257,191,-279,622.2804913520813,622.2805297374725,622.2826159000397,622.2952482700348,622.4454383850098,622.4454383850098,622.4454383850098,622.4454383850098,622.4454383850098,622.4454383850098,622.4454383850098,624.963009595871,3,2.660809278488159,None,,,,,,,,,,,,,,,,,,108,5,2025-02-25_09h59.02.774,comp,2024.2.4,60.77600434703858,2025-02-25 09h59.13.661791 -0500,
100,100,0,critical,dwh,35.0,3.0,lower,70.0,70.0,57.0,133.0,133.0,57.0,2,1.8335819244384766,None,,,,,0,0,0,0,0,100,100,62,624.9788520336151,,,,,,,,,,,,,,,,,,,,,,,,,,,,,,,,,,,,,,,,,,,,,,,,,,,,,,,,,,,,,,,,,,,,,,,,,,,,,,,,,70.0,70.0,57.0,133.0,133.0,57.0,3.0,3.1,-198,265,0,15,191,-284,624.9637730121613,624.9638137817383,624.9659247398376,624.9788520336151,625.128452539444,625.128452539444,625.128452539444,625.128452539444,625.128452539444,625.128452539444,625.128452539444,626.8296518325806,2,1.8335819244384766,None,,,,,,,,,,,,,,,,,,108,5,2025-02-25_09h59.02.774,comp,2024.2.4,60.77600434703858,2025-02-25 09h59.13.661791 -0500,
101,101,0,filler_square,None,None,None,None,None,None,None,None,None,None,1,7.767114877700806,None,,,,,0,0,0,0,0,101,101,202,626.844978094101,,,,,,,,,,,,,,,,,,,,,,,,,,,,,,,,,,,,,,,,,,,,,,,,,,,,,,,,,,,,,,,,,,,,,,,,,,,,,,,,,97.29883749494266,57.940903671331995,129.77670205003528,129.77670205003528,89.14460225916682,98.46626522661323,2.2,2.22,-190,281,0,-278,210,-290,626.8306102752686,626.8306488990784,626.8331952095032,626.844978094101,626.9953734874725,626.9953734874725,626.9953734874725,626.9953734874725,626.9953734874725,626.9953734874725,626.9953734874725,634.6295704841614,1,7.767114877700806,None,,,,,,,,,,,,,,,,,,108,5,2025-02-25_09h59.02.774,comp,2024.2.4,60.77600434703858,2025-02-25 09h59.13.661791 -0500,
102,102,0,critical,dwh,20.0,2.1,lower,78.0,78.0,57.0,133.0,133.0,57.0,3,2.1670830249786377,None,,,,,0,0,0,0,0,102,102,30,634.6449563503265,,,,,,,,,,,,,,,,,,,,,,,,,,,,,,,,,,,,,,,,,,,,,,,,,,,,,,,,,,,,,,,,,,,,,,,,,,,,,,,,,78.0,78.0,57.0,133.0,133.0,57.0,2.1,2.12,-202,-266,0,-282,191,277,634.6303770542145,634.6304183006287,634.6329793930054,634.6449563503265,634.7952699661255,634.7952699661255,634.7952699661255,634.7952699661255,634.7952699661255,634.7952699661255,634.7952699661255,636.8295996189117,3,2.1670830249786377,None,,,,,,,,,,,,,,,,,,108,5,2025-02-25_09h59.02.774,comp,2024.2.4,60.77600434703858,2025-02-25 09h59.13.661791 -0500,
103,103,0,critical,wdh,20.0,1.0,upper,125.0,200.0,141.0,141.0,200.0,125.0,3,6.6219117641448975,None,,,,,0,0,0,0,0,103,103,79,636.8450374603271,,,,,,,,,,,,,,,,,,,,,,,,,,,,,,,,,,,,,,,,,,,,,,,,,,,,,,,,,,,,,,,,,,,,,,,,,,,,,,,,,125.0,200.0,141.0,141.0,200.0,125.0,1.0,1.2,-266,-8,0,6,229,18,636.8303880691528,636.8304305076599,636.8330388069153,636.8450374603271,636.9952964782715,636.9952964782715,636.9952964782715,636.9952964782715,636.9952964782715,636.9952964782715,636.9952964782715,643.4798567295074,3,6.6219117641448975,None,,,,,,,,,,,,,,,,,,108,5,2025-02-25_09h59.02.774,comp,2024.2.4,60.77600434703858,2025-02-25 09h59.13.661791 -0500,
104,104,0,filler_random,None,None,None,None,None,None,None,None,None,None,3,1.7005016803741455,None,,,,,0,0,0,0,0,104,104,143,643.4949531555176,,,,,,,,,,,,,,,,,,,,,,,,,,,,,,,,,,,,,,,,,,,,,,,,,,,,,,,,,,,,,,,,,,,,,,,,,,,,,,,,,96.65051861262737,112.1351090456794,143.6937341698403,151.2529755106687,190.6726583371444,59.968941973660286,2.1,2.12,-228,-272,0,-280,202,267,643.4807868003845,643.4808278083801,643.4831631183624,643.4949531555176,643.6451442241669,643.6451442241669,643.6451442241669,643.6451442241669,643.6451442241669,643.6451442241669,643.6451442241669,645.1966614723206,3,1.7005016803741455,None,,,,,,,,,,,,,,,,,,108,5,2025-02-25_09h59.02.774,comp,2024.2.4,60.77600434703858,2025-02-25 09h59.13.661791 -0500,
105,105,0,filler_random,None,None,None,None,None,None,None,None,None,None,1,1.160172700881958,None,,,,,0,0,0,0,0,105,105,132,645.2119028568268,,,,,,,,,,,,,,,,,,,,,,,,,,,,,,,,,,,,,,,,,,,,,,,,,,,,,,,,,,,,,,,,,,,,,,,,,,,,,,,,,83.73501837233395,111.66177657922051,92.15143259514247,85.17642297015001,106.02329589540122,91.08618097627745,2.2,2.22,-194,278,0,-259,184,-264,645.1975750923157,645.1976172924042,645.199863910675,645.2119028568268,645.3617651462555,645.3617651462555,645.3617651462555,645.3617651462555,645.3617651462555,645.3617651462555,645.3617651462555,646.3796696662903,1,1.160172700881958,None,,,,,,,,,,,,,,,,,,108,5,2025-02-25_09h59.02.774,comp,2024.2.4,60.77600434703858,2025-02-25 09h59.13.661791 -0500,
106,106,0,critical,hdw,35.0,3.0,lower,133.0,57.0,70.0,70.0,57.0,133.0,1,1.4980838298797607,None,,,,,0,0,0,0,0,106,106,110,646.3952610492706,,,,,,,,,,,,,,,,,,,,,,,,,,,,,,,,,,,,,,,,,,,,,,,,,,,,,,,,,,,,,,,,,,,,,,,,,,,,,,,,,133.0,57.0,70.0,70.0,57.0,133.0,3.0,3.1,-160,258,0,-20,198,-274,646.3805346488953,646.3805747032166,646.3830919265747,646.3952610492706,646.5449793338776,646.5449793338776,646.5449793338776,646.5449793338776,646.5449793338776,646.5449793338776,646.5449793338776,647.8963532447815,1,1.4980838298797607,None,,,,,,,,,,,,,,,,,,108,5,2025-02-25_09h59.02.774,comp,2024.2.4,60.77600434703858,2025-02-25 09h59.13.661791 -0500,
107,107,0,critical,dhw,35.0,4.0,lower,70.0,70.0,133.0,57.0,57.0,133.0,3,16.94957208633423,None,,,,,0,0,0,0,0,107,107,52,647.9118504524231,,,,,,,,,,,,,,,,,,,,,,,,,,,,,,,,,,,,,,,,,,,,,,,,,,,,,,,,,,,,,,,,,,,,,,,,,,,,,,,,,70.0,70.0,133.0,57.0,57.0,133.0,4.0,4.2,-160,12,0,-271,191,14,647.897138595581,647.8971779346466,647.8996000289917,647.9118504524231,648.0616328716278,648.0616328716278,648.0616328716278,648.0616328716278,648.0616328716278,648.0616328716278,648.0616328716278,664.8630795478821,3,16.94957208633423,None,,,,,,,,,,,,,,,,,,108,5,2025-02-25_09h59.02.774,comp,2024.2.4,60.77600434703858,2025-02-25 09h59.13.661791 -0500,
108,108,0,filler_random,None,None,None,None,None,None,None,None,None,None,3,4.293498992919922,None,,,,,0,0,0,0,0,108,108,164,664.8785128593445,,,,,,,,,,,,,,,,,,,,,,,,,,,,,,,,,,,,,,,,,,,,,,,,,,,,,,,,,,,,,,,,,,,,,,,,,,,,,,,,,136.27556495316594,125.01334754216813,92.16435946407147,123.90660075715219,159.80764207181414,154.9413282694132,1.0,1.2,-220,-1,0,-11,235,19,664.8639929294586,664.8640329837799,664.8661353588104,664.8785128593445,665.0284373760223,665.0284373760223,665.0284373760223,665.0284373760223,665.0284373760223,665.0284373760223,665.0284373760223,669.1794724464417,3,4.293498992919922,None,,,,,,,,,,,,,,,,,,108,5,2025-02-25_09h59.02.774,comp,2024.2.4,60.77600434703858,2025-02-25 09h59.13.661791 -0500,
109,109,0,critical,wdh,20.0,3.0,lower,57.0,133.0,78.0,78.0,133.0,57.0,3,8.567918539047241,None,,,,,0,0,0,0,0,109,109,80,669.1950392723083,,,,,,,,,,,,,,,,,,,,,,,,,,,,,,,,,,,,,,,,,,,,,,,,,,,,,,,,,,,,,,,,,,,,,,,,,,,,,,,,,57.0,133.0,78.0,78.0,133.0,57.0,3.0,3.2,-202,-250,0,-6,164,267,669.1802804470062,669.1803207397461,669.1829290390015,669.1950392723083,669.3449776172638,669.3449776172638,669.3449776172638,669.3449776172638,669.3449776172638,669.3449776172638,669.3449776172638,677.7793247699738,3,8.567918539047241,None,,,,,,,,,,,,,,,,,,108,5,2025-02-25_09h59.02.774,comp,2024.2.4,60.77600434703858,2025-02-25 09h59.13.661791 -0500,
110,110,0,catch,None,None,None,None,None,None,None,None,None,None,2,6.79320764541626,None,,,,,0,0,0,0,0,110,110,122,677.7946908473969,,,,,,,,,,,,,,,,,,,,,,,,,,,,,,,,,,,,,,,,,,,,,,,,,,,,,,,,,,,,,,,,,,,,,,,,,,,,,,,,,126,64,195,130,74,116,3.0,3.1,-193,264,0,2,219,-266,677.7803678512573,677.7804090976715,677.7828726768494,677.7946908473969,677.9451444149017,677.9451444149017,677.9451444149017,677.9451444149017,677.9451444149017,677.9451444149017,677.9451444149017,684.5963695049286,2,6.79320764541626,None,,,,,,,,,,,,,,,,,,108,5,2025-02-25_09h59.02.774,comp,2024.2.4,60.77600434703858,2025-02-25 09h59.13.661791 -0500,
111,111,0,critical,dwh,20.0,4.0,lower,78.0,78.0,57.0,133.0,133.0,57.0,2,3.975957155227661,None,,,,,0,0,0,0,0,111,111,70,684.6120510101318,,,,,,,,,,,,,,,,,,,,,,,,,,,,,,,,,,,,,,,,,,,,,,,,,,,,,,,,,,,,,,,,,,,,,,,,,,,,,,,,,78.0,78.0,57.0,133.0,133.0,57.0,4.0,4.1,-202,-253,0,17,191,-256,684.5974051952362,684.5974612236023,684.6002993583679,684.6120510101318,684.7615239620209,684.7615239620209,684.7615239620209,684.7615239620209,684.7615239620209,684.7615239620209,684.7615239620209,688.5959198474884,2,3.975957155227661,None,,,,,,,,,,,,,,,,,,108,5,2025-02-25_09h59.02.774,comp,2024.2.4,60.77600434703858,2025-02-25 09h59.13.661791 -0500,
112,112,0,critical,dwh,35.0,3.0,upper,127.0,127.0,125.0,200.0,200.0,125.0,3,3.1920711994171143,None,,,,,0,0,0,0,0,112,112,63,688.6115679740906,,,,,,,,,,,,,,,,,,,,,,,,,,,,,,,,,,,,,,,,,,,,,,,,,,,,,,,,,,,,,,,,,,,,,,,,,,,,,,,,,127.0,127.0,125.0,200.0,200.0,125.0,3.0,3.2,-260,-258,0,-18,258,281,688.5967252254486,688.5967659950256,688.5990941524506,688.6115679740906,688.7617182731628,688.7617182731628,688.7617182731628,688.7617182731628,688.7617182731628,688.7617182731628,688.7617182731628,691.8127434253693,3,3.1920711994171143,None,,,,,,,,,,,,,,,,,,108,5,2025-02-25_09h59.02.774,comp,2024.2.4,60.77600434703858,2025-02-25 09h59.13.661791 -0500,
113,113,0,critical,wdh,20.0,1.0,lower,57.0,133.0,78.0,78.0,133.0,57.0,1,9.759495735168457,None,,,,,0,0,0,0,0,113,113,78,691.8282434940338,,,,,,,,,,,,,,,,,,,,,,,,,,,,,,,,,,,,,,,,,,,,,,,,,,,,,,,,,,,,,,,,,,,,,,,,,,,,,,,,,57.0,133.0,78.0,78.0,133.0,57.0,1.0,1.1,-682,262,-480,254,-316,271,691.8135297298431,691.8135697841644,691.8160207271576,691.8282434940338,691.9781293869019,691.9781293869019,691.9781293869019,691.9781293869019,691.9781293869019,691.9781293869019,691.9781293869019,701.5958321094513,1,9.759495735168457,None,,,,,,,,,,,,,,,,,,108,5,2025-02-25_09h59.02.774,comp,2024.2.4,60.77600434703858,2025-02-25 09h59.13.661791 -0500,
114,114,0,filler_random,None,None,None,None,None,None,None,None,None,None,1,4.560012578964233,None,,,,,0,0,0,0,0,114,114,168,701.6115477085114,,,,,,,,,,,,,,,,,,,,,,,,,,,,,,,,,,,,,,,,,,,,,,,,,,,,,,,,,,,,,,,,,,,,,,,,,,,,,,,,,187.58713701493457,95.43801671180113,174.15663525001995,69.09445246749225,64.97300540274507,67.69037313579273,2.1,2.12,-178,-259,0,-270,164,259,701.5967493057251,701.5967919826508,701.5994608402252,701.6115477085114,701.7613711357117,701.7613711357117,701.7613711357117,701.7613711357117,701.7613711357117,701.7613711357117,701.7613711357117,706.1791279315948,1,4.560012578964233,None,,,,,,,,,,,,,,,,,,108,5,2025-02-25_09h59.02.774,comp,2024.2.4,60.77600434703858,2025-02-25 09h59.13.661791 -0500,
115,115,0,filler_square,None,None,None,None,None,None,None,None,None,None,2,3.8168039321899414,None,,,,,0,0,0,0,0,115,115,178,706.1947312355042,,,,,,,,,,,,,,,,,,,,,,,,,,,,,,,,,,,,,,,,,,,,,,,,,,,,,,,,,,,,,,,,,,,,,,,,,,,,,,,,,58.24363765229514,72.41683315326125,80.10821134761098,80.10821134761098,67.13719573736722,79.99465286553435,3.0,3.2,-172,-260,0,5,176,258,706.1800470352173,706.1800866127014,706.1825637817383,706.1947312355042,706.3448853492737,706.3448853492737,706.3448853492737,706.3448853492737,706.3448853492737,706.3448853492737,706.3448853492737,710.0290977954865,2,3.8168039321899414,None,,,,,,,,,,,,,,,,,,108,5,2025-02-25_09h59.02.774,comp,2024.2.4,60.77600434703858,2025-02-25 09h59.13.661791 -0500,
116,116,0,catch,None,None,None,None,None,None,None,None,None,None,1,9.063891410827637,None,,,,,0,0,0,0,0,116,116,127,710.044584274292,,,,,,,,,,,,,,,,,,,,,,,,,,,,,,,,,,,,,,,,,,,,,,,,,,,,,,,,,,,,,,,,,,,,,,,,,,,,,,,,,87,103,183,142,124,66,3.0,3.1,-218,264,0,-17,200,-281,710.0301599502563,710.0302033424377,710.0326147079468,710.044584274292,710.1947374343872,710.1947374343872,710.1947374343872,710.1947374343872,710.1947374343872,710.1947374343872,710.1947374343872,719.1125111579895,1,9.063891410827637,None,,,,,,,,,,,,,,,,,,108,5,2025-02-25_09h59.02.774,comp,2024.2.4,60.77600434703858,2025-02-25 09h59.13.661791 -0500,
117,117,0,critical,dwh,20.0,2.1,lower,78.0,78.0,57.0,133.0,133.0,57.0,3,1.3713884353637695,None,,,,,0,0,0,0,0,117,117,6,719.1279563903809,,,,,,,,,,,,,,,,,,,,,,,,,,,,,,,,,,,,,,,,,,,,,,,,,,,,,,,,,,,,,,,,,,,,,,,,,,,,,,,,,78.0,78.0,57.0,133.0,133.0,57.0,2.1,2.12,-202,-269,0,-267,191,261,719.1132779121399,719.113317489624,719.1157608032227,719.1279563903809,719.2779541015625,719.2779541015625,719.2779541015625,719.2779541015625,719.2779541015625,719.2779541015625,719.2779541015625,720.5123784542084,3,1.3713884353637695,None,,,,,,,,,,,,,,,,,,108,5,2025-02-25_09h59.02.774,comp,2024.2.4,60.77600434703858,2025-02-25 09h59.13.661791 -0500,
118,118,0,critical,hwd,20.0,1.0,upper,200.0,125.0,125.0,200.0,141.0,141.0,1,3.15488862991333,None,,,,,0,0,0,0,0,118,118,103,720.5277655124664,,,,,,,,,,,,,,,,,,,,,,,,,,,,,,,,,,,,,,,,,,,,,,,,,,,,,,,,,,,,,,,,,,,,,,,,,,,,,,,,,200.0,125.0,125.0,200.0,141.0,141.0,1.0,1.2,-258,14,0,13,266,12,720.5131759643555,720.5132169723511,720.5157203674316,720.5277655124664,720.6781952381134,720.6781952381134,720.6781952381134,720.6781952381134,720.6781952381134,720.6781952381134,720.6781952381134,723.6958432197571,1,3.15488862991333,None,,,,,,,,,,,,,,,,,,108,5,2025-02-25_09h59.02.774,comp,2024.2.4,60.77600434703858,2025-02-25 09h59.13.661791 -0500,
119,119,0,filler_square,None,None,None,None,None,None,None,None,None,None,2,6.388304233551025,None,,,,,0,0,0,0,0,119,119,201,723.7110111713409,,,,,,,,,,,,,,,,,,,,,,,,,,,,,,,,,,,,,,,,,,,,,,,,,,,,,,,,,,,,,,,,,,,,,,,,,,,,,,,,,91.50427892724048,97.94351281733319,142.17743698280486,142.17743698280486,84.23306529252501,86.26288542302476,4.0,4.2,-216,-13,0,-263,210,8,723.6967933177948,723.6968321800232,723.6991293430328,723.7110111713409,723.8612868785858,723.8612868785858,723.8612868785858,723.8612868785858,723.8612868785858,723.8612868785858,723.8612868785858,730.1124792098999,2,6.388304233551025,None,,,,,,,,,,,,,,,,,,108,5,2025-02-25_09h59.02.774,comp,2024.2.4,60.77600434703858,2025-02-25 09h59.13.661791 -0500,
120,120,0,filler_square,None,None,None,None,None,None,None,None,None,None,2,2.3334548473358154,None,,,,,0,0,0,0,0,120,120,176,730.127852678299,,,,,,,,,,,,,,,,,,,,,,,,,,,,,,,,,,,,,,,,,,,,,,,,,,,,,,,,,,,,,,,,,,,,,,,,,,,,,,,,,59.62980571653117,70.63850735861438,102.82388864522882,102.82388864522882,92.34839883811172,70.51503122954713,3.0,3.1,-183,283,0,1,183,-253,730.1134481430054,730.1134912967682,730.1160917282104,730.127852678299,730.2778675556183,730.2778675556183,730.2778675556183,730.2778675556183,730.2778675556183,730.2778675556183,730.2778675556183,732.4626114368439,2,2.3334548473358154,None,,,,,,,,,,,,,,,,,,108,5,2025-02-25_09h59.02.774,comp,2024.2.4,60.77600434703858,2025-02-25 09h59.13.661791 -0500,
121,121,0,critical,hwd,35.0,1.0,lower,133.0,57.0,57.0,133.0,70.0,70.0,1,2.9094882011413574,None,,,,,0,0,0,0,0,121,121,96,732.4779481887817,,,,,,,,,,,,,,,,,,,,,,,,,,,,,,,,,,,,,,,,,,,,,,,,,,,,,,,,,,,,,,,,,,,,,,,,,,,,,,,,,133.0,57.0,57.0,133.0,70.0,70.0,1.0,1.2,-191,16,0,0,198,-2,732.4633951187134,732.4634358882904,732.4659893512726,732.4779481887817,732.6282317638397,732.6282317638397,732.6282317638397,732.6282317638397,732.6282317638397,732.6282317638397,732.6282317638397,735.3955211639404,1,2.9094882011413574,None,,,,,,,,,,,,,,,,,,108,5,2025-02-25_09h59.02.774,comp,2024.2.4,60.77600434703858,2025-02-25 09h59.13.661791 -0500,
122,122,0,critical,hwd,20.0,2.1,lower,133.0,57.0,57.0,133.0,78.0,78.0,2,2.951195478439331,None,,,,,0,0,0,0,0,122,122,42,735.4112448692322,,,,,,,,,,,,,,,,,,,,,,,,,,,,,,,,,,,,,,,,,,,,,,,,,,,,,,,,,,,,,,,,,,,,,,,,,,,,,,,,,133.0,57.0,57.0,133.0,78.0,78.0,2.1,2.11,-191,281,0,279,202,-278,735.3963077068329,735.3963482379913,735.3988387584686,735.4112448692322,735.5611457824707,735.5611457824707,735.5611457824707,735.5611457824707,735.5611457824707,735.5611457824707,735.5611457824707,738.3789126873016,2,2.951195478439331,None,,,,,,,,,,,,,,,,,,108,5,2025-02-25_09h59.02.774,comp,2024.2.4,60.77600434703858,2025-02-25 09h59.13.661791 -0500,
123,123,0,critical,wdh,35.0,4.0,lower,57.0,133.0,70.0,70.0,133.0,57.0,3,2.6090519428253174,None,,,,,0,0,0,0,0,123,123,76,738.3943150043488,,,,,,,,,,,,,,,,,,,,,,,,,,,,,,,,,,,,,,,,,,,,,,,,,,,,,,,,,,,,,,,,,,,,,,,,,,,,,,,,,57.0,133.0,70.0,70.0,133.0,57.0,4.0,4.1,-198,-289,0,15,160,-287,738.3797054290771,738.3797464370728,738.3821001052856,738.3943150043488,738.5445954799652,738.5445954799652,738.5445954799652,738.5445954799652,738.5445954799652,738.5445954799652,738.5445954799652,741.0123977661133,3,2.6090519428253174,None,,,,,,,,,,,,,,,,,,108,5,2025-02-25_09h59.02.774,comp,2024.2.4,60.77600434703858,2025-02-25 09h59.13.661791 -0500,
124,124,0,critical,hdw,20.0,3.0,lower,133.0,57.0,78.0,78.0,57.0,133.0,1,3.39132022857666,None,,,,,0,0,0,0,0,124,124,116,741.0280792713165,,,,,,,,,,,,,,,,,,,,,,,,,,,,,,,,,,,,,,,,,,,,,,,,,,,,,,,,,,,,,,,,,,,,,,,,,,,,,,,,,133.0,57.0,78.0,78.0,57.0,133.0,3.0,3.1,-164,255,0,8,202,-280,741.0131988525391,741.0132386684418,741.0152821540833,741.0280792713165,741.1777472496033,741.1777472496033,741.1777472496033,741.1777472496033,741.1777472496033,741.1777472496033,741.1777472496033,744.4289107322693,1,3.39132022857666,None,,,,,,,,,,,,,,,,,,108,5,2025-02-25_09h59.02.774,comp,2024.2.4,60.77600434703858,2025-02-25 09h59.13.661791 -0500,
125,125,0,critical,dwh,20.0,4.0,upper,141.0,141.0,125.0,200.0,200.0,125.0,3,2.975062847137451,None,,,,,0,0,0,0,0,125,125,71,744.4446125030518,,,,,,,,,,,,,,,,,,,,,,,,,,,,,,,,,,,,,,,,,,,,,,,,,,,,,,,,,,,,,,,,,,,,,,,,,,,,,,,,,141.0,141.0,125.0,200.0,200.0,125.0,4.0,4.1,-266,-274,0,3,258,-287,744.4296886920929,744.4297280311584,744.43181848526,744.4446125030518,744.594842672348,744.594842672348,744.594842672348,744.594842672348,744.594842672348,744.594842672348,744.594842672348,747.429249048233,3,2.975062847137451,None,,,,,,,,,,,,,,,,,,108,5,2025-02-25_09h59.02.774,comp,2024.2.4,60.77600434703858,2025-02-25 09h59.13.661791 -0500,
126,126,0,critical,hdw,20.0,1.0,upper,200.0,125.0,141.0,141.0,125.0,200.0,1,3.5914201736450195,None,,,,,0,0,0,0,0,126,126,115,747.4445469379425,,,,,,,,,,,,,,,,,,,,,,,,,,,,,,,,,,,,,,,,,,,,,,,,,,,,,,,,,,,,,,,,,,,,,,,,,,,,,,,,,200.0,125.0,141.0,141.0,125.0,200.0,1.0,1.3,251,-275,480,-255,746,-268,747.430029630661,747.4300706386566,747.4324650764465,747.4445469379425,747.594589471817,747.594589471817,747.594589471817,747.594589471817,747.594589471817,747.594589471817,747.594589471817,751.0457093715668,1,3.5914201736450195,None,,,,,,,,,,,,,,,,,,108,5,2025-02-25_09h59.02.774,comp,2024.2.4,60.77600434703858,2025-02-25 09h59.13.661791 -0500,
127,127,0,filler_square,None,None,None,None,None,None,None,None,None,None,1,8.06947112083435,None,,,,,0,0,0,0,0,127,127,171,751.0612049102783,,,,,,,,,,,,,,,,,,,,,,,,,,,,,,,,,,,,,,,,,,,,,,,,,,,,,,,,,,,,,,,,,,,,,,,,,,,,,,,,,101.45787542338749,101.45787542338749,84.05193559984116,64.23152086777813,83.96023097263699,61.4749313324166,3.0,3.1,-179,276,0,-10,159,-254,751.0466740131378,751.0467171669006,751.049241065979,751.0612049102783,751.211049079895,751.211049079895,751.211049079895,751.211049079895,751.211049079895,751.211049079895,751.211049079895,759.1456801891327,1,8.06947112083435,None,,,,,,,,,,,,,,,,,,108,5,2025-02-25_09h59.02.774,comp,2024.2.4,60.77600434703858,2025-02-25 09h59.13.661791 -0500,
128,128,0,filler_random,None,None,None,None,None,None,None,None,None,None,3,5.617388010025024,None,,,,,0,0,0,0,0,128,128,149,759.1608567237854,,,,,,,,,,,,,,,,,,,,,,,,,,,,,,,,,,,,,,,,,,,,,,,,,,,,,,,,,,,,,,,,,,,,,,,,,,,,,,,,,78.053586966536,158.37320902791623,197.08906848718726,59.54853518892829,189.11148571091277,109.98743929608557,3.0,3.1,-205,277,0,-3,181,-272,759.1465735435486,759.1466143131256,759.1491272449493,759.1608567237854,759.311044216156,759.311044216156,759.311044216156,759.311044216156,759.311044216156,759.311044216156,759.311044216156,764.7954733371735,3,5.617388010025024,None,,,,,,,,,,,,,,,,,,108,5,2025-02-25_09h59.02.774,comp,2024.2.4,60.77600434703858,2025-02-25 09h59.13.661791 -0500,
129,129,0,critical,hdw,35.0,2.1,upper,200.0,125.0,127.0,127.0,125.0,200.0,1,8.80848217010498,None,,,,,0,0,0,0,0,129,129,21,764.8108108043671,,,,,,,,,,,,,,,,,,,,,,,,,,,,,,,,,,,,,,,,,,,,,,,,,,,,,,,,,,,,,,,,,,,,,,,,,,,,,,,,,200.0,125.0,127.0,127.0,125.0,200.0,2.1,2.11,-222,253,0,258,260,-277,764.7963109016418,764.7963509559631,764.798844575882,764.8108108043671,764.9611699581146,764.9611699581146,764.9611699581146,764.9611699581146,764.9611699581146,764.9611699581146,764.9611699581146,773.6288573741913,1,8.80848217010498,None,,,,,,,,,,,,,,,,,,108,5,2025-02-25_09h59.02.774,comp,2024.2.4,60.77600434703858,2025-02-25 09h59.13.661791 -0500,
130,130,0,critical,hwd,35.0,2.1,upper,200.0,125.0,125.0,200.0,127.0,127.0,2,4.117892503738403,None,,,,,0,0,0,0,0,130,130,17,773.6443462371826,,,,,,,,,,,,,,,,,,,,,,,,,,,,,,,,,,,,,,,,,,,,,,,,,,,,,,,,,,,,,,,,,,,,,,,,,,,,,,,,,200.0,125.0,125.0,200.0,127.0,127.0,2.1,2.11,-258,254,0,271,260,-255,773.6296622753143,773.6297030448914,773.6329474449158,773.6443462371826,773.7943761348724,773.7943761348724,773.7943761348724,773.7943761348724,773.7943761348724,773.7943761348724,773.7943761348724,777.7788314819336,2,4.117892503738403,None,,,,,,,,,,,,,,,,,,108,5,2025-02-25_09h59.02.774,comp,2024.2.4,60.77600434703858,2025-02-25 09h59.13.661791 -0500,
131,131,0,filler_square,None,None,None,None,None,None,None,None,None,None,2,3.9363322257995605,None,,,,,0,0,0,0,0,131,131,195,777.7940220832825,,,,,,,,,,,,,,,,,,,,,,,,,,,,,,,,,,,,,,,,,,,,,,,,,,,,,,,,,,,,,,,,,,,,,,,,,,,,,,,,,71.66772019228458,105.45740744972844,146.78029702643482,146.78029702643482,60.942816806657476,123.87242235235654,1.0,1.3,258,-262,480,-268,711,-286,777.779801607132,777.779842376709,777.7822542190552,777.7940220832825,777.9442403316498,777.9442403316498,777.9442403316498,777.9442403316498,777.9442403316498,777.9442403316498,777.9442403316498,781.7454915046692,2,3.9363322257995605,None,,,,,,,,,,,,,,,,,,108,5,2025-02-25_09h59.02.774,comp,2024.2.4,60.77600434703858,2025-02-25 09h59.13.661791 -0500,
132,132,0,critical,hdw,20.0,4.0,lower,133.0,57.0,78.0,78.0,57.0,133.0,3,3.026538610458374,None,,,,,0,0,0,0,0,132,132,118,781.7607839107513,,,,,,,,,,,,,,,,,,,,,,,,,,,,,,,,,,,,,,,,,,,,,,,,,,,,,,,,,,,,,,,,,,,,,,,,,,,,,,,,,133.0,57.0,78.0,78.0,57.0,133.0,4.0,4.2,-164,10,0,-252,202,4,781.7462844848633,781.7463238239288,781.7487976551056,781.7607839107513,781.9108276367188,781.9108276367188,781.9108276367188,781.9108276367188,781.9108276367188,781.9108276367188,781.9108276367188,784.7953214645386,3,3.026538610458374,None,,,,,,,,,,,,,,,,,,108,5,2025-02-25_09h59.02.774,comp,2024.2.4,60.77600434703858,2025-02-25 09h59.13.661791 -0500,
133,133,0,filler_random,None,None,None,None,None,None,None,None,None,None,3,1.7279481887817383,None,,,,,0,0,0,0,0,133,133,157,784.8109455108643,,,,,,,,,,,,,,,,,,,,,,,,,,,,,,,,,,,,,,,,,,,,,,,,,,,,,,,,,,,,,,,,,,,,,,,,,,,,,,,,,140.3764754376494,62.32772499999539,187.77922780202863,75.50678022278984,171.21737648630048,105.10424197874846,1.0,1.2,-165,-11,0,-11,186,7,784.7962327003479,784.796272277832,784.7988185882568,784.8109455108643,784.9609746932983,784.9609746932983,784.9609746932983,784.9609746932983,784.9609746932983,784.9609746932983,784.9609746932983,786.54523229599,3,1.7279481887817383,None,,,,,,,,,,,,,,,,,,108,5,2025-02-25_09h59.02.774,comp,2024.2.4,60.77600434703858,2025-02-25 09h59.13.661791 -0500,
134,134,0,filler_random,None,None,None,None,None,None,None,None,None,None,2,2.1850576400756836,None,,,,,0,0,0,0,0,134,134,161,786.5610234737396,,,,,,,,,,,,,,,,,,,,,,,,,,,,,,,,,,,,,,,,,,,,,,,,,,,,,,,,,,,,,,,,,,,,,,,,,,,,,,,,,115.69987861726128,148.4612225112141,171.9075427862636,188.74054228642566,121.70094225481114,59.49939933991236,2.1,2.12,-265,-254,0,-283,220,290,786.5461518764496,786.5461935997009,786.548858165741,786.5610234737396,786.7113292217255,786.7113292217255,786.7113292217255,786.7113292217255,786.7113292217255,786.7113292217255,786.7113292217255,788.762099981308,2,2.1850576400756836,None,,,,,,,,,,,,,,,,,,108,5,2025-02-25_09h59.02.774,comp,2024.2.4,60.77600434703858,2025-02-25 09h59.13.661791 -0500,
135,135,0,filler_square,None,None,None,None,None,None,None,None,None,None,1,4.6576149463653564,None,,,,,0,0,0,0,0,135,135,188,788.7773787975311,,,,,,,,,,,,,,,,,,,,,,,,,,,,,,,,,,,,,,,,,,,,,,,,,,,,,,,,,,,,,,,,,,,,,,,,,,,,,,,,,125.99429069401928,125.99429069401928,102.50826835176825,74.800280604543,67.46859996200278,81.36321413186697,3.0,3.1,-196,290,0,-17,174,-256,788.7630491256714,788.7630867958069,788.7661933898926,788.7773787975311,788.9274644851685,788.9274644851685,788.9274644851685,788.9274644851685,788.9274644851685,788.9274644851685,788.9274644851685,793.4460937976837,1,4.6576149463653564,None,,,,,,,,,,,,,,,,,,108,5,2025-02-25_09h59.02.774,comp,2024.2.4,60.77600434703858,2025-02-25 09h59.13.661791 -0500,
136,136,0,critical,wdh,35.0,1.0,lower,57.0,133.0,70.0,70.0,133.0,57.0,3,3.605078935623169,None,,,,,0,0,0,0,0,136,136,72,793.4609019756317,,,,,,,,,,,,,,,,,,,,,,,,,,,,,,,,,,,,,,,,,,,,,,,,,,,,,,,,,,,,,,,,,,,,,,,,,,,,,,,,,57.0,133.0,70.0,70.0,133.0,57.0,1.0,1.3,282,-263,480,-251,640,-259,793.4468867778778,793.4469485282898,793.4490706920624,793.4609019756317,793.6108453273773,793.6108453273773,793.6108453273773,793.6108453273773,793.6108453273773,793.6108453273773,793.6108453273773,797.0784945487976,3,3.605078935623169,None,,,,,,,,,,,,,,,,,,108,5,2025-02-25_09h59.02.774,comp,2024.2.4,60.77600434703858,2025-02-25 09h59.13.661791 -0500,
137,137,0,filler_square,None,None,None,None,None,None,None,None,None,None,1,10.26811170578003,None,,,,,0,0,0,0,0,137,137,187,797.0939331054688,,,,,,,,,,,,,,,,,,,,,,,,,,,,,,,,,,,,,,,,,,,,,,,,,,,,,,,,,,,,,,,,,,,,,,,,,,,,,,,,,166.03004468760204,166.03004468760204,82.90000206631709,97.88048637479093,67.77499624040365,144.9249459385166,2.2,2.21,-228,-269,0,252,217,283,797.079491853714,797.0795323848724,797.0822603702545,797.0939331054688,797.2441041469574,797.2441041469574,797.2441041469574,797.2441041469574,797.2441041469574,797.2441041469574,797.2441041469574,807.3785083293915,1,10.26811170578003,None,,,,,,,,,,,,,,,,,,108,5,2025-02-25_09h59.02.774,comp,2024.2.4,60.77600434703858,2025-02-25 09h59.13.661791 -0500,
138,138,0,critical,dhw,20.0,2.1,upper,141.0,141.0,200.0,125.0,125.0,200.0,3,9.393506526947021,None,,,,,0,0,0,0,0,138,138,3,807.39390873909,,,,,,,,,,,,,,,,,,,,,,,,,,,,,,,,,,,,,,,,,,,,,,,,,,,,,,,,,,,,,,,,,,,,,,,,,,,,,,,,,141.0,141.0,200.0,125.0,125.0,200.0,2.1,2.11,-229,253,0,280,258,-289,807.3793246746063,807.3793656826019,807.3814890384674,807.39390873909,807.5444679260254,807.5444679260254,807.5444679260254,807.5444679260254,807.5444679260254,807.5444679260254,807.5444679260254,816.7953901290894,3,9.393506526947021,None,,,,,,,,,,,,,,,,,,108,5,2025-02-25_09h59.02.774,comp,2024.2.4,60.77600434703858,2025-02-25 09h59.13.661791 -0500,
139,139,0,filler_square,None,None,None,None,None,None,None,None,None,None,2,3.008068323135376,None,,,,,0,0,0,0,0,139,139,205,816.8108372688293,,,,,,,,,,,,,,,,,,,,,,,,,,,,,,,,,,,,,,,,,,,,,,,,,,,,,,,,,,,,,,,,,,,,,,,,,,,,,,,,,79.59871990203789,75.87507207950087,89.40207545007368,89.40207545007368,65.95540394886055,77.02099103097888,1.0,1.1,-659,289,-480,269,-301,283,816.7963788509369,816.7964210510254,816.7985632419586,816.8108372688293,816.9608566761017,816.9608566761017,816.9608566761017,816.9608566761017,816.9608566761017,816.9608566761017,816.9608566761017,819.8285405635834,2,3.008068323135376,None,,,,,,,,,,,,,,,,,,108,5,2025-02-25_09h59.02.774,comp,2024.2.4,60.77600434703858,2025-02-25 09h59.13.661791 -0500,
140,140,0,critical,dhw,35.0,3.0,upper,127.0,127.0,200.0,125.0,125.0,200.0,3,2.432459592819214,None,,,,,0,0,0,0,0,140,140,51,819.8440074920654,,,,,,,,,,,,,,,,,,,,,,,,,,,,,,,,,,,,,,,,,,,,,,,,,,,,,,,,,,,,,,,,,,,,,,,,,,,,,,,,,127.0,127.0,200.0,125.0,125.0,200.0,3.0,3.2,-222,-264,0,-15,258,253,819.8293097019196,819.8293488025665,819.8317770957947,819.8440074920654,819.9941024780273,819.9941024780273,819.9941024780273,819.9941024780273,819.9941024780273,819.9941024780273,819.9941024780273,822.2786428928375,3,2.432459592819214,None,,,,,,,,,,,,,,,,,,108,5,2025-02-25_09h59.02.774,comp,2024.2.4,60.77600434703858,2025-02-25 09h59.13.661791 -0500,
