thisN,thisTrialN,thisRepN,effect,order,distance,config,diag,h_1,w_1,h_2,w_2,h_3,w_3,rect_choice.keys,rect_choice.rt,rect_choice.duration,instructions_loop.thisRepN,instructions_loop.thisTrialN,instructions_loop.thisN,instructions_loop.thisIndex,blocks.thisRepN,blocks.thisTrialN,blocks.thisN,blocks.thisIndex,trials.thisRepN,trials.thisTrialN,trials.thisN,trials.thisIndex,thisRow.t,notes,consent.started,agree_button.started,decline_button.started,consent_img.started,mouse.started,consent.stopped,agree_button.numClicks,agree_button.timesOn,agree_button.timesOff,decline_button.numClicks,decline_button.timesOn,decline_button.timesOff,mouse.x,mouse.y,mouse.leftButton,mouse.midButton,mouse.rightButton,mouse.time,mouse.clicked_name,exp_params.started,exp_params.stopped,welcome.started,welcome_text.started,welcome.stopped,instructions_1.started,instructions_1_text_1.started,instructions_1_text_2.started,key_resp.started,instructions_1.stopped,instructions_loop.key_resp.keys,instructions_loop.key_resp.rt,instructions_loop.key_resp.duration,instructions_2.started,instructions_2_text_1.started,instructions_2_text_2.started,key_resp_2.started,instructions_2.stopped,instructions_loop.key_resp_2.keys,instructions_loop.key_resp_2.rt,instructions_loop.key_resp_2.duration,instructions_3.started,instructions_3_text_1.started,r1_instr3.started,r2_instr3.started,r3_instr3.started,r1_instr3_label.started,r2_instr3_label.started,r3_instr3_label.started,instructions_3_text_3.started,instructions_3_text_4.started,key_resp_3.started,instructions_3.stopped,instructions_loop.key_resp_3.keys,instructions_loop.key_resp_3.rt,instructions_loop.key_resp_3.duration,instructions_4.started,instructions_4_text_1.started,instructions_4_text_3.started,instructions_4_text_2.started,key_resp_4.started,instructions_4.stopped,instructions_loop.key_resp_4.keys,instructions_loop.key_resp_4.rt,instructions_loop.key_resp_4.duration,instructions_5.started,instructions_5_text_1.started,instructions_5_text_2.started,key_resp_5.started,instructions_5.stopped,instructions_loop.key_resp_5.keys,instructions_loop.key_resp_5.rt,instructions_loop.key_resp_5.duration,start_exp.started,start_exp_text.started,key_resp_6.started,start_exp.stopped,key_resp_6.keys,key_resp_6.rt,key_resp_6.duration,h_1_tmp,w_1_tmp,h_2_tmp,w_2_tmp,h_3_tmp,w_3_tmp,config_tmp,config_tmp_1,r_1_x,r_1_y,r_2_x,r_2_y,r_3_x,r_3_y,pre_trial.started,pre_trial.stopped,choice_trial.started,rect_choice.started,r_1.started,r_2.started,r_3.started,r_1_label.started,r_2_label.started,r_3_label.started,prompt.started,choice_trial.stopped,trials.rect_choice.keys,trials.rect_choice.rt,trials.rect_choice.duration,end_block.started,end_block_text.started,end_block.stopped,end.started,end_text.started,key_resp_7.started,end.stopped,key_resp_7.keys,key_resp_7.rt,key_resp_7.duration,debriefing.started,debrief_form.started,end_debrief.started,debriefing.stopped,end_debrief.keys,end_debrief.rt,end_debrief.duration,participant,computer,date,expName,psychopyVersion,frameRate,expStart,
,,,,,,,,,,,,,,,,,,,,,,,,,,,,,,,0.014531612396240234,0.03505134582519531,0.03505134582519531,0.03505134582519531,0.014342546463012695,38.91264224052429,1,[38.875271797180176],[38.87529516220093],0,,,[-53.0],[-502.0],[1],[0],[0],[38.89758825302124],['agree_button'],,,,,,,,,,,,,,,,,,,,,,,,,,,,,,,,,,,,,,,,,,,,,,,,,,,,,,,,,,,,,,,,,,,,,,,,,,,,,,,,,,,,,,,,,,,,,,,,,,,,,,,,,,,109,1,2025-02-25_11h58.25.222,comp,2024.2.4,58.062535213607305,2025-02-25 11h59.40.090150 -0500,
,,,,,,,,,,,,,,,,,,,,,,,,,,,,,,,,,,,,,,,,,,,,,,,,,,38.91318655014038,38.91325354576111,,,,,,,,,,,,,,,,,,,,,,,,,,,,,,,,,,,,,,,,,,,,,,,,,,,,,,,,,,,,,,,,,,,,,,,,,,,,,,,,,,,,,,,,,,,,,,,,,,,,,,,,,109,1,2025-02-25_11h58.25.222,comp,2024.2.4,58.062535213607305,2025-02-25 11h59.40.090150 -0500,
,,,,,,,,,,,,,,,,,,,,,,,,,,,,,,,,,,,,,,,,,,,,,,,,,,,,38.913297176361084,38.929736852645874,40.919718503952026,,,,,,,,,,,,,,,,,,,,,,,,,,,,,,,,,,,,,,,,,,,,,,,,,,,,,,,,,,,,,,,,,,,,,,,,,,,,,,,,,,,,,,,,,,,,,,,,,,,,,,109,1,2025-02-25_11h58.25.222,comp,2024.2.4,58.062535213607305,2025-02-25 11h59.40.090150 -0500,
0,0,0,,,,,,,,,,,,,,,0,0,0,0,,,,,,,,,40.93596029281616,,,,,,,,,,,,,,,,,,,,,,,,,,40.92065167427063,40.93596029281616,40.93596029281616,42.418166160583496,48.57317042350769,space,6.141667366027832,None,48.57331609725952,48.58623433113098,48.58623433113098,50.08845067024231,58.109766483306885,space,8.015540838241577,None,58.109917402267456,58.13821005821228,58.13821005821228,58.13821005821228,58.13821005821228,58.13821005821228,58.13821005821228,58.13821005821228,58.13821005821228,58.13821005821228,59.60839080810547,70.522132396698,space,10.90341854095459,None,70.52230191230774,70.53835415840149,70.53835415840149,70.53835415840149,72.02763032913208,80.28179454803467,space,8.25231409072876,None,80.28194785118103,80.30036401748657,80.30036401748657,81.78177976608276,83.14988708496094,space,1.353801965713501,None,83.1500813961029,83.16556310653687,83.16556310653687,84.91531991958618,space,1.746795415878296,None,,,,,,,,,,,,,,,,,,,,,,,,,,,,,,,,,,,,,,,,,,,,,,,109,1,2025-02-25_11h58.25.222,comp,2024.2.4,58.062535213607305,2025-02-25 11h59.40.090150 -0500,
0,0,0,filler_random,None,None,None,None,None,None,None,None,None,None,3,9.056854724884033,None,,,,,0,0,0,0,0,0,0,133,84.99152112007141,,,,,,,,,,,,,,,,,,,,,,,,,,,,,,,,,,,,,,,,,,,,,,,,,,,,,,,,,,,,,,,,,,,,,,,,,,,,,,,,,134.2430753879843,78.07676841697636,108.29277985736853,115.10848986666464,141.71777675061014,104.16881187580029,1.0,1.2,-193,-14,0,-18,206,-16,84.97564625740051,84.9757137298584,84.9776713848114,84.99152112007141,85.14279174804688,85.14279174804688,85.14279174804688,85.14279174804688,85.14279174804688,85.14279174804688,85.14279174804688,94.05751585960388,3,9.056854724884033,None,,,,,,,,,,,,,,,,,,109,1,2025-02-25_11h58.25.222,comp,2024.2.4,58.062535213607305,2025-02-25 11h59.40.090150 -0500,
1,1,0,critical,whd,20.0,1.0,upper,125.0,200.0,200.0,125.0,141.0,141.0,1,8.890775442123413,None,,,,,0,0,0,0,0,1,1,91,94.07740783691406,,,,,,,,,,,,,,,,,,,,,,,,,,,,,,,,,,,,,,,,,,,,,,,,,,,,,,,,,,,,,,,,,,,,,,,,,,,,,,,,,125.0,200.0,200.0,125.0,141.0,141.0,1.0,1.3,222,-286,480,-260,709,-253,94.05927348136902,94.059406042099,94.06266903877258,94.07740783691406,94.22146439552307,94.22146439552307,94.22146439552307,94.22146439552307,94.22146439552307,94.22146439552307,94.22146439552307,102.97390174865723,1,8.890775442123413,None,,,,,,,,,,,,,,,,,,109,1,2025-02-25_11h58.25.222,comp,2024.2.4,58.062535213607305,2025-02-25 11h59.40.090150 -0500,
2,2,0,filler_random,None,None,None,None,None,None,None,None,None,None,3,3.2105014324188232,None,,,,,0,0,0,0,0,2,2,164,102.98986768722534,,,,,,,,,,,,,,,,,,,,,,,,,,,,,,,,,,,,,,,,,,,,,,,,,,,,,,,,,,,,,,,,,,,,,,,,,,,,,,,,,67.78871247876337,113.86254250013914,109.14654878882087,155.63493101141114,196.3438410854221,120.71970323643865,1.0,1.3,249,-269,480,-277,714,-268,102.97565221786499,102.97575736045837,102.97908401489258,102.98986768722534,103.13781404495239,103.13781404495239,103.13781404495239,103.13781404495239,103.13781404495239,103.13781404495239,103.13781404495239,106.20735168457031,3,3.2105014324188232,None,,,,,,,,,,,,,,,,,,109,1,2025-02-25_11h58.25.222,comp,2024.2.4,58.062535213607305,2025-02-25 11h59.40.090150 -0500,
3,3,0,critical,dhw,35.0,4.0,lower,70.0,70.0,133.0,57.0,57.0,133.0,2,6.441230773925781,None,,,,,0,0,0,0,0,3,3,52,106.22333550453186,,,,,,,,,,,,,,,,,,,,,,,,,,,,,,,,,,,,,,,,,,,,,,,,,,,,,,,,,,,,,,,,,,,,,,,,,,,,,,,,,70.0,70.0,133.0,57.0,57.0,133.0,4.0,4.2,-160,15,0,-282,191,-2,106.2089512348175,106.20902895927429,106.21243381500244,106.22333550453186,106.38058948516846,106.38058948516846,106.38058948516846,106.38058948516846,106.38058948516846,106.38058948516846,106.38058948516846,112.6770133972168,2,6.441230773925781,None,,,,,,,,,,,,,,,,,,109,1,2025-02-25_11h58.25.222,comp,2024.2.4,58.062535213607305,2025-02-25 11h59.40.090150 -0500,
4,4,0,filler_random,None,None,None,None,None,None,None,None,None,None,2,4.699375152587891,None,,,,,0,0,0,0,0,4,4,166,112.69304656982422,,,,,,,,,,,,,,,,,,,,,,,,,,,,,,,,,,,,,,,,,,,,,,,,,,,,,,,,,,,,,,,,,,,,,,,,,,,,,,,,,61.0187569161813,103.63528096551899,178.53084103909657,116.58040069710378,77.150240226152,148.34206316954584,2.2,2.22,-206,272,0,-261,228,-287,112.67877411842346,112.67885541915894,112.68223285675049,112.69304656982422,112.84296894073486,112.84296894073486,112.84296894073486,112.84296894073486,112.84296894073486,112.84296894073486,112.84296894073486,117.39926433563232,2,4.699375152587891,None,,,,,,,,,,,,,,,,,,109,1,2025-02-25_11h58.25.222,comp,2024.2.4,58.062535213607305,2025-02-25 11h59.40.090150 -0500,
5,5,0,filler_random,None,None,None,None,None,None,None,None,None,None,1,4.551294565200806,None,,,,,0,0,0,0,0,5,5,165,117.41639018058777,,,,,,,,,,,,,,,,,,,,,,,,,,,,,,,,,,,,,,,,,,,,,,,,,,,,,,,,,,,,,,,,,,,,,,,,,,,,,,,,,176.55273479470748,156.98643567237826,191.3773344700563,106.8687093575983,155.47487004324194,151.55225592149162,4.0,4.1,-228,-271,0,-13,225,-254,117.40111565589905,117.40125012397766,117.4045729637146,117.41639018058777,117.56462454795837,117.56462454795837,117.56462454795837,117.56462454795837,117.56462454795837,117.56462454795837,117.56462454795837,121.97811722755432,1,4.551294565200806,None,,,,,,,,,,,,,,,,,,109,1,2025-02-25_11h58.25.222,comp,2024.2.4,58.062535213607305,2025-02-25 11h59.40.090150 -0500,
6,6,0,critical,dwh,20.0,2.1,lower,78.0,78.0,57.0,133.0,133.0,57.0,2,4.698096513748169,None,,,,,0,0,0,0,0,6,6,30,121.99784088134766,,,,,,,,,,,,,,,,,,,,,,,,,,,,,,,,,,,,,,,,,,,,,,,,,,,,,,,,,,,,,,,,,,,,,,,,,,,,,,,,,78.0,78.0,57.0,133.0,133.0,57.0,2.1,2.11,-202,267,0,264,191,-272,121.97958755493164,121.97966480255127,121.98281383514404,121.99784088134766,122.14621782302856,122.14621782302856,122.14621782302856,122.14621782302856,122.14621782302856,122.14621782302856,122.14621782302856,126.71486568450928,2,4.698096513748169,None,,,,,,,,,,,,,,,,,,109,1,2025-02-25_11h58.25.222,comp,2024.2.4,58.062535213607305,2025-02-25 11h59.40.090150 -0500,
7,7,0,catch,None,None,None,None,None,None,None,None,None,None,1,3.3265721797943115,None,,,,,0,0,0,0,0,7,7,124,126.7302827835083,,,,,,,,,,,,,,,,,,,,,,,,,,,,,,,,,,,,,,,,,,,,,,,,,,,,,,,,,,,,,,,,,,,,,,,,,,,,,,,,,140,185,62,128,114,76,2.2,2.21,-252,-264,0,283,198,279,126.71683597564697,126.71694898605347,126.72000622749329,126.7302827835083,126.88026094436646,126.88026094436646,126.88026094436646,126.88026094436646,126.88026094436646,126.88026094436646,126.88026094436646,130.06244564056396,1,3.3265721797943115,None,,,,,,,,,,,,,,,,,,109,1,2025-02-25_11h58.25.222,comp,2024.2.4,58.062535213607305,2025-02-25 11h59.40.090150 -0500,
8,8,0,critical,hdw,20.0,2.1,upper,200.0,125.0,141.0,141.0,125.0,200.0,3,4.097176551818848,None,,,,,0,0,0,0,0,8,8,23,130.0791735649109,,,,,,,,,,,,,,,,,,,,,,,,,,,,,,,,,,,,,,,,,,,,,,,,,,,,,,,,,,,,,,,,,,,,,,,,,,,,,,,,,200.0,125.0,141.0,141.0,125.0,200.0,2.1,2.11,-229,272,0,289,266,-276,130.06399273872375,130.0640709400177,130.06692576408386,130.0791735649109,130.23503017425537,130.23503017425537,130.23503017425537,130.23503017425537,130.23503017425537,130.23503017425537,130.23503017425537,134.1816143989563,3,4.097176551818848,None,,,,,,,,,,,,,,,,,,109,1,2025-02-25_11h58.25.222,comp,2024.2.4,58.062535213607305,2025-02-25 11h59.40.090150 -0500,
9,9,0,filler_random,None,None,None,None,None,None,None,None,None,None,2,1.80975341796875,None,,,,,0,0,0,0,0,9,9,141,134.19785833358765,,,,,,,,,,,,,,,,,,,,,,,,,,,,,,,,,,,,,,,,,,,,,,,,,,,,,,,,,,,,,,,,,,,,,,,,,,,,,,,,,69.69320497253281,131.39932246274012,117.20443762787689,153.44222785315426,100.91320165689523,97.00653533272614,2.1,2.11,-238,269,0,259,221,-274,134.18347215652466,134.18359684944153,134.18686509132385,134.19785833358765,134.35466384887695,134.35466384887695,134.35466384887695,134.35466384887695,134.35466384887695,134.35466384887695,134.35466384887695,136.01984238624573,2,1.80975341796875,None,,,,,,,,,,,,,,,,,,109,1,2025-02-25_11h58.25.222,comp,2024.2.4,58.062535213607305,2025-02-25 11h59.40.090150 -0500,
10,10,0,critical,hwd,35.0,3.0,lower,133.0,57.0,57.0,133.0,70.0,70.0,1,5.250377655029297,None,,,,,0,0,0,0,0,10,10,98,136.03799080848694,,,,,,,,,,,,,,,,,,,,,,,,,,,,,,,,,,,,,,,,,,,,,,,,,,,,,,,,,,,,,,,,,,,,,,,,,,,,,,,,,133.0,57.0,57.0,133.0,70.0,70.0,3.0,3.1,-191,270,0,11,198,-261,136.02140951156616,136.02148938179016,136.02485632896423,136.03799080848694,136.1840603351593,136.1840603351593,136.1840603351593,136.1840603351593,136.1840603351593,136.1840603351593,136.1840603351593,141.29277443885803,1,5.250377655029297,None,,,,,,,,,,,,,,,,,,109,1,2025-02-25_11h58.25.222,comp,2024.2.4,58.062535213607305,2025-02-25 11h59.40.090150 -0500,
11,11,0,critical,dhw,20.0,3.0,upper,141.0,141.0,200.0,125.0,125.0,200.0,3,7.035029411315918,None,,,,,0,0,0,0,0,11,11,57,141.30952191352844,,,,,,,,,,,,,,,,,,,,,,,,,,,,,,,,,,,,,,,,,,,,,,,,,,,,,,,,,,,,,,,,,,,,,,,,,,,,,,,,,141.0,141.0,200.0,125.0,125.0,200.0,3.0,3.1,-229,268,0,11,258,-255,141.2943720817566,141.2944531440735,141.2977373600006,141.30952191352844,141.45654273033142,141.45654273033142,141.45654273033142,141.45654273033142,141.45654273033142,141.45654273033142,141.45654273033142,148.35501503944397,3,7.035029411315918,None,,,,,,,,,,,,,,,,,,109,1,2025-02-25_11h58.25.222,comp,2024.2.4,58.062535213607305,2025-02-25 11h59.40.090150 -0500,
12,12,0,critical,wdh,35.0,1.0,lower,57.0,133.0,70.0,70.0,133.0,57.0,3,7.485359191894531,None,,,,,0,0,0,0,0,12,12,72,148.37122321128845,,,,,,,,,,,,,,,,,,,,,,,,,,,,,,,,,,,,,,,,,,,,,,,,,,,,,,,,,,,,,,,,,,,,,,,,,,,,,,,,,57.0,133.0,70.0,70.0,133.0,57.0,1.0,1.3,282,-252,480,-267,640,-287,148.3567442893982,148.35686922073364,148.3603174686432,148.37122321128845,148.52416348457336,148.52416348457336,148.52416348457336,148.52416348457336,148.52416348457336,148.52416348457336,148.52416348457336,155.8590760231018,3,7.485359191894531,None,,,,,,,,,,,,,,,,,,109,1,2025-02-25_11h58.25.222,comp,2024.2.4,58.062535213607305,2025-02-25 11h59.40.090150 -0500,
13,13,0,filler_square,None,None,None,None,None,None,None,None,None,None,1,1.731358528137207,None,,,,,0,0,0,0,0,13,13,204,155.8763587474823,,,,,,,,,,,,,,,,,,,,,,,,,,,,,,,,,,,,,,,,,,,,,,,,,,,,,,,,,,,,,,,,,,,,,,,,,,,,,,,,,162.68109166515592,162.68109166515592,122.06135302076086,66.61303303426787,61.705368453366255,87.51683717320824,4.0,4.1,-211,-286,0,13,173,-261,155.86107397079468,155.86118388175964,155.86459231376648,155.8763587474823,156.0241184234619,156.0241184234619,156.0241184234619,156.0241184234619,156.0241184234619,156.0241184234619,156.0241184234619,157.6233034133911,1,1.731358528137207,None,,,,,,,,,,,,,,,,,,109,1,2025-02-25_11h58.25.222,comp,2024.2.4,58.062535213607305,2025-02-25 11h59.40.090150 -0500,
14,14,0,critical,dhw,20.0,2.1,upper,141.0,141.0,200.0,125.0,125.0,200.0,3,2.6225574016571045,None,,,,,0,0,0,0,0,14,14,3,157.642569065094,,,,,,,,,,,,,,,,,,,,,,,,,,,,,,,,,,,,,,,,,,,,,,,,,,,,,,,,,,,,,,,,,,,,,,,,,,,,,,,,,141.0,141.0,200.0,125.0,125.0,200.0,2.1,2.11,-229,283,0,252,258,-263,157.62498688697815,157.62512373924255,157.62841129302979,157.642569065094,157.77875208854675,157.77875208854675,157.77875208854675,157.77875208854675,157.77875208854675,157.77875208854675,157.77875208854675,160.2739074230194,3,2.6225574016571045,None,,,,,,,,,,,,,,,,,,109,1,2025-02-25_11h58.25.222,comp,2024.2.4,58.062535213607305,2025-02-25 11h59.40.090150 -0500,
15,15,0,critical,wdh,20.0,2.1,lower,57.0,133.0,78.0,78.0,133.0,57.0,3,5.685479640960693,None,,,,,0,0,0,0,0,15,15,34,160.29078602790833,,,,,,,,,,,,,,,,,,,,,,,,,,,,,,,,,,,,,,,,,,,,,,,,,,,,,,,,,,,,,,,,,,,,,,,,,,,,,,,,,57.0,133.0,78.0,78.0,133.0,57.0,2.1,2.12,-202,-268,0,-284,164,278,160.2755265235901,160.27562022209167,160.2789921760559,160.29078602790833,160.4408941268921,160.4408941268921,160.4408941268921,160.4408941268921,160.4408941268921,160.4408941268921,160.4408941268921,165.9795858860016,3,5.685479640960693,None,,,,,,,,,,,,,,,,,,109,1,2025-02-25_11h58.25.222,comp,2024.2.4,58.062535213607305,2025-02-25 11h59.40.090150 -0500,
16,16,0,critical,whd,35.0,2.1,upper,125.0,200.0,200.0,125.0,127.0,127.0,2,5.8211283683776855,None,,,,,0,0,0,0,0,16,16,37,165.9965467453003,,,,,,,,,,,,,,,,,,,,,,,,,,,,,,,,,,,,,,,,,,,,,,,,,,,,,,,,,,,,,,,,,,,,,,,,,,,,,,,,,125.0,200.0,200.0,125.0,127.0,127.0,2.1,2.11,-258,271,0,251,222,-263,165.98127269744873,165.98140954971313,165.9848825931549,165.9965467453003,166.14124488830566,166.14124488830566,166.14124488830566,166.14124488830566,166.14124488830566,166.14124488830566,166.14124488830566,171.82849097251892,2,5.8211283683776855,None,,,,,,,,,,,,,,,,,,109,1,2025-02-25_11h58.25.222,comp,2024.2.4,58.062535213607305,2025-02-25 11h59.40.090150 -0500,
17,17,0,critical,hwd,35.0,4.0,lower,133.0,57.0,57.0,133.0,70.0,70.0,1,4.827331066131592,None,,,,,0,0,0,0,0,17,17,100,171.8444082736969,,,,,,,,,,,,,,,,,,,,,,,,,,,,,,,,,,,,,,,,,,,,,,,,,,,,,,,,,,,,,,,,,,,,,,,,,,,,,,,,,133.0,57.0,57.0,133.0,70.0,70.0,4.0,4.1,-191,-256,0,7,198,-251,171.83013153076172,171.8302149772644,171.83362817764282,171.8444082736969,171.9953441619873,171.9953441619873,171.9953441619873,171.9953441619873,171.9953441619873,171.9953441619873,171.9953441619873,176.68258452415466,1,4.827331066131592,None,,,,,,,,,,,,,,,,,,109,1,2025-02-25_11h58.25.222,comp,2024.2.4,58.062535213607305,2025-02-25 11h59.40.090150 -0500,
18,18,0,filler_random,None,None,None,None,None,None,None,None,None,None,3,10.139275074005127,None,,,,,0,0,0,0,0,18,18,151,176.70051765441895,,,,,,,,,,,,,,,,,,,,,,,,,,,,,,,,,,,,,,,,,,,,,,,,,,,,,,,,,,,,,,,,,,,,,,,,,,,,,,,,,102.64311417231232,158.9343141908031,197.07451845847677,77.44284937867002,102.05136568453342,165.66279331345882,4.0,4.1,-214,-252,0,-3,218,-288,176.68434858322144,176.6844310760498,176.68739414215088,176.70051765441895,176.84628796577454,176.84628796577454,176.84628796577454,176.84628796577454,176.84628796577454,176.84628796577454,176.84628796577454,186.8493893146515,3,10.139275074005127,None,,,,,,,,,,,,,,,,,,109,1,2025-02-25_11h58.25.222,comp,2024.2.4,58.062535213607305,2025-02-25 11h59.40.090150 -0500,
19,19,0,filler_random,None,None,None,None,None,None,None,None,None,None,1,5.295651435852051,None,,,,,0,0,0,0,0,19,19,135,186.86422562599182,,,,,,,,,,,,,,,,,,,,,,,,,,,,,,,,,,,,,,,,,,,,,,,,,,,,,,,,,,,,,,,,,,,,,,,,,,,,,,,,,103.33710058234118,178.9001643575894,84.46176575840445,82.49451571707698,193.4286888597975,82.15998476567702,1.0,1.3,253,-254,480,-263,658,-276,186.85111093521118,186.85119247436523,186.85432195663452,186.86422562599182,187.01859712600708,187.01859712600708,187.01859712600708,187.01859712600708,187.01859712600708,187.01859712600708,187.01859712600708,192.16913843154907,1,5.295651435852051,None,,,,,,,,,,,,,,,,,,109,1,2025-02-25_11h58.25.222,comp,2024.2.4,58.062535213607305,2025-02-25 11h59.40.090150 -0500,
20,20,0,catch,None,None,None,None,None,None,None,None,None,None,3,2.047025442123413,None,,,,,0,0,0,0,0,20,20,128,192.1852948665619,,,,,,,,,,,,,,,,,,,,,,,,,,,,,,,,,,,,,,,,,,,,,,,,,,,,,,,,,,,,,,,,,,,,,,,,,,,,,,,,,108,82,105,85,164,161,1.0,1.3,300,-287,480,-279,699,-281,192.17123460769653,192.1713171005249,192.17446541786194,192.1852948665619,192.33304142951965,192.33304142951965,192.33304142951965,192.33304142951965,192.33304142951965,192.33304142951965,192.33304142951965,194.2392861843109,3,2.047025442123413,None,,,,,,,,,,,,,,,,,,109,1,2025-02-25_11h58.25.222,comp,2024.2.4,58.062535213607305,2025-02-25 11h59.40.090150 -0500,
21,21,0,critical,dhw,20.0,4.0,lower,78.0,78.0,133.0,57.0,57.0,133.0,2,2.99625301361084,None,,,,,0,0,0,0,0,21,21,58,194.260174036026,,,,,,,,,,,,,,,,,,,,,,,,,,,,,,,,,,,,,,,,,,,,,,,,,,,,,,,,,,,,,,,,,,,,,,,,,,,,,,,,,78.0,78.0,133.0,57.0,57.0,133.0,4.0,4.2,-164,-15,0,-250,191,18,194.24125003814697,194.2413890361786,194.2444667816162,194.260174036026,194.4027488231659,194.4027488231659,194.4027488231659,194.4027488231659,194.4027488231659,194.4027488231659,194.4027488231659,197.2597668170929,2,2.99625301361084,None,,,,,,,,,,,,,,,,,,109,1,2025-02-25_11h58.25.222,comp,2024.2.4,58.062535213607305,2025-02-25 11h59.40.090150 -0500,
22,22,0,critical,hdw,35.0,2.1,upper,200.0,125.0,127.0,127.0,125.0,200.0,3,7.659923315048218,None,,,,,0,0,0,0,0,22,22,21,197.2760045528412,,,,,,,,,,,,,,,,,,,,,,,,,,,,,,,,,,,,,,,,,,,,,,,,,,,,,,,,,,,,,,,,,,,,,,,,,,,,,,,,,200.0,125.0,127.0,127.0,125.0,200.0,2.1,2.12,-222,-274,0,-281,260,266,197.26127648353577,197.26135730743408,197.26426768302917,197.2760045528412,197.4202024936676,197.4202024936676,197.4202024936676,197.4202024936676,197.4202024936676,197.4202024936676,197.4202024936676,204.93872451782227,3,7.659923315048218,None,,,,,,,,,,,,,,,,,,109,1,2025-02-25_11h58.25.222,comp,2024.2.4,58.062535213607305,2025-02-25 11h59.40.090150 -0500,
23,23,0,critical,hdw,35.0,4.0,lower,133.0,57.0,70.0,70.0,57.0,133.0,3,1.9649019241333008,None,,,,,0,0,0,0,0,23,23,112,204.95520877838135,,,,,,,,,,,,,,,,,,,,,,,,,,,,,,,,,,,,,,,,,,,,,,,,,,,,,,,,,,,,,,,,,,,,,,,,,,,,,,,,,133.0,57.0,70.0,70.0,57.0,133.0,4.0,4.1,-160,-262,0,-18,198,-287,204.94022369384766,204.94030022621155,204.94436883926392,204.95520877838135,205.10585021972656,205.10585021972656,205.10585021972656,205.10585021972656,205.10585021972656,205.10585021972656,205.10585021972656,206.94010615348816,3,1.9649019241333008,None,,,,,,,,,,,,,,,,,,109,1,2025-02-25_11h58.25.222,comp,2024.2.4,58.062535213607305,2025-02-25 11h59.40.090150 -0500,
24,24,0,catch,None,None,None,None,None,None,None,None,None,None,2,1.455245018005371,None,,,,,0,0,0,0,0,24,24,122,206.96055126190186,,,,,,,,,,,,,,,,,,,,,,,,,,,,,,,,,,,,,,,,,,,,,,,,,,,,,,,,,,,,,,,,,,,,,,,,,,,,,,,,,96,94,154,171,133,57,2.1,2.11,-228,264,0,289,210,-257,206.94212341308594,206.94220328330994,206.94516921043396,206.96055126190186,207.1089289188385,207.1089289188385,207.1089289188385,207.1089289188385,207.1089289188385,207.1089289188385,207.1089289188385,208.426513671875,2,1.455245018005371,None,,,,,,,,,,,,,,,,,,109,1,2025-02-25_11h58.25.222,comp,2024.2.4,58.062535213607305,2025-02-25 11h59.40.090150 -0500,
25,25,0,critical,dwh,35.0,3.0,lower,70.0,70.0,57.0,133.0,133.0,57.0,3,2.7265465259552,None,,,,,0,0,0,0,0,25,25,62,208.44188904762268,,,,,,,,,,,,,,,,,,,,,,,,,,,,,,,,,,,,,,,,,,,,,,,,,,,,,,,,,,,,,,,,,,,,,,,,,,,,,,,,,70.0,70.0,57.0,133.0,133.0,57.0,3.0,3.2,-198,-254,0,-3,191,272,208.4282717704773,208.42835402488708,208.43129467964172,208.44188904762268,208.59064149856567,208.59064149856567,208.59064149856567,208.59064149856567,208.59064149856567,208.59064149856567,208.59064149856567,211.17385959625244,3,2.7265465259552,None,,,,,,,,,,,,,,,,,,109,1,2025-02-25_11h58.25.222,comp,2024.2.4,58.062535213607305,2025-02-25 11h59.40.090150 -0500,
26,26,0,critical,wdh,20.0,4.0,lower,57.0,133.0,78.0,78.0,133.0,57.0,1,4.129880428314209,None,,,,,0,0,0,0,0,26,26,82,211.19037771224976,,,,,,,,,,,,,,,,,,,,,,,,,,,,,,,,,,,,,,,,,,,,,,,,,,,,,,,,,,,,,,,,,,,,,,,,,,,,,,,,,57.0,133.0,78.0,78.0,133.0,57.0,4.0,4.1,-202,-257,0,4,164,-273,211.1754081249237,211.17548727989197,211.17954111099243,211.19037771224976,211.34202480316162,211.34202480316162,211.34202480316162,211.34202480316162,211.34202480316162,211.34202480316162,211.34202480316162,215.32604718208313,1,4.129880428314209,None,,,,,,,,,,,,,,,,,,109,1,2025-02-25_11h58.25.222,comp,2024.2.4,58.062535213607305,2025-02-25 11h59.40.090150 -0500,
27,27,0,filler_random,None,None,None,None,None,None,None,None,None,None,1,1.6271913051605225,None,,,,,0,0,0,0,0,27,27,143,215.34265732765198,,,,,,,,,,,,,,,,,,,,,,,,,,,,,,,,,,,,,,,,,,,,,,,,,,,,,,,,,,,,,,,,,,,,,,,,,,,,,,,,,193.72835276980558,147.5426084075622,108.9485721394053,186.5228280682174,57.843229583674386,93.32637291666293,1.0,1.3,217,-279,480,-254,716,-252,215.32801628112793,215.32810068130493,215.3317835330963,215.34265732765198,215.49120163917542,215.49120163917542,215.49120163917542,215.49120163917542,215.49120163917542,215.49120163917542,215.49120163917542,216.97288727760315,1,1.6271913051605225,None,,,,,,,,,,,,,,,,,,109,1,2025-02-25_11h58.25.222,comp,2024.2.4,58.062535213607305,2025-02-25 11h59.40.090150 -0500,
28,28,0,filler_square,None,None,None,None,None,None,None,None,None,None,2,6.570078372955322,None,,,,,0,0,0,0,0,28,28,193,216.98976159095764,,,,,,,,,,,,,,,,,,,,,,,,,,,,,,,,,,,,,,,,,,,,,,,,,,,,,,,,,,,,,,,,,,,,,,,,,,,,,,,,,73.29820325002095,66.23524959071574,72.86764159323822,73.31846632159282,75.68154786317508,75.68154786317508,4.0,4.1,-166,-259,0,12,171,-257,216.97461223602295,216.97472286224365,216.9775993824005,216.98976159095764,217.12997889518738,217.12997889518738,217.12997889518738,217.12997889518738,217.12997889518738,217.12997889518738,217.12997889518738,223.57821416854858,2,6.570078372955322,None,,,,,,,,,,,,,,,,,,109,1,2025-02-25_11h58.25.222,comp,2024.2.4,58.062535213607305,2025-02-25 11h59.40.090150 -0500,
29,29,0,critical,hwd,35.0,3.0,upper,200.0,125.0,125.0,200.0,127.0,127.0,1,4.3322014808654785,None,,,,,0,0,0,0,0,29,29,99,223.59581685066223,,,,,,,,,,,,,,,,,,,,,,,,,,,,,,,,,,,,,,,,,,,,,,,,,,,,,,,,,,,,,,,,,,,,,,,,,,,,,,,,,200.0,125.0,125.0,200.0,127.0,127.0,3.0,3.2,-258,-283,0,20,260,289,223.57979798316956,223.57987570762634,223.58318305015564,223.59581685066223,223.74447178840637,223.74447178840637,223.74447178840637,223.74447178840637,223.74447178840637,223.74447178840637,223.74447178840637,227.9489824771881,1,4.3322014808654785,None,,,,,,,,,,,,,,,,,,109,1,2025-02-25_11h58.25.222,comp,2024.2.4,58.062535213607305,2025-02-25 11h59.40.090150 -0500,
30,30,0,critical,hdw,20.0,2.1,lower,133.0,57.0,78.0,78.0,57.0,133.0,1,10.094204664230347,None,,,,,0,0,0,0,0,30,30,46,227.9695987701416,,,,,,,,,,,,,,,,,,,,,,,,,,,,,,,,,,,,,,,,,,,,,,,,,,,,,,,,,,,,,,,,,,,,,,,,,,,,,,,,,133.0,57.0,78.0,78.0,57.0,133.0,2.1,2.11,-164,273,0,280,202,-277,227.95062160491943,227.95077538490295,227.95418667793274,227.9695987701416,228.11295413970947,228.11295413970947,228.11295413970947,228.11295413970947,228.11295413970947,228.11295413970947,228.11295413970947,238.0664849281311,1,10.094204664230347,None,,,,,,,,,,,,,,,,,,109,1,2025-02-25_11h58.25.222,comp,2024.2.4,58.062535213607305,2025-02-25 11h59.40.090150 -0500,
31,31,0,critical,dwh,20.0,1.0,lower,78.0,78.0,57.0,133.0,133.0,57.0,2,2.557098865509033,None,,,,,0,0,0,0,0,31,31,66,238.08287119865417,,,,,,,,,,,,,,,,,,,,,,,,,,,,,,,,,,,,,,,,,,,,,,,,,,,,,,,,,,,,,,,,,,,,,,,,,,,,,,,,,78.0,78.0,57.0,133.0,133.0,57.0,1.0,1.1,-682,271,-480,285,-289,277,238.06801438331604,238.06809329986572,238.0720992088318,238.08287119865417,238.23196625709534,238.23196625709534,238.23196625709534,238.23196625709534,238.23196625709534,238.23196625709534,238.23196625709534,240.65252709388733,2,2.557098865509033,None,,,,,,,,,,,,,,,,,,109,1,2025-02-25_11h58.25.222,comp,2024.2.4,58.062535213607305,2025-02-25 11h59.40.090150 -0500,
32,32,0,filler_random,None,None,None,None,None,None,None,None,None,None,2,1.6318573951721191,None,,,,,0,0,0,0,0,32,32,152,240.67234325408936,,,,,,,,,,,,,,,,,,,,,,,,,,,,,,,,,,,,,,,,,,,,,,,,,,,,,,,,,,,,,,,,,,,,,,,,,,,,,,,,,127.0056295705354,88.68311345139482,178.01911089297246,190.13168003719122,165.06624930844413,141.07458699189397,1.0,1.1,-715,264,-480,260,-218,256,240.65449166297913,240.65457224845886,240.6574845314026,240.67234325408936,240.81577372550964,240.81577372550964,240.81577372550964,240.81577372550964,240.81577372550964,240.81577372550964,240.81577372550964,242.3172311782837,2,1.6318573951721191,None,,,,,,,,,,,,,,,,,,109,1,2025-02-25_11h58.25.222,comp,2024.2.4,58.062535213607305,2025-02-25 11h59.40.090150 -0500,
33,33,0,critical,dhw,35.0,3.0,lower,70.0,70.0,133.0,57.0,57.0,133.0,2,3.5704128742218018,None,,,,,0,0,0,0,0,33,33,50,242.33346152305603,,,,,,,,,,,,,,,,,,,,,,,,,,,,,,,,,,,,,,,,,,,,,,,,,,,,,,,,,,,,,,,,,,,,,,,,,,,,,,,,,70.0,70.0,133.0,57.0,57.0,133.0,3.0,3.2,-160,-284,0,-13,191,283,242.3187108039856,242.31878852844238,242.32282400131226,242.33346152305603,242.48765301704407,242.48765301704407,242.48765301704407,242.48765301704407,242.48765301704407,242.48765301704407,242.48765301704407,245.92008566856384,2,3.5704128742218018,None,,,,,,,,,,,,,,,,,,109,1,2025-02-25_11h58.25.222,comp,2024.2.4,58.062535213607305,2025-02-25 11h59.40.090150 -0500,
34,34,0,filler_square,None,None,None,None,None,None,None,None,None,None,3,2.919234275817871,None,,,,,0,0,0,0,0,34,34,174,245.93684935569763,,,,,,,,,,,,,,,,,,,,,,,,,,,,,,,,,,,,,,,,,,,,,,,,,,,,,,,,,,,,,,,,,,,,,,,,,,,,,,,,,61.19656840242312,65.80427574120715,57.208031336458255,61.2806329433904,66.71348164506934,66.71348164506934,2.1,2.11,-160,283,0,259,160,-261,245.92218017578125,245.92226004600525,245.92563009262085,245.93684935569763,246.08536982536316,246.08536982536316,246.08536982536316,246.08536982536316,246.08536982536316,246.08536982536316,246.08536982536316,248.87421488761902,3,2.919234275817871,None,,,,,,,,,,,,,,,,,,109,1,2025-02-25_11h58.25.222,comp,2024.2.4,58.062535213607305,2025-02-25 11h59.40.090150 -0500,
35,35,0,critical,dhw,35.0,4.0,upper,127.0,127.0,200.0,125.0,125.0,200.0,2,5.094550132751465,None,,,,,0,0,0,0,0,35,35,53,248.88979578018188,,,,,,,,,,,,,,,,,,,,,,,,,,,,,,,,,,,,,,,,,,,,,,,,,,,,,,,,,,,,,,,,,,,,,,,,,,,,,,,,,127.0,127.0,200.0,125.0,125.0,200.0,4.0,4.2,-222,11,0,-284,258,-1,248.8757300376892,248.87581157684326,248.87865447998047,248.88979578018188,249.03672099113464,249.03672099113464,249.03672099113464,249.03672099113464,249.03672099113464,249.03672099113464,249.03672099113464,253.9864044189453,2,5.094550132751465,None,,,,,,,,,,,,,,,,,,109,1,2025-02-25_11h58.25.222,comp,2024.2.4,58.062535213607305,2025-02-25 11h59.40.090150 -0500,
36,36,0,critical,hdw,35.0,2.1,lower,133.0,57.0,70.0,70.0,57.0,133.0,3,4.701552391052246,None,,,,,0,0,0,0,0,36,36,44,254.00257563591003,,,,,,,,,,,,,,,,,,,,,,,,,,,,,,,,,,,,,,,,,,,,,,,,,,,,,,,,,,,,,,,,,,,,,,,,,,,,,,,,,133.0,57.0,70.0,70.0,57.0,133.0,2.1,2.11,-160,260,0,252,198,-280,253.9879550933838,253.98803186416626,253.99089860916138,254.00257563591003,254.15363717079163,254.15363717079163,254.15363717079163,254.15363717079163,254.15363717079163,254.15363717079163,254.15363717079163,258.7081844806671,3,4.701552391052246,None,,,,,,,,,,,,,,,,,,109,1,2025-02-25_11h58.25.222,comp,2024.2.4,58.062535213607305,2025-02-25 11h59.40.090150 -0500,
37,37,0,filler_random,None,None,None,None,None,None,None,None,None,None,3,1.8995723724365234,None,,,,,0,0,0,0,0,37,37,161,258.7243230342865,,,,,,,,,,,,,,,,,,,,,,,,,,,,,,,,,,,,,,,,,,,,,,,,,,,,,,,,,,,,,,,,,,,,,,,,,,,,,,,,,139.63533929120297,57.237961457342486,181.0147213294896,70.64497336247724,162.15168974047046,112.79525119225372,2.1,2.12,-160,-287,0,-258,188,268,258.71016907691956,258.7102527618408,258.7134895324707,258.7243230342865,258.87225008010864,258.87225008010864,258.87225008010864,258.87225008010864,258.87225008010864,258.87225008010864,258.87225008010864,260.64155411720276,3,1.8995723724365234,None,,,,,,,,,,,,,,,,,,109,1,2025-02-25_11h58.25.222,comp,2024.2.4,58.062535213607305,2025-02-25 11h59.40.090150 -0500,
38,38,0,filler_square,None,None,None,None,None,None,None,None,None,None,1,2.913451910018921,None,,,,,0,0,0,0,0,38,38,187,260.66250920295715,,,,,,,,,,,,,,,,,,,,,,,,,,,,,,,,,,,,,,,,,,,,,,,,,,,,,,,,,,,,,,,,,,,,,,,,,,,,,,,,,85.54153691071598,85.54153691071598,84.83612942653262,76.58935125996842,85.3038153471784,67.48438515870255,3.0,3.2,-177,-250,0,0,168,259,260.64372515678406,260.6438126564026,260.6471617221832,260.66250920295715,260.8067259788513,260.8067259788513,260.8067259788513,260.8067259788513,260.8067259788513,260.8067259788513,260.8067259788513,263.5902142524719,1,2.913451910018921,None,,,,,,,,,,,,,,,,,,109,1,2025-02-25_11h58.25.222,comp,2024.2.4,58.062535213607305,2025-02-25 11h59.40.090150 -0500,
39,39,0,filler_random,None,None,None,None,None,None,None,None,None,None,2,1.4337430000305176,None,,,,,0,0,0,0,0,39,39,155,263.6061899662018,,,,,,,,,,,,,,,,,,,,,,,,,,,,,,,,,,,,,,,,,,,,,,,,,,,,,,,,,,,,,,,,,,,,,,,,,,,,,,,,,93.46111731747436,197.34490935620298,187.86240764999056,149.54740746231062,83.23683925531068,152.58207569119435,2.2,2.22,-269,277,0,-259,247,-290,263.59216141700745,263.5922472476959,263.5958249568939,263.6061899662018,263.7575991153717,263.7575991153717,263.7575991153717,263.7575991153717,263.7575991153717,263.7575991153717,263.7575991153717,265.0419852733612,2,1.4337430000305176,None,,,,,,,,,,,,,,,,,,109,1,2025-02-25_11h58.25.222,comp,2024.2.4,58.062535213607305,2025-02-25 11h59.40.090150 -0500,
40,40,0,filler_random,None,None,None,None,None,None,None,None,None,None,2,2.3573851585388184,None,,,,,0,0,0,0,0,40,40,145,265.05859565734863,,,,,,,,,,,,,,,,,,,,,,,,,,,,,,,,,,,,,,,,,,,,,,,,,,,,,,,,,,,,,,,,,,,,,,,,,,,,,,,,,151.3399604071311,120.02658651545967,132.4594255150294,176.2015289889066,137.5608822139675,147.50966968757317,1.0,1.2,-244,11,0,-18,258,14,265.04398369789124,265.044118642807,265.0477919578552,265.05859565734863,265.21177864074707,265.21177864074707,265.21177864074707,265.21177864074707,265.21177864074707,265.21177864074707,265.21177864074707,267.42720127105713,2,2.3573851585388184,None,,,,,,,,,,,,,,,,,,109,1,2025-02-25_11h58.25.222,comp,2024.2.4,58.062535213607305,2025-02-25 11h59.40.090150 -0500,
41,41,0,critical,wdh,35.0,2.1,lower,57.0,133.0,70.0,70.0,133.0,57.0,1,2.6356852054595947,None,,,,,0,0,0,0,0,41,41,32,267.4441907405853,,,,,,,,,,,,,,,,,,,,,,,,,,,,,,,,,,,,,,,,,,,,,,,,,,,,,,,,,,,,,,,,,,,,,,,,,,,,,,,,,57.0,133.0,70.0,70.0,133.0,57.0,2.1,2.12,-198,-285,0,-289,160,277,267.42898750305176,267.4290699958801,267.4324369430542,267.4441907405853,267.5913519859314,267.5913519859314,267.5913519859314,267.5913519859314,267.5913519859314,267.5913519859314,267.5913519859314,270.0947768688202,1,2.6356852054595947,None,,,,,,,,,,,,,,,,,,109,1,2025-02-25_11h58.25.222,comp,2024.2.4,58.062535213607305,2025-02-25 11h59.40.090150 -0500,
42,42,0,critical,whd,35.0,3.0,upper,125.0,200.0,200.0,125.0,127.0,127.0,1,2.6882874965667725,None,,,,,0,0,0,0,0,42,42,87,270.1126673221588,,,,,,,,,,,,,,,,,,,,,,,,,,,,,,,,,,,,,,,,,,,,,,,,,,,,,,,,,,,,,,,,,,,,,,,,,,,,,,,,,125.0,200.0,200.0,125.0,127.0,127.0,3.0,3.2,-258,-252,0,10,222,257,270.09647369384766,270.0965631008148,270.0997061729431,270.1126673221588,270.25940322875977,270.25940322875977,270.25940322875977,270.25940322875977,270.25940322875977,270.25940322875977,270.25940322875977,272.8102777004242,1,2.6882874965667725,None,,,,,,,,,,,,,,,,,,109,1,2025-02-25_11h58.25.222,comp,2024.2.4,58.062535213607305,2025-02-25 11h59.40.090150 -0500,
43,43,0,critical,dhw,20.0,1.0,lower,78.0,78.0,133.0,57.0,57.0,133.0,2,2.4056646823883057,None,,,,,0,0,0,0,0,43,43,54,272.82632517814636,,,,,,,,,,,,,,,,,,,,,,,,,,,,,,,,,,,,,,,,,,,,,,,,,,,,,,,,,,,,,,,,,,,,,,,,,,,,,,,,,78.0,78.0,133.0,57.0,57.0,133.0,1.0,1.2,-164,15,0,-8,191,7,272.8118679523468,272.8119704723358,272.8154399394989,272.82632517814636,272.97728276252747,272.97728276252747,272.97728276252747,272.97728276252747,272.97728276252747,272.97728276252747,272.97728276252747,275.2427568435669,2,2.4056646823883057,None,,,,,,,,,,,,,,,,,,109,1,2025-02-25_11h58.25.222,comp,2024.2.4,58.062535213607305,2025-02-25 11h59.40.090150 -0500,
44,44,0,filler_random,None,None,None,None,None,None,None,None,None,None,1,5.178260803222656,None,,,,,0,0,0,0,0,44,44,139,275.2623567581177,,,,,,,,,,,,,,,,,,,,,,,,,,,,,,,,,,,,,,,,,,,,,,,,,,,,,,,,,,,,,,,,,,,,,,,,,,,,,,,,,145.7637309735748,121.40476862462931,67.10017634638095,67.94561360170479,104.22112759297498,195.45233251856047,4.0,4.1,-191,-253,0,-19,228,-284,275.24440336227417,275.24448132514954,275.24763917922974,275.2623567581177,275.41119480133057,275.41119480133057,275.41119480133057,275.41119480133057,275.41119480133057,275.41119480133057,275.41119480133057,280.44949221611023,1,5.178260803222656,None,,,,,,,,,,,,,,,,,,109,1,2025-02-25_11h58.25.222,comp,2024.2.4,58.062535213607305,2025-02-25 11h59.40.090150 -0500,
45,45,0,critical,hdw,20.0,3.0,upper,200.0,125.0,141.0,141.0,125.0,200.0,3,3.8541367053985596,None,,,,,0,0,0,0,0,45,45,117,280.4663712978363,,,,,,,,,,,,,,,,,,,,,,,,,,,,,,,,,,,,,,,,,,,,,,,,,,,,,,,,,,,,,,,,,,,,,,,,,,,,,,,,,200.0,125.0,141.0,141.0,125.0,200.0,3.0,3.1,-229,287,0,12,266,-286,280.45114374160767,280.45125222206116,280.45461869239807,280.4663712978363,280.6115891933441,280.6115891933441,280.6115891933441,280.6115891933441,280.6115891933441,280.6115891933441,280.6115891933441,284.3293159008026,3,3.8541367053985596,None,,,,,,,,,,,,,,,,,,109,1,2025-02-25_11h58.25.222,comp,2024.2.4,58.062535213607305,2025-02-25 11h59.40.090150 -0500,
46,46,0,filler_random,None,None,None,None,None,None,None,None,None,None,3,1.381373405456543,None,,,,,0,0,0,0,0,46,46,138,284.34713530540466,,,,,,,,,,,,,,,,,,,,,,,,,,,,,,,,,,,,,,,,,,,,,,,,,,,,,,,,,,,,,,,,,,,,,,,,,,,,,,,,,153.57219217337897,69.5118554141456,191.54788544840235,88.24645786318055,193.15172491579287,149.51196162794804,3.0,3.1,-175,288,0,-16,215,-272,284.3309452533722,284.3310213088989,284.3341522216797,284.34713530540466,284.484338760376,284.484338760376,284.484338760376,284.484338760376,284.484338760376,284.484338760376,284.484338760376,285.7364168167114,3,1.381373405456543,None,,,,,,,,,,,,,,,,,,109,1,2025-02-25_11h58.25.222,comp,2024.2.4,58.062535213607305,2025-02-25 11h59.40.090150 -0500,
47,47,0,critical,hwd,35.0,2.1,lower,133.0,57.0,57.0,133.0,70.0,70.0,1,4.1924073696136475,None,,,,,0,0,0,0,0,47,47,16,285.7516117095947,,,,,,,,,,,,,,,,,,,,,,,,,,,,,,,,,,,,,,,,,,,,,,,,,,,,,,,,,,,,,,,,,,,,,,,,,,,,,,,,,133.0,57.0,57.0,133.0,70.0,70.0,2.1,2.12,-191,-253,0,-279,198,256,285.7379050254822,285.73798298835754,285.74096632003784,285.7516117095947,285.89717650413513,285.89717650413513,285.89717650413513,285.89717650413513,285.89717650413513,285.89717650413513,285.89717650413513,289.95997643470764,1,4.1924073696136475,None,,,,,,,,,,,,,,,,,,109,1,2025-02-25_11h58.25.222,comp,2024.2.4,58.062535213607305,2025-02-25 11h59.40.090150 -0500,
48,48,0,critical,hwd,20.0,4.0,upper,200.0,125.0,125.0,200.0,141.0,141.0,2,3.416369676589966,None,,,,,0,0,0,0,0,48,48,107,289.97649669647217,,,,,,,,,,,,,,,,,,,,,,,,,,,,,,,,,,,,,,,,,,,,,,,,,,,,,,,,,,,,,,,,,,,,,,,,,,,,,,,,,200.0,125.0,125.0,200.0,141.0,141.0,4.0,4.2,-258,9,0,-256,266,-4,289.9615831375122,289.96166467666626,289.9651725292206,289.97649669647217,290.1180281639099,290.1180281639099,290.1180281639099,290.1180281639099,290.1180281639099,290.1180281639099,290.1180281639099,293.398779630661,2,3.416369676589966,None,,,,,,,,,,,,,,,,,,109,1,2025-02-25_11h58.25.222,comp,2024.2.4,58.062535213607305,2025-02-25 11h59.40.090150 -0500,
49,49,0,critical,dhw,35.0,1.0,upper,127.0,127.0,200.0,125.0,125.0,200.0,3,3.999441146850586,None,,,,,0,0,0,0,0,49,49,49,293.416597366333,,,,,,,,,,,,,,,,,,,,,,,,,,,,,,,,,,,,,,,,,,,,,,,,,,,,,,,,,,,,,,,,,,,,,,,,,,,,,,,,,127.0,127.0,200.0,125.0,125.0,200.0,1.0,1.2,-222,4,0,3,258,-19,293.40023469924927,293.4003121852875,293.4034631252289,293.416597366333,293.5662829875946,293.5662829875946,293.5662829875946,293.5662829875946,293.5662829875946,293.5662829875946,293.5662829875946,297.4179883003235,3,3.999441146850586,None,,,,,,,,,,,,,,,,,,109,1,2025-02-25_11h58.25.222,comp,2024.2.4,58.062535213607305,2025-02-25 11h59.40.090150 -0500,
50,50,0,filler_random,None,None,None,None,None,None,None,None,None,None,1,2.7656049728393555,None,,,,,0,0,0,0,0,50,50,156,297.4344437122345,,,,,,,,,,,,,,,,,,,,,,,,,,,,,,,,,,,,,,,,,,,,,,,,,,,,,,,,,,,,,,,,,,,,,,,,,,,,,,,,,139.14554523872317,86.52975462106583,80.50293411926187,120.81194484037837,73.09991611715259,67.79768888191583,2.2,2.21,-200,-265,0,268,190,282,297.41989612579346,297.4200291633606,297.4235210418701,297.4344437122345,297.5827832221985,297.5827832221985,297.5827832221985,297.5827832221985,297.5827832221985,297.5827832221985,297.5827832221985,300.20288586616516,1,2.7656049728393555,None,,,,,,,,,,,,,,,,,,109,1,2025-02-25_11h58.25.222,comp,2024.2.4,58.062535213607305,2025-02-25 11h59.40.090150 -0500,
51,51,0,catch,None,None,None,None,None,None,None,None,None,None,2,2.1235647201538086,None,,,,,0,0,0,0,0,51,51,121,300.22100615501404,,,,,,,,,,,,,,,,,,,,,,,,,,,,,,,,,,,,,,,,,,,,,,,,,,,,,,,,,,,,,,,,,,,,,,,,,,,,,,,,,114,76,140,185,60,130,3.0,3.1,-226,270,0,0,254,-250,300.20487666130066,300.2049858570099,300.2081050872803,300.22100615501404,300.3657896518707,300.3657896518707,300.3657896518707,300.3657896518707,300.3657896518707,300.3657896518707,300.3657896518707,302.35241961479187,2,2.1235647201538086,None,,,,,,,,,,,,,,,,,,109,1,2025-02-25_11h58.25.222,comp,2024.2.4,58.062535213607305,2025-02-25 11h59.40.090150 -0500,
52,52,0,filler_square,None,None,None,None,None,None,None,None,None,None,3,3.030600070953369,None,,,,,0,0,0,0,0,52,52,177,302.36941933631897,,,,,,,,,,,,,,,,,,,,,,,,,,,,,,,,,,,,,,,,,,,,,,,,,,,,,,,,,,,,,,,,,,,,,,,,,,,,,,,,,78.30718197645035,84.78109678532121,65.56464837218414,108.11387392000765,110.3658868660323,110.3658868660323,2.2,2.21,-192,-266,0,275,205,284,302.3543703556061,302.3544542789459,302.35788321495056,302.36941933631897,302.5218586921692,302.5218586921692,302.5218586921692,302.5218586921692,302.5218586921692,302.5218586921692,302.5218586921692,305.40333819389343,3,3.030600070953369,None,,,,,,,,,,,,,,,,,,109,1,2025-02-25_11h58.25.222,comp,2024.2.4,58.062535213607305,2025-02-25 11h59.40.090150 -0500,
53,53,0,critical,whd,20.0,4.0,lower,57.0,133.0,133.0,57.0,78.0,78.0,2,4.812236785888672,None,,,,,0,0,0,0,0,53,53,94,305.41978096961975,,,,,,,,,,,,,,,,,,,,,,,,,,,,,,,,,,,,,,,,,,,,,,,,,,,,,,,,,,,,,,,,,,,,,,,,,,,,,,,,,57.0,133.0,133.0,57.0,78.0,78.0,4.0,4.2,-191,-3,0,-254,164,11,305.4048156738281,305.40491342544556,305.40825176239014,305.41978096961975,305.57309126853943,305.57309126853943,305.57309126853943,305.57309126853943,305.57309126853943,305.57309126853943,305.57309126853943,310.2473006248474,2,4.812236785888672,None,,,,,,,,,,,,,,,,,,109,1,2025-02-25_11h58.25.222,comp,2024.2.4,58.062535213607305,2025-02-25 11h59.40.090150 -0500,
54,54,0,critical,dwh,20.0,3.0,upper,141.0,141.0,125.0,200.0,200.0,125.0,2,2.3615903854370117,None,,,,,0,0,0,0,0,54,54,69,310.26246786117554,,,,,,,,,,,,,,,,,,,,,,,,,,,,,,,,,,,,,,,,,,,,,,,,,,,,,,,,,,,,,,,,,,,,,,,,,,,,,,,,,141.0,141.0,125.0,200.0,200.0,125.0,3.0,3.2,-266,-285,0,0,258,276,310.24890780448914,310.2489881515503,310.2519471645355,310.26246786117554,310.40122747421265,310.40122747421265,310.40122747421265,310.40122747421265,310.40122747421265,310.40122747421265,310.40122747421265,312.62626910209656,2,2.3615903854370117,None,,,,,,,,,,,,,,,,,,109,1,2025-02-25_11h58.25.222,comp,2024.2.4,58.062535213607305,2025-02-25 11h59.40.090150 -0500,
55,55,0,filler_square,None,None,None,None,None,None,None,None,None,None,2,1.9062976837158203,None,,,,,0,0,0,0,0,55,55,183,312.6465880870819,,,,,,,,,,,,,,,,,,,,,,,,,,,,,,,,,,,,,,,,,,,,,,,,,,,,,,,,,,,,,,,,,,,,,,,,,,,,,,,,,59.88964139921464,82.62987803581954,95.65974002450919,95.65974002450919,73.90929355500008,80.92874367457168,1.0,1.2,-185,-16,0,-19,184,-13,312.6287307739258,312.6288161277771,312.6317665576935,312.6465880870819,312.78913140296936,312.78913140296936,312.78913140296936,312.78913140296936,312.78913140296936,312.78913140296936,312.78913140296936,314.5561327934265,2,1.9062976837158203,None,,,,,,,,,,,,,,,,,,109,1,2025-02-25_11h58.25.222,comp,2024.2.4,58.062535213607305,2025-02-25 11h59.40.090150 -0500,
56,56,0,critical,whd,20.0,3.0,upper,125.0,200.0,200.0,125.0,141.0,141.0,2,4.669086933135986,None,,,,,0,0,0,0,0,56,56,93,314.5711929798126,,,,,,,,,,,,,,,,,,,,,,,,,,,,,,,,,,,,,,,,,,,,,,,,,,,,,,,,,,,,,,,,,,,,,,,,,,,,,,,,,125.0,200.0,200.0,125.0,141.0,141.0,3.0,3.1,-258,269,0,-18,229,-282,314.55774688720703,314.5578279495239,314.56125664711,314.5711929798126,314.7225341796875,314.7225341796875,314.7225341796875,314.7225341796875,314.7225341796875,314.7225341796875,314.7225341796875,319.2459099292755,2,4.669086933135986,None,,,,,,,,,,,,,,,,,,109,1,2025-02-25_11h58.25.222,comp,2024.2.4,58.062535213607305,2025-02-25 11h59.40.090150 -0500,
57,57,0,critical,whd,20.0,4.0,upper,125.0,200.0,200.0,125.0,141.0,141.0,1,2.894411563873291,None,,,,,0,0,0,0,0,57,57,95,319.26567006111145,,,,,,,,,,,,,,,,,,,,,,,,,,,,,,,,,,,,,,,,,,,,,,,,,,,,,,,,,,,,,,,,,,,,,,,,,,,,,,,,,125.0,200.0,200.0,125.0,141.0,141.0,4.0,4.1,-258,-289,0,19,229,-272,319.24740982055664,319.2474915981293,319.25041151046753,319.26567006111145,319.4086067676544,319.4086067676544,319.4086067676544,319.4086067676544,319.4086067676544,319.4086067676544,319.4086067676544,322.16206216812134,1,2.894411563873291,None,,,,,,,,,,,,,,,,,,109,1,2025-02-25_11h58.25.222,comp,2024.2.4,58.062535213607305,2025-02-25 11h59.40.090150 -0500,
58,58,0,filler_square,None,None,None,None,None,None,None,None,None,None,2,3.546278476715088,None,,,,,0,0,0,0,0,58,58,180,322.18174624443054,,,,,,,,,,,,,,,,,,,,,,,,,,,,,,,,,,,,,,,,,,,,,,,,,,,,,,,,,,,,,,,,,,,,,,,,,,,,,,,,,127.97953821886992,127.97953821886992,126.49129753690227,111.38007790903578,116.83147794711863,67.3156020575235,1.0,1.2,-216,17,0,-12,185,-3,322.1642460823059,322.1643297672272,322.16762924194336,322.18174624443054,322.3255364894867,322.3255364894867,322.3255364894867,322.3255364894867,322.3255364894867,322.3255364894867,322.3255364894867,325.74236154556274,2,3.546278476715088,None,,,,,,,,,,,,,,,,,,109,1,2025-02-25_11h58.25.222,comp,2024.2.4,58.062535213607305,2025-02-25 11h59.40.090150 -0500,
59,59,0,critical,whd,20.0,2.1,lower,57.0,133.0,133.0,57.0,78.0,78.0,2,2.545708656311035,None,,,,,0,0,0,0,0,59,59,38,325.75822949409485,,,,,,,,,,,,,,,,,,,,,,,,,,,,,,,,,,,,,,,,,,,,,,,,,,,,,,,,,,,,,,,,,,,,,,,,,,,,,,,,,57.0,133.0,133.0,57.0,78.0,78.0,2.1,2.11,-191,288,0,260,164,-280,325.74391055107117,325.74398732185364,325.7469255924225,325.75822949409485,325.9102168083191,325.9102168083191,325.9102168083191,325.9102168083191,325.9102168083191,325.9102168083191,325.9102168083191,328.31709337234497,2,2.545708656311035,None,,,,,,,,,,,,,,,,,,109,1,2025-02-25_11h58.25.222,comp,2024.2.4,58.062535213607305,2025-02-25 11h59.40.090150 -0500,
60,60,0,filler_random,None,None,None,None,None,None,None,None,None,None,2,1.2224876880645752,None,,,,,0,0,0,0,0,60,60,132,328.33817172050476,,,,,,,,,,,,,,,,,,,,,,,,,,,,,,,,,,,,,,,,,,,,,,,,,,,,,,,,,,,,,,,,,,,,,,,,,,,,,,,,,90.15322143772238,70.53418589820767,183.0805226293479,183.98772880397706,114.91280246374987,189.26177219554202,1.0,1.2,-223,-14,0,-6,283,19,328.31899309158325,328.319091796875,328.3223023414612,328.33817172050476,328.4803636074066,328.4803636074066,328.4803636074066,328.4803636074066,328.4803636074066,328.4803636074066,328.4803636074066,329.57745456695557,2,1.2224876880645752,None,,,,,,,,,,,,,,,,,,109,1,2025-02-25_11h58.25.222,comp,2024.2.4,58.062535213607305,2025-02-25 11h59.40.090150 -0500,
61,61,0,filler_square,None,None,None,None,None,None,None,None,None,None,3,3.0146427154541016,None,,,,,0,0,0,0,0,61,61,179,329.593777179718,,,,,,,,,,,,,,,,,,,,,,,,,,,,,,,,,,,,,,,,,,,,,,,,,,,,,,,,,,,,,,,,,,,,,,,,,,,,,,,,,96.07767099594165,120.94095330360383,126.08542216420219,120.98353605602315,128.2415152699724,128.2415152699724,4.0,4.1,-217,-264,0,12,221,-265,329.57927775382996,329.5793571472168,329.58339047431946,329.593777179718,329.73267221450806,329.73267221450806,329.73267221450806,329.73267221450806,329.73267221450806,329.73267221450806,329.73267221450806,332.6109857559204,3,3.0146427154541016,None,,,,,,,,,,,,,,,,,,109,1,2025-02-25_11h58.25.222,comp,2024.2.4,58.062535213607305,2025-02-25 11h59.40.090150 -0500,
62,62,0,filler_random,None,None,None,None,None,None,None,None,None,None,2,4.28101372718811,None,,,,,0,0,0,0,0,62,62,167,332.6316442489624,,,,,,,,,,,,,,,,,,,,,,,,,,,,,,,,,,,,,,,,,,,,,,,,,,,,,,,,,,,,,,,,,,,,,,,,,,,,,,,,,59.350593467146055,105.19094034958616,97.76638072540875,168.15675204103601,106.76154460125655,90.5880257373477,3.0,3.1,-233,272,0,18,225,-276,332.612761259079,332.612845659256,332.61591839790344,332.6316442489624,332.77871012687683,332.77871012687683,332.77871012687683,332.77871012687683,332.77871012687683,332.77871012687683,332.77871012687683,336.9147951602936,2,4.28101372718811,None,,,,,,,,,,,,,,,,,,109,1,2025-02-25_11h58.25.222,comp,2024.2.4,58.062535213607305,2025-02-25 11h59.40.090150 -0500,
63,63,0,filler_square,None,None,None,None,None,None,None,None,None,None,1,2.340564727783203,None,,,,,0,0,0,0,0,63,63,200,336.93227767944336,,,,,,,,,,,,,,,,,,,,,,,,,,,,,,,,,,,,,,,,,,,,,,,,,,,,,,,,,,,,,,,,,,,,,,,,,,,,,,,,,181.56461732428403,181.56461732428403,107.69100993317608,147.94330189058508,109.37428720900394,163.55571638652742,3.0,3.1,-261,287,0,-18,252,-266,336.9171440601349,336.91728615760803,336.9205901622772,336.93227767944336,337.08006143569946,337.08006143569946,337.08006143569946,337.08006143569946,337.08006143569946,337.08006143569946,337.08006143569946,339.2829751968384,1,2.340564727783203,None,,,,,,,,,,,,,,,,,,109,1,2025-02-25_11h58.25.222,comp,2024.2.4,58.062535213607305,2025-02-25 11h59.40.090150 -0500,
64,64,0,critical,hwd,20.0,1.0,upper,200.0,125.0,125.0,200.0,141.0,141.0,1,4.301037788391113,None,,,,,0,0,0,0,0,64,64,103,339.29903650283813,,,,,,,,,,,,,,,,,,,,,,,,,,,,,,,,,,,,,,,,,,,,,,,,,,,,,,,,,,,,,,,,,,,,,,,,,,,,,,,,,200.0,125.0,125.0,200.0,141.0,141.0,1.0,1.1,-738,254,-480,255,-214,261,339.28459429740906,339.2846758365631,339.2880628108978,339.29903650283813,339.4519028663635,339.4519028663635,339.4519028663635,339.4519028663635,339.4519028663635,339.4519028663635,339.4519028663635,343.61484360694885,1,4.301037788391113,None,,,,,,,,,,,,,,,,,,109,1,2025-02-25_11h58.25.222,comp,2024.2.4,58.062535213607305,2025-02-25 11h59.40.090150 -0500,
65,65,0,critical,dhw,20.0,2.1,lower,78.0,78.0,133.0,57.0,57.0,133.0,2,1.8977606296539307,None,,,,,0,0,0,0,0,65,65,2,343.6304976940155,,,,,,,,,,,,,,,,,,,,,,,,,,,,,,,,,,,,,,,,,,,,,,,,,,,,,,,,,,,,,,,,,,,,,,,,,,,,,,,,,78.0,78.0,133.0,57.0,57.0,133.0,2.1,2.12,-164,-271,0,-264,191,273,343.61640644073486,343.61649680137634,343.62008142471313,343.6304976940155,343.7865619659424,343.7865619659424,343.7865619659424,343.7865619659424,343.7865619659424,343.7865619659424,343.7865619659424,345.5331184864044,2,1.8977606296539307,None,,,,,,,,,,,,,,,,,,109,1,2025-02-25_11h58.25.222,comp,2024.2.4,58.062535213607305,2025-02-25 11h59.40.090150 -0500,
66,66,0,filler_square,None,None,None,None,None,None,None,None,None,None,3,2.098032236099243,None,,,,,0,0,0,0,0,66,66,182,345.54997658729553,,,,,,,,,,,,,,,,,,,,,,,,,,,,,,,,,,,,,,,,,,,,,,,,,,,,,,,,,,,,,,,,,,,,,,,,,,,,,,,,,97.03062745186361,73.84288503501493,100.63056021556739,57.32565513579105,129.99080560942116,129.99080560942116,3.0,3.1,-162,280,0,-16,190,-259,345.535028219223,345.5351107120514,345.5392153263092,345.54997658729553,345.7047827243805,345.7047827243805,345.7047827243805,345.7047827243805,345.7047827243805,345.7047827243805,345.7047827243805,347.6502649784088,3,2.098032236099243,None,,,,,,,,,,,,,,,,,,109,1,2025-02-25_11h58.25.222,comp,2024.2.4,58.062535213607305,2025-02-25 11h59.40.090150 -0500,
67,67,0,filler_square,None,None,None,None,None,None,None,None,None,None,1,1.5333809852600098,None,,,,,0,0,0,0,0,67,67,188,347.6668338775635,,,,,,,,,,,,,,,,,,,,,,,,,,,,,,,,,,,,,,,,,,,,,,,,,,,,,,,,,,,,,,,,,,,,,,,,,,,,,,,,,162.79760429822755,162.79760429822755,120.2034048853819,127.5447143891513,79.06720706890296,115.59320986738572,3.0,3.1,-241,254,0,17,218,-287,347.652223110199,347.6523017883301,347.6559362411499,347.6668338775635,347.8196358680725,347.8196358680725,347.8196358680725,347.8196358680725,347.8196358680725,347.8196358680725,347.8196358680725,349.20297050476074,1,1.5333809852600098,None,,,,,,,,,,,,,,,,,,109,1,2025-02-25_11h58.25.222,comp,2024.2.4,58.062535213607305,2025-02-25 11h59.40.090150 -0500,
68,68,0,filler_square,None,None,None,None,None,None,None,None,None,None,1,1.4178237915039062,None,,,,,0,0,0,0,0,68,68,170,349.22219467163086,,,,,,,,,,,,,,,,,,,,,,,,,,,,,,,,,,,,,,,,,,,,,,,,,,,,,,,,,,,,,,,,,,,,,,,,,,,,,,,,,195.0776902827408,195.0776902827408,112.00165758009351,98.2138745310048,91.06804240701852,155.08886261726735,2.1,2.11,-243,265,0,260,223,-280,349.2050392627716,349.20512104034424,349.2084746360779,349.22219467163086,349.37211084365845,349.37211084365845,349.37211084365845,349.37211084365845,349.37211084365845,349.37211084365845,349.37211084365845,350.6515522003174,1,1.4178237915039062,None,,,,,,,,,,,,,,,,,,109,1,2025-02-25_11h58.25.222,comp,2024.2.4,58.062535213607305,2025-02-25 11h59.40.090150 -0500,
69,69,0,critical,hwd,20.0,2.1,lower,133.0,57.0,57.0,133.0,78.0,78.0,2,2.753913402557373,None,,,,,0,0,0,0,0,69,69,42,350.6701111793518,,,,,,,,,,,,,,,,,,,,,,,,,,,,,,,,,,,,,,,,,,,,,,,,,,,,,,,,,,,,,,,,,,,,,,,,,,,,,,,,,133.0,57.0,57.0,133.0,78.0,78.0,2.1,2.11,-191,273,0,278,202,-274,350.6530976295471,350.65317940711975,350.65611600875854,350.6701111793518,350.81842279434204,350.81842279434204,350.81842279434204,350.81842279434204,350.81842279434204,350.81842279434204,350.81842279434204,353.4357464313507,2,2.753913402557373,None,,,,,,,,,,,,,,,,,,109,1,2025-02-25_11h58.25.222,comp,2024.2.4,58.062535213607305,2025-02-25 11h59.40.090150 -0500,
70,70,0,critical,dwh,35.0,4.0,lower,70.0,70.0,57.0,133.0,133.0,57.0,3,2.139498472213745,None,,,,,0,0,0,0,0,70,70,64,353.4535768032074,,,,,,,,,,,,,,,,,,,,,,,,,,,,,,,,,,,,,,,,,,,,,,,,,,,,,,,,,,,,,,,,,,,,,,,,,,,,,,,,,70.0,70.0,57.0,133.0,133.0,57.0,4.0,4.2,-198,2,0,-252,191,7,353.4372470378876,353.43732810020447,353.4404454231262,353.4535768032074,353.60106015205383,353.60106015205383,353.60106015205383,353.60106015205383,353.60106015205383,353.60106015205383,353.60106015205383,355.5995616912842,3,2.139498472213745,None,,,,,,,,,,,,,,,,,,109,1,2025-02-25_11h58.25.222,comp,2024.2.4,58.062535213607305,2025-02-25 11h59.40.090150 -0500,
71,71,0,filler_random,None,None,None,None,None,None,None,None,None,None,2,10.480525255203247,None,,,,,0,0,0,0,0,71,71,146,355.61651372909546,,,,,,,,,,,,,,,,,,,,,,,,,,,,,,,,,,,,,,,,,,,,,,,,,,,,,,,,,,,,,,,,,,,,,,,,,,,,,,,,,68.19123361598186,172.94720447049895,96.70630549315808,144.52228353045996,192.71639624328725,187.18937048352083,2.2,2.22,-255,289,0,-261,262,-287,355.601291179657,355.6013720035553,355.6042845249176,355.61651372909546,355.765109539032,355.765109539032,355.765109539032,355.765109539032,355.765109539032,355.765109539032,355.765109539032,366.10497665405273,2,10.480525255203247,None,,,,,,,,,,,,,,,,,,109,1,2025-02-25_11h58.25.222,comp,2024.2.4,58.062535213607305,2025-02-25 11h59.40.090150 -0500,
72,72,0,filler_random,None,None,None,None,None,None,None,None,None,None,1,2.9886064529418945,None,,,,,0,0,0,0,0,72,72,137,366.12396907806396,,,,,,,,,,,,,,,,,,,,,,,,,,,,,,,,,,,,,,,,,,,,,,,,,,,,,,,,,,,,,,,,,,,,,,,,,,,,,,,,,67.09121947297336,188.0688174856189,63.21680275932314,170.12546178293982,57.176779955203955,88.67610748934263,3.0,3.2,-275,-260,0,2,225,252,366.1066155433655,366.1067216396332,366.1098692417145,366.12396907806396,366.2717480659485,366.2717480659485,366.2717480659485,366.2717480659485,366.2717480659485,366.2717480659485,366.2717480659485,369.1200613975525,1,2.9886064529418945,None,,,,,,,,,,,,,,,,,,109,1,2025-02-25_11h58.25.222,comp,2024.2.4,58.062535213607305,2025-02-25 11h59.40.090150 -0500,
73,73,0,filler_square,None,None,None,None,None,None,None,None,None,None,2,2.5081233978271484,None,,,,,0,0,0,0,0,73,73,186,369.1407160758972,,,,,,,,,,,,,,,,,,,,,,,,,,,,,,,,,,,,,,,,,,,,,,,,,,,,,,,,,,,,,,,,,,,,,,,,,,,,,,,,,65.3201897840855,86.93479685421097,171.87126062349188,171.87126062349188,59.18650480920374,108.34950244191296,2.1,2.12,-225,-287,0,-252,236,261,369.1218650341034,369.1219480037689,369.12486839294434,369.1407160758972,369.2742209434509,369.2742209434509,369.2742209434509,369.2742209434509,369.2742209434509,369.2742209434509,369.2742209434509,371.6577205657959,2,2.5081233978271484,None,,,,,,,,,,,,,,,,,,109,1,2025-02-25_11h58.25.222,comp,2024.2.4,58.062535213607305,2025-02-25 11h59.40.090150 -0500,
74,74,0,critical,dwh,20.0,2.1,upper,141.0,141.0,125.0,200.0,200.0,125.0,2,2.4626622200012207,None,,,,,0,0,0,0,0,74,74,31,371.67353916168213,,,,,,,,,,,,,,,,,,,,,,,,,,,,,,,,,,,,,,,,,,,,,,,,,,,,,,,,,,,,,,,,,,,,,,,,,,,,,,,,,141.0,141.0,125.0,200.0,200.0,125.0,2.1,2.12,-266,-289,0,-267,258,254,371.65921664237976,371.65929532051086,371.6625955104828,371.67353916168213,371.8317360877991,371.8317360877991,371.8317360877991,371.8317360877991,371.8317360877991,371.8317360877991,371.8317360877991,374.14925813674927,2,2.4626622200012207,None,,,,,,,,,,,,,,,,,,109,1,2025-02-25_11h58.25.222,comp,2024.2.4,58.062535213607305,2025-02-25 11h59.40.090150 -0500,
75,75,0,critical,hdw,20.0,2.1,lower,133.0,57.0,78.0,78.0,57.0,133.0,1,2.6019797325134277,None,,,,,0,0,0,0,0,75,75,22,374.1669042110443,,,,,,,,,,,,,,,,,,,,,,,,,,,,,,,,,,,,,,,,,,,,,,,,,,,,,,,,,,,,,,,,,,,,,,,,,,,,,,,,,133.0,57.0,78.0,78.0,57.0,133.0,2.1,2.12,-164,-285,0,-273,202,258,374.1507725715637,374.1508526802063,374.1537742614746,374.1669042110443,374.30908465385437,374.30908465385437,374.30908465385437,374.30908465385437,374.30908465385437,374.30908465385437,374.30908465385437,376.77577781677246,1,2.6019797325134277,None,,,,,,,,,,,,,,,,,,109,1,2025-02-25_11h58.25.222,comp,2024.2.4,58.062535213607305,2025-02-25 11h59.40.090150 -0500,
76,76,0,critical,hwd,35.0,2.1,upper,200.0,125.0,125.0,200.0,127.0,127.0,2,3.913306474685669,None,,,,,0,0,0,0,0,76,76,41,376.7916667461395,,,,,,,,,,,,,,,,,,,,,,,,,,,,,,,,,,,,,,,,,,,,,,,,,,,,,,,,,,,,,,,,,,,,,,,,,,,,,,,,,200.0,125.0,125.0,200.0,127.0,127.0,2.1,2.11,-258,278,0,277,260,-279,376.7773633003235,376.7774455547333,376.78088760375977,376.7916667461395,376.94225692749023,376.94225692749023,376.94225692749023,376.94225692749023,376.94225692749023,376.94225692749023,376.94225692749023,380.7108380794525,2,3.913306474685669,None,,,,,,,,,,,,,,,,,,109,1,2025-02-25_11h58.25.222,comp,2024.2.4,58.062535213607305,2025-02-25 11h59.40.090150 -0500,
77,77,0,critical,wdh,20.0,4.0,upper,125.0,200.0,141.0,141.0,200.0,125.0,2,0.2972679138183594,None,,,,,0,0,0,0,0,77,77,83,380.72684359550476,,,,,,,,,,,,,,,,,,,,,,,,,,,,,,,,,,,,,,,,,,,,,,,,,,,,,,,,,,,,,,,,,,,,,,,,,,,,,,,,,125.0,200.0,141.0,141.0,200.0,125.0,4.0,4.1,-266,-289,0,-14,229,-278,380.71234941482544,380.7124283313751,380.7159674167633,380.72684359550476,380.87477850914,380.87477850914,380.87477850914,380.87477850914,380.87477850914,380.87477850914,380.87477850914,381.0374927520752,2,0.2972679138183594,None,,,,,,,,,,,,,,,,,,109,1,2025-02-25_11h58.25.222,comp,2024.2.4,58.062535213607305,2025-02-25 11h59.40.090150 -0500,
78,78,0,filler_square,None,None,None,None,None,None,None,None,None,None,3,2.962357521057129,None,,,,,0,0,0,0,0,78,78,209,381.05378437042236,,,,,,,,,,,,,,,,,,,,,,,,,,,,,,,,,,,,,,,,,,,,,,,,,,,,,,,,,,,,,,,,,,,,,,,,,,,,,,,,,61.557480800812996,61.557480800812996,59.055920297962615,58.31764316576621,61.20161631961456,61.36937810173615,4.0,4.2,-156,-13,0,-280,156,11,381.03946352005005,381.03956747055054,381.04276967048645,381.05378437042236,381.194162607193,381.194162607193,381.194162607193,381.194162607193,381.194162607193,381.194162607193,381.194162607193,384.02853083610535,3,2.962357521057129,None,,,,,,,,,,,,,,,,,,109,1,2025-02-25_11h58.25.222,comp,2024.2.4,58.062535213607305,2025-02-25 11h59.40.090150 -0500,
79,79,0,filler_random,None,None,None,None,None,None,None,None,None,None,1,2.9715487957000732,None,,,,,0,0,0,0,0,79,79,142,384.04516434669495,,,,,,,,,,,,,,,,,,,,,,,,,,,,,,,,,,,,,,,,,,,,,,,,,,,,,,,,,,,,,,,,,,,,,,,,,,,,,,,,,178.56575601068084,177.44748287395194,135.33667725194115,115.62459447070046,149.00278364282323,72.57697949016537,3.0,3.2,-243,-252,0,-10,190,289,384.0302929878235,384.0303747653961,384.0335922241211,384.04516434669495,384.19408893585205,384.19408893585205,384.19408893585205,384.19408893585205,384.19408893585205,384.19408893585205,384.19408893585205,387.0210735797882,1,2.9715487957000732,None,,,,,,,,,,,,,,,,,,109,1,2025-02-25_11h58.25.222,comp,2024.2.4,58.062535213607305,2025-02-25 11h59.40.090150 -0500,
80,80,0,critical,hdw,35.0,3.0,lower,133.0,57.0,70.0,70.0,57.0,133.0,3,4.562651634216309,None,,,,,0,0,0,0,0,80,80,110,387.0377995967865,,,,,,,,,,,,,,,,,,,,,,,,,,,,,,,,,,,,,,,,,,,,,,,,,,,,,,,,,,,,,,,,,,,,,,,,,,,,,,,,,133.0,57.0,70.0,70.0,57.0,133.0,3.0,3.1,-160,261,0,2,198,-287,387.0226159095764,387.02272367477417,387.02603459358215,387.0377995967865,387.1801121234894,387.1801121234894,387.1801121234894,387.1801121234894,387.1801121234894,387.1801121234894,387.1801121234894,391.6031789779663,3,4.562651634216309,None,,,,,,,,,,,,,,,,,,109,1,2025-02-25_11h58.25.222,comp,2024.2.4,58.062535213607305,2025-02-25 11h59.40.090150 -0500,
81,81,0,filler_square,None,None,None,None,None,None,None,None,None,None,2,1.9621546268463135,None,,,,,0,0,0,0,0,81,81,197,391.621976852417,,,,,,,,,,,,,,,,,,,,,,,,,,,,,,,,,,,,,,,,,,,,,,,,,,,,,,,,,,,,,,,,,,,,,,,,,,,,,,,,,87.26360503693982,70.20684882589083,97.07327343544675,97.07327343544675,62.35953168496064,60.493616515545924,4.0,4.2,-180,-10,0,-286,175,-1,391.6049711704254,391.6050534248352,391.6079354286194,391.621976852417,391.76178193092346,391.76178193092346,391.76178193092346,391.76178193092346,391.76178193092346,391.76178193092346,391.76178193092346,393.5972557067871,2,1.9621546268463135,None,,,,,,,,,,,,,,,,,,109,1,2025-02-25_11h58.25.222,comp,2024.2.4,58.062535213607305,2025-02-25 11h59.40.090150 -0500,
82,82,0,critical,hdw,35.0,3.0,upper,200.0,125.0,127.0,127.0,125.0,200.0,1,5.220436334609985,None,,,,,0,0,0,0,0,82,82,111,393.61254024505615,,,,,,,,,,,,,,,,,,,,,,,,,,,,,,,,,,,,,,,,,,,,,,,,,,,,,,,,,,,,,,,,,,,,,,,,,,,,,,,,,200.0,125.0,127.0,127.0,125.0,200.0,3.0,3.1,-222,273,0,4,260,-276,393.5987026691437,393.59878182411194,393.60173082351685,393.61254024505615,393.7675759792328,393.7675759792328,393.7675759792328,393.7675759792328,393.7675759792328,393.7675759792328,393.7675759792328,398.8354723453522,1,5.220436334609985,None,,,,,,,,,,,,,,,,,,109,1,2025-02-25_11h58.25.222,comp,2024.2.4,58.062535213607305,2025-02-25 11h59.40.090150 -0500,
83,83,0,catch,None,None,None,None,None,None,None,None,None,None,1,1.3392956256866455,None,,,,,0,0,0,0,0,83,83,125,398.85277009010315,,,,,,,,,,,,,,,,,,,,,,,,,,,,,,,,,,,,,,,,,,,,,,,,,,,,,,,,,,,,,,,,,,,,,,,,,,,,,,,,,166,159,88,102,133,57,2.2,2.22,-226,256,0,-283,176,-254,398.83755230903625,398.8376622200012,398.8410334587097,398.85277009010315,399.0066628456116,399.0066628456116,399.0066628456116,399.0066628456116,399.0066628456116,399.0066628456116,399.0066628456116,400.2065842151642,1,1.3392956256866455,None,,,,,,,,,,,,,,,,,,109,1,2025-02-25_11h58.25.222,comp,2024.2.4,58.062535213607305,2025-02-25 11h59.40.090150 -0500,
84,84,0,filler_square,None,None,None,None,None,None,None,None,None,None,2,3.066744089126587,None,,,,,0,0,0,0,0,84,84,202,400.222384929657,,,,,,,,,,,,,,,,,,,,,,,,,,,,,,,,,,,,,,,,,,,,,,,,,,,,,,,,,,,,,,,,,,,,,,,,,,,,,,,,,125.47169130085238,137.03509870552605,152.02141572710542,140.57690289973,154.1590675656941,154.1590675656941,1.0,1.3,245,-271,480,-254,723,-257,400.2086338996887,400.2087457180023,400.2120156288147,400.222384929657,400.36551237106323,400.36551237106323,400.36551237106323,400.36551237106323,400.36551237106323,400.36551237106323,400.36551237106323,403.301784992218,2,3.066744089126587,None,,,,,,,,,,,,,,,,,,109,1,2025-02-25_11h58.25.222,comp,2024.2.4,58.062535213607305,2025-02-25 11h59.40.090150 -0500,
85,85,0,filler_random,None,None,None,None,None,None,None,None,None,None,3,5.330475091934204,None,,,,,0,0,0,0,0,85,85,153,403.3180675506592,,,,,,,,,,,,,,,,,,,,,,,,,,,,,,,,,,,,,,,,,,,,,,,,,,,,,,,,,,,,,,,,,,,,,,,,,,,,,,,,,152.26061963329414,112.79823731393247,133.43388976446303,124.05893525102522,77.60716448288791,190.9579295471827,1.0,1.3,266,-289,480,-288,734,-274,403.3034975528717,403.30359721183777,403.3069064617157,403.3180675506592,403.4654874801636,403.4654874801636,403.4654874801636,403.4654874801636,403.4654874801636,403.4654874801636,403.4654874801636,408.6552155017853,3,5.330475091934204,None,,,,,,,,,,,,,,,,,,109,1,2025-02-25_11h58.25.222,comp,2024.2.4,58.062535213607305,2025-02-25 11h59.40.090150 -0500,
86,86,0,critical,whd,35.0,2.1,lower,57.0,133.0,133.0,57.0,70.0,70.0,2,7.094606876373291,None,,,,,0,0,0,0,0,86,86,36,408.67430567741394,,,,,,,,,,,,,,,,,,,,,,,,,,,,,,,,,,,,,,,,,,,,,,,,,,,,,,,,,,,,,,,,,,,,,,,,,,,,,,,,,57.0,133.0,133.0,57.0,70.0,70.0,2.1,2.12,-191,-274,0,-287,160,286,408.6568853855133,408.6570198535919,408.6603739261627,408.67430567741394,408.8194754123688,408.8194754123688,408.8194754123688,408.8194754123688,408.8194754123688,408.8194754123688,408.8194754123688,415.771671295166,2,7.094606876373291,None,,,,,,,,,,,,,,,,,,109,1,2025-02-25_11h58.25.222,comp,2024.2.4,58.062535213607305,2025-02-25 11h59.40.090150 -0500,
87,87,0,critical,dhw,20.0,1.0,upper,141.0,141.0,200.0,125.0,125.0,200.0,3,2.852154493331909,None,,,,,0,0,0,0,0,87,87,55,415.78863525390625,,,,,,,,,,,,,,,,,,,,,,,,,,,,,,,,,,,,,,,,,,,,,,,,,,,,,,,,,,,,,,,,,,,,,,,,,,,,,,,,,141.0,141.0,200.0,125.0,125.0,200.0,1.0,1.3,251,-284,480,-279,738,-282,415.77325963974,415.7733380794525,415.7769179344177,415.78863525390625,415.93860483169556,415.93860483169556,415.93860483169556,415.93860483169556,415.93860483169556,415.93860483169556,415.93860483169556,418.64325308799744,3,2.852154493331909,None,,,,,,,,,,,,,,,,,,109,1,2025-02-25_11h58.25.222,comp,2024.2.4,58.062535213607305,2025-02-25 11h59.40.090150 -0500,
88,88,0,critical,hdw,35.0,2.1,upper,200.0,125.0,127.0,127.0,125.0,200.0,1,2.3646323680877686,None,,,,,0,0,0,0,0,88,88,45,418.65955877304077,,,,,,,,,,,,,,,,,,,,,,,,,,,,,,,,,,,,,,,,,,,,,,,,,,,,,,,,,,,,,,,,,,,,,,,,,,,,,,,,,200.0,125.0,127.0,127.0,125.0,200.0,2.1,2.12,-222,-254,0,-272,260,266,418.64481377601624,418.64492177963257,418.6487946510315,418.65955877304077,418.80591893196106,418.80591893196106,418.80591893196106,418.80591893196106,418.80591893196106,418.80591893196106,418.80591893196106,421.03950691223145,1,2.3646323680877686,None,,,,,,,,,,,,,,,,,,109,1,2025-02-25_11h58.25.222,comp,2024.2.4,58.062535213607305,2025-02-25 11h59.40.090150 -0500,
89,89,0,critical,dwh,20.0,2.1,upper,141.0,141.0,125.0,200.0,200.0,125.0,2,2.5136706829071045,None,,,,,0,0,0,0,0,89,89,7,421.0550410747528,,,,,,,,,,,,,,,,,,,,,,,,,,,,,,,,,,,,,,,,,,,,,,,,,,,,,,,,,,,,,,,,,,,,,,,,,,,,,,,,,141.0,141.0,125.0,200.0,200.0,125.0,2.1,2.11,-266,273,0,270,258,-262,421.0411229133606,421.04120206832886,421.04460310935974,421.0550410747528,421.20548272132874,421.20548272132874,421.20548272132874,421.20548272132874,421.20548272132874,421.20548272132874,421.20548272132874,423.5708181858063,2,2.5136706829071045,None,,,,,,,,,,,,,,,,,,109,1,2025-02-25_11h58.25.222,comp,2024.2.4,58.062535213607305,2025-02-25 11h59.40.090150 -0500,
90,90,0,critical,hwd,35.0,2.1,upper,200.0,125.0,125.0,200.0,127.0,127.0,2,3.7690749168395996,None,,,,,0,0,0,0,0,90,90,17,423.5910677909851,,,,,,,,,,,,,,,,,,,,,,,,,,,,,,,,,,,,,,,,,,,,,,,,,,,,,,,,,,,,,,,,,,,,,,,,,,,,,,,,,200.0,125.0,125.0,200.0,127.0,127.0,2.1,2.12,-258,-283,0,-253,260,276,423.5724265575409,423.57254672050476,423.57585978507996,423.5910677909851,423.72438192367554,423.72438192367554,423.72438192367554,423.72438192367554,423.72438192367554,423.72438192367554,423.72438192367554,427.3765082359314,2,3.7690749168395996,None,,,,,,,,,,,,,,,,,,109,1,2025-02-25_11h58.25.222,comp,2024.2.4,58.062535213607305,2025-02-25 11h59.40.090150 -0500,
91,91,0,critical,dwh,20.0,4.0,lower,78.0,78.0,57.0,133.0,133.0,57.0,2,2.312633752822876,None,,,,,0,0,0,0,0,91,91,70,427.3918809890747,,,,,,,,,,,,,,,,,,,,,,,,,,,,,,,,,,,,,,,,,,,,,,,,,,,,,,,,,,,,,,,,,,,,,,,,,,,,,,,,,78.0,78.0,57.0,133.0,133.0,57.0,4.0,4.2,-202,-3,0,-278,191,-15,427.378103017807,427.3781793117523,427.3815004825592,427.3918809890747,427.5417959690094,427.5417959690094,427.5417959690094,427.5417959690094,427.5417959690094,427.5417959690094,427.5417959690094,429.70917201042175,2,2.312633752822876,None,,,,,,,,,,,,,,,,,,109,1,2025-02-25_11h58.25.222,comp,2024.2.4,58.062535213607305,2025-02-25 11h59.40.090150 -0500,
92,92,0,critical,whd,20.0,3.0,lower,57.0,133.0,133.0,57.0,78.0,78.0,2,2.467015266418457,None,,,,,0,0,0,0,0,92,92,92,429.7254502773285,,,,,,,,,,,,,,,,,,,,,,,,,,,,,,,,,,,,,,,,,,,,,,,,,,,,,,,,,,,,,,,,,,,,,,,,,,,,,,,,,57.0,133.0,133.0,57.0,78.0,78.0,3.0,3.1,-191,251,0,-8,164,-266,429.7106397151947,429.7107391357422,429.71470403671265,429.7254502773285,429.872585773468,429.872585773468,429.872585773468,429.872585773468,429.872585773468,429.872585773468,429.872585773468,432.19828367233276,2,2.467015266418457,None,,,,,,,,,,,,,,,,,,109,1,2025-02-25_11h58.25.222,comp,2024.2.4,58.062535213607305,2025-02-25 11h59.40.090150 -0500,
93,93,0,critical,hdw,20.0,4.0,lower,133.0,57.0,78.0,78.0,57.0,133.0,1,3.045072555541992,None,,,,,0,0,0,0,0,93,93,118,432.2191789150238,,,,,,,,,,,,,,,,,,,,,,,,,,,,,,,,,,,,,,,,,,,,,,,,,,,,,,,,,,,,,,,,,,,,,,,,,,,,,,,,,133.0,57.0,78.0,78.0,57.0,133.0,4.0,4.2,-164,0,0,-267,202,-1,432.19993448257446,432.2000136375427,432.2032992839813,432.2191789150238,432.3627140522003,432.3627140522003,432.3627140522003,432.3627140522003,432.3627140522003,432.3627140522003,432.3627140522003,435.2797133922577,1,3.045072555541992,None,,,,,,,,,,,,,,,,,,109,1,2025-02-25_11h58.25.222,comp,2024.2.4,58.062535213607305,2025-02-25 11h59.40.090150 -0500,
94,94,0,critical,wdh,35.0,3.0,upper,125.0,200.0,127.0,127.0,200.0,125.0,3,5.041049003601074,None,,,,,0,0,0,0,0,94,94,75,435.2953345775604,,,,,,,,,,,,,,,,,,,,,,,,,,,,,,,,,,,,,,,,,,,,,,,,,,,,,,,,,,,,,,,,,,,,,,,,,,,,,,,,,125.0,200.0,127.0,127.0,200.0,125.0,3.0,3.2,-260,-252,0,-8,222,282,435.2813413143158,435.2814567089081,435.284921169281,435.2953345775604,435.4484577178955,435.4484577178955,435.4484577178955,435.4484577178955,435.4484577178955,435.4484577178955,435.4484577178955,440.3579878807068,3,5.041049003601074,None,,,,,,,,,,,,,,,,,,109,1,2025-02-25_11h58.25.222,comp,2024.2.4,58.062535213607305,2025-02-25 11h59.40.090150 -0500,
95,95,0,filler_random,None,None,None,None,None,None,None,None,None,None,1,2.526576280593872,None,,,,,0,0,0,0,0,95,95,168,440.37793135643005,,,,,,,,,,,,,,,,,,,,,,,,,,,,,,,,,,,,,,,,,,,,,,,,,,,,,,,,,,,,,,,,,,,,,,,,,,,,,,,,,170.00728781011668,178.25789332351277,71.21402328683443,169.6384772363307,140.14446633632735,81.09976514856379,2.1,2.11,-270,262,0,258,221,-286,440.35967230796814,440.3597767353058,440.36262249946594,440.37793135643005,440.52055644989014,440.52055644989014,440.52055644989014,440.52055644989014,440.52055644989014,440.52055644989014,440.52055644989014,442.92003989219666,1,2.526576280593872,None,,,,,,,,,,,,,,,,,,109,1,2025-02-25_11h58.25.222,comp,2024.2.4,58.062535213607305,2025-02-25 11h59.40.090150 -0500,
96,96,0,critical,dhw,35.0,3.0,upper,127.0,127.0,200.0,125.0,125.0,200.0,2,2.239412307739258,None,,,,,0,0,0,0,0,96,96,51,442.9371521472931,,,,,,,,,,,,,,,,,,,,,,,,,,,,,,,,,,,,,,,,,,,,,,,,,,,,,,,,,,,,,,,,,,,,,,,,,,,,,,,,,127.0,127.0,200.0,125.0,125.0,200.0,3.0,3.1,-222,287,0,-1,258,-257,442.9215452671051,442.92162346839905,442.9245002269745,442.9371521472931,443.08083271980286,443.08083271980286,443.08083271980286,443.08083271980286,443.08083271980286,443.08083271980286,443.08083271980286,445.17966055870056,2,2.239412307739258,None,,,,,,,,,,,,,,,,,,109,1,2025-02-25_11h58.25.222,comp,2024.2.4,58.062535213607305,2025-02-25 11h59.40.090150 -0500,
97,97,0,filler_square,None,None,None,None,None,None,None,None,None,None,3,2.9161529541015625,None,,,,,0,0,0,0,0,97,97,178,445.19600009918213,,,,,,,,,,,,,,,,,,,,,,,,,,,,,,,,,,,,,,,,,,,,,,,,,,,,,,,,,,,,,,,,,,,,,,,,,,,,,,,,,150.45487559727087,151.78162576247917,126.78975085808871,72.92136103167971,165.2734310436578,165.2734310436578,1.0,1.2,-208,11,0,18,215,-14,445.18153643608093,445.1816682815552,445.18487429618835,445.19600009918213,445.3486490249634,445.3486490249634,445.3486490249634,445.3486490249634,445.3486490249634,445.3486490249634,445.3486490249634,448.12634086608887,3,2.9161529541015625,None,,,,,,,,,,,,,,,,,,109,1,2025-02-25_11h58.25.222,comp,2024.2.4,58.062535213607305,2025-02-25 11h59.40.090150 -0500,
98,98,0,filler_square,None,None,None,None,None,None,None,None,None,None,3,3.4140353202819824,None,,,,,0,0,0,0,0,98,98,172,448.14692282676697,,,,,,,,,,,,,,,,,,,,,,,,,,,,,,,,,,,,,,,,,,,,,,,,,,,,,,,,,,,,,,,,,,,,,,,,,,,,,,,,,66.25464112123592,69.37332493551544,132.58979503379402,171.1534110417711,174.9719516823903,174.9719516823903,2.2,2.22,-216,250,0,-251,269,-282,448.1281716823578,448.12824988365173,448.1311447620392,448.14692282676697,448.2822301387787,448.2822301387787,448.2822301387787,448.2822301387787,448.2822301387787,448.2822301387787,448.2822301387787,451.5658724308014,3,3.4140353202819824,None,,,,,,,,,,,,,,,,,,109,1,2025-02-25_11h58.25.222,comp,2024.2.4,58.062535213607305,2025-02-25 11h59.40.090150 -0500,
99,99,0,filler_random,None,None,None,None,None,None,None,None,None,None,1,4.479174852371216,None,,,,,0,0,0,0,0,99,99,169,451.5849940776825,,,,,,,,,,,,,,,,,,,,,,,,,,,,,,,,,,,,,,,,,,,,,,,,,,,,,,,,,,,,,,,,,,,,,,,,,,,,,,,,,110.93221991815469,149.911408093133,103.11732264648907,112.97670194537662,115.90980444408558,80.18448993924108,2.1,2.12,-227,-278,0,-262,193,266,451.56785678863525,451.5679500102997,451.57330870628357,451.5849940776825,451.73382115364075,451.73382115364075,451.73382115364075,451.73382115364075,451.73382115364075,451.73382115364075,451.73382115364075,456.07488679885864,1,4.479174852371216,None,,,,,,,,,,,,,,,,,,109,1,2025-02-25_11h58.25.222,comp,2024.2.4,58.062535213607305,2025-02-25 11h59.40.090150 -0500,
100,100,0,filler_square,None,None,None,None,None,None,None,None,None,None,2,3.491258382797241,None,,,,,0,0,0,0,0,100,100,195,456.0934739112854,,,,,,,,,,,,,,,,,,,,,,,,,,,,,,,,,,,,,,,,,,,,,,,,,,,,,,,,,,,,,,,,,,,,,,,,,,,,,,,,,60.955839144258945,84.1555904687282,86.35953331476043,86.35953331476043,68.06368553799587,63.903817326751195,2.2,2.22,-181,265,0,-262,171,-288,456.076847076416,456.0769307613373,456.0801901817322,456.0934739112854,456.2346749305725,456.2346749305725,456.2346749305725,456.2346749305725,456.2346749305725,456.2346749305725,456.2346749305725,459.6027045249939,2,3.491258382797241,None,,,,,,,,,,,,,,,,,,109,1,2025-02-25_11h58.25.222,comp,2024.2.4,58.062535213607305,2025-02-25 11h59.40.090150 -0500,
101,101,0,critical,hwd,35.0,2.1,lower,133.0,57.0,57.0,133.0,70.0,70.0,2,1.9660332202911377,None,,,,,0,0,0,0,0,101,101,40,459.61825728416443,,,,,,,,,,,,,,,,,,,,,,,,,,,,,,,,,,,,,,,,,,,,,,,,,,,,,,,,,,,,,,,,,,,,,,,,,,,,,,,,,133.0,57.0,57.0,133.0,70.0,70.0,2.1,2.11,-191,271,0,275,198,-280,459.6041646003723,459.604238986969,459.6073782444,459.61825728416443,459.7647821903229,459.7647821903229,459.7647821903229,459.7647821903229,459.7647821903229,459.7647821903229,459.7647821903229,461.60162138938904,2,1.9660332202911377,None,,,,,,,,,,,,,,,,,,109,1,2025-02-25_11h58.25.222,comp,2024.2.4,58.062535213607305,2025-02-25 11h59.40.090150 -0500,
102,102,0,critical,hwd,20.0,2.1,upper,200.0,125.0,125.0,200.0,141.0,141.0,2,2.751302480697632,None,,,,,0,0,0,0,0,102,102,43,461.61748814582825,,,,,,,,,,,,,,,,,,,,,,,,,,,,,,,,,,,,,,,,,,,,,,,,,,,,,,,,,,,,,,,,,,,,,,,,,,,,,,,,,200.0,125.0,125.0,200.0,141.0,141.0,2.1,2.12,-258,-275,0,-285,266,286,461.6031422615051,461.6032204627991,461.606258392334,461.61748814582825,461.76743030548096,461.76743030548096,461.76743030548096,461.76743030548096,461.76743030548096,461.76743030548096,461.76743030548096,464.371365070343,2,2.751302480697632,None,,,,,,,,,,,,,,,,,,109,1,2025-02-25_11h58.25.222,comp,2024.2.4,58.062535213607305,2025-02-25 11h59.40.090150 -0500,
103,103,0,critical,hwd,20.0,2.1,upper,200.0,125.0,125.0,200.0,141.0,141.0,2,2.716933250427246,None,,,,,0,0,0,0,0,103,103,19,464.3876156806946,,,,,,,,,,,,,,,,,,,,,,,,,,,,,,,,,,,,,,,,,,,,,,,,,,,,,,,,,,,,,,,,,,,,,,,,,,,,,,,,,200.0,125.0,125.0,200.0,141.0,141.0,2.1,2.12,-258,-251,0,-273,266,265,464.3729820251465,464.3731083869934,464.3768491744995,464.3876156806946,464.53481101989746,464.53481101989746,464.53481101989746,464.53481101989746,464.53481101989746,464.53481101989746,464.53481101989746,467.1080515384674,2,2.716933250427246,None,,,,,,,,,,,,,,,,,,109,1,2025-02-25_11h58.25.222,comp,2024.2.4,58.062535213607305,2025-02-25 11h59.40.090150 -0500,
104,104,0,catch,None,None,None,None,None,None,None,None,None,None,2,1.4875884056091309,None,,,,,0,0,0,0,0,104,104,120,467.1291286945343,,,,,,,,,,,,,,,,,,,,,,,,,,,,,,,,,,,,,,,,,,,,,,,,,,,,,,,,,,,,,,,,,,,,,,,,,,,,,,,,,68,122,146,179,82,108,4.0,4.2,-246,-2,0,-271,240,-15,467.11018443107605,467.1102845668793,467.1133909225464,467.1291286945343,467.2722852230072,467.2722852230072,467.2722852230072,467.2722852230072,467.2722852230072,467.2722852230072,467.2722852230072,468.62149453163147,2,1.4875884056091309,None,,,,,,,,,,,,,,,,,,109,1,2025-02-25_11h58.25.222,comp,2024.2.4,58.062535213607305,2025-02-25 11h59.40.090150 -0500,
105,105,0,critical,whd,35.0,2.1,upper,125.0,200.0,200.0,125.0,127.0,127.0,1,2.0908420085906982,None,,,,,0,0,0,0,0,105,105,13,468.6379861831665,,,,,,,,,,,,,,,,,,,,,,,,,,,,,,,,,,,,,,,,,,,,,,,,,,,,,,,,,,,,,,,,,,,,,,,,,,,,,,,,,125.0,200.0,200.0,125.0,127.0,127.0,2.1,2.11,-258,279,0,264,222,-282,468.6229314804077,468.6230092048645,468.6270775794983,468.6379861831665,468.7868766784668,468.7868766784668,468.7868766784668,468.7868766784668,468.7868766784668,468.7868766784668,468.7868766784668,470.7389168739319,1,2.0908420085906982,None,,,,,,,,,,,,,,,,,,109,1,2025-02-25_11h58.25.222,comp,2024.2.4,58.062535213607305,2025-02-25 11h59.40.090150 -0500,
106,106,0,filler_random,None,None,None,None,None,None,None,None,None,None,2,1.4205420017242432,None,,,,,0,0,0,0,0,106,106,159,470.7556092739105,,,,,,,,,,,,,,,,,,,,,,,,,,,,,,,,,,,,,,,,,,,,,,,,,,,,,,,,,,,,,,,,,,,,,,,,,,,,,,,,,110.16302885183688,185.27326040059967,151.8062782974148,189.32023224771478,98.46843881677447,111.29996309706438,2.2,2.21,-283,-252,0,263,246,253,470.7406256198883,470.7407510280609,470.74480628967285,470.7556092739105,470.90308237075806,470.90308237075806,470.90308237075806,470.90308237075806,470.90308237075806,470.90308237075806,470.90308237075806,472.19398736953735,2,1.4205420017242432,None,,,,,,,,,,,,,,,,,,109,1,2025-02-25_11h58.25.222,comp,2024.2.4,58.062535213607305,2025-02-25 11h59.40.090150 -0500,
107,107,0,critical,dwh,35.0,1.0,lower,70.0,70.0,57.0,133.0,133.0,57.0,3,2.3259122371673584,None,,,,,0,0,0,0,0,107,107,60,472.21036553382874,,,,,,,,,,,,,,,,,,,,,,,,,,,,,,,,,,,,,,,,,,,,,,,,,,,,,,,,,,,,,,,,,,,,,,,,,,,,,,,,,70.0,70.0,57.0,133.0,133.0,57.0,1.0,1.1,-678,283,-480,289,-289,271,472.19546937942505,472.1955454349518,472.19939279556274,472.21036553382874,472.35456705093384,472.35456705093384,472.35456705093384,472.35456705093384,472.35456705093384,472.35456705093384,472.35456705093384,474.53994822502136,3,2.3259122371673584,None,,,,,,,,,,,,,,,,,,109,1,2025-02-25_11h58.25.222,comp,2024.2.4,58.062535213607305,2025-02-25 11h59.40.090150 -0500,
108,108,0,filler_square,None,None,None,None,None,None,None,None,None,None,2,1.3391714096069336,None,,,,,0,0,0,0,0,108,108,198,474.55712056159973,,,,,,,,,,,,,,,,,,,,,,,,,,,,,,,,,,,,,,,,,,,,,,,,,,,,,,,,,,,,,,,,,,,,,,,,,,,,,,,,,95.14814280845405,91.20710980971347,127.85836003265733,127.85836003265733,64.12032025337186,94.44933221640417,3.0,3.1,-206,272,0,-1,207,-265,474.54188799858093,474.5419719219208,474.54542303085327,474.55712056159973,474.7057943344116,474.7057943344116,474.7057943344116,474.7057943344116,474.7057943344116,474.7057943344116,474.7057943344116,475.90780782699585,2,1.3391714096069336,None,,,,,,,,,,,,,,,,,,109,1,2025-02-25_11h58.25.222,comp,2024.2.4,58.062535213607305,2025-02-25 11h59.40.090150 -0500,
109,109,0,filler_square,None,None,None,None,None,None,None,None,None,None,2,0.820575475692749,None,,,,,0,0,0,0,0,109,109,173,475.92348551750183,,,,,,,,,,,,,,,,,,,,,,,,,,,,,,,,,,,,,,,,,,,,,,,,,,,,,,,,,,,,,,,,,,,,,,,,,,,,,,,,,149.72404915553292,69.06095919407637,156.87408758338827,156.87408758338827,146.8998033662319,86.98387588836661,4.0,4.1,-209,-283,0,-11,218,-266,475.9096043109894,475.9097282886505,475.9131600856781,475.92348551750183,476.0763158798218,476.0763158798218,476.0763158798218,476.0763158798218,476.0763158798218,476.0763158798218,476.0763158798218,476.75662446022034,2,0.820575475692749,None,,,,,,,,,,,,,,,,,,109,1,2025-02-25_11h58.25.222,comp,2024.2.4,58.062535213607305,2025-02-25 11h59.40.090150 -0500,
110,110,0,critical,wdh,35.0,3.0,lower,57.0,133.0,70.0,70.0,133.0,57.0,3,2.7083537578582764,None,,,,,0,0,0,0,0,110,110,74,476.7728068828583,,,,,,,,,,,,,,,,,,,,,,,,,,,,,,,,,,,,,,,,,,,,,,,,,,,,,,,,,,,,,,,,,,,,,,,,,,,,,,,,,57.0,133.0,70.0,70.0,133.0,57.0,3.0,3.1,-198,277,0,-5,160,-288,476.7582046985626,476.7582848072052,476.7614061832428,476.7728068828583,476.92378187179565,476.92378187179565,476.92378187179565,476.92378187179565,476.92378187179565,476.92378187179565,476.92378187179565,479.49158811569214,3,2.7083537578582764,None,,,,,,,,,,,,,,,,,,109,1,2025-02-25_11h58.25.222,comp,2024.2.4,58.062535213607305,2025-02-25 11h59.40.090150 -0500,
111,111,0,filler_random,None,None,None,None,None,None,None,None,None,None,3,1.7324507236480713,None,,,,,0,0,0,0,0,111,111,158,479.50784158706665,,,,,,,,,,,,,,,,,,,,,,,,,,,,,,,,,,,,,,,,,,,,,,,,,,,,,,,,,,,,,,,,,,,,,,,,,,,,,,,,,137.89201508270173,62.35360995461275,70.60013997755188,84.16579573842245,101.2439073015108,93.88824379688253,2.2,2.22,-169,256,0,-272,185,-272,479.4934208393097,479.4935026168823,479.4970283508301,479.50784158706665,479.65627551078796,479.65627551078796,479.65627551078796,479.65627551078796,479.65627551078796,479.65627551078796,479.65627551078796,481.2569136619568,3,1.7324507236480713,None,,,,,,,,,,,,,,,,,,109,1,2025-02-25_11h58.25.222,comp,2024.2.4,58.062535213607305,2025-02-25 11h59.40.090150 -0500,
112,112,0,critical,hwd,20.0,3.0,upper,200.0,125.0,125.0,200.0,141.0,141.0,2,2.4090805053710938,None,,,,,0,0,0,0,0,112,112,105,481.27284145355225,,,,,,,,,,,,,,,,,,,,,,,,,,,,,,,,,,,,,,,,,,,,,,,,,,,,,,,,,,,,,,,,,,,,,,,,,,,,,,,,,200.0,125.0,125.0,200.0,141.0,141.0,3.0,3.2,-258,-290,0,-17,266,251,481.25845885276794,481.25853872299194,481.26159167289734,481.27284145355225,481.41309881210327,481.41309881210327,481.41309881210327,481.41309881210327,481.41309881210327,481.41309881210327,481.41309881210327,483.7008194923401,2,2.4090805053710938,None,,,,,,,,,,,,,,,,,,109,1,2025-02-25_11h58.25.222,comp,2024.2.4,58.062535213607305,2025-02-25 11h59.40.090150 -0500,
113,113,0,critical,wdh,20.0,2.1,lower,57.0,133.0,78.0,78.0,133.0,57.0,3,2.698775053024292,None,,,,,0,0,0,0,0,113,113,10,483.71804690361023,,,,,,,,,,,,,,,,,,,,,,,,,,,,,,,,,,,,,,,,,,,,,,,,,,,,,,,,,,,,,,,,,,,,,,,,,,,,,,,,,57.0,133.0,78.0,78.0,133.0,57.0,2.1,2.11,-202,262,0,264,164,-275,483.7023220062256,483.70240473747253,483.70529770851135,483.71804690361023,483.8591513633728,483.8591513633728,483.8591513633728,483.8591513633728,483.8591513633728,483.8591513633728,483.8591513633728,486.4270360469818,3,2.698775053024292,None,,,,,,,,,,,,,,,,,,109,1,2025-02-25_11h58.25.222,comp,2024.2.4,58.062535213607305,2025-02-25 11h59.40.090150 -0500,
114,114,0,filler_random,None,None,None,None,None,None,None,None,None,None,2,1.0291128158569336,None,,,,,0,0,0,0,0,114,114,150,486.4436273574829,,,,,,,,,,,,,,,,,,,,,,,,,,,,,,,,,,,,,,,,,,,,,,,,,,,,,,,,,,,,,,,,,,,,,,,,,,,,,,,,,135.10491883862207,70.97174752709948,192.66486515997926,150.21387867844808,110.00675248996168,68.02440410449289,3.0,3.1,-207,271,0,20,205,-265,486.4286787509918,486.428804397583,486.4328634738922,486.4436273574829,486.59184193611145,486.59184193611145,486.59184193611145,486.59184193611145,486.59184193611145,486.59184193611145,486.59184193611145,487.4746460914612,2,1.0291128158569336,None,,,,,,,,,,,,,,,,,,109,1,2025-02-25_11h58.25.222,comp,2024.2.4,58.062535213607305,2025-02-25 11h59.40.090150 -0500,
115,115,0,filler_square,None,None,None,None,None,None,None,None,None,None,1,2.2539751529693604,None,,,,,0,0,0,0,0,115,115,203,487.49102449417114,,,,,,,,,,,,,,,,,,,,,,,,,,,,,,,,,,,,,,,,,,,,,,,,,,,,,,,,,,,,,,,,,,,,,,,,,,,,,,,,,148.09111354672478,148.09111354672478,134.21728257430829,125.91562678480868,57.520809702819925,84.02047334043598,3.0,3.2,-233,-261,0,0,201,259,487.47641801834106,487.4764938354492,487.47933292388916,487.49102449417114,487.6288502216339,487.6288502216339,487.6288502216339,487.6288502216339,487.6288502216339,487.6288502216339,487.6288502216339,489.75060629844666,1,2.2539751529693604,None,,,,,,,,,,,,,,,,,,109,1,2025-02-25_11h58.25.222,comp,2024.2.4,58.062535213607305,2025-02-25 11h59.40.090150 -0500,
116,116,0,critical,hdw,20.0,3.0,lower,133.0,57.0,78.0,78.0,57.0,133.0,3,2.555006980895996,None,,,,,0,0,0,0,0,116,116,116,489.76595401763916,,,,,,,,,,,,,,,,,,,,,,,,,,,,,,,,,,,,,,,,,,,,,,,,,,,,,,,,,,,,,,,,,,,,,,,,,,,,,,,,,133.0,57.0,78.0,78.0,57.0,133.0,3.0,3.2,-164,-253,0,-15,202,273,489.75213837623596,489.7522189617157,489.7551579475403,489.76595401763916,489.9127836227417,489.9127836227417,489.9127836227417,489.9127836227417,489.9127836227417,489.9127836227417,489.9127836227417,492.32874584198,3,2.555006980895996,None,,,,,,,,,,,,,,,,,,109,1,2025-02-25_11h58.25.222,comp,2024.2.4,58.062535213607305,2025-02-25 11h59.40.090150 -0500,
117,117,0,critical,wdh,35.0,4.0,upper,125.0,200.0,127.0,127.0,200.0,125.0,1,1.1347792148590088,None,,,,,0,0,0,0,0,117,117,77,492.34566617012024,,,,,,,,,,,,,,,,,,,,,,,,,,,,,,,,,,,,,,,,,,,,,,,,,,,,,,,,,,,,,,,,,,,,,,,,,,,,,,,,,125.0,200.0,127.0,127.0,200.0,125.0,4.0,4.1,-260,-264,0,-4,222,-288,492.3303368091583,492.3304193019867,492.3344521522522,492.34566617012024,492.4936225414276,492.4936225414276,492.4936225414276,492.4936225414276,492.4936225414276,492.4936225414276,492.4936225414276,493.49777936935425,1,1.1347792148590088,None,,,,,,,,,,,,,,,,,,109,1,2025-02-25_11h58.25.222,comp,2024.2.4,58.062535213607305,2025-02-25 11h59.40.090150 -0500,
118,118,0,catch,None,None,None,None,None,None,None,None,None,None,2,1.9743831157684326,None,,,,,0,0,0,0,0,118,118,127,493.51453280448914,,,,,,,,,,,,,,,,,,,,,,,,,,,,,,,,,,,,,,,,,,,,,,,,,,,,,,,,,,,,,,,,,,,,,,,,,,,,,,,,,93,97,138,187,125,65,1.0,1.1,-718,279,-480,266,-258,286,493.5003616809845,493.50044655799866,493.5033574104309,493.51453280448914,493.6628625392914,493.6628625392914,493.6628625392914,493.6628625392914,493.6628625392914,493.6628625392914,493.6628625392914,495.4985947608948,2,1.9743831157684326,None,,,,,,,,,,,,,,,,,,109,1,2025-02-25_11h58.25.222,comp,2024.2.4,58.062535213607305,2025-02-25 11h59.40.090150 -0500,
119,119,0,critical,wdh,35.0,2.1,lower,57.0,133.0,70.0,70.0,133.0,57.0,3,5.125905275344849,None,,,,,0,0,0,0,0,119,119,8,495.5151422023773,,,,,,,,,,,,,,,,,,,,,,,,,,,,,,,,,,,,,,,,,,,,,,,,,,,,,,,,,,,,,,,,,,,,,,,,,,,,,,,,,57.0,133.0,70.0,70.0,133.0,57.0,2.1,2.11,-198,264,0,271,160,-251,495.500364780426,495.5004484653473,495.50432538986206,495.5151422023773,495.66343808174133,495.66343808174133,495.66343808174133,495.66343808174133,495.66343808174133,495.66343808174133,495.66343808174133,500.6480712890625,3,5.125905275344849,None,,,,,,,,,,,,,,,,,,109,1,2025-02-25_11h58.25.222,comp,2024.2.4,58.062535213607305,2025-02-25 11h59.40.090150 -0500,
120,120,0,filler_random,None,None,None,None,None,None,None,None,None,None,3,2.383859395980835,None,,,,,0,0,0,0,0,120,120,154,500.6645722389221,,,,,,,,,,,,,,,,,,,,,,,,,,,,,,,,,,,,,,,,,,,,,,,,,,,,,,,,,,,,,,,,,,,,,,,,,,,,,,,,,66.13651342040974,86.78734666541378,73.64925437596546,198.13415885562532,77.31170458614979,114.12104948691008,2.1,2.11,-238,266,0,281,252,-259,500.6499195098877,500.6500029563904,500.65339183807373,500.6645722389221,500.815203666687,500.815203666687,500.815203666687,500.815203666687,500.815203666687,500.815203666687,500.815203666687,503.06276535987854,3,2.383859395980835,None,,,,,,,,,,,,,,,,,,109,1,2025-02-25_11h58.25.222,comp,2024.2.4,58.062535213607305,2025-02-25 11h59.40.090150 -0500,
121,121,0,critical,hwd,20.0,4.0,lower,133.0,57.0,57.0,133.0,78.0,78.0,2,4.6623358726501465,None,,,,,0,0,0,0,0,121,121,106,503.08262395858765,,,,,,,,,,,,,,,,,,,,,,,,,,,,,,,,,,,,,,,,,,,,,,,,,,,,,,,,,,,,,,,,,,,,,,,,,,,,,,,,,133.0,57.0,57.0,133.0,78.0,78.0,4.0,4.1,-191,-261,0,9,202,-260,503.0642547607422,503.0643334388733,503.0672369003296,503.08262395858765,503.2210314273834,503.2210314273834,503.2210314273834,503.2210314273834,503.2210314273834,503.2210314273834,503.2210314273834,507.7523512840271,2,4.6623358726501465,None,,,,,,,,,,,,,,,,,,109,1,2025-02-25_11h58.25.222,comp,2024.2.4,58.062535213607305,2025-02-25 11h59.40.090150 -0500,
122,122,0,filler_random,None,None,None,None,None,None,None,None,None,None,1,2.6720521450042725,None,,,,,0,0,0,0,0,122,122,148,507.7687864303589,,,,,,,,,,,,,,,,,,,,,,,,,,,,,,,,,,,,,,,,,,,,,,,,,,,,,,,,,,,,,,,,,,,,,,,,,,,,,,,,,139.35066820624957,72.81449648104093,59.967188957721255,91.52536444436826,75.62126900347745,66.89534088370323,3.0,3.1,-178,287,0,9,175,-278,507.75432300567627,507.754403591156,507.757839679718,507.7687864303589,507.91778087615967,507.91778087615967,507.91778087615967,507.91778087615967,507.91778087615967,507.91778087615967,507.91778087615967,510.44774770736694,1,2.6720521450042725,None,,,,,,,,,,,,,,,,,,109,1,2025-02-25_11h58.25.222,comp,2024.2.4,58.062535213607305,2025-02-25 11h59.40.090150 -0500,
123,123,0,critical,dwh,20.0,2.1,lower,78.0,78.0,57.0,133.0,133.0,57.0,2,5.012988567352295,None,,,,,0,0,0,0,0,123,123,6,510.4684648513794,,,,,,,,,,,,,,,,,,,,,,,,,,,,,,,,,,,,,,,,,,,,,,,,,,,,,,,,,,,,,,,,,,,,,,,,,,,,,,,,,78.0,78.0,57.0,133.0,133.0,57.0,2.1,2.11,-202,285,0,261,191,-282,510.4493553638458,510.44944167137146,510.45265769958496,510.4684648513794,510.6013808250427,510.6013808250427,510.6013808250427,510.6013808250427,510.6013808250427,510.6013808250427,510.6013808250427,515.4860291481018,2,5.012988567352295,None,,,,,,,,,,,,,,,,,,109,1,2025-02-25_11h58.25.222,comp,2024.2.4,58.062535213607305,2025-02-25 11h59.40.090150 -0500,
124,124,0,critical,wdh,20.0,3.0,upper,125.0,200.0,141.0,141.0,200.0,125.0,3,1.9076032638549805,None,,,,,0,0,0,0,0,124,124,81,515.5030779838562,,,,,,,,,,,,,,,,,,,,,,,,,,,,,,,,,,,,,,,,,,,,,,,,,,,,,,,,,,,,,,,,,,,,,,,,,,,,,,,,,125.0,200.0,141.0,141.0,200.0,125.0,3.0,3.2,-266,-271,0,17,229,257,515.4876477718353,515.4877920150757,515.4919323921204,515.5030779838562,515.6561331748962,515.6561331748962,515.6561331748962,515.6561331748962,515.6561331748962,515.6561331748962,515.6561331748962,517.4210271835327,3,1.9076032638549805,None,,,,,,,,,,,,,,,,,,109,1,2025-02-25_11h58.25.222,comp,2024.2.4,58.062535213607305,2025-02-25 11h59.40.090150 -0500,
125,125,0,critical,wdh,20.0,3.0,lower,57.0,133.0,78.0,78.0,133.0,57.0,3,3.5395913124084473,None,,,,,0,0,0,0,0,125,125,80,517.436845779419,,,,,,,,,,,,,,,,,,,,,,,,,,,,,,,,,,,,,,,,,,,,,,,,,,,,,,,,,,,,,,,,,,,,,,,,,,,,,,,,,57.0,133.0,78.0,78.0,133.0,57.0,3.0,3.2,-202,-278,0,13,164,257,517.4226288795471,517.4227533340454,517.4261486530304,517.436845779419,517.5931849479675,517.5931849479675,517.5931849479675,517.5931849479675,517.5931849479675,517.5931849479675,517.5931849479675,520.9902653694153,3,3.5395913124084473,None,,,,,,,,,,,,,,,,,,109,1,2025-02-25_11h58.25.222,comp,2024.2.4,58.062535213607305,2025-02-25 11h59.40.090150 -0500,
126,126,0,filler_random,None,None,None,None,None,None,None,None,None,None,2,1.7301974296569824,None,,,,,0,0,0,0,0,126,126,163,521.0061640739441,,,,,,,,,,,,,,,,,,,,,,,,,,,,,,,,,,,,,,,,,,,,,,,,,,,,,,,,,,,,,,,,,,,,,,,,,,,,,,,,,74.38244914584936,159.7536189929712,192.39992720384882,194.5204434440117,71.61313740874293,116.98081952689482,4.0,4.2,-273,13,0,-255,252,-6,520.9921391010284,520.9922358989716,520.9956705570221,521.0061640739441,521.1554996967316,521.1554996967316,521.1554996967316,521.1554996967316,521.1554996967316,521.1554996967316,521.1554996967316,522.7410771846771,2,1.7301974296569824,None,,,,,,,,,,,,,,,,,,109,1,2025-02-25_11h58.25.222,comp,2024.2.4,58.062535213607305,2025-02-25 11h59.40.090150 -0500,
127,127,0,critical,dwh,20.0,3.0,lower,78.0,78.0,57.0,133.0,133.0,57.0,2,4.232574462890625,None,,,,,0,0,0,0,0,127,127,68,522.7598149776459,,,,,,,,,,,,,,,,,,,,,,,,,,,,,,,,,,,,,,,,,,,,,,,,,,,,,,,,,,,,,,,,,,,,,,,,,,,,,,,,,78.0,78.0,57.0,133.0,133.0,57.0,3.0,3.2,-202,-274,0,-20,191,251,522.7427461147308,522.7428336143494,522.7460074424744,522.7598149776459,522.9052386283875,522.9052386283875,522.9052386283875,522.9052386283875,522.9052386283875,522.9052386283875,522.9052386283875,527.009046792984,2,4.232574462890625,None,,,,,,,,,,,,,,,,,,109,1,2025-02-25_11h58.25.222,comp,2024.2.4,58.062535213607305,2025-02-25 11h59.40.090150 -0500,
128,128,0,filler_random,None,None,None,None,None,None,None,None,None,None,3,2.8056750297546387,None,,,,,0,0,0,0,0,128,128,136,527.0273854732513,,,,,,,,,,,,,,,,,,,,,,,,,,,,,,,,,,,,,,,,,,,,,,,,,,,,,,,,,,,,,,,,,,,,,,,,,,,,,,,,,198.32987749623618,162.9501565747113,131.0155033582351,71.45864648851466,152.42897981195506,175.60945426512552,2.2,2.22,-213,260,0,-253,220,-263,527.0110261440277,527.0111074447632,527.0143918991089,527.0273854732513,527.1724956035614,527.1724956035614,527.1724956035614,527.1724956035614,527.1724956035614,527.1724956035614,527.1724956035614,529.8406538963318,3,2.8056750297546387,None,,,,,,,,,,,,,,,,,,109,1,2025-02-25_11h58.25.222,comp,2024.2.4,58.062535213607305,2025-02-25 11h59.40.090150 -0500,
129,129,0,filler_random,None,None,None,None,None,None,None,None,None,None,1,5.27130126953125,None,,,,,0,0,0,0,0,129,129,162,529.8573975563049,,,,,,,,,,,,,,,,,,,,,,,,,,,,,,,,,,,,,,,,,,,,,,,,,,,,,,,,,,,,,,,,,,,,,,,,,,,,,,,,,163.76416527760978,129.3170554201165,80.32336994857653,176.62238222713898,182.8277946077568,75.40427363295122,2.1,2.11,-249,261,0,284,222,-285,529.842446565628,529.8425297737122,529.8461587429047,529.8573975563049,530.0064172744751,530.0064172744751,530.0064172744751,530.0064172744751,530.0064172744751,530.0064172744751,530.0064172744751,535.1461260318756,1,5.27130126953125,None,,,,,,,,,,,,,,,,,,109,1,2025-02-25_11h58.25.222,comp,2024.2.4,58.062535213607305,2025-02-25 11h59.40.090150 -0500,
130,130,0,critical,dwh,35.0,2.1,upper,127.0,127.0,125.0,200.0,200.0,125.0,2,2.4425556659698486,None,,,,,0,0,0,0,0,130,130,5,535.1657516956329,,,,,,,,,,,,,,,,,,,,,,,,,,,,,,,,,,,,,,,,,,,,,,,,,,,,,,,,,,,,,,,,,,,,,,,,,,,,,,,,,127.0,127.0,125.0,200.0,200.0,125.0,2.1,2.12,-260,-290,0,-269,258,257,535.1479172706604,535.1479995250702,535.1509051322937,535.1657516956329,535.3102784156799,535.3102784156799,535.3102784156799,535.3102784156799,535.3102784156799,535.3102784156799,535.3102784156799,537.6257953643799,2,2.4425556659698486,None,,,,,,,,,,,,,,,,,,109,1,2025-02-25_11h58.25.222,comp,2024.2.4,58.062535213607305,2025-02-25 11h59.40.090150 -0500,
131,131,0,filler_random,None,None,None,None,None,None,None,None,None,None,2,1.358797311782837,None,,,,,0,0,0,0,0,131,131,134,537.64213514328,,,,,,,,,,,,,,,,,,,,,,,,,,,,,,,,,,,,,,,,,,,,,,,,,,,,,,,,,,,,,,,,,,,,,,,,,,,,,,,,,63.128861787424086,110.90673159460769,180.96851191668225,114.74395851723793,108.91856175982716,122.48797921184091,3.0,3.1,-209,271,0,13,215,-280,537.6275043487549,537.6275842189789,537.6308002471924,537.64213514328,537.7928285598755,537.7928285598755,537.7928285598755,537.7928285598755,537.7928285598755,537.7928285598755,537.7928285598755,539.0106625556946,2,1.358797311782837,None,,,,,,,,,,,,,,,,,,109,1,2025-02-25_11h58.25.222,comp,2024.2.4,58.062535213607305,2025-02-25 11h59.40.090150 -0500,
132,132,0,critical,whd,35.0,1.0,upper,125.0,200.0,200.0,125.0,127.0,127.0,1,2.3178961277008057,None,,,,,0,0,0,0,0,132,132,85,539.0265429019928,,,,,,,,,,,,,,,,,,,,,,,,,,,,,,,,,,,,,,,,,,,,,,,,,,,,,,,,,,,,,,,,,,,,,,,,,,,,,,,,,125.0,200.0,200.0,125.0,127.0,127.0,1.0,1.2,-258,9,0,-18,222,3,539.0122027397156,539.0122847557068,539.0157327651978,539.0265429019928,539.1788420677185,539.1788420677185,539.1788420677185,539.1788420677185,539.1788420677185,539.1788420677185,539.1788420677185,541.3612759113312,1,2.3178961277008057,None,,,,,,,,,,,,,,,,,,109,1,2025-02-25_11h58.25.222,comp,2024.2.4,58.062535213607305,2025-02-25 11h59.40.090150 -0500,
133,133,0,critical,dhw,35.0,2.1,lower,70.0,70.0,133.0,57.0,57.0,133.0,3,1.9677786827087402,None,,,,,0,0,0,0,0,133,133,0,541.3766434192657,,,,,,,,,,,,,,,,,,,,,,,,,,,,,,,,,,,,,,,,,,,,,,,,,,,,,,,,,,,,,,,,,,,,,,,,,,,,,,,,,70.0,70.0,133.0,57.0,57.0,133.0,2.1,2.12,-160,-280,0,-258,191,265,541.3628249168396,541.36292719841,541.366322517395,541.3766434192657,541.5261952877045,541.5261952877045,541.5261952877045,541.5261952877045,541.5261952877045,541.5261952877045,541.5261952877045,543.3607950210571,3,1.9677786827087402,None,,,,,,,,,,,,,,,,,,109,1,2025-02-25_11h58.25.222,comp,2024.2.4,58.062535213607305,2025-02-25 11h59.40.090150 -0500,
134,134,0,critical,dwh,35.0,2.1,lower,70.0,70.0,57.0,133.0,133.0,57.0,2,2.560990333557129,None,,,,,0,0,0,0,0,134,134,28,543.3777422904968,,,,,,,,,,,,,,,,,,,,,,,,,,,,,,,,,,,,,,,,,,,,,,,,,,,,,,,,,,,,,,,,,,,,,,,,,,,,,,,,,70.0,70.0,57.0,133.0,133.0,57.0,2.1,2.11,-198,253,0,281,191,-251,543.3623046875,543.3623838424683,543.3655560016632,543.3777422904968,543.5288050174713,543.5288050174713,543.5288050174713,543.5288050174713,543.5288050174713,543.5288050174713,543.5288050174713,545.9444558620453,2,2.560990333557129,None,,,,,,,,,,,,,,,,,,109,1,2025-02-25_11h58.25.222,comp,2024.2.4,58.062535213607305,2025-02-25 11h59.40.090150 -0500,
135,135,0,filler_square,None,None,None,None,None,None,None,None,None,None,3,3.6782379150390625,None,,,,,0,0,0,0,0,135,135,199,545.9629573822021,,,,,,,,,,,,,,,,,,,,,,,,,,,,,,,,,,,,,,,,,,,,,,,,,,,,,,,,,,,,,,,,,,,,,,,,,,,,,,,,,60.40510464475292,90.77908061710974,92.92379199427216,92.92379199427216,73.39085854533248,87.35151006524501,4.0,4.1,-188,-258,0,12,186,-260,545.946293592453,545.9463748931885,545.9495391845703,545.9629573822021,546.1124529838562,546.1124529838562,546.1124529838562,546.1124529838562,546.1124529838562,546.1124529838562,546.1124529838562,549.6518666744232,3,3.6782379150390625,None,,,,,,,,,,,,,,,,,,109,1,2025-02-25_11h58.25.222,comp,2024.2.4,58.062535213607305,2025-02-25 11h59.40.090150 -0500,
136,136,0,critical,dhw,20.0,2.1,upper,141.0,141.0,200.0,125.0,125.0,200.0,3,3.205838680267334,None,,,,,0,0,0,0,0,136,136,27,549.6675050258636,,,,,,,,,,,,,,,,,,,,,,,,,,,,,,,,,,,,,,,,,,,,,,,,,,,,,,,,,,,,,,,,,,,,,,,,,,,,,,,,,141.0,141.0,200.0,125.0,125.0,200.0,2.1,2.11,-229,287,0,278,258,-280,549.6534488201141,549.6535305976868,549.6567323207855,549.6675050258636,549.8135888576508,549.8135888576508,549.8135888576508,549.8135888576508,549.8135888576508,549.8135888576508,549.8135888576508,552.8794255256653,3,3.205838680267334,None,,,,,,,,,,,,,,,,,,109,1,2025-02-25_11h58.25.222,comp,2024.2.4,58.062535213607305,2025-02-25 11h59.40.090150 -0500,
137,137,0,filler_square,None,None,None,None,None,None,None,None,None,None,3,2.3360178470611572,None,,,,,0,0,0,0,0,137,137,190,552.8963823318481,,,,,,,,,,,,,,,,,,,,,,,,,,,,,,,,,,,,,,,,,,,,,,,,,,,,,,,,,,,,,,,,,,,,,,,,,,,,,,,,,136.21983545935353,62.63866802046562,170.1934565048912,123.3367985131959,182.06103002282362,182.06103002282362,2.2,2.22,-189,252,0,-257,249,-258,552.8812890052795,552.8813705444336,552.8846158981323,552.8963823318481,553.0454716682434,553.0454716682434,553.0454716682434,553.0454716682434,553.0454716682434,553.0454716682434,553.0454716682434,555.248322725296,3,2.3360178470611572,None,,,,,,,,,,,,,,,,,,109,1,2025-02-25_11h58.25.222,comp,2024.2.4,58.062535213607305,2025-02-25 11h59.40.090150 -0500,
138,138,0,critical,whd,20.0,2.1,upper,125.0,200.0,200.0,125.0,141.0,141.0,2,4.177223205566406,None,,,,,0,0,0,0,0,138,138,15,555.2638545036316,,,,,,,,,,,,,,,,,,,,,,,,,,,,,,,,,,,,,,,,,,,,,,,,,,,,,,,,,,,,,,,,,,,,,,,,,,,,,,,,,125.0,200.0,200.0,125.0,141.0,141.0,2.1,2.11,-258,290,0,264,229,-253,555.2498540878296,555.2499554157257,555.2531645298004,555.2638545036316,555.4144079685211,555.4144079685211,555.4144079685211,555.4144079685211,555.4144079685211,555.4144079685211,555.4144079685211,559.4499108791351,2,4.177223205566406,None,,,,,,,,,,,,,,,,,,109,1,2025-02-25_11h58.25.222,comp,2024.2.4,58.062535213607305,2025-02-25 11h59.40.090150 -0500,
139,139,0,critical,wdh,20.0,2.1,upper,125.0,200.0,141.0,141.0,200.0,125.0,1,1.2626183032989502,None,,,,,0,0,0,0,0,139,139,11,559.4661839008331,,,,,,,,,,,,,,,,,,,,,,,,,,,,,,,,,,,,,,,,,,,,,,,,,,,,,,,,,,,,,,,,,,,,,,,,,,,,,,,,,125.0,200.0,141.0,141.0,200.0,125.0,2.1,2.11,-266,257,0,287,229,-277,559.4514899253845,559.4515719413757,559.4547054767609,559.4661839008331,559.6178433895111,559.6178433895111,559.6178433895111,559.6178433895111,559.6178433895111,559.6178433895111,559.6178433895111,560.7333960533142,1,1.2626183032989502,None,,,,,,,,,,,,,,,,,,109,1,2025-02-25_11h58.25.222,comp,2024.2.4,58.062535213607305,2025-02-25 11h59.40.090150 -0500,
