thisN,thisTrialN,thisRepN,effect,order,distance,config,diag,h_1,w_1,h_2,w_2,h_3,w_3,rect_choice.keys,rect_choice.rt,rect_choice.duration,instructions_loop.thisRepN,instructions_loop.thisTrialN,instructions_loop.thisN,instructions_loop.thisIndex,blocks.thisRepN,blocks.thisTrialN,blocks.thisN,blocks.thisIndex,trials.thisRepN,trials.thisTrialN,trials.thisN,trials.thisIndex,thisRow.t,notes,consent.started,agree_button.started,decline_button.started,consent_img.started,mouse.started,consent.stopped,agree_button.numClicks,agree_button.timesOn,agree_button.timesOff,decline_button.numClicks,decline_button.timesOn,decline_button.timesOff,mouse.x,mouse.y,mouse.leftButton,mouse.midButton,mouse.rightButton,mouse.time,mouse.clicked_name,exp_params.started,exp_params.stopped,welcome.started,welcome_text.started,welcome.stopped,instructions_1.started,instructions_1_text_1.started,instructions_1_text_2.started,key_resp.started,instructions_1.stopped,instructions_loop.key_resp.keys,instructions_loop.key_resp.rt,instructions_loop.key_resp.duration,instructions_2.started,instructions_2_text_1.started,instructions_2_text_2.started,key_resp_2.started,instructions_2.stopped,instructions_loop.key_resp_2.keys,instructions_loop.key_resp_2.rt,instructions_loop.key_resp_2.duration,instructions_3.started,instructions_3_text_1.started,r1_instr3.started,r2_instr3.started,r3_instr3.started,r1_instr3_label.started,r2_instr3_label.started,r3_instr3_label.started,instructions_3_text_3.started,instructions_3_text_4.started,key_resp_3.started,instructions_3.stopped,instructions_loop.key_resp_3.keys,instructions_loop.key_resp_3.rt,instructions_loop.key_resp_3.duration,instructions_4.started,instructions_4_text_1.started,instructions_4_text_3.started,instructions_4_text_2.started,key_resp_4.started,instructions_4.stopped,instructions_loop.key_resp_4.keys,instructions_loop.key_resp_4.rt,instructions_loop.key_resp_4.duration,instructions_5.started,instructions_5_text_1.started,instructions_5_text_2.started,key_resp_5.started,instructions_5.stopped,instructions_loop.key_resp_5.keys,instructions_loop.key_resp_5.rt,instructions_loop.key_resp_5.duration,start_exp.started,start_exp_text.started,key_resp_6.started,start_exp.stopped,key_resp_6.keys,key_resp_6.rt,key_resp_6.duration,h_1_tmp,w_1_tmp,h_2_tmp,w_2_tmp,h_3_tmp,w_3_tmp,config_tmp,config_tmp_1,r_1_x,r_1_y,r_2_x,r_2_y,r_3_x,r_3_y,pre_trial.started,pre_trial.stopped,choice_trial.started,rect_choice.started,r_1.started,r_2.started,r_3.started,r_1_label.started,r_2_label.started,r_3_label.started,prompt.started,choice_trial.stopped,trials.rect_choice.keys,trials.rect_choice.rt,trials.rect_choice.duration,end_block.started,end_block_text.started,end_block.stopped,end.started,end_text.started,key_resp_7.started,end.stopped,key_resp_7.keys,key_resp_7.rt,key_resp_7.duration,debriefing.started,debrief_form.started,end_debrief.started,debriefing.stopped,end_debrief.keys,end_debrief.rt,end_debrief.duration,participant,computer,date,expName,psychopyVersion,frameRate,expStart,
,,,,,,,,,,,,,,,,,,,,,,,,,,,,,,,0.016707420349121094,0.04315018653869629,0.04315018653869629,0.04315018653869629,0.016170024871826172,3.456242561340332,1,[3.4118382930755615],[3.411848306655884],0,,,[-64.0],[-502.0],[1],[0],[0],[3.438795804977417],['agree_button'],,,,,,,,,,,,,,,,,,,,,,,,,,,,,,,,,,,,,,,,,,,,,,,,,,,,,,,,,,,,,,,,,,,,,,,,,,,,,,,,,,,,,,,,,,,,,,,,,,,,,,,,,,,10,5,2025-02-18_13h02.06.621,comp,2024.2.4,60.126925420205716,2025-02-18 13h02.40.927064 -0500,
,,,,,,,,,,,,,,,,,,,,,,,,,,,,,,,,,,,,,,,,,,,,,,,,,,3.4565155506134033,3.4565510749816895,,,,,,,,,,,,,,,,,,,,,,,,,,,,,,,,,,,,,,,,,,,,,,,,,,,,,,,,,,,,,,,,,,,,,,,,,,,,,,,,,,,,,,,,,,,,,,,,,,,,,,,,,10,5,2025-02-18_13h02.06.621,comp,2024.2.4,60.126925420205716,2025-02-18 13h02.40.927064 -0500,
,,,,,,,,,,,,,,,,,,,,,,,,,,,,,,,,,,,,,,,,,,,,,,,,,,,,3.456573963165283,3.4700121879577637,5.4676830768585205,,,,,,,,,,,,,,,,,,,,,,,,,,,,,,,,,,,,,,,,,,,,,,,,,,,,,,,,,,,,,,,,,,,,,,,,,,,,,,,,,,,,,,,,,,,,,,,,,,,,,,10,5,2025-02-18_13h02.06.621,comp,2024.2.4,60.126925420205716,2025-02-18 13h02.40.927064 -0500,
0,0,0,,,,,,,,,,,,,,,0,0,0,0,,,,,,,,,5.484503507614136,,,,,,,,,,,,,,,,,,,,,,,,,,5.468267440795898,5.484503507614136,5.484503507614136,6.967655420303345,10.251850128173828,space,3.269160509109497,None,10.251935005187988,10.267228364944458,10.267228364944458,11.767621278762817,20.21942925453186,space,8.437336683273315,None,20.21952772140503,20.241602897644043,20.241602897644043,20.241602897644043,20.241602897644043,20.241602897644043,20.241602897644043,20.241602897644043,20.241602897644043,20.241602897644043,21.734488487243652,31.851755142211914,space,10.102910995483398,None,31.851841688156128,31.867252111434937,31.867252111434937,31.867252111434937,33.36687731742859,38.96821093559265,space,5.600189685821533,None,38.96829628944397,38.98380446434021,38.98380446434021,40.48336219787598,42.05114126205444,space,1.5619852542877197,None,42.051255226135254,42.06691527366638,42.06691527366638,43.4010055065155,space,1.3164491653442383,None,,,,,,,,,,,,,,,,,,,,,,,,,,,,,,,,,,,,,,,,,,,,,,,10,5,2025-02-18_13h02.06.621,comp,2024.2.4,60.126925420205716,2025-02-18 13h02.40.927064 -0500,
0,0,0,critical,dhw,35.0,4.0,lower,70.0,70.0,133.0,57.0,57.0,133.0,3,8.337496280670166,None,,,,,0,0,0,0,0,0,0,52,43.46163725852966,,,,,,,,,,,,,,,,,,,,,,,,,,,,,,,,,,,,,,,,,,,,,,,,,,,,,,,,,,,,,,,,,,,,,,,,,,,,,,,,,70.0,70.0,133.0,57.0,57.0,133.0,4.0,4.1,-160,-253,0,-11,191,-251,43.44794297218323,43.447988748550415,43.450114250183105,43.46163725852966,43.60688924789429,43.60688924789429,43.60688924789429,43.60688924789429,43.60688924789429,43.60688924789429,43.60688924789429,51.80114388465881,3,8.337496280670166,None,,,,,,,,,,,,,,,,,,10,5,2025-02-18_13h02.06.621,comp,2024.2.4,60.126925420205716,2025-02-18 13h02.40.927064 -0500,
1,1,0,catch,None,None,None,None,None,None,None,None,None,None,1,2.7819182872772217,None,,,,,0,0,0,0,0,1,1,124,51.81688189506531,,,,,,,,,,,,,,,,,,,,,,,,,,,,,,,,,,,,,,,,,,,,,,,,,,,,,,,,,,,,,,,,,,,,,,,,,,,,,,,,,141,184,85,105,101,89,2.2,2.21,-240,-288,0,258,193,283,51.802236557006836,51.80227756500244,51.80451941490173,51.81688189506531,51.96673130989075,51.96673130989075,51.96673130989075,51.96673130989075,51.96673130989075,51.96673130989075,51.96673130989075,54.60129404067993,1,2.7819182872772217,None,,,,,,,,,,,,,,,,,,10,5,2025-02-18_13h02.06.621,comp,2024.2.4,60.126925420205716,2025-02-18 13h02.40.927064 -0500,
2,2,0,filler_random,None,None,None,None,None,None,None,None,None,None,1,3.835237503051758,None,,,,,0,0,0,0,0,2,2,168,54.61683416366577,,,,,,,,,,,,,,,,,,,,,,,,,,,,,,,,,,,,,,,,,,,,,,,,,,,,,,,,,,,,,,,,,,,,,,,,,,,,,,,,,81.75942712875262,156.60327497698756,75.0934621419579,89.37995585161595,60.99672929413293,157.81604874063171,4.0,4.2,-219,10,0,-262,220,2,54.602216720581055,54.60225749015808,54.60482382774353,54.61683416366577,54.76661276817322,54.76661276817322,54.76661276817322,54.76661276817322,54.76661276817322,54.76661276817322,54.76661276817322,58.46779131889343,1,3.835237503051758,None,,,,,,,,,,,,,,,,,,10,5,2025-02-18_13h02.06.621,comp,2024.2.4,60.126925420205716,2025-02-18 13h02.40.927064 -0500,
3,3,0,filler_square,None,None,None,None,None,None,None,None,None,None,2,12.033686399459839,None,,,,,0,0,0,0,0,3,3,209,58.48319482803345,,,,,,,,,,,,,,,,,,,,,,,,,,,,,,,,,,,,,,,,,,,,,,,,,,,,,,,,,,,,,,,,,,,,,,,,,,,,,,,,,74.6104386252745,74.36017459072275,77.9650905761622,77.9650905761622,71.12140014163433,76.97562888304347,2.1,2.12,-172,-285,0,-253,173,284,58.46880912780762,58.468849897384644,58.47147560119629,58.48319482803345,58.633169412612915,58.633169412612915,58.633169412612915,58.633169412612915,58.633169412612915,58.633169412612915,58.633169412612915,70.53414273262024,2,12.033686399459839,None,,,,,,,,,,,,,,,,,,10,5,2025-02-18_13h02.06.621,comp,2024.2.4,60.126925420205716,2025-02-18 13h02.40.927064 -0500,
4,4,0,critical,whd,20.0,4.0,upper,125.0,200.0,200.0,125.0,141.0,141.0,1,3.7591912746429443,None,,,,,0,0,0,0,0,4,4,95,70.54965114593506,,,,,,,,,,,,,,,,,,,,,,,,,,,,,,,,,,,,,,,,,,,,,,,,,,,,,,,,,,,,,,,,,,,,,,,,,,,,,,,,,125.0,200.0,200.0,125.0,141.0,141.0,4.0,4.1,-258,-260,0,8,229,-281,70.5349452495575,70.53498721122742,70.53718519210815,70.54965114593506,70.69994473457336,70.69994473457336,70.69994473457336,70.69994473457336,70.69994473457336,70.69994473457336,70.69994473457336,74.31773066520691,1,3.7591912746429443,None,,,,,,,,,,,,,,,,,,10,5,2025-02-18_13h02.06.621,comp,2024.2.4,60.126925420205716,2025-02-18 13h02.40.927064 -0500,
5,5,0,filler_random,None,None,None,None,None,None,None,None,None,None,1,3.864915609359741,None,,,,,0,0,0,0,0,5,5,142,74.33326148986816,,,,,,,,,,,,,,,,,,,,,,,,,,,,,,,,,,,,,,,,,,,,,,,,,,,,,,,,,,,,,,,,,,,,,,,,,,,,,,,,,175.2773940310102,162.09850097882867,166.30760263728143,148.1295932582663,198.0388234057251,64.38939259777563,1.0,1.1,-731,288,-480,289,-278,285,74.31871604919434,74.31875896453857,74.3214156627655,74.33326148986816,74.48341417312622,74.48341417312622,74.48341417312622,74.48341417312622,74.48341417312622,74.48341417312622,74.48341417312622,78.20130062103271,1,3.864915609359741,None,,,,,,,,,,,,,,,,,,10,5,2025-02-18_13h02.06.621,comp,2024.2.4,60.126925420205716,2025-02-18 13h02.40.927064 -0500,
6,6,0,critical,wdh,20.0,3.0,lower,57.0,133.0,78.0,78.0,133.0,57.0,1,4.812258958816528,None,,,,,0,0,0,0,0,6,6,80,78.21651911735535,,,,,,,,,,,,,,,,,,,,,,,,,,,,,,,,,,,,,,,,,,,,,,,,,,,,,,,,,,,,,,,,,,,,,,,,,,,,,,,,,57.0,133.0,78.0,78.0,133.0,57.0,3.0,3.2,-202,-256,0,-18,164,260,78.20212602615356,78.20216822624207,78.20438504219055,78.21651911735535,78.36647701263428,78.36647701263428,78.36647701263428,78.36647701263428,78.36647701263428,78.36647701263428,78.36647701263428,83.03409123420715,1,4.812258958816528,None,,,,,,,,,,,,,,,,,,10,5,2025-02-18_13h02.06.621,comp,2024.2.4,60.126925420205716,2025-02-18 13h02.40.927064 -0500,
7,7,0,critical,wdh,20.0,2.1,lower,57.0,133.0,78.0,78.0,133.0,57.0,3,9.121810674667358,None,,,,,0,0,0,0,0,7,7,10,83.04972529411316,,,,,,,,,,,,,,,,,,,,,,,,,,,,,,,,,,,,,,,,,,,,,,,,,,,,,,,,,,,,,,,,,,,,,,,,,,,,,,,,,57.0,133.0,78.0,78.0,133.0,57.0,2.1,2.12,-202,-266,0,-258,164,269,83.03493881225586,83.0349805355072,83.03718423843384,83.04972529411316,83.19949841499329,83.19949841499329,83.19949841499329,83.19949841499329,83.19949841499329,83.19949841499329,83.19949841499329,92.18388748168945,3,9.121810674667358,None,,,,,,,,,,,,,,,,,,10,5,2025-02-18_13h02.06.621,comp,2024.2.4,60.126925420205716,2025-02-18 13h02.40.927064 -0500,
8,8,0,catch,None,None,None,None,None,None,None,None,None,None,3,1.5671024322509766,None,,,,,0,0,0,0,0,8,8,128,92.19928431510925,,,,,,,,,,,,,,,,,,,,,,,,,,,,,,,,,,,,,,,,,,,,,,,,,,,,,,,,,,,,,,,,,,,,,,,,,,,,,,,,,129,61,105,85,193,132,1.0,1.2,-169,1,0,-18,204,-12,92.18493056297302,92.18497109413147,92.18764185905457,92.19928431510925,92.34960627555847,92.34960627555847,92.34960627555847,92.34960627555847,92.34960627555847,92.34960627555847,92.34960627555847,93.76772046089172,3,1.5671024322509766,None,,,,,,,,,,,,,,,,,,10,5,2025-02-18_13h02.06.621,comp,2024.2.4,60.126925420205716,2025-02-18 13h02.40.927064 -0500,
9,9,0,filler_random,None,None,None,None,None,None,None,None,None,None,2,1.3095662593841553,None,,,,,0,0,0,0,0,9,9,163,93.78295183181763,,,,,,,,,,,,,,,,,,,,,,,,,,,,,,,,,,,,,,,,,,,,,,,,,,,,,,,,,,,,,,,,,,,,,,,,,,,,,,,,,110.14588340842067,137.85240480456062,129.61942922173824,199.59118216458322,63.433730326192354,93.59724522047517,1.0,1.2,-265,-2,0,11,243,-2,93.76864981651306,93.76869225502014,93.7710509300232,93.78295183181763,93.93292212486267,93.93292212486267,93.93292212486267,93.93292212486267,93.93292212486267,93.93292212486267,93.93292212486267,95.10071420669556,2,1.3095662593841553,None,,,,,,,,,,,,,,,,,,10,5,2025-02-18_13h02.06.621,comp,2024.2.4,60.126925420205716,2025-02-18 13h02.40.927064 -0500,
10,10,0,critical,whd,20.0,2.1,upper,125.0,200.0,200.0,125.0,141.0,141.0,2,6.649843215942383,None,,,,,0,0,0,0,0,10,10,15,95.11626195907593,,,,,,,,,,,,,,,,,,,,,,,,,,,,,,,,,,,,,,,,,,,,,,,,,,,,,,,,,,,,,,,,,,,,,,,,,,,,,,,,,125.0,200.0,200.0,125.0,141.0,141.0,2.1,2.12,-258,-251,0,-260,229,276,95.10153722763062,95.10158038139343,95.10374784469604,95.11626195907593,95.26635265350342,95.26635265350342,95.26635265350342,95.26635265350342,95.26635265350342,95.26635265350342,95.26635265350342,101.76753425598145,2,6.649843215942383,None,,,,,,,,,,,,,,,,,,10,5,2025-02-18_13h02.06.621,comp,2024.2.4,60.126925420205716,2025-02-18 13h02.40.927064 -0500,
11,11,0,filler_square,None,None,None,None,None,None,None,None,None,None,2,3.558403730392456,None,,,,,0,0,0,0,0,11,11,184,101.78286480903625,,,,,,,,,,,,,,,,,,,,,,,,,,,,,,,,,,,,,,,,,,,,,,,,,,,,,,,,,,,,,,,,,,,,,,,,,,,,,,,,,92.19042628648374,89.91205743263524,100.82681799296333,100.82681799296333,62.27764498921164,89.85708976851048,1.0,1.3,289,-253,480,-280,671,-274,101.76854753494263,101.76859068870544,101.77077770233154,101.78286480903625,101.93262600898743,101.93262600898743,101.93262600898743,101.93262600898743,101.93262600898743,101.93262600898743,101.93262600898743,105.3503487110138,2,3.558403730392456,None,,,,,,,,,,,,,,,,,,10,5,2025-02-18_13h02.06.621,comp,2024.2.4,60.126925420205716,2025-02-18 13h02.40.927064 -0500,
12,12,0,filler_random,None,None,None,None,None,None,None,None,None,None,3,3.2944273948669434,None,,,,,0,0,0,0,0,12,12,132,105.36610960960388,,,,,,,,,,,,,,,,,,,,,,,,,,,,,,,,,,,,,,,,,,,,,,,,,,,,,,,,,,,,,,,,,,,,,,,,,,,,,,,,,173.22434932988236,66.46319907101343,165.29150005441116,70.72853103181284,156.44774300626182,124.19520471759252,2.2,2.21,-165,-259,0,288,193,283,105.3513286113739,105.35137009620667,105.35393714904785,105.36610960960388,105.51612067222595,105.51612067222595,105.51612067222595,105.51612067222595,105.51612067222595,105.51612067222595,105.51612067222595,108.66715478897095,3,3.2944273948669434,None,,,,,,,,,,,,,,,,,,10,5,2025-02-18_13h02.06.621,comp,2024.2.4,60.126925420205716,2025-02-18 13h02.40.927064 -0500,
13,13,0,filler_random,None,None,None,None,None,None,None,None,None,None,3,2.715237617492676,None,,,,,0,0,0,0,0,13,13,148,108.68265724182129,,,,,,,,,,,,,,,,,,,,,,,,,,,,,,,,,,,,,,,,,,,,,,,,,,,,,,,,,,,,,,,,,,,,,,,,,,,,,,,,,138.65554114752464,82.61095676687438,100.69431490497263,191.1744844990247,180.89722262550043,122.219732566659,4.0,4.1,-233,-271,0,10,253,-274,108.66807889938354,108.66813397407532,108.67049765586853,108.68265724182129,108.83267903327942,108.83267903327942,108.83267903327942,108.83267903327942,108.83267903327942,108.83267903327942,108.83267903327942,111.40063190460205,3,2.715237617492676,None,,,,,,,,,,,,,,,,,,10,5,2025-02-18_13h02.06.621,comp,2024.2.4,60.126925420205716,2025-02-18 13h02.40.927064 -0500,
14,14,0,critical,dwh,35.0,1.0,lower,70.0,70.0,57.0,133.0,133.0,57.0,3,3.75521183013916,None,,,,,0,0,0,0,0,14,14,60,111.41598296165466,,,,,,,,,,,,,,,,,,,,,,,,,,,,,,,,,,,,,,,,,,,,,,,,,,,,,,,,,,,,,,,,,,,,,,,,,,,,,,,,,70.0,70.0,57.0,133.0,133.0,57.0,1.0,1.2,-198,-17,0,1,191,-19,111.40139150619507,111.40143156051636,111.40356612205505,111.41598296165466,111.56585550308228,111.56585550308228,111.56585550308228,111.56585550308228,111.56585550308228,111.56585550308228,111.56585550308228,115.18379545211792,3,3.75521183013916,None,,,,,,,,,,,,,,,,,,10,5,2025-02-18_13h02.06.621,comp,2024.2.4,60.126925420205716,2025-02-18 13h02.40.927064 -0500,
15,15,0,critical,hwd,20.0,3.0,lower,133.0,57.0,57.0,133.0,78.0,78.0,2,19.300369262695312,None,,,,,0,0,0,0,0,15,15,104,115.19907069206238,,,,,,,,,,,,,,,,,,,,,,,,,,,,,,,,,,,,,,,,,,,,,,,,,,,,,,,,,,,,,,,,,,,,,,,,,,,,,,,,,133.0,57.0,57.0,133.0,78.0,78.0,3.0,3.1,-191,266,0,-6,202,-278,115.18461751937866,115.18465852737427,115.18731880187988,115.19907069206238,115.34919691085815,115.34919691085815,115.34919691085815,115.34919691085815,115.34919691085815,115.34919691085815,115.34919691085815,134.5166618824005,2,19.300369262695312,None,,,,,,,,,,,,,,,,,,10,5,2025-02-18_13h02.06.621,comp,2024.2.4,60.126925420205716,2025-02-18 13h02.40.927064 -0500,
16,16,0,critical,dhw,20.0,1.0,upper,141.0,141.0,200.0,125.0,125.0,200.0,2,5.391841411590576,None,,,,,0,0,0,0,0,16,16,55,134.5321455001831,,,,,,,,,,,,,,,,,,,,,,,,,,,,,,,,,,,,,,,,,,,,,,,,,,,,,,,,,,,,,,,,,,,,,,,,,,,,,,,,,141.0,141.0,200.0,125.0,125.0,200.0,1.0,1.3,251,-270,480,-250,738,-253,134.517498254776,134.51753854751587,134.5197262763977,134.5321455001831,134.6824164390564,134.6824164390564,134.6824164390564,134.6824164390564,134.6824164390564,134.6824164390564,134.6824164390564,139.93339705467224,2,5.391841411590576,None,,,,,,,,,,,,,,,,,,10,5,2025-02-18_13h02.06.621,comp,2024.2.4,60.126925420205716,2025-02-18 13h02.40.927064 -0500,
17,17,0,filler_random,None,None,None,None,None,None,None,None,None,None,3,1.8546879291534424,None,,,,,0,0,0,0,0,17,17,167,139.94887256622314,,,,,,,,,,,,,,,,,,,,,,,,,,,,,,,,,,,,,,,,,,,,,,,,,,,,,,,,,,,,,,,,,,,,,,,,,,,,,,,,,60.04930030784428,179.59008428297804,74.78710656200928,130.62841374828207,163.17539249866383,132.91630778882134,2.2,2.21,-251,-270,0,279,228,278,139.93432784080505,139.9343695640564,139.93686604499817,139.94887256622314,140.0990505218506,140.0990505218506,140.0990505218506,140.0990505218506,140.0990505218506,140.0990505218506,140.0990505218506,141.8166229724884,3,1.8546879291534424,None,,,,,,,,,,,,,,,,,,10,5,2025-02-18_13h02.06.621,comp,2024.2.4,60.126925420205716,2025-02-18 13h02.40.927064 -0500,
18,18,0,critical,wdh,20.0,3.0,upper,125.0,200.0,141.0,141.0,200.0,125.0,1,3.475867986679077,None,,,,,0,0,0,0,0,18,18,81,141.83197784423828,,,,,,,,,,,,,,,,,,,,,,,,,,,,,,,,,,,,,,,,,,,,,,,,,,,,,,,,,,,,,,,,,,,,,,,,,,,,,,,,,125.0,200.0,141.0,141.0,200.0,125.0,3.0,3.2,-266,-258,0,17,229,272,141.81739401817322,141.81743383407593,141.81994724273682,141.83197784423828,141.9824206829071,141.9824206829071,141.9824206829071,141.9824206829071,141.9824206829071,141.9824206829071,141.9824206829071,145.3167450428009,1,3.475867986679077,None,,,,,,,,,,,,,,,,,,10,5,2025-02-18_13h02.06.621,comp,2024.2.4,60.126925420205716,2025-02-18 13h02.40.927064 -0500,
19,19,0,critical,whd,20.0,2.1,upper,125.0,200.0,200.0,125.0,141.0,141.0,2,2.0495762825012207,None,,,,,0,0,0,0,0,19,19,39,145.3322286605835,,,,,,,,,,,,,,,,,,,,,,,,,,,,,,,,,,,,,,,,,,,,,,,,,,,,,,,,,,,,,,,,,,,,,,,,,,,,,,,,,125.0,200.0,200.0,125.0,141.0,141.0,2.1,2.12,-258,-254,0,-267,229,286,145.31755089759827,145.3175914287567,145.32012605667114,145.3322286605835,145.48231625556946,145.48231625556946,145.48231625556946,145.48231625556946,145.48231625556946,145.48231625556946,145.48231625556946,147.40004420280457,2,2.0495762825012207,None,,,,,,,,,,,,,,,,,,10,5,2025-02-18_13h02.06.621,comp,2024.2.4,60.126925420205716,2025-02-18 13h02.40.927064 -0500,
20,20,0,filler_square,None,None,None,None,None,None,None,None,None,None,1,1.3717312812805176,None,,,,,0,0,0,0,0,20,20,207,147.41520595550537,,,,,,,,,,,,,,,,,,,,,,,,,,,,,,,,,,,,,,,,,,,,,,,,,,,,,,,,,,,,,,,,,,,,,,,,,,,,,,,,,101.99290192160592,101.99290192160592,65.60068711217494,81.33554183675548,65.64566919082768,89.11102090955634,3.0,3.2,-188,-272,0,19,181,282,147.40103673934937,147.40107822418213,147.40350317955017,147.41520595550537,147.56534624099731,147.56534624099731,147.56534624099731,147.56534624099731,147.56534624099731,147.56534624099731,147.56534624099731,148.79996967315674,1,1.3717312812805176,None,,,,,,,,,,,,,,,,,,10,5,2025-02-18_13h02.06.621,comp,2024.2.4,60.126925420205716,2025-02-18 13h02.40.927064 -0500,
21,21,0,critical,hdw,20.0,4.0,upper,200.0,125.0,141.0,141.0,125.0,200.0,1,5.3388283252716064,None,,,,,0,0,0,0,0,21,21,119,148.8159430027008,,,,,,,,,,,,,,,,,,,,,,,,,,,,,,,,,,,,,,,,,,,,,,,,,,,,,,,,,,,,,,,,,,,,,,,,,,,,,,,,,200.0,125.0,141.0,141.0,125.0,200.0,4.0,4.2,-229,-10,0,-284,266,2,148.8007845878601,148.80082631111145,148.80464839935303,148.8159430027008,148.96558737754822,148.96558737754822,148.96558737754822,148.96558737754822,148.96558737754822,148.96558737754822,148.96558737754822,154.1667606830597,1,5.3388283252716064,None,,,,,,,,,,,,,,,,,,10,5,2025-02-18_13h02.06.621,comp,2024.2.4,60.126925420205716,2025-02-18 13h02.40.927064 -0500,
22,22,0,critical,hdw,20.0,2.1,lower,133.0,57.0,78.0,78.0,57.0,133.0,3,2.972792863845825,None,,,,,0,0,0,0,0,22,22,46,154.1818552017212,,,,,,,,,,,,,,,,,,,,,,,,,,,,,,,,,,,,,,,,,,,,,,,,,,,,,,,,,,,,,,,,,,,,,,,,,,,,,,,,,133.0,57.0,78.0,78.0,57.0,133.0,2.1,2.12,-164,-262,0,-256,202,283,154.16757988929749,154.16762137413025,154.17026829719543,154.1818552017212,154.3320643901825,154.3320643901825,154.3320643901825,154.3320643901825,154.3320643901825,154.3320643901825,154.3320643901825,157.1664433479309,3,2.972792863845825,None,,,,,,,,,,,,,,,,,,10,5,2025-02-18_13h02.06.621,comp,2024.2.4,60.126925420205716,2025-02-18 13h02.40.927064 -0500,
23,23,0,critical,hdw,20.0,4.0,lower,133.0,57.0,78.0,78.0,57.0,133.0,1,1.6313910484313965,None,,,,,0,0,0,0,0,23,23,118,157.18181467056274,,,,,,,,,,,,,,,,,,,,,,,,,,,,,,,,,,,,,,,,,,,,,,,,,,,,,,,,,,,,,,,,,,,,,,,,,,,,,,,,,133.0,57.0,78.0,78.0,57.0,133.0,4.0,4.1,-164,-282,0,15,202,-277,157.16724181175232,157.16728401184082,157.1698157787323,157.18181467056274,157.33195304870605,157.33195304870605,157.33195304870605,157.33195304870605,157.33195304870605,157.33195304870605,157.33195304870605,158.81661009788513,1,1.6313910484313965,None,,,,,,,,,,,,,,,,,,10,5,2025-02-18_13h02.06.621,comp,2024.2.4,60.126925420205716,2025-02-18 13h02.40.927064 -0500,
24,24,0,critical,hdw,20.0,2.1,upper,200.0,125.0,141.0,141.0,125.0,200.0,3,2.5335612297058105,None,,,,,0,0,0,0,0,24,24,47,158.83203172683716,,,,,,,,,,,,,,,,,,,,,,,,,,,,,,,,,,,,,,,,,,,,,,,,,,,,,,,,,,,,,,,,,,,,,,,,,,,,,,,,,200.0,125.0,141.0,141.0,125.0,200.0,2.1,2.11,-229,269,0,267,266,-277,158.81745553016663,158.8174979686737,158.82004356384277,158.83203172683716,158.9821445941925,158.9821445941925,158.9821445941925,158.9821445941925,158.9821445941925,158.9821445941925,158.9821445941925,161.366849899292,3,2.5335612297058105,None,,,,,,,,,,,,,,,,,,10,5,2025-02-18_13h02.06.621,comp,2024.2.4,60.126925420205716,2025-02-18 13h02.40.927064 -0500,
25,25,0,filler_square,None,None,None,None,None,None,None,None,None,None,3,1.9669687747955322,None,,,,,0,0,0,0,0,25,25,195,161.3821098804474,,,,,,,,,,,,,,,,,,,,,,,,,,,,,,,,,,,,,,,,,,,,,,,,,,,,,,,,,,,,,,,,,,,,,,,,,,,,,,,,,59.717104839836445,60.16019443031053,57.434563055960666,59.20425029620823,60.77434982672199,60.77434982672199,2.2,2.21,-156,-262,0,283,156,259,161.36782670021057,161.3678686618805,161.37005877494812,161.3821098804474,161.53186130523682,161.53186130523682,161.53186130523682,161.53186130523682,161.53186130523682,161.53186130523682,161.53186130523682,163.35053658485413,3,1.9669687747955322,None,,,,,,,,,,,,,,,,,,10,5,2025-02-18_13h02.06.621,comp,2024.2.4,60.126925420205716,2025-02-18 13h02.40.927064 -0500,
26,26,0,critical,hwd,20.0,4.0,upper,200.0,125.0,125.0,200.0,141.0,141.0,1,3.2210919857025146,None,,,,,0,0,0,0,0,26,26,107,163.36544466018677,,,,,,,,,,,,,,,,,,,,,,,,,,,,,,,,,,,,,,,,,,,,,,,,,,,,,,,,,,,,,,,,,,,,,,,,,,,,,,,,,200.0,125.0,125.0,200.0,141.0,141.0,4.0,4.1,-258,-257,0,12,266,-278,163.3513376712799,163.3513777256012,163.35384130477905,163.36544466018677,163.51533198356628,163.51533198356628,163.51533198356628,163.51533198356628,163.51533198356628,163.51533198356628,163.51533198356628,166.59986925125122,1,3.2210919857025146,None,,,,,,,,,,,,,,,,,,10,5,2025-02-18_13h02.06.621,comp,2024.2.4,60.126925420205716,2025-02-18 13h02.40.927064 -0500,
27,27,0,filler_square,None,None,None,None,None,None,None,None,None,None,1,1.78239107131958,None,,,,,0,0,0,0,0,27,27,171,166.61504292488098,,,,,,,,,,,,,,,,,,,,,,,,,,,,,,,,,,,,,,,,,,,,,,,,,,,,,,,,,,,,,,,,,,,,,,,,,,,,,,,,,143.45877673776943,143.45877673776943,120.26066622560764,121.86224947709611,127.01225391874297,68.5881567377232,4.0,4.2,-229,19,0,-285,191,-8,166.60084772109985,166.60088896751404,166.60353469848633,166.61504292488098,166.76521134376526,166.76521134376526,166.76521134376526,166.76521134376526,166.76521134376526,166.76521134376526,166.76521134376526,168.39971709251404,1,1.78239107131958,None,,,,,,,,,,,,,,,,,,10,5,2025-02-18_13h02.06.621,comp,2024.2.4,60.126925420205716,2025-02-18 13h02.40.927064 -0500,
28,28,0,filler_square,None,None,None,None,None,None,None,None,None,None,3,1.7392089366912842,None,,,,,0,0,0,0,0,28,28,187,168.41526436805725,,,,,,,,,,,,,,,,,,,,,,,,,,,,,,,,,,,,,,,,,,,,,,,,,,,,,,,,,,,,,,,,,,,,,,,,,,,,,,,,,87.38644968331644,127.59737886922137,104.91403967709668,136.2503827376712,140.64567581018338,140.64567581018338,2.1,2.12,-228,-273,0,-266,234,283,168.4007077217102,168.40074968338013,168.40324521064758,168.41526436805725,168.56526374816895,168.56526374816895,168.56526374816895,168.56526374816895,168.56526374816895,168.56526374816895,168.56526374816895,170.16681957244873,3,1.7392089366912842,None,,,,,,,,,,,,,,,,,,10,5,2025-02-18_13h02.06.621,comp,2024.2.4,60.126925420205716,2025-02-18 13h02.40.927064 -0500,
29,29,0,critical,wdh,35.0,3.0,lower,57.0,133.0,70.0,70.0,133.0,57.0,3,2.615539073944092,None,,,,,0,0,0,0,0,29,29,74,170.18166780471802,,,,,,,,,,,,,,,,,,,,,,,,,,,,,,,,,,,,,,,,,,,,,,,,,,,,,,,,,,,,,,,,,,,,,,,,,,,,,,,,,57.0,133.0,70.0,70.0,133.0,57.0,3.0,3.2,-198,-266,0,12,160,275,170.16765475273132,170.1676950454712,170.1702320575714,170.18166780471802,170.3317527770996,170.3317527770996,170.3317527770996,170.3317527770996,170.3317527770996,170.3317527770996,170.3317527770996,172.79956221580505,3,2.615539073944092,None,,,,,,,,,,,,,,,,,,10,5,2025-02-18_13h02.06.621,comp,2024.2.4,60.126925420205716,2025-02-18 13h02.40.927064 -0500,
30,30,0,critical,whd,35.0,2.1,lower,57.0,133.0,133.0,57.0,70.0,70.0,2,1.5392858982086182,None,,,,,0,0,0,0,0,30,30,12,172.8151512145996,,,,,,,,,,,,,,,,,,,,,,,,,,,,,,,,,,,,,,,,,,,,,,,,,,,,,,,,,,,,,,,,,,,,,,,,,,,,,,,,,57.0,133.0,133.0,57.0,70.0,70.0,2.1,2.12,-191,-253,0,-283,160,254,172.80040788650513,172.80044984817505,172.80258131027222,172.8151512145996,172.96508407592773,172.96508407592773,172.96508407592773,172.96508407592773,172.96508407592773,172.96508407592773,172.96508407592773,174.36643075942993,2,1.5392858982086182,None,,,,,,,,,,,,,,,,,,10,5,2025-02-18_13h02.06.621,comp,2024.2.4,60.126925420205716,2025-02-18 13h02.40.927064 -0500,
31,31,0,catch,None,None,None,None,None,None,None,None,None,None,1,1.3580331802368164,None,,,,,0,0,0,0,0,31,31,122,174.38165307044983,,,,,,,,,,,,,,,,,,,,,,,,,,,,,,,,,,,,,,,,,,,,,,,,,,,,,,,,,,,,,,,,,,,,,,,,,,,,,,,,,149,176,75,115,63,127,2.1,2.11,-242,279,0,275,217,-253,174.36751890182495,174.36756205558777,174.3701355457306,174.38165307044983,174.53180146217346,174.53180146217346,174.53180146217346,174.53180146217346,174.53180146217346,174.53180146217346,174.53180146217346,175.74963092803955,1,1.3580331802368164,None,,,,,,,,,,,,,,,,,,10,5,2025-02-18_13h02.06.621,comp,2024.2.4,60.126925420205716,2025-02-18 13h02.40.927064 -0500,
32,32,0,filler_random,None,None,None,None,None,None,None,None,None,None,3,1.7104523181915283,None,,,,,0,0,0,0,0,32,32,138,175.76507997512817,,,,,,,,,,,,,,,,,,,,,,,,,,,,,,,,,,,,,,,,,,,,,,,,,,,,,,,,,,,,,,,,,,,,,,,,,,,,,,,,,84.45498836590079,99.15618652352612,111.22906538063741,72.53138933332256,181.68658228755606,186.4532612206993,3.0,3.1,-182,273,0,5,225,-287,175.75063490867615,175.75067520141602,175.75356364250183,175.76507997512817,175.91512250900269,175.91512250900269,175.91512250900269,175.91512250900269,175.91512250900269,175.91512250900269,175.91512250900269,177.48289895057678,3,1.7104523181915283,None,,,,,,,,,,,,,,,,,,10,5,2025-02-18_13h02.06.621,comp,2024.2.4,60.126925420205716,2025-02-18 13h02.40.927064 -0500,
33,33,0,critical,hwd,20.0,2.1,lower,133.0,57.0,57.0,133.0,78.0,78.0,1,3.7839889526367188,None,,,,,0,0,0,0,0,33,33,18,177.49853372573853,,,,,,,,,,,,,,,,,,,,,,,,,,,,,,,,,,,,,,,,,,,,,,,,,,,,,,,,,,,,,,,,,,,,,,,,,,,,,,,,,133.0,57.0,57.0,133.0,78.0,78.0,2.1,2.11,-191,259,0,271,202,-267,177.4837510585785,177.483793258667,177.48615407943726,177.49853372573853,177.64821243286133,177.64821243286133,177.64821243286133,177.64821243286133,177.64821243286133,177.64821243286133,177.64821243286133,181.299560546875,1,3.7839889526367188,None,,,,,,,,,,,,,,,,,,10,5,2025-02-18_13h02.06.621,comp,2024.2.4,60.126925420205716,2025-02-18 13h02.40.927064 -0500,
34,34,0,critical,dwh,35.0,4.0,lower,70.0,70.0,57.0,133.0,133.0,57.0,3,2.3926780223846436,None,,,,,0,0,0,0,0,34,34,64,181.33144545555115,,,,,,,,,,,,,,,,,,,,,,,,,,,,,,,,,,,,,,,,,,,,,,,,,,,,,,,,,,,,,,,,,,,,,,,,,,,,,,,,,70.0,70.0,57.0,133.0,133.0,57.0,4.0,4.1,-198,-260,0,-1,191,-256,181.30039763450623,181.30043959617615,181.30297565460205,181.33144545555115,181.46498322486877,181.46498322486877,181.46498322486877,181.46498322486877,181.46498322486877,181.46498322486877,181.46498322486877,183.73294949531555,3,2.3926780223846436,None,,,,,,,,,,,,,,,,,,10,5,2025-02-18_13h02.06.621,comp,2024.2.4,60.126925420205716,2025-02-18 13h02.40.927064 -0500,
35,35,0,filler_random,None,None,None,None,None,None,None,None,None,None,3,2.783569097518921,None,,,,,0,0,0,0,0,35,35,147,183.74852442741394,,,,,,,,,,,,,,,,,,,,,,,,,,,,,,,,,,,,,,,,,,,,,,,,,,,,,,,,,,,,,,,,,,,,,,,,,,,,,,,,,142.1680091669994,155.0611722117067,90.02557515965546,197.39837152783173,171.8047409517203,147.55389987121146,2.2,2.21,-272,-275,0,268,268,258,183.73388838768005,183.73393082618713,183.7365279197693,183.74852442741394,183.89845991134644,183.89845991134644,183.89845991134644,183.89845991134644,183.89845991134644,183.89845991134644,183.89845991134644,186.54949235916138,3,2.783569097518921,None,,,,,,,,,,,,,,,,,,10,5,2025-02-18_13h02.06.621,comp,2024.2.4,60.126925420205716,2025-02-18 13h02.40.927064 -0500,
36,36,0,filler_square,None,None,None,None,None,None,None,None,None,None,1,1.0626614093780518,None,,,,,0,0,0,0,0,36,36,201,186.56475377082825,,,,,,,,,,,,,,,,,,,,,,,,,,,,,,,,,,,,,,,,,,,,,,,,,,,,,,,,,,,,,,,,,,,,,,,,,,,,,,,,,167.25682370364927,167.25682370364927,150.17207742480096,159.1813662005666,148.7089708632431,58.48068239147987,2.2,2.21,-259,-268,0,281,205,275,186.55048060417175,186.5505232810974,186.55307388305664,186.56475377082825,186.71504998207092,186.71504998207092,186.71504998207092,186.71504998207092,186.71504998207092,186.71504998207092,186.71504998207092,187.63302850723267,1,1.0626614093780518,None,,,,,,,,,,,,,,,,,,10,5,2025-02-18_13h02.06.621,comp,2024.2.4,60.126925420205716,2025-02-18 13h02.40.927064 -0500,
37,37,0,filler_square,None,None,None,None,None,None,None,None,None,None,2,0.97916579246521,None,,,,,0,0,0,0,0,37,37,205,187.6482639312744,,,,,,,,,,,,,,,,,,,,,,,,,,,,,,,,,,,,,,,,,,,,,,,,,,,,,,,,,,,,,,,,,,,,,,,,,,,,,,,,,84.37727253159326,111.48945907591744,136.0559861906337,136.0559861906337,82.0211043448057,114.22025967449503,2.1,2.11,-220,286,0,255,221,-282,187.6340103149414,187.63405203819275,187.63675236701965,187.6482639312744,187.79819917678833,187.79819917678833,187.79819917678833,187.79819917678833,187.79819917678833,187.79819917678833,187.79819917678833,188.6328251361847,2,0.97916579246521,None,,,,,,,,,,,,,,,,,,10,5,2025-02-18_13h02.06.621,comp,2024.2.4,60.126925420205716,2025-02-18 13h02.40.927064 -0500,
38,38,0,critical,dhw,35.0,3.0,lower,70.0,70.0,133.0,57.0,57.0,133.0,3,1.5324838161468506,None,,,,,0,0,0,0,0,38,38,50,188.6483473777771,,,,,,,,,,,,,,,,,,,,,,,,,,,,,,,,,,,,,,,,,,,,,,,,,,,,,,,,,,,,,,,,,,,,,,,,,,,,,,,,,70.0,70.0,133.0,57.0,57.0,133.0,3.0,3.1,-160,259,0,-12,191,-275,188.633624792099,188.63366675376892,188.63636565208435,188.6483473777771,188.79829001426697,188.79829001426697,188.79829001426697,188.79829001426697,188.79829001426697,188.79829001426697,188.79829001426697,190.182776927948,3,1.5324838161468506,None,,,,,,,,,,,,,,,,,,10,5,2025-02-18_13h02.06.621,comp,2024.2.4,60.126925420205716,2025-02-18 13h02.40.927064 -0500,
39,39,0,critical,dwh,20.0,2.1,upper,141.0,141.0,125.0,200.0,200.0,125.0,2,1.892960548400879,None,,,,,0,0,0,0,0,39,39,7,190.198237657547,,,,,,,,,,,,,,,,,,,,,,,,,,,,,,,,,,,,,,,,,,,,,,,,,,,,,,,,,,,,,,,,,,,,,,,,,,,,,,,,,141.0,141.0,125.0,200.0,200.0,125.0,2.1,2.12,-266,-287,0,-251,258,287,190.1836097240448,190.1836519241333,190.18590807914734,190.198237657547,190.34847807884216,190.34847807884216,190.34847807884216,190.34847807884216,190.34847807884216,190.34847807884216,190.34847807884216,192.0995831489563,2,1.892960548400879,None,,,,,,,,,,,,,,,,,,10,5,2025-02-18_13h02.06.621,comp,2024.2.4,60.126925420205716,2025-02-18 13h02.40.927064 -0500,
40,40,0,critical,hwd,35.0,2.1,upper,200.0,125.0,125.0,200.0,127.0,127.0,1,1.6248493194580078,None,,,,,0,0,0,0,0,40,40,41,192.11503529548645,,,,,,,,,,,,,,,,,,,,,,,,,,,,,,,,,,,,,,,,,,,,,,,,,,,,,,,,,,,,,,,,,,,,,,,,,,,,,,,,,200.0,125.0,125.0,200.0,127.0,127.0,2.1,2.11,-258,260,0,280,260,-261,192.10051274299622,192.1005561351776,192.10280871391296,192.11503529548645,192.26500177383423,192.26500177383423,192.26500177383423,192.26500177383423,192.26500177383423,192.26500177383423,192.26500177383423,193.74939107894897,1,1.6248493194580078,None,,,,,,,,,,,,,,,,,,10,5,2025-02-18_13h02.06.621,comp,2024.2.4,60.126925420205716,2025-02-18 13h02.40.927064 -0500,
41,41,0,critical,hwd,20.0,4.0,lower,133.0,57.0,57.0,133.0,78.0,78.0,1,2.6786727905273438,None,,,,,0,0,0,0,0,41,41,106,193.76487350463867,,,,,,,,,,,,,,,,,,,,,,,,,,,,,,,,,,,,,,,,,,,,,,,,,,,,,,,,,,,,,,,,,,,,,,,,,,,,,,,,,133.0,57.0,57.0,133.0,78.0,78.0,4.0,4.1,-191,-276,0,-11,202,-267,193.7502236366272,193.75026679039001,193.7527768611908,193.76487350463867,193.9147834777832,193.9147834777832,193.9147834777832,193.9147834777832,193.9147834777832,193.9147834777832,193.9147834777832,196.4493010044098,1,2.6786727905273438,None,,,,,,,,,,,,,,,,,,10,5,2025-02-18_13h02.06.621,comp,2024.2.4,60.126925420205716,2025-02-18 13h02.40.927064 -0500,
42,42,0,critical,dhw,35.0,2.1,lower,70.0,70.0,133.0,57.0,57.0,133.0,2,2.6583447456359863,None,,,,,0,0,0,0,0,42,42,24,196.46494340896606,,,,,,,,,,,,,,,,,,,,,,,,,,,,,,,,,,,,,,,,,,,,,,,,,,,,,,,,,,,,,,,,,,,,,,,,,,,,,,,,,70.0,70.0,133.0,57.0,57.0,133.0,2.1,2.11,-160,272,0,288,191,-271,196.45011448860168,196.45015597343445,196.45237636566162,196.46494340896606,196.6147186756134,196.6147186756134,196.6147186756134,196.6147186756134,196.6147186756134,196.6147186756134,196.6147186756134,199.13262009620667,2,2.6583447456359863,None,,,,,,,,,,,,,,,,,,10,5,2025-02-18_13h02.06.621,comp,2024.2.4,60.126925420205716,2025-02-18 13h02.40.927064 -0500,
43,43,0,catch,None,None,None,None,None,None,None,None,None,None,3,1.3179666996002197,None,,,,,0,0,0,0,0,43,43,120,199.1482789516449,,,,,,,,,,,,,,,,,,,,,,,,,,,,,,,,,,,,,,,,,,,,,,,,,,,,,,,,,,,,,,,,,,,,,,,,,,,,,,,,,100,90,94,96,155,170,3.0,3.2,-189,-281,0,-13,229,258,199.1336944103241,199.1337378025055,199.136372089386,199.1482789516449,199.29816555976868,199.29816555976868,199.29816555976868,199.29816555976868,199.29816555976868,199.29816555976868,199.29816555976868,200.4825084209442,3,1.3179666996002197,None,,,,,,,,,,,,,,,,,,10,5,2025-02-18_13h02.06.621,comp,2024.2.4,60.126925420205716,2025-02-18 13h02.40.927064 -0500,
44,44,0,critical,dwh,35.0,1.0,upper,127.0,127.0,125.0,200.0,200.0,125.0,2,6.833818197250366,None,,,,,0,0,0,0,0,44,44,61,200.49793481826782,,,,,,,,,,,,,,,,,,,,,,,,,,,,,,,,,,,,,,,,,,,,,,,,,,,,,,,,,,,,,,,,,,,,,,,,,,,,,,,,,127.0,127.0,125.0,200.0,200.0,125.0,1.0,1.3,220,-254,480,-268,738,-257,200.48328232765198,200.48332142829895,200.48587107658386,200.49793481826782,200.64829778671265,200.64829778671265,200.64829778671265,200.64829778671265,200.64829778671265,200.64829778671265,200.64829778671265,207.34937691688538,2,6.833818197250366,None,,,,,,,,,,,,,,,,,,10,5,2025-02-18_13h02.06.621,comp,2024.2.4,60.126925420205716,2025-02-18 13h02.40.927064 -0500,
45,45,0,critical,wdh,35.0,2.1,upper,125.0,200.0,127.0,127.0,200.0,125.0,1,2.800339698791504,None,,,,,0,0,0,0,0,45,45,33,207.36466646194458,,,,,,,,,,,,,,,,,,,,,,,,,,,,,,,,,,,,,,,,,,,,,,,,,,,,,,,,,,,,,,,,,,,,,,,,,,,,,,,,,125.0,200.0,127.0,127.0,200.0,125.0,2.1,2.12,-260,-265,0,-269,222,253,207.3502004146576,207.3502414226532,207.3536832332611,207.36466646194458,207.51484298706055,207.51484298706055,207.51484298706055,207.51484298706055,207.51484298706055,207.51484298706055,207.51484298706055,210.16632342338562,1,2.800339698791504,None,,,,,,,,,,,,,,,,,,10,5,2025-02-18_13h02.06.621,comp,2024.2.4,60.126925420205716,2025-02-18 13h02.40.927064 -0500,
46,46,0,filler_square,None,None,None,None,None,None,None,None,None,None,1,1.4212169647216797,None,,,,,0,0,0,0,0,46,46,189,210.18146276474,,,,,,,,,,,,,,,,,,,,,,,,,,,,,,,,,,,,,,,,,,,,,,,,,,,,,,,,,,,,,,,,,,,,,,,,,,,,,,,,,86.08755780015065,86.08755780015065,58.70779022846129,82.4020901847321,61.59472318810928,73.88150319200899,1.0,1.2,-180,13,0,3,174,-14,210.167462348938,210.16750693321228,210.17013025283813,210.18146276474,210.33118748664856,210.33118748664856,210.33118748664856,210.33118748664856,210.33118748664856,210.33118748664856,210.33118748664856,211.6157786846161,1,1.4212169647216797,None,,,,,,,,,,,,,,,,,,10,5,2025-02-18_13h02.06.621,comp,2024.2.4,60.126925420205716,2025-02-18 13h02.40.927064 -0500,
47,47,0,critical,hdw,20.0,2.1,lower,133.0,57.0,78.0,78.0,57.0,133.0,1,2.596055030822754,None,,,,,0,0,0,0,0,47,47,22,211.63110780715942,,,,,,,,,,,,,,,,,,,,,,,,,,,,,,,,,,,,,,,,,,,,,,,,,,,,,,,,,,,,,,,,,,,,,,,,,,,,,,,,,133.0,57.0,78.0,78.0,57.0,133.0,2.1,2.12,-164,-263,0,-258,202,275,211.61659717559814,211.61664032936096,211.61929440498352,211.63110780715942,211.78118443489075,211.78118443489075,211.78118443489075,211.78118443489075,211.78118443489075,211.78118443489075,211.78118443489075,214.2325303554535,1,2.596055030822754,None,,,,,,,,,,,,,,,,,,10,5,2025-02-18_13h02.06.621,comp,2024.2.4,60.126925420205716,2025-02-18 13h02.40.927064 -0500,
48,48,0,critical,dhw,35.0,1.0,lower,70.0,70.0,133.0,57.0,57.0,133.0,2,1.2502999305725098,None,,,,,0,0,0,0,0,48,48,48,214.2480058670044,,,,,,,,,,,,,,,,,,,,,,,,,,,,,,,,,,,,,,,,,,,,,,,,,,,,,,,,,,,,,,,,,,,,,,,,,,,,,,,,,70.0,70.0,133.0,57.0,57.0,133.0,1.0,1.2,-160,-17,0,13,191,13,214.23335456848145,214.23339676856995,214.2359104156494,214.2480058670044,214.39786529541016,214.39786529541016,214.39786529541016,214.39786529541016,214.39786529541016,214.39786529541016,214.39786529541016,215.51561522483826,2,1.2502999305725098,None,,,,,,,,,,,,,,,,,,10,5,2025-02-18_13h02.06.621,comp,2024.2.4,60.126925420205716,2025-02-18 13h02.40.927064 -0500,
49,49,0,critical,hdw,35.0,4.0,upper,200.0,125.0,127.0,127.0,125.0,200.0,1,4.2957563400268555,None,,,,,0,0,0,0,0,49,49,113,215.53105425834656,,,,,,,,,,,,,,,,,,,,,,,,,,,,,,,,,,,,,,,,,,,,,,,,,,,,,,,,,,,,,,,,,,,,,,,,,,,,,,,,,200.0,125.0,127.0,127.0,125.0,200.0,4.0,4.2,-222,-1,0,-262,260,9,215.51653003692627,215.51657128334045,215.51932573318481,215.53105425834656,215.68140649795532,215.68140649795532,215.68140649795532,215.68140649795532,215.68140649795532,215.68140649795532,215.68140649795532,219.83270406723022,1,4.2957563400268555,None,,,,,,,,,,,,,,,,,,10,5,2025-02-18_13h02.06.621,comp,2024.2.4,60.126925420205716,2025-02-18 13h02.40.927064 -0500,
50,50,0,filler_square,None,None,None,None,None,None,None,None,None,None,2,1.043060541152954,None,,,,,0,0,0,0,0,50,50,182,219.8480315208435,,,,,,,,,,,,,,,,,,,,,,,,,,,,,,,,,,,,,,,,,,,,,,,,,,,,,,,,,,,,,,,,,,,,,,,,,,,,,,,,,57.42177252805615,95.73243156977439,120.03923550266772,120.03923550266772,83.9168798186783,58.19124479119204,3.0,3.2,-204,-261,0,-10,185,271,219.833722114563,219.83376550674438,219.83633732795715,219.8480315208435,219.99780321121216,219.99780321121216,219.99780321121216,219.99780321121216,219.99780321121216,219.99780321121216,219.99780321121216,220.89902997016907,2,1.043060541152954,None,,,,,,,,,,,,,,,,,,10,5,2025-02-18_13h02.06.621,comp,2024.2.4,60.126925420205716,2025-02-18 13h02.40.927064 -0500,
51,51,0,filler_random,None,None,None,None,None,None,None,None,None,None,1,1.5442819595336914,None,,,,,0,0,0,0,0,51,51,164,220.9145064353943,,,,,,,,,,,,,,,,,,,,,,,,,,,,,,,,,,,,,,,,,,,,,,,,,,,,,,,,,,,,,,,,,,,,,,,,,,,,,,,,,129.0928592687709,147.39602622455712,139.39381404615,59.376990859301564,97.90401411825727,160.9403820689689,4.0,4.2,-199,7,0,-255,206,-11,220.8999538421631,220.89999556541443,220.90283060073853,220.9145064353943,221.06454586982727,221.06454586982727,221.06454586982727,221.06454586982727,221.06454586982727,221.06454586982727,221.06454586982727,222.4657621383667,1,1.5442819595336914,None,,,,,,,,,,,,,,,,,,10,5,2025-02-18_13h02.06.621,comp,2024.2.4,60.126925420205716,2025-02-18 13h02.40.927064 -0500,
52,52,0,filler_square,None,None,None,None,None,None,None,None,None,None,2,0.8668253421783447,None,,,,,0,0,0,0,0,52,52,196,222.48126935958862,,,,,,,,,,,,,,,,,,,,,,,,,,,,,,,,,,,,,,,,,,,,,,,,,,,,,,,,,,,,,,,,,,,,,,,,,,,,,,,,,105.61916142021103,119.4030051580772,123.48418575226181,123.48418575226181,72.57854413830057,75.7093179568646,4.0,4.1,-217,-251,0,1,196,-257,222.46683621406555,222.4668788909912,222.46918773651123,222.48126935958862,222.6311957836151,222.6311957836151,222.6311957836151,222.6311957836151,222.6311957836151,222.6311957836151,222.6311957836151,223.3656587600708,2,0.8668253421783447,None,,,,,,,,,,,,,,,,,,10,5,2025-02-18_13h02.06.621,comp,2024.2.4,60.126925420205716,2025-02-18 13h02.40.927064 -0500,
53,53,0,critical,hdw,35.0,3.0,upper,200.0,125.0,127.0,127.0,125.0,200.0,1,4.053403854370117,None,,,,,0,0,0,0,0,53,53,111,223.38105416297913,,,,,,,,,,,,,,,,,,,,,,,,,,,,,,,,,,,,,,,,,,,,,,,,,,,,,,,,,,,,,,,,,,,,,,,,,,,,,,,,,200.0,125.0,127.0,127.0,125.0,200.0,3.0,3.1,-222,262,0,5,260,-286,223.3664903640747,223.3665316104889,223.3691816329956,223.38105416297913,223.53138661384583,223.53138661384583,223.53138661384583,223.53138661384583,223.53138661384583,223.53138661384583,223.53138661384583,227.44916248321533,1,4.053403854370117,None,,,,,,,,,,,,,,,,,,10,5,2025-02-18_13h02.06.621,comp,2024.2.4,60.126925420205716,2025-02-18 13h02.40.927064 -0500,
54,54,0,critical,dhw,35.0,3.0,upper,127.0,127.0,200.0,125.0,125.0,200.0,2,1.7701051235198975,None,,,,,0,0,0,0,0,54,54,51,227.46418452262878,,,,,,,,,,,,,,,,,,,,,,,,,,,,,,,,,,,,,,,,,,,,,,,,,,,,,,,,,,,,,,,,,,,,,,,,,,,,,,,,,127.0,127.0,200.0,125.0,125.0,200.0,3.0,3.2,-222,-281,0,7,258,256,227.4499795436859,227.4500207901001,227.45245957374573,227.46418452262878,227.61460304260254,227.61460304260254,227.61460304260254,227.61460304260254,227.61460304260254,227.61460304260254,227.61460304260254,229.24907636642456,2,1.7701051235198975,None,,,,,,,,,,,,,,,,,,10,5,2025-02-18_13h02.06.621,comp,2024.2.4,60.126925420205716,2025-02-18 13h02.40.927064 -0500,
55,55,0,filler_random,None,None,None,None,None,None,None,None,None,None,1,1.1536366939544678,None,,,,,0,0,0,0,0,55,55,157,229.26418828964233,,,,,,,,,,,,,,,,,,,,,,,,,,,,,,,,,,,,,,,,,,,,,,,,,,,,,,,,,,,,,,,,,,,,,,,,,,,,,,,,,179.16648583779858,158.01888376026125,141.3838384756133,147.08771592058326,138.30970861096205,95.46703765702799,2.1,2.11,-249,251,0,265,217,-274,229.25001692771912,229.25005865097046,229.25248551368713,229.26418828964233,229.41450905799866,229.41450905799866,229.41450905799866,229.41450905799866,229.41450905799866,229.41450905799866,229.41450905799866,230.43224358558655,1,1.1536366939544678,None,,,,,,,,,,,,,,,,,,10,5,2025-02-18_13h02.06.621,comp,2024.2.4,60.126925420205716,2025-02-18 13h02.40.927064 -0500,
56,56,0,filler_random,None,None,None,None,None,None,None,None,None,None,1,1.5381956100463867,None,,,,,0,0,0,0,0,56,56,141,230.44753885269165,,,,,,,,,,,,,,,,,,,,,,,,,,,,,,,,,,,,,,,,,,,,,,,,,,,,,,,,,,,,,,,,,,,,,,,,,,,,,,,,,152.54623348880477,187.39161115691368,108.7393906740511,130.07142284148858,182.98128229322222,58.52622985466658,1.0,1.3,225,-253,480,-276,670,-272,230.4331567287445,230.43319749832153,230.43570160865784,230.44753885269165,230.5977864265442,230.5977864265442,230.5977864265442,230.5977864265442,230.5977864265442,230.5977864265442,230.5977864265442,231.99880146980286,1,1.5381956100463867,None,,,,,,,,,,,,,,,,,,10,5,2025-02-18_13h02.06.621,comp,2024.2.4,60.126925420205716,2025-02-18 13h02.40.927064 -0500,
57,57,0,filler_random,None,None,None,None,None,None,None,None,None,None,1,2.2839746475219727,None,,,,,0,0,0,0,0,57,57,155,232.014142036438,,,,,,,,,,,,,,,,,,,,,,,,,,,,,,,,,,,,,,,,,,,,,,,,,,,,,,,,,,,,,,,,,,,,,,,,,,,,,,,,,155.84048054560867,86.62187148747469,87.34885849320082,124.70076980423089,152.33132228724122,97.40975517695776,2.1,2.12,-202,-264,0,-274,207,285,231.99974155426025,231.99978303909302,232.00244283676147,232.014142036438,232.16443133354187,232.16443133354187,232.16443133354187,232.16443133354187,232.16443133354187,232.16443133354187,232.16443133354187,234.31554508209229,1,2.2839746475219727,None,,,,,,,,,,,,,,,,,,10,5,2025-02-18_13h02.06.621,comp,2024.2.4,60.126925420205716,2025-02-18 13h02.40.927064 -0500,
58,58,0,critical,whd,20.0,3.0,upper,125.0,200.0,200.0,125.0,141.0,141.0,2,0.9190030097961426,None,,,,,0,0,0,0,0,58,58,93,234.3308756351471,,,,,,,,,,,,,,,,,,,,,,,,,,,,,,,,,,,,,,,,,,,,,,,,,,,,,,,,,,,,,,,,,,,,,,,,,,,,,,,,,125.0,200.0,200.0,125.0,141.0,141.0,3.0,3.2,-258,-284,0,12,229,276,234.31634998321533,234.31639170646667,234.31892561912537,234.3308756351471,234.48116970062256,234.48116970062256,234.48116970062256,234.48116970062256,234.48116970062256,234.48116970062256,234.48116970062256,235.2656397819519,2,0.9190030097961426,None,,,,,,,,,,,,,,,,,,10,5,2025-02-18_13h02.06.621,comp,2024.2.4,60.126925420205716,2025-02-18 13h02.40.927064 -0500,
59,59,0,critical,dhw,20.0,1.0,lower,78.0,78.0,133.0,57.0,57.0,133.0,2,4.168767213821411,None,,,,,0,0,0,0,0,59,59,54,235.28089380264282,,,,,,,,,,,,,,,,,,,,,,,,,,,,,,,,,,,,,,,,,,,,,,,,,,,,,,,,,,,,,,,,,,,,,,,,,,,,,,,,,78.0,78.0,133.0,57.0,57.0,133.0,1.0,1.1,-644,259,-480,277,-289,276,235.26647353172302,235.26651525497437,235.26903080940247,235.28089380264282,235.43108105659485,235.43108105659485,235.43108105659485,235.43108105659485,235.43108105659485,235.43108105659485,235.43108105659485,239.46536898612976,2,4.168767213821411,None,,,,,,,,,,,,,,,,,,10,5,2025-02-18_13h02.06.621,comp,2024.2.4,60.126925420205716,2025-02-18 13h02.40.927064 -0500,
60,60,0,critical,dhw,20.0,2.1,upper,141.0,141.0,200.0,125.0,125.0,200.0,3,3.1304869651794434,None,,,,,0,0,0,0,0,60,60,27,239.48075652122498,,,,,,,,,,,,,,,,,,,,,,,,,,,,,,,,,,,,,,,,,,,,,,,,,,,,,,,,,,,,,,,,,,,,,,,,,,,,,,,,,141.0,141.0,200.0,125.0,125.0,200.0,2.1,2.11,-229,288,0,272,258,-252,239.46619629859924,239.46623826026917,239.46872282028198,239.48075652122498,239.63142013549805,239.63142013549805,239.63142013549805,239.63142013549805,239.63142013549805,239.63142013549805,239.63142013549805,242.61549472808838,3,3.1304869651794434,None,,,,,,,,,,,,,,,,,,10,5,2025-02-18_13h02.06.621,comp,2024.2.4,60.126925420205716,2025-02-18 13h02.40.927064 -0500,
61,61,0,catch,None,None,None,None,None,None,None,None,None,None,2,0.9334578514099121,None,,,,,0,0,0,0,0,61,61,129,242.63089275360107,,,,,,,,,,,,,,,,,,,,,,,,,,,,,,,,,,,,,,,,,,,,,,,,,,,,,,,,,,,,,,,,,,,,,,,,,,,,,,,,,60,130,153,172,89,101,2.2,2.22,-247,257,0,-279,232,-269,242.6165328025818,242.6165738105774,242.61881637573242,242.63089275360107,242.78088331222534,242.78088331222534,242.78088331222534,242.78088331222534,242.78088331222534,242.78088331222534,242.78088331222534,243.56556153297424,2,0.9334578514099121,None,,,,,,,,,,,,,,,,,,10,5,2025-02-18_13h02.06.621,comp,2024.2.4,60.126925420205716,2025-02-18 13h02.40.927064 -0500,
62,62,0,critical,dhw,20.0,2.1,upper,141.0,141.0,200.0,125.0,125.0,200.0,2,4.1337668895721436,None,,,,,0,0,0,0,0,62,62,3,243.58088850975037,,,,,,,,,,,,,,,,,,,,,,,,,,,,,,,,,,,,,,,,,,,,,,,,,,,,,,,,,,,,,,,,,,,,,,,,,,,,,,,,,141.0,141.0,200.0,125.0,125.0,200.0,2.1,2.11,-229,278,0,260,258,-255,243.5663812160492,243.56642413139343,243.56871008872986,243.58088850975037,243.73113489151,243.73113489151,243.73113489151,243.73113489151,243.73113489151,243.73113489151,243.73113489151,247.73206090927124,2,4.1337668895721436,None,,,,,,,,,,,,,,,,,,10,5,2025-02-18_13h02.06.621,comp,2024.2.4,60.126925420205716,2025-02-18 13h02.40.927064 -0500,
63,63,0,critical,hwd,20.0,2.1,lower,133.0,57.0,57.0,133.0,78.0,78.0,1,2.89508056640625,None,,,,,0,0,0,0,0,63,63,42,247.74737191200256,,,,,,,,,,,,,,,,,,,,,,,,,,,,,,,,,,,,,,,,,,,,,,,,,,,,,,,,,,,,,,,,,,,,,,,,,,,,,,,,,133.0,57.0,57.0,133.0,78.0,78.0,2.1,2.12,-191,-283,0,-271,202,277,247.73290848731995,247.73295140266418,247.73562097549438,247.74737191200256,247.89745140075684,247.89745140075684,247.89745140075684,247.89745140075684,247.89745140075684,247.89745140075684,247.89745140075684,250.6484613418579,1,2.89508056640625,None,,,,,,,,,,,,,,,,,,10,5,2025-02-18_13h02.06.621,comp,2024.2.4,60.126925420205716,2025-02-18 13h02.40.927064 -0500,
64,64,0,critical,hwd,35.0,3.0,lower,133.0,57.0,57.0,133.0,70.0,70.0,1,5.442316055297852,None,,,,,0,0,0,0,0,64,64,98,250.66411805152893,,,,,,,,,,,,,,,,,,,,,,,,,,,,,,,,,,,,,,,,,,,,,,,,,,,,,,,,,,,,,,,,,,,,,,,,,,,,,,,,,133.0,57.0,57.0,133.0,70.0,70.0,3.0,3.1,-191,251,0,8,198,-270,250.64925980567932,250.64930152893066,250.6518521308899,250.66411805152893,250.8141314983368,250.8141314983368,250.8141314983368,250.8141314983368,250.8141314983368,250.8141314983368,250.8141314983368,256.11525774002075,1,5.442316055297852,None,,,,,,,,,,,,,,,,,,10,5,2025-02-18_13h02.06.621,comp,2024.2.4,60.126925420205716,2025-02-18 13h02.40.927064 -0500,
65,65,0,filler_square,None,None,None,None,None,None,None,None,None,None,3,2.366912841796875,None,,,,,0,0,0,0,0,65,65,185,256.13085412979126,,,,,,,,,,,,,,,,,,,,,,,,,,,,,,,,,,,,,,,,,,,,,,,,,,,,,,,,,,,,,,,,,,,,,,,,,,,,,,,,,73.28563211731452,97.39475004564994,92.56442403122313,61.433697620902926,98.19527116949772,98.19527116949772,2.2,2.22,-175,275,0,-283,176,-288,256.11623907089233,256.11628222465515,256.11848521232605,256.13085412979126,256.28077125549316,256.28077125549316,256.28077125549316,256.28077125549316,256.28077125549316,256.28077125549316,256.28077125549316,258.5151355266571,3,2.366912841796875,None,,,,,,,,,,,,,,,,,,10,5,2025-02-18_13h02.06.621,comp,2024.2.4,60.126925420205716,2025-02-18 13h02.40.927064 -0500,
66,66,0,critical,dhw,20.0,3.0,upper,141.0,141.0,200.0,125.0,125.0,200.0,2,2.359984874725342,None,,,,,0,0,0,0,0,66,66,57,258.53050088882446,,,,,,,,,,,,,,,,,,,,,,,,,,,,,,,,,,,,,,,,,,,,,,,,,,,,,,,,,,,,,,,,,,,,,,,,,,,,,,,,,141.0,141.0,200.0,125.0,125.0,200.0,3.0,3.2,-229,-263,0,3,258,255,258.51594376564026,258.5159845352173,258.5184404850006,258.53050088882446,258.6808273792267,258.6808273792267,258.6808273792267,258.6808273792267,258.6808273792267,258.6808273792267,258.6808273792267,260.8986225128174,2,2.359984874725342,None,,,,,,,,,,,,,,,,,,10,5,2025-02-18_13h02.06.621,comp,2024.2.4,60.126925420205716,2025-02-18 13h02.40.927064 -0500,
67,67,0,critical,hwd,20.0,2.1,upper,200.0,125.0,125.0,200.0,141.0,141.0,1,1.0878682136535645,None,,,,,0,0,0,0,0,67,67,43,260.914110660553,,,,,,,,,,,,,,,,,,,,,,,,,,,,,,,,,,,,,,,,,,,,,,,,,,,,,,,,,,,,,,,,,,,,,,,,,,,,,,,,,200.0,125.0,125.0,200.0,141.0,141.0,2.1,2.11,-258,286,0,285,266,-271,260.89943528175354,260.8994767665863,260.9016993045807,260.914110660553,261.0642874240875,261.0642874240875,261.0642874240875,261.0642874240875,261.0642874240875,261.0642874240875,261.0642874240875,262.0153737068176,1,1.0878682136535645,None,,,,,,,,,,,,,,,,,,10,5,2025-02-18_13h02.06.621,comp,2024.2.4,60.126925420205716,2025-02-18 13h02.40.927064 -0500,
68,68,0,critical,whd,20.0,2.1,lower,57.0,133.0,133.0,57.0,78.0,78.0,2,1.9714884757995605,None,,,,,0,0,0,0,0,68,68,38,262.0305337905884,,,,,,,,,,,,,,,,,,,,,,,,,,,,,,,,,,,,,,,,,,,,,,,,,,,,,,,,,,,,,,,,,,,,,,,,,,,,,,,,,57.0,133.0,133.0,57.0,78.0,78.0,2.1,2.11,-191,254,0,264,164,-260,262.0161862373352,262.0162286758423,262.01842999458313,262.0305337905884,262.1807065010071,262.1807065010071,262.1807065010071,262.1807065010071,262.1807065010071,262.1807065010071,262.1807065010071,264.0150570869446,2,1.9714884757995605,None,,,,,,,,,,,,,,,,,,10,5,2025-02-18_13h02.06.621,comp,2024.2.4,60.126925420205716,2025-02-18 13h02.40.927064 -0500,
69,69,0,filler_square,None,None,None,None,None,None,None,None,None,None,2,7.043635606765747,None,,,,,0,0,0,0,0,69,69,181,264.03048872947693,,,,,,,,,,,,,,,,,,,,,,,,,,,,,,,,,,,,,,,,,,,,,,,,,,,,,,,,,,,,,,,,,,,,,,,,,,,,,,,,,59.55152820295197,75.4355520343091,83.69256526157636,83.69256526157636,83.47541648809704,77.0495677893334,1.0,1.3,304,-273,480,-259,656,-283,264.0160348415375,264.0160768032074,264.018283367157,264.03048872947693,264.1806261539459,264.1806261539459,264.1806261539459,264.1806261539459,264.1806261539459,264.1806261539459,264.1806261539459,271.08143305778503,2,7.043635606765747,None,,,,,,,,,,,,,,,,,,10,5,2025-02-18_13h02.06.621,comp,2024.2.4,60.126925420205716,2025-02-18 13h02.40.927064 -0500,
70,70,0,critical,dwh,35.0,4.0,upper,127.0,127.0,125.0,200.0,200.0,125.0,3,4.783902406692505,None,,,,,0,0,0,0,0,70,70,65,271.0974380970001,,,,,,,,,,,,,,,,,,,,,,,,,,,,,,,,,,,,,,,,,,,,,,,,,,,,,,,,,,,,,,,,,,,,,,,,,,,,,,,,,127.0,127.0,125.0,200.0,200.0,125.0,4.0,4.1,-260,-268,0,-19,258,-252,271.08222556114197,271.08226799964905,271.0847134590149,271.0974380970001,271.2473225593567,271.2473225593567,271.2473225593567,271.2473225593567,271.2473225593567,271.2473225593567,271.2473225593567,275.8984365463257,3,4.783902406692505,None,,,,,,,,,,,,,,,,,,10,5,2025-02-18_13h02.06.621,comp,2024.2.4,60.126925420205716,2025-02-18 13h02.40.927064 -0500,
71,71,0,filler_square,None,None,None,None,None,None,None,None,None,None,2,6.77660346031189,None,,,,,0,0,0,0,0,71,71,186,275.9136815071106,,,,,,,,,,,,,,,,,,,,,,,,,,,,,,,,,,,,,,,,,,,,,,,,,,,,,,,,,,,,,,,,,,,,,,,,,,,,,,,,,70.07092954594181,69.99524139324404,76.50138019431205,76.50138019431205,73.91329646890172,72.82473734735427,3.0,3.2,-169,-281,0,9,171,268,275.8994040489197,275.8994445800781,275.9019138813019,275.9136815071106,276.0638015270233,276.0638015270233,276.0638015270233,276.0638015270233,276.0638015270233,276.0638015270233,276.0638015270233,282.69807267189026,2,6.77660346031189,None,,,,,,,,,,,,,,,,,,10,5,2025-02-18_13h02.06.621,comp,2024.2.4,60.126925420205716,2025-02-18 13h02.40.927064 -0500,
72,72,0,filler_random,None,None,None,None,None,None,None,None,None,None,1,1.3030433654785156,None,,,,,0,0,0,0,0,72,72,136,282.71405363082886,,,,,,,,,,,,,,,,,,,,,,,,,,,,,,,,,,,,,,,,,,,,,,,,,,,,,,,,,,,,,,,,,,,,,,,,,,,,,,,,,154.71304350383576,147.90182386080113,92.53144429459988,190.31037892980066,147.76197868685128,105.20144286613994,2.1,2.11,-265,274,0,288,244,-265,282.699006319046,282.69904923439026,282.70122933387756,282.71405363082886,282.86381340026855,282.86381340026855,282.86381340026855,282.86381340026855,282.86381340026855,282.86381340026855,282.86381340026855,284.0315771102905,1,1.3030433654785156,None,,,,,,,,,,,,,,,,,,10,5,2025-02-18_13h02.06.621,comp,2024.2.4,60.126925420205716,2025-02-18 13h02.40.927064 -0500,
73,73,0,filler_square,None,None,None,None,None,None,None,None,None,None,1,1.3168234825134277,None,,,,,0,0,0,0,0,73,73,180,284.0469081401825,,,,,,,,,,,,,,,,,,,,,,,,,,,,,,,,,,,,,,,,,,,,,,,,,,,,,,,,,,,,,,,,,,,,,,,,,,,,,,,,,180.2642930527944,180.2642930527944,73.46597502168193,83.19903786074617,97.41782483700919,105.4256781705669,1.0,1.3,252,-286,480,-252,670,-272,284.0325996875763,284.03264260292053,284.0352237224579,284.0469081401825,284.1970806121826,284.1970806121826,284.1970806121826,284.1970806121826,284.1970806121826,284.1970806121826,284.1970806121826,285.38142442703247,1,1.3168234825134277,None,,,,,,,,,,,,,,,,,,10,5,2025-02-18_13h02.06.621,comp,2024.2.4,60.126925420205716,2025-02-18 13h02.40.927064 -0500,
74,74,0,filler_square,None,None,None,None,None,None,None,None,None,None,2,4.766930103302002,None,,,,,0,0,0,0,0,74,74,204,285.3968040943146,,,,,,,,,,,,,,,,,,,,,,,,,,,,,,,,,,,,,,,,,,,,,,,,,,,,,,,,,,,,,,,,,,,,,,,,,,,,,,,,,67.41470613863522,67.27026970606173,69.07517802298091,69.07517802298091,61.703772304099594,59.02934568796693,3.0,3.1,-164,288,0,18,160,-288,285.3823869228363,285.38242840766907,285.38501024246216,285.3968040943146,285.5471656322479,285.5471656322479,285.5471656322479,285.5471656322479,285.5471656322479,285.5471656322479,285.5471656322479,290.18138456344604,2,4.766930103302002,None,,,,,,,,,,,,,,,,,,10,5,2025-02-18_13h02.06.621,comp,2024.2.4,60.126925420205716,2025-02-18 13h02.40.927064 -0500,
75,75,0,filler_random,None,None,None,None,None,None,None,None,None,None,1,1.5720794200897217,None,,,,,0,0,0,0,0,75,75,133,290.1968228816986,,,,,,,,,,,,,,,,,,,,,,,,,,,,,,,,,,,,,,,,,,,,,,,,,,,,,,,,,,,,,,,,,,,,,,,,,,,,,,,,,167.57149798604817,193.67289159830827,150.10023759370762,75.2909346404389,168.7530625953952,129.6357589899576,2.2,2.22,-230,269,0,-253,198,-257,290.1823351383209,290.18237709999084,290.1850106716156,290.1968228816986,290.34733057022095,290.34733057022095,290.34733057022095,290.34733057022095,290.34733057022095,290.34733057022095,290.34733057022095,291.78153800964355,1,1.5720794200897217,None,,,,,,,,,,,,,,,,,,10,5,2025-02-18_13h02.06.621,comp,2024.2.4,60.126925420205716,2025-02-18 13h02.40.927064 -0500,
76,76,0,critical,hwd,35.0,2.1,lower,133.0,57.0,57.0,133.0,70.0,70.0,1,2.5989975929260254,None,,,,,0,0,0,0,0,76,76,40,291.7967851161957,,,,,,,,,,,,,,,,,,,,,,,,,,,,,,,,,,,,,,,,,,,,,,,,,,,,,,,,,,,,,,,,,,,,,,,,,,,,,,,,,133.0,57.0,57.0,133.0,70.0,70.0,2.1,2.12,-191,-289,0,-251,198,271,291.78236389160156,291.78240489959717,291.78497767448425,291.7967851161957,291.9468219280243,291.9468219280243,291.9468219280243,291.9468219280243,291.9468219280243,291.9468219280243,291.9468219280243,294.3979506492615,1,2.5989975929260254,None,,,,,,,,,,,,,,,,,,10,5,2025-02-18_13h02.06.621,comp,2024.2.4,60.126925420205716,2025-02-18 13h02.40.927064 -0500,
77,77,0,filler_square,None,None,None,None,None,None,None,None,None,None,3,2.566232204437256,None,,,,,0,0,0,0,0,77,77,203,294.4136290550232,,,,,,,,,,,,,,,,,,,,,,,,,,,,,,,,,,,,,,,,,,,,,,,,,,,,,,,,,,,,,,,,,,,,,,,,,,,,,,,,,108.63236027143577,97.19772280285929,92.25624194959423,117.46548951680626,128.64632691709556,128.64632691709556,2.1,2.11,-203,257,0,262,219,-255,294.3989188671112,294.3989608287811,294.40122985839844,294.4136290550232,294.5640127658844,294.5640127658844,294.5640127658844,294.5640127658844,294.5640127658844,294.5640127658844,294.5640127658844,296.98148679733276,3,2.566232204437256,None,,,,,,,,,,,,,,,,,,10,5,2025-02-18_13h02.06.621,comp,2024.2.4,60.126925420205716,2025-02-18 13h02.40.927064 -0500,
78,78,0,critical,hdw,35.0,1.0,lower,133.0,57.0,70.0,70.0,57.0,133.0,1,2.916442632675171,None,,,,,0,0,0,0,0,78,78,108,296.9975345134735,,,,,,,,,,,,,,,,,,,,,,,,,,,,,,,,,,,,,,,,,,,,,,,,,,,,,,,,,,,,,,,,,,,,,,,,,,,,,,,,,133.0,57.0,70.0,70.0,57.0,133.0,1.0,1.1,-640,285,-480,251,-282,260,296.9823844432831,296.9824273586273,296.98521876335144,296.9975345134735,297.1468164920807,297.1468164920807,297.1468164920807,297.1468164920807,297.1468164920807,297.1468164920807,297.1468164920807,299.93119072914124,1,2.916442632675171,None,,,,,,,,,,,,,,,,,,10,5,2025-02-18_13h02.06.621,comp,2024.2.4,60.126925420205716,2025-02-18 13h02.40.927064 -0500,
79,79,0,critical,whd,35.0,3.0,lower,57.0,133.0,133.0,57.0,70.0,70.0,2,1.6869299411773682,None,,,,,0,0,0,0,0,79,79,86,299.9466121196747,,,,,,,,,,,,,,,,,,,,,,,,,,,,,,,,,,,,,,,,,,,,,,,,,,,,,,,,,,,,,,,,,,,,,,,,,,,,,,,,,57.0,133.0,133.0,57.0,70.0,70.0,3.0,3.2,-191,-262,0,15,160,272,299.93194460868835,299.9319837093353,299.93432998657227,299.9466121196747,300.0967707633972,300.0967707633972,300.0967707633972,300.0967707633972,300.0967707633972,300.0967707633972,300.0967707633972,301.6478900909424,2,1.6869299411773682,None,,,,,,,,,,,,,,,,,,10,5,2025-02-18_13h02.06.621,comp,2024.2.4,60.126925420205716,2025-02-18 13h02.40.927064 -0500,
80,80,0,critical,wdh,20.0,1.0,lower,57.0,133.0,78.0,78.0,133.0,57.0,3,3.6837143898010254,None,,,,,0,0,0,0,0,80,80,78,301.66327452659607,,,,,,,,,,,,,,,,,,,,,,,,,,,,,,,,,,,,,,,,,,,,,,,,,,,,,,,,,,,,,,,,,,,,,,,,,,,,,,,,,57.0,133.0,78.0,78.0,133.0,57.0,1.0,1.2,-202,20,0,-10,164,0,301.6487138271332,301.6487545967102,301.65092945098877,301.66327452659607,301.81333923339844,301.81333923339844,301.81333923339844,301.81333923339844,301.81333923339844,301.81333923339844,301.81333923339844,305.3648467063904,3,3.6837143898010254,None,,,,,,,,,,,,,,,,,,10,5,2025-02-18_13h02.06.621,comp,2024.2.4,60.126925420205716,2025-02-18 13h02.40.927064 -0500,
81,81,0,critical,wdh,35.0,4.0,lower,57.0,133.0,70.0,70.0,133.0,57.0,3,1.972679615020752,None,,,,,0,0,0,0,0,81,81,76,305.37999391555786,,,,,,,,,,,,,,,,,,,,,,,,,,,,,,,,,,,,,,,,,,,,,,,,,,,,,,,,,,,,,,,,,,,,,,,,,,,,,,,,,57.0,133.0,70.0,70.0,133.0,57.0,4.0,4.2,-198,-5,0,-284,160,6,305.36566400527954,305.3657052516937,305.3682961463928,305.37999391555786,305.5299446582794,305.5299446582794,305.5299446582794,305.5299446582794,305.5299446582794,305.5299446582794,305.5299446582794,307.3650448322296,3,1.972679615020752,None,,,,,,,,,,,,,,,,,,10,5,2025-02-18_13h02.06.621,comp,2024.2.4,60.126925420205716,2025-02-18 13h02.40.927064 -0500,
82,82,0,filler_random,None,None,None,None,None,None,None,None,None,None,1,1.0848970413208008,None,,,,,0,0,0,0,0,82,82,165,307.37991070747375,,,,,,,,,,,,,,,,,,,,,,,,,,,,,,,,,,,,,,,,,,,,,,,,,,,,,,,,,,,,,,,,,,,,,,,,,,,,,,,,,113.12109478685855,156.30929980686085,65.37450634960172,114.47656709538015,94.66022758616774,85.75035067086495,3.0,3.1,-231,258,0,-13,196,-271,307.3660457134247,307.3660867214203,307.3684401512146,307.37991070747375,307.5299916267395,307.5299916267395,307.5299916267395,307.5299916267395,307.5299916267395,307.5299916267395,307.5299916267395,308.481121301651,1,1.0848970413208008,None,,,,,,,,,,,,,,,,,,10,5,2025-02-18_13h02.06.621,comp,2024.2.4,60.126925420205716,2025-02-18 13h02.40.927064 -0500,
83,83,0,critical,dwh,20.0,2.1,upper,141.0,141.0,125.0,200.0,200.0,125.0,3,1.7450807094573975,None,,,,,0,0,0,0,0,83,83,31,308.49656343460083,,,,,,,,,,,,,,,,,,,,,,,,,,,,,,,,,,,,,,,,,,,,,,,,,,,,,,,,,,,,,,,,,,,,,,,,,,,,,,,,,141.0,141.0,125.0,200.0,200.0,125.0,2.1,2.12,-266,-267,0,-268,258,272,308.48189759254456,308.48193645477295,308.48437690734863,308.49656343460083,308.6468629837036,308.6468629837036,308.6468629837036,308.6468629837036,308.6468629837036,308.6468629837036,308.6468629837036,310.24794244766235,3,1.7450807094573975,None,,,,,,,,,,,,,,,,,,10,5,2025-02-18_13h02.06.621,comp,2024.2.4,60.126925420205716,2025-02-18 13h02.40.927064 -0500,
84,84,0,critical,hwd,35.0,1.0,lower,133.0,57.0,57.0,133.0,70.0,70.0,1,3.1051642894744873,None,,,,,0,0,0,0,0,84,84,96,310.26339650154114,,,,,,,,,,,,,,,,,,,,,,,,,,,,,,,,,,,,,,,,,,,,,,,,,,,,,,,,,,,,,,,,,,,,,,,,,,,,,,,,,133.0,57.0,57.0,133.0,70.0,70.0,1.0,1.1,-671,288,-480,269,-282,273,310.2487573623657,310.2487988471985,310.25146532058716,310.26339650154114,310.41325783729553,310.41325783729553,310.41325783729553,310.41325783729553,310.41325783729553,310.41325783729553,310.41325783729553,313.38104581832886,1,3.1051642894744873,None,,,,,,,,,,,,,,,,,,10,5,2025-02-18_13h02.06.621,comp,2024.2.4,60.126925420205716,2025-02-18 13h02.40.927064 -0500,
85,85,0,critical,hwd,35.0,1.0,upper,200.0,125.0,125.0,200.0,127.0,127.0,1,9.517187356948853,None,,,,,0,0,0,0,0,85,85,97,313.3964681625366,,,,,,,,,,,,,,,,,,,,,,,,,,,,,,,,,,,,,,,,,,,,,,,,,,,,,,,,,,,,,,,,,,,,,,,,,,,,,,,,,200.0,125.0,125.0,200.0,127.0,127.0,1.0,1.2,-258,15,0,-13,260,9,313.38187050819397,313.38191175460815,313.38436341285706,313.3964681625366,313.54678750038147,313.54678750038147,313.54678750038147,313.54678750038147,313.54678750038147,313.54678750038147,313.54678750038147,322.93114852905273,1,9.517187356948853,None,,,,,,,,,,,,,,,,,,10,5,2025-02-18_13h02.06.621,comp,2024.2.4,60.126925420205716,2025-02-18 13h02.40.927064 -0500,
86,86,0,filler_square,None,None,None,None,None,None,None,None,None,None,2,1.70212721824646,None,,,,,0,0,0,0,0,86,86,177,322.94637632369995,,,,,,,,,,,,,,,,,,,,,,,,,,,,,,,,,,,,,,,,,,,,,,,,,,,,,,,,,,,,,,,,,,,,,,,,,,,,,,,,,66.70275324287081,68.36309996968772,81.99120856592631,81.99120856592631,72.56954493613127,57.196609270640835,3.0,3.1,-171,265,0,-4,166,-266,322.93213057518005,322.93217182159424,322.93437004089355,322.94637632369995,323.0964686870575,323.0964686870575,323.0964686870575,323.0964686870575,323.0964686870575,323.0964686870575,323.0964686870575,324.6641273498535,2,1.70212721824646,None,,,,,,,,,,,,,,,,,,10,5,2025-02-18_13h02.06.621,comp,2024.2.4,60.126925420205716,2025-02-18 13h02.40.927064 -0500,
87,87,0,filler_random,None,None,None,None,None,None,None,None,None,None,3,1.8258206844329834,None,,,,,0,0,0,0,0,87,87,140,324.67966198921204,,,,,,,,,,,,,,,,,,,,,,,,,,,,,,,,,,,,,,,,,,,,,,,,,,,,,,,,,,,,,,,,,,,,,,,,,,,,,,,,,98.59117855941179,82.86508657404649,85.09942776786605,164.22185352756134,167.99082063771982,125.07185785924146,1.0,1.3,260,-284,480,-286,721,-257,324.66506695747375,324.6651203632355,324.66732382774353,324.67966198921204,324.82980823516846,324.82980823516846,324.82980823516846,324.82980823516846,324.82980823516846,324.82980823516846,324.82980823516846,326.5141878128052,3,1.8258206844329834,None,,,,,,,,,,,,,,,,,,10,5,2025-02-18_13h02.06.621,comp,2024.2.4,60.126925420205716,2025-02-18 13h02.40.927064 -0500,
88,88,0,filler_random,None,None,None,None,None,None,None,None,None,None,2,1.286423683166504,None,,,,,0,0,0,0,0,88,88,158,326.5300540924072,,,,,,,,,,,,,,,,,,,,,,,,,,,,,,,,,,,,,,,,,,,,,,,,,,,,,,,,,,,,,,,,,,,,,,,,,,,,,,,,,129.06037937321557,71.14838403467445,125.5636260706156,199.13546833867738,89.62750627404228,137.75831721770157,2.2,2.21,-231,-278,0,264,264,282,326.5150911808014,326.51514649391174,326.5172584056854,326.5300540924072,326.67982053756714,326.67982053756714,326.67982053756714,326.67982053756714,326.67982053756714,326.67982053756714,326.67982053756714,327.8309314250946,2,1.286423683166504,None,,,,,,,,,,,,,,,,,,10,5,2025-02-18_13h02.06.621,comp,2024.2.4,60.126925420205716,2025-02-18 13h02.40.927064 -0500,
89,89,0,filler_random,None,None,None,None,None,None,None,None,None,None,2,2.3546817302703857,None,,,,,0,0,0,0,0,89,89,144,327.8464503288269,,,,,,,,,,,,,,,,,,,,,,,,,,,,,,,,,,,,,,,,,,,,,,,,,,,,,,,,,,,,,,,,,,,,,,,,,,,,,,,,,128.42563497298383,132.42824524059677,154.48706542033756,150.00933941669575,104.26805627659888,197.9681949727048,4.0,4.2,-237,20,0,-268,270,-7,327.8318238258362,327.83186388015747,327.8345396518707,327.8464503288269,327.99654960632324,327.99654960632324,327.99654960632324,327.99654960632324,327.99654960632324,327.99654960632324,327.99654960632324,330.21429657936096,2,2.3546817302703857,None,,,,,,,,,,,,,,,,,,10,5,2025-02-18_13h02.06.621,comp,2024.2.4,60.126925420205716,2025-02-18 13h02.40.927064 -0500,
90,90,0,filler_random,None,None,None,None,None,None,None,None,None,None,3,3.2121355533599854,None,,,,,0,0,0,0,0,90,90,149,330.2295660972595,,,,,,,,,,,,,,,,,,,,,,,,,,,,,,,,,,,,,,,,,,,,,,,,,,,,,,,,,,,,,,,,,,,,,,,,,,,,,,,,,62.16430553668144,167.21585537034704,99.19919349143404,83.1178160670559,122.14414991106507,143.72332567031367,2.1,2.12,-221,-277,0,-262,209,279,330.21525859832764,330.2152998447418,330.21776485443115,330.2295660972595,330.37975788116455,330.37975788116455,330.37975788116455,330.37975788116455,330.37975788116455,330.37975788116455,330.37975788116455,333.44751143455505,3,3.2121355533599854,None,,,,,,,,,,,,,,,,,,10,5,2025-02-18_13h02.06.621,comp,2024.2.4,60.126925420205716,2025-02-18 13h02.40.927064 -0500,
91,91,0,filler_square,None,None,None,None,None,None,None,None,None,None,1,1.3164260387420654,None,,,,,0,0,0,0,0,91,91,176,333.46306443214417,,,,,,,,,,,,,,,,,,,,,,,,,,,,,,,,,,,,,,,,,,,,,,,,,,,,,,,,,,,,,,,,,,,,,,,,,,,,,,,,,115.28275938871693,115.28275938871693,60.71126827493382,106.23240745569652,69.20437068985736,75.82202933965672,1.0,1.1,-687,290,-480,278,-293,275,333.4484705924988,333.4485125541687,333.4507110118866,333.46306443214417,333.6130111217499,333.6130111217499,333.6130111217499,333.6130111217499,333.6130111217499,333.6130111217499,333.6130111217499,334.78098249435425,1,1.3164260387420654,None,,,,,,,,,,,,,,,,,,10,5,2025-02-18_13h02.06.621,comp,2024.2.4,60.126925420205716,2025-02-18 13h02.40.927064 -0500,
92,92,0,filler_random,None,None,None,None,None,None,None,None,None,None,1,2.7718639373779297,None,,,,,0,0,0,0,0,92,92,145,334.7964344024658,,,,,,,,,,,,,,,,,,,,,,,,,,,,,,,,,,,,,,,,,,,,,,,,,,,,,,,,,,,,,,,,,,,,,,,,,,,,,,,,,192.00197652765237,103.70797825627838,73.71797344796656,69.3944103273559,69.88024350643157,78.28882316278361,2.1,2.12,-183,-263,0,-251,170,270,334.781946182251,334.78198862075806,334.78465962409973,334.7964344024658,334.9464180469513,334.9464180469513,334.9464180469513,334.9464180469513,334.9464180469513,334.9464180469513,334.9464180469513,337.58115315437317,1,2.7718639373779297,None,,,,,,,,,,,,,,,,,,10,5,2025-02-18_13h02.06.621,comp,2024.2.4,60.126925420205716,2025-02-18 13h02.40.927064 -0500,
93,93,0,filler_random,None,None,None,None,None,None,None,None,None,None,2,1.1251590251922607,None,,,,,0,0,0,0,0,93,93,154,337.59628891944885,,,,,,,,,,,,,,,,,,,,,,,,,,,,,,,,,,,,,,,,,,,,,,,,,,,,,,,,,,,,,,,,,,,,,,,,,,,,,,,,,125.9019656183161,61.00993703203706,144.87287876895823,139.59415469216503,109.9304083479337,142.75807958271673,4.0,4.1,-196,-263,0,-5,237,-270,337.582111120224,337.58215522766113,337.58435106277466,337.59628891944885,337.7462923526764,337.7462923526764,337.7462923526764,337.7462923526764,337.7462923526764,337.7462923526764,337.7462923526764,338.73073410987854,2,1.1251590251922607,None,,,,,,,,,,,,,,,,,,10,5,2025-02-18_13h02.06.621,comp,2024.2.4,60.126925420205716,2025-02-18 13h02.40.927064 -0500,
94,94,0,catch,None,None,None,None,None,None,None,None,None,None,1,0.8216547966003418,None,,,,,0,0,0,0,0,94,94,126,338.7466139793396,,,,,,,,,,,,,,,,,,,,,,,,,,,,,,,,,,,,,,,,,,,,,,,,,,,,,,,,,,,,,,,,,,,,,,,,,,,,,,,,,181,144,120,70,72,118,2.1,2.11,-203,261,0,266,190,-261,338.73180198669434,338.73184514045715,338.7345073223114,338.7466139793396,338.8962996006012,338.8962996006012,338.8962996006012,338.8962996006012,338.8962996006012,338.8962996006012,338.8962996006012,339.58078789711,1,0.8216547966003418,None,,,,,,,,,,,,,,,,,,10,5,2025-02-18_13h02.06.621,comp,2024.2.4,60.126925420205716,2025-02-18 13h02.40.927064 -0500,
95,95,0,critical,wdh,20.0,2.1,upper,125.0,200.0,141.0,141.0,200.0,125.0,1,3.5982484817504883,None,,,,,0,0,0,0,0,95,95,11,339.5963261127472,,,,,,,,,,,,,,,,,,,,,,,,,,,,,,,,,,,,,,,,,,,,,,,,,,,,,,,,,,,,,,,,,,,,,,,,,,,,,,,,,125.0,200.0,141.0,141.0,200.0,125.0,2.1,2.12,-266,-275,0,-279,229,259,339.5816020965576,339.58164525032043,339.58441495895386,339.5963261127472,339.7465441226959,339.7465441226959,339.7465441226959,339.7465441226959,339.7465441226959,339.7465441226959,339.7465441226959,343.1976602077484,1,3.5982484817504883,None,,,,,,,,,,,,,,,,,,10,5,2025-02-18_13h02.06.621,comp,2024.2.4,60.126925420205716,2025-02-18 13h02.40.927064 -0500,
96,96,0,catch,None,None,None,None,None,None,None,None,None,None,2,1.2127537727355957,None,,,,,0,0,0,0,0,96,96,127,343.2130045890808,,,,,,,,,,,,,,,,,,,,,,,,,,,,,,,,,,,,,,,,,,,,,,,,,,,,,,,,,,,,,,,,,,,,,,,,,,,,,,,,,61,129,157,168,98,92,2.1,2.12,-244,-288,0,-274,226,259,343.19873547554016,343.1987793445587,343.2013120651245,343.2130045890808,343.3629250526428,343.3629250526428,343.3629250526428,343.3629250526428,343.3629250526428,343.3629250526428,343.3629250526428,344.4307224750519,2,1.2127537727355957,None,,,,,,,,,,,,,,,,,,10,5,2025-02-18_13h02.06.621,comp,2024.2.4,60.126925420205716,2025-02-18 13h02.40.927064 -0500,
97,97,0,filler_random,None,None,None,None,None,None,None,None,None,None,2,2.618119239807129,None,,,,,0,0,0,0,0,97,97,134,344.44621443748474,,,,,,,,,,,,,,,,,,,,,,,,,,,,,,,,,,,,,,,,,,,,,,,,,,,,,,,,,,,,,,,,,,,,,,,,,,,,,,,,,92.87572154928402,68.00166094191316,152.3183925334621,118.64041015614006,163.11402389318937,98.20094948663078,2.1,2.12,-189,-271,0,-277,204,273,344.43171191215515,344.4317555427551,344.43464398384094,344.44621443748474,344.59624791145325,344.59624791145325,344.59624791145325,344.59624791145325,344.59624791145325,344.59624791145325,344.59624791145325,347.08061051368713,2,2.618119239807129,None,,,,,,,,,,,,,,,,,,10,5,2025-02-18_13h02.06.621,comp,2024.2.4,60.126925420205716,2025-02-18 13h02.40.927064 -0500,
98,98,0,critical,wdh,35.0,1.0,upper,125.0,200.0,127.0,127.0,200.0,125.0,3,3.699136972427368,None,,,,,0,0,0,0,0,98,98,73,347.09604477882385,,,,,,,,,,,,,,,,,,,,,,,,,,,,,,,,,,,,,,,,,,,,,,,,,,,,,,,,,,,,,,,,,,,,,,,,,,,,,,,,,125.0,200.0,127.0,127.0,200.0,125.0,1.0,1.2,-260,6,0,-7,222,-18,347.0813534259796,347.08139300346375,347.08391094207764,347.09604477882385,347.246297121048,347.246297121048,347.246297121048,347.246297121048,347.246297121048,347.246297121048,347.246297121048,350.7975707054138,3,3.699136972427368,None,,,,,,,,,,,,,,,,,,10,5,2025-02-18_13h02.06.621,comp,2024.2.4,60.126925420205716,2025-02-18 13h02.40.927064 -0500,
99,99,0,filler_square,None,None,None,None,None,None,None,None,None,None,1,3.4123730659484863,None,,,,,0,0,0,0,0,99,99,173,350.81287479400635,,,,,,,,,,,,,,,,,,,,,,,,,,,,,,,,,,,,,,,,,,,,,,,,,,,,,,,,,,,,,,,,,,,,,,,,,,,,,,,,,139.33196186002579,139.33196186002579,132.34943417532924,129.93755525462612,122.72861747457141,99.79770213108404,3.0,3.1,-231,264,0,-14,211,-259,350.79863262176514,350.79867362976074,350.80087327957153,350.81287479400635,350.9628186225891,350.9628186225891,350.9628186225891,350.9628186225891,350.9628186225891,350.9628186225891,350.9628186225891,354.2306625843048,1,3.4123730659484863,None,,,,,,,,,,,,,,,,,,10,5,2025-02-18_13h02.06.621,comp,2024.2.4,60.126925420205716,2025-02-18 13h02.40.927064 -0500,
100,100,0,filler_square,None,None,None,None,None,None,None,None,None,None,3,2.148716926574707,None,,,,,0,0,0,0,0,100,100,198,354.2461681365967,,,,,,,,,,,,,,,,,,,,,,,,,,,,,,,,,,,,,,,,,,,,,,,,,,,,,,,,,,,,,,,,,,,,,,,,,,,,,,,,,62.40653274103692,58.5085083164866,63.271395443583465,67.53305794418631,83.93500699390152,83.93500699390152,2.2,2.21,-159,-280,0,272,172,278,354.23166847229004,354.2317109107971,354.23428559303284,354.2461681365967,354.3959972858429,354.3959972858429,354.3959972858429,354.3959972858429,354.3959972858429,354.3959972858429,354.3959972858429,356.39730525016785,3,2.148716926574707,None,,,,,,,,,,,,,,,,,,10,5,2025-02-18_13h02.06.621,comp,2024.2.4,60.126925420205716,2025-02-18 13h02.40.927064 -0500,
101,101,0,critical,wdh,35.0,4.0,upper,125.0,200.0,127.0,127.0,200.0,125.0,3,7.133581638336182,None,,,,,0,0,0,0,0,101,101,77,356.4128658771515,,,,,,,,,,,,,,,,,,,,,,,,,,,,,,,,,,,,,,,,,,,,,,,,,,,,,,,,,,,,,,,,,,,,,,,,,,,,,,,,,125.0,200.0,127.0,127.0,200.0,125.0,4.0,4.2,-260,-2,0,-272,222,6,356.3981261253357,356.3981668949127,356.400386095047,356.4128658771515,356.5629162788391,356.5629162788391,356.5629162788391,356.5629162788391,356.5629162788391,356.5629162788391,356.5629162788391,363.54779601097107,3,7.133581638336182,None,,,,,,,,,,,,,,,,,,10,5,2025-02-18_13h02.06.621,comp,2024.2.4,60.126925420205716,2025-02-18 13h02.40.927064 -0500,
102,102,0,critical,hdw,20.0,2.1,upper,200.0,125.0,141.0,141.0,125.0,200.0,1,2.142176866531372,None,,,,,0,0,0,0,0,102,102,23,363.5628311634064,,,,,,,,,,,,,,,,,,,,,,,,,,,,,,,,,,,,,,,,,,,,,,,,,,,,,,,,,,,,,,,,,,,,,,,,,,,,,,,,,200.0,125.0,141.0,141.0,125.0,200.0,2.1,2.12,-229,-258,0,-272,266,271,363.54862880706787,363.54867124557495,363.5509030818939,363.5628311634064,363.71287298202515,363.71287298202515,363.71287298202515,363.71287298202515,363.71287298202515,363.71287298202515,363.71287298202515,365.71387815475464,1,2.142176866531372,None,,,,,,,,,,,,,,,,,,10,5,2025-02-18_13h02.06.621,comp,2024.2.4,60.126925420205716,2025-02-18 13h02.40.927064 -0500,
103,103,0,critical,wdh,20.0,2.1,upper,125.0,200.0,141.0,141.0,200.0,125.0,3,1.481008529663086,None,,,,,0,0,0,0,0,103,103,35,365.7293429374695,,,,,,,,,,,,,,,,,,,,,,,,,,,,,,,,,,,,,,,,,,,,,,,,,,,,,,,,,,,,,,,,,,,,,,,,,,,,,,,,,125.0,200.0,141.0,141.0,200.0,125.0,2.1,2.11,-266,252,0,253,229,-282,365.71468567848206,365.7147262096405,365.7172996997833,365.7293429374695,365.87939262390137,365.87939262390137,365.87939262390137,365.87939262390137,365.87939262390137,365.87939262390137,365.87939262390137,367.21403789520264,3,1.481008529663086,None,,,,,,,,,,,,,,,,,,10,5,2025-02-18_13h02.06.621,comp,2024.2.4,60.126925420205716,2025-02-18 13h02.40.927064 -0500,
104,104,0,critical,wdh,35.0,2.1,lower,57.0,133.0,70.0,70.0,133.0,57.0,3,2.7545862197875977,None,,,,,0,0,0,0,0,104,104,8,367.22931265830994,,,,,,,,,,,,,,,,,,,,,,,,,,,,,,,,,,,,,,,,,,,,,,,,,,,,,,,,,,,,,,,,,,,,,,,,,,,,,,,,,57.0,133.0,70.0,70.0,133.0,57.0,2.1,2.11,-198,267,0,276,160,-255,367.2148497104645,367.2148928642273,367.2171313762665,367.22931265830994,367.379150390625,367.379150390625,367.379150390625,367.379150390625,367.379150390625,367.379150390625,367.379150390625,369.9971971511841,3,2.7545862197875977,None,,,,,,,,,,,,,,,,,,10,5,2025-02-18_13h02.06.621,comp,2024.2.4,60.126925420205716,2025-02-18 13h02.40.927064 -0500,
105,105,0,critical,hwd,35.0,3.0,upper,200.0,125.0,125.0,200.0,127.0,127.0,2,5.950367212295532,None,,,,,0,0,0,0,0,105,105,99,370.0123465061188,,,,,,,,,,,,,,,,,,,,,,,,,,,,,,,,,,,,,,,,,,,,,,,,,,,,,,,,,,,,,,,,,,,,,,,,,,,,,,,,,200.0,125.0,125.0,200.0,127.0,127.0,3.0,3.2,-258,-264,0,-6,260,274,369.99798345565796,369.9980263710022,370.0007197856903,370.0123465061188,370.16276454925537,370.16276454925537,370.16276454925537,370.16276454925537,370.16276454925537,370.16276454925537,370.16276454925537,375.964040517807,2,5.950367212295532,None,,,,,,,,,,,,,,,,,,10,5,2025-02-18_13h02.06.621,comp,2024.2.4,60.126925420205716,2025-02-18 13h02.40.927064 -0500,
106,106,0,critical,dwh,20.0,3.0,upper,141.0,141.0,125.0,200.0,200.0,125.0,3,1.6149213314056396,None,,,,,0,0,0,0,0,106,106,69,375.9792594909668,,,,,,,,,,,,,,,,,,,,,,,,,,,,,,,,,,,,,,,,,,,,,,,,,,,,,,,,,,,,,,,,,,,,,,,,,,,,,,,,,141.0,141.0,125.0,200.0,200.0,125.0,3.0,3.2,-266,-284,0,-15,258,262,375.9648382663727,375.9648816585541,375.9671778678894,375.9792594909668,376.12934923171997,376.12934923171997,376.12934923171997,376.12934923171997,376.12934923171997,376.12934923171997,376.12934923171997,377.59736466407776,3,1.6149213314056396,None,,,,,,,,,,,,,,,,,,10,5,2025-02-18_13h02.06.621,comp,2024.2.4,60.126925420205716,2025-02-18 13h02.40.927064 -0500,
107,107,0,critical,dwh,20.0,2.1,lower,78.0,78.0,57.0,133.0,133.0,57.0,3,1.2922468185424805,None,,,,,0,0,0,0,0,107,107,30,377.61258006095886,,,,,,,,,,,,,,,,,,,,,,,,,,,,,,,,,,,,,,,,,,,,,,,,,,,,,,,,,,,,,,,,,,,,,,,,,,,,,,,,,78.0,78.0,57.0,133.0,133.0,57.0,2.1,2.12,-202,-251,0,-264,191,265,377.5981683731079,377.59821105003357,377.6006877422333,377.61258006095886,377.7623882293701,377.7623882293701,377.7623882293701,377.7623882293701,377.7623882293701,377.7623882293701,377.7623882293701,378.91344380378723,3,1.2922468185424805,None,,,,,,,,,,,,,,,,,,10,5,2025-02-18_13h02.06.621,comp,2024.2.4,60.126925420205716,2025-02-18 13h02.40.927064 -0500,
108,108,0,filler_square,None,None,None,None,None,None,None,None,None,None,1,0.849440336227417,None,,,,,0,0,0,0,0,108,108,197,378.9292070865631,,,,,,,,,,,,,,,,,,,,,,,,,,,,,,,,,,,,,,,,,,,,,,,,,,,,,,,,,,,,,,,,,,,,,,,,,,,,,,,,,156.18820038519965,156.18820038519965,117.26312450164723,101.11230010796646,88.99500916134147,72.60344558414322,2.1,2.11,-225,276,0,258,183,-256,378.914431810379,378.91447353363037,378.91701459884644,378.9292070865631,379.0791289806366,379.0791289806366,379.0791289806366,379.0791289806366,379.0791289806366,379.0791289806366,379.0791289806366,379.7969779968262,1,0.849440336227417,None,,,,,,,,,,,,,,,,,,10,5,2025-02-18_13h02.06.621,comp,2024.2.4,60.126925420205716,2025-02-18 13h02.40.927064 -0500,
109,109,0,critical,dwh,35.0,2.1,lower,70.0,70.0,57.0,133.0,133.0,57.0,3,1.7880663871765137,None,,,,,0,0,0,0,0,109,109,28,379.8123323917389,,,,,,,,,,,,,,,,,,,,,,,,,,,,,,,,,,,,,,,,,,,,,,,,,,,,,,,,,,,,,,,,,,,,,,,,,,,,,,,,,70.0,70.0,57.0,133.0,133.0,57.0,2.1,2.11,-198,267,0,286,191,-288,379.79780411720276,379.79784512519836,379.80054998397827,379.8123323917389,379.9623501300812,379.9623501300812,379.9623501300812,379.9623501300812,379.9623501300812,379.9623501300812,379.9623501300812,381.6134157180786,3,1.7880663871765137,None,,,,,,,,,,,,,,,,,,10,5,2025-02-18_13h02.06.621,comp,2024.2.4,60.126925420205716,2025-02-18 13h02.40.927064 -0500,
110,110,0,critical,dwh,20.0,3.0,lower,78.0,78.0,57.0,133.0,133.0,57.0,3,1.6759164333343506,None,,,,,0,0,0,0,0,110,110,68,381.6288106441498,,,,,,,,,,,,,,,,,,,,,,,,,,,,,,,,,,,,,,,,,,,,,,,,,,,,,,,,,,,,,,,,,,,,,,,,,,,,,,,,,78.0,78.0,57.0,133.0,133.0,57.0,3.0,3.1,-202,281,0,10,191,-277,381.61421728134155,381.6142580509186,381.61679244041443,381.6288106441498,381.77899193763733,381.77899193763733,381.77899193763733,381.77899193763733,381.77899193763733,381.77899193763733,381.77899193763733,383.3134033679962,3,1.6759164333343506,None,,,,,,,,,,,,,,,,,,10,5,2025-02-18_13h02.06.621,comp,2024.2.4,60.126925420205716,2025-02-18 13h02.40.927064 -0500,
111,111,0,critical,hdw,35.0,2.1,upper,200.0,125.0,127.0,127.0,125.0,200.0,1,1.7915754318237305,None,,,,,0,0,0,0,0,111,111,21,383.32919120788574,,,,,,,,,,,,,,,,,,,,,,,,,,,,,,,,,,,,,,,,,,,,,,,,,,,,,,,,,,,,,,,,,,,,,,,,,,,,,,,,,200.0,125.0,127.0,127.0,125.0,200.0,2.1,2.11,-222,273,0,271,260,-283,383.31424736976624,383.3142874240875,383.31673526763916,383.32919120788574,383.4791703224182,383.4791703224182,383.4791703224182,383.4791703224182,383.4791703224182,383.4791703224182,383.4791703224182,385.1302239894867,1,1.7915754318237305,None,,,,,,,,,,,,,,,,,,10,5,2025-02-18_13h02.06.621,comp,2024.2.4,60.126925420205716,2025-02-18 13h02.40.927064 -0500,
112,112,0,critical,hdw,20.0,1.0,lower,133.0,57.0,78.0,78.0,57.0,133.0,3,1.4326653480529785,None,,,,,0,0,0,0,0,112,112,114,385.14571261405945,,,,,,,,,,,,,,,,,,,,,,,,,,,,,,,,,,,,,,,,,,,,,,,,,,,,,,,,,,,,,,,,,,,,,,,,,,,,,,,,,133.0,57.0,78.0,78.0,57.0,133.0,1.0,1.2,-164,15,0,-17,202,7,385.1309974193573,385.1310386657715,385.13351798057556,385.14571261405945,385.2955176830292,385.2955176830292,385.2955176830292,385.2955176830292,385.2955176830292,385.2955176830292,385.2955176830292,386.58034658432007,3,1.4326653480529785,None,,,,,,,,,,,,,,,,,,10,5,2025-02-18_13h02.06.621,comp,2024.2.4,60.126925420205716,2025-02-18 13h02.40.927064 -0500,
113,113,0,critical,wdh,35.0,1.0,lower,57.0,133.0,70.0,70.0,133.0,57.0,1,1.6138298511505127,None,,,,,0,0,0,0,0,113,113,72,386.59576964378357,,,,,,,,,,,,,,,,,,,,,,,,,,,,,,,,,,,,,,,,,,,,,,,,,,,,,,,,,,,,,,,,,,,,,,,,,,,,,,,,,57.0,133.0,70.0,70.0,133.0,57.0,1.0,1.1,-678,285,-480,272,-320,275,386.58122062683105,386.58126282691956,386.58380031585693,386.59576964378357,386.745632648468,386.745632648468,386.745632648468,386.745632648468,386.745632648468,386.745632648468,386.745632648468,388.2136595249176,1,1.6138298511505127,None,,,,,,,,,,,,,,,,,,10,5,2025-02-18_13h02.06.621,comp,2024.2.4,60.126925420205716,2025-02-18 13h02.40.927064 -0500,
114,114,0,critical,hdw,20.0,1.0,upper,200.0,125.0,141.0,141.0,125.0,200.0,1,1.5649418830871582,None,,,,,0,0,0,0,0,114,114,115,388.2291715145111,,,,,,,,,,,,,,,,,,,,,,,,,,,,,,,,,,,,,,,,,,,,,,,,,,,,,,,,,,,,,,,,,,,,,,,,,,,,,,,,,200.0,125.0,141.0,141.0,125.0,200.0,1.0,1.3,251,-250,480,-275,746,-273,388.2145094871521,388.2145516872406,388.21710443496704,388.2291715145111,388.3791546821594,388.3791546821594,388.3791546821594,388.3791546821594,388.3791546821594,388.3791546821594,388.3791546821594,389.7969710826874,1,1.5649418830871582,None,,,,,,,,,,,,,,,,,,10,5,2025-02-18_13h02.06.621,comp,2024.2.4,60.126925420205716,2025-02-18 13h02.40.927064 -0500,
115,115,0,critical,whd,35.0,2.1,upper,125.0,200.0,200.0,125.0,127.0,127.0,2,1.2282438278198242,None,,,,,0,0,0,0,0,115,115,13,389.8123781681061,,,,,,,,,,,,,,,,,,,,,,,,,,,,,,,,,,,,,,,,,,,,,,,,,,,,,,,,,,,,,,,,,,,,,,,,,,,,,,,,,125.0,200.0,200.0,125.0,127.0,127.0,2.1,2.12,-258,-275,0,-279,222,287,389.7977900505066,389.79783177375793,389.80020022392273,389.8123781681061,389.96239042282104,389.96239042282104,389.96239042282104,389.96239042282104,389.96239042282104,389.96239042282104,389.96239042282104,391.04694271087646,2,1.2282438278198242,None,,,,,,,,,,,,,,,,,,10,5,2025-02-18_13h02.06.621,comp,2024.2.4,60.126925420205716,2025-02-18 13h02.40.927064 -0500,
116,116,0,filler_random,None,None,None,None,None,None,None,None,None,None,2,1.100013256072998,None,,,,,0,0,0,0,0,116,116,152,391.06229162216187,,,,,,,,,,,,,,,,,,,,,,,,,,,,,,,,,,,,,,,,,,,,,,,,,,,,,,,,,,,,,,,,,,,,,,,,,,,,,,,,,138.1969567131062,169.36200210468155,197.7645534963647,149.72857476918477,122.53466025978766,177.418889977657,2.1,2.11,-256,276,0,283,260,-272,391.0478699207306,391.04791378974915,391.05060386657715,391.06229162216187,391.21246099472046,391.21246099472046,391.21246099472046,391.21246099472046,391.21246099472046,391.21246099472046,391.21246099472046,392.1637613773346,2,1.100013256072998,None,,,,,,,,,,,,,,,,,,10,5,2025-02-18_13h02.06.621,comp,2024.2.4,60.126925420205716,2025-02-18 13h02.40.927064 -0500,
117,117,0,filler_square,None,None,None,None,None,None,None,None,None,None,2,1.1259372234344482,None,,,,,0,0,0,0,0,117,117,175,392.17891216278076,,,,,,,,,,,,,,,,,,,,,,,,,,,,,,,,,,,,,,,,,,,,,,,,,,,,,,,,,,,,,,,,,,,,,,,,,,,,,,,,,62.725263123730244,60.052484179023566,82.01560555681095,82.01560555681095,72.76564445396023,79.50538408057892,2.2,2.21,-167,-270,0,270,177,276,392.16476464271545,392.1648087501526,392.16700530052185,392.17891216278076,392.32884311676025,392.32884311676025,392.32884311676025,392.32884311676025,392.32884311676025,392.32884311676025,392.32884311676025,393.31326699256897,2,1.1259372234344482,None,,,,,,,,,,,,,,,,,,10,5,2025-02-18_13h02.06.621,comp,2024.2.4,60.126925420205716,2025-02-18 13h02.40.927064 -0500,
118,118,0,critical,wdh,35.0,2.1,upper,125.0,200.0,127.0,127.0,200.0,125.0,3,2.5839223861694336,None,,,,,0,0,0,0,0,118,118,9,393.3289532661438,,,,,,,,,,,,,,,,,,,,,,,,,,,,,,,,,,,,,,,,,,,,,,,,,,,,,,,,,,,,,,,,,,,,,,,,,,,,,,,,,125.0,200.0,127.0,127.0,200.0,125.0,2.1,2.11,-260,268,0,282,222,-252,393.3141202926636,393.31416487693787,393.3165900707245,393.3289532661438,393.4791088104248,393.4791088104248,393.4791088104248,393.4791088104248,393.4791088104248,393.4791088104248,393.4791088104248,395.93002247810364,3,2.5839223861694336,None,,,,,,,,,,,,,,,,,,10,5,2025-02-18_13h02.06.621,comp,2024.2.4,60.126925420205716,2025-02-18 13h02.40.927064 -0500,
119,119,0,filler_square,None,None,None,None,None,None,None,None,None,None,3,0.9920589923858643,None,,,,,0,0,0,0,0,119,119,194,395.94538164138794,,,,,,,,,,,,,,,,,,,,,,,,,,,,,,,,,,,,,,,,,,,,,,,,,,,,,,,,,,,,,,,,,,,,,,,,,,,,,,,,,119.26519650179759,62.495512212100884,59.00937281371389,111.28572165762071,155.13603448842179,155.13603448842179,3.0,3.1,-183,284,0,4,229,-276,395.9309823513031,395.9310235977173,395.9332139492035,395.94538164138794,396.0956196784973,396.0956196784973,396.0956196784973,396.0956196784973,396.0956196784973,396.0956196784973,396.0956196784973,396.9466001987457,3,0.9920589923858643,None,,,,,,,,,,,,,,,,,,10,5,2025-02-18_13h02.06.621,comp,2024.2.4,60.126925420205716,2025-02-18 13h02.40.927064 -0500,
120,120,0,critical,dhw,20.0,2.1,lower,78.0,78.0,133.0,57.0,57.0,133.0,2,1.685476303100586,None,,,,,0,0,0,0,0,120,120,2,396.96207785606384,,,,,,,,,,,,,,,,,,,,,,,,,,,,,,,,,,,,,,,,,,,,,,,,,,,,,,,,,,,,,,,,,,,,,,,,,,,,,,,,,78.0,78.0,133.0,57.0,57.0,133.0,2.1,2.11,-164,285,0,263,191,-267,396.9473955631256,396.94743847846985,396.94994497299194,396.96207785606384,397.11215233802795,397.11215233802795,397.11215233802795,397.11215233802795,397.11215233802795,397.11215233802795,397.11215233802795,398.66319513320923,2,1.685476303100586,None,,,,,,,,,,,,,,,,,,10,5,2025-02-18_13h02.06.621,comp,2024.2.4,60.126925420205716,2025-02-18 13h02.40.927064 -0500,
121,121,0,critical,wdh,35.0,2.1,lower,57.0,133.0,70.0,70.0,133.0,57.0,3,2.217406988143921,None,,,,,0,0,0,0,0,121,121,32,398.6785135269165,,,,,,,,,,,,,,,,,,,,,,,,,,,,,,,,,,,,,,,,,,,,,,,,,,,,,,,,,,,,,,,,,,,,,,,,,,,,,,,,,57.0,133.0,70.0,70.0,133.0,57.0,2.1,2.12,-198,-252,0,-256,160,262,398.66397976875305,398.66402196884155,398.6664488315582,398.6785135269165,398.8288469314575,398.8288469314575,398.8288469314575,398.8288469314575,398.8288469314575,398.8288469314575,398.8288469314575,400.9130594730377,3,2.217406988143921,None,,,,,,,,,,,,,,,,,,10,5,2025-02-18_13h02.06.621,comp,2024.2.4,60.126925420205716,2025-02-18 13h02.40.927064 -0500,
122,122,0,catch,None,None,None,None,None,None,None,None,None,None,3,1.0388555526733398,None,,,,,0,0,0,0,0,122,122,123,400.92864084243774,,,,,,,,,,,,,,,,,,,,,,,,,,,,,,,,,,,,,,,,,,,,,,,,,,,,,,,,,,,,,,,,,,,,,,,,,,,,,,,,,93,97,121,69,134,191,1.0,1.1,-659,253,-480,287,-254,257,400.91410636901855,400.9141471385956,400.91659688949585,400.92864084243774,401.0788400173187,401.0788400173187,401.0788400173187,401.0788400173187,401.0788400173187,401.0788400173187,401.0788400173187,401.97992300987244,3,1.0388555526733398,None,,,,,,,,,,,,,,,,,,10,5,2025-02-18_13h02.06.621,comp,2024.2.4,60.126925420205716,2025-02-18 13h02.40.927064 -0500,
123,123,0,critical,hwd,20.0,1.0,upper,200.0,125.0,125.0,200.0,141.0,141.0,1,1.6049938201904297,None,,,,,0,0,0,0,0,123,123,103,401.9951910972595,,,,,,,,,,,,,,,,,,,,,,,,,,,,,,,,,,,,,,,,,,,,,,,,,,,,,,,,,,,,,,,,,,,,,,,,,,,,,,,,,200.0,125.0,125.0,200.0,141.0,141.0,1.0,1.1,-738,268,-480,287,-214,259,401.9807457923889,401.9807860851288,401.98352813720703,401.9951910972595,402.14553141593933,402.14553141593933,402.14553141593933,402.14553141593933,402.14553141593933,402.14553141593933,402.14553141593933,403.613409280777,1,1.6049938201904297,None,,,,,,,,,,,,,,,,,,10,5,2025-02-18_13h02.06.621,comp,2024.2.4,60.126925420205716,2025-02-18 13h02.40.927064 -0500,
124,124,0,critical,dhw,20.0,4.0,lower,78.0,78.0,133.0,57.0,57.0,133.0,2,1.5084352493286133,None,,,,,0,0,0,0,0,124,124,58,403.6285946369171,,,,,,,,,,,,,,,,,,,,,,,,,,,,,,,,,,,,,,,,,,,,,,,,,,,,,,,,,,,,,,,,,,,,,,,,,,,,,,,,,78.0,78.0,133.0,57.0,57.0,133.0,4.0,4.1,-164,-258,0,-16,191,-265,403.6142404079437,403.6142818927765,403.61684489250183,403.6285946369171,403.7786750793457,403.7786750793457,403.7786750793457,403.7786750793457,403.7786750793457,403.7786750793457,403.7786750793457,405.14641308784485,2,1.5084352493286133,None,,,,,,,,,,,,,,,,,,10,5,2025-02-18_13h02.06.621,comp,2024.2.4,60.126925420205716,2025-02-18 13h02.40.927064 -0500,
125,125,0,catch,None,None,None,None,None,None,None,None,None,None,1,1.2783708572387695,None,,,,,0,0,0,0,0,125,125,125,405.16214179992676,,,,,,,,,,,,,,,,,,,,,,,,,,,,,,,,,,,,,,,,,,,,,,,,,,,,,,,,,,,,,,,,,,,,,,,,,,,,,,,,,163,162,102,88,64,126,2.1,2.12,-221,-253,0,-288,203,262,405.14744782447815,405.1474885940552,405.1500425338745,405.16214179992676,405.3124465942383,405.3124465942383,405.3124465942383,405.3124465942383,405.3124465942383,405.3124465942383,405.3124465942383,406.44655895233154,1,1.2783708572387695,None,,,,,,,,,,,,,,,,,,10,5,2025-02-18_13h02.06.621,comp,2024.2.4,60.126925420205716,2025-02-18 13h02.40.927064 -0500,
126,126,0,filler_random,None,None,None,None,None,None,None,None,None,None,2,1.05869460105896,None,,,,,0,0,0,0,0,126,126,162,406.4621045589447,,,,,,,,,,,,,,,,,,,,,,,,,,,,,,,,,,,,,,,,,,,,,,,,,,,,,,,,,,,,,,,,,,,,,,,,,,,,,,,,,70.78524995892484,72.29628858192959,155.0511410650921,182.91174806755703,127.93178173014647,153.8072874761172,1.0,1.1,-704,255,-480,255,-216,274,406.44747614860535,406.4475190639496,406.4497010707855,406.4621045589447,406.61224150657654,406.61224150657654,406.61224150657654,406.61224150657654,406.61224150657654,406.61224150657654,406.61224150657654,407.530033826828,2,1.05869460105896,None,,,,,,,,,,,,,,,,,,10,5,2025-02-18_13h02.06.621,comp,2024.2.4,60.126925420205716,2025-02-18 13h02.40.927064 -0500,
127,127,0,critical,dhw,20.0,2.1,lower,78.0,78.0,133.0,57.0,57.0,133.0,2,1.5836963653564453,None,,,,,0,0,0,0,0,127,127,26,407.5454351902008,,,,,,,,,,,,,,,,,,,,,,,,,,,,,,,,,,,,,,,,,,,,,,,,,,,,,,,,,,,,,,,,,,,,,,,,,,,,,,,,,78.0,78.0,133.0,57.0,57.0,133.0,2.1,2.11,-164,253,0,252,191,-259,407.5308723449707,407.5309145450592,407.5333230495453,407.5454351902008,407.69529390335083,407.69529390335083,407.69529390335083,407.69529390335083,407.69529390335083,407.69529390335083,407.69529390335083,409.1464719772339,2,1.5836963653564453,None,,,,,,,,,,,,,,,,,,10,5,2025-02-18_13h02.06.621,comp,2024.2.4,60.126925420205716,2025-02-18 13h02.40.927064 -0500,
128,128,0,critical,whd,35.0,2.1,upper,125.0,200.0,200.0,125.0,127.0,127.0,2,1.5836846828460693,None,,,,,0,0,0,0,0,128,128,37,409.1619083881378,,,,,,,,,,,,,,,,,,,,,,,,,,,,,,,,,,,,,,,,,,,,,,,,,,,,,,,,,,,,,,,,,,,,,,,,,,,,,,,,,125.0,200.0,200.0,125.0,127.0,127.0,2.1,2.11,-258,254,0,279,222,-273,409.1472816467285,409.14732360839844,409.1498715877533,409.1619083881378,409.3122136592865,409.3122136592865,409.3122136592865,409.3122136592865,409.3122136592865,409.3122136592865,409.3122136592865,410.7631585597992,2,1.5836846828460693,None,,,,,,,,,,,,,,,,,,10,5,2025-02-18_13h02.06.621,comp,2024.2.4,60.126925420205716,2025-02-18 13h02.40.927064 -0500,
129,129,0,filler_square,None,None,None,None,None,None,None,None,None,None,3,0.7888951301574707,None,,,,,0,0,0,0,0,129,129,178,410.7784628868103,,,,,,,,,,,,,,,,,,,,,,,,,,,,,,,,,,,,,,,,,,,,,,,,,,,,,,,,,,,,,,,,,,,,,,,,,,,,,,,,,62.824578108998125,65.06579524156841,64.95799382483109,87.90031282365746,182.30913947047264,182.30913947047264,2.2,2.21,-172,-285,0,251,231,253,410.76413226127625,410.7641746997833,410.7664108276367,410.7784628868103,410.92866134643555,410.92866134643555,410.92866134643555,410.92866134643555,410.92866134643555,410.92866134643555,410.92866134643555,411.579852104187,3,0.7888951301574707,None,,,,,,,,,,,,,,,,,,10,5,2025-02-18_13h02.06.621,comp,2024.2.4,60.126925420205716,2025-02-18 13h02.40.927064 -0500,
130,130,0,filler_random,None,None,None,None,None,None,None,None,None,None,1,0.8201918601989746,None,,,,,0,0,0,0,0,130,130,151,411.59537172317505,,,,,,,,,,,,,,,,,,,,,,,,,,,,,,,,,,,,,,,,,,,,,,,,,,,,,,,,,,,,,,,,,,,,,,,,,,,,,,,,,177.36173678212373,174.84839139220338,102.47131670195125,82.02905959282262,125.34683072008924,125.35777503540163,2.1,2.12,-224,-280,0,-267,200,258,411.58078813552856,411.58083057403564,411.5835554599762,411.59537172317505,411.74540519714355,411.74540519714355,411.74540519714355,411.74540519714355,411.74540519714355,411.74540519714355,411.74540519714355,412.42997670173645,1,0.8201918601989746,None,,,,,,,,,,,,,,,,,,10,5,2025-02-18_13h02.06.621,comp,2024.2.4,60.126925420205716,2025-02-18 13h02.40.927064 -0500,
131,131,0,critical,hwd,35.0,2.1,lower,133.0,57.0,57.0,133.0,70.0,70.0,1,2.5060946941375732,None,,,,,0,0,0,0,0,131,131,16,412.44514656066895,,,,,,,,,,,,,,,,,,,,,,,,,,,,,,,,,,,,,,,,,,,,,,,,,,,,,,,,,,,,,,,,,,,,,,,,,,,,,,,,,133.0,57.0,57.0,133.0,70.0,70.0,2.1,2.12,-191,-283,0,-281,198,258,412.430789232254,412.4308292865753,412.43345952033997,412.44514656066895,412.59557723999023,412.59557723999023,412.59557723999023,412.59557723999023,412.59557723999023,412.59557723999023,412.59557723999023,414.963534116745,1,2.5060946941375732,None,,,,,,,,,,,,,,,,,,10,5,2025-02-18_13h02.06.621,comp,2024.2.4,60.126925420205716,2025-02-18 13h02.40.927064 -0500,
132,132,0,critical,hdw,35.0,2.1,upper,200.0,125.0,127.0,127.0,125.0,200.0,1,3.388760566711426,None,,,,,0,0,0,0,0,132,132,45,414.97844314575195,,,,,,,,,,,,,,,,,,,,,,,,,,,,,,,,,,,,,,,,,,,,,,,,,,,,,,,,,,,,,,,,,,,,,,,,,,,,,,,,,200.0,125.0,127.0,127.0,125.0,200.0,2.1,2.11,-222,272,0,271,260,-251,414.964373588562,414.9644150733948,414.9666213989258,414.97844314575195,415.1288893222809,415.1288893222809,415.1288893222809,415.1288893222809,415.1288893222809,415.1288893222809,415.1288893222809,418.3797698020935,1,3.388760566711426,None,,,,,,,,,,,,,,,,,,10,5,2025-02-18_13h02.06.621,comp,2024.2.4,60.126925420205716,2025-02-18 13h02.40.927064 -0500,
133,133,0,critical,dhw,20.0,3.0,lower,78.0,78.0,133.0,57.0,57.0,133.0,2,1.7336912155151367,None,,,,,0,0,0,0,0,133,133,56,418.3950686454773,,,,,,,,,,,,,,,,,,,,,,,,,,,,,,,,,,,,,,,,,,,,,,,,,,,,,,,,,,,,,,,,,,,,,,,,,,,,,,,,,78.0,78.0,133.0,57.0,57.0,133.0,3.0,3.1,-164,276,0,5,191,-276,418.38057565689087,418.3806161880493,418.38323402404785,418.3950686454773,418.54537200927734,418.54537200927734,418.54537200927734,418.54537200927734,418.54537200927734,418.54537200927734,418.54537200927734,420.14628624916077,2,1.7336912155151367,None,,,,,,,,,,,,,,,,,,10,5,2025-02-18_13h02.06.621,comp,2024.2.4,60.126925420205716,2025-02-18 13h02.40.927064 -0500,
134,134,0,critical,whd,35.0,2.1,lower,57.0,133.0,133.0,57.0,70.0,70.0,2,1.2537004947662354,None,,,,,0,0,0,0,0,134,134,36,420.16178488731384,,,,,,,,,,,,,,,,,,,,,,,,,,,,,,,,,,,,,,,,,,,,,,,,,,,,,,,,,,,,,,,,,,,,,,,,,,,,,,,,,57.0,133.0,133.0,57.0,70.0,70.0,2.1,2.11,-191,258,0,274,160,-287,420.1471104621887,420.1471519470215,420.15060091018677,420.16178488731384,420.31178426742554,420.31178426742554,420.31178426742554,420.31178426742554,420.31178426742554,420.31178426742554,420.31178426742554,421.4296455383301,2,1.2537004947662354,None,,,,,,,,,,,,,,,,,,10,5,2025-02-18_13h02.06.621,comp,2024.2.4,60.126925420205716,2025-02-18 13h02.40.927064 -0500,
135,135,0,critical,wdh,35.0,3.0,upper,125.0,200.0,127.0,127.0,200.0,125.0,3,1.6023516654968262,None,,,,,0,0,0,0,0,135,135,75,421.4450740814209,,,,,,,,,,,,,,,,,,,,,,,,,,,,,,,,,,,,,,,,,,,,,,,,,,,,,,,,,,,,,,,,,,,,,,,,,,,,,,,,,125.0,200.0,127.0,127.0,200.0,125.0,3.0,3.2,-260,-288,0,-14,222,286,421.4304852485657,421.43052673339844,421.43309020996094,421.4450740814209,421.59545969963074,421.59545969963074,421.59545969963074,421.59545969963074,421.59545969963074,421.59545969963074,421.59545969963074,423.0630202293396,3,1.6023516654968262,None,,,,,,,,,,,,,,,,,,10,5,2025-02-18_13h02.06.621,comp,2024.2.4,60.126925420205716,2025-02-18 13h02.40.927064 -0500,
136,136,0,critical,whd,35.0,1.0,lower,57.0,133.0,133.0,57.0,70.0,70.0,2,1.1050033569335938,None,,,,,0,0,0,0,0,136,136,84,423.07822346687317,,,,,,,,,,,,,,,,,,,,,,,,,,,,,,,,,,,,,,,,,,,,,,,,,,,,,,,,,,,,,,,,,,,,,,,,,,,,,,,,,57.0,133.0,133.0,57.0,70.0,70.0,1.0,1.3,289,-289,480,-267,640,-264,423.06381154060364,423.0638515949249,423.06621265411377,423.07822346687317,423.2284610271454,423.2284610271454,423.2284610271454,423.2284610271454,423.2284610271454,423.2284610271454,423.2284610271454,424.19621205329895,2,1.1050033569335938,None,,,,,,,,,,,,,,,,,,10,5,2025-02-18_13h02.06.621,comp,2024.2.4,60.126925420205716,2025-02-18 13h02.40.927064 -0500,
137,137,0,filler_square,None,None,None,None,None,None,None,None,None,None,2,1.0036735534667969,None,,,,,0,0,0,0,0,137,137,172,424.21162700653076,,,,,,,,,,,,,,,,,,,,,,,,,,,,,,,,,,,,,,,,,,,,,,,,,,,,,,,,,,,,,,,,,,,,,,,,,,,,,,,,,57.387187132577814,57.9505659931113,117.32645741732638,117.32645741732638,113.96964475235174,65.61868376954845,3.0,3.2,-184,-255,0,-2,187,253,424.197190284729,424.1972301006317,424.19965505599976,424.21162700653076,424.36177945137024,424.36177945137024,424.36177945137024,424.36177945137024,424.36177945137024,424.36177945137024,424.36177945137024,425.2293930053711,2,1.0036735534667969,None,,,,,,,,,,,,,,,,,,10,5,2025-02-18_13h02.06.621,comp,2024.2.4,60.126925420205716,2025-02-18 13h02.40.927064 -0500,
138,138,0,filler_square,None,None,None,None,None,None,None,None,None,None,1,0.9865057468414307,None,,,,,0,0,0,0,0,138,138,199,425.24500942230225,,,,,,,,,,,,,,,,,,,,,,,,,,,,,,,,,,,,,,,,,,,,,,,,,,,,,,,,,,,,,,,,,,,,,,,,,,,,,,,,,138.44569561465008,138.44569561465008,66.81521987774545,78.65613284387263,87.8741656915931,126.51357390953969,4.0,4.1,-205,-256,0,-12,199,-287,425.2303373813629,425.2303783893585,425.2329225540161,425.24500942230225,425.3951647281647,425.3951647281647,425.3951647281647,425.3951647281647,425.3951647281647,425.3951647281647,425.3951647281647,426.24623250961304,1,0.9865057468414307,None,,,,,,,,,,,,,,,,,,10,5,2025-02-18_13h02.06.621,comp,2024.2.4,60.126925420205716,2025-02-18 13h02.40.927064 -0500,
139,139,0,critical,hdw,20.0,3.0,lower,133.0,57.0,78.0,78.0,57.0,133.0,1,2.5002198219299316,None,,,,,0,0,0,0,0,139,139,116,426.2616469860077,,,,,,,,,,,,,,,,,,,,,,,,,,,,,,,,,,,,,,,,,,,,,,,,,,,,,,,,,,,,,,,,,,,,,,,,,,,,,,,,,133.0,57.0,78.0,78.0,57.0,133.0,3.0,3.2,-164,-289,0,-5,202,256,426.2470180988312,426.2470579147339,426.24954175949097,426.2616469860077,426.4117476940155,426.4117476940155,426.4117476940155,426.4117476940155,426.4117476940155,426.4117476940155,426.4117476940155,428.763165473938,1,2.5002198219299316,None,,,,,,,,,,,,,,,,,,10,5,2025-02-18_13h02.06.621,comp,2024.2.4,60.126925420205716,2025-02-18 13h02.40.927064 -0500,
