thisN,thisTrialN,thisRepN,effect,order,distance,config,diag,h_1,w_1,h_2,w_2,h_3,w_3,rect_choice.keys,rect_choice.rt,rect_choice.duration,instructions_loop.thisRepN,instructions_loop.thisTrialN,instructions_loop.thisN,instructions_loop.thisIndex,blocks.thisRepN,blocks.thisTrialN,blocks.thisN,blocks.thisIndex,trials.thisRepN,trials.thisTrialN,trials.thisN,trials.thisIndex,thisRow.t,notes,consent.started,agree_button.started,decline_button.started,consent_img.started,mouse.started,consent.stopped,agree_button.numClicks,agree_button.timesOn,agree_button.timesOff,decline_button.numClicks,decline_button.timesOn,decline_button.timesOff,mouse.x,mouse.y,mouse.leftButton,mouse.midButton,mouse.rightButton,mouse.time,mouse.clicked_name,exp_params.started,exp_params.stopped,welcome.started,welcome_text.started,welcome.stopped,instructions_1.started,instructions_1_text_1.started,instructions_1_text_2.started,key_resp.started,instructions_1.stopped,instructions_loop.key_resp.keys,instructions_loop.key_resp.rt,instructions_loop.key_resp.duration,instructions_2.started,instructions_2_text_1.started,instructions_2_text_2.started,key_resp_2.started,instructions_2.stopped,instructions_loop.key_resp_2.keys,instructions_loop.key_resp_2.rt,instructions_loop.key_resp_2.duration,instructions_3.started,instructions_3_text_1.started,r1_instr3.started,r2_instr3.started,r3_instr3.started,r1_instr3_label.started,r2_instr3_label.started,r3_instr3_label.started,instructions_3_text_3.started,instructions_3_text_4.started,key_resp_3.started,instructions_3.stopped,instructions_loop.key_resp_3.keys,instructions_loop.key_resp_3.rt,instructions_loop.key_resp_3.duration,instructions_4.started,instructions_4_text_1.started,instructions_4_text_3.started,instructions_4_text_2.started,key_resp_4.started,instructions_4.stopped,instructions_loop.key_resp_4.keys,instructions_loop.key_resp_4.rt,instructions_loop.key_resp_4.duration,instructions_5.started,instructions_5_text_1.started,instructions_5_text_2.started,key_resp_5.started,instructions_5.stopped,instructions_loop.key_resp_5.keys,instructions_loop.key_resp_5.rt,instructions_loop.key_resp_5.duration,start_exp.started,start_exp_text.started,key_resp_6.started,start_exp.stopped,key_resp_6.keys,key_resp_6.rt,key_resp_6.duration,h_1_tmp,w_1_tmp,h_2_tmp,w_2_tmp,h_3_tmp,w_3_tmp,config_tmp,config_tmp_1,r_1_x,r_1_y,r_2_x,r_2_y,r_3_x,r_3_y,pre_trial.started,pre_trial.stopped,choice_trial.started,rect_choice.started,r_1.started,r_2.started,r_3.started,r_1_label.started,r_2_label.started,r_3_label.started,prompt.started,choice_trial.stopped,trials.rect_choice.keys,trials.rect_choice.rt,trials.rect_choice.duration,end_block.started,end_block_text.started,end_block.stopped,end.started,end_text.started,key_resp_7.started,end.stopped,key_resp_7.keys,key_resp_7.rt,key_resp_7.duration,debriefing.started,debrief_form.started,end_debrief.started,debriefing.stopped,end_debrief.keys,end_debrief.rt,end_debrief.duration,participant,computer,date,expName,psychopyVersion,frameRate,expStart,
,,,,,,,,,,,,,,,,,,,,,,,,,,,,,,,0.015256404876708984,0.03804302215576172,0.03804302215576172,0.03804302215576172,0.015022993087768555,21.27970314025879,1,[21.239152431488037],[21.239174842834473],0,,,[-106.0],[-513.0],[1],[0],[0],[21.264046669006348],['agree_button'],,,,,,,,,,,,,,,,,,,,,,,,,,,,,,,,,,,,,,,,,,,,,,,,,,,,,,,,,,,,,,,,,,,,,,,,,,,,,,,,,,,,,,,,,,,,,,,,,,,,,,,,,,,110,2,2025-02-25_11h58.33.689,comp,2024.2.4,55.17833650820379,2025-02-25 11h59.34.919928 -0500,
,,,,,,,,,,,,,,,,,,,,,,,,,,,,,,,,,,,,,,,,,,,,,,,,,,21.28020715713501,21.28027033805847,,,,,,,,,,,,,,,,,,,,,,,,,,,,,,,,,,,,,,,,,,,,,,,,,,,,,,,,,,,,,,,,,,,,,,,,,,,,,,,,,,,,,,,,,,,,,,,,,,,,,,,,,110,2,2025-02-25_11h58.33.689,comp,2024.2.4,55.17833650820379,2025-02-25 11h59.34.919928 -0500,
,,,,,,,,,,,,,,,,,,,,,,,,,,,,,,,,,,,,,,,,,,,,,,,,,,,,21.280317544937134,21.294679403305054,23.281543254852295,,,,,,,,,,,,,,,,,,,,,,,,,,,,,,,,,,,,,,,,,,,,,,,,,,,,,,,,,,,,,,,,,,,,,,,,,,,,,,,,,,,,,,,,,,,,,,,,,,,,,,110,2,2025-02-25_11h58.33.689,comp,2024.2.4,55.17833650820379,2025-02-25 11h59.34.919928 -0500,
0,0,0,,,,,,,,,,,,,,,0,0,0,0,,,,,,,,,23.298463106155396,,,,,,,,,,,,,,,,,,,,,,,,,,23.282509088516235,23.298463106155396,23.298463106155396,24.781907081604004,26.54405117034912,space,1.7356088161468506,None,26.544244289398193,26.55950379371643,26.55950379371643,28.050500631332397,33.80379033088684,space,5.747793674468994,None,33.803943157196045,33.83207726478577,33.83207726478577,33.83207726478577,33.83207726478577,33.83207726478577,33.83207726478577,33.83207726478577,33.83207726478577,33.83207726478577,35.304007053375244,39.355797290802,space,4.0458083152771,None,39.35595393180847,39.373384952545166,39.373384952545166,39.373384952545166,40.85581707954407,49.36004137992859,space,8.501511573791504,None,49.360220432281494,49.37916326522827,49.37916326522827,50.87809109687805,51.17673921585083,space,0.2953650951385498,None,51.17693853378296,51.1895318031311,51.1895318031311,51.95863628387451,space,0.759770393371582,None,,,,,,,,,,,,,,,,,,,,,,,,,,,,,,,,,,,,,,,,,,,,,,,110,2,2025-02-25_11h58.33.689,comp,2024.2.4,55.17833650820379,2025-02-25 11h59.34.919928 -0500,
0,0,0,critical,hdw,20.0,3.0,upper,200.0,125.0,141.0,141.0,125.0,200.0,3,13.65353536605835,None,,,,,0,0,0,0,0,0,0,117,52.033480644226074,,,,,,,,,,,,,,,,,,,,,,,,,,,,,,,,,,,,,,,,,,,,,,,,,,,,,,,,,,,,,,,,,,,,,,,,,,,,,,,,,200.0,125.0,141.0,141.0,125.0,200.0,3.0,3.2,-229,-250,0,4,266,262,52.01623749732971,52.0162718296051,52.01748490333557,52.033480644226074,52.18315291404724,52.18315291404724,52.18315291404724,52.18315291404724,52.18315291404724,52.18315291404724,52.18315291404724,65.69904851913452,3,13.65353536605835,None,,,,,,,,,,,,,,,,,,110,2,2025-02-25_11h58.33.689,comp,2024.2.4,55.17833650820379,2025-02-25 11h59.34.919928 -0500,
1,1,0,filler_square,None,None,None,None,None,None,None,None,None,None,2,4.242967367172241,None,,,,,0,0,0,0,0,1,1,193,65.71444416046143,,,,,,,,,,,,,,,,,,,,,,,,,,,,,,,,,,,,,,,,,,,,,,,,,,,,,,,,,,,,,,,,,,,,,,,,,,,,,,,,,62.423618251418816,60.03845015573426,107.0755441982468,107.0755441982468,100.20299865989034,62.52005280160534,2.2,2.21,-180,-261,0,275,181,261,65.70074367523193,65.70080780982971,65.70433831214905,65.71444416046143,65.86173129081726,65.86173129081726,65.86173129081726,65.86173129081726,65.86173129081726,65.86173129081726,65.86173129081726,69.97451663017273,2,4.242967367172241,None,,,,,,,,,,,,,,,,,,110,2,2025-02-25_11h58.33.689,comp,2024.2.4,55.17833650820379,2025-02-25 11h59.34.919928 -0500,
2,2,0,critical,dwh,20.0,4.0,upper,141.0,141.0,125.0,200.0,200.0,125.0,2,3.0881919860839844,None,,,,,0,0,0,0,0,2,2,71,69.98921704292297,,,,,,,,,,,,,,,,,,,,,,,,,,,,,,,,,,,,,,,,,,,,,,,,,,,,,,,,,,,,,,,,,,,,,,,,,,,,,,,,,141.0,141.0,125.0,200.0,200.0,125.0,4.0,4.1,-266,-250,0,-1,258,-272,69.97603464126587,69.97611021995544,69.97889351844788,69.98921704292297,70.1322090625763,70.1322090625763,70.1322090625763,70.1322090625763,70.1322090625763,70.1322090625763,70.1322090625763,73.09048461914062,2,3.0881919860839844,None,,,,,,,,,,,,,,,,,,110,2,2025-02-25_11h58.33.689,comp,2024.2.4,55.17833650820379,2025-02-25 11h59.34.919928 -0500,
3,3,0,filler_random,None,None,None,None,None,None,None,None,None,None,2,1.947075366973877,None,,,,,0,0,0,0,0,3,3,151,73.10628700256348,,,,,,,,,,,,,,,,,,,,,,,,,,,,,,,,,,,,,,,,,,,,,,,,,,,,,,,,,,,,,,,,,,,,,,,,,,,,,,,,,65.70648178284792,146.77690113922966,107.16577991367822,156.1917536367584,121.5684116819498,66.73467457266422,1.0,1.3,233,-261,480,-257,687,-277,73.09224963188171,73.09232831001282,73.09513759613037,73.10628700256348,73.25060272216797,73.25060272216797,73.25060272216797,73.25060272216797,73.25060272216797,73.25060272216797,73.25060272216797,75.06880235671997,2,1.947075366973877,None,,,,,,,,,,,,,,,,,,110,2,2025-02-25_11h58.33.689,comp,2024.2.4,55.17833650820379,2025-02-25 11h59.34.919928 -0500,
4,4,0,filler_random,None,None,None,None,None,None,None,None,None,None,3,2.422922372817993,None,,,,,0,0,0,0,0,4,4,148,75.0876886844635,,,,,,,,,,,,,,,,,,,,,,,,,,,,,,,,,,,,,,,,,,,,,,,,,,,,,,,,,,,,,,,,,,,,,,,,,,,,,,,,,114.30091288013261,58.26634602165727,186.29988191137733,93.83432902095525,161.08783281210498,134.82167403115596,2.2,2.22,-172,288,0,-279,210,-264,75.0705680847168,75.07064509391785,75.07365274429321,75.0876886844635,75.23917388916016,75.23917388916016,75.23917388916016,75.23917388916016,75.23917388916016,75.23917388916016,75.23917388916016,77.52136826515198,3,2.422922372817993,None,,,,,,,,,,,,,,,,,,110,2,2025-02-25_11h58.33.689,comp,2024.2.4,55.17833650820379,2025-02-25 11h59.34.919928 -0500,
5,5,0,critical,dhw,20.0,2.1,lower,78.0,78.0,133.0,57.0,57.0,133.0,2,3.2912423610687256,None,,,,,0,0,0,0,0,5,5,2,77.53841137886047,,,,,,,,,,,,,,,,,,,,,,,,,,,,,,,,,,,,,,,,,,,,,,,,,,,,,,,,,,,,,,,,,,,,,,,,,,,,,,,,,78.0,78.0,133.0,57.0,57.0,133.0,2.1,2.11,-164,255,0,279,191,-275,77.52321529388428,77.52329754829407,77.52702760696411,77.53841137886047,77.68530464172363,77.68530464172363,77.68530464172363,77.68530464172363,77.68530464172363,77.68530464172363,77.68530464172363,80.836989402771,2,3.2912423610687256,None,,,,,,,,,,,,,,,,,,110,2,2025-02-25_11h58.33.689,comp,2024.2.4,55.17833650820379,2025-02-25 11h59.34.919928 -0500,
6,6,0,critical,hdw,35.0,3.0,lower,133.0,57.0,70.0,70.0,57.0,133.0,1,3.3045036792755127,None,,,,,0,0,0,0,0,6,6,110,80.85291576385498,,,,,,,,,,,,,,,,,,,,,,,,,,,,,,,,,,,,,,,,,,,,,,,,,,,,,,,,,,,,,,,,,,,,,,,,,,,,,,,,,133.0,57.0,70.0,70.0,57.0,133.0,3.0,3.2,-160,-279,0,9,198,257,80.83868479728699,80.83876085281372,80.84210848808289,80.85291576385498,81.00209021568298,81.00209021568298,81.00209021568298,81.00209021568298,81.00209021568298,81.00209021568298,81.00209021568298,84.17084217071533,1,3.3045036792755127,None,,,,,,,,,,,,,,,,,,110,2,2025-02-25_11h58.33.689,comp,2024.2.4,55.17833650820379,2025-02-25 11h59.34.919928 -0500,
7,7,0,critical,whd,20.0,1.0,lower,57.0,133.0,133.0,57.0,78.0,78.0,2,7.93160605430603,None,,,,,0,0,0,0,0,7,7,90,84.18659448623657,,,,,,,,,,,,,,,,,,,,,,,,,,,,,,,,,,,,,,,,,,,,,,,,,,,,,,,,,,,,,,,,,,,,,,,,,,,,,,,,,57.0,133.0,133.0,57.0,78.0,78.0,1.0,1.2,-191,10,0,16,164,14,84.17254066467285,84.17267084121704,84.17625904083252,84.18659448623657,84.33538627624512,84.33538627624512,84.33538627624512,84.33538627624512,84.33538627624512,84.33538627624512,84.33538627624512,92.12571406364441,2,7.93160605430603,None,,,,,,,,,,,,,,,,,,110,2,2025-02-25_11h58.33.689,comp,2024.2.4,55.17833650820379,2025-02-25 11h59.34.919928 -0500,
8,8,0,filler_square,None,None,None,None,None,None,None,None,None,None,1,2.294445753097534,None,,,,,0,0,0,0,0,8,8,170,92.1432433128357,,,,,,,,,,,,,,,,,,,,,,,,,,,,,,,,,,,,,,,,,,,,,,,,,,,,,,,,,,,,,,,,,,,,,,,,,,,,,,,,,79.79378666793498,79.79378666793498,62.21786375535206,73.35796350379205,57.09115266677171,79.32978377683169,2.1,2.11,-173,285,0,285,172,-254,92.12782573699951,92.1279067993164,92.13174414634705,92.1432433128357,92.2903528213501,92.2903528213501,92.2903528213501,92.2903528213501,92.2903528213501,92.2903528213501,92.2903528213501,94.44216656684875,1,2.294445753097534,None,,,,,,,,,,,,,,,,,,110,2,2025-02-25_11h58.33.689,comp,2024.2.4,55.17833650820379,2025-02-25 11h59.34.919928 -0500,
9,9,0,critical,dhw,35.0,1.0,lower,70.0,70.0,133.0,57.0,57.0,133.0,2,2.3109889030456543,None,,,,,0,0,0,0,0,9,9,48,94.46256399154663,,,,,,,,,,,,,,,,,,,,,,,,,,,,,,,,,,,,,,,,,,,,,,,,,,,,,,,,,,,,,,,,,,,,,,,,,,,,,,,,,70.0,70.0,133.0,57.0,57.0,133.0,1.0,1.2,-160,0,0,-3,191,-16,94.44364190101624,94.44371938705444,94.44675731658936,94.46256399154663,94.60332012176514,94.60332012176514,94.60332012176514,94.60332012176514,94.60332012176514,94.60332012176514,94.60332012176514,96.77722477912903,2,2.3109889030456543,None,,,,,,,,,,,,,,,,,,110,2,2025-02-25_11h58.33.689,comp,2024.2.4,55.17833650820379,2025-02-25 11h59.34.919928 -0500,
10,10,0,filler_random,None,None,None,None,None,None,None,None,None,None,1,1.850050449371338,None,,,,,0,0,0,0,0,10,10,149,96.7959291934967,,,,,,,,,,,,,,,,,,,,,,,,,,,,,,,,,,,,,,,,,,,,,,,,,,,,,,,,,,,,,,,,,,,,,,,,,,,,,,,,,169.734300810656,149.07280215650803,81.74969923570863,125.26308956075457,120.80197560972292,128.41990533808405,1.0,1.3,247,-251,480,-277,703,-262,96.77908325195312,96.77920579910278,96.78206300735474,96.7959291934967,96.9410309791565,96.9410309791565,96.9410309791565,96.9410309791565,96.9410309791565,96.9410309791565,96.9410309791565,98.6633951663971,1,1.850050449371338,None,,,,,,,,,,,,,,,,,,110,2,2025-02-25_11h58.33.689,comp,2024.2.4,55.17833650820379,2025-02-25 11h59.34.919928 -0500,
11,11,0,critical,wdh,20.0,2.1,upper,125.0,200.0,141.0,141.0,200.0,125.0,3,7.0544164180755615,None,,,,,0,0,0,0,0,11,11,11,98.679039478302,,,,,,,,,,,,,,,,,,,,,,,,,,,,,,,,,,,,,,,,,,,,,,,,,,,,,,,,,,,,,,,,,,,,,,,,,,,,,,,,,125.0,200.0,141.0,141.0,200.0,125.0,2.1,2.11,-266,276,0,280,229,-279,98.665354013443,98.66543507575989,98.668692111969,98.679039478302,98.82549166679382,98.82549166679382,98.82549166679382,98.82549166679382,98.82549166679382,98.82549166679382,98.82549166679382,105.74316763877869,3,7.0544164180755615,None,,,,,,,,,,,,,,,,,,110,2,2025-02-25_11h58.33.689,comp,2024.2.4,55.17833650820379,2025-02-25 11h59.34.919928 -0500,
12,12,0,critical,dhw,35.0,2.1,upper,127.0,127.0,200.0,125.0,125.0,200.0,2,2.8925983905792236,None,,,,,0,0,0,0,0,12,12,1,105.7616879940033,,,,,,,,,,,,,,,,,,,,,,,,,,,,,,,,,,,,,,,,,,,,,,,,,,,,,,,,,,,,,,,,,,,,,,,,,,,,,,,,,127.0,127.0,200.0,125.0,125.0,200.0,2.1,2.12,-222,-280,0,-281,258,282,105.74478006362915,105.74486088752747,105.74791932106018,105.7616879940033,105.91066074371338,105.91066074371338,105.91066074371338,105.91066074371338,105.91066074371338,105.91066074371338,105.91066074371338,108.66225171089172,2,2.8925983905792236,None,,,,,,,,,,,,,,,,,,110,2,2025-02-25_11h58.33.689,comp,2024.2.4,55.17833650820379,2025-02-25 11h59.34.919928 -0500,
13,13,0,critical,whd,20.0,2.1,upper,125.0,200.0,200.0,125.0,141.0,141.0,1,8.000056982040405,None,,,,,0,0,0,0,0,13,13,39,108.67770195007324,,,,,,,,,,,,,,,,,,,,,,,,,,,,,,,,,,,,,,,,,,,,,,,,,,,,,,,,,,,,,,,,,,,,,,,,,,,,,,,,,125.0,200.0,200.0,125.0,141.0,141.0,2.1,2.11,-258,264,0,251,229,-257,108.6637921333313,108.66386938095093,108.66681361198425,108.67770195007324,108.83294224739075,108.83294224739075,108.83294224739075,108.83294224739075,108.83294224739075,108.83294224739075,108.83294224739075,116.68166613578796,1,8.000056982040405,None,,,,,,,,,,,,,,,,,,110,2,2025-02-25_11h58.33.689,comp,2024.2.4,55.17833650820379,2025-02-25 11h59.34.919928 -0500,
14,14,0,filler_random,None,None,None,None,None,None,None,None,None,None,1,2.0564799308776855,None,,,,,0,0,0,0,0,14,14,139,116.70093774795532,,,,,,,,,,,,,,,,,,,,,,,,,,,,,,,,,,,,,,,,,,,,,,,,,,,,,,,,,,,,,,,,,,,,,,,,,,,,,,,,,140.1479951888956,193.37366067314417,195.66512125245802,105.34077702346573,118.68730385031611,67.00400442285736,1.0,1.3,235,-256,480,-289,662,-259,116.68364024162292,116.6837387084961,116.6876573562622,116.70093774795532,116.84737062454224,116.84737062454224,116.84737062454224,116.84737062454224,116.84737062454224,116.84737062454224,116.84737062454224,118.77039122581482,1,2.0564799308776855,None,,,,,,,,,,,,,,,,,,110,2,2025-02-25_11h58.33.689,comp,2024.2.4,55.17833650820379,2025-02-25 11h59.34.919928 -0500,
15,15,0,filler_random,None,None,None,None,None,None,None,None,None,None,3,2.767069101333618,None,,,,,0,0,0,0,0,15,15,145,118.79072213172913,,,,,,,,,,,,,,,,,,,,,,,,,,,,,,,,,,,,,,,,,,,,,,,,,,,,,,,,,,,,,,,,,,,,,,,,,,,,,,,,,137.90454215380493,106.79455197280362,138.87420218493128,136.76244025784501,197.08217179696777,178.10006361219465,3.0,3.2,-218,-283,0,-15,253,261,118.77211165428162,118.77221488952637,118.77498579025269,118.79072213172913,118.93151021003723,118.93151021003723,118.93151021003723,118.93151021003723,118.93151021003723,118.93151021003723,118.93151021003723,121.5753538608551,3,2.767069101333618,None,,,,,,,,,,,,,,,,,,110,2,2025-02-25_11h58.33.689,comp,2024.2.4,55.17833650820379,2025-02-25 11h59.34.919928 -0500,
16,16,0,critical,whd,35.0,4.0,lower,57.0,133.0,133.0,57.0,70.0,70.0,2,12.74976134300232,None,,,,,0,0,0,0,0,16,16,88,121.59394097328186,,,,,,,,,,,,,,,,,,,,,,,,,,,,,,,,,,,,,,,,,,,,,,,,,,,,,,,,,,,,,,,,,,,,,,,,,,,,,,,,,57.0,133.0,133.0,57.0,70.0,70.0,4.0,4.2,-191,19,0,-267,160,-9,121.57687640190125,121.57695078849792,121.57972359657288,121.59394097328186,121.73218011856079,121.73218011856079,121.73218011856079,121.73218011856079,121.73218011856079,121.73218011856079,121.73218011856079,134.35434746742249,2,12.74976134300232,None,,,,,,,,,,,,,,,,,,110,2,2025-02-25_11h58.33.689,comp,2024.2.4,55.17833650820379,2025-02-25 11h59.34.919928 -0500,
17,17,0,critical,wdh,35.0,4.0,lower,57.0,133.0,70.0,70.0,133.0,57.0,3,2.211036205291748,None,,,,,0,0,0,0,0,17,17,76,134.37065267562866,,,,,,,,,,,,,,,,,,,,,,,,,,,,,,,,,,,,,,,,,,,,,,,,,,,,,,,,,,,,,,,,,,,,,,,,,,,,,,,,,57.0,133.0,70.0,70.0,133.0,57.0,4.0,4.2,-198,3,0,-262,160,17,134.35603523254395,134.35619521141052,134.3596658706665,134.37065267562866,134.5179624557495,134.5179624557495,134.5179624557495,134.5179624557495,134.5179624557495,134.5179624557495,134.5179624557495,136.59576988220215,3,2.211036205291748,None,,,,,,,,,,,,,,,,,,110,2,2025-02-25_11h58.33.689,comp,2024.2.4,55.17833650820379,2025-02-25 11h59.34.919928 -0500,
18,18,0,critical,whd,20.0,3.0,upper,125.0,200.0,200.0,125.0,141.0,141.0,2,3.0403361320495605,None,,,,,0,0,0,0,0,18,18,93,136.61323928833008,,,,,,,,,,,,,,,,,,,,,,,,,,,,,,,,,,,,,,,,,,,,,,,,,,,,,,,,,,,,,,,,,,,,,,,,,,,,,,,,,125.0,200.0,200.0,125.0,141.0,141.0,3.0,3.1,-258,280,0,15,229,-281,136.5972592830658,136.59733653068542,136.6001479625702,136.61323928833008,136.75510931015015,136.75510931015015,136.75510931015015,136.75510931015015,136.75510931015015,136.75510931015015,136.75510931015015,139.66410565376282,2,3.0403361320495605,None,,,,,,,,,,,,,,,,,,110,2,2025-02-25_11h58.33.689,comp,2024.2.4,55.17833650820379,2025-02-25 11h59.34.919928 -0500,
19,19,0,critical,hwd,20.0,1.0,upper,200.0,125.0,125.0,200.0,141.0,141.0,1,4.914028644561768,None,,,,,0,0,0,0,0,19,19,103,139.68431687355042,,,,,,,,,,,,,,,,,,,,,,,,,,,,,,,,,,,,,,,,,,,,,,,,,,,,,,,,,,,,,,,,,,,,,,,,,,,,,,,,,200.0,125.0,125.0,200.0,141.0,141.0,1.0,1.2,-258,-8,0,-9,266,-1,139.66563892364502,139.6657211780548,139.66856455802917,139.68431687355042,139.82215332984924,139.82215332984924,139.82215332984924,139.82215332984924,139.82215332984924,139.82215332984924,139.82215332984924,144.60461950302124,1,4.914028644561768,None,,,,,,,,,,,,,,,,,,110,2,2025-02-25_11h58.33.689,comp,2024.2.4,55.17833650820379,2025-02-25 11h59.34.919928 -0500,
20,20,0,critical,dwh,20.0,1.0,upper,141.0,141.0,125.0,200.0,200.0,125.0,2,4.715259552001953,None,,,,,0,0,0,0,0,20,20,67,144.6201958656311,,,,,,,,,,,,,,,,,,,,,,,,,,,,,,,,,,,,,,,,,,,,,,,,,,,,,,,,,,,,,,,,,,,,,,,,,,,,,,,,,141.0,141.0,125.0,200.0,200.0,125.0,1.0,1.3,214,-252,480,-256,738,-271,144.60608315467834,144.6061828136444,144.60892701148987,144.6201958656311,144.77354502677917,144.77354502677917,144.77354502677917,144.77354502677917,144.77354502677917,144.77354502677917,144.77354502677917,149.33974313735962,2,4.715259552001953,None,,,,,,,,,,,,,,,,,,110,2,2025-02-25_11h58.33.689,comp,2024.2.4,55.17833650820379,2025-02-25 11h59.34.919928 -0500,
21,21,0,critical,hdw,35.0,1.0,upper,200.0,125.0,127.0,127.0,125.0,200.0,3,3.113652467727661,None,,,,,0,0,0,0,0,21,21,109,149.356205701828,,,,,,,,,,,,,,,,,,,,,,,,,,,,,,,,,,,,,,,,,,,,,,,,,,,,,,,,,,,,,,,,,,,,,,,,,,,,,,,,,200.0,125.0,127.0,127.0,125.0,200.0,1.0,1.1,-702,282,-480,266,-220,266,149.34133577346802,149.34141373634338,149.34433889389038,149.356205701828,149.4943597316742,149.4943597316742,149.4943597316742,149.4943597316742,149.4943597316742,149.4943597316742,149.4943597316742,152.47481274604797,3,3.113652467727661,None,,,,,,,,,,,,,,,,,,110,2,2025-02-25_11h58.33.689,comp,2024.2.4,55.17833650820379,2025-02-25 11h59.34.919928 -0500,
22,22,0,catch,None,None,None,None,None,None,None,None,None,None,2,1.6025152206420898,None,,,,,0,0,0,0,0,22,22,120,152.49170112609863,,,,,,,,,,,,,,,,,,,,,,,,,,,,,,,,,,,,,,,,,,,,,,,,,,,,,,,,,,,,,,,,,,,,,,,,,,,,,,,,,117,73,179,146,118,72,4.0,4.2,-206,12,0,-284,205,-10,152.47694563865662,152.47702550888062,152.48020935058594,152.49170112609863,152.64728999137878,152.64728999137878,152.64728999137878,152.64728999137878,152.64728999137878,152.64728999137878,152.64728999137878,154.10032963752747,2,1.6025152206420898,None,,,,,,,,,,,,,,,,,,110,2,2025-02-25_11h58.33.689,comp,2024.2.4,55.17833650820379,2025-02-25 11h59.34.919928 -0500,
23,23,0,critical,dwh,35.0,3.0,lower,70.0,70.0,57.0,133.0,133.0,57.0,3,2.114061117172241,None,,,,,0,0,0,0,0,23,23,62,154.11552262306213,,,,,,,,,,,,,,,,,,,,,,,,,,,,,,,,,,,,,,,,,,,,,,,,,,,,,,,,,,,,,,,,,,,,,,,,,,,,,,,,,70.0,70.0,57.0,133.0,133.0,57.0,3.0,3.2,-198,-268,0,-3,191,279,154.10185146331787,154.10193014144897,154.1047158241272,154.11552262306213,154.25977516174316,154.25977516174316,154.25977516174316,154.25977516174316,154.25977516174316,154.25977516174316,154.25977516174316,156.24180245399475,3,2.114061117172241,None,,,,,,,,,,,,,,,,,,110,2,2025-02-25_11h58.33.689,comp,2024.2.4,55.17833650820379,2025-02-25 11h59.34.919928 -0500,
24,24,0,catch,None,None,None,None,None,None,None,None,None,None,1,1.9001476764678955,None,,,,,0,0,0,0,0,24,24,124,156.25736594200134,,,,,,,,,,,,,,,,,,,,,,,,,,,,,,,,,,,,,,,,,,,,,,,,,,,,,,,,,,,,,,,,,,,,,,,,,,,,,,,,,182,143,123,67,114,76,2.1,2.12,-201,-274,0,-258,168,284,156.24371600151062,156.24379515647888,156.24690628051758,156.25736594200134,156.40868759155273,156.40868759155273,156.40868759155273,156.40868759155273,156.40868759155273,156.40868759155273,156.40868759155273,158.17317605018616,1,1.9001476764678955,None,,,,,,,,,,,,,,,,,,110,2,2025-02-25_11h58.33.689,comp,2024.2.4,55.17833650820379,2025-02-25 11h59.34.919928 -0500,
25,25,0,filler_square,None,None,None,None,None,None,None,None,None,None,2,3.135462999343872,None,,,,,0,0,0,0,0,25,25,185,158.1906714439392,,,,,,,,,,,,,,,,,,,,,,,,,,,,,,,,,,,,,,,,,,,,,,,,,,,,,,,,,,,,,,,,,,,,,,,,,,,,,,,,,103.79438996674833,94.4596477210869,116.94926029252227,116.94926029252227,101.05177871669557,104.69305550426722,4.0,4.2,-202,13,0,-288,207,-7,158.17506623268127,158.1752152442932,158.17803573608398,158.1906714439392,158.32651042938232,158.32651042938232,158.32651042938232,158.32651042938232,158.32651042938232,158.32651042938232,158.32651042938232,161.33047795295715,2,3.135462999343872,None,,,,,,,,,,,,,,,,,,110,2,2025-02-25_11h58.33.689,comp,2024.2.4,55.17833650820379,2025-02-25 11h59.34.919928 -0500,
26,26,0,critical,hdw,20.0,2.1,upper,200.0,125.0,141.0,141.0,125.0,200.0,1,3.6515450477600098,None,,,,,0,0,0,0,0,26,26,23,161.34656691551208,,,,,,,,,,,,,,,,,,,,,,,,,,,,,,,,,,,,,,,,,,,,,,,,,,,,,,,,,,,,,,,,,,,,,,,,,,,,,,,,,200.0,125.0,141.0,141.0,125.0,200.0,2.1,2.11,-229,267,0,287,266,-265,161.3322856426239,161.33243465423584,161.33570289611816,161.34656691551208,161.49270844459534,161.49270844459534,161.49270844459534,161.49270844459534,161.49270844459534,161.49270844459534,161.49270844459534,165.00629353523254,1,3.6515450477600098,None,,,,,,,,,,,,,,,,,,110,2,2025-02-25_11h58.33.689,comp,2024.2.4,55.17833650820379,2025-02-25 11h59.34.919928 -0500,
27,27,0,critical,dhw,35.0,3.0,lower,70.0,70.0,133.0,57.0,57.0,133.0,3,2.4066641330718994,None,,,,,0,0,0,0,0,27,27,50,165.02315545082092,,,,,,,,,,,,,,,,,,,,,,,,,,,,,,,,,,,,,,,,,,,,,,,,,,,,,,,,,,,,,,,,,,,,,,,,,,,,,,,,,70.0,70.0,133.0,57.0,57.0,133.0,3.0,3.2,-160,-252,0,-14,191,259,165.0079219341278,165.00804615020752,165.01128697395325,165.02315545082092,165.1610815525055,165.1610815525055,165.1610815525055,165.1610815525055,165.1610815525055,165.1610815525055,165.1610815525055,167.4453935623169,3,2.4066641330718994,None,,,,,,,,,,,,,,,,,,110,2,2025-02-25_11h58.33.689,comp,2024.2.4,55.17833650820379,2025-02-25 11h59.34.919928 -0500,
28,28,0,filler_random,None,None,None,None,None,None,None,None,None,None,3,2.3167362213134766,None,,,,,0,0,0,0,0,28,28,158,167.46482491493225,,,,,,,,,,,,,,,,,,,,,,,,,,,,,,,,,,,,,,,,,,,,,,,,,,,,,,,,,,,,,,,,,,,,,,,,,,,,,,,,,192.9595661009993,63.68892791913683,61.09536022113709,132.76331120899363,159.30446405525294,134.9958518663744,2.2,2.21,-194,-275,0,251,230,276,167.44592809677124,167.4459490776062,167.44679260253906,167.46482491493225,167.5966455936432,167.5966455936432,167.5966455936432,167.5966455936432,167.5966455936432,167.5966455936432,167.5966455936432,169.7987072467804,3,2.3167362213134766,None,,,,,,,,,,,,,,,,,,110,2,2025-02-25_11h58.33.689,comp,2024.2.4,55.17833650820379,2025-02-25 11h59.34.919928 -0500,
29,29,0,critical,hdw,35.0,2.1,upper,200.0,125.0,127.0,127.0,125.0,200.0,3,6.823768377304077,None,,,,,0,0,0,0,0,29,29,21,169.81375455856323,,,,,,,,,,,,,,,,,,,,,,,,,,,,,,,,,,,,,,,,,,,,,,,,,,,,,,,,,,,,,,,,,,,,,,,,,,,,,,,,,200.0,125.0,127.0,127.0,125.0,200.0,2.1,2.12,-222,-288,0,-253,260,280,169.80028676986694,169.80038714408875,169.8034863471985,169.81375455856323,169.9657428264618,169.9657428264618,169.9657428264618,169.9657428264618,169.9657428264618,169.9657428264618,169.9657428264618,176.65475797653198,3,6.823768377304077,None,,,,,,,,,,,,,,,,,,110,2,2025-02-25_11h58.33.689,comp,2024.2.4,55.17833650820379,2025-02-25 11h59.34.919928 -0500,
30,30,0,filler_square,None,None,None,None,None,None,None,None,None,None,2,2.428520917892456,None,,,,,0,0,0,0,0,30,30,182,176.67347359657288,,,,,,,,,,,,,,,,,,,,,,,,,,,,,,,,,,,,,,,,,,,,,,,,,,,,,,,,,,,,,,,,,,,,,,,,,,,,,,,,,65.7530544241012,89.20218220328935,144.13793260681715,144.13793260681715,76.01157447768253,66.20233948543756,2.2,2.22,-213,274,0,-258,201,-267,176.65687131881714,176.65694999694824,176.65983843803406,176.67347359657288,176.81976008415222,176.81976008415222,176.81976008415222,176.81976008415222,176.81976008415222,176.81976008415222,176.81976008415222,179.10557460784912,2,2.428520917892456,None,,,,,,,,,,,,,,,,,,110,2,2025-02-25_11h58.33.689,comp,2024.2.4,55.17833650820379,2025-02-25 11h59.34.919928 -0500,
31,31,0,critical,hwd,35.0,1.0,upper,200.0,125.0,125.0,200.0,127.0,127.0,2,2.0748062133789062,None,,,,,0,0,0,0,0,31,31,97,179.12331342697144,,,,,,,,,,,,,,,,,,,,,,,,,,,,,,,,,,,,,,,,,,,,,,,,,,,,,,,,,,,,,,,,,,,,,,,,,,,,,,,,,200.0,125.0,125.0,200.0,127.0,127.0,1.0,1.1,-738,268,-480,274,-220,271,179.10719418525696,179.10727643966675,179.11018586158752,179.12331342697144,179.27201128005981,179.27201128005981,179.27201128005981,179.27201128005981,179.27201128005981,179.27201128005981,179.27201128005981,181.20544958114624,2,2.0748062133789062,None,,,,,,,,,,,,,,,,,,110,2,2025-02-25_11h58.33.689,comp,2024.2.4,55.17833650820379,2025-02-25 11h59.34.919928 -0500,
32,32,0,filler_random,None,None,None,None,None,None,None,None,None,None,2,2.008334159851074,None,,,,,0,0,0,0,0,32,32,159,181.2218918800354,,,,,,,,,,,,,,,,,,,,,,,,,,,,,,,,,,,,,,,,,,,,,,,,,,,,,,,,,,,,,,,,,,,,,,,,,,,,,,,,,57.078261893706696,196.3438810441763,185.23695450663655,187.72010107144257,62.95554836340035,173.64626712568457,4.0,4.2,-288,-16,0,-260,277,3,181.20756101608276,181.20764422416687,181.21095609664917,181.2218918800354,181.36930918693542,181.36930918693542,181.36930918693542,181.36930918693542,181.36930918693542,181.36930918693542,181.36930918693542,183.23515582084656,2,2.008334159851074,None,,,,,,,,,,,,,,,,,,110,2,2025-02-25_11h58.33.689,comp,2024.2.4,55.17833650820379,2025-02-25 11h59.34.919928 -0500,
33,33,0,critical,whd,35.0,3.0,lower,57.0,133.0,133.0,57.0,70.0,70.0,2,1.9958457946777344,None,,,,,0,0,0,0,0,33,33,86,183.25089406967163,,,,,,,,,,,,,,,,,,,,,,,,,,,,,,,,,,,,,,,,,,,,,,,,,,,,,,,,,,,,,,,,,,,,,,,,,,,,,,,,,57.0,133.0,133.0,57.0,70.0,70.0,3.0,3.1,-191,267,0,2,160,-279,183.23676013946533,183.23684072494507,183.24018025398254,183.25089406967163,183.39931058883667,183.39931058883667,183.39931058883667,183.39931058883667,183.39931058883667,183.39931058883667,183.39931058883667,185.2519977092743,2,1.9958457946777344,None,,,,,,,,,,,,,,,,,,110,2,2025-02-25_11h58.33.689,comp,2024.2.4,55.17833650820379,2025-02-25 11h59.34.919928 -0500,
34,34,0,critical,dhw,20.0,2.1,upper,141.0,141.0,200.0,125.0,125.0,200.0,3,4.136847257614136,None,,,,,0,0,0,0,0,34,34,3,185.26868319511414,,,,,,,,,,,,,,,,,,,,,,,,,,,,,,,,,,,,,,,,,,,,,,,,,,,,,,,,,,,,,,,,,,,,,,,,,,,,,,,,,141.0,141.0,200.0,125.0,125.0,200.0,2.1,2.11,-229,251,0,267,258,-289,185.25362753868103,185.25372862815857,185.256902217865,185.26868319511414,185.42149019241333,185.42149019241333,185.42149019241333,185.42149019241333,185.42149019241333,185.42149019241333,185.42149019241333,189.42260479927063,3,4.136847257614136,None,,,,,,,,,,,,,,,,,,110,2,2025-02-25_11h58.33.689,comp,2024.2.4,55.17833650820379,2025-02-25 11h59.34.919928 -0500,
35,35,0,critical,hwd,20.0,3.0,lower,133.0,57.0,57.0,133.0,78.0,78.0,2,1.6872644424438477,None,,,,,0,0,0,0,0,35,35,104,189.43830227851868,,,,,,,,,,,,,,,,,,,,,,,,,,,,,,,,,,,,,,,,,,,,,,,,,,,,,,,,,,,,,,,,,,,,,,,,,,,,,,,,,133.0,57.0,57.0,133.0,78.0,78.0,3.0,3.1,-191,269,0,-18,202,-259,189.42436575889587,189.42449617385864,189.4279294013977,189.43830227851868,189.58744359016418,189.58744359016418,189.58744359016418,189.58744359016418,189.58744359016418,189.58744359016418,189.58744359016418,191.13631510734558,2,1.6872644424438477,None,,,,,,,,,,,,,,,,,,110,2,2025-02-25_11h58.33.689,comp,2024.2.4,55.17833650820379,2025-02-25 11h59.34.919928 -0500,
36,36,0,critical,dwh,35.0,4.0,lower,70.0,70.0,57.0,133.0,133.0,57.0,3,2.836810827255249,None,,,,,0,0,0,0,0,36,36,64,191.15294289588928,,,,,,,,,,,,,,,,,,,,,,,,,,,,,,,,,,,,,,,,,,,,,,,,,,,,,,,,,,,,,,,,,,,,,,,,,,,,,,,,,70.0,70.0,57.0,133.0,133.0,57.0,4.0,4.2,-198,2,0,-259,191,20,191.13793277740479,191.13800978660583,191.14127159118652,191.15294289588928,191.30538272857666,191.30538272857666,191.30538272857666,191.30538272857666,191.30538272857666,191.30538272857666,191.30538272857666,194.01241159439087,3,2.836810827255249,None,,,,,,,,,,,,,,,,,,110,2,2025-02-25_11h58.33.689,comp,2024.2.4,55.17833650820379,2025-02-25 11h59.34.919928 -0500,
37,37,0,critical,hwd,35.0,2.1,upper,200.0,125.0,125.0,200.0,127.0,127.0,2,13.901760339736938,None,,,,,0,0,0,0,0,37,37,41,194.03205609321594,,,,,,,,,,,,,,,,,,,,,,,,,,,,,,,,,,,,,,,,,,,,,,,,,,,,,,,,,,,,,,,,,,,,,,,,,,,,,,,,,200.0,125.0,125.0,200.0,127.0,127.0,2.1,2.11,-258,276,0,276,260,-267,194.01396918296814,194.0140426158905,194.01684617996216,194.03205609321594,194.17720127105713,194.17720127105713,194.17720127105713,194.17720127105713,194.17720127105713,194.17720127105713,194.17720127105713,207.95090770721436,2,13.901760339736938,None,,,,,,,,,,,,,,,,,,110,2,2025-02-25_11h58.33.689,comp,2024.2.4,55.17833650820379,2025-02-25 11h59.34.919928 -0500,
38,38,0,critical,dhw,20.0,3.0,upper,141.0,141.0,200.0,125.0,125.0,200.0,3,3.472482919692993,None,,,,,0,0,0,0,0,38,38,57,207.96571326255798,,,,,,,,,,,,,,,,,,,,,,,,,,,,,,,,,,,,,,,,,,,,,,,,,,,,,,,,,,,,,,,,,,,,,,,,,,,,,,,,,141.0,141.0,200.0,125.0,125.0,200.0,3.0,3.2,-229,-289,0,3,258,255,207.95248103141785,207.95255589485168,207.95539236068726,207.96571326255798,208.10911560058594,208.10911560058594,208.10911560058594,208.10911560058594,208.10911560058594,208.10911560058594,208.10911560058594,211.44326329231262,3,3.472482919692993,None,,,,,,,,,,,,,,,,,,110,2,2025-02-25_11h58.33.689,comp,2024.2.4,55.17833650820379,2025-02-25 11h59.34.919928 -0500,
39,39,0,critical,wdh,35.0,2.1,lower,57.0,133.0,70.0,70.0,133.0,57.0,3,5.183182001113892,None,,,,,0,0,0,0,0,39,39,32,211.46289896965027,,,,,,,,,,,,,,,,,,,,,,,,,,,,,,,,,,,,,,,,,,,,,,,,,,,,,,,,,,,,,,,,,,,,,,,,,,,,,,,,,57.0,133.0,70.0,70.0,133.0,57.0,2.1,2.11,-198,276,0,268,160,-285,211.44486045837402,211.44494032859802,211.4482398033142,211.46289896965027,211.61035203933716,211.61035203933716,211.61035203933716,211.61035203933716,211.61035203933716,211.61035203933716,211.61035203933716,216.6619782447815,3,5.183182001113892,None,,,,,,,,,,,,,,,,,,110,2,2025-02-25_11h58.33.689,comp,2024.2.4,55.17833650820379,2025-02-25 11h59.34.919928 -0500,
40,40,0,critical,hwd,35.0,3.0,upper,200.0,125.0,125.0,200.0,127.0,127.0,1,4.143369197845459,None,,,,,0,0,0,0,0,40,40,99,216.67821621894836,,,,,,,,,,,,,,,,,,,,,,,,,,,,,,,,,,,,,,,,,,,,,,,,,,,,,,,,,,,,,,,,,,,,,,,,,,,,,,,,,200.0,125.0,125.0,200.0,127.0,127.0,3.0,3.1,-258,283,0,4,260,-269,216.66364979743958,216.66372561454773,216.66702318191528,216.67821621894836,216.8287582397461,216.8287582397461,216.8287582397461,216.8287582397461,216.8287582397461,216.8287582397461,216.8287582397461,220.83146977424622,1,4.143369197845459,None,,,,,,,,,,,,,,,,,,110,2,2025-02-25_11h58.33.689,comp,2024.2.4,55.17833650820379,2025-02-25 11h59.34.919928 -0500,
41,41,0,critical,hwd,20.0,2.1,lower,133.0,57.0,57.0,133.0,78.0,78.0,1,20.711360454559326,None,,,,,0,0,0,0,0,41,41,42,220.84720063209534,,,,,,,,,,,,,,,,,,,,,,,,,,,,,,,,,,,,,,,,,,,,,,,,,,,,,,,,,,,,,,,,,,,,,,,,,,,,,,,,,133.0,57.0,57.0,133.0,78.0,78.0,2.1,2.11,-191,282,0,273,202,-281,220.83303666114807,220.83316230773926,220.83648109436035,220.84720063209534,220.98456597328186,220.98456597328186,220.98456597328186,220.98456597328186,220.98456597328186,220.98456597328186,220.98456597328186,241.56993865966797,1,20.711360454559326,None,,,,,,,,,,,,,,,,,,110,2,2025-02-25_11h58.33.689,comp,2024.2.4,55.17833650820379,2025-02-25 11h59.34.919928 -0500,
42,42,0,filler_random,None,None,None,None,None,None,None,None,None,None,3,1.8439948558807373,None,,,,,0,0,0,0,0,42,42,154,241.5861828327179,,,,,,,,,,,,,,,,,,,,,,,,,,,,,,,,,,,,,,,,,,,,,,,,,,,,,,,,,,,,,,,,,,,,,,,,,,,,,,,,,81.53609942625869,75.17480509749836,94.40576399554786,137.60749952643894,158.76555031577442,156.81062852101843,3.0,3.2,-202,-286,0,-16,243,253,241.57167053222656,241.57175087928772,241.5749487876892,241.5861828327179,241.73670625686646,241.73670625686646,241.73670625686646,241.73670625686646,241.73670625686646,241.73670625686646,241.73670625686646,243.43230271339417,3,1.8439948558807373,None,,,,,,,,,,,,,,,,,,110,2,2025-02-25_11h58.33.689,comp,2024.2.4,55.17833650820379,2025-02-25 11h59.34.919928 -0500,
43,43,0,filler_random,None,None,None,None,None,None,None,None,None,None,1,1.6535136699676514,None,,,,,0,0,0,0,0,43,43,134,243.44891119003296,,,,,,,,,,,,,,,,,,,,,,,,,,,,,,,,,,,,,,,,,,,,,,,,,,,,,,,,,,,,,,,,,,,,,,,,,,,,,,,,,192.12978164172893,172.5719495115233,86.9931901742039,81.9984245746161,90.37654009844223,100.67486571981428,3.0,3.2,-223,-284,0,2,187,265,243.43392992019653,243.43400716781616,243.43682432174683,243.44891119003296,243.58669114112854,243.58669114112854,243.58669114112854,243.58669114112854,243.58669114112854,243.58669114112854,243.58669114112854,245.11379671096802,1,1.6535136699676514,None,,,,,,,,,,,,,,,,,,110,2,2025-02-25_11h58.33.689,comp,2024.2.4,55.17833650820379,2025-02-25 11h59.34.919928 -0500,
44,44,0,critical,hwd,35.0,3.0,lower,133.0,57.0,57.0,133.0,70.0,70.0,1,4.380547761917114,None,,,,,0,0,0,0,0,44,44,98,245.12915015220642,,,,,,,,,,,,,,,,,,,,,,,,,,,,,,,,,,,,,,,,,,,,,,,,,,,,,,,,,,,,,,,,,,,,,,,,,,,,,,,,,133.0,57.0,57.0,133.0,70.0,70.0,3.0,3.2,-191,-284,0,-9,198,257,245.11539006233215,245.11546802520752,245.1182622909546,245.12915015220642,245.27073049545288,245.27073049545288,245.27073049545288,245.27073049545288,245.27073049545288,245.27073049545288,245.27073049545288,249.52543330192566,1,4.380547761917114,None,,,,,,,,,,,,,,,,,,110,2,2025-02-25_11h58.33.689,comp,2024.2.4,55.17833650820379,2025-02-25 11h59.34.919928 -0500,
45,45,0,filler_random,None,None,None,None,None,None,None,None,None,None,2,1.614633560180664,None,,,,,0,0,0,0,0,45,45,131,249.54300022125244,,,,,,,,,,,,,,,,,,,,,,,,,,,,,,,,,,,,,,,,,,,,,,,,,,,,,,,,,,,,,,,,,,,,,,,,,,,,,,,,,96.64472245347619,77.63032613543854,118.08751015741905,196.97349372937012,82.2537800424014,87.44285537863945,1.0,1.2,-233,10,0,-13,238,20,249.5276026725769,249.52773261070251,249.53067898750305,249.54300022125244,249.6888871192932,249.6888871192932,249.6888871192932,249.6888871192932,249.6888871192932,249.6888871192932,249.6888871192932,251.15976214408875,2,1.614633560180664,None,,,,,,,,,,,,,,,,,,110,2,2025-02-25_11h58.33.689,comp,2024.2.4,55.17833650820379,2025-02-25 11h59.34.919928 -0500,
46,46,0,critical,dwh,35.0,2.1,upper,127.0,127.0,125.0,200.0,200.0,125.0,3,15.446659088134766,None,,,,,0,0,0,0,0,46,46,5,251.17579674720764,,,,,,,,,,,,,,,,,,,,,,,,,,,,,,,,,,,,,,,,,,,,,,,,,,,,,,,,,,,,,,,,,,,,,,,,,,,,,,,,,127.0,127.0,125.0,200.0,200.0,125.0,2.1,2.12,-260,-256,0,-272,258,262,251.1614475250244,251.16152620315552,251.16485142707825,251.17579674720764,251.32752871513367,251.32752871513367,251.32752871513367,251.32752871513367,251.32752871513367,251.32752871513367,251.32752871513367,266.62815499305725,3,15.446659088134766,None,,,,,,,,,,,,,,,,,,110,2,2025-02-25_11h58.33.689,comp,2024.2.4,55.17833650820379,2025-02-25 11h59.34.919928 -0500,
47,47,0,critical,dwh,35.0,4.0,upper,127.0,127.0,125.0,200.0,200.0,125.0,2,14.635493993759155,None,,,,,0,0,0,0,0,47,47,65,266.64245533943176,,,,,,,,,,,,,,,,,,,,,,,,,,,,,,,,,,,,,,,,,,,,,,,,,,,,,,,,,,,,,,,,,,,,,,,,,,,,,,,,,127.0,127.0,125.0,200.0,200.0,125.0,4.0,4.1,-260,-288,0,6,258,-264,266.62970900535583,266.6297891139984,266.6328911781311,266.64245533943176,266.8000044822693,266.8000044822693,266.8000044822693,266.8000044822693,266.8000044822693,266.8000044822693,266.8000044822693,281.28324723243713,2,14.635493993759155,None,,,,,,,,,,,,,,,,,,110,2,2025-02-25_11h58.33.689,comp,2024.2.4,55.17833650820379,2025-02-25 11h59.34.919928 -0500,
48,48,0,critical,whd,20.0,2.1,upper,125.0,200.0,200.0,125.0,141.0,141.0,1,2.290968894958496,None,,,,,0,0,0,0,0,48,48,15,281.29870080947876,,,,,,,,,,,,,,,,,,,,,,,,,,,,,,,,,,,,,,,,,,,,,,,,,,,,,,,,,,,,,,,,,,,,,,,,,,,,,,,,,125.0,200.0,200.0,125.0,141.0,141.0,2.1,2.12,-258,-281,0,-280,229,260,281.284795999527,281.2848765850067,281.2879436016083,281.29870080947876,281.4520847797394,281.4520847797394,281.4520847797394,281.4520847797394,281.4520847797394,281.4520847797394,281.4520847797394,283.60068917274475,1,2.290968894958496,None,,,,,,,,,,,,,,,,,,110,2,2025-02-25_11h58.33.689,comp,2024.2.4,55.17833650820379,2025-02-25 11h59.34.919928 -0500,
49,49,0,filler_square,None,None,None,None,None,None,None,None,None,None,3,2.3656015396118164,None,,,,,0,0,0,0,0,49,49,194,283.61656379699707,,,,,,,,,,,,,,,,,,,,,,,,,,,,,,,,,,,,,,,,,,,,,,,,,,,,,,,,,,,,,,,,,,,,,,,,,,,,,,,,,132.69577836781792,168.9364270556785,187.7820608047604,70.04431483846791,189.0937320231996,189.0937320231996,4.0,4.2,-215,-9,0,-281,226,-20,283.60250973701477,283.6025869846344,283.6058087348938,283.61656379699707,283.7659673690796,283.7659673690796,283.7659673690796,283.7659673690796,283.7659673690796,283.7659673690796,283.7659673690796,285.9845871925354,3,2.3656015396118164,None,,,,,,,,,,,,,,,,,,110,2,2025-02-25_11h58.33.689,comp,2024.2.4,55.17833650820379,2025-02-25 11h59.34.919928 -0500,
50,50,0,critical,whd,35.0,1.0,lower,57.0,133.0,133.0,57.0,70.0,70.0,2,8.40468978881836,None,,,,,0,0,0,0,0,50,50,84,286.0010585784912,,,,,,,,,,,,,,,,,,,,,,,,,,,,,,,,,,,,,,,,,,,,,,,,,,,,,,,,,,,,,,,,,,,,,,,,,,,,,,,,,57.0,133.0,133.0,57.0,70.0,70.0,1.0,1.2,-191,6,0,5,160,-2,285.9861059188843,285.98621010780334,285.98915696144104,286.0010585784912,286.15376591682434,286.15376591682434,286.15376591682434,286.15376591682434,286.15376591682434,286.15376591682434,286.15376591682434,294.42039346694946,2,8.40468978881836,None,,,,,,,,,,,,,,,,,,110,2,2025-02-25_11h58.33.689,comp,2024.2.4,55.17833650820379,2025-02-25 11h59.34.919928 -0500,
51,51,0,critical,whd,20.0,4.0,lower,57.0,133.0,133.0,57.0,78.0,78.0,2,4.490176677703857,None,,,,,0,0,0,0,0,51,51,94,294.4355435371399,,,,,,,,,,,,,,,,,,,,,,,,,,,,,,,,,,,,,,,,,,,,,,,,,,,,,,,,,,,,,,,,,,,,,,,,,,,,,,,,,57.0,133.0,133.0,57.0,78.0,78.0,4.0,4.1,-191,-250,0,14,164,-262,294.4219708442688,294.4220495223999,294.42530822753906,294.4355435371399,294.58589601516724,294.58589601516724,294.58589601516724,294.58589601516724,294.58589601516724,294.58589601516724,294.58589601516724,298.93718123435974,2,4.490176677703857,None,,,,,,,,,,,,,,,,,,110,2,2025-02-25_11h58.33.689,comp,2024.2.4,55.17833650820379,2025-02-25 11h59.34.919928 -0500,
52,52,0,critical,dhw,20.0,1.0,upper,141.0,141.0,200.0,125.0,125.0,200.0,2,2.945023536682129,None,,,,,0,0,0,0,0,52,52,55,298.95732283592224,,,,,,,,,,,,,,,,,,,,,,,,,,,,,,,,,,,,,,,,,,,,,,,,,,,,,,,,,,,,,,,,,,,,,,,,,,,,,,,,,141.0,141.0,200.0,125.0,125.0,200.0,1.0,1.3,251,-257,480,-289,738,-271,298.93868136405945,298.9387607574463,298.94188499450684,298.95732283592224,299.104279756546,299.104279756546,299.104279756546,299.104279756546,299.104279756546,299.104279756546,299.104279756546,301.90928077697754,2,2.945023536682129,None,,,,,,,,,,,,,,,,,,110,2,2025-02-25_11h58.33.689,comp,2024.2.4,55.17833650820379,2025-02-25 11h59.34.919928 -0500,
53,53,0,filler_random,None,None,None,None,None,None,None,None,None,None,2,2.4762773513793945,None,,,,,0,0,0,0,0,53,53,137,301.92997336387634,,,,,,,,,,,,,,,,,,,,,,,,,,,,,,,,,,,,,,,,,,,,,,,,,,,,,,,,,,,,,,,,,,,,,,,,,,,,,,,,,178.2707173055062,131.22013933680682,151.81123331079246,185.07043911099979,62.28122458172679,156.5162782842629,1.0,1.1,-734,269,-480,252,-213,274,301.91097688674927,301.9111030101776,301.9142508506775,301.92997336387634,302.0717260837555,302.0717260837555,302.0717260837555,302.0717260837555,302.0717260837555,302.0717260837555,302.0717260837555,304.4268448352814,2,2.4762773513793945,None,,,,,,,,,,,,,,,,,,110,2,2025-02-25_11h58.33.689,comp,2024.2.4,55.17833650820379,2025-02-25 11h59.34.919928 -0500,
54,54,0,filler_random,None,None,None,None,None,None,None,None,None,None,1,1.463097095489502,None,,,,,0,0,0,0,0,54,54,143,304.4467580318451,,,,,,,,,,,,,,,,,,,,,,,,,,,,,,,,,,,,,,,,,,,,,,,,,,,,,,,,,,,,,,,,,,,,,,,,,,,,,,,,,168.00949496243507,149.29806189612668,117.02238731402514,75.39221320725252,92.96824531667434,74.76708774596662,2.1,2.12,-208,-274,0,-252,171,257,304.42874693870544,304.42883110046387,304.43211007118225,304.4467580318451,304.590585231781,304.590585231781,304.590585231781,304.590585231781,304.590585231781,304.590585231781,304.590585231781,305.92296862602234,1,1.463097095489502,None,,,,,,,,,,,,,,,,,,110,2,2025-02-25_11h58.33.689,comp,2024.2.4,55.17833650820379,2025-02-25 11h59.34.919928 -0500,
55,55,0,catch,None,None,None,None,None,None,None,None,None,None,1,1.195108413696289,None,,,,,0,0,0,0,0,55,55,121,305.9392521381378,,,,,,,,,,,,,,,,,,,,,,,,,,,,,,,,,,,,,,,,,,,,,,,,,,,,,,,,,,,,,,,,,,,,,,,,,,,,,,,,,188,137,59,131,59,131,1.0,1.3,250,-256,480,-254,707,-256,305.9249131679535,305.92498898506165,305.9281163215637,305.9392521381378,306.09295773506165,306.09295773506165,306.09295773506165,306.09295773506165,306.09295773506165,306.09295773506165,306.09295773506165,307.13910818099976,1,1.195108413696289,None,,,,,,,,,,,,,,,,,,110,2,2025-02-25_11h58.33.689,comp,2024.2.4,55.17833650820379,2025-02-25 11h59.34.919928 -0500,
56,56,0,filler_square,None,None,None,None,None,None,None,None,None,None,3,2.3382883071899414,None,,,,,0,0,0,0,0,56,56,208,307.1555073261261,,,,,,,,,,,,,,,,,,,,,,,,,,,,,,,,,,,,,,,,,,,,,,,,,,,,,,,,,,,,,,,,,,,,,,,,,,,,,,,,,86.94610805744344,58.14191279671381,88.19422151923877,69.06076020455313,93.67259266040398,93.67259266040398,4.0,4.1,-160,-281,0,-18,177,-268,307.14095997810364,307.14103841781616,307.143846988678,307.1555073261261,307.310911655426,307.310911655426,307.310911655426,307.310911655426,307.310911655426,307.310911655426,307.310911655426,309.5073781013489,3,2.3382883071899414,None,,,,,,,,,,,,,,,,,,110,2,2025-02-25_11h58.33.689,comp,2024.2.4,55.17833650820379,2025-02-25 11h59.34.919928 -0500,
57,57,0,filler_square,None,None,None,None,None,None,None,None,None,None,1,1.2107956409454346,None,,,,,0,0,0,0,0,57,57,179,309.5237319469452,,,,,,,,,,,,,,,,,,,,,,,,,,,,,,,,,,,,,,,,,,,,,,,,,,,,,,,,,,,,,,,,,,,,,,,,,,,,,,,,,159.7611563587425,159.7611563587425,105.71254093304447,152.68234813463624,88.2393379658736,117.10287559123032,4.0,4.1,-252,-277,0,-17,231,-256,309.50910782814026,309.50922107696533,309.5122752189636,309.5237319469452,309.6729326248169,309.6729326248169,309.6729326248169,309.6729326248169,309.6729326248169,309.6729326248169,309.6729326248169,310.7427611351013,1,1.2107956409454346,None,,,,,,,,,,,,,,,,,,110,2,2025-02-25_11h58.33.689,comp,2024.2.4,55.17833650820379,2025-02-25 11h59.34.919928 -0500,
58,58,0,critical,whd,35.0,2.1,upper,125.0,200.0,200.0,125.0,127.0,127.0,2,1.45609712600708,None,,,,,0,0,0,0,0,58,58,37,310.75825905799866,,,,,,,,,,,,,,,,,,,,,,,,,,,,,,,,,,,,,,,,,,,,,,,,,,,,,,,,,,,,,,,,,,,,,,,,,,,,,,,,,125.0,200.0,200.0,125.0,127.0,127.0,2.1,2.12,-258,-264,0,-270,222,260,310.7443001270294,310.74439311027527,310.74750447273254,310.75825905799866,310.9108827114105,310.9108827114105,310.9108827114105,310.9108827114105,310.9108827114105,310.9108827114105,310.9108827114105,312.23078775405884,2,1.45609712600708,None,,,,,,,,,,,,,,,,,,110,2,2025-02-25_11h58.33.689,comp,2024.2.4,55.17833650820379,2025-02-25 11h59.34.919928 -0500,
59,59,0,filler_square,None,None,None,None,None,None,None,None,None,None,3,1.5330209732055664,None,,,,,0,0,0,0,0,59,59,203,312.2495880126953,,,,,,,,,,,,,,,,,,,,,,,,,,,,,,,,,,,,,,,,,,,,,,,,,,,,,,,,,,,,,,,,,,,,,,,,,,,,,,,,,99.06210966397384,167.3777792166137,121.38231364315122,140.89705943250155,186.3140872381117,186.3140872381117,3.0,3.1,-250,250,0,-15,260,-256,312.2325794696808,312.23265266418457,312.23540019989014,312.2495880126953,312.39109897613525,312.39109897613525,312.39109897613525,312.39109897613525,312.39109897613525,312.39109897613525,312.39109897613525,313.7932198047638,3,1.5330209732055664,None,,,,,,,,,,,,,,,,,,110,2,2025-02-25_11h58.33.689,comp,2024.2.4,55.17833650820379,2025-02-25 11h59.34.919928 -0500,
60,60,0,filler_random,None,None,None,None,None,None,None,None,None,None,3,5.186740159988403,None,,,,,0,0,0,0,0,60,60,132,313.811160326004,,,,,,,,,,,,,,,,,,,,,,,,,,,,,,,,,,,,,,,,,,,,,,,,,,,,,,,,,,,,,,,,,,,,,,,,,,,,,,,,,191.89755924147462,108.83284491964804,120.59084541767618,152.54742801305784,171.29501972815513,114.80503808169894,1.0,1.2,-227,17,0,2,230,16,313.7949118614197,313.79498839378357,313.79824566841125,313.811160326004,313.9624812602997,313.9624812602997,313.9624812602997,313.9624812602997,313.9624812602997,313.9624812602997,313.9624812602997,319.0024127960205,3,5.186740159988403,None,,,,,,,,,,,,,,,,,,110,2,2025-02-25_11h58.33.689,comp,2024.2.4,55.17833650820379,2025-02-25 11h59.34.919928 -0500,
61,61,0,filler_square,None,None,None,None,None,None,None,None,None,None,2,1.3831439018249512,None,,,,,0,0,0,0,0,61,61,181,319.02348041534424,,,,,,,,,,,,,,,,,,,,,,,,,,,,,,,,,,,,,,,,,,,,,,,,,,,,,,,,,,,,,,,,,,,,,,,,,,,,,,,,,58.35979495310022,107.08686248053158,131.25038098716806,131.25038098716806,110.89408160607375,126.34141757003167,2.2,2.22,-215,268,0,-263,225,-259,319.0044264793396,319.0045063495636,319.00769424438477,319.02348041534424,319.1616632938385,319.1616632938385,319.1616632938385,319.1616632938385,319.1616632938385,319.1616632938385,319.1616632938385,320.41276812553406,2,1.3831439018249512,None,,,,,,,,,,,,,,,,,,110,2,2025-02-25_11h58.33.689,comp,2024.2.4,55.17833650820379,2025-02-25 11h59.34.919928 -0500,
62,62,0,filler_square,None,None,None,None,None,None,None,None,None,None,3,1.7208940982818604,None,,,,,0,0,0,0,0,62,62,191,320.4290282726288,,,,,,,,,,,,,,,,,,,,,,,,,,,,,,,,,,,,,,,,,,,,,,,,,,,,,,,,,,,,,,,,,,,,,,,,,,,,,,,,,88.77799593606139,58.928042185997995,91.2241167215935,75.3199449885685,99.59610016254929,99.59610016254929,1.0,1.1,-643,264,-480,251,-297,256,320.4146640300751,320.4147925376892,320.4181020259857,320.4290282726288,320.5763313770294,320.5763313770294,320.5763313770294,320.5763313770294,320.5763313770294,320.5763313770294,320.5763313770294,322.1629593372345,3,1.7208940982818604,None,,,,,,,,,,,,,,,,,,110,2,2025-02-25_11h58.33.689,comp,2024.2.4,55.17833650820379,2025-02-25 11h59.34.919928 -0500,
63,63,0,critical,hwd,20.0,2.1,lower,133.0,57.0,57.0,133.0,78.0,78.0,2,4.371255159378052,None,,,,,0,0,0,0,0,63,63,18,322.1786048412323,,,,,,,,,,,,,,,,,,,,,,,,,,,,,,,,,,,,,,,,,,,,,,,,,,,,,,,,,,,,,,,,,,,,,,,,,,,,,,,,,133.0,57.0,57.0,133.0,78.0,78.0,2.1,2.11,-191,284,0,286,202,-290,322.1645498275757,322.1646218299866,322.1682758331299,322.1786048412323,322.3287076950073,322.3287076950073,322.3287076950073,322.3287076950073,322.3287076950073,322.3287076950073,322.3287076950073,326.56348061561584,2,4.371255159378052,None,,,,,,,,,,,,,,,,,,110,2,2025-02-25_11h58.33.689,comp,2024.2.4,55.17833650820379,2025-02-25 11h59.34.919928 -0500,
64,64,0,catch,None,None,None,None,None,None,None,None,None,None,1,1.1708693504333496,None,,,,,0,0,0,0,0,64,64,126,326.5789592266083,,,,,,,,,,,,,,,,,,,,,,,,,,,,,,,,,,,,,,,,,,,,,,,,,,,,,,,,,,,,,,,,,,,,,,,,,,,,,,,,,151,174,79,111,91,99,2.1,2.12,-238,-283,0,-258,201,289,326.56537556648254,326.56544971466064,326.5687153339386,326.5789592266083,326.72819113731384,326.72819113731384,326.72819113731384,326.72819113731384,326.72819113731384,326.72819113731384,326.72819113731384,327.7702181339264,1,1.1708693504333496,None,,,,,,,,,,,,,,,,,,110,2,2025-02-25_11h58.33.689,comp,2024.2.4,55.17833650820379,2025-02-25 11h59.34.919928 -0500,
65,65,0,critical,wdh,20.0,1.0,upper,125.0,200.0,141.0,141.0,200.0,125.0,1,4.346702575683594,None,,,,,0,0,0,0,0,65,65,79,327.78721952438354,,,,,,,,,,,,,,,,,,,,,,,,,,,,,,,,,,,,,,,,,,,,,,,,,,,,,,,,,,,,,,,,,,,,,,,,,,,,,,,,,125.0,200.0,141.0,141.0,200.0,125.0,1.0,1.3,214,-273,480,-277,709,-260,327.77170395851135,327.771776676178,327.77458596229553,327.78721952438354,327.930180311203,327.930180311203,327.930180311203,327.930180311203,327.930180311203,327.930180311203,327.930180311203,332.1480734348297,1,4.346702575683594,None,,,,,,,,,,,,,,,,,,110,2,2025-02-25_11h58.33.689,comp,2024.2.4,55.17833650820379,2025-02-25 11h59.34.919928 -0500,
66,66,0,filler_square,None,None,None,None,None,None,None,None,None,None,3,2.7981269359588623,None,,,,,0,0,0,0,0,66,66,200,332.16798758506775,,,,,,,,,,,,,,,,,,,,,,,,,,,,,,,,,,,,,,,,,,,,,,,,,,,,,,,,,,,,,,,,,,,,,,,,,,,,,,,,,64.76939467143326,64.35420096152626,59.41845131746341,69.58546488324338,78.26324390204343,78.26324390204343,3.0,3.2,-163,-258,0,-4,170,255,332.1498317718506,332.14990639686584,332.1529052257538,332.16798758506775,332.31520891189575,332.31520891189575,332.31520891189575,332.31520891189575,332.31520891189575,332.31520891189575,332.31520891189575,334.9839560985565,3,2.7981269359588623,None,,,,,,,,,,,,,,,,,,110,2,2025-02-25_11h58.33.689,comp,2024.2.4,55.17833650820379,2025-02-25 11h59.34.919928 -0500,
67,67,0,critical,hdw,20.0,1.0,lower,133.0,57.0,78.0,78.0,57.0,133.0,3,6.174655437469482,None,,,,,0,0,0,0,0,67,67,114,334.99922943115234,,,,,,,,,,,,,,,,,,,,,,,,,,,,,,,,,,,,,,,,,,,,,,,,,,,,,,,,,,,,,,,,,,,,,,,,,,,,,,,,,133.0,57.0,78.0,78.0,57.0,133.0,1.0,1.2,-164,18,0,11,202,-10,334.9854519367218,334.985524892807,334.9889295101166,334.99922943115234,335.1528663635254,335.1528663635254,335.1528663635254,335.1528663635254,335.1528663635254,335.1528663635254,335.1528663635254,341.18335914611816,3,6.174655437469482,None,,,,,,,,,,,,,,,,,,110,2,2025-02-25_11h58.33.689,comp,2024.2.4,55.17833650820379,2025-02-25 11h59.34.919928 -0500,
68,68,0,critical,whd,20.0,2.1,lower,57.0,133.0,133.0,57.0,78.0,78.0,2,3.085726261138916,None,,,,,0,0,0,0,0,68,68,14,341.2000946998596,,,,,,,,,,,,,,,,,,,,,,,,,,,,,,,,,,,,,,,,,,,,,,,,,,,,,,,,,,,,,,,,,,,,,,,,,,,,,,,,,57.0,133.0,133.0,57.0,78.0,78.0,2.1,2.12,-191,-265,0,-253,164,282,341.1848978996277,341.1849727630615,341.18818283081055,341.2000946998596,341.3538146018982,341.3538146018982,341.3538146018982,341.3538146018982,341.3538146018982,341.3538146018982,341.3538146018982,344.3015868663788,2,3.085726261138916,None,,,,,,,,,,,,,,,,,,110,2,2025-02-25_11h58.33.689,comp,2024.2.4,55.17833650820379,2025-02-25 11h59.34.919928 -0500,
69,69,0,filler_random,None,None,None,None,None,None,None,None,None,None,2,6.793087959289551,None,,,,,0,0,0,0,0,69,69,166,344.31789350509644,,,,,,,,,,,,,,,,,,,,,,,,,,,,,,,,,,,,,,,,,,,,,,,,,,,,,,,,,,,,,,,,,,,,,,,,,,,,,,,,,70.54737472374362,196.49929793524026,137.25369707892918,144.73408929817842,168.86712132385827,103.24580832985369,3.0,3.1,-267,253,0,-18,220,-275,344.3032536506653,344.30332708358765,344.3065149784088,344.31789350509644,344.47171998023987,344.47171998023987,344.47171998023987,344.47171998023987,344.47171998023987,344.47171998023987,344.47171998023987,351.1135778427124,2,6.793087959289551,None,,,,,,,,,,,,,,,,,,110,2,2025-02-25_11h58.33.689,comp,2024.2.4,55.17833650820379,2025-02-25 11h59.34.919928 -0500,
70,70,0,critical,dhw,35.0,4.0,lower,70.0,70.0,133.0,57.0,57.0,133.0,3,9.077097177505493,None,,,,,0,0,0,0,0,70,70,52,351.12939047813416,,,,,,,,,,,,,,,,,,,,,,,,,,,,,,,,,,,,,,,,,,,,,,,,,,,,,,,,,,,,,,,,,,,,,,,,,,,,,,,,,70.0,70.0,133.0,57.0,57.0,133.0,4.0,4.2,-160,-16,0,-288,191,8,351.1151080131531,351.1152169704437,351.1184093952179,351.12939047813416,351.27006912231445,351.27006912231445,351.27006912231445,351.27006912231445,351.27006912231445,351.27006912231445,351.27006912231445,360.214674949646,3,9.077097177505493,None,,,,,,,,,,,,,,,,,,110,2,2025-02-25_11h58.33.689,comp,2024.2.4,55.17833650820379,2025-02-25 11h59.34.919928 -0500,
71,71,0,critical,dwh,20.0,3.0,lower,78.0,78.0,57.0,133.0,133.0,57.0,3,1.764606237411499,None,,,,,0,0,0,0,0,71,71,68,360.2343235015869,,,,,,,,,,,,,,,,,,,,,,,,,,,,,,,,,,,,,,,,,,,,,,,,,,,,,,,,,,,,,,,,,,,,,,,,,,,,,,,,,78.0,78.0,57.0,133.0,133.0,57.0,3.0,3.2,-202,-267,0,-15,191,255,360.2161486148834,360.2162253856659,360.21893787384033,360.2343235015869,360.3742175102234,360.3742175102234,360.3742175102234,360.3742175102234,360.3742175102234,360.3742175102234,360.3742175102234,362.0082640647888,3,1.764606237411499,None,,,,,,,,,,,,,,,,,,110,2,2025-02-25_11h58.33.689,comp,2024.2.4,55.17833650820379,2025-02-25 11h59.34.919928 -0500,
72,72,0,filler_random,None,None,None,None,None,None,None,None,None,None,3,1.3699607849121094,None,,,,,0,0,0,0,0,72,72,144,362.02791690826416,,,,,,,,,,,,,,,,,,,,,,,,,,,,,,,,,,,,,,,,,,,,,,,,,,,,,,,,,,,,,,,,,,,,,,,,,,,,,,,,,104.62326956623676,86.29983203959684,111.60883854071179,114.65863542626829,138.29097691541426,135.226411653179,2.1,2.12,-196,-265,0,-253,221,259,362.01007080078125,362.0102524757385,362.0134582519531,362.02791690826416,362.173278093338,362.173278093338,362.173278093338,362.173278093338,362.173278093338,362.173278093338,362.173278093338,363.4177634716034,3,1.3699607849121094,None,,,,,,,,,,,,,,,,,,110,2,2025-02-25_11h58.33.689,comp,2024.2.4,55.17833650820379,2025-02-25 11h59.34.919928 -0500,
73,73,0,critical,hdw,35.0,1.0,lower,133.0,57.0,70.0,70.0,57.0,133.0,3,3.3558433055877686,None,,,,,0,0,0,0,0,73,73,108,363.4348940849304,,,,,,,,,,,,,,,,,,,,,,,,,,,,,,,,,,,,,,,,,,,,,,,,,,,,,,,,,,,,,,,,,,,,,,,,,,,,,,,,,133.0,57.0,70.0,70.0,57.0,133.0,1.0,1.1,-640,255,-480,269,-282,255,363.419376373291,363.4194495677948,363.42226481437683,363.4348940849304,363.5758936405182,363.5758936405182,363.5758936405182,363.5758936405182,363.5758936405182,363.5758936405182,363.5758936405182,366.79626750946045,3,3.3558433055877686,None,,,,,,,,,,,,,,,,,,110,2,2025-02-25_11h58.33.689,comp,2024.2.4,55.17833650820379,2025-02-25 11h59.34.919928 -0500,
74,74,0,critical,hdw,20.0,2.1,lower,133.0,57.0,78.0,78.0,57.0,133.0,3,1.8578097820281982,None,,,,,0,0,0,0,0,74,74,22,366.8124723434448,,,,,,,,,,,,,,,,,,,,,,,,,,,,,,,,,,,,,,,,,,,,,,,,,,,,,,,,,,,,,,,,,,,,,,,,,,,,,,,,,133.0,57.0,78.0,78.0,57.0,133.0,2.1,2.12,-164,-286,0,-286,202,287,366.79818296432495,366.7983410358429,366.80132842063904,366.8124723434448,366.96387481689453,366.96387481689453,366.96387481689453,366.96387481689453,366.96387481689453,366.96387481689453,366.96387481689453,368.6742844581604,3,1.8578097820281982,None,,,,,,,,,,,,,,,,,,110,2,2025-02-25_11h58.33.689,comp,2024.2.4,55.17833650820379,2025-02-25 11h59.34.919928 -0500,
75,75,0,filler_square,None,None,None,None,None,None,None,None,None,None,2,1.4756672382354736,None,,,,,0,0,0,0,0,75,75,172,368.69120597839355,,,,,,,,,,,,,,,,,,,,,,,,,,,,,,,,,,,,,,,,,,,,,,,,,,,,,,,,,,,,,,,,,,,,,,,,,,,,,,,,,154.2272741939549,103.92598978368645,178.5446672472961,178.5446672472961,118.50514822252426,171.82078867261188,1.0,1.1,-717,250,-480,277,-209,258,368.67605805397034,368.67615723609924,368.67890882492065,368.69120597839355,368.8317177295685,368.8317177295685,368.8317177295685,368.8317177295685,368.8317177295685,368.8317177295685,368.8317177295685,370.1774911880493,2,1.4756672382354736,None,,,,,,,,,,,,,,,,,,110,2,2025-02-25_11h58.33.689,comp,2024.2.4,55.17833650820379,2025-02-25 11h59.34.919928 -0500,
76,76,0,catch,None,None,None,None,None,None,None,None,None,None,1,1.147712230682373,None,,,,,0,0,0,0,0,76,76,128,370.1942455768585,,,,,,,,,,,,,,,,,,,,,,,,,,,,,,,,,,,,,,,,,,,,,,,,,,,,,,,,,,,,,,,,,,,,,,,,,,,,,,,,,200,125,95,95,74,116,2.2,2.22,-206,272,0,-260,202,-252,370.17961859703064,370.17969822883606,370.1835091114044,370.1942455768585,370.3405339717865,370.3405339717865,370.3405339717865,370.3405339717865,370.3405339717865,370.3405339717865,370.3405339717865,371.3604769706726,1,1.147712230682373,None,,,,,,,,,,,,,,,,,,110,2,2025-02-25_11h58.33.689,comp,2024.2.4,55.17833650820379,2025-02-25 11h59.34.919928 -0500,
77,77,0,critical,dwh,20.0,2.1,lower,78.0,78.0,57.0,133.0,133.0,57.0,3,4.978135585784912,None,,,,,0,0,0,0,0,77,77,6,371.379869222641,,,,,,,,,,,,,,,,,,,,,,,,,,,,,,,,,,,,,,,,,,,,,,,,,,,,,,,,,,,,,,,,,,,,,,,,,,,,,,,,,78.0,78.0,57.0,133.0,133.0,57.0,2.1,2.11,-202,287,0,268,191,-260,371.36203026771545,371.3621048927307,371.3653609752655,371.379869222641,371.5272545814514,371.5272545814514,371.5272545814514,371.5272545814514,371.5272545814514,371.5272545814514,371.5272545814514,376.3624439239502,3,4.978135585784912,None,,,,,,,,,,,,,,,,,,110,2,2025-02-25_11h58.33.689,comp,2024.2.4,55.17833650820379,2025-02-25 11h59.34.919928 -0500,
78,78,0,critical,wdh,35.0,3.0,upper,125.0,200.0,127.0,127.0,200.0,125.0,1,0.9715585708618164,None,,,,,0,0,0,0,0,78,78,75,376.3781635761261,,,,,,,,,,,,,,,,,,,,,,,,,,,,,,,,,,,,,,,,,,,,,,,,,,,,,,,,,,,,,,,,,,,,,,,,,,,,,,,,,125.0,200.0,127.0,127.0,200.0,125.0,3.0,3.1,-260,289,0,-8,222,-264,376.3639705181122,376.36404752731323,376.3673794269562,376.3781635761261,376.5262451171875,376.5262451171875,376.5262451171875,376.5262451171875,376.5262451171875,376.5262451171875,376.5262451171875,377.3660161495209,1,0.9715585708618164,None,,,,,,,,,,,,,,,,,,110,2,2025-02-25_11h58.33.689,comp,2024.2.4,55.17833650820379,2025-02-25 11h59.34.919928 -0500,
79,79,0,critical,hwd,20.0,4.0,upper,200.0,125.0,125.0,200.0,141.0,141.0,1,2.399977922439575,None,,,,,0,0,0,0,0,79,79,107,377.38182044029236,,,,,,,,,,,,,,,,,,,,,,,,,,,,,,,,,,,,,,,,,,,,,,,,,,,,,,,,,,,,,,,,,,,,,,,,,,,,,,,,,200.0,125.0,125.0,200.0,141.0,141.0,4.0,4.1,-258,-272,0,-6,266,-263,377.3676691055298,377.36774349212646,377.3707826137543,377.38182044029236,377.53201127052307,377.53201127052307,377.53201127052307,377.53201127052307,377.53201127052307,377.53201127052307,377.53201127052307,379.7967777252197,1,2.399977922439575,None,,,,,,,,,,,,,,,,,,110,2,2025-02-25_11h58.33.689,comp,2024.2.4,55.17833650820379,2025-02-25 11h59.34.919928 -0500,
80,80,0,filler_square,None,None,None,None,None,None,None,None,None,None,1,1.2350969314575195,None,,,,,0,0,0,0,0,80,80,189,379.8114426136017,,,,,,,,,,,,,,,,,,,,,,,,,,,,,,,,,,,,,,,,,,,,,,,,,,,,,,,,,,,,,,,,,,,,,,,,,,,,,,,,,147.84637946790647,147.84637946790647,138.39149851482915,98.67061999394855,132.08230245484458,57.84752430806896,3.0,3.2,-219,-285,0,-18,174,270,379.7983822822571,379.79845690727234,379.80040645599365,379.8114426136017,379.9623725414276,379.9623725414276,379.9623725414276,379.9623725414276,379.9623725414276,379.9623725414276,379.9623725414276,381.0552341938019,1,1.2350969314575195,None,,,,,,,,,,,,,,,,,,110,2,2025-02-25_11h58.33.689,comp,2024.2.4,55.17833650820379,2025-02-25 11h59.34.919928 -0500,
81,81,0,critical,hwd,35.0,4.0,upper,200.0,125.0,125.0,200.0,127.0,127.0,1,1.6524088382720947,None,,,,,0,0,0,0,0,81,81,101,381.07345604896545,,,,,,,,,,,,,,,,,,,,,,,,,,,,,,,,,,,,,,,,,,,,,,,,,,,,,,,,,,,,,,,,,,,,,,,,,,,,,,,,,200.0,125.0,125.0,200.0,127.0,127.0,4.0,4.1,-258,-260,0,-2,260,-272,381.0567491054535,381.05682849884033,381.0596270561218,381.07345604896545,381.2128884792328,381.2128884792328,381.2128884792328,381.2128884792328,381.2128884792328,381.2128884792328,381.2128884792328,382.73662543296814,1,1.6524088382720947,None,,,,,,,,,,,,,,,,,,110,2,2025-02-25_11h58.33.689,comp,2024.2.4,55.17833650820379,2025-02-25 11h59.34.919928 -0500,
82,82,0,critical,dhw,20.0,1.0,lower,78.0,78.0,133.0,57.0,57.0,133.0,2,1.9578430652618408,None,,,,,0,0,0,0,0,82,82,54,382.75241923332214,,,,,,,,,,,,,,,,,,,,,,,,,,,,,,,,,,,,,,,,,,,,,,,,,,,,,,,,,,,,,,,,,,,,,,,,,,,,,,,,,78.0,78.0,133.0,57.0,57.0,133.0,1.0,1.3,316,-268,480,-286,671,-266,382.73824405670166,382.7383460998535,382.7415874004364,382.75241923332214,382.8977210521698,382.8977210521698,382.8977210521698,382.8977210521698,382.8977210521698,382.8977210521698,382.8977210521698,384.7138910293579,2,1.9578430652618408,None,,,,,,,,,,,,,,,,,,110,2,2025-02-25_11h58.33.689,comp,2024.2.4,55.17833650820379,2025-02-25 11h59.34.919928 -0500,
83,83,0,filler_random,None,None,None,None,None,None,None,None,None,None,3,7.107736587524414,None,,,,,0,0,0,0,0,83,83,157,384.72996830940247,,,,,,,,,,,,,,,,,,,,,,,,,,,,,,,,,,,,,,,,,,,,,,,,,,,,,,,,,,,,,,,,,,,,,,,,,,,,,,,,,130.3335924406709,172.65605596085354,84.65543842809797,72.14111795049709,153.77054490943306,147.58747601734484,1.0,1.3,262,-268,480,-287,686,-271,384.7157084941864,384.71583247184753,384.71899795532227,384.72996830940247,384.88379287719727,384.88379287719727,384.88379287719727,384.88379287719727,384.88379287719727,384.88379287719727,384.88379287719727,391.839647769928,3,7.107736587524414,None,,,,,,,,,,,,,,,,,,110,2,2025-02-25_11h58.33.689,comp,2024.2.4,55.17833650820379,2025-02-25 11h59.34.919928 -0500,
84,84,0,critical,wdh,20.0,3.0,lower,57.0,133.0,78.0,78.0,133.0,57.0,3,1.822922706604004,None,,,,,0,0,0,0,0,84,84,80,391.8557770252228,,,,,,,,,,,,,,,,,,,,,,,,,,,,,,,,,,,,,,,,,,,,,,,,,,,,,,,,,,,,,,,,,,,,,,,,,,,,,,,,,57.0,133.0,78.0,78.0,133.0,57.0,3.0,3.2,-202,-270,0,17,164,250,391.84144949913025,391.84158182144165,391.84486174583435,391.8557770252228,392.0003023147583,392.0003023147583,392.0003023147583,392.0003023147583,392.0003023147583,392.0003023147583,392.0003023147583,393.68354511260986,3,1.822922706604004,None,,,,,,,,,,,,,,,,,,110,2,2025-02-25_11h58.33.689,comp,2024.2.4,55.17833650820379,2025-02-25 11h59.34.919928 -0500,
85,85,0,critical,whd,20.0,2.1,lower,57.0,133.0,133.0,57.0,78.0,78.0,2,1.9336042404174805,None,,,,,0,0,0,0,0,85,85,38,393.7044451236725,,,,,,,,,,,,,,,,,,,,,,,,,,,,,,,,,,,,,,,,,,,,,,,,,,,,,,,,,,,,,,,,,,,,,,,,,,,,,,,,,57.0,133.0,133.0,57.0,78.0,78.0,2.1,2.11,-191,257,0,275,164,-284,393.6851649284363,393.6852431297302,393.6887776851654,393.7044451236725,393.85137033462524,393.85137033462524,393.85137033462524,393.85137033462524,393.85137033462524,393.85137033462524,393.85137033462524,395.65195083618164,2,1.9336042404174805,None,,,,,,,,,,,,,,,,,,110,2,2025-02-25_11h58.33.689,comp,2024.2.4,55.17833650820379,2025-02-25 11h59.34.919928 -0500,
86,86,0,filler_square,None,None,None,None,None,None,None,None,None,None,3,1.1387596130371094,None,,,,,0,0,0,0,0,86,86,192,395.66726541519165,,,,,,,,,,,,,,,,,,,,,,,,,,,,,,,,,,,,,,,,,,,,,,,,,,,,,,,,,,,,,,,,,,,,,,,,,,,,,,,,,59.505562454633434,67.55273236784022,90.72144289079574,73.7356540966609,112.46055694787054,112.46055694787054,1.0,1.2,-167,7,0,-4,189,16,395.65368127822876,395.65375804901123,395.6570725440979,395.66726541519165,395.81748270988464,395.81748270988464,395.81748270988464,395.81748270988464,395.81748270988464,395.81748270988464,395.81748270988464,396.8198981285095,3,1.1387596130371094,None,,,,,,,,,,,,,,,,,,110,2,2025-02-25_11h58.33.689,comp,2024.2.4,55.17833650820379,2025-02-25 11h59.34.919928 -0500,
87,87,0,filler_square,None,None,None,None,None,None,None,None,None,None,2,1.1308174133300781,None,,,,,0,0,0,0,0,87,87,207,396.835214138031,,,,,,,,,,,,,,,,,,,,,,,,,,,,,,,,,,,,,,,,,,,,,,,,,,,,,,,,,,,,,,,,,,,,,,,,,,,,,,,,,58.779603842576854,59.572602779602,109.93696087901729,109.93696087901729,86.92837825951948,83.07478392125903,2.2,2.21,-181,-265,0,265,193,251,396.82176208496094,396.82184958457947,396.8249969482422,396.835214138031,396.98592948913574,396.98592948913574,396.98592948913574,396.98592948913574,396.98592948913574,396.98592948913574,396.98592948913574,397.9718129634857,2,1.1308174133300781,None,,,,,,,,,,,,,,,,,,110,2,2025-02-25_11h58.33.689,comp,2024.2.4,55.17833650820379,2025-02-25 11h59.34.919928 -0500,
88,88,0,filler_random,None,None,None,None,None,None,None,None,None,None,1,6.301571607589722,None,,,,,0,0,0,0,0,88,88,141,397.9925856590271,,,,,,,,,,,,,,,,,,,,,,,,,,,,,,,,,,,,,,,,,,,,,,,,,,,,,,,,,,,,,,,,,,,,,,,,,,,,,,,,,158.35131054017396,195.43443879827439,176.4386571305835,125.84717424103142,185.4393023628474,133.34555697116411,3.0,3.1,-257,255,0,15,226,-277,397.9736771583557,397.97375750541687,397.9768831729889,397.9925856590271,398.1361086368561,398.1361086368561,398.1361086368561,398.1361086368561,398.1361086368561,398.1361086368561,398.1361086368561,404.3136112689972,1,6.301571607589722,None,,,,,,,,,,,,,,,,,,110,2,2025-02-25_11h58.33.689,comp,2024.2.4,55.17833650820379,2025-02-25 11h59.34.919928 -0500,
89,89,0,critical,hwd,35.0,2.1,upper,200.0,125.0,125.0,200.0,127.0,127.0,1,3.3008437156677246,None,,,,,0,0,0,0,0,89,89,17,404.3290419578552,,,,,,,,,,,,,,,,,,,,,,,,,,,,,,,,,,,,,,,,,,,,,,,,,,,,,,,,,,,,,,,,,,,,,,,,,,,,,,,,,200.0,125.0,125.0,200.0,127.0,127.0,2.1,2.11,-258,263,0,287,260,-254,404.3150808811188,404.3151967525482,404.3179590702057,404.3290419578552,404.46590971946716,404.46590971946716,404.46590971946716,404.46590971946716,404.46590971946716,404.46590971946716,404.46590971946716,407.6428334712982,1,3.3008437156677246,None,,,,,,,,,,,,,,,,,,110,2,2025-02-25_11h58.33.689,comp,2024.2.4,55.17833650820379,2025-02-25 11h59.34.919928 -0500,
90,90,0,filler_square,None,None,None,None,None,None,None,None,None,None,3,5.323581218719482,None,,,,,0,0,0,0,0,90,90,175,407.65890073776245,,,,,,,,,,,,,,,,,,,,,,,,,,,,,,,,,,,,,,,,,,,,,,,,,,,,,,,,,,,,,,,,,,,,,,,,,,,,,,,,,61.101345420452816,61.101345420452816,57.46841208479551,58.540384914257615,59.526137549113386,61.08711942620978,2.1,2.11,-156,269,0,282,156,-287,407.6449522972107,407.6450283527374,407.64783334732056,407.65890073776245,407.8058636188507,407.8058636188507,407.8058636188507,407.8058636188507,407.8058636188507,407.8058636188507,407.8058636188507,412.9905815124512,3,5.323581218719482,None,,,,,,,,,,,,,,,,,,110,2,2025-02-25_11h58.33.689,comp,2024.2.4,55.17833650820379,2025-02-25 11h59.34.919928 -0500,
91,91,0,filler_square,None,None,None,None,None,None,None,None,None,None,2,1.2387330532073975,None,,,,,0,0,0,0,0,91,91,197,413.0073983669281,,,,,,,,,,,,,,,,,,,,,,,,,,,,,,,,,,,,,,,,,,,,,,,,,,,,,,,,,,,,,,,,,,,,,,,,,,,,,,,,,100.73074601194037,139.95214102685088,140.68254323247092,140.68254323247092,94.15986762113658,125.60077851248855,2.1,2.11,-236,261,0,283,229,-279,412.9924829006195,412.99256348609924,412.99663186073303,413.0073983669281,413.1560859680176,413.1560859680176,413.1560859680176,413.1560859680176,413.1560859680176,413.1560859680176,413.1560859680176,414.24995732307434,2,1.2387330532073975,None,,,,,,,,,,,,,,,,,,110,2,2025-02-25_11h58.33.689,comp,2024.2.4,55.17833650820379,2025-02-25 11h59.34.919928 -0500,
92,92,0,filler_random,None,None,None,None,None,None,None,None,None,None,3,2.778775691986084,None,,,,,0,0,0,0,0,92,92,163,414.2674798965454,,,,,,,,,,,,,,,,,,,,,,,,,,,,,,,,,,,,,,,,,,,,,,,,,,,,,,,,,,,,,,,,,,,,,,,,,,,,,,,,,132.90581750826811,185.11564877833604,72.51200301616173,175.54725437779678,189.67345286394382,196.4752820347602,1.0,1.3,204,-277,480,-253,762,-266,414.25160789489746,414.251681804657,414.2544367313385,414.2674798965454,414.40731287002563,414.40731287002563,414.40731287002563,414.40731287002563,414.40731287002563,414.40731287002563,414.40731287002563,417.06129789352417,3,2.778775691986084,None,,,,,,,,,,,,,,,,,,110,2,2025-02-25_11h58.33.689,comp,2024.2.4,55.17833650820379,2025-02-25 11h59.34.919928 -0500,
93,93,0,critical,wdh,20.0,2.1,lower,57.0,133.0,78.0,78.0,133.0,57.0,3,2.124105930328369,None,,,,,0,0,0,0,0,93,93,10,417.0819523334503,,,,,,,,,,,,,,,,,,,,,,,,,,,,,,,,,,,,,,,,,,,,,,,,,,,,,,,,,,,,,,,,,,,,,,,,,,,,,,,,,57.0,133.0,78.0,78.0,133.0,57.0,2.1,2.12,-202,-254,0,-283,164,269,417.06305718421936,417.06322979927063,417.06654357910156,417.0819523334503,417.22904419898987,417.22904419898987,417.22904419898987,417.22904419898987,417.22904419898987,417.22904419898987,417.22904419898987,419.20906257629395,3,2.124105930328369,None,,,,,,,,,,,,,,,,,,110,2,2025-02-25_11h58.33.689,comp,2024.2.4,55.17833650820379,2025-02-25 11h59.34.919928 -0500,
94,94,0,critical,hwd,20.0,2.1,upper,200.0,125.0,125.0,200.0,141.0,141.0,1,3.148470878601074,None,,,,,0,0,0,0,0,94,94,19,419.22499346733093,,,,,,,,,,,,,,,,,,,,,,,,,,,,,,,,,,,,,,,,,,,,,,,,,,,,,,,,,,,,,,,,,,,,,,,,,,,,,,,,,200.0,125.0,125.0,200.0,141.0,141.0,2.1,2.12,-258,-263,0,-264,266,255,419.21067237854004,419.2107529640198,419.21406841278076,419.22499346733093,419.37470746040344,419.37470746040344,419.37470746040344,419.37470746040344,419.37470746040344,419.37470746040344,419.37470746040344,422.37723755836487,1,3.148470878601074,None,,,,,,,,,,,,,,,,,,110,2,2025-02-25_11h58.33.689,comp,2024.2.4,55.17833650820379,2025-02-25 11h59.34.919928 -0500,
95,95,0,filler_random,None,None,None,None,None,None,None,None,None,None,2,1.4501519203186035,None,,,,,0,0,0,0,0,95,95,133,422.38838624954224,,,,,,,,,,,,,,,,,,,,,,,,,,,,,,,,,,,,,,,,,,,,,,,,,,,,,,,,,,,,,,,,,,,,,,,,,,,,,,,,,92.32864330693305,83.74626322424851,103.42320261705207,100.96132764005625,65.79706341927013,134.36723819861317,2.2,2.21,-188,-254,0,274,214,255,422.37788558006287,422.3779149055481,422.37895107269287,422.38838624954224,422.5309753417969,422.5309753417969,422.5309753417969,422.5309753417969,422.5309753417969,422.5309753417969,422.5309753417969,423.84558939933777,2,1.4501519203186035,None,,,,,,,,,,,,,,,,,,110,2,2025-02-25_11h58.33.689,comp,2024.2.4,55.17833650820379,2025-02-25 11h59.34.919928 -0500,
96,96,0,critical,hwd,20.0,2.1,upper,200.0,125.0,125.0,200.0,141.0,141.0,1,2.2425413131713867,None,,,,,0,0,0,0,0,96,96,43,423.8620364665985,,,,,,,,,,,,,,,,,,,,,,,,,,,,,,,,,,,,,,,,,,,,,,,,,,,,,,,,,,,,,,,,,,,,,,,,,,,,,,,,,200.0,125.0,125.0,200.0,141.0,141.0,2.1,2.12,-258,-264,0,-276,266,273,423.84723830223083,423.8473753929138,423.85126304626465,423.8620364665985,424.0065336227417,424.0065336227417,424.0065336227417,424.0065336227417,424.0065336227417,424.0065336227417,424.0065336227417,426.11060547828674,1,2.2425413131713867,None,,,,,,,,,,,,,,,,,,110,2,2025-02-25_11h58.33.689,comp,2024.2.4,55.17833650820379,2025-02-25 11h59.34.919928 -0500,
97,97,0,critical,hwd,35.0,2.1,lower,133.0,57.0,57.0,133.0,70.0,70.0,1,1.9347357749938965,None,,,,,0,0,0,0,0,97,97,40,426.1271514892578,,,,,,,,,,,,,,,,,,,,,,,,,,,,,,,,,,,,,,,,,,,,,,,,,,,,,,,,,,,,,,,,,,,,,,,,,,,,,,,,,133.0,57.0,57.0,133.0,70.0,70.0,2.1,2.12,-191,-256,0,-254,198,270,426.1122350692749,426.11231303215027,426.11550426483154,426.1271514892578,426.27834129333496,426.27834129333496,426.27834129333496,426.27834129333496,426.27834129333496,426.27834129333496,426.27834129333496,428.0780711174011,1,1.9347357749938965,None,,,,,,,,,,,,,,,,,,110,2,2025-02-25_11h58.33.689,comp,2024.2.4,55.17833650820379,2025-02-25 11h59.34.919928 -0500,
98,98,0,critical,dhw,35.0,1.0,upper,127.0,127.0,200.0,125.0,125.0,200.0,2,6.5343804359436035,None,,,,,0,0,0,0,0,98,98,49,428.0960409641266,,,,,,,,,,,,,,,,,,,,,,,,,,,,,,,,,,,,,,,,,,,,,,,,,,,,,,,,,,,,,,,,,,,,,,,,,,,,,,,,,127.0,127.0,200.0,125.0,125.0,200.0,1.0,1.1,-702,288,-480,250,-222,281,428.0795660018921,428.0796411037445,428.0825171470642,428.0960409641266,428.23265409469604,428.23265409469604,428.23265409469604,428.23265409469604,428.23265409469604,428.23265409469604,428.23265409469604,434.6352925300598,2,6.5343804359436035,None,,,,,,,,,,,,,,,,,,110,2,2025-02-25_11h58.33.689,comp,2024.2.4,55.17833650820379,2025-02-25 11h59.34.919928 -0500,
99,99,0,critical,dhw,20.0,4.0,upper,141.0,141.0,200.0,125.0,125.0,200.0,2,2.034795045852661,None,,,,,0,0,0,0,0,99,99,59,434.6512348651886,,,,,,,,,,,,,,,,,,,,,,,,,,,,,,,,,,,,,,,,,,,,,,,,,,,,,,,,,,,,,,,,,,,,,,,,,,,,,,,,,141.0,141.0,200.0,125.0,125.0,200.0,4.0,4.2,-229,20,0,-279,258,18,434.6369137763977,434.6369934082031,434.6404094696045,434.6512348651886,434.79780173301697,434.79780173301697,434.79780173301697,434.79780173301697,434.79780173301697,434.79780173301697,434.79780173301697,436.69619274139404,2,2.034795045852661,None,,,,,,,,,,,,,,,,,,110,2,2025-02-25_11h58.33.689,comp,2024.2.4,55.17833650820379,2025-02-25 11h59.34.919928 -0500,
100,100,0,critical,wdh,35.0,1.0,lower,57.0,133.0,70.0,70.0,133.0,57.0,1,2.0618584156036377,None,,,,,0,0,0,0,0,100,100,72,436.7126169204712,,,,,,,,,,,,,,,,,,,,,,,,,,,,,,,,,,,,,,,,,,,,,,,,,,,,,,,,,,,,,,,,,,,,,,,,,,,,,,,,,57.0,133.0,70.0,70.0,133.0,57.0,1.0,1.2,-198,10,0,3,160,15,436.69759345054626,436.69766759872437,436.70043563842773,436.7126169204712,436.8504731655121,436.8504731655121,436.8504731655121,436.8504731655121,436.8504731655121,436.8504731655121,436.8504731655121,438.78096413612366,1,2.0618584156036377,None,,,,,,,,,,,,,,,,,,110,2,2025-02-25_11h58.33.689,comp,2024.2.4,55.17833650820379,2025-02-25 11h59.34.919928 -0500,
101,101,0,critical,hwd,20.0,4.0,lower,133.0,57.0,57.0,133.0,78.0,78.0,1,2.1891331672668457,None,,,,,0,0,0,0,0,101,101,106,438.8007781505585,,,,,,,,,,,,,,,,,,,,,,,,,,,,,,,,,,,,,,,,,,,,,,,,,,,,,,,,,,,,,,,,,,,,,,,,,,,,,,,,,133.0,57.0,57.0,133.0,78.0,78.0,4.0,4.1,-191,-271,0,-9,202,-264,438.7824556827545,438.78253412246704,438.78554224967957,438.8007781505585,438.9455473423004,438.9455473423004,438.9455473423004,438.9455473423004,438.9455473423004,438.9455473423004,438.9455473423004,441.0076439380646,1,2.1891331672668457,None,,,,,,,,,,,,,,,,,,110,2,2025-02-25_11h58.33.689,comp,2024.2.4,55.17833650820379,2025-02-25 11h59.34.919928 -0500,
102,102,0,critical,hwd,20.0,3.0,upper,200.0,125.0,125.0,200.0,141.0,141.0,1,2.4857821464538574,None,,,,,0,0,0,0,0,102,102,105,441.0248305797577,,,,,,,,,,,,,,,,,,,,,,,,,,,,,,,,,,,,,,,,,,,,,,,,,,,,,,,,,,,,,,,,,,,,,,,,,,,,,,,,,200.0,125.0,125.0,200.0,141.0,141.0,3.0,3.2,-258,-276,0,1,266,260,441.00920581817627,441.0092833042145,441.0122232437134,441.0248305797577,441.1667459011078,441.1667459011078,441.1667459011078,441.1667459011078,441.1667459011078,441.1667459011078,441.1667459011078,443.5170428752899,1,2.4857821464538574,None,,,,,,,,,,,,,,,,,,110,2,2025-02-25_11h58.33.689,comp,2024.2.4,55.17833650820379,2025-02-25 11h59.34.919928 -0500,
103,103,0,filler_random,None,None,None,None,None,None,None,None,None,None,3,3.1355865001678467,None,,,,,0,0,0,0,0,103,103,135,443.53446078300476,,,,,,,,,,,,,,,,,,,,,,,,,,,,,,,,,,,,,,,,,,,,,,,,,,,,,,,,,,,,,,,,,,,,,,,,,,,,,,,,,167.52809159793543,180.66918373830478,168.84476427989972,108.85428944325264,190.213055766731,190.99427164845412,2.1,2.11,-241,288,0,265,246,-271,443.5189702510834,443.5190751552582,443.52308464050293,443.53446078300476,443.6814012527466,443.6814012527466,443.6814012527466,443.6814012527466,443.6814012527466,443.6814012527466,443.6814012527466,446.68451714515686,3,3.1355865001678467,None,,,,,,,,,,,,,,,,,,110,2,2025-02-25_11h58.33.689,comp,2024.2.4,55.17833650820379,2025-02-25 11h59.34.919928 -0500,
104,104,0,filler_random,None,None,None,None,None,None,None,None,None,None,3,1.0659735202789307,None,,,,,0,0,0,0,0,104,104,138,446.7002396583557,,,,,,,,,,,,,,,,,,,,,,,,,,,,,,,,,,,,,,,,,,,,,,,,,,,,,,,,,,,,,,,,,,,,,,,,,,,,,,,,,123.81993691812019,161.72403485586756,122.04751777680673,100.51118581426122,198.99620206406257,146.5773037336887,2.2,2.22,-227,275,0,-275,220,-259,446.68654108047485,446.6866195201874,446.68996596336365,446.7002396583557,446.85078024864197,446.85078024864197,446.85078024864197,446.85078024864197,446.85078024864197,446.85078024864197,446.85078024864197,447.76956725120544,3,1.0659735202789307,None,,,,,,,,,,,,,,,,,,110,2,2025-02-25_11h58.33.689,comp,2024.2.4,55.17833650820379,2025-02-25 11h59.34.919928 -0500,
105,105,0,filler_random,None,None,None,None,None,None,None,None,None,None,3,1.34043288230896,None,,,,,0,0,0,0,0,105,105,160,447.78623127937317,,,,,,,,,,,,,,,,,,,,,,,,,,,,,,,,,,,,,,,,,,,,,,,,,,,,,,,,,,,,,,,,,,,,,,,,,,,,,,,,,79.87834063803808,59.95890619273297,108.6262634449961,81.49038009177693,127.87919504243811,93.12252368431055,3.0,3.1,-167,282,0,17,183,-268,447.7714982032776,447.7715837955475,447.7747766971588,447.78623127937317,447.93406867980957,447.93406867980957,447.93406867980957,447.93406867980957,447.93406867980957,447.93406867980957,447.93406867980957,449.13628578186035,3,1.34043288230896,None,,,,,,,,,,,,,,,,,,110,2,2025-02-25_11h58.33.689,comp,2024.2.4,55.17833650820379,2025-02-25 11h59.34.919928 -0500,
106,106,0,filler_square,None,None,None,None,None,None,None,None,None,None,2,2.413278102874756,None,,,,,0,0,0,0,0,106,106,180,449.1526679992676,,,,,,,,,,,,,,,,,,,,,,,,,,,,,,,,,,,,,,,,,,,,,,,,,,,,,,,,,,,,,,,,,,,,,,,,,,,,,,,,,63.71074978080021,63.71074978080021,62.946705357301965,58.1211065053252,62.99933727273718,60.5034943367547,2.2,2.22,-157,276,0,-255,155,-266,449.1383762359619,449.13845777511597,449.1418652534485,449.1526679992676,449.30193066596985,449.30193066596985,449.30193066596985,449.30193066596985,449.30193066596985,449.30193066596985,449.30193066596985,451.5698366165161,2,2.413278102874756,None,,,,,,,,,,,,,,,,,,110,2,2025-02-25_11h58.33.689,comp,2024.2.4,55.17833650820379,2025-02-25 11h59.34.919928 -0500,
107,107,0,critical,wdh,35.0,2.1,upper,125.0,200.0,127.0,127.0,200.0,125.0,3,6.907666444778442,None,,,,,0,0,0,0,0,107,107,33,451.5863060951233,,,,,,,,,,,,,,,,,,,,,,,,,,,,,,,,,,,,,,,,,,,,,,,,,,,,,,,,,,,,,,,,,,,,,,,,,,,,,,,,,125.0,200.0,127.0,127.0,200.0,125.0,2.1,2.12,-260,-265,0,-280,222,266,451.57149171829224,451.57157015800476,451.5756573677063,451.5863060951233,451.7334406375885,451.7334406375885,451.7334406375885,451.7334406375885,451.7334406375885,451.7334406375885,451.7334406375885,458.50319242477417,3,6.907666444778442,None,,,,,,,,,,,,,,,,,,110,2,2025-02-25_11h58.33.689,comp,2024.2.4,55.17833650820379,2025-02-25 11h59.34.919928 -0500,
108,108,0,critical,whd,35.0,2.1,lower,57.0,133.0,133.0,57.0,70.0,70.0,2,2.358591079711914,None,,,,,0,0,0,0,0,108,108,36,458.5193078517914,,,,,,,,,,,,,,,,,,,,,,,,,,,,,,,,,,,,,,,,,,,,,,,,,,,,,,,,,,,,,,,,,,,,,,,,,,,,,,,,,57.0,133.0,133.0,57.0,70.0,70.0,2.1,2.11,-191,274,0,261,160,-277,458.5046944618225,458.50477290153503,458.5075933933258,458.5193078517914,458.65746688842773,458.65746688842773,458.65746688842773,458.65746688842773,458.65746688842773,458.65746688842773,458.65746688842773,460.8877673149109,2,2.358591079711914,None,,,,,,,,,,,,,,,,,,110,2,2025-02-25_11h58.33.689,comp,2024.2.4,55.17833650820379,2025-02-25 11h59.34.919928 -0500,
109,109,0,critical,whd,20.0,1.0,upper,125.0,200.0,200.0,125.0,141.0,141.0,1,2.278188943862915,None,,,,,0,0,0,0,0,109,109,91,460.90381121635437,,,,,,,,,,,,,,,,,,,,,,,,,,,,,,,,,,,,,,,,,,,,,,,,,,,,,,,,,,,,,,,,,,,,,,,,,,,,,,,,,125.0,200.0,200.0,125.0,141.0,141.0,1.0,1.2,-258,-13,0,18,229,-8,460.88920307159424,460.88927841186523,460.892160654068,460.90381121635437,461.06303453445435,461.06303453445435,461.06303453445435,461.06303453445435,461.06303453445435,461.06303453445435,461.06303453445435,463.1987771987915,1,2.278188943862915,None,,,,,,,,,,,,,,,,,,110,2,2025-02-25_11h58.33.689,comp,2024.2.4,55.17833650820379,2025-02-25 11h59.34.919928 -0500,
110,110,0,critical,dhw,20.0,2.1,lower,78.0,78.0,133.0,57.0,57.0,133.0,2,2.6782262325286865,None,,,,,0,0,0,0,0,110,110,26,463.21578574180603,,,,,,,,,,,,,,,,,,,,,,,,,,,,,,,,,,,,,,,,,,,,,,,,,,,,,,,,,,,,,,,,,,,,,,,,,,,,,,,,,78.0,78.0,133.0,57.0,57.0,133.0,2.1,2.11,-164,257,0,284,191,-290,463.20028853416443,463.20036602020264,463.20316100120544,463.21578574180603,463.357004404068,463.357004404068,463.357004404068,463.357004404068,463.357004404068,463.357004404068,463.357004404068,465.9083707332611,2,2.6782262325286865,None,,,,,,,,,,,,,,,,,,110,2,2025-02-25_11h58.33.689,comp,2024.2.4,55.17833650820379,2025-02-25 11h59.34.919928 -0500,
111,111,0,critical,hdw,35.0,3.0,upper,200.0,125.0,127.0,127.0,125.0,200.0,1,1.4744141101837158,None,,,,,0,0,0,0,0,111,111,111,465.9243724346161,,,,,,,,,,,,,,,,,,,,,,,,,,,,,,,,,,,,,,,,,,,,,,,,,,,,,,,,,,,,,,,,,,,,,,,,,,,,,,,,,200.0,125.0,127.0,127.0,125.0,200.0,3.0,3.2,-222,-289,0,18,260,269,465.90992498397827,465.9100019931793,465.9139096736908,465.9243724346161,466.07066226005554,466.07066226005554,466.07066226005554,466.07066226005554,466.07066226005554,466.07066226005554,466.07066226005554,467.4085907936096,1,1.4744141101837158,None,,,,,,,,,,,,,,,,,,110,2,2025-02-25_11h58.33.689,comp,2024.2.4,55.17833650820379,2025-02-25 11h59.34.919928 -0500,
112,112,0,filler_random,None,None,None,None,None,None,None,None,None,None,1,2.219477653503418,None,,,,,0,0,0,0,0,112,112,130,467.42644929885864,,,,,,,,,,,,,,,,,,,,,,,,,,,,,,,,,,,,,,,,,,,,,,,,,,,,,,,,,,,,,,,,,,,,,,,,,,,,,,,,,125.18465867721726,177.6477615884013,99.1275236184804,135.45492859508397,102.32965978370127,198.3454181035043,2.2,2.22,-253,289,0,-268,263,-279,467.41023564338684,467.41031289100647,467.41332817077637,467.42644929885864,467.57435512542725,467.57435512542725,467.57435512542725,467.57435512542725,467.57435512542725,467.57435512542725,467.57435512542725,469.6602988243103,1,2.219477653503418,None,,,,,,,,,,,,,,,,,,110,2,2025-02-25_11h58.33.689,comp,2024.2.4,55.17833650820379,2025-02-25 11h59.34.919928 -0500,
113,113,0,filler_random,None,None,None,None,None,None,None,None,None,None,2,1.3061332702636719,None,,,,,0,0,0,0,0,113,113,164,469.6762602329254,,,,,,,,,,,,,,,,,,,,,,,,,,,,,,,,,,,,,,,,,,,,,,,,,,,,,,,,,,,,,,,,,,,,,,,,,,,,,,,,,57.7322608647578,198.4778003327111,146.6790071166532,99.73795238129628,116.40010320794462,77.87589837972425,1.0,1.3,235,-264,480,-252,665,-261,469.6621148586273,469.6622371673584,469.6660227775574,469.6762602329254,469.82145071029663,469.82145071029663,469.82145071029663,469.82145071029663,469.82145071029663,469.82145071029663,469.82145071029663,470.9909908771515,2,1.3061332702636719,None,,,,,,,,,,,,,,,,,,110,2,2025-02-25_11h58.33.689,comp,2024.2.4,55.17833650820379,2025-02-25 11h59.34.919928 -0500,
114,114,0,critical,hdw,35.0,2.1,upper,200.0,125.0,127.0,127.0,125.0,200.0,1,1.4707818031311035,None,,,,,0,0,0,0,0,114,114,45,471.0158362388611,,,,,,,,,,,,,,,,,,,,,,,,,,,,,,,,,,,,,,,,,,,,,,,,,,,,,,,,,,,,,,,,,,,,,,,,,,,,,,,,,200.0,125.0,127.0,127.0,125.0,200.0,2.1,2.11,-222,280,0,257,260,-252,470.9925100803375,470.99258375167847,470.9956715106964,471.0158362388611,471.1593141555786,471.1593141555786,471.1593141555786,471.1593141555786,471.1593141555786,471.1593141555786,471.1593141555786,472.49279284477234,1,1.4707818031311035,None,,,,,,,,,,,,,,,,,,110,2,2025-02-25_11h58.33.689,comp,2024.2.4,55.17833650820379,2025-02-25 11h59.34.919928 -0500,
115,115,0,critical,whd,20.0,4.0,upper,125.0,200.0,200.0,125.0,141.0,141.0,2,2.2116732597351074,None,,,,,0,0,0,0,0,115,115,95,472.5085337162018,,,,,,,,,,,,,,,,,,,,,,,,,,,,,,,,,,,,,,,,,,,,,,,,,,,,,,,,,,,,,,,,,,,,,,,,,,,,,,,,,125.0,200.0,200.0,125.0,141.0,141.0,4.0,4.2,-258,-8,0,-276,229,1,472.49435448646545,472.4944350719452,472.49777364730835,472.5085337162018,472.6577458381653,472.6577458381653,472.6577458381653,472.6577458381653,472.6577458381653,472.6577458381653,472.6577458381653,474.7251875400543,2,2.2116732597351074,None,,,,,,,,,,,,,,,,,,110,2,2025-02-25_11h58.33.689,comp,2024.2.4,55.17833650820379,2025-02-25 11h59.34.919928 -0500,
116,116,0,critical,wdh,20.0,3.0,upper,125.0,200.0,141.0,141.0,200.0,125.0,2,1.2814128398895264,None,,,,,0,0,0,0,0,116,116,81,474.74139857292175,,,,,,,,,,,,,,,,,,,,,,,,,,,,,,,,,,,,,,,,,,,,,,,,,,,,,,,,,,,,,,,,,,,,,,,,,,,,,,,,,125.0,200.0,141.0,141.0,200.0,125.0,3.0,3.2,-266,-275,0,-17,229,276,474.7266869544983,474.72676396369934,474.7296359539032,474.74139857292175,474.88960337638855,474.88960337638855,474.88960337638855,474.88960337638855,474.88960337638855,474.88960337638855,474.88960337638855,476.02725887298584,2,1.2814128398895264,None,,,,,,,,,,,,,,,,,,110,2,2025-02-25_11h58.33.689,comp,2024.2.4,55.17833650820379,2025-02-25 11h59.34.919928 -0500,
117,117,0,critical,hdw,35.0,4.0,lower,133.0,57.0,70.0,70.0,57.0,133.0,3,6.682813882827759,None,,,,,0,0,0,0,0,117,117,112,476.043244600296,,,,,,,,,,,,,,,,,,,,,,,,,,,,,,,,,,,,,,,,,,,,,,,,,,,,,,,,,,,,,,,,,,,,,,,,,,,,,,,,,133.0,57.0,70.0,70.0,57.0,133.0,4.0,4.2,-160,3,0,-275,198,16,476.02885246276855,476.0289304256439,476.03227949142456,476.043244600296,476.1974768638611,476.1974768638611,476.1974768638611,476.1974768638611,476.1974768638611,476.1974768638611,476.1974768638611,482.73135590553284,3,6.682813882827759,None,,,,,,,,,,,,,,,,,,110,2,2025-02-25_11h58.33.689,comp,2024.2.4,55.17833650820379,2025-02-25 11h59.34.919928 -0500,
118,118,0,critical,whd,20.0,3.0,lower,57.0,133.0,133.0,57.0,78.0,78.0,2,1.3442261219024658,None,,,,,0,0,0,0,0,118,118,92,482.74977231025696,,,,,,,,,,,,,,,,,,,,,,,,,,,,,,,,,,,,,,,,,,,,,,,,,,,,,,,,,,,,,,,,,,,,,,,,,,,,,,,,,57.0,133.0,133.0,57.0,78.0,78.0,3.0,3.1,-191,288,0,-19,164,-270,482.73297905921936,482.7330551147461,482.7366693019867,482.74977231025696,482.897234916687,482.897234916687,482.897234916687,482.897234916687,482.897234916687,482.897234916687,482.897234916687,484.09637928009033,2,1.3442261219024658,None,,,,,,,,,,,,,,,,,,110,2,2025-02-25_11h58.33.689,comp,2024.2.4,55.17833650820379,2025-02-25 11h59.34.919928 -0500,
119,119,0,critical,wdh,20.0,4.0,lower,57.0,133.0,78.0,78.0,133.0,57.0,3,6.205331325531006,None,,,,,0,0,0,0,0,119,119,82,484.11270117759705,,,,,,,,,,,,,,,,,,,,,,,,,,,,,,,,,,,,,,,,,,,,,,,,,,,,,,,,,,,,,,,,,,,,,,,,,,,,,,,,,57.0,133.0,78.0,78.0,133.0,57.0,4.0,4.1,-202,-260,0,11,164,-262,484.09788942337036,484.09796619415283,484.10190629959106,484.11270117759705,484.2538707256317,484.2538707256317,484.2538707256317,484.2538707256317,484.2538707256317,484.2538707256317,484.2538707256317,490.3304979801178,3,6.205331325531006,None,,,,,,,,,,,,,,,,,,110,2,2025-02-25_11h58.33.689,comp,2024.2.4,55.17833650820379,2025-02-25 11h59.34.919928 -0500,
120,120,0,critical,dhw,35.0,2.1,lower,70.0,70.0,133.0,57.0,57.0,133.0,2,1.7002909183502197,None,,,,,0,0,0,0,0,120,120,24,490.3464241027832,,,,,,,,,,,,,,,,,,,,,,,,,,,,,,,,,,,,,,,,,,,,,,,,,,,,,,,,,,,,,,,,,,,,,,,,,,,,,,,,,70.0,70.0,133.0,57.0,57.0,133.0,2.1,2.12,-160,-275,0,-285,191,285,490.3320047855377,490.332083940506,490.33507013320923,490.3464241027832,490.4829399585724,490.4829399585724,490.4829399585724,490.4829399585724,490.4829399585724,490.4829399585724,490.4829399585724,492.05304431915283,2,1.7002909183502197,None,,,,,,,,,,,,,,,,,,110,2,2025-02-25_11h58.33.689,comp,2024.2.4,55.17833650820379,2025-02-25 11h59.34.919928 -0500,
121,121,0,filler_square,None,None,None,None,None,None,None,None,None,None,3,1.6054754257202148,None,,,,,0,0,0,0,0,121,121,177,492.07276344299316,,,,,,,,,,,,,,,,,,,,,,,,,,,,,,,,,,,,,,,,,,,,,,,,,,,,,,,,,,,,,,,,,,,,,,,,,,,,,,,,,63.713065303780446,68.34065015713162,69.95733209528433,59.256034679324294,70.24631700168601,70.24631700168601,2.2,2.21,-160,-277,0,278,161,271,492.0549521446228,492.05507588386536,492.05820512771606,492.07276344299316,492.21763467788696,492.21763467788696,492.21763467788696,492.21763467788696,492.21763467788696,492.21763467788696,492.21763467788696,493.68362617492676,3,1.6054754257202148,None,,,,,,,,,,,,,,,,,,110,2,2025-02-25_11h58.33.689,comp,2024.2.4,55.17833650820379,2025-02-25 11h59.34.919928 -0500,
122,122,0,critical,wdh,20.0,2.1,upper,125.0,200.0,141.0,141.0,200.0,125.0,3,1.314216136932373,None,,,,,0,0,0,0,0,122,122,35,493.6997261047363,,,,,,,,,,,,,,,,,,,,,,,,,,,,,,,,,,,,,,,,,,,,,,,,,,,,,,,,,,,,,,,,,,,,,,,,,,,,,,,,,125.0,200.0,141.0,141.0,200.0,125.0,2.1,2.12,-266,-268,0,-266,229,251,493.685329914093,493.68544483184814,493.6890013217926,493.6997261047363,493.849303483963,493.849303483963,493.849303483963,493.849303483963,493.849303483963,493.849303483963,493.849303483963,495.03237223625183,3,1.314216136932373,None,,,,,,,,,,,,,,,,,,110,2,2025-02-25_11h58.33.689,comp,2024.2.4,55.17833650820379,2025-02-25 11h59.34.919928 -0500,
123,123,0,filler_random,None,None,None,None,None,None,None,None,None,None,1,1.2371151447296143,None,,,,,0,0,0,0,0,123,123,161,495.0488312244415,,,,,,,,,,,,,,,,,,,,,,,,,,,,,,,,,,,,,,,,,,,,,,,,,,,,,,,,,,,,,,,,,,,,,,,,,,,,,,,,,186.12616344973517,177.09823652887053,132.5124804840429,162.37896304895338,144.31599612705062,120.71233236459972,2.2,2.22,-266,259,0,-265,238,-274,495.03419756889343,495.0343177318573,495.037611246109,495.0488312244415,495.20544505119324,495.20544505119324,495.20544505119324,495.20544505119324,495.20544505119324,495.20544505119324,495.20544505119324,496.3044023513794,1,1.2371151447296143,None,,,,,,,,,,,,,,,,,,110,2,2025-02-25_11h58.33.689,comp,2024.2.4,55.17833650820379,2025-02-25 11h59.34.919928 -0500,
124,124,0,critical,wdh,20.0,4.0,upper,125.0,200.0,141.0,141.0,200.0,125.0,1,3.1226189136505127,None,,,,,0,0,0,0,0,124,124,83,496.3240592479706,,,,,,,,,,,,,,,,,,,,,,,,,,,,,,,,,,,,,,,,,,,,,,,,,,,,,,,,,,,,,,,,,,,,,,,,,,,,,,,,,125.0,200.0,141.0,141.0,200.0,125.0,4.0,4.2,-266,5,0,-259,229,-13,496.3059597015381,496.3060324192047,496.308798789978,496.3240592479706,496.46705627441406,496.46705627441406,496.46705627441406,496.46705627441406,496.46705627441406,496.46705627441406,496.46705627441406,499.45278763771057,1,3.1226189136505127,None,,,,,,,,,,,,,,,,,,110,2,2025-02-25_11h58.33.689,comp,2024.2.4,55.17833650820379,2025-02-25 11h59.34.919928 -0500,
125,125,0,critical,hdw,20.0,2.1,upper,200.0,125.0,141.0,141.0,125.0,200.0,1,2.233797550201416,None,,,,,0,0,0,0,0,125,125,47,499.4683084487915,,,,,,,,,,,,,,,,,,,,,,,,,,,,,,,,,,,,,,,,,,,,,,,,,,,,,,,,,,,,,,,,,,,,,,,,,,,,,,,,,200.0,125.0,141.0,141.0,125.0,200.0,2.1,2.12,-229,-269,0,-258,266,266,499.45442628860474,499.4545109272003,499.4576075077057,499.4683084487915,499.61885261535645,499.61885261535645,499.61885261535645,499.61885261535645,499.61885261535645,499.61885261535645,499.61885261535645,501.70575523376465,1,2.233797550201416,None,,,,,,,,,,,,,,,,,,110,2,2025-02-25_11h58.33.689,comp,2024.2.4,55.17833650820379,2025-02-25 11h59.34.919928 -0500,
126,126,0,filler_square,None,None,None,None,None,None,None,None,None,None,3,1.3120739459991455,None,,,,,0,0,0,0,0,126,126,201,501.7262303829193,,,,,,,,,,,,,,,,,,,,,,,,,,,,,,,,,,,,,,,,,,,,,,,,,,,,,,,,,,,,,,,,,,,,,,,,,,,,,,,,,84.03339038660252,84.81078100049524,122.71676146729308,106.97325577747797,125.2673740672512,125.2673740672512,4.0,4.1,-192,-256,0,18,212,-283,501.70776414871216,501.70784735679626,501.7106668949127,501.7262303829193,501.8756048679352,501.8756048679352,501.8756048679352,501.8756048679352,501.8756048679352,501.8756048679352,501.8756048679352,503.0414991378784,3,1.3120739459991455,None,,,,,,,,,,,,,,,,,,110,2,2025-02-25_11h58.33.689,comp,2024.2.4,55.17833650820379,2025-02-25 11h59.34.919928 -0500,
127,127,0,critical,hdw,20.0,4.0,upper,200.0,125.0,141.0,141.0,125.0,200.0,1,1.5886509418487549,None,,,,,0,0,0,0,0,127,127,119,503.05805015563965,,,,,,,,,,,,,,,,,,,,,,,,,,,,,,,,,,,,,,,,,,,,,,,,,,,,,,,,,,,,,,,,,,,,,,,,,,,,,,,,,200.0,125.0,141.0,141.0,125.0,200.0,4.0,4.2,-229,1,0,-289,266,18,503.04311752319336,503.04322242736816,503.04645705223083,503.05805015563965,503.20311880111694,503.20311880111694,503.20311880111694,503.20311880111694,503.20311880111694,503.20311880111694,503.20311880111694,504.65120458602905,1,1.5886509418487549,None,,,,,,,,,,,,,,,,,,110,2,2025-02-25_11h58.33.689,comp,2024.2.4,55.17833650820379,2025-02-25 11h59.34.919928 -0500,
128,128,0,critical,dwh,20.0,2.1,upper,141.0,141.0,125.0,200.0,200.0,125.0,3,2.7313339710235596,None,,,,,0,0,0,0,0,128,128,31,504.6673083305359,,,,,,,,,,,,,,,,,,,,,,,,,,,,,,,,,,,,,,,,,,,,,,,,,,,,,,,,,,,,,,,,,,,,,,,,,,,,,,,,,141.0,141.0,125.0,200.0,200.0,125.0,2.1,2.11,-266,282,0,250,258,-257,504.6527123451233,504.6527898311615,504.6557283401489,504.6673083305359,504.8196520805359,504.8196520805359,504.8196520805359,504.8196520805359,504.8196520805359,504.8196520805359,504.8196520805359,507.40371918678284,3,2.7313339710235596,None,,,,,,,,,,,,,,,,,,110,2,2025-02-25_11h58.33.689,comp,2024.2.4,55.17833650820379,2025-02-25 11h59.34.919928 -0500,
129,129,0,critical,dhw,35.0,4.0,upper,127.0,127.0,200.0,125.0,125.0,200.0,2,1.4816057682037354,None,,,,,0,0,0,0,0,129,129,53,507.42060947418213,,,,,,,,,,,,,,,,,,,,,,,,,,,,,,,,,,,,,,,,,,,,,,,,,,,,,,,,,,,,,,,,,,,,,,,,,,,,,,,,,127.0,127.0,200.0,125.0,125.0,200.0,4.0,4.2,-222,-3,0,-267,258,-20,507.40539145469666,507.40546584129333,507.4096064567566,507.42060947418213,507.5685200691223,507.5685200691223,507.5685200691223,507.5685200691223,507.5685200691223,507.5685200691223,507.5685200691223,508.9203324317932,2,1.4816057682037354,None,,,,,,,,,,,,,,,,,,110,2,2025-02-25_11h58.33.689,comp,2024.2.4,55.17833650820379,2025-02-25 11h59.34.919928 -0500,
130,130,0,critical,hwd,35.0,4.0,lower,133.0,57.0,57.0,133.0,70.0,70.0,1,2.0220470428466797,None,,,,,0,0,0,0,0,130,130,100,508.9361455440521,,,,,,,,,,,,,,,,,,,,,,,,,,,,,,,,,,,,,,,,,,,,,,,,,,,,,,,,,,,,,,,,,,,,,,,,,,,,,,,,,133.0,57.0,57.0,133.0,70.0,70.0,4.0,4.2,-191,1,0,-258,198,-7,508.9217743873596,508.9218499660492,508.92500948905945,508.9361455440521,509.09227538108826,509.09227538108826,509.09227538108826,509.09227538108826,509.09227538108826,509.09227538108826,509.09227538108826,510.9726564884186,1,2.0220470428466797,None,,,,,,,,,,,,,,,,,,110,2,2025-02-25_11h58.33.689,comp,2024.2.4,55.17833650820379,2025-02-25 11h59.34.919928 -0500,
131,131,0,critical,wdh,20.0,1.0,lower,57.0,133.0,78.0,78.0,133.0,57.0,1,2.211491584777832,None,,,,,0,0,0,0,0,131,131,78,510.9866864681244,,,,,,,,,,,,,,,,,,,,,,,,,,,,,,,,,,,,,,,,,,,,,,,,,,,,,,,,,,,,,,,,,,,,,,,,,,,,,,,,,57.0,133.0,78.0,78.0,133.0,57.0,1.0,1.3,278,-258,480,-274,644,-270,510.97410798072815,510.9742362499237,510.97732973098755,510.9866864681244,511.1262426376343,511.1262426376343,511.1262426376343,511.1262426376343,511.1262426376343,511.1262426376343,511.1262426376343,513.208527803421,1,2.211491584777832,None,,,,,,,,,,,,,,,,,,110,2,2025-02-25_11h58.33.689,comp,2024.2.4,55.17833650820379,2025-02-25 11h59.34.919928 -0500,
132,132,0,filler_random,None,None,None,None,None,None,None,None,None,None,2,2.1340272426605225,None,,,,,0,0,0,0,0,132,132,169,513.2250154018402,,,,,,,,,,,,,,,,,,,,,,,,,,,,,,,,,,,,,,,,,,,,,,,,,,,,,,,,,,,,,,,,,,,,,,,,,,,,,,,,,92.37693867539804,62.26051729215029,159.13303880419443,113.68726938403638,168.70149388107194,59.582122729717916,3.0,3.1,-184,261,0,-9,183,-273,513.2103655338287,513.21044754982,513.2142555713654,513.2250154018402,513.3717398643494,513.3717398643494,513.3717398643494,513.3717398643494,513.3717398643494,513.3717398643494,513.3717398643494,515.3650548458099,2,2.1340272426605225,None,,,,,,,,,,,,,,,,,,110,2,2025-02-25_11h58.33.689,comp,2024.2.4,55.17833650820379,2025-02-25 11h59.34.919928 -0500,
133,133,0,filler_square,None,None,None,None,None,None,None,None,None,None,3,1.3597674369812012,None,,,,,0,0,0,0,0,133,133,195,515.3832006454468,,,,,,,,,,,,,,,,,,,,,,,,,,,,,,,,,,,,,,,,,,,,,,,,,,,,,,,,,,,,,,,,,,,,,,,,,,,,,,,,,169.1203445140958,132.93539917028923,106.3021524563253,160.0222984831047,186.1636026869296,186.1636026869296,4.0,4.1,-242,-279,0,-11,269,-286,515.366851568222,515.3669288158417,515.3697624206543,515.3832006454468,515.5248985290527,515.5248985290527,515.5248985290527,515.5248985290527,515.5248985290527,515.5248985290527,515.5248985290527,516.7453455924988,3,1.3597674369812012,None,,,,,,,,,,,,,,,,,,110,2,2025-02-25_11h58.33.689,comp,2024.2.4,55.17833650820379,2025-02-25 11h59.34.919928 -0500,
134,134,0,critical,whd,35.0,2.1,upper,125.0,200.0,200.0,125.0,127.0,127.0,2,1.2618842124938965,None,,,,,0,0,0,0,0,134,134,13,516.7603242397308,,,,,,,,,,,,,,,,,,,,,,,,,,,,,,,,,,,,,,,,,,,,,,,,,,,,,,,,,,,,,,,,,,,,,,,,,,,,,,,,,125.0,200.0,200.0,125.0,127.0,127.0,2.1,2.11,-258,272,0,266,222,-253,516.7468128204346,516.7468876838684,516.7497591972351,516.7603242397308,516.9065444469452,516.9065444469452,516.9065444469452,516.9065444469452,516.9065444469452,516.9065444469452,516.9065444469452,518.0406723022461,2,1.2618842124938965,None,,,,,,,,,,,,,,,,,,110,2,2025-02-25_11h58.33.689,comp,2024.2.4,55.17833650820379,2025-02-25 11h59.34.919928 -0500,
135,135,0,filler_random,None,None,None,None,None,None,None,None,None,None,3,1.0328712463378906,None,,,,,0,0,0,0,0,135,135,136,518.0612099170685,,,,,,,,,,,,,,,,,,,,,,,,,,,,,,,,,,,,,,,,,,,,,,,,,,,,,,,,,,,,,,,,,,,,,,,,,,,,,,,,,66.65276011895881,124.21805567207501,90.97735074362205,101.69751420240394,121.61386958817658,144.78282179445202,4.0,4.2,-209,1,0,-263,219,4,518.042468547821,518.0425715446472,518.0457699298859,518.0612099170685,518.2067904472351,518.2067904472351,518.2067904472351,518.2067904472351,518.2067904472351,518.2067904472351,518.2067904472351,519.1112406253815,3,1.0328712463378906,None,,,,,,,,,,,,,,,,,,110,2,2025-02-25_11h58.33.689,comp,2024.2.4,55.17833650820379,2025-02-25 11h59.34.919928 -0500,
136,136,0,filler_random,None,None,None,None,None,None,None,None,None,None,1,1.2769453525543213,None,,,,,0,0,0,0,0,136,136,147,519.1292853355408,,,,,,,,,,,,,,,,,,,,,,,,,,,,,,,,,,,,,,,,,,,,,,,,,,,,,,,,,,,,,,,,,,,,,,,,,,,,,,,,,197.04684786489244,120.07268457043094,83.40517361882694,193.5658181543388,73.52160174653086,167.90261163152758,1.0,1.2,-253,-4,0,-3,277,-6,519.1132326126099,519.1133275032043,519.1166567802429,519.1292853355408,519.2749018669128,519.2749018669128,519.2749018669128,519.2749018669128,519.2749018669128,519.2749018669128,519.2749018669128,520.4100370407104,1,1.2769453525543213,None,,,,,,,,,,,,,,,,,,110,2,2025-02-25_11h58.33.689,comp,2024.2.4,55.17833650820379,2025-02-25 11h59.34.919928 -0500,
137,137,0,filler_square,None,None,None,None,None,None,None,None,None,None,2,1.6414518356323242,None,,,,,0,0,0,0,0,137,137,199,520.4288108348846,,,,,,,,,,,,,,,,,,,,,,,,,,,,,,,,,,,,,,,,,,,,,,,,,,,,,,,,,,,,,,,,,,,,,,,,,,,,,,,,,61.34053992406314,102.8614815690057,110.1502555426286,110.1502555426286,109.26398361941101,65.38970856226032,1.0,1.2,-203,-14,0,2,184,-18,520.4119668006897,520.4120509624481,520.4150042533875,520.4288108348846,520.5742192268372,520.5742192268372,520.5742192268372,520.5742192268372,520.5742192268372,520.5742192268372,520.5742192268372,522.0747826099396,2,1.6414518356323242,None,,,,,,,,,,,,,,,,,,110,2,2025-02-25_11h58.33.689,comp,2024.2.4,55.17833650820379,2025-02-25 11h59.34.919928 -0500,
138,138,0,filler_square,None,None,None,None,None,None,None,None,None,None,2,1.0035185813903809,None,,,,,0,0,0,0,0,138,138,206,522.0908155441284,,,,,,,,,,,,,,,,,,,,,,,,,,,,,,,,,,,,,,,,,,,,,,,,,,,,,,,,,,,,,,,,,,,,,,,,,,,,,,,,,75.48646973408178,67.0888657579841,103.41962752099357,103.41962752099357,62.82000468562873,60.95362536025589,3.0,3.2,-181,-287,0,13,178,262,522.0766541957855,522.0767350196838,522.0800266265869,522.0908155441284,522.2392101287842,522.2392101287842,522.2392101287842,522.2392101287842,522.2392101287842,522.2392101287842,522.2392101287842,523.0990571975708,2,1.0035185813903809,None,,,,,,,,,,,,,,,,,,110,2,2025-02-25_11h58.33.689,comp,2024.2.4,55.17833650820379,2025-02-25 11h59.34.919928 -0500,
139,139,0,critical,dhw,20.0,2.1,upper,141.0,141.0,200.0,125.0,125.0,200.0,2,3.2211034297943115,None,,,,,0,0,0,0,0,139,139,27,523.1142270565033,,,,,,,,,,,,,,,,,,,,,,,,,,,,,,,,,,,,,,,,,,,,,,,,,,,,,,,,,,,,,,,,,,,,,,,,,,,,,,,,,141.0,141.0,200.0,125.0,125.0,200.0,2.1,2.12,-229,-262,0,-280,258,270,523.1005911827087,523.1006681919098,523.103483915329,523.1142270565033,523.2567913532257,523.2567913532257,523.2567913532257,523.2567913532257,523.2567913532257,523.2567913532257,523.2567913532257,526.3438494205475,2,3.2211034297943115,None,,,,,,,,,,,,,,,,,,110,2,2025-02-25_11h58.33.689,comp,2024.2.4,55.17833650820379,2025-02-25 11h59.34.919928 -0500,
140,140,0,filler_random,None,None,None,None,None,None,None,None,None,None,1,1.4126777648925781,None,,,,,0,0,0,0,0,140,140,156,526.3620934486389,,,,,,,,,,,,,,,,,,,,,,,,,,,,,,,,,,,,,,,,,,,,,,,,,,,,,,,,,,,,,,,,,,,,,,,,,,,,,,,,,147.91648502000703,87.9359491886081,73.0092196446565,164.55016275092657,82.32057705905936,81.95217686195116,4.0,4.1,-222,-272,0,5,219,-264,526.3456704616547,526.3457520008087,526.3486125469208,526.3620934486389,526.508064031601,526.508064031601,526.508064031601,526.508064031601,526.508064031601,526.508064031601,526.508064031601,527.7810242176056,1,1.4126777648925781,None,,,,,,,,,,,,,,,,,,110,2,2025-02-25_11h58.33.689,comp,2024.2.4,55.17833650820379,2025-02-25 11h59.34.919928 -0500,
