thisN,thisTrialN,thisRepN,effect,order,distance,config,diag,h_1,w_1,h_2,w_2,h_3,w_3,rect_choice.keys,rect_choice.rt,rect_choice.duration,instructions_loop.thisRepN,instructions_loop.thisTrialN,instructions_loop.thisN,instructions_loop.thisIndex,blocks.thisRepN,blocks.thisTrialN,blocks.thisN,blocks.thisIndex,trials.thisRepN,trials.thisTrialN,trials.thisN,trials.thisIndex,thisRow.t,notes,consent.started,agree_button.started,decline_button.started,consent_img.started,mouse.started,consent.stopped,agree_button.numClicks,agree_button.timesOn,agree_button.timesOff,decline_button.numClicks,decline_button.timesOn,decline_button.timesOff,mouse.x,mouse.y,mouse.leftButton,mouse.midButton,mouse.rightButton,mouse.time,mouse.clicked_name,exp_params.started,exp_params.stopped,welcome.started,welcome_text.started,welcome.stopped,instructions_1.started,instructions_1_text_1.started,instructions_1_text_2.started,key_resp.started,instructions_1.stopped,instructions_loop.key_resp.keys,instructions_loop.key_resp.rt,instructions_loop.key_resp.duration,instructions_2.started,instructions_2_text_1.started,instructions_2_text_2.started,key_resp_2.started,instructions_2.stopped,instructions_loop.key_resp_2.keys,instructions_loop.key_resp_2.rt,instructions_loop.key_resp_2.duration,instructions_3.started,instructions_3_text_1.started,r1_instr3.started,r2_instr3.started,r3_instr3.started,r1_instr3_label.started,r2_instr3_label.started,r3_instr3_label.started,instructions_3_text_3.started,instructions_3_text_4.started,key_resp_3.started,instructions_3.stopped,instructions_loop.key_resp_3.keys,instructions_loop.key_resp_3.rt,instructions_loop.key_resp_3.duration,instructions_4.started,instructions_4_text_1.started,instructions_4_text_3.started,instructions_4_text_2.started,key_resp_4.started,instructions_4.stopped,instructions_loop.key_resp_4.keys,instructions_loop.key_resp_4.rt,instructions_loop.key_resp_4.duration,instructions_5.started,instructions_5_text_1.started,instructions_5_text_2.started,key_resp_5.started,instructions_5.stopped,instructions_loop.key_resp_5.keys,instructions_loop.key_resp_5.rt,instructions_loop.key_resp_5.duration,start_exp.started,start_exp_text.started,key_resp_6.started,start_exp.stopped,key_resp_6.keys,key_resp_6.rt,key_resp_6.duration,h_1_tmp,w_1_tmp,h_2_tmp,w_2_tmp,h_3_tmp,w_3_tmp,config_tmp,config_tmp_1,r_1_x,r_1_y,r_2_x,r_2_y,r_3_x,r_3_y,pre_trial.started,pre_trial.stopped,choice_trial.started,rect_choice.started,r_1.started,r_2.started,r_3.started,r_1_label.started,r_2_label.started,r_3_label.started,prompt.started,choice_trial.stopped,trials.rect_choice.keys,trials.rect_choice.rt,trials.rect_choice.duration,end_block.started,end_block_text.started,end_block.stopped,end.started,end_text.started,key_resp_7.started,end.stopped,key_resp_7.keys,key_resp_7.rt,key_resp_7.duration,debriefing.started,debrief_form.started,end_debrief.started,debriefing.stopped,end_debrief.keys,end_debrief.rt,end_debrief.duration,participant,computer,date,expName,psychopyVersion,frameRate,expStart,
,,,,,,,,,,,,,,,,,,,,,,,,,,,,,,,0.018634319305419922,0.04133963584899902,0.04133963584899902,0.04133963584899902,0.018430471420288086,50.479204416275024,1,[50.43559169769287],[50.4356210231781],0,,,[-89.0],[-502.0],[1],[0],[0],[50.46018409729004],['agree_button'],,,,,,,,,,,,,,,,,,,,,,,,,,,,,,,,,,,,,,,,,,,,,,,,,,,,,,,,,,,,,,,,,,,,,,,,,,,,,,,,,,,,,,,,,,,,,,,,,,,,,,,,,,,111,1,2025-02-25_12h58.14.288,comp,2024.2.4,57.23363521864967,2025-02-25 12h58.27.350298 -0500,
,,,,,,,,,,,,,,,,,,,,,,,,,,,,,,,,,,,,,,,,,,,,,,,,,,50.47976231575012,50.47982215881348,,,,,,,,,,,,,,,,,,,,,,,,,,,,,,,,,,,,,,,,,,,,,,,,,,,,,,,,,,,,,,,,,,,,,,,,,,,,,,,,,,,,,,,,,,,,,,,,,,,,,,,,,111,1,2025-02-25_12h58.14.288,comp,2024.2.4,57.23363521864967,2025-02-25 12h58.27.350298 -0500,
,,,,,,,,,,,,,,,,,,,,,,,,,,,,,,,,,,,,,,,,,,,,,,,,,,,,50.47986030578613,50.49272537231445,52.49026155471802,,,,,,,,,,,,,,,,,,,,,,,,,,,,,,,,,,,,,,,,,,,,,,,,,,,,,,,,,,,,,,,,,,,,,,,,,,,,,,,,,,,,,,,,,,,,,,,,,,,,,,111,1,2025-02-25_12h58.14.288,comp,2024.2.4,57.23363521864967,2025-02-25 12h58.27.350298 -0500,
0,0,0,,,,,,,,,,,,,,,0,0,0,0,,,,,,,,,52.50701570510864,,,,,,,,,,,,,,,,,,,,,,,,,,52.49113416671753,52.50701570510864,52.50701570510864,53.99130415916443,58.62615084648132,space,4.621191024780273,None,58.626296281814575,58.641587018966675,58.641587018966675,60.126734256744385,69.38082909584045,space,9.237775802612305,None,69.3809769153595,69.40891814231873,69.40891814231873,69.40891814231873,69.40891814231873,69.40891814231873,69.40891814231873,69.40891814231873,69.40891814231873,69.40891814231873,70.89716124534607,77.15287160873413,space,6.243370771408081,None,77.15303111076355,77.16877818107605,77.16877818107605,77.16877818107605,78.66579151153564,84.16908860206604,space,5.491598844528198,None,84.16923952102661,84.1895432472229,84.1895432472229,85.6836633682251,87.55260920524597,space,1.8574528694152832,None,87.5528028011322,87.56754612922668,87.56754612922668,88.73482608795166,space,1.165297031402588,None,,,,,,,,,,,,,,,,,,,,,,,,,,,,,,,,,,,,,,,,,,,,,,,111,1,2025-02-25_12h58.14.288,comp,2024.2.4,57.23363521864967,2025-02-25 12h58.27.350298 -0500,
0,0,0,critical,wdh,35.0,2.1,lower,57.0,133.0,70.0,70.0,133.0,57.0,1,10.674754619598389,None,,,,,0,0,0,0,0,0,0,32,88.81070876121521,,,,,,,,,,,,,,,,,,,,,,,,,,,,,,,,,,,,,,,,,,,,,,,,,,,,,,,,,,,,,,,,,,,,,,,,,,,,,,,,,57.0,133.0,70.0,70.0,133.0,57.0,2.1,2.11,-198,264,0,271,160,-260,88.7938482761383,88.79388165473938,88.79507637023926,88.81070876121521,88.95973491668701,88.95973491668701,88.95973491668701,88.95973491668701,88.95973491668701,88.95973491668701,88.95973491668701,99.48937773704529,1,10.674754619598389,None,,,,,,,,,,,,,,,,,,111,1,2025-02-25_12h58.14.288,comp,2024.2.4,57.23363521864967,2025-02-25 12h58.27.350298 -0500,
1,1,0,critical,dwh,20.0,4.0,upper,141.0,141.0,125.0,200.0,200.0,125.0,2,4.003268480300903,None,,,,,0,0,0,0,0,1,1,71,99.50566816329956,,,,,,,,,,,,,,,,,,,,,,,,,,,,,,,,,,,,,,,,,,,,,,,,,,,,,,,,,,,,,,,,,,,,,,,,,,,,,,,,,141.0,141.0,125.0,200.0,200.0,125.0,4.0,4.1,-266,-252,0,-9,258,-268,99.4908356666565,99.49090266227722,99.49405312538147,99.50566816329956,99.65599298477173,99.65599298477173,99.65599298477173,99.65599298477173,99.65599298477173,99.65599298477173,99.65599298477173,103.52631044387817,2,4.003268480300903,None,,,,,,,,,,,,,,,,,,111,1,2025-02-25_12h58.14.288,comp,2024.2.4,57.23363521864967,2025-02-25 12h58.27.350298 -0500,
2,2,0,filler_square,None,None,None,None,None,None,None,None,None,None,1,2.1916494369506836,None,,,,,0,0,0,0,0,2,2,206,103.54277539253235,,,,,,,,,,,,,,,,,,,,,,,,,,,,,,,,,,,,,,,,,,,,,,,,,,,,,,,,,,,,,,,,,,,,,,,,,,,,,,,,,199.85498259776566,199.85498259776566,144.02865069807393,159.74067322372886,76.66199173821757,100.50365145999868,2.2,2.21,-276,-272,0,273,226,272,103.52867484092712,103.52878618240356,103.53167700767517,103.54277539253235,103.69107723236084,103.69107723236084,103.69107723236084,103.69107723236084,103.69107723236084,103.69107723236084,103.69107723236084,105.74062275886536,1,2.1916494369506836,None,,,,,,,,,,,,,,,,,,111,1,2025-02-25_12h58.14.288,comp,2024.2.4,57.23363521864967,2025-02-25 12h58.27.350298 -0500,
3,3,0,critical,whd,20.0,1.0,lower,57.0,133.0,133.0,57.0,78.0,78.0,1,3.5434975624084473,None,,,,,0,0,0,0,0,3,3,90,105.75705528259277,,,,,,,,,,,,,,,,,,,,,,,,,,,,,,,,,,,,,,,,,,,,,,,,,,,,,,,,,,,,,,,,,,,,,,,,,,,,,,,,,57.0,133.0,133.0,57.0,78.0,78.0,1.0,1.3,289,-289,480,-280,644,-281,105.74213886260986,105.74221563339233,105.74542808532715,105.75705528259277,105.90798306465149,105.90798306465149,105.90798306465149,105.90798306465149,105.90798306465149,105.90798306465149,105.90798306465149,109.31387329101562,1,3.5434975624084473,None,,,,,,,,,,,,,,,,,,111,1,2025-02-25_12h58.14.288,comp,2024.2.4,57.23363521864967,2025-02-25 12h58.27.350298 -0500,
4,4,0,critical,dhw,35.0,4.0,upper,127.0,127.0,200.0,125.0,125.0,200.0,3,2.955916404724121,None,,,,,0,0,0,0,0,4,4,53,109.3287205696106,,,,,,,,,,,,,,,,,,,,,,,,,,,,,,,,,,,,,,,,,,,,,,,,,,,,,,,,,,,,,,,,,,,,,,,,,,,,,,,,,127.0,127.0,200.0,125.0,125.0,200.0,4.0,4.1,-222,-273,0,-4,258,-283,109.31532382965088,109.31541967391968,109.31820774078369,109.3287205696106,109.4758403301239,109.4758403301239,109.4758403301239,109.4758403301239,109.4758403301239,109.4758403301239,109.4758403301239,112.29807305335999,3,2.955916404724121,None,,,,,,,,,,,,,,,,,,111,1,2025-02-25_12h58.14.288,comp,2024.2.4,57.23363521864967,2025-02-25 12h58.27.350298 -0500,
5,5,0,critical,hwd,35.0,3.0,lower,133.0,57.0,57.0,133.0,70.0,70.0,1,3.071958065032959,None,,,,,0,0,0,0,0,5,5,98,112.31661105155945,,,,,,,,,,,,,,,,,,,,,,,,,,,,,,,,,,,,,,,,,,,,,,,,,,,,,,,,,,,,,,,,,,,,,,,,,,,,,,,,,133.0,57.0,57.0,133.0,70.0,70.0,3.0,3.2,-191,-278,0,-2,198,254,112.29961776733398,112.29969143867493,112.30259132385254,112.31661105155945,112.46042132377625,112.46042132377625,112.46042132377625,112.46042132377625,112.46042132377625,112.46042132377625,112.46042132377625,115.40128421783447,1,3.071958065032959,None,,,,,,,,,,,,,,,,,,111,1,2025-02-25_12h58.14.288,comp,2024.2.4,57.23363521864967,2025-02-25 12h58.27.350298 -0500,
6,6,0,filler_random,None,None,None,None,None,None,None,None,None,None,3,3.0278971195220947,None,,,,,0,0,0,0,0,6,6,161,115.41671681404114,,,,,,,,,,,,,,,,,,,,,,,,,,,,,,,,,,,,,,,,,,,,,,,,,,,,,,,,,,,,,,,,,,,,,,,,,,,,,,,,,75.4257050058373,113.67771004611106,129.84020739177123,73.18838006965996,166.4728720383166,67.87034025914154,2.2,2.21,-189,-278,0,259,167,283,115.40299868583679,115.40307283401489,115.4059329032898,115.41671681404114,115.56040787696838,115.56040787696838,115.56040787696838,115.56040787696838,115.56040787696838,115.56040787696838,115.56040787696838,118.44676446914673,3,3.0278971195220947,None,,,,,,,,,,,,,,,,,,111,1,2025-02-25_12h58.14.288,comp,2024.2.4,57.23363521864967,2025-02-25 12h58.27.350298 -0500,
7,7,0,critical,hwd,35.0,4.0,upper,200.0,125.0,125.0,200.0,127.0,127.0,2,2.4216439723968506,None,,,,,0,0,0,0,0,7,7,101,118.46287059783936,,,,,,,,,,,,,,,,,,,,,,,,,,,,,,,,,,,,,,,,,,,,,,,,,,,,,,,,,,,,,,,,,,,,,,,,,,,,,,,,,200.0,125.0,125.0,200.0,127.0,127.0,4.0,4.1,-258,-273,0,-12,260,-286,118.44845485687256,118.4485731124878,118.45199155807495,118.46287059783936,118.61413407325745,118.61413407325745,118.61413407325745,118.61413407325745,118.61413407325745,118.61413407325745,118.61413407325745,120.89974856376648,2,2.4216439723968506,None,,,,,,,,,,,,,,,,,,111,1,2025-02-25_12h58.14.288,comp,2024.2.4,57.23363521864967,2025-02-25 12h58.27.350298 -0500,
8,8,0,filler_random,None,None,None,None,None,None,None,None,None,None,3,1.6278903484344482,None,,,,,0,0,0,0,0,8,8,167,120.92078638076782,,,,,,,,,,,,,,,,,,,,,,,,,,,,,,,,,,,,,,,,,,,,,,,,,,,,,,,,,,,,,,,,,,,,,,,,,,,,,,,,,115.45373944327054,96.28508306909612,75.68669104387521,139.72000875652708,131.44287175795034,99.08484619699607,2.2,2.21,-214,-267,0,288,215,283,120.90155291557312,120.901682138443,120.90494847297668,120.92078638076782,121.06265711784363,121.06265711784363,121.06265711784363,121.06265711784363,121.06265711784363,121.06265711784363,121.06265711784363,122.55518388748169,3,1.6278903484344482,None,,,,,,,,,,,,,,,,,,111,1,2025-02-25_12h58.14.288,comp,2024.2.4,57.23363521864967,2025-02-25 12h58.27.350298 -0500,
9,9,0,filler_square,None,None,None,None,None,None,None,None,None,None,3,1.2923600673675537,None,,,,,0,0,0,0,0,9,9,209,122.57616543769836,,,,,,,,,,,,,,,,,,,,,,,,,,,,,,,,,,,,,,,,,,,,,,,,,,,,,,,,,,,,,,,,,,,,,,,,,,,,,,,,,152.40794295036392,107.02719231638812,119.68718936653696,117.94772298738414,165.62349621088723,165.62349621088723,2.2,2.21,-208,-279,0,259,238,282,122.55713558197021,122.55721426010132,122.56033396720886,122.57616543769836,122.71445918083191,122.71445918083191,122.71445918083191,122.71445918083191,122.71445918083191,122.71445918083191,122.71445918083191,123.87879967689514,3,1.2923600673675537,None,,,,,,,,,,,,,,,,,,111,1,2025-02-25_12h58.14.288,comp,2024.2.4,57.23363521864967,2025-02-25 12h58.27.350298 -0500,
10,10,0,filler_random,None,None,None,None,None,None,None,None,None,None,2,1.2686729431152344,None,,,,,0,0,0,0,0,10,10,165,123.89587092399597,,,,,,,,,,,,,,,,,,,,,,,,,,,,,,,,,,,,,,,,,,,,,,,,,,,,,,,,,,,,,,,,,,,,,,,,,,,,,,,,,77.00537963782989,58.932239749755354,107.79471362676692,115.3266703480341,70.18131262023785,137.38670640174652,3.0,3.2,-183,-265,0,-8,222,282,123.88053178787231,123.8806254863739,123.88402128219604,123.89587092399597,124.04350852966309,124.04350852966309,124.04350852966309,124.04350852966309,124.04350852966309,124.04350852966309,124.04350852966309,125.18100237846375,2,1.2686729431152344,None,,,,,,,,,,,,,,,,,,111,1,2025-02-25_12h58.14.288,comp,2024.2.4,57.23363521864967,2025-02-25 12h58.27.350298 -0500,
11,11,0,filler_square,None,None,None,None,None,None,None,None,None,None,1,1.8631670475006104,None,,,,,0,0,0,0,0,11,11,207,125.19754004478455,,,,,,,,,,,,,,,,,,,,,,,,,,,,,,,,,,,,,,,,,,,,,,,,,,,,,,,,,,,,,,,,,,,,,,,,,,,,,,,,,103.13928304641173,103.13928304641173,61.05512857271964,99.0206983326402,84.69779837474721,62.26718733201828,3.0,3.1,-197,253,0,7,177,-271,125.18278121948242,125.18285465240479,125.18683934211731,125.19754004478455,125.34858441352844,125.34858441352844,125.34858441352844,125.34858441352844,125.34858441352844,125.34858441352844,125.34858441352844,127.06578350067139,1,1.8631670475006104,None,,,,,,,,,,,,,,,,,,111,1,2025-02-25_12h58.14.288,comp,2024.2.4,57.23363521864967,2025-02-25 12h58.27.350298 -0500,
12,12,0,filler_random,None,None,None,None,None,None,None,None,None,None,2,1.3870937824249268,None,,,,,0,0,0,0,0,12,12,148,127.08162951469421,,,,,,,,,,,,,,,,,,,,,,,,,,,,,,,,,,,,,,,,,,,,,,,,,,,,,,,,,,,,,,,,,,,,,,,,,,,,,,,,,76.6240875363239,173.21451897816155,114.52317848229711,126.90903353857694,92.65979013757725,124.46412778040786,2.2,2.21,-246,-285,0,262,222,252,127.0675721168518,127.06764936447144,127.07089877128601,127.08162951469421,127.22830367088318,127.22830367088318,127.22830367088318,127.22830367088318,127.22830367088318,127.22830367088318,127.22830367088318,128.47285056114197,2,1.3870937824249268,None,,,,,,,,,,,,,,,,,,111,1,2025-02-25_12h58.14.288,comp,2024.2.4,57.23363521864967,2025-02-25 12h58.27.350298 -0500,
13,13,0,filler_square,None,None,None,None,None,None,None,None,None,None,3,1.0987279415130615,None,,,,,0,0,0,0,0,13,13,185,128.49064469337463,,,,,,,,,,,,,,,,,,,,,,,,,,,,,,,,,,,,,,,,,,,,,,,,,,,,,,,,,,,,,,,,,,,,,,,,,,,,,,,,,94.47832146234919,80.0281463925441,112.13730339811254,90.99180552684967,118.1982597963176,118.1982597963176,1.0,1.1,-662,259,-480,254,-279,284,128.47465252876282,128.4747278690338,128.4775595664978,128.49064469337463,128.63231563568115,128.63231563568115,128.63231563568115,128.63231563568115,128.63231563568115,128.63231563568115,128.63231563568115,129.59618830680847,3,1.0987279415130615,None,,,,,,,,,,,,,,,,,,111,1,2025-02-25_12h58.14.288,comp,2024.2.4,57.23363521864967,2025-02-25 12h58.27.350298 -0500,
14,14,0,critical,dhw,20.0,2.1,lower,78.0,78.0,133.0,57.0,57.0,133.0,3,2.0800557136535645,None,,,,,0,0,0,0,0,14,14,2,129.61346769332886,,,,,,,,,,,,,,,,,,,,,,,,,,,,,,,,,,,,,,,,,,,,,,,,,,,,,,,,,,,,,,,,,,,,,,,,,,,,,,,,,78.0,78.0,133.0,57.0,57.0,133.0,2.1,2.12,-164,-265,0,-264,191,271,129.59777212142944,129.59784650802612,129.60068154335022,129.61346769332886,129.7489619255066,129.7489619255066,129.7489619255066,129.7489619255066,129.7489619255066,129.7489619255066,129.7489619255066,131.6998565196991,3,2.0800557136535645,None,,,,,,,,,,,,,,,,,,111,1,2025-02-25_12h58.14.288,comp,2024.2.4,57.23363521864967,2025-02-25 12h58.27.350298 -0500,
15,15,0,critical,dwh,35.0,2.1,upper,127.0,127.0,125.0,200.0,200.0,125.0,2,1.9284148216247559,None,,,,,0,0,0,0,0,15,15,29,131.71650886535645,,,,,,,,,,,,,,,,,,,,,,,,,,,,,,,,,,,,,,,,,,,,,,,,,,,,,,,,,,,,,,,,,,,,,,,,,,,,,,,,,127.0,127.0,125.0,200.0,200.0,125.0,2.1,2.12,-260,-279,0,-253,258,269,131.7013394832611,131.70143866539001,131.7053942680359,131.71650886535645,131.86484742164612,131.86484742164612,131.86484742164612,131.86484742164612,131.86484742164612,131.86484742164612,131.86484742164612,133.65129852294922,2,1.9284148216247559,None,,,,,,,,,,,,,,,,,,111,1,2025-02-25_12h58.14.288,comp,2024.2.4,57.23363521864967,2025-02-25 12h58.27.350298 -0500,
16,16,0,critical,dhw,35.0,4.0,lower,70.0,70.0,133.0,57.0,57.0,133.0,2,2.6497535705566406,None,,,,,0,0,0,0,0,16,16,52,133.667307138443,,,,,,,,,,,,,,,,,,,,,,,,,,,,,,,,,,,,,,,,,,,,,,,,,,,,,,,,,,,,,,,,,,,,,,,,,,,,,,,,,70.0,70.0,133.0,57.0,57.0,133.0,4.0,4.2,-160,-3,0,-265,191,3,133.6529552936554,133.6530680656433,133.6564917564392,133.667307138443,133.8154275417328,133.8154275417328,133.8154275417328,133.8154275417328,133.8154275417328,133.8154275417328,133.8154275417328,136.32311844825745,2,2.6497535705566406,None,,,,,,,,,,,,,,,,,,111,1,2025-02-25_12h58.14.288,comp,2024.2.4,57.23363521864967,2025-02-25 12h58.27.350298 -0500,
17,17,0,filler_random,None,None,None,None,None,None,None,None,None,None,3,1.9704532623291016,None,,,,,0,0,0,0,0,17,17,143,136.33918714523315,,,,,,,,,,,,,,,,,,,,,,,,,,,,,,,,,,,,,,,,,,,,,,,,,,,,,,,,,,,,,,,,,,,,,,,,,,,,,,,,,122.59381536333132,173.4398160804824,115.54827926817026,178.16601870077676,157.31289585489412,168.00163132277584,2.2,2.22,-272,277,0,-283,269,-259,136.32483625411987,136.32491087913513,136.3277518749237,136.33918714523315,136.484778881073,136.484778881073,136.484778881073,136.484778881073,136.484778881073,136.484778881073,136.484778881073,138.31747913360596,3,1.9704532623291016,None,,,,,,,,,,,,,,,,,,111,1,2025-02-25_12h58.14.288,comp,2024.2.4,57.23363521864967,2025-02-25 12h58.27.350298 -0500,
18,18,0,filler_random,None,None,None,None,None,None,None,None,None,None,2,2.910688638687134,None,,,,,0,0,0,0,0,18,18,153,138.33387970924377,,,,,,,,,,,,,,,,,,,,,,,,,,,,,,,,,,,,,,,,,,,,,,,,,,,,,,,,,,,,,,,,,,,,,,,,,,,,,,,,,96.0207253600611,69.6053727617869,85.39355546701333,173.25130878871408,114.53841586779919,118.14768727756385,2.1,2.11,-217,283,0,271,242,-268,138.31915807724,138.3192331790924,138.3223798274994,138.33387970924377,138.48659586906433,138.48659586906433,138.48659586906433,138.48659586906433,138.48659586906433,138.48659586906433,138.48659586906433,141.25748324394226,2,2.910688638687134,None,,,,,,,,,,,,,,,,,,111,1,2025-02-25_12h58.14.288,comp,2024.2.4,57.23363521864967,2025-02-25 12h58.27.350298 -0500,
19,19,0,filler_square,None,None,None,None,None,None,None,None,None,None,2,3.718158721923828,None,,,,,0,0,0,0,0,19,19,192,141.27846360206604,,,,,,,,,,,,,,,,,,,,,,,,,,,,,,,,,,,,,,,,,,,,,,,,,,,,,,,,,,,,,,,,,,,,,,,,,,,,,,,,,59.796874547622885,62.62598288890843,65.03623720116032,65.03623720116032,57.369450695360335,60.42791796389557,2.2,2.21,-160,-283,0,282,159,258,141.25933146476746,141.25945115089417,141.26267862319946,141.27846360206604,141.41966342926025,141.41966342926025,141.41966342926025,141.41966342926025,141.41966342926025,141.41966342926025,141.41966342926025,145.00999355316162,2,3.718158721923828,None,,,,,,,,,,,,,,,,,,111,1,2025-02-25_12h58.14.288,comp,2024.2.4,57.23363521864967,2025-02-25 12h58.27.350298 -0500,
20,20,0,filler_square,None,None,None,None,None,None,None,None,None,None,2,2.774365186691284,None,,,,,0,0,0,0,0,20,20,190,145.03040099143982,,,,,,,,,,,,,,,,,,,,,,,,,,,,,,,,,,,,,,,,,,,,,,,,,,,,,,,,,,,,,,,,,,,,,,,,,,,,,,,,,73.92118998721774,173.23619597649792,192.9013308440399,192.9013308440399,162.44963476350253,188.73418633340663,4.0,4.1,-279,-264,0,-4,287,-286,145.0117630958557,145.0118372440338,145.01467776298523,145.03040099143982,145.1705493927002,145.1705493927002,145.1705493927002,145.1705493927002,145.1705493927002,145.1705493927002,145.1705493927002,147.82227039337158,2,2.774365186691284,None,,,,,,,,,,,,,,,,,,111,1,2025-02-25_12h58.14.288,comp,2024.2.4,57.23363521864967,2025-02-25 12h58.27.350298 -0500,
21,21,0,filler_square,None,None,None,None,None,None,None,None,None,None,1,1.6849355697631836,None,,,,,0,0,0,0,0,21,21,181,147.8407371044159,,,,,,,,,,,,,,,,,,,,,,,,,,,,,,,,,,,,,,,,,,,,,,,,,,,,,,,,,,,,,,,,,,,,,,,,,,,,,,,,,78.63271713936119,78.63271713936119,60.44953672941968,75.98045478688488,62.98543713716303,74.92229939564794,1.0,1.2,-173,-9,0,-17,171,-10,147.82396841049194,147.82404255867004,147.82709455490112,147.8407371044159,147.9889154434204,147.9889154434204,147.9889154434204,147.9889154434204,147.9889154434204,147.9889154434204,147.9889154434204,149.5279757976532,1,1.6849355697631836,None,,,,,,,,,,,,,,,,,,111,1,2025-02-25_12h58.14.288,comp,2024.2.4,57.23363521864967,2025-02-25 12h58.27.350298 -0500,
22,22,0,critical,whd,35.0,2.1,lower,57.0,133.0,133.0,57.0,70.0,70.0,1,2.0300188064575195,None,,,,,0,0,0,0,0,22,22,36,149.54312920570374,,,,,,,,,,,,,,,,,,,,,,,,,,,,,,,,,,,,,,,,,,,,,,,,,,,,,,,,,,,,,,,,,,,,,,,,,,,,,,,,,57.0,133.0,133.0,57.0,70.0,70.0,2.1,2.11,-191,265,0,271,160,-259,149.52964782714844,149.52973985671997,149.53304886817932,149.54312920570374,149.6890881061554,149.6890881061554,149.6890881061554,149.6890881061554,149.6890881061554,149.6890881061554,149.6890881061554,151.58893084526062,1,2.0300188064575195,None,,,,,,,,,,,,,,,,,,111,1,2025-02-25_12h58.14.288,comp,2024.2.4,57.23363521864967,2025-02-25 12h58.27.350298 -0500,
23,23,0,critical,hdw,35.0,3.0,upper,200.0,125.0,127.0,127.0,125.0,200.0,3,2.0003137588500977,None,,,,,0,0,0,0,0,23,23,111,151.6044580936432,,,,,,,,,,,,,,,,,,,,,,,,,,,,,,,,,,,,,,,,,,,,,,,,,,,,,,,,,,,,,,,,,,,,,,,,,,,,,,,,,200.0,125.0,127.0,127.0,125.0,200.0,3.0,3.1,-222,258,0,3,260,-261,151.59052753448486,151.59064078330994,151.59412240982056,151.6044580936432,151.7565360069275,151.7565360069275,151.7565360069275,151.7565360069275,151.7565360069275,151.7565360069275,151.7565360069275,153.60700106620789,3,2.0003137588500977,None,,,,,,,,,,,,,,,,,,111,1,2025-02-25_12h58.14.288,comp,2024.2.4,57.23363521864967,2025-02-25 12h58.27.350298 -0500,
24,24,0,filler_square,None,None,None,None,None,None,None,None,None,None,1,1.6207358837127686,None,,,,,0,0,0,0,0,24,24,177,153.62461757659912,,,,,,,,,,,,,,,,,,,,,,,,,,,,,,,,,,,,,,,,,,,,,,,,,,,,,,,,,,,,,,,,,,,,,,,,,,,,,,,,,120.07844022126662,120.07844022126662,101.96937270075225,62.058669570750915,84.6773492999478,104.76892027743418,2.2,2.21,-187,-262,0,263,179,268,153.6088161468506,153.6088900566101,153.61192846298218,153.62461757659912,153.77846145629883,153.77846145629883,153.77846145629883,153.77846145629883,153.77846145629883,153.77846145629883,153.77846145629883,155.25704836845398,1,1.6207358837127686,None,,,,,,,,,,,,,,,,,,111,1,2025-02-25_12h58.14.288,comp,2024.2.4,57.23363521864967,2025-02-25 12h58.27.350298 -0500,
25,25,0,critical,whd,20.0,2.1,upper,125.0,200.0,200.0,125.0,141.0,141.0,1,3.09234881401062,None,,,,,0,0,0,0,0,25,25,15,155.27300882339478,,,,,,,,,,,,,,,,,,,,,,,,,,,,,,,,,,,,,,,,,,,,,,,,,,,,,,,,,,,,,,,,,,,,,,,,,,,,,,,,,125.0,200.0,200.0,125.0,141.0,141.0,2.1,2.11,-258,265,0,279,229,-265,155.25868368148804,155.2587592601776,155.26213765144348,155.27300882339478,155.42516684532166,155.42516684532166,155.42516684532166,155.42516684532166,155.42516684532166,155.42516684532166,155.42516684532166,158.37480330467224,1,3.09234881401062,None,,,,,,,,,,,,,,,,,,111,1,2025-02-25_12h58.14.288,comp,2024.2.4,57.23363521864967,2025-02-25 12h58.27.350298 -0500,
26,26,0,filler_random,None,None,None,None,None,None,None,None,None,None,1,1.292543888092041,None,,,,,0,0,0,0,0,26,26,159,158.3926122188568,,,,,,,,,,,,,,,,,,,,,,,,,,,,,,,,,,,,,,,,,,,,,,,,,,,,,,,,,,,,,,,,,,,,,,,,,,,,,,,,,129.140521244982,179.83452129291766,62.98484451345885,173.303160808104,113.8019533759763,187.2302256307796,2.1,2.12,-273,-287,0,-264,276,269,158.37649869918823,158.37657356262207,158.37957739830017,158.3926122188568,158.54270243644714,158.54270243644714,158.54270243644714,158.54270243644714,158.54270243644714,158.54270243644714,158.54270243644714,159.6924021244049,1,1.292543888092041,None,,,,,,,,,,,,,,,,,,111,1,2025-02-25_12h58.14.288,comp,2024.2.4,57.23363521864967,2025-02-25 12h58.27.350298 -0500,
27,27,0,filler_square,None,None,None,None,None,None,None,None,None,None,3,1.8108718395233154,None,,,,,0,0,0,0,0,27,27,201,159.70681595802307,,,,,,,,,,,,,,,,,,,,,,,,,,,,,,,,,,,,,,,,,,,,,,,,,,,,,,,,,,,,,,,,,,,,,,,,,,,,,,,,,71.41064923883985,59.66971721693791,72.85310431273967,79.8494530983031,84.22203903230132,84.22203903230132,2.2,2.22,-166,254,0,-281,178,-280,159.69412899017334,159.69420552253723,159.69731187820435,159.70681595802307,159.8572359085083,159.8572359085083,159.8572359085083,159.8572359085083,159.8572359085083,159.8572359085083,159.8572359085083,161.5267481803894,3,1.8108718395233154,None,,,,,,,,,,,,,,,,,,111,1,2025-02-25_12h58.14.288,comp,2024.2.4,57.23363521864967,2025-02-25 12h58.27.350298 -0500,
28,28,0,filler_square,None,None,None,None,None,None,None,None,None,None,2,0.9960548877716064,None,,,,,0,0,0,0,0,28,28,199,161.54477429389954,,,,,,,,,,,,,,,,,,,,,,,,,,,,,,,,,,,,,,,,,,,,,,,,,,,,,,,,,,,,,,,,,,,,,,,,,,,,,,,,,111.35807361317134,58.18768381529354,143.5429332212328,143.5429332212328,126.73054823942229,76.40384097339837,4.0,4.1,-197,-276,0,7,206,-276,161.52851247787476,161.52863836288452,161.5316174030304,161.54477429389954,161.6929702758789,161.6929702758789,161.6929702758789,161.6929702758789,161.6929702758789,161.6929702758789,161.6929702758789,162.54276180267334,2,0.9960548877716064,None,,,,,,,,,,,,,,,,,,111,1,2025-02-25_12h58.14.288,comp,2024.2.4,57.23363521864967,2025-02-25 12h58.27.350298 -0500,
29,29,0,critical,dwh,35.0,3.0,lower,70.0,70.0,57.0,133.0,133.0,57.0,2,1.9017977714538574,None,,,,,0,0,0,0,0,29,29,62,162.55894684791565,,,,,,,,,,,,,,,,,,,,,,,,,,,,,,,,,,,,,,,,,,,,,,,,,,,,,,,,,,,,,,,,,,,,,,,,,,,,,,,,,70.0,70.0,57.0,133.0,133.0,57.0,3.0,3.2,-198,-280,0,18,191,279,162.54430222511292,162.54441118240356,162.54833316802979,162.55894684791565,162.70867776870728,162.70867776870728,162.70867776870728,162.70867776870728,162.70867776870728,162.70867776870728,162.70867776870728,164.4765112400055,2,1.9017977714538574,None,,,,,,,,,,,,,,,,,,111,1,2025-02-25_12h58.14.288,comp,2024.2.4,57.23363521864967,2025-02-25 12h58.27.350298 -0500,
30,30,0,filler_square,None,None,None,None,None,None,None,None,None,None,1,1.1131653785705566,None,,,,,0,0,0,0,0,30,30,200,164.49200630187988,,,,,,,,,,,,,,,,,,,,,,,,,,,,,,,,,,,,,,,,,,,,,,,,,,,,,,,,,,,,,,,,,,,,,,,,,,,,,,,,,107.72497154218047,107.72497154218047,66.01964031776605,87.66328584689055,66.00051186820079,104.28415134515913,1.0,1.2,-194,-10,0,14,192,-17,164.47832465171814,164.4784288406372,164.48176741600037,164.49200630187988,164.64338493347168,164.64338493347168,164.64338493347168,164.64338493347168,164.64338493347168,164.64338493347168,164.64338493347168,165.61069989204407,1,1.1131653785705566,None,,,,,,,,,,,,,,,,,,111,1,2025-02-25_12h58.14.288,comp,2024.2.4,57.23363521864967,2025-02-25 12h58.27.350298 -0500,
31,31,0,critical,wdh,35.0,2.1,lower,57.0,133.0,70.0,70.0,133.0,57.0,1,2.410789966583252,None,,,,,0,0,0,0,0,31,31,8,165.6264510154724,,,,,,,,,,,,,,,,,,,,,,,,,,,,,,,,,,,,,,,,,,,,,,,,,,,,,,,,,,,,,,,,,,,,,,,,,,,,,,,,,57.0,133.0,70.0,70.0,133.0,57.0,2.1,2.11,-198,259,0,259,160,-257,165.61222219467163,165.6122989654541,165.61571335792542,165.6264510154724,165.7795181274414,165.7795181274414,165.7795181274414,165.7795181274414,165.7795181274414,165.7795181274414,165.7795181274414,168.04520559310913,1,2.410789966583252,None,,,,,,,,,,,,,,,,,,111,1,2025-02-25_12h58.14.288,comp,2024.2.4,57.23363521864967,2025-02-25 12h58.27.350298 -0500,
32,32,0,critical,hdw,35.0,4.0,lower,133.0,57.0,70.0,70.0,57.0,133.0,1,1.9673631191253662,None,,,,,0,0,0,0,0,32,32,112,168.06152534484863,,,,,,,,,,,,,,,,,,,,,,,,,,,,,,,,,,,,,,,,,,,,,,,,,,,,,,,,,,,,,,,,,,,,,,,,,,,,,,,,,133.0,57.0,70.0,70.0,57.0,133.0,4.0,4.1,-160,-270,0,18,198,-270,168.04669785499573,168.04677391052246,168.05077409744263,168.06152534484863,168.21033120155334,168.21033120155334,168.21033120155334,168.21033120155334,168.21033120155334,168.21033120155334,168.21033120155334,170.0447497367859,1,1.9673631191253662,None,,,,,,,,,,,,,,,,,,111,1,2025-02-25_12h58.14.288,comp,2024.2.4,57.23363521864967,2025-02-25 12h58.27.350298 -0500,
33,33,0,filler_random,None,None,None,None,None,None,None,None,None,None,3,1.6883831024169922,None,,,,,0,0,0,0,0,33,33,168,170.06061124801636,,,,,,,,,,,,,,,,,,,,,,,,,,,,,,,,,,,,,,,,,,,,,,,,,,,,,,,,,,,,,,,,,,,,,,,,,,,,,,,,,129.52081315181113,147.82965231050565,155.9118372057182,112.57564513706814,122.01987841564947,172.90561461386176,2.2,2.22,-226,265,0,-277,239,-267,170.04672002792358,170.0468111038208,170.05027151107788,170.06061124801636,170.22175455093384,170.22175455093384,170.22175455093384,170.22175455093384,170.22175455093384,170.22175455093384,170.22175455093384,171.7519953250885,3,1.6883831024169922,None,,,,,,,,,,,,,,,,,,111,1,2025-02-25_12h58.14.288,comp,2024.2.4,57.23363521864967,2025-02-25 12h58.27.350298 -0500,
34,34,0,critical,dwh,20.0,1.0,upper,141.0,141.0,125.0,200.0,200.0,125.0,2,4.042464256286621,None,,,,,0,0,0,0,0,34,34,67,171.77065920829773,,,,,,,,,,,,,,,,,,,,,,,,,,,,,,,,,,,,,,,,,,,,,,,,,,,,,,,,,,,,,,,,,,,,,,,,,,,,,,,,,141.0,141.0,125.0,200.0,200.0,125.0,1.0,1.1,-746,279,-480,262,-222,286,171.75358891487122,171.75366306304932,171.7565050125122,171.77065920829773,171.913019657135,171.913019657135,171.913019657135,171.913019657135,171.913019657135,171.913019657135,171.913019657135,175.8302516937256,2,4.042464256286621,None,,,,,,,,,,,,,,,,,,111,1,2025-02-25_12h58.14.288,comp,2024.2.4,57.23363521864967,2025-02-25 12h58.27.350298 -0500,
35,35,0,critical,whd,35.0,1.0,upper,125.0,200.0,200.0,125.0,127.0,127.0,2,1.7911889553070068,None,,,,,0,0,0,0,0,35,35,85,175.8462233543396,,,,,,,,,,,,,,,,,,,,,,,,,,,,,,,,,,,,,,,,,,,,,,,,,,,,,,,,,,,,,,,,,,,,,,,,,,,,,,,,,125.0,200.0,200.0,125.0,127.0,127.0,1.0,1.2,-258,1,0,-5,222,14,175.83175110816956,175.83182454109192,175.83575677871704,175.8462233543396,175.98974537849426,175.98974537849426,175.98974537849426,175.98974537849426,175.98974537849426,175.98974537849426,175.98974537849426,177.64808988571167,2,1.7911889553070068,None,,,,,,,,,,,,,,,,,,111,1,2025-02-25_12h58.14.288,comp,2024.2.4,57.23363521864967,2025-02-25 12h58.27.350298 -0500,
36,36,0,critical,hwd,20.0,3.0,lower,133.0,57.0,57.0,133.0,78.0,78.0,2,3.2290380001068115,None,,,,,0,0,0,0,0,36,36,104,177.66406297683716,,,,,,,,,,,,,,,,,,,,,,,,,,,,,,,,,,,,,,,,,,,,,,,,,,,,,,,,,,,,,,,,,,,,,,,,,,,,,,,,,133.0,57.0,57.0,133.0,78.0,78.0,3.0,3.1,-191,260,0,15,202,-288,177.649569272995,177.64964604377747,177.6532564163208,177.66406297683716,177.81817388534546,177.81817388534546,177.81817388534546,177.81817388534546,177.81817388534546,177.81817388534546,177.81817388534546,180.91083359718323,2,3.2290380001068115,None,,,,,,,,,,,,,,,,,,111,1,2025-02-25_12h58.14.288,comp,2024.2.4,57.23363521864967,2025-02-25 12h58.27.350298 -0500,
37,37,0,critical,dhw,35.0,2.1,upper,127.0,127.0,200.0,125.0,125.0,200.0,3,2.3584132194519043,None,,,,,0,0,0,0,0,37,37,25,180.9263298511505,,,,,,,,,,,,,,,,,,,,,,,,,,,,,,,,,,,,,,,,,,,,,,,,,,,,,,,,,,,,,,,,,,,,,,,,,,,,,,,,,127.0,127.0,200.0,125.0,125.0,200.0,2.1,2.11,-222,265,0,261,258,-280,180.91239261627197,180.9124698638916,180.9152970314026,180.9263298511505,181.06539702415466,181.06539702415466,181.06539702415466,181.06539702415466,181.06539702415466,181.06539702415466,181.06539702415466,183.29953050613403,3,2.3584132194519043,None,,,,,,,,,,,,,,,,,,111,1,2025-02-25_12h58.14.288,comp,2024.2.4,57.23363521864967,2025-02-25 12h58.27.350298 -0500,
38,38,0,critical,wdh,35.0,1.0,lower,57.0,133.0,70.0,70.0,133.0,57.0,1,3.673171043395996,None,,,,,0,0,0,0,0,38,38,72,183.31547594070435,,,,,,,,,,,,,,,,,,,,,,,,,,,,,,,,,,,,,,,,,,,,,,,,,,,,,,,,,,,,,,,,,,,,,,,,,,,,,,,,,57.0,133.0,70.0,70.0,133.0,57.0,1.0,1.3,282,-258,480,-277,640,-268,183.30112624168396,183.3012011051178,183.3051996231079,183.31547594070435,183.47078943252563,183.47078943252563,183.47078943252563,183.47078943252563,183.47078943252563,183.47078943252563,183.47078943252563,186.99926233291626,1,3.673171043395996,None,,,,,,,,,,,,,,,,,,111,1,2025-02-25_12h58.14.288,comp,2024.2.4,57.23363521864967,2025-02-25 12h58.27.350298 -0500,
39,39,0,filler_square,None,None,None,None,None,None,None,None,None,None,2,1.4369399547576904,None,,,,,0,0,0,0,0,39,39,188,187.01580476760864,,,,,,,,,,,,,,,,,,,,,,,,,,,,,,,,,,,,,,,,,,,,,,,,,,,,,,,,,,,,,,,,,,,,,,,,,,,,,,,,,60.89488191877677,63.91401507189501,71.5503391333508,71.5503391333508,65.76745508163222,66.69386313426033,2.2,2.22,-164,260,0,-260,165,-282,187.00104022026062,187.00111532211304,187.00421690940857,187.01580476760864,187.16661763191223,187.16661763191223,187.16661763191223,187.16661763191223,187.16661763191223,187.16661763191223,187.16661763191223,188.45742750167847,2,1.4369399547576904,None,,,,,,,,,,,,,,,,,,111,1,2025-02-25_12h58.14.288,comp,2024.2.4,57.23363521864967,2025-02-25 12h58.27.350298 -0500,
40,40,0,filler_random,None,None,None,None,None,None,None,None,None,None,2,1.2315473556518555,None,,,,,0,0,0,0,0,40,40,169,188.47732710838318,,,,,,,,,,,,,,,,,,,,,,,,,,,,,,,,,,,,,,,,,,,,,,,,,,,,,,,,,,,,,,,,,,,,,,,,,,,,,,,,,72.72757934186431,90.41429765583982,198.28743667972023,170.81940648698276,99.4839461538237,153.45280010955992,2.2,2.22,-227,252,0,-257,258,-280,188.45911240577698,188.45918703079224,188.4620761871338,188.47732710838318,188.61782574653625,188.61782574653625,188.61782574653625,188.61782574653625,188.61782574653625,188.61782574653625,188.61782574653625,189.71229934692383,2,1.2315473556518555,None,,,,,,,,,,,,,,,,,,111,1,2025-02-25_12h58.14.288,comp,2024.2.4,57.23363521864967,2025-02-25 12h58.27.350298 -0500,
41,41,0,critical,hdw,35.0,2.1,lower,133.0,57.0,70.0,70.0,57.0,133.0,1,2.4043924808502197,None,,,,,0,0,0,0,0,41,41,44,189.72830724716187,,,,,,,,,,,,,,,,,,,,,,,,,,,,,,,,,,,,,,,,,,,,,,,,,,,,,,,,,,,,,,,,,,,,,,,,,,,,,,,,,133.0,57.0,70.0,70.0,57.0,133.0,2.1,2.12,-160,-268,0,-289,198,253,189.71381616592407,189.7138912677765,189.7167112827301,189.72830724716187,189.86694073677063,189.86694073677063,189.86694073677063,189.86694073677063,189.86694073677063,189.86694073677063,189.86694073677063,192.1515064239502,1,2.4043924808502197,None,,,,,,,,,,,,,,,,,,111,1,2025-02-25_12h58.14.288,comp,2024.2.4,57.23363521864967,2025-02-25 12h58.27.350298 -0500,
42,42,0,filler_square,None,None,None,None,None,None,None,None,None,None,2,1.0848259925842285,None,,,,,0,0,0,0,0,42,42,182,192.1680405139923,,,,,,,,,,,,,,,,,,,,,,,,,,,,,,,,,,,,,,,,,,,,,,,,,,,,,,,,,,,,,,,,,,,,,,,,,,,,,,,,,64.83556879730907,67.05526514622782,79.88347503393842,79.88347503393842,63.603888618581976,59.199092588623344,3.0,3.2,-169,-274,0,11,166,263,192.15333461761475,192.15349507331848,192.156879901886,192.1680405139923,192.32368516921997,192.32368516921997,192.32368516921997,192.32368516921997,192.32368516921997,192.32368516921997,192.32368516921997,193.25579476356506,2,1.0848259925842285,None,,,,,,,,,,,,,,,,,,111,1,2025-02-25_12h58.14.288,comp,2024.2.4,57.23363521864967,2025-02-25 12h58.27.350298 -0500,
43,43,0,critical,hdw,20.0,4.0,upper,200.0,125.0,141.0,141.0,125.0,200.0,1,2.1442010402679443,None,,,,,0,0,0,0,0,43,43,119,193.27654218673706,,,,,,,,,,,,,,,,,,,,,,,,,,,,,,,,,,,,,,,,,,,,,,,,,,,,,,,,,,,,,,,,,,,,,,,,,,,,,,,,,200.0,125.0,141.0,141.0,125.0,200.0,4.0,4.1,-229,-286,0,-16,266,-287,193.25746941566467,193.2575466632843,193.2609088420868,193.27654218673706,193.42422723770142,193.42422723770142,193.42422723770142,193.42422723770142,193.42422723770142,193.42422723770142,193.42422723770142,195.423020362854,1,2.1442010402679443,None,,,,,,,,,,,,,,,,,,111,1,2025-02-25_12h58.14.288,comp,2024.2.4,57.23363521864967,2025-02-25 12h58.27.350298 -0500,
44,44,0,critical,dwh,35.0,2.1,lower,70.0,70.0,57.0,133.0,133.0,57.0,3,1.8980400562286377,None,,,,,0,0,0,0,0,44,44,28,195.44286274909973,,,,,,,,,,,,,,,,,,,,,,,,,,,,,,,,,,,,,,,,,,,,,,,,,,,,,,,,,,,,,,,,,,,,,,,,,,,,,,,,,70.0,70.0,57.0,133.0,133.0,57.0,2.1,2.11,-198,257,0,256,191,-266,195.4247179031372,195.4248411655426,195.42843437194824,195.44286274909973,195.5870668888092,195.5870668888092,195.5870668888092,195.5870668888092,195.5870668888092,195.5870668888092,195.5870668888092,197.35360836982727,3,1.8980400562286377,None,,,,,,,,,,,,,,,,,,111,1,2025-02-25_12h58.14.288,comp,2024.2.4,57.23363521864967,2025-02-25 12h58.27.350298 -0500,
45,45,0,filler_random,None,None,None,None,None,None,None,None,None,None,1,1.3072993755340576,None,,,,,0,0,0,0,0,45,45,154,197.36944222450256,,,,,,,,,,,,,,,,,,,,,,,,,,,,,,,,,,,,,,,,,,,,,,,,,,,,,,,,,,,,,,,,,,,,,,,,,,,,,,,,,89.22390995169864,192.39612787424642,140.05784559221684,87.46571128268639,109.5661592726787,95.68309715167595,2.1,2.11,-236,263,0,265,188,-288,197.35527229309082,197.35537433624268,197.3586766719818,197.36944222450256,197.5290515422821,197.5290515422821,197.5290515422821,197.5290515422821,197.5290515422821,197.5290515422821,197.5290515422821,198.6952669620514,1,1.3072993755340576,None,,,,,,,,,,,,,,,,,,111,1,2025-02-25_12h58.14.288,comp,2024.2.4,57.23363521864967,2025-02-25 12h58.27.350298 -0500,
46,46,0,filler_random,None,None,None,None,None,None,None,None,None,None,1,0.8674631118774414,None,,,,,0,0,0,0,0,46,46,163,198.71362161636353,,,,,,,,,,,,,,,,,,,,,,,,,,,,,,,,,,,,,,,,,,,,,,,,,,,,,,,,,,,,,,,,,,,,,,,,,,,,,,,,,166.03971205166584,123.93285145531507,138.90659570111725,63.46954587996888,128.26018039493528,105.21475164187545,2.2,2.22,-190,277,0,-285,180,-267,198.69714331626892,198.69726943969727,198.70050835609436,198.71362161636353,198.85159158706665,198.85159158706665,198.85159158706665,198.85159158706665,198.85159158706665,198.85159158706665,198.85159158706665,199.5884144306183,1,0.8674631118774414,None,,,,,,,,,,,,,,,,,,111,1,2025-02-25_12h58.14.288,comp,2024.2.4,57.23363521864967,2025-02-25 12h58.27.350298 -0500,
47,47,0,filler_random,None,None,None,None,None,None,None,None,None,None,1,1.3525729179382324,None,,,,,0,0,0,0,0,47,47,137,199.60427117347717,,,,,,,,,,,,,,,,,,,,,,,,,,,,,,,,,,,,,,,,,,,,,,,,,,,,,,,,,,,,,,,,,,,,,,,,,,,,,,,,,138.6771816372654,106.8142319321926,67.18858405261527,184.60454619417868,106.2399702107392,127.30045325180247,2.1,2.12,-242,-286,0,-254,252,275,199.59008646011353,199.5901644229889,199.59354662895203,199.60427117347717,199.75742173194885,199.75742173194885,199.75742173194885,199.75742173194885,199.75742173194885,199.75742173194885,199.75742173194885,200.9726004600525,1,1.3525729179382324,None,,,,,,,,,,,,,,,,,,111,1,2025-02-25_12h58.14.288,comp,2024.2.4,57.23363521864967,2025-02-25 12h58.27.350298 -0500,
48,48,0,critical,hdw,35.0,2.1,lower,133.0,57.0,70.0,70.0,57.0,133.0,3,1.9442603588104248,None,,,,,0,0,0,0,0,48,48,20,200.98832607269287,,,,,,,,,,,,,,,,,,,,,,,,,,,,,,,,,,,,,,,,,,,,,,,,,,,,,,,,,,,,,,,,,,,,,,,,,,,,,,,,,133.0,57.0,70.0,70.0,57.0,133.0,2.1,2.11,-160,259,0,280,198,-279,200.97403860092163,200.9741108417511,200.9780569076538,200.98832607269287,201.13818359375,201.13818359375,201.13818359375,201.13818359375,201.13818359375,201.13818359375,201.13818359375,202.94598579406738,3,1.9442603588104248,None,,,,,,,,,,,,,,,,,,111,1,2025-02-25_12h58.14.288,comp,2024.2.4,57.23363521864967,2025-02-25 12h58.27.350298 -0500,
49,49,0,filler_square,None,None,None,None,None,None,None,None,None,None,1,1.055593490600586,None,,,,,0,0,0,0,0,49,49,176,202.96555280685425,,,,,,,,,,,,,,,,,,,,,,,,,,,,,,,,,,,,,,,,,,,,,,,,,,,,,,,,,,,,,,,,,,,,,,,,,,,,,,,,,173.2770899037872,173.2770899037872,120.16639603840503,62.61057473557453,144.88561802696063,99.28141189864068,1.0,1.3,266,-286,480,-252,657,-271,202.94776248931885,202.94783735275269,202.9506597518921,202.96555280685425,203.10599446296692,203.10599446296692,203.10599446296692,203.10599446296692,203.10599446296692,203.10599446296692,203.10599446296692,204.02325916290283,1,1.055593490600586,None,,,,,,,,,,,,,,,,,,111,1,2025-02-25_12h58.14.288,comp,2024.2.4,57.23363521864967,2025-02-25 12h58.27.350298 -0500,
50,50,0,critical,dhw,35.0,1.0,lower,70.0,70.0,133.0,57.0,57.0,133.0,3,2.149310350418091,None,,,,,0,0,0,0,0,50,50,48,204.03932905197144,,,,,,,,,,,,,,,,,,,,,,,,,,,,,,,,,,,,,,,,,,,,,,,,,,,,,,,,,,,,,,,,,,,,,,,,,,,,,,,,,70.0,70.0,133.0,57.0,57.0,133.0,1.0,1.3,320,-270,480,-268,671,-280,204.02492547035217,204.02499842643738,204.0285930633545,204.03932905197144,204.18834352493286,204.18834352493286,204.18834352493286,204.18834352493286,204.18834352493286,204.18834352493286,204.18834352493286,206.208420753479,3,2.149310350418091,None,,,,,,,,,,,,,,,,,,111,1,2025-02-25_12h58.14.288,comp,2024.2.4,57.23363521864967,2025-02-25 12h58.27.350298 -0500,
51,51,0,filler_square,None,None,None,None,None,None,None,None,None,None,2,1.2273025512695312,None,,,,,0,0,0,0,0,51,51,198,206.22580456733704,,,,,,,,,,,,,,,,,,,,,,,,,,,,,,,,,,,,,,,,,,,,,,,,,,,,,,,,,,,,,,,,,,,,,,,,,,,,,,,,,84.2880867835523,167.91375880193903,174.71114809835345,174.71114809835345,165.20621188009898,76.57117354945561,3.0,3.2,-267,-279,0,-2,222,280,206.21022963523865,206.2103078365326,206.21333169937134,206.22580456733704,206.37344765663147,206.37344765663147,206.37344765663147,206.37344765663147,206.37344765663147,206.37344765663147,206.37344765663147,207.46378660202026,2,1.2273025512695312,None,,,,,,,,,,,,,,,,,,111,1,2025-02-25_12h58.14.288,comp,2024.2.4,57.23363521864967,2025-02-25 12h58.27.350298 -0500,
52,52,0,critical,wdh,20.0,3.0,lower,57.0,133.0,78.0,78.0,133.0,57.0,3,1.9080984592437744,None,,,,,0,0,0,0,0,52,52,80,207.48102235794067,,,,,,,,,,,,,,,,,,,,,,,,,,,,,,,,,,,,,,,,,,,,,,,,,,,,,,,,,,,,,,,,,,,,,,,,,,,,,,,,,57.0,133.0,78.0,78.0,133.0,57.0,3.0,3.2,-202,-256,0,18,164,264,207.4651584625244,207.46523356437683,207.46809244155884,207.48102235794067,207.6239049434662,207.6239049434662,207.6239049434662,207.6239049434662,207.6239049434662,207.6239049434662,207.6239049434662,209.40652751922607,3,1.9080984592437744,None,,,,,,,,,,,,,,,,,,111,1,2025-02-25_12h58.14.288,comp,2024.2.4,57.23363521864967,2025-02-25 12h58.27.350298 -0500,
53,53,0,filler_random,None,None,None,None,None,None,None,None,None,None,2,1.0587131977081299,None,,,,,0,0,0,0,0,53,53,158,209.42628979682922,,,,,,,,,,,,,,,,,,,,,,,,,,,,,,,,,,,,,,,,,,,,,,,,,,,,,,,,,,,,,,,,,,,,,,,,,,,,,,,,,112.49966623374539,147.66385090323593,196.0681878020159,120.59721621543662,159.07903379908515,73.8352576934226,3.0,3.1,-230,277,0,14,193,-288,209.40813612937927,209.40820932388306,209.41116046905518,209.42628979682922,209.58284497261047,209.58284497261047,209.58284497261047,209.58284497261047,209.58284497261047,209.58284497261047,209.58284497261047,210.48998761177063,2,1.0587131977081299,None,,,,,,,,,,,,,,,,,,111,1,2025-02-25_12h58.14.288,comp,2024.2.4,57.23363521864967,2025-02-25 12h58.27.350298 -0500,
54,54,0,critical,hdw,20.0,3.0,lower,133.0,57.0,78.0,78.0,57.0,133.0,1,2.4107038974761963,None,,,,,0,0,0,0,0,54,54,116,210.50604915618896,,,,,,,,,,,,,,,,,,,,,,,,,,,,,,,,,,,,,,,,,,,,,,,,,,,,,,,,,,,,,,,,,,,,,,,,,,,,,,,,,133.0,57.0,78.0,78.0,57.0,133.0,3.0,3.1,-164,285,0,-14,202,-278,210.49148893356323,210.49156427383423,210.4946961402893,210.50604915618896,210.66308188438416,210.66308188438416,210.66308188438416,210.66308188438416,210.66308188438416,210.66308188438416,210.66308188438416,212.92939805984497,1,2.4107038974761963,None,,,,,,,,,,,,,,,,,,111,1,2025-02-25_12h58.14.288,comp,2024.2.4,57.23363521864967,2025-02-25 12h58.27.350298 -0500,
55,55,0,filler_random,None,None,None,None,None,None,None,None,None,None,2,1.952702283859253,None,,,,,0,0,0,0,0,55,55,151,212.94848370552063,,,,,,,,,,,,,,,,,,,,,,,,,,,,,,,,,,,,,,,,,,,,,,,,,,,,,,,,,,,,,,,,,,,,,,,,,,,,,,,,,138.73394438406046,109.12449574160667,191.88405982435944,121.96711780666575,61.62474344010515,127.21470257263731,2.2,2.21,-212,-255,0,281,221,276,212.9311454296112,212.93122124671936,212.93405413627625,212.94848370552063,213.0921347141266,213.0921347141266,213.0921347141266,213.0921347141266,213.0921347141266,213.0921347141266,213.0921347141266,214.909925699234,2,1.952702283859253,None,,,,,,,,,,,,,,,,,,111,1,2025-02-25_12h58.14.288,comp,2024.2.4,57.23363521864967,2025-02-25 12h58.27.350298 -0500,
56,56,0,critical,dhw,20.0,2.1,upper,141.0,141.0,200.0,125.0,125.0,200.0,3,1.4709272384643555,None,,,,,0,0,0,0,0,56,56,3,214.9260184764862,,,,,,,,,,,,,,,,,,,,,,,,,,,,,,,,,,,,,,,,,,,,,,,,,,,,,,,,,,,,,,,,,,,,,,,,,,,,,,,,,141.0,141.0,200.0,125.0,125.0,200.0,2.1,2.11,-229,279,0,268,258,-259,214.91151690483093,214.91161680221558,214.91507196426392,214.9260184764862,215.07583928108215,215.07583928108215,215.07583928108215,215.07583928108215,215.07583928108215,215.07583928108215,215.07583928108215,216.40128660202026,3,1.4709272384643555,None,,,,,,,,,,,,,,,,,,111,1,2025-02-25_12h58.14.288,comp,2024.2.4,57.23363521864967,2025-02-25 12h58.27.350298 -0500,
57,57,0,critical,whd,20.0,2.1,lower,57.0,133.0,133.0,57.0,78.0,78.0,1,2.5765960216522217,None,,,,,0,0,0,0,0,57,57,14,216.42067790031433,,,,,,,,,,,,,,,,,,,,,,,,,,,,,,,,,,,,,,,,,,,,,,,,,,,,,,,,,,,,,,,,,,,,,,,,,,,,,,,,,57.0,133.0,133.0,57.0,78.0,78.0,2.1,2.11,-191,253,0,266,164,-263,216.4027452468872,216.40281915664673,216.4056556224823,216.42067790031433,216.5557336807251,216.5557336807251,216.5557336807251,216.5557336807251,216.5557336807251,216.5557336807251,216.5557336807251,219.01012110710144,1,2.5765960216522217,None,,,,,,,,,,,,,,,,,,111,1,2025-02-25_12h58.14.288,comp,2024.2.4,57.23363521864967,2025-02-25 12h58.27.350298 -0500,
58,58,0,filler_random,None,None,None,None,None,None,None,None,None,None,3,1.7405517101287842,None,,,,,0,0,0,0,0,58,58,152,219.02612376213074,,,,,,,,,,,,,,,,,,,,,,,,,,,,,,,,,,,,,,,,,,,,,,,,,,,,,,,,,,,,,,,,,,,,,,,,,,,,,,,,,75.77312738604448,64.49947528098357,117.41007702462987,79.81896114514217,130.0002579068713,73.57869578944897,2.2,2.22,-168,279,0,-285,173,-260,219.01182103157043,219.01189351081848,219.01585388183594,219.02612376213074,219.18004322052002,219.18004322052002,219.18004322052002,219.18004322052002,219.18004322052002,219.18004322052002,219.18004322052002,220.777747631073,3,1.7405517101287842,None,,,,,,,,,,,,,,,,,,111,1,2025-02-25_12h58.14.288,comp,2024.2.4,57.23363521864967,2025-02-25 12h58.27.350298 -0500,
59,59,0,critical,hdw,35.0,2.1,upper,200.0,125.0,127.0,127.0,125.0,200.0,1,3.4345576763153076,None,,,,,0,0,0,0,0,59,59,21,220.79413294792175,,,,,,,,,,,,,,,,,,,,,,,,,,,,,,,,,,,,,,,,,,,,,,,,,,,,,,,,,,,,,,,,,,,,,,,,,,,,,,,,,200.0,125.0,127.0,127.0,125.0,200.0,2.1,2.12,-222,-289,0,-268,260,276,220.77944612503052,220.77957105636597,220.78321647644043,220.79413294792175,220.9412078857422,220.9412078857422,220.9412078857422,220.9412078857422,220.9412078857422,220.9412078857422,220.9412078857422,224.24519610404968,1,3.4345576763153076,None,,,,,,,,,,,,,,,,,,111,1,2025-02-25_12h58.14.288,comp,2024.2.4,57.23363521864967,2025-02-25 12h58.27.350298 -0500,
60,60,0,filler_square,None,None,None,None,None,None,None,None,None,None,1,1.7357063293457031,None,,,,,0,0,0,0,0,60,60,172,224.2611277103424,,,,,,,,,,,,,,,,,,,,,,,,,,,,,,,,,,,,,,,,,,,,,,,,,,,,,,,,,,,,,,,,,,,,,,,,,,,,,,,,,134.09727537434495,134.09727537434495,124.87717143012583,127.07204205406,75.12256600294101,62.346010382174285,4.0,4.1,-227,-275,0,-19,191,-265,224.24700498580933,224.24711108207703,224.25075459480286,224.2611277103424,224.41833806037903,224.41833806037903,224.41833806037903,224.41833806037903,224.41833806037903,224.41833806037903,224.41833806037903,226.01239562034607,1,1.7357063293457031,None,,,,,,,,,,,,,,,,,,111,1,2025-02-25_12h58.14.288,comp,2024.2.4,57.23363521864967,2025-02-25 12h58.27.350298 -0500,
61,61,0,critical,whd,20.0,3.0,upper,125.0,200.0,200.0,125.0,141.0,141.0,1,2.929104804992676,None,,,,,0,0,0,0,0,61,61,93,226.02759408950806,,,,,,,,,,,,,,,,,,,,,,,,,,,,,,,,,,,,,,,,,,,,,,,,,,,,,,,,,,,,,,,,,,,,,,,,,,,,,,,,,125.0,200.0,200.0,125.0,141.0,141.0,3.0,3.1,-258,272,0,-18,229,-283,226.0139639377594,226.01403975486755,226.01715898513794,226.02759408950806,226.17879796028137,226.17879796028137,226.17879796028137,226.17879796028137,226.17879796028137,226.17879796028137,226.17879796028137,228.9757628440857,1,2.929104804992676,None,,,,,,,,,,,,,,,,,,111,1,2025-02-25_12h58.14.288,comp,2024.2.4,57.23363521864967,2025-02-25 12h58.27.350298 -0500,
62,62,0,critical,wdh,20.0,4.0,lower,57.0,133.0,78.0,78.0,133.0,57.0,1,3.35650897026062,None,,,,,0,0,0,0,0,62,62,82,228.9927191734314,,,,,,,,,,,,,,,,,,,,,,,,,,,,,,,,,,,,,,,,,,,,,,,,,,,,,,,,,,,,,,,,,,,,,,,,,,,,,,,,,57.0,133.0,78.0,78.0,133.0,57.0,4.0,4.2,-202,-9,0,-255,164,-1,228.97720313072205,228.9772765636444,228.98010873794556,228.9927191734314,229.12989974021912,229.12989974021912,229.12989974021912,229.12989974021912,229.12989974021912,229.12989974021912,229.12989974021912,232.35447430610657,1,3.35650897026062,None,,,,,,,,,,,,,,,,,,111,1,2025-02-25_12h58.14.288,comp,2024.2.4,57.23363521864967,2025-02-25 12h58.27.350298 -0500,
63,63,0,filler_random,None,None,None,None,None,None,None,None,None,None,2,0.8104093074798584,None,,,,,0,0,0,0,0,63,63,136,232.37046265602112,,,,,,,,,,,,,,,,,,,,,,,,,,,,,,,,,,,,,,,,,,,,,,,,,,,,,,,,,,,,,,,,,,,,,,,,,,,,,,,,,82.31542694860599,177.03701563147376,181.97849896342234,180.79121863816084,129.36485350911948,144.57863576488748,3.0,3.2,-275,-263,0,19,259,278,232.35627388954163,232.35640358924866,232.35958051681519,232.37046265602112,232.5192096233368,232.5192096233368,232.5192096233368,232.5192096233368,232.5192096233368,232.5192096233368,232.5192096233368,233.19733834266663,2,0.8104093074798584,None,,,,,,,,,,,,,,,,,,111,1,2025-02-25_12h58.14.288,comp,2024.2.4,57.23363521864967,2025-02-25 12h58.27.350298 -0500,
64,64,0,critical,whd,20.0,2.1,upper,125.0,200.0,200.0,125.0,141.0,141.0,2,2.315937042236328,None,,,,,0,0,0,0,0,64,64,39,233.21680808067322,,,,,,,,,,,,,,,,,,,,,,,,,,,,,,,,,,,,,,,,,,,,,,,,,,,,,,,,,,,,,,,,,,,,,,,,,,,,,,,,,125.0,200.0,200.0,125.0,141.0,141.0,2.1,2.12,-258,-253,0,-259,229,260,233.1988763809204,233.1989507675171,233.20205402374268,233.21680808067322,233.36618304252625,233.36618304252625,233.36618304252625,233.36618304252625,233.36618304252625,233.36618304252625,233.36618304252625,235.5485327243805,2,2.315937042236328,None,,,,,,,,,,,,,,,,,,111,1,2025-02-25_12h58.14.288,comp,2024.2.4,57.23363521864967,2025-02-25 12h58.27.350298 -0500,
65,65,0,critical,whd,20.0,2.1,lower,57.0,133.0,133.0,57.0,78.0,78.0,2,3.2368640899658203,None,,,,,0,0,0,0,0,65,65,38,235.5679314136505,,,,,,,,,,,,,,,,,,,,,,,,,,,,,,,,,,,,,,,,,,,,,,,,,,,,,,,,,,,,,,,,,,,,,,,,,,,,,,,,,57.0,133.0,133.0,57.0,78.0,78.0,2.1,2.11,-191,284,0,275,164,-287,235.54998183250427,235.55005431175232,235.55323791503906,235.5679314136505,235.71620678901672,235.71620678901672,235.71620678901672,235.71620678901672,235.71620678901672,235.71620678901672,235.71620678901672,238.81689500808716,2,3.2368640899658203,None,,,,,,,,,,,,,,,,,,111,1,2025-02-25_12h58.14.288,comp,2024.2.4,57.23363521864967,2025-02-25 12h58.27.350298 -0500,
66,66,0,filler_random,None,None,None,None,None,None,None,None,None,None,1,1.1362087726593018,None,,,,,0,0,0,0,0,66,66,133,238.83658361434937,,,,,,,,,,,,,,,,,,,,,,,,,,,,,,,,,,,,,,,,,,,,,,,,,,,,,,,,,,,,,,,,,,,,,,,,,,,,,,,,,126.07791501991277,128.54125439897945,185.39285561829485,67.75049889595785,102.25650299108682,63.08451609521558,4.0,4.2,-194,-8,0,-258,161,12,238.81860280036926,238.81867957115173,238.8216953277588,238.83658361434937,238.9796154499054,238.9796154499054,238.9796154499054,238.9796154499054,238.9796154499054,238.9796154499054,238.9796154499054,239.9833722114563,1,1.1362087726593018,None,,,,,,,,,,,,,,,,,,111,1,2025-02-25_12h58.14.288,comp,2024.2.4,57.23363521864967,2025-02-25 12h58.27.350298 -0500,
67,67,0,filler_square,None,None,None,None,None,None,None,None,None,None,1,2.33443021774292,None,,,,,0,0,0,0,0,67,67,197,239.99911284446716,,,,,,,,,,,,,,,,,,,,,,,,,,,,,,,,,,,,,,,,,,,,,,,,,,,,,,,,,,,,,,,,,,,,,,,,,,,,,,,,,124.96856846841932,124.96856846841932,93.1004268264027,57.0872880197477,57.45831507795151,113.22392957899555,3.0,3.1,-187,287,0,15,181,-275,239.98513460159302,239.98521089553833,239.98852252960205,239.99911284446716,240.15053915977478,240.15053915977478,240.15053915977478,240.15053915977478,240.15053915977478,240.15053915977478,240.15053915977478,242.34193801879883,1,2.33443021774292,None,,,,,,,,,,,,,,,,,,111,1,2025-02-25_12h58.14.288,comp,2024.2.4,57.23363521864967,2025-02-25 12h58.27.350298 -0500,
68,68,0,critical,hdw,35.0,2.1,upper,200.0,125.0,127.0,127.0,125.0,200.0,1,1.7269701957702637,None,,,,,0,0,0,0,0,68,68,45,242.35783743858337,,,,,,,,,,,,,,,,,,,,,,,,,,,,,,,,,,,,,,,,,,,,,,,,,,,,,,,,,,,,,,,,,,,,,,,,,,,,,,,,,200.0,125.0,127.0,127.0,125.0,200.0,2.1,2.12,-222,-277,0,-275,260,252,242.34362292289734,242.34369730949402,242.34696292877197,242.35783743858337,242.50554084777832,242.50554084777832,242.50554084777832,242.50554084777832,242.50554084777832,242.50554084777832,242.50554084777832,244.0990025997162,1,1.7269701957702637,None,,,,,,,,,,,,,,,,,,111,1,2025-02-25_12h58.14.288,comp,2024.2.4,57.23363521864967,2025-02-25 12h58.27.350298 -0500,
69,69,0,critical,whd,35.0,1.0,lower,57.0,133.0,133.0,57.0,70.0,70.0,2,1.9853253364562988,None,,,,,0,0,0,0,0,69,69,84,244.1156668663025,,,,,,,,,,,,,,,,,,,,,,,,,,,,,,,,,,,,,,,,,,,,,,,,,,,,,,,,,,,,,,,,,,,,,,,,,,,,,,,,,57.0,133.0,133.0,57.0,70.0,70.0,1.0,1.2,-191,-3,0,-2,160,19,244.10043358802795,244.1005072593689,244.1033217906952,244.1156668663025,244.25602006912231,244.25602006912231,244.25602006912231,244.25602006912231,244.25602006912231,244.25602006912231,244.25602006912231,246.11857724189758,2,1.9853253364562988,None,,,,,,,,,,,,,,,,,,111,1,2025-02-25_12h58.14.288,comp,2024.2.4,57.23363521864967,2025-02-25 12h58.27.350298 -0500,
70,70,0,critical,wdh,20.0,2.1,lower,57.0,133.0,78.0,78.0,133.0,57.0,3,2.5666375160217285,None,,,,,0,0,0,0,0,70,70,10,246.1342318058014,,,,,,,,,,,,,,,,,,,,,,,,,,,,,,,,,,,,,,,,,,,,,,,,,,,,,,,,,,,,,,,,,,,,,,,,,,,,,,,,,57.0,133.0,78.0,78.0,133.0,57.0,2.1,2.11,-202,263,0,251,164,-271,246.1202199459076,246.1203305721283,246.12388467788696,246.1342318058014,246.28583335876465,246.28583335876465,246.28583335876465,246.28583335876465,246.28583335876465,246.28583335876465,246.28583335876465,248.71817636489868,3,2.5666375160217285,None,,,,,,,,,,,,,,,,,,111,1,2025-02-25_12h58.14.288,comp,2024.2.4,57.23363521864967,2025-02-25 12h58.27.350298 -0500,
71,71,0,catch,None,None,None,None,None,None,None,None,None,None,3,1.053325891494751,None,,,,,0,0,0,0,0,71,71,123,248.73566126823425,,,,,,,,,,,,,,,,,,,,,,,,,,,,,,,,,,,,,,,,,,,,,,,,,,,,,,,,,,,,,,,,,,,,,,,,,,,,,,,,,60,130,104,86,145,180,4.0,4.2,-204,0,0,-289,229,-11,248.72001147270203,248.72008514404297,248.72310972213745,248.73566126823425,248.89150381088257,248.89150381088257,248.89150381088257,248.89150381088257,248.89150381088257,248.89150381088257,248.89150381088257,249.80354952812195,3,1.053325891494751,None,,,,,,,,,,,,,,,,,,111,1,2025-02-25_12h58.14.288,comp,2024.2.4,57.23363521864967,2025-02-25 12h58.27.350298 -0500,
72,72,0,filler_square,None,None,None,None,None,None,None,None,None,None,1,0.9848244190216064,None,,,,,0,0,0,0,0,72,72,186,249.8202257156372,,,,,,,,,,,,,,,,,,,,,,,,,,,,,,,,,,,,,,,,,,,,,,,,,,,,,,,,,,,,,,,,,,,,,,,,,,,,,,,,,176.336364506375,176.336364506375,115.76681448972374,130.6384895882111,70.12027716539814,147.32313313161515,2.2,2.22,-249,258,0,-273,235,-280,249.80530714988708,249.80542516708374,249.80949473381042,249.8202257156372,249.9718313217163,249.9718313217163,249.9718313217163,249.9718313217163,249.9718313217163,249.9718313217163,249.9718313217163,250.82120943069458,1,0.9848244190216064,None,,,,,,,,,,,,,,,,,,111,1,2025-02-25_12h58.14.288,comp,2024.2.4,57.23363521864967,2025-02-25 12h58.27.350298 -0500,
73,73,0,catch,None,None,None,None,None,None,None,None,None,None,1,1.0322532653808594,None,,,,,0,0,0,0,0,73,73,129,250.83654499053955,,,,,,,,,,,,,,,,,,,,,,,,,,,,,,,,,,,,,,,,,,,,,,,,,,,,,,,,,,,,,,,,,,,,,,,,,,,,,,,,,138,187,116,74,87,103,2.2,2.22,-226,256,0,-282,184,-257,250.82306790351868,250.82314276695251,250.8262779712677,250.83654499053955,250.98740434646606,250.98740434646606,250.98740434646606,250.98740434646606,250.98740434646606,250.98740434646606,250.98740434646606,251.87087225914001,1,1.0322532653808594,None,,,,,,,,,,,,,,,,,,111,1,2025-02-25_12h58.14.288,comp,2024.2.4,57.23363521864967,2025-02-25 12h58.27.350298 -0500,
74,74,0,critical,dwh,20.0,3.0,upper,141.0,141.0,125.0,200.0,200.0,125.0,2,2.1592977046966553,None,,,,,0,0,0,0,0,74,74,69,251.88653230667114,,,,,,,,,,,,,,,,,,,,,,,,,,,,,,,,,,,,,,,,,,,,,,,,,,,,,,,,,,,,,,,,,,,,,,,,,,,,,,,,,141.0,141.0,125.0,200.0,200.0,125.0,3.0,3.2,-266,-286,0,18,258,257,251.87243127822876,251.8725073337555,251.87583899497986,251.88653230667114,252.03947162628174,252.03947162628174,252.03947162628174,252.03947162628174,252.03947162628174,252.03947162628174,252.03947162628174,254.0548017024994,2,2.1592977046966553,None,,,,,,,,,,,,,,,,,,111,1,2025-02-25_12h58.14.288,comp,2024.2.4,57.23363521864967,2025-02-25 12h58.27.350298 -0500,
75,75,0,filler_square,None,None,None,None,None,None,None,None,None,None,1,1.2622466087341309,None,,,,,0,0,0,0,0,75,75,178,254.07052516937256,,,,,,,,,,,,,,,,,,,,,,,,,,,,,,,,,,,,,,,,,,,,,,,,,,,,,,,,,,,,,,,,,,,,,,,,,,,,,,,,,134.57383830670238,134.57383830670238,65.83394969750287,82.67453402943897,108.51816106425065,58.9073535679457,4.0,4.2,-205,7,0,-271,167,8,254.0564947128296,254.05656957626343,254.05984234809875,254.07052516937256,254.22104406356812,254.22104406356812,254.22104406356812,254.22104406356812,254.22104406356812,254.22104406356812,254.22104406356812,255.34495162963867,1,1.2622466087341309,None,,,,,,,,,,,,,,,,,,111,1,2025-02-25_12h58.14.288,comp,2024.2.4,57.23363521864967,2025-02-25 12h58.27.350298 -0500,
76,76,0,critical,hwd,20.0,3.0,upper,200.0,125.0,125.0,200.0,141.0,141.0,2,3.8756232261657715,None,,,,,0,0,0,0,0,76,76,105,255.3612916469574,,,,,,,,,,,,,,,,,,,,,,,,,,,,,,,,,,,,,,,,,,,,,,,,,,,,,,,,,,,,,,,,,,,,,,,,,,,,,,,,,200.0,125.0,125.0,200.0,141.0,141.0,3.0,3.2,-258,-274,0,-16,266,263,255.34655809402466,255.34663248062134,255.3499710559845,255.3612916469574,255.50576281547546,255.50576281547546,255.50576281547546,255.50576281547546,255.50576281547546,255.50576281547546,255.50576281547546,259.24100041389465,2,3.8756232261657715,None,,,,,,,,,,,,,,,,,,111,1,2025-02-25_12h58.14.288,comp,2024.2.4,57.23363521864967,2025-02-25 12h58.27.350298 -0500,
77,77,0,filler_square,None,None,None,None,None,None,None,None,None,None,2,1.1395812034606934,None,,,,,0,0,0,0,0,77,77,202,259.265584230423,,,,,,,,,,,,,,,,,,,,,,,,,,,,,,,,,,,,,,,,,,,,,,,,,,,,,,,,,,,,,,,,,,,,,,,,,,,,,,,,,86.84394827354467,79.88403969940013,108.74633183578797,108.74633183578797,85.03441092326484,67.6996189788488,2.2,2.22,-190,287,0,-261,184,-264,259.2430474758148,259.2431240081787,259.2459571361542,259.265584230423,259.40729093551636,259.40729093551636,259.40729093551636,259.40729093551636,259.40729093551636,259.40729093551636,259.40729093551636,260.42067646980286,2,1.1395812034606934,None,,,,,,,,,,,,,,,,,,111,1,2025-02-25_12h58.14.288,comp,2024.2.4,57.23363521864967,2025-02-25 12h58.27.350298 -0500,
78,78,0,critical,dwh,35.0,1.0,lower,70.0,70.0,57.0,133.0,133.0,57.0,3,1.8319971561431885,None,,,,,0,0,0,0,0,78,78,60,260.4374256134033,,,,,,,,,,,,,,,,,,,,,,,,,,,,,,,,,,,,,,,,,,,,,,,,,,,,,,,,,,,,,,,,,,,,,,,,,,,,,,,,,70.0,70.0,57.0,133.0,133.0,57.0,1.0,1.3,282,-251,480,-287,671,-251,260.42211508750916,260.42218804359436,260.4249863624573,260.4374256134033,260.57317638397217,260.57317638397217,260.57317638397217,260.57317638397217,260.57317638397217,260.57317638397217,260.57317638397217,262.27790904045105,3,1.8319971561431885,None,,,,,,,,,,,,,,,,,,111,1,2025-02-25_12h58.14.288,comp,2024.2.4,57.23363521864967,2025-02-25 12h58.27.350298 -0500,
79,79,0,filler_random,None,None,None,None,None,None,None,None,None,None,2,1.4551119804382324,None,,,,,0,0,0,0,0,79,79,138,262.29399728775024,,,,,,,,,,,,,,,,,,,,,,,,,,,,,,,,,,,,,,,,,,,,,,,,,,,,,,,,,,,,,,,,,,,,,,,,,,,,,,,,,105.07201763545206,107.81048929248877,182.6600032310165,144.40808347663793,130.19986401069986,73.8950449761743,2.2,2.22,-222,269,0,-285,205,-256,262.27969217300415,262.279780626297,262.28312397003174,262.29399728775024,262.4444897174835,262.4444897174835,262.4444897174835,262.4444897174835,262.4444897174835,262.4444897174835,262.4444897174835,263.7524518966675,2,1.4551119804382324,None,,,,,,,,,,,,,,,,,,111,1,2025-02-25_12h58.14.288,comp,2024.2.4,57.23363521864967,2025-02-25 12h58.27.350298 -0500,
80,80,0,critical,wdh,35.0,3.0,lower,57.0,133.0,70.0,70.0,133.0,57.0,1,2.0923538208007812,None,,,,,0,0,0,0,0,80,80,74,263.76844787597656,,,,,,,,,,,,,,,,,,,,,,,,,,,,,,,,,,,,,,,,,,,,,,,,,,,,,,,,,,,,,,,,,,,,,,,,,,,,,,,,,57.0,133.0,70.0,70.0,133.0,57.0,3.0,3.1,-198,257,0,14,160,-265,263.7540249824524,263.75409841537476,263.75734519958496,263.76844787597656,263.90879106521606,263.90879106521606,263.90879106521606,263.90879106521606,263.90879106521606,263.90879106521606,263.90879106521606,265.87494134902954,1,2.0923538208007812,None,,,,,,,,,,,,,,,,,,111,1,2025-02-25_12h58.14.288,comp,2024.2.4,57.23363521864967,2025-02-25 12h58.27.350298 -0500,
81,81,0,critical,wdh,35.0,4.0,upper,125.0,200.0,127.0,127.0,200.0,125.0,1,6.538443565368652,None,,,,,0,0,0,0,0,81,81,77,265.89077711105347,,,,,,,,,,,,,,,,,,,,,,,,,,,,,,,,,,,,,,,,,,,,,,,,,,,,,,,,,,,,,,,,,,,,,,,,,,,,,,,,,125.0,200.0,127.0,127.0,200.0,125.0,4.0,4.2,-260,-16,0,-273,222,-11,265.8766202926636,265.8766932487488,265.8803403377533,265.89077711105347,266.04411125183105,266.04411125183105,266.04411125183105,266.04411125183105,266.04411125183105,266.04411125183105,266.04411125183105,272.44398522377014,1,6.538443565368652,None,,,,,,,,,,,,,,,,,,111,1,2025-02-25_12h58.14.288,comp,2024.2.4,57.23363521864967,2025-02-25 12h58.27.350298 -0500,
82,82,0,filler_random,None,None,None,None,None,None,None,None,None,None,2,1.0255024433135986,None,,,,,0,0,0,0,0,82,82,156,272.46000385284424,,,,,,,,,,,,,,,,,,,,,,,,,,,,,,,,,,,,,,,,,,,,,,,,,,,,,,,,,,,,,,,,,,,,,,,,,,,,,,,,,61.082653225269176,104.89498026654135,120.29462358829294,101.1831568360163,171.03142005258377,161.78148309782716,4.0,4.2,-199,-12,0,-260,227,17,272.4455668926239,272.445641040802,272.4495921134949,272.46000385284424,272.6110215187073,272.6110215187073,272.6110215187073,272.6110215187073,272.6110215187073,272.6110215187073,272.6110215187073,273.49278593063354,2,1.0255024433135986,None,,,,,,,,,,,,,,,,,,111,1,2025-02-25_12h58.14.288,comp,2024.2.4,57.23363521864967,2025-02-25 12h58.27.350298 -0500,
83,83,0,critical,hwd,35.0,1.0,lower,133.0,57.0,57.0,133.0,70.0,70.0,2,7.119811058044434,None,,,,,0,0,0,0,0,83,83,96,273.5093777179718,,,,,,,,,,,,,,,,,,,,,,,,,,,,,,,,,,,,,,,,,,,,,,,,,,,,,,,,,,,,,,,,,,,,,,,,,,,,,,,,,133.0,57.0,57.0,133.0,70.0,70.0,1.0,1.3,289,-264,480,-273,678,-276,273.4943833351135,273.4944603443146,273.49772548675537,273.5093777179718,273.6642966270447,273.6642966270447,273.6642966270447,273.6642966270447,273.6642966270447,273.6642966270447,273.6642966270447,280.63279581069946,2,7.119811058044434,None,,,,,,,,,,,,,,,,,,111,1,2025-02-25_12h58.14.288,comp,2024.2.4,57.23363521864967,2025-02-25 12h58.27.350298 -0500,
84,84,0,critical,wdh,20.0,3.0,upper,125.0,200.0,141.0,141.0,200.0,125.0,3,2.7893049716949463,None,,,,,0,0,0,0,0,84,84,81,280.6482241153717,,,,,,,,,,,,,,,,,,,,,,,,,,,,,,,,,,,,,,,,,,,,,,,,,,,,,,,,,,,,,,,,,,,,,,,,,,,,,,,,,125.0,200.0,141.0,141.0,200.0,125.0,3.0,3.2,-266,-281,0,-14,229,282,280.63454604148865,280.6346220970154,280.6375222206116,280.6482241153717,280.7961459159851,280.7961459159851,280.7961459159851,280.7961459159851,280.7961459159851,280.7961459159851,280.7961459159851,283.4480195045471,3,2.7893049716949463,None,,,,,,,,,,,,,,,,,,111,1,2025-02-25_12h58.14.288,comp,2024.2.4,57.23363521864967,2025-02-25 12h58.27.350298 -0500,
85,85,0,filler_square,None,None,None,None,None,None,None,None,None,None,3,2.349451780319214,None,,,,,0,0,0,0,0,85,85,175,283.46376729011536,,,,,,,,,,,,,,,,,,,,,,,,,,,,,,,,,,,,,,,,,,,,,,,,,,,,,,,,,,,,,,,,,,,,,,,,,,,,,,,,,59.6577203160809,60.17632532526089,60.684924075186515,61.235217392313146,64.8791767150888,64.8791767150888,3.0,3.1,-157,280,0,3,159,-282,283.4497969150543,283.4498701095581,283.4530727863312,283.46376729011536,283.6229166984558,283.6229166984558,283.6229166984558,283.6229166984558,283.6229166984558,283.6229166984558,283.6229166984558,285.8321759700775,3,2.349451780319214,None,,,,,,,,,,,,,,,,,,111,1,2025-02-25_12h58.14.288,comp,2024.2.4,57.23363521864967,2025-02-25 12h58.27.350298 -0500,
86,86,0,critical,wdh,20.0,2.1,upper,125.0,200.0,141.0,141.0,200.0,125.0,3,1.9261562824249268,None,,,,,0,0,0,0,0,86,86,11,285.84726214408875,,,,,,,,,,,,,,,,,,,,,,,,,,,,,,,,,,,,,,,,,,,,,,,,,,,,,,,,,,,,,,,,,,,,,,,,,,,,,,,,,125.0,200.0,141.0,141.0,200.0,125.0,2.1,2.11,-266,256,0,279,229,-281,285.83369493484497,285.8337700366974,285.8370084762573,285.84726214408875,285.99602150917053,285.99602150917053,285.99602150917053,285.99602150917053,285.99602150917053,285.99602150917053,285.99602150917053,287.78240609169006,3,1.9261562824249268,None,,,,,,,,,,,,,,,,,,111,1,2025-02-25_12h58.14.288,comp,2024.2.4,57.23363521864967,2025-02-25 12h58.27.350298 -0500,
87,87,0,filler_square,None,None,None,None,None,None,None,None,None,None,3,1.1182873249053955,None,,,,,0,0,0,0,0,87,87,194,287.7985723018646,,,,,,,,,,,,,,,,,,,,,,,,,,,,,,,,,,,,,,,,,,,,,,,,,,,,,,,,,,,,,,,,,,,,,,,,,,,,,,,,,61.20035484077681,64.17978508482415,90.82048907107236,64.44252676471211,118.23446237586255,118.23446237586255,3.0,3.2,-160,-278,0,-10,187,274,287.78428316116333,287.7844305038452,287.7877414226532,287.7985723018646,287.94969511032104,287.94969511032104,287.94969511032104,287.94969511032104,287.94969511032104,287.94969511032104,287.94969511032104,288.9322073459625,3,1.1182873249053955,None,,,,,,,,,,,,,,,,,,111,1,2025-02-25_12h58.14.288,comp,2024.2.4,57.23363521864967,2025-02-25 12h58.27.350298 -0500,
88,88,0,catch,None,None,None,None,None,None,None,None,None,None,3,1.162318468093872,None,,,,,0,0,0,0,0,88,88,120,288.94818902015686,,,,,,,,,,,,,,,,,,,,,,,,,,,,,,,,,,,,,,,,,,,,,,,,,,,,,,,,,,,,,,,,,,,,,,,,,,,,,,,,,121,69,77,113,197,128,2.1,2.12,-187,-273,0,-260,216,273,288.93430852890015,288.93443536758423,288.93789553642273,288.94818902015686,289.1021008491516,289.1021008491516,289.1021008491516,289.1021008491516,289.1021008491516,289.1021008491516,289.1021008491516,290.115083694458,3,1.162318468093872,None,,,,,,,,,,,,,,,,,,111,1,2025-02-25_12h58.14.288,comp,2024.2.4,57.23363521864967,2025-02-25 12h58.27.350298 -0500,
89,89,0,catch,None,None,None,None,None,None,None,None,None,None,3,1.1650960445404053,None,,,,,0,0,0,0,0,89,89,124,290.13586044311523,,,,,,,,,,,,,,,,,,,,,,,,,,,,,,,,,,,,,,,,,,,,,,,,,,,,,,,,,,,,,,,,,,,,,,,,,,,,,,,,,92,98,97,93,194,131,2.2,2.22,-192,252,0,-274,208,-253,290.11721634864807,290.1172926425934,290.12055826187134,290.13586044311523,290.28263664245605,290.28263664245605,290.28263664245605,290.28263664245605,290.28263664245605,290.28263664245605,290.28263664245605,291.3186686038971,3,1.1650960445404053,None,,,,,,,,,,,,,,,,,,111,1,2025-02-25_12h58.14.288,comp,2024.2.4,57.23363521864967,2025-02-25 12h58.27.350298 -0500,
90,90,0,critical,wdh,35.0,3.0,upper,125.0,200.0,127.0,127.0,200.0,125.0,1,1.9351344108581543,None,,,,,0,0,0,0,0,90,90,75,291.3339092731476,,,,,,,,,,,,,,,,,,,,,,,,,,,,,,,,,,,,,,,,,,,,,,,,,,,,,,,,,,,,,,,,,,,,,,,,,,,,,,,,,125.0,200.0,127.0,127.0,200.0,125.0,3.0,3.2,-260,-257,0,6,222,267,291.32033467292786,291.32044863700867,291.32364296913147,291.3339092731476,291.48419976234436,291.48419976234436,291.48419976234436,291.48419976234436,291.48419976234436,291.48419976234436,291.48419976234436,293.283570766449,1,1.9351344108581543,None,,,,,,,,,,,,,,,,,,111,1,2025-02-25_12h58.14.288,comp,2024.2.4,57.23363521864967,2025-02-25 12h58.27.350298 -0500,
91,91,0,critical,whd,20.0,3.0,lower,57.0,133.0,133.0,57.0,78.0,78.0,2,2.8900694847106934,None,,,,,0,0,0,0,0,91,91,92,293.2987322807312,,,,,,,,,,,,,,,,,,,,,,,,,,,,,,,,,,,,,,,,,,,,,,,,,,,,,,,,,,,,,,,,,,,,,,,,,,,,,,,,,57.0,133.0,133.0,57.0,78.0,78.0,3.0,3.1,-191,256,0,10,164,-287,293.2850708961487,293.2851457595825,293.28819608688354,293.2987322807312,293.4495966434479,293.4495966434479,293.4495966434479,293.4495966434479,293.4495966434479,293.4495966434479,293.4495966434479,296.1996111869812,2,2.8900694847106934,None,,,,,,,,,,,,,,,,,,111,1,2025-02-25_12h58.14.288,comp,2024.2.4,57.23363521864967,2025-02-25 12h58.27.350298 -0500,
92,92,0,critical,dhw,20.0,1.0,lower,78.0,78.0,133.0,57.0,57.0,133.0,3,3.077038049697876,None,,,,,0,0,0,0,0,92,92,54,296.21584939956665,,,,,,,,,,,,,,,,,,,,,,,,,,,,,,,,,,,,,,,,,,,,,,,,,,,,,,,,,,,,,,,,,,,,,,,,,,,,,,,,,78.0,78.0,133.0,57.0,57.0,133.0,1.0,1.3,316,-271,480,-254,671,-280,296.2011115550995,296.2011857032776,296.2040102481842,296.21584939956665,296.37068700790405,296.37068700790405,296.37068700790405,296.37068700790405,296.37068700790405,296.37068700790405,296.37068700790405,299.3023269176483,3,3.077038049697876,None,,,,,,,,,,,,,,,,,,111,1,2025-02-25_12h58.14.288,comp,2024.2.4,57.23363521864967,2025-02-25 12h58.27.350298 -0500,
93,93,0,filler_random,None,None,None,None,None,None,None,None,None,None,2,1.2211108207702637,None,,,,,0,0,0,0,0,93,93,166,299.31971740722656,,,,,,,,,,,,,,,,,,,,,,,,,,,,,,,,,,,,,,,,,,,,,,,,,,,,,,,,,,,,,,,,,,,,,,,,,,,,,,,,,90.78384012341614,134.29531442088035,198.3212868663298,198.46714128197135,99.6209534840743,191.01727546549182,2.1,2.11,-262,259,0,286,291,-289,299.30407643318176,299.3041524887085,299.30812978744507,299.31971740722656,299.4684970378876,299.4684970378876,299.4684970378876,299.4684970378876,299.4684970378876,299.4684970378876,299.4684970378876,300.55154848098755,2,1.2211108207702637,None,,,,,,,,,,,,,,,,,,111,1,2025-02-25_12h58.14.288,comp,2024.2.4,57.23363521864967,2025-02-25 12h58.27.350298 -0500,
94,94,0,critical,hdw,35.0,4.0,upper,200.0,125.0,127.0,127.0,125.0,200.0,3,3.934605121612549,None,,,,,0,0,0,0,0,94,94,113,300.56698775291443,,,,,,,,,,,,,,,,,,,,,,,,,,,,,,,,,,,,,,,,,,,,,,,,,,,,,,,,,,,,,,,,,,,,,,,,,,,,,,,,,200.0,125.0,127.0,127.0,125.0,200.0,4.0,4.2,-222,6,0,-253,260,-3,300.5529782772064,300.5530529022217,300.5560882091522,300.56698775291443,300.7199954986572,300.7199954986572,300.7199954986572,300.7199954986572,300.7199954986572,300.7199954986572,300.7199954986572,304.5060005187988,3,3.934605121612549,None,,,,,,,,,,,,,,,,,,111,1,2025-02-25_12h58.14.288,comp,2024.2.4,57.23363521864967,2025-02-25 12h58.27.350298 -0500,
95,95,0,critical,dhw,20.0,4.0,lower,78.0,78.0,133.0,57.0,57.0,133.0,2,2.0257225036621094,None,,,,,0,0,0,0,0,95,95,58,304.52315402030945,,,,,,,,,,,,,,,,,,,,,,,,,,,,,,,,,,,,,,,,,,,,,,,,,,,,,,,,,,,,,,,,,,,,,,,,,,,,,,,,,78.0,78.0,133.0,57.0,57.0,133.0,4.0,4.2,-164,-6,0,-287,191,9,304.50763487815857,304.5077085494995,304.51157569885254,304.52315402030945,304.6705665588379,304.6705665588379,304.6705665588379,304.6705665588379,304.6705665588379,304.6705665588379,304.6705665588379,306.56365418434143,2,2.0257225036621094,None,,,,,,,,,,,,,,,,,,111,1,2025-02-25_12h58.14.288,comp,2024.2.4,57.23363521864967,2025-02-25 12h58.27.350298 -0500,
96,96,0,filler_random,None,None,None,None,None,None,None,None,None,None,1,2.4808244705200195,None,,,,,0,0,0,0,0,96,96,140,306.58000469207764,,,,,,,,,,,,,,,,,,,,,,,,,,,,,,,,,,,,,,,,,,,,,,,,,,,,,,,,,,,,,,,,,,,,,,,,,,,,,,,,,105.51950705108851,159.97629404046126,79.45231074049991,138.92010881664226,197.00277781349538,62.470181189412195,3.0,3.2,-245,-255,0,-20,197,288,306.56539845466614,306.5654728412628,306.5687024593353,306.58000469207764,306.72151041030884,306.72151041030884,306.72151041030884,306.72151041030884,306.72151041030884,306.72151041030884,306.72151041030884,309.07023072242737,1,2.4808244705200195,None,,,,,,,,,,,,,,,,,,111,1,2025-02-25_12h58.14.288,comp,2024.2.4,57.23363521864967,2025-02-25 12h58.27.350298 -0500,
97,97,0,filler_random,None,None,None,None,None,None,None,None,None,None,3,1.1582212448120117,None,,,,,0,0,0,0,0,97,97,135,309.0866985321045,,,,,,,,,,,,,,,,,,,,,,,,,,,,,,,,,,,,,,,,,,,,,,,,,,,,,,,,,,,,,,,,,,,,,,,,,,,,,,,,,78.01278761299936,196.54229008560412,62.44473846114828,117.43204554495941,175.401920725096,128.15216212357865,2.2,2.22,-253,272,0,-254,219,-287,309.0718493461609,309.07192492485046,309.07474184036255,309.0866985321045,309.23780131340027,309.23780131340027,309.23780131340027,309.23780131340027,309.23780131340027,309.23780131340027,309.23780131340027,310.2570414543152,3,1.1582212448120117,None,,,,,,,,,,,,,,,,,,111,1,2025-02-25_12h58.14.288,comp,2024.2.4,57.23363521864967,2025-02-25 12h58.27.350298 -0500,
98,98,0,filler_random,None,None,None,None,None,None,None,None,None,None,3,1.5157263278961182,None,,,,,0,0,0,0,0,98,98,162,310.2736268043518,,,,,,,,,,,,,,,,,,,,,,,,,,,,,,,,,,,,,,,,,,,,,,,,,,,,,,,,,,,,,,,,,,,,,,,,,,,,,,,,,175.62198493660696,140.7970459752094,138.28698342686366,178.75130440413375,189.86853780799868,183.56612800032644,1.0,1.1,-736,254,-480,260,-203,273,310.258752822876,310.258828163147,310.2620105743408,310.2736268043518,310.4215681552887,310.4215681552887,310.4215681552887,310.4215681552887,310.4215681552887,310.4215681552887,310.4215681552887,311.80642890930176,3,1.5157263278961182,None,,,,,,,,,,,,,,,,,,111,1,2025-02-25_12h58.14.288,comp,2024.2.4,57.23363521864967,2025-02-25 12h58.27.350298 -0500,
99,99,0,critical,dwh,35.0,2.1,upper,127.0,127.0,125.0,200.0,200.0,125.0,2,2.895331382751465,None,,,,,0,0,0,0,0,99,99,5,311.8223376274109,,,,,,,,,,,,,,,,,,,,,,,,,,,,,,,,,,,,,,,,,,,,,,,,,,,,,,,,,,,,,,,,,,,,,,,,,,,,,,,,,127.0,127.0,125.0,200.0,200.0,125.0,2.1,2.11,-260,259,0,261,258,-270,311.80793714523315,311.8080139160156,311.81204748153687,311.8223376274109,311.97145438194275,311.97145438194275,311.97145438194275,311.97145438194275,311.97145438194275,311.97145438194275,311.97145438194275,314.72376775741577,2,2.895331382751465,None,,,,,,,,,,,,,,,,,,111,1,2025-02-25_12h58.14.288,comp,2024.2.4,57.23363521864967,2025-02-25 12h58.27.350298 -0500,
100,100,0,filler_square,None,None,None,None,None,None,None,None,None,None,2,1.2974598407745361,None,,,,,0,0,0,0,0,100,100,180,314.73963928222656,,,,,,,,,,,,,,,,,,,,,,,,,,,,,,,,,,,,,,,,,,,,,,,,,,,,,,,,,,,,,,,,,,,,,,,,,,,,,,,,,88.18251116786617,113.60327006953206,127.75129560755678,127.75129560755678,110.04015603527232,88.0451584393604,3.0,3.1,-217,268,0,17,204,-273,314.72552514076233,314.72559881210327,314.72894644737244,314.73963928222656,314.8898751735687,314.8898751735687,314.8898751735687,314.8898751735687,314.8898751735687,314.8898751735687,314.8898751735687,316.04158186912537,2,1.2974598407745361,None,,,,,,,,,,,,,,,,,,111,1,2025-02-25_12h58.14.288,comp,2024.2.4,57.23363521864967,2025-02-25 12h58.27.350298 -0500,
101,101,0,critical,wdh,20.0,2.1,lower,57.0,133.0,78.0,78.0,133.0,57.0,3,2.3721115589141846,None,,,,,0,0,0,0,0,101,101,34,316.0575909614563,,,,,,,,,,,,,,,,,,,,,,,,,,,,,,,,,,,,,,,,,,,,,,,,,,,,,,,,,,,,,,,,,,,,,,,,,,,,,,,,,57.0,133.0,78.0,78.0,133.0,57.0,2.1,2.11,-202,263,0,275,164,-262,316.0432035923004,316.04329895973206,316.04676151275635,316.0575909614563,316.2141034603119,316.2141034603119,316.2141034603119,316.2141034603119,316.2141034603119,316.2141034603119,316.2141034603119,318.4468584060669,3,2.3721115589141846,None,,,,,,,,,,,,,,,,,,111,1,2025-02-25_12h58.14.288,comp,2024.2.4,57.23363521864967,2025-02-25 12h58.27.350298 -0500,
102,102,0,critical,hdw,35.0,1.0,lower,133.0,57.0,70.0,70.0,57.0,133.0,3,1.3591761589050293,None,,,,,0,0,0,0,0,102,102,108,318.46237444877625,,,,,,,,,,,,,,,,,,,,,,,,,,,,,,,,,,,,,,,,,,,,,,,,,,,,,,,,,,,,,,,,,,,,,,,,,,,,,,,,,133.0,57.0,70.0,70.0,57.0,133.0,1.0,1.2,-160,6,0,-15,198,-14,318.448308467865,318.448410987854,318.45124650001526,318.46237444877625,318.6083378791809,318.6083378791809,318.6083378791809,318.6083378791809,318.6083378791809,318.6083378791809,318.6083378791809,319.8408281803131,3,1.3591761589050293,None,,,,,,,,,,,,,,,,,,111,1,2025-02-25_12h58.14.288,comp,2024.2.4,57.23363521864967,2025-02-25 12h58.27.350298 -0500,
103,103,0,critical,hwd,35.0,2.1,lower,133.0,57.0,57.0,133.0,70.0,70.0,1,4.516975164413452,None,,,,,0,0,0,0,0,103,103,16,319.85657954216003,,,,,,,,,,,,,,,,,,,,,,,,,,,,,,,,,,,,,,,,,,,,,,,,,,,,,,,,,,,,,,,,,,,,,,,,,,,,,,,,,133.0,57.0,57.0,133.0,70.0,70.0,2.1,2.11,-191,251,0,255,198,-274,319.84225249290466,319.8423252105713,319.8452548980713,319.85657954216003,319.99593710899353,319.99593710899353,319.99593710899353,319.99593710899353,319.99593710899353,319.99593710899353,319.99593710899353,324.37854862213135,1,4.516975164413452,None,,,,,,,,,,,,,,,,,,111,1,2025-02-25_12h58.14.288,comp,2024.2.4,57.23363521864967,2025-02-25 12h58.27.350298 -0500,
104,104,0,filler_random,None,None,None,None,None,None,None,None,None,None,3,1.353844165802002,None,,,,,0,0,0,0,0,104,104,146,324.3951632976532,,,,,,,,,,,,,,,,,,,,,,,,,,,,,,,,,,,,,,,,,,,,,,,,,,,,,,,,,,,,,,,,,,,,,,,,,,,,,,,,,148.3250276431835,74.99172360798669,158.07233769894856,164.45022653873193,195.49821963487358,160.08645857978598,4.0,4.1,-216,-258,0,3,258,-284,324.3805150985718,324.3805923461914,324.38437700271606,324.3951632976532,324.5440218448639,324.5440218448639,324.5440218448639,324.5440218448639,324.5440218448639,324.5440218448639,324.5440218448639,325.7657587528229,3,1.353844165802002,None,,,,,,,,,,,,,,,,,,111,1,2025-02-25_12h58.14.288,comp,2024.2.4,57.23363521864967,2025-02-25 12h58.27.350298 -0500,
105,105,0,filler_square,None,None,None,None,None,None,None,None,None,None,1,1.5829102993011475,None,,,,,0,0,0,0,0,105,105,195,325.7818727493286,,,,,,,,,,,,,,,,,,,,,,,,,,,,,,,,,,,,,,,,,,,,,,,,,,,,,,,,,,,,,,,,,,,,,,,,,,,,,,,,,138.60996436384193,138.60996436384193,96.69313947872149,85.85403928938199,132.58272786578027,133.603594709797,2.1,2.12,-208,-273,0,-253,206,282,325.7678463459015,325.7679214477539,325.7711024284363,325.7818727493286,325.9277217388153,325.9277217388153,325.9277217388153,325.9277217388153,325.9277217388153,325.9277217388153,325.9277217388153,327.3772737979889,1,1.5829102993011475,None,,,,,,,,,,,,,,,,,,111,1,2025-02-25_12h58.14.288,comp,2024.2.4,57.23363521864967,2025-02-25 12h58.27.350298 -0500,
106,106,0,critical,hwd,35.0,3.0,upper,200.0,125.0,125.0,200.0,127.0,127.0,2,2.8089139461517334,None,,,,,0,0,0,0,0,106,106,99,327.3965311050415,,,,,,,,,,,,,,,,,,,,,,,,,,,,,,,,,,,,,,,,,,,,,,,,,,,,,,,,,,,,,,,,,,,,,,,,,,,,,,,,,200.0,125.0,125.0,200.0,127.0,127.0,3.0,3.2,-258,-283,0,-3,260,271,327.3788273334503,327.37890005111694,327.3819959163666,327.3965311050415,327.54423475265503,327.54423475265503,327.54423475265503,327.54423475265503,327.54423475265503,327.54423475265503,327.54423475265503,330.212500333786,2,2.8089139461517334,None,,,,,,,,,,,,,,,,,,111,1,2025-02-25_12h58.14.288,comp,2024.2.4,57.23363521864967,2025-02-25 12h58.27.350298 -0500,
107,107,0,critical,whd,35.0,3.0,upper,125.0,200.0,200.0,125.0,127.0,127.0,2,2.2163238525390625,None,,,,,0,0,0,0,0,107,107,87,330.2288112640381,,,,,,,,,,,,,,,,,,,,,,,,,,,,,,,,,,,,,,,,,,,,,,,,,,,,,,,,,,,,,,,,,,,,,,,,,,,,,,,,,125.0,200.0,200.0,125.0,127.0,127.0,3.0,3.1,-258,279,0,-19,222,-272,330.21400809288025,330.2140860557556,330.21807527542114,330.2288112640381,330.38441348075867,330.38441348075867,330.38441348075867,330.38441348075867,330.38441348075867,330.38441348075867,330.38441348075867,332.4469985961914,2,2.2163238525390625,None,,,,,,,,,,,,,,,,,,111,1,2025-02-25_12h58.14.288,comp,2024.2.4,57.23363521864967,2025-02-25 12h58.27.350298 -0500,
108,108,0,catch,None,None,None,None,None,None,None,None,None,None,1,1.2054448127746582,None,,,,,0,0,0,0,0,108,108,127,332.4634072780609,,,,,,,,,,,,,,,,,,,,,,,,,,,,,,,,,,,,,,,,,,,,,,,,,,,,,,,,,,,,,,,,,,,,,,,,,,,,,,,,,158,167,88,102,95,95,1.0,1.1,-710,269,-480,284,-286,269,332.44912815093994,332.4492063522339,332.4522352218628,332.4634072780609,332.61404180526733,332.61404180526733,332.61404180526733,332.61404180526733,332.61404180526733,332.61404180526733,332.61404180526733,333.6808817386627,1,1.2054448127746582,None,,,,,,,,,,,,,,,,,,111,1,2025-02-25_12h58.14.288,comp,2024.2.4,57.23363521864967,2025-02-25 12h58.27.350298 -0500,
109,109,0,critical,hdw,20.0,2.1,upper,200.0,125.0,141.0,141.0,125.0,200.0,3,1.767589807510376,None,,,,,0,0,0,0,0,109,109,47,333.7012758255005,,,,,,,,,,,,,,,,,,,,,,,,,,,,,,,,,,,,,,,,,,,,,,,,,,,,,,,,,,,,,,,,,,,,,,,,,,,,,,,,,200.0,125.0,141.0,141.0,125.0,200.0,2.1,2.11,-229,256,0,283,266,-260,333.6824314594269,333.68252301216125,333.6855387687683,333.7012758255005,333.84456753730774,333.84456753730774,333.84456753730774,333.84456753730774,333.84456753730774,333.84456753730774,333.84456753730774,335.4786138534546,3,1.767589807510376,None,,,,,,,,,,,,,,,,,,111,1,2025-02-25_12h58.14.288,comp,2024.2.4,57.23363521864967,2025-02-25 12h58.27.350298 -0500,
110,110,0,critical,wdh,20.0,2.1,upper,125.0,200.0,141.0,141.0,200.0,125.0,1,2.1735126972198486,None,,,,,0,0,0,0,0,110,110,35,335.4954147338867,,,,,,,,,,,,,,,,,,,,,,,,,,,,,,,,,,,,,,,,,,,,,,,,,,,,,,,,,,,,,,,,,,,,,,,,,,,,,,,,,125.0,200.0,141.0,141.0,200.0,125.0,2.1,2.12,-266,-266,0,-262,229,257,335.4801962375641,335.4802711009979,335.48368883132935,335.4954147338867,335.63253712654114,335.63253712654114,335.63253712654114,335.63253712654114,335.63253712654114,335.63253712654114,335.63253712654114,337.688752412796,1,2.1735126972198486,None,,,,,,,,,,,,,,,,,,111,1,2025-02-25_12h58.14.288,comp,2024.2.4,57.23363521864967,2025-02-25 12h58.27.350298 -0500,
111,111,0,critical,hwd,20.0,4.0,upper,200.0,125.0,125.0,200.0,141.0,141.0,2,2.0082554817199707,None,,,,,0,0,0,0,0,111,111,107,337.7090060710907,,,,,,,,,,,,,,,,,,,,,,,,,,,,,,,,,,,,,,,,,,,,,,,,,,,,,,,,,,,,,,,,,,,,,,,,,,,,,,,,,200.0,125.0,125.0,200.0,141.0,141.0,4.0,4.1,-258,-286,0,13,266,-275,337.6903052330017,337.69040966033936,337.6937053203583,337.7090060710907,337.8476982116699,337.8476982116699,337.8476982116699,337.8476982116699,337.8476982116699,337.8476982116699,337.8476982116699,339.72048830986023,2,2.0082554817199707,None,,,,,,,,,,,,,,,,,,111,1,2025-02-25_12h58.14.288,comp,2024.2.4,57.23363521864967,2025-02-25 12h58.27.350298 -0500,
112,112,0,critical,hdw,20.0,3.0,upper,200.0,125.0,141.0,141.0,125.0,200.0,3,1.1735529899597168,None,,,,,0,0,0,0,0,112,112,117,339.73567366600037,,,,,,,,,,,,,,,,,,,,,,,,,,,,,,,,,,,,,,,,,,,,,,,,,,,,,,,,,,,,,,,,,,,,,,,,,,,,,,,,,200.0,125.0,141.0,141.0,125.0,200.0,3.0,3.1,-229,252,0,-13,266,-280,339.7219636440277,339.72203636169434,339.72491550445557,339.73567366600037,339.8821635246277,339.8821635246277,339.8821635246277,339.8821635246277,339.8821635246277,339.8821635246277,339.8821635246277,340.9162173271179,3,1.1735529899597168,None,,,,,,,,,,,,,,,,,,111,1,2025-02-25_12h58.14.288,comp,2024.2.4,57.23363521864967,2025-02-25 12h58.27.350298 -0500,
113,113,0,filler_square,None,None,None,None,None,None,None,None,None,None,3,1.3682851791381836,None,,,,,0,0,0,0,0,113,113,208,340.93273401260376,,,,,,,,,,,,,,,,,,,,,,,,,,,,,,,,,,,,,,,,,,,,,,,,,,,,,,,,,,,,,,,,,,,,,,,,,,,,,,,,,123.25032364981092,97.86762690519603,122.75846041820138,66.37443822254355,124.25535369086195,124.25535369086195,1.0,1.2,-178,18,0,4,191,-19,340.91795682907104,340.91803312301636,340.92195987701416,340.93273401260376,341.08174419403076,341.08174419403076,341.08174419403076,341.08174419403076,341.08174419403076,341.08174419403076,341.08174419403076,342.319637298584,3,1.3682851791381836,None,,,,,,,,,,,,,,,,,,111,1,2025-02-25_12h58.14.288,comp,2024.2.4,57.23363521864967,2025-02-25 12h58.27.350298 -0500,
114,114,0,filler_random,None,None,None,None,None,None,None,None,None,None,1,1.0601215362548828,None,,,,,0,0,0,0,0,114,114,145,342.33693051338196,,,,,,,,,,,,,,,,,,,,,,,,,,,,,,,,,,,,,,,,,,,,,,,,,,,,,,,,,,,,,,,,,,,,,,,,,,,,,,,,,104.50456473050869,153.08507500255942,81.62764464122732,98.5251658019835,71.73345055701637,77.35770258163896,2.2,2.21,-222,-284,0,264,184,258,342.32139563560486,342.32147693634033,342.3242905139923,342.33693051338196,342.48228764533997,342.48228764533997,342.48228764533997,342.48228764533997,342.48228764533997,342.48228764533997,342.48228764533997,343.40929532051086,1,1.0601215362548828,None,,,,,,,,,,,,,,,,,,111,1,2025-02-25_12h58.14.288,comp,2024.2.4,57.23363521864967,2025-02-25 12h58.27.350298 -0500,
115,115,0,critical,hdw,20.0,4.0,lower,133.0,57.0,78.0,78.0,57.0,133.0,3,2.719506025314331,None,,,,,0,0,0,0,0,115,115,118,343.4294250011444,,,,,,,,,,,,,,,,,,,,,,,,,,,,,,,,,,,,,,,,,,,,,,,,,,,,,,,,,,,,,,,,,,,,,,,,,,,,,,,,,133.0,57.0,78.0,78.0,57.0,133.0,4.0,4.1,-164,-274,0,13,202,-277,343.4107542037964,343.41083002090454,343.4137010574341,343.4294250011444,343.5654652118683,343.5654652118683,343.5654652118683,343.5654652118683,343.5654652118683,343.5654652118683,343.5654652118683,346.153080701828,3,2.719506025314331,None,,,,,,,,,,,,,,,,,,111,1,2025-02-25_12h58.14.288,comp,2024.2.4,57.23363521864967,2025-02-25 12h58.27.350298 -0500,
116,116,0,critical,dwh,35.0,1.0,upper,127.0,127.0,125.0,200.0,200.0,125.0,2,2.276524066925049,None,,,,,0,0,0,0,0,116,116,61,346.1690137386322,,,,,,,,,,,,,,,,,,,,,,,,,,,,,,,,,,,,,,,,,,,,,,,,,,,,,,,,,,,,,,,,,,,,,,,,,,,,,,,,,127.0,127.0,125.0,200.0,200.0,125.0,1.0,1.2,-260,3,0,-7,258,2,346.1546461582184,346.15472173690796,346.1581552028656,346.1690137386322,346.31343483924866,346.31343483924866,346.31343483924866,346.31343483924866,346.31343483924866,346.31343483924866,346.31343483924866,348.4544909000397,2,2.276524066925049,None,,,,,,,,,,,,,,,,,,111,1,2025-02-25_12h58.14.288,comp,2024.2.4,57.23363521864967,2025-02-25 12h58.27.350298 -0500,
117,117,0,critical,hwd,20.0,2.1,lower,133.0,57.0,57.0,133.0,78.0,78.0,1,2.863075017929077,None,,,,,0,0,0,0,0,117,117,18,348.47000885009766,,,,,,,,,,,,,,,,,,,,,,,,,,,,,,,,,,,,,,,,,,,,,,,,,,,,,,,,,,,,,,,,,,,,,,,,,,,,,,,,,133.0,57.0,57.0,133.0,78.0,78.0,2.1,2.11,-191,281,0,260,202,-277,348.4564061164856,348.45648312568665,348.45929861068726,348.47000885009766,348.61795711517334,348.61795711517334,348.61795711517334,348.61795711517334,348.61795711517334,348.61795711517334,348.61795711517334,351.3508343696594,1,2.863075017929077,None,,,,,,,,,,,,,,,,,,111,1,2025-02-25_12h58.14.288,comp,2024.2.4,57.23363521864967,2025-02-25 12h58.27.350298 -0500,
118,118,0,catch,None,None,None,None,None,None,None,None,None,None,3,0.9020600318908691,None,,,,,0,0,0,0,0,118,118,122,351.3669319152832,,,,,,,,,,,,,,,,,,,,,,,,,,,,,,,,,,,,,,,,,,,,,,,,,,,,,,,,,,,,,,,,,,,,,,,,,,,,,,,,,83,107,58,132,153,172,2.1,2.11,-216,257,0,283,248,-284,351.3526146411896,351.3526895046234,351.3556408882141,351.3669319152832,351.5204646587372,351.5204646587372,351.5204646587372,351.5204646587372,351.5204646587372,351.5204646587372,351.5204646587372,352.2847104072571,3,0.9020600318908691,None,,,,,,,,,,,,,,,,,,111,1,2025-02-25_12h58.14.288,comp,2024.2.4,57.23363521864967,2025-02-25 12h58.27.350298 -0500,
119,119,0,critical,dhw,20.0,2.1,upper,141.0,141.0,200.0,125.0,125.0,200.0,3,2.239976167678833,None,,,,,0,0,0,0,0,119,119,27,352.3010165691376,,,,,,,,,,,,,,,,,,,,,,,,,,,,,,,,,,,,,,,,,,,,,,,,,,,,,,,,,,,,,,,,,,,,,,,,,,,,,,,,,141.0,141.0,200.0,125.0,125.0,200.0,2.1,2.11,-229,273,0,288,258,-290,352.2862584590912,352.2863311767578,352.28969144821167,352.3010165691376,352.4541666507721,352.4541666507721,352.4541666507721,352.4541666507721,352.4541666507721,352.4541666507721,352.4541666507721,354.55480670928955,3,2.239976167678833,None,,,,,,,,,,,,,,,,,,111,1,2025-02-25_12h58.14.288,comp,2024.2.4,57.23363521864967,2025-02-25 12h58.27.350298 -0500,
120,120,0,filler_random,None,None,None,None,None,None,None,None,None,None,1,2.107471466064453,None,,,,,0,0,0,0,0,120,120,144,354.5697124004364,,,,,,,,,,,,,,,,,,,,,,,,,,,,,,,,,,,,,,,,,,,,,,,,,,,,,,,,,,,,,,,,,,,,,,,,,,,,,,,,,73.35401205630195,182.99241572217738,83.6114141378311,87.40356796800108,125.49255963286909,57.615785270614154,3.0,3.1,-231,284,0,-5,169,-252,354.5564761161804,354.5565507411957,354.559344291687,354.5697124004364,354.72953939437866,354.72953939437866,354.72953939437866,354.72953939437866,354.72953939437866,354.72953939437866,354.72953939437866,356.6898865699768,1,2.107471466064453,None,,,,,,,,,,,,,,,,,,111,1,2025-02-25_12h58.14.288,comp,2024.2.4,57.23363521864967,2025-02-25 12h58.27.350298 -0500,
121,121,0,critical,dhw,35.0,3.0,lower,70.0,70.0,133.0,57.0,57.0,133.0,2,1.8467981815338135,None,,,,,0,0,0,0,0,121,121,50,356.7107570171356,,,,,,,,,,,,,,,,,,,,,,,,,,,,,,,,,,,,,,,,,,,,,,,,,,,,,,,,,,,,,,,,,,,,,,,,,,,,,,,,,70.0,70.0,133.0,57.0,57.0,133.0,3.0,3.2,-160,-277,0,17,191,263,356.6914551258087,356.69154715538025,356.6949813365936,356.7107570171356,356.85367131233215,356.85367131233215,356.85367131233215,356.85367131233215,356.85367131233215,356.85367131233215,356.85367131233215,358.5642874240875,2,1.8467981815338135,None,,,,,,,,,,,,,,,,,,111,1,2025-02-25_12h58.14.288,comp,2024.2.4,57.23363521864967,2025-02-25 12h58.27.350298 -0500,
122,122,0,critical,dwh,35.0,4.0,upper,127.0,127.0,125.0,200.0,200.0,125.0,3,1.2372593879699707,None,,,,,0,0,0,0,0,122,122,65,358.5836720466614,,,,,,,,,,,,,,,,,,,,,,,,,,,,,,,,,,,,,,,,,,,,,,,,,,,,,,,,,,,,,,,,,,,,,,,,,,,,,,,,,127.0,127.0,125.0,200.0,200.0,125.0,4.0,4.1,-260,-275,0,16,258,-287,358.5658185482025,358.5658926963806,358.5687155723572,358.5836720466614,358.7184302806854,358.7184302806854,358.7184302806854,358.7184302806854,358.7184302806854,358.7184302806854,358.7184302806854,359.83730697631836,3,1.2372593879699707,None,,,,,,,,,,,,,,,,,,111,1,2025-02-25_12h58.14.288,comp,2024.2.4,57.23363521864967,2025-02-25 12h58.27.350298 -0500,
123,123,0,critical,dhw,35.0,1.0,upper,127.0,127.0,200.0,125.0,125.0,200.0,3,2.633227825164795,None,,,,,0,0,0,0,0,123,123,49,359.8517084121704,,,,,,,,,,,,,,,,,,,,,,,,,,,,,,,,,,,,,,,,,,,,,,,,,,,,,,,,,,,,,,,,,,,,,,,,,,,,,,,,,127.0,127.0,200.0,125.0,125.0,200.0,1.0,1.2,-222,-10,0,-5,258,-16,359.83845949172974,359.83848786354065,359.83962512016296,359.8517084121704,360.00492548942566,360.00492548942566,360.00492548942566,360.00492548942566,360.00492548942566,360.00492548942566,360.00492548942566,362.48868703842163,3,2.633227825164795,None,,,,,,,,,,,,,,,,,,111,1,2025-02-25_12h58.14.288,comp,2024.2.4,57.23363521864967,2025-02-25 12h58.27.350298 -0500,
124,124,0,critical,whd,20.0,4.0,upper,125.0,200.0,200.0,125.0,141.0,141.0,2,1.508350133895874,None,,,,,0,0,0,0,0,124,124,95,362.5048053264618,,,,,,,,,,,,,,,,,,,,,,,,,,,,,,,,,,,,,,,,,,,,,,,,,,,,,,,,,,,,,,,,,,,,,,,,,,,,,,,,,125.0,200.0,200.0,125.0,141.0,141.0,4.0,4.1,-258,-256,0,13,229,-273,362.49031138420105,362.4904217720032,362.4939193725586,362.5048053264618,362.65852880477905,362.65852880477905,362.65852880477905,362.65852880477905,362.65852880477905,362.65852880477905,362.65852880477905,364.0310573577881,2,1.508350133895874,None,,,,,,,,,,,,,,,,,,111,1,2025-02-25_12h58.14.288,comp,2024.2.4,57.23363521864967,2025-02-25 12h58.27.350298 -0500,
125,125,0,filler_square,None,None,None,None,None,None,None,None,None,None,2,0.9081161022186279,None,,,,,0,0,0,0,0,125,125,196,364.0489890575409,,,,,,,,,,,,,,,,,,,,,,,,,,,,,,,,,,,,,,,,,,,,,,,,,,,,,,,,,,,,,,,,,,,,,,,,,,,,,,,,,60.75664741077907,74.89111376626863,138.90988025981608,138.90988025981608,69.65383105147578,93.07474091219211,1.0,1.2,-203,5,0,6,212,-7,364.03290486335754,364.03303122520447,364.03620624542236,364.0489890575409,364.18596744537354,364.18596744537354,364.18596744537354,364.18596744537354,364.18596744537354,364.18596744537354,364.18596744537354,364.97216057777405,2,0.9081161022186279,None,,,,,,,,,,,,,,,,,,111,1,2025-02-25_12h58.14.288,comp,2024.2.4,57.23363521864967,2025-02-25 12h58.27.350298 -0500,
126,126,0,critical,dhw,35.0,2.1,lower,70.0,70.0,133.0,57.0,57.0,133.0,2,2.081179141998291,None,,,,,0,0,0,0,0,126,126,24,364.98815989494324,,,,,,,,,,,,,,,,,,,,,,,,,,,,,,,,,,,,,,,,,,,,,,,,,,,,,,,,,,,,,,,,,,,,,,,,,,,,,,,,,70.0,70.0,133.0,57.0,57.0,133.0,2.1,2.12,-160,-254,0,-285,191,250,364.97369861602783,364.9737720489502,364.9768524169922,364.98815989494324,365.1359417438507,365.1359417438507,365.1359417438507,365.1359417438507,365.1359417438507,365.1359417438507,365.1359417438507,367.0722997188568,2,2.081179141998291,None,,,,,,,,,,,,,,,,,,111,1,2025-02-25_12h58.14.288,comp,2024.2.4,57.23363521864967,2025-02-25 12h58.27.350298 -0500,
127,127,0,critical,dhw,20.0,1.0,upper,141.0,141.0,200.0,125.0,125.0,200.0,3,1.6849193572998047,None,,,,,0,0,0,0,0,127,127,55,367.0882680416107,,,,,,,,,,,,,,,,,,,,,,,,,,,,,,,,,,,,,,,,,,,,,,,,,,,,,,,,,,,,,,,,,,,,,,,,,,,,,,,,,141.0,141.0,200.0,125.0,125.0,200.0,1.0,1.2,-229,-15,0,12,258,-13,367.07377648353577,367.0738501548767,367.0768086910248,367.0882680416107,367.2376184463501,367.2376184463501,367.2376184463501,367.2376184463501,367.2376184463501,367.2376184463501,367.2376184463501,368.7886459827423,3,1.6849193572998047,None,,,,,,,,,,,,,,,,,,111,1,2025-02-25_12h58.14.288,comp,2024.2.4,57.23363521864967,2025-02-25 12h58.27.350298 -0500,
128,128,0,critical,dwh,20.0,2.1,lower,78.0,78.0,57.0,133.0,133.0,57.0,3,2.256427049636841,None,,,,,0,0,0,0,0,128,128,30,368.8048310279846,,,,,,,,,,,,,,,,,,,,,,,,,,,,,,,,,,,,,,,,,,,,,,,,,,,,,,,,,,,,,,,,,,,,,,,,,,,,,,,,,78.0,78.0,57.0,133.0,133.0,57.0,2.1,2.11,-202,253,0,284,191,-270,368.7901201248169,368.7901933193207,368.79300928115845,368.8048310279846,368.95634293556213,368.95634293556213,368.95634293556213,368.95634293556213,368.95634293556213,368.95634293556213,368.95634293556213,371.0756871700287,3,2.256427049636841,None,,,,,,,,,,,,,,,,,,111,1,2025-02-25_12h58.14.288,comp,2024.2.4,57.23363521864967,2025-02-25 12h58.27.350298 -0500,
129,129,0,filler_square,None,None,None,None,None,None,None,None,None,None,3,1.5633275508880615,None,,,,,0,0,0,0,0,129,129,191,371.09151124954224,,,,,,,,,,,,,,,,,,,,,,,,,,,,,,,,,,,,,,,,,,,,,,,,,,,,,,,,,,,,,,,,,,,,,,,,,,,,,,,,,60.24046399784151,58.83477873315753,68.60305105701818,64.6098036713069,76.4334598713395,76.4334598713395,2.1,2.12,-158,-264,0,-262,167,251,371.0775146484375,371.0776472091675,371.08116006851196,371.09151124954224,371.2391755580902,371.2391755580902,371.2391755580902,371.2391755580902,371.2391755580902,371.2391755580902,371.2391755580902,372.65960359573364,3,1.5633275508880615,None,,,,,,,,,,,,,,,,,,111,1,2025-02-25_12h58.14.288,comp,2024.2.4,57.23363521864967,2025-02-25 12h58.27.350298 -0500,
130,130,0,critical,dwh,20.0,1.0,lower,78.0,78.0,57.0,133.0,133.0,57.0,2,2.1815059185028076,None,,,,,0,0,0,0,0,130,130,66,372.6795575618744,,,,,,,,,,,,,,,,,,,,,,,,,,,,,,,,,,,,,,,,,,,,,,,,,,,,,,,,,,,,,,,,,,,,,,,,,,,,,,,,,78.0,78.0,57.0,133.0,133.0,57.0,1.0,1.2,-202,12,0,-8,191,-13,372.66113471984863,372.6612093448639,372.66449904441833,372.6795575618744,372.8254692554474,372.8254692554474,372.8254692554474,372.8254692554474,372.8254692554474,372.8254692554474,372.8254692554474,374.8757483959198,2,2.1815059185028076,None,,,,,,,,,,,,,,,,,,111,1,2025-02-25_12h58.14.288,comp,2024.2.4,57.23363521864967,2025-02-25 12h58.27.350298 -0500,
131,131,0,critical,hdw,20.0,2.1,lower,133.0,57.0,78.0,78.0,57.0,133.0,3,1.8657329082489014,None,,,,,0,0,0,0,0,131,131,46,374.89133739471436,,,,,,,,,,,,,,,,,,,,,,,,,,,,,,,,,,,,,,,,,,,,,,,,,,,,,,,,,,,,,,,,,,,,,,,,,,,,,,,,,133.0,57.0,78.0,78.0,57.0,133.0,2.1,2.11,-164,276,0,272,202,-252,374.87728238105774,374.8773913383484,374.8804740905762,374.89133739471436,375.04980206489563,375.04980206489563,375.04980206489563,375.04980206489563,375.04980206489563,375.04980206489563,375.04980206489563,376.76164841651917,3,1.8657329082489014,None,,,,,,,,,,,,,,,,,,111,1,2025-02-25_12h58.14.288,comp,2024.2.4,57.23363521864967,2025-02-25 12h58.27.350298 -0500,
132,132,0,filler_square,None,None,None,None,None,None,None,None,None,None,1,0.9292528629302979,None,,,,,0,0,0,0,0,132,132,203,376.7799623012543,,,,,,,,,,,,,,,,,,,,,,,,,,,,,,,,,,,,,,,,,,,,,,,,,,,,,,,,,,,,,,,,,,,,,,,,,,,,,,,,,191.85544978808363,191.85544978808363,109.62986210067727,68.81075050879373,100.84779876947121,99.0073729051796,3.0,3.1,-226,256,0,17,180,-287,376.7638351917267,376.7639682292938,376.767098903656,376.7799623012543,376.92713594436646,376.92713594436646,376.92713594436646,376.92713594436646,376.92713594436646,376.92713594436646,376.92713594436646,377.7138102054596,1,0.9292528629302979,None,,,,,,,,,,,,,,,,,,111,1,2025-02-25_12h58.14.288,comp,2024.2.4,57.23363521864967,2025-02-25 12h58.27.350298 -0500,
133,133,0,critical,wdh,35.0,2.1,upper,125.0,200.0,127.0,127.0,200.0,125.0,1,2.4679794311523438,None,,,,,0,0,0,0,0,133,133,33,377.7290849685669,,,,,,,,,,,,,,,,,,,,,,,,,,,,,,,,,,,,,,,,,,,,,,,,,,,,,,,,,,,,,,,,,,,,,,,,,,,,,,,,,125.0,200.0,127.0,127.0,200.0,125.0,2.1,2.12,-260,-265,0,-276,222,256,377.7156159877777,377.7156915664673,377.7185299396515,377.7290849685669,377.8770899772644,377.8770899772644,377.8770899772644,377.8770899772644,377.8770899772644,377.8770899772644,377.8770899772644,380.2130980491638,1,2.4679794311523438,None,,,,,,,,,,,,,,,,,,111,1,2025-02-25_12h58.14.288,comp,2024.2.4,57.23363521864967,2025-02-25 12h58.27.350298 -0500,
134,134,0,critical,dwh,20.0,3.0,lower,78.0,78.0,57.0,133.0,133.0,57.0,3,1.5760746002197266,None,,,,,0,0,0,0,0,134,134,68,380.22941279411316,,,,,,,,,,,,,,,,,,,,,,,,,,,,,,,,,,,,,,,,,,,,,,,,,,,,,,,,,,,,,,,,,,,,,,,,,,,,,,,,,78.0,78.0,57.0,133.0,133.0,57.0,3.0,3.2,-202,-269,0,-2,191,285,380.2147560119629,380.21485352516174,380.21812534332275,380.22941279411316,380.37737226486206,380.37737226486206,380.37737226486206,380.37737226486206,380.37737226486206,380.37737226486206,380.37737226486206,381.81191635131836,3,1.5760746002197266,None,,,,,,,,,,,,,,,,,,111,1,2025-02-25_12h58.14.288,comp,2024.2.4,57.23363521864967,2025-02-25 12h58.27.350298 -0500,
135,135,0,catch,None,None,None,None,None,None,None,None,None,None,1,1.135796070098877,None,,,,,0,0,0,0,0,135,135,121,381.83773136138916,,,,,,,,,,,,,,,,,,,,,,,,,,,,,,,,,,,,,,,,,,,,,,,,,,,,,,,,,,,,,,,,,,,,,,,,,,,,,,,,,185,140,97,93,95,95,2.2,2.22,-212,257,0,-260,190,-269,381.81380581855774,381.8138794898987,381.81705045700073,381.83773136138916,381.9791102409363,381.9791102409363,381.9791102409363,381.9791102409363,381.9791102409363,381.9791102409363,381.9791102409363,382.9784746170044,1,1.135796070098877,None,,,,,,,,,,,,,,,,,,111,1,2025-02-25_12h58.14.288,comp,2024.2.4,57.23363521864967,2025-02-25 12h58.27.350298 -0500,
136,136,0,critical,whd,35.0,2.1,lower,57.0,133.0,133.0,57.0,70.0,70.0,1,1.6028752326965332,None,,,,,0,0,0,0,0,136,136,12,382.9941375255585,,,,,,,,,,,,,,,,,,,,,,,,,,,,,,,,,,,,,,,,,,,,,,,,,,,,,,,,,,,,,,,,,,,,,,,,,,,,,,,,,57.0,133.0,133.0,57.0,70.0,70.0,2.1,2.11,-191,258,0,254,160,-274,382.97999930381775,382.9800741672516,382.98342990875244,382.9941375255585,383.1450095176697,383.1450095176697,383.1450095176697,383.1450095176697,383.1450095176697,383.1450095176697,383.1450095176697,384.61152243614197,1,1.6028752326965332,None,,,,,,,,,,,,,,,,,,111,1,2025-02-25_12h58.14.288,comp,2024.2.4,57.23363521864967,2025-02-25 12h58.27.350298 -0500,
137,137,0,critical,hwd,20.0,1.0,upper,200.0,125.0,125.0,200.0,141.0,141.0,2,1.9662525653839111,None,,,,,0,0,0,0,0,137,137,103,384.63077211380005,,,,,,,,,,,,,,,,,,,,,,,,,,,,,,,,,,,,,,,,,,,,,,,,,,,,,,,,,,,,,,,,,,,,,,,,,,,,,,,,,200.0,125.0,125.0,200.0,141.0,141.0,1.0,1.2,-258,-16,0,-18,266,14,384.61301255226135,384.61308574676514,384.6162350177765,384.63077211380005,384.77941513061523,384.77941513061523,384.77941513061523,384.77941513061523,384.77941513061523,384.77941513061523,384.77941513061523,386.61299538612366,2,1.9662525653839111,None,,,,,,,,,,,,,,,,,,111,1,2025-02-25_12h58.14.288,comp,2024.2.4,57.23363521864967,2025-02-25 12h58.27.350298 -0500,
138,138,0,critical,hdw,20.0,1.0,lower,133.0,57.0,78.0,78.0,57.0,133.0,3,2.377187728881836,None,,,,,0,0,0,0,0,138,138,114,386.62804341316223,,,,,,,,,,,,,,,,,,,,,,,,,,,,,,,,,,,,,,,,,,,,,,,,,,,,,,,,,,,,,,,,,,,,,,,,,,,,,,,,,133.0,57.0,78.0,78.0,57.0,133.0,1.0,1.3,316,-262,480,-262,682,-261,386.61449098587036,386.61456298828125,386.61768436431885,386.62804341316223,386.78391575813293,386.78391575813293,386.78391575813293,386.78391575813293,386.78391575813293,386.78391575813293,386.78391575813293,389.0153384208679,3,2.377187728881836,None,,,,,,,,,,,,,,,,,,111,1,2025-02-25_12h58.14.288,comp,2024.2.4,57.23363521864967,2025-02-25 12h58.27.350298 -0500,
139,139,0,critical,dwh,20.0,2.1,upper,141.0,141.0,125.0,200.0,200.0,125.0,3,1.9579432010650635,None,,,,,0,0,0,0,0,139,139,31,389.0319423675537,,,,,,,,,,,,,,,,,,,,,,,,,,,,,,,,,,,,,,,,,,,,,,,,,,,,,,,,,,,,,,,,,,,,,,,,,,,,,,,,,141.0,141.0,125.0,200.0,200.0,125.0,2.1,2.11,-266,285,0,262,258,-265,389.0168981552124,389.01701045036316,389.0202000141144,389.0319423675537,389.181663274765,389.181663274765,389.181663274765,389.181663274765,389.181663274765,389.181663274765,389.181663274765,390.99660563468933,3,1.9579432010650635,None,,,,,,,,,,,,,,,,,,111,1,2025-02-25_12h58.14.288,comp,2024.2.4,57.23363521864967,2025-02-25 12h58.27.350298 -0500,
