thisN,thisTrialN,thisRepN,effect,order,distance,config,diag,h_1,w_1,h_2,w_2,h_3,w_3,rect_choice.keys,rect_choice.rt,rect_choice.duration,instructions_loop.thisRepN,instructions_loop.thisTrialN,instructions_loop.thisN,instructions_loop.thisIndex,blocks.thisRepN,blocks.thisTrialN,blocks.thisN,blocks.thisIndex,trials.thisRepN,trials.thisTrialN,trials.thisN,trials.thisIndex,thisRow.t,notes,consent.started,agree_button.started,decline_button.started,consent_img.started,mouse.started,consent.stopped,agree_button.numClicks,agree_button.timesOn,agree_button.timesOff,decline_button.numClicks,decline_button.timesOn,decline_button.timesOff,mouse.x,mouse.y,mouse.leftButton,mouse.midButton,mouse.rightButton,mouse.time,mouse.clicked_name,exp_params.started,exp_params.stopped,welcome.started,welcome_text.started,welcome.stopped,instructions_1.started,instructions_1_text_1.started,instructions_1_text_2.started,key_resp.started,instructions_1.stopped,instructions_loop.key_resp.keys,instructions_loop.key_resp.rt,instructions_loop.key_resp.duration,instructions_2.started,instructions_2_text_1.started,instructions_2_text_2.started,key_resp_2.started,instructions_2.stopped,instructions_loop.key_resp_2.keys,instructions_loop.key_resp_2.rt,instructions_loop.key_resp_2.duration,instructions_3.started,instructions_3_text_1.started,r1_instr3.started,r2_instr3.started,r3_instr3.started,r1_instr3_label.started,r2_instr3_label.started,r3_instr3_label.started,instructions_3_text_3.started,instructions_3_text_4.started,key_resp_3.started,instructions_3.stopped,instructions_loop.key_resp_3.keys,instructions_loop.key_resp_3.rt,instructions_loop.key_resp_3.duration,instructions_4.started,instructions_4_text_1.started,instructions_4_text_3.started,instructions_4_text_2.started,key_resp_4.started,instructions_4.stopped,instructions_loop.key_resp_4.keys,instructions_loop.key_resp_4.rt,instructions_loop.key_resp_4.duration,instructions_5.started,instructions_5_text_1.started,instructions_5_text_2.started,key_resp_5.started,instructions_5.stopped,instructions_loop.key_resp_5.keys,instructions_loop.key_resp_5.rt,instructions_loop.key_resp_5.duration,start_exp.started,start_exp_text.started,key_resp_6.started,start_exp.stopped,key_resp_6.keys,key_resp_6.rt,key_resp_6.duration,h_1_tmp,w_1_tmp,h_2_tmp,w_2_tmp,h_3_tmp,w_3_tmp,config_tmp,config_tmp_1,r_1_x,r_1_y,r_2_x,r_2_y,r_3_x,r_3_y,pre_trial.started,pre_trial.stopped,choice_trial.started,rect_choice.started,r_1.started,r_2.started,r_3.started,r_1_label.started,r_2_label.started,r_3_label.started,prompt.started,choice_trial.stopped,trials.rect_choice.keys,trials.rect_choice.rt,trials.rect_choice.duration,end_block.started,end_block_text.started,end_block.stopped,end.started,end_text.started,key_resp_7.started,end.stopped,key_resp_7.keys,key_resp_7.rt,key_resp_7.duration,debriefing.started,debrief_form.started,end_debrief.started,debriefing.stopped,end_debrief.keys,end_debrief.rt,end_debrief.duration,participant,computer,date,expName,psychopyVersion,frameRate,expStart,
,,,,,,,,,,,,,,,,,,,,,,,,,,,,,,,0.017096281051635742,0.04359078407287598,0.04359078407287598,0.04359078407287598,0.016610383987426758,33.49372386932373,1,[33.44887661933899],[33.448888301849365],0,,,[-73.0],[-496.0],[1],[0],[0],[33.47592282295227],['agree_button'],,,,,,,,,,,,,,,,,,,,,,,,,,,,,,,,,,,,,,,,,,,,,,,,,,,,,,,,,,,,,,,,,,,,,,,,,,,,,,,,,,,,,,,,,,,,,,,,,,,,,,,,,,,112,3,2025-02-25_13h00.09.176,comp,2024.2.4,59.96377272603803,2025-02-25 13h00.20.646612 -0500,
,,,,,,,,,,,,,,,,,,,,,,,,,,,,,,,,,,,,,,,,,,,,,,,,,,33.49398183822632,33.49401617050171,,,,,,,,,,,,,,,,,,,,,,,,,,,,,,,,,,,,,,,,,,,,,,,,,,,,,,,,,,,,,,,,,,,,,,,,,,,,,,,,,,,,,,,,,,,,,,,,,,,,,,,,,112,3,2025-02-25_13h00.09.176,comp,2024.2.4,59.96377272603803,2025-02-25 13h00.20.646612 -0500,
,,,,,,,,,,,,,,,,,,,,,,,,,,,,,,,,,,,,,,,,,,,,,,,,,,,,33.494038343429565,33.50744891166687,35.49623990058899,,,,,,,,,,,,,,,,,,,,,,,,,,,,,,,,,,,,,,,,,,,,,,,,,,,,,,,,,,,,,,,,,,,,,,,,,,,,,,,,,,,,,,,,,,,,,,,,,,,,,,112,3,2025-02-25_13h00.09.176,comp,2024.2.4,59.96377272603803,2025-02-25 13h00.20.646612 -0500,
0,0,0,,,,,,,,,,,,,,,0,0,0,0,,,,,,,,,35.51291823387146,,,,,,,,,,,,,,,,,,,,,,,,,,35.49681615829468,35.51291823387146,35.51291823387146,36.99648356437683,40.43092918395996,space,3.416243553161621,None,40.431010246276855,40.446409463882446,40.446409463882446,41.9462571144104,60.16552448272705,space,18.200512409210205,None,60.16559910774231,60.18715047836304,60.18715047836304,60.18715047836304,60.18715047836304,60.18715047836304,60.18715047836304,60.18715047836304,60.18715047836304,60.18715047836304,61.68033146858215,69.23092937469482,space,7.537205219268799,None,69.23101353645325,69.24628949165344,69.24628949165344,69.24628949165344,70.74600958824158,77.89711594581604,space,7.144456386566162,None,77.8971962928772,77.91288447380066,77.91288447380066,79.41248178482056,80.34675359725952,space,0.9174838066101074,None,80.34686136245728,80.36249017715454,80.36249017715454,81.33011674880981,space,0.9509665966033936,None,,,,,,,,,,,,,,,,,,,,,,,,,,,,,,,,,,,,,,,,,,,,,,,112,3,2025-02-25_13h00.09.176,comp,2024.2.4,59.96377272603803,2025-02-25 13h00.20.646612 -0500,
0,0,0,filler_square,None,None,None,None,None,None,None,None,None,None,3,5.22155237197876,None,,,,,0,0,0,0,0,0,0,204,81.39027857780457,,,,,,,,,,,,,,,,,,,,,,,,,,,,,,,,,,,,,,,,,,,,,,,,,,,,,,,,,,,,,,,,,,,,,,,,,,,,,,,,,67.72584098113947,75.77625255726778,81.71371919303039,60.67878213230682,83.31719970742793,83.31719970742793,2.2,2.21,-164,-260,0,268,168,266,81.37663769721985,81.37668800354004,81.37873458862305,81.39027857780457,81.53581976890564,81.53581976890564,81.53581976890564,81.53581976890564,81.53581976890564,81.53581976890564,81.53581976890564,86.61383032798767,3,5.22155237197876,None,,,,,,,,,,,,,,,,,,112,3,2025-02-25_13h00.09.176,comp,2024.2.4,59.96377272603803,2025-02-25 13h00.20.646612 -0500,
1,1,0,filler_random,None,None,None,None,None,None,None,None,None,None,2,8.108747482299805,None,,,,,0,0,0,0,0,1,1,141,86.62936353683472,,,,,,,,,,,,,,,,,,,,,,,,,,,,,,,,,,,,,,,,,,,,,,,,,,,,,,,,,,,,,,,,,,,,,,,,,,,,,,,,,64.93762108685367,199.35872208508823,121.69058765226606,162.01730459528588,138.39680258184515,131.91944601557503,2.1,2.12,-277,-252,0,-262,243,255,86.61475944519043,86.6148009300232,86.616952419281,86.62936353683472,86.77964210510254,86.77964210510254,86.77964210510254,86.77964210510254,86.77964210510254,86.77964210510254,86.77964210510254,94.74723696708679,2,8.108747482299805,None,,,,,,,,,,,,,,,,,,112,3,2025-02-25_13h00.09.176,comp,2024.2.4,59.96377272603803,2025-02-25 13h00.20.646612 -0500,
2,2,0,catch,None,None,None,None,None,None,None,None,None,None,1,1.9594664573669434,None,,,,,0,0,0,0,0,2,2,122,94.76276993751526,,,,,,,,,,,,,,,,,,,,,,,,,,,,,,,,,,,,,,,,,,,,,,,,,,,,,,,,,,,,,,,,,,,,,,,,,,,,,,,,,197,128,119,71,84,106,2.2,2.21,-196,-272,0,272,184,259,94.74833035469055,94.74837446212769,94.75087332725525,94.76276993751526,94.91273880004883,94.91273880004883,94.91273880004883,94.91273880004883,94.91273880004883,94.91273880004883,94.91273880004883,96.7305166721344,1,1.9594664573669434,None,,,,,,,,,,,,,,,,,,112,3,2025-02-25_13h00.09.176,comp,2024.2.4,59.96377272603803,2025-02-25 13h00.20.646612 -0500,
3,3,0,filler_square,None,None,None,None,None,None,None,None,None,None,2,2.497051477432251,None,,,,,0,0,0,0,0,3,3,172,96.74611735343933,,,,,,,,,,,,,,,,,,,,,,,,,,,,,,,,,,,,,,,,,,,,,,,,,,,,,,,,,,,,,,,,,,,,,,,,,,,,,,,,,79.212688233114,59.646897441440146,104.34319782279505,104.34319782279505,70.19297747690678,88.3874946424901,2.2,2.21,-178,-267,0,255,192,255,96.73151469230652,96.73155879974365,96.73406744003296,96.74611735343933,96.8957884311676,96.8957884311676,96.8957884311676,96.8957884311676,96.8957884311676,96.8957884311676,96.8957884311676,99.24713182449341,2,2.497051477432251,None,,,,,,,,,,,,,,,,,,112,3,2025-02-25_13h00.09.176,comp,2024.2.4,59.96377272603803,2025-02-25 13h00.20.646612 -0500,
4,4,0,filler_square,None,None,None,None,None,None,None,None,None,None,3,2.059389352798462,None,,,,,0,0,0,0,0,4,4,187,99.26269817352295,,,,,,,,,,,,,,,,,,,,,,,,,,,,,,,,,,,,,,,,,,,,,,,,,,,,,,,,,,,,,,,,,,,,,,,,,,,,,,,,,112.2486342796612,135.89876014864424,67.74910300939834,116.64564203014812,146.9561623002786,146.9561623002786,1.0,1.3,258,-280,480,-254,708,-254,99.24831223487854,99.24835538864136,99.25093984603882,99.26269817352295,99.41259384155273,99.41259384155273,99.41259384155273,99.41259384155273,99.41259384155273,99.41259384155273,99.41259384155273,101.33096361160278,3,2.059389352798462,None,,,,,,,,,,,,,,,,,,112,3,2025-02-25_13h00.09.176,comp,2024.2.4,59.96377272603803,2025-02-25 13h00.20.646612 -0500,
5,5,0,critical,hdw,35.0,2.1,upper,200.0,125.0,127.0,127.0,125.0,200.0,3,2.151221752166748,None,,,,,0,0,0,0,0,5,5,21,101.34605717658997,,,,,,,,,,,,,,,,,,,,,,,,,,,,,,,,,,,,,,,,,,,,,,,,,,,,,,,,,,,,,,,,,,,,,,,,,,,,,,,,,200.0,125.0,127.0,127.0,125.0,200.0,2.1,2.11,-222,278,0,288,260,-254,101.33177661895752,101.33181929588318,101.33398818969727,101.34605717658997,101.49603223800659,101.49603223800659,101.49603223800659,101.49603223800659,101.49603223800659,101.49603223800659,101.49603223800659,103.51374745368958,3,2.151221752166748,None,,,,,,,,,,,,,,,,,,112,3,2025-02-25_13h00.09.176,comp,2024.2.4,59.96377272603803,2025-02-25 13h00.20.646612 -0500,
6,6,0,critical,dwh,20.0,4.0,lower,78.0,78.0,57.0,133.0,133.0,57.0,1,7.6779091358184814,None,,,,,0,0,0,0,0,6,6,70,103.53379940986633,,,,,,,,,,,,,,,,,,,,,,,,,,,,,,,,,,,,,,,,,,,,,,,,,,,,,,,,,,,,,,,,,,,,,,,,,,,,,,,,,78.0,78.0,57.0,133.0,133.0,57.0,4.0,4.2,-202,16,0,-275,191,5,103.51452565193176,103.51456618309021,103.51755428314209,103.53379940986633,103.67942929267883,103.67942929267883,103.67942929267883,103.67942929267883,103.67942929267883,103.67942929267883,103.67942929267883,111.21367955207825,1,7.6779091358184814,None,,,,,,,,,,,,,,,,,,112,3,2025-02-25_13h00.09.176,comp,2024.2.4,59.96377272603803,2025-02-25 13h00.20.646612 -0500,
7,7,0,filler_square,None,None,None,None,None,None,None,None,None,None,3,1.725067377090454,None,,,,,0,0,0,0,0,7,7,203,111.22922682762146,,,,,,,,,,,,,,,,,,,,,,,,,,,,,,,,,,,,,,,,,,,,,,,,,,,,,,,,,,,,,,,,,,,,,,,,,,,,,,,,,76.53550371219795,82.08069435501416,68.48452369520551,84.24790554723073,97.55957756352164,97.55957756352164,3.0,3.2,-179,-271,0,8,187,255,111.21464848518372,111.21469259262085,111.21685266494751,111.22922682762146,111.37905669212341,111.37905669212341,111.37905669212341,111.37905669212341,111.37905669212341,111.37905669212341,111.37905669212341,112.96348142623901,3,1.725067377090454,None,,,,,,,,,,,,,,,,,,112,3,2025-02-25_13h00.09.176,comp,2024.2.4,59.96377272603803,2025-02-25 13h00.20.646612 -0500,
8,8,0,critical,dhw,35.0,2.1,upper,127.0,127.0,200.0,125.0,125.0,200.0,3,13.126882076263428,None,,,,,0,0,0,0,0,8,8,1,112.979083776474,,,,,,,,,,,,,,,,,,,,,,,,,,,,,,,,,,,,,,,,,,,,,,,,,,,,,,,,,,,,,,,,,,,,,,,,,,,,,,,,,127.0,127.0,200.0,125.0,125.0,200.0,2.1,2.12,-222,-285,0,-260,258,266,112.96425199508667,112.96429109573364,112.96694660186768,112.979083776474,113.12933039665222,113.12933039665222,113.12933039665222,113.12933039665222,113.12933039665222,113.12933039665222,113.12933039665222,126.11373138427734,3,13.126882076263428,None,,,,,,,,,,,,,,,,,,112,3,2025-02-25_13h00.09.176,comp,2024.2.4,59.96377272603803,2025-02-25 13h00.20.646612 -0500,
9,9,0,critical,hdw,35.0,1.0,lower,133.0,57.0,70.0,70.0,57.0,133.0,3,7.536267042160034,None,,,,,0,0,0,0,0,9,9,108,126.12920427322388,,,,,,,,,,,,,,,,,,,,,,,,,,,,,,,,,,,,,,,,,,,,,,,,,,,,,,,,,,,,,,,,,,,,,,,,,,,,,,,,,133.0,57.0,70.0,70.0,57.0,133.0,1.0,1.2,-160,11,0,4,198,-13,126.11451268196106,126.11455416679382,126.11780786514282,126.12920427322388,126.27886176109314,126.27886176109314,126.27886176109314,126.27886176109314,126.27886176109314,126.27886176109314,126.27886176109314,133.6801393032074,3,7.536267042160034,None,,,,,,,,,,,,,,,,,,112,3,2025-02-25_13h00.09.176,comp,2024.2.4,59.96377272603803,2025-02-25 13h00.20.646612 -0500,
10,10,0,critical,hdw,35.0,2.1,lower,133.0,57.0,70.0,70.0,57.0,133.0,3,1.4836266040802002,None,,,,,0,0,0,0,0,10,10,44,133.69543147087097,,,,,,,,,,,,,,,,,,,,,,,,,,,,,,,,,,,,,,,,,,,,,,,,,,,,,,,,,,,,,,,,,,,,,,,,,,,,,,,,,133.0,57.0,70.0,70.0,57.0,133.0,2.1,2.12,-160,-257,0,-258,198,285,133.6810712814331,133.68111300468445,133.68372058868408,133.69543147087097,133.84598350524902,133.84598350524902,133.84598350524902,133.84598350524902,133.84598350524902,133.84598350524902,133.84598350524902,135.19661140441895,3,1.4836266040802002,None,,,,,,,,,,,,,,,,,,112,3,2025-02-25_13h00.09.176,comp,2024.2.4,59.96377272603803,2025-02-25 13h00.20.646612 -0500,
11,11,0,filler_random,None,None,None,None,None,None,None,None,None,None,2,1.4154365062713623,None,,,,,0,0,0,0,0,11,11,140,135.21209406852722,,,,,,,,,,,,,,,,,,,,,,,,,,,,,,,,,,,,,,,,,,,,,,,,,,,,,,,,,,,,,,,,,,,,,,,,,,,,,,,,,82.46110972325714,128.39367430537487,155.50497704488714,197.25030190904764,106.0507683637229,88.540081978473,1.0,1.2,-259,18,0,-7,239,10,135.19752597808838,135.19756817817688,135.1999683380127,135.21209406852722,135.36234593391418,135.36234593391418,135.36234593391418,135.36234593391418,135.36234593391418,135.36234593391418,135.36234593391418,136.63031673431396,2,1.4154365062713623,None,,,,,,,,,,,,,,,,,,112,3,2025-02-25_13h00.09.176,comp,2024.2.4,59.96377272603803,2025-02-25 13h00.20.646612 -0500,
12,12,0,critical,dhw,20.0,2.1,upper,141.0,141.0,200.0,125.0,125.0,200.0,2,1.5004117488861084,None,,,,,0,0,0,0,0,12,12,27,136.64570903778076,,,,,,,,,,,,,,,,,,,,,,,,,,,,,,,,,,,,,,,,,,,,,,,,,,,,,,,,,,,,,,,,,,,,,,,,,,,,,,,,,141.0,141.0,200.0,125.0,125.0,200.0,2.1,2.12,-229,-267,0,-285,258,283,136.63112235069275,136.63116216659546,136.6337525844574,136.64570903778076,136.79575204849243,136.79575204849243,136.79575204849243,136.79575204849243,136.79575204849243,136.79575204849243,136.79575204849243,138.1635024547577,2,1.5004117488861084,None,,,,,,,,,,,,,,,,,,112,3,2025-02-25_13h00.09.176,comp,2024.2.4,59.96377272603803,2025-02-25 13h00.20.646612 -0500,
13,13,0,catch,None,None,None,None,None,None,None,None,None,None,2,1.5837593078613281,None,,,,,0,0,0,0,0,13,13,125,138.17876720428467,,,,,,,,,,,,,,,,,,,,,,,,,,,,,,,,,,,,,,,,,,,,,,,,,,,,,,,,,,,,,,,,,,,,,,,,,,,,,,,,,104,86,165,160,124,66,4.0,4.2,-219,-17,0,-262,209,0,138.16464924812317,138.16469049453735,138.1670482158661,138.17876720428467,138.32893061637878,138.32893061637878,138.32893061637878,138.32893061637878,138.32893061637878,138.32893061637878,138.32893061637878,139.77999114990234,2,1.5837593078613281,None,,,,,,,,,,,,,,,,,,112,3,2025-02-25_13h00.09.176,comp,2024.2.4,59.96377272603803,2025-02-25 13h00.20.646612 -0500,
14,14,0,critical,dwh,35.0,1.0,lower,70.0,70.0,57.0,133.0,133.0,57.0,2,2.4944708347320557,None,,,,,0,0,0,0,0,14,14,60,139.7953109741211,,,,,,,,,,,,,,,,,,,,,,,,,,,,,,,,,,,,,,,,,,,,,,,,,,,,,,,,,,,,,,,,,,,,,,,,,,,,,,,,,70.0,70.0,57.0,133.0,133.0,57.0,1.0,1.1,-678,277,-480,253,-289,273,139.78079056739807,139.7808301448822,139.7833845615387,139.7953109741211,139.94555139541626,139.94555139541626,139.94555139541626,139.94555139541626,139.94555139541626,139.94555139541626,139.94555139541626,142.29653811454773,2,2.4944708347320557,None,,,,,,,,,,,,,,,,,,112,3,2025-02-25_13h00.09.176,comp,2024.2.4,59.96377272603803,2025-02-25 13h00.20.646612 -0500,
15,15,0,critical,hwd,35.0,2.1,lower,133.0,57.0,57.0,133.0,70.0,70.0,1,3.745593309402466,None,,,,,0,0,0,0,0,15,15,40,142.31238555908203,,,,,,,,,,,,,,,,,,,,,,,,,,,,,,,,,,,,,,,,,,,,,,,,,,,,,,,,,,,,,,,,,,,,,,,,,,,,,,,,,133.0,57.0,57.0,133.0,70.0,70.0,2.1,2.12,-191,-279,0,-268,198,264,142.29732203483582,142.29736137390137,142.2995479106903,142.31238555908203,142.4623212814331,142.4623212814331,142.4623212814331,142.4623212814331,142.4623212814331,142.4623212814331,142.4623212814331,146.06412744522095,1,3.745593309402466,None,,,,,,,,,,,,,,,,,,112,3,2025-02-25_13h00.09.176,comp,2024.2.4,59.96377272603803,2025-02-25 13h00.20.646612 -0500,
16,16,0,filler_square,None,None,None,None,None,None,None,None,None,None,1,1.2183468341827393,None,,,,,0,0,0,0,0,16,16,208,146.0798692703247,,,,,,,,,,,,,,,,,,,,,,,,,,,,,,,,,,,,,,,,,,,,,,,,,,,,,,,,,,,,,,,,,,,,,,,,,,,,,,,,,142.35347070003323,142.35347070003323,128.9407344278377,83.43384412408409,130.28964095205112,62.61320846871346,2.2,2.21,-209,-273,0,281,169,262,146.06508660316467,146.06512713432312,146.06744694709778,146.0798692703247,146.22954678535461,146.22954678535461,146.22954678535461,146.22954678535461,146.22954678535461,146.22954678535461,146.22954678535461,147.3138906955719,1,1.2183468341827393,None,,,,,,,,,,,,,,,,,,112,3,2025-02-25_13h00.09.176,comp,2024.2.4,59.96377272603803,2025-02-25 13h00.20.646612 -0500,
17,17,0,critical,hdw,20.0,2.1,lower,133.0,57.0,78.0,78.0,57.0,133.0,1,3.768092393875122,None,,,,,0,0,0,0,0,17,17,22,147.3288550376892,,,,,,,,,,,,,,,,,,,,,,,,,,,,,,,,,,,,,,,,,,,,,,,,,,,,,,,,,,,,,,,,,,,,,,,,,,,,,,,,,133.0,57.0,78.0,78.0,57.0,133.0,2.1,2.11,-164,280,0,258,202,-274,147.31472897529602,147.31477189064026,147.31692957878113,147.3288550376892,147.4789342880249,147.4789342880249,147.4789342880249,147.4789342880249,147.4789342880249,147.4789342880249,147.4789342880249,151.11327028274536,1,3.768092393875122,None,,,,,,,,,,,,,,,,,,112,3,2025-02-25_13h00.09.176,comp,2024.2.4,59.96377272603803,2025-02-25 13h00.20.646612 -0500,
18,18,0,filler_random,None,None,None,None,None,None,None,None,None,None,1,1.1522181034088135,None,,,,,0,0,0,0,0,18,18,156,151.12875032424927,,,,,,,,,,,,,,,,,,,,,,,,,,,,,,,,,,,,,,,,,,,,,,,,,,,,,,,,,,,,,,,,,,,,,,,,,,,,,,,,,182.23754865173152,193.20919075825236,123.13879276615829,95.68437848910811,66.6478372155736,196.49398581353847,2.1,2.11,-240,271,0,271,242,-263,151.11420249938965,151.11424255371094,151.1162588596344,151.12875032424927,151.27900195121765,151.27900195121765,151.27900195121765,151.27900195121765,151.27900195121765,151.27900195121765,151.27900195121765,152.29668402671814,1,1.1522181034088135,None,,,,,,,,,,,,,,,,,,112,3,2025-02-25_13h00.09.176,comp,2024.2.4,59.96377272603803,2025-02-25 13h00.20.646612 -0500,
19,19,0,catch,None,None,None,None,None,None,None,None,None,None,2,1.1688711643218994,None,,,,,0,0,0,0,0,19,19,124,152.3121213912964,,,,,,,,,,,,,,,,,,,,,,,,,,,,,,,,,,,,,,,,,,,,,,,,,,,,,,,,,,,,,,,,,,,,,,,,,,,,,,,,,114,76,142,183,115,75,4.0,4.2,-226,-9,0,-258,225,-20,152.2977466583252,152.2977900505066,152.29993772506714,152.3121213912964,152.46227097511292,152.46227097511292,152.46227097511292,152.46227097511292,152.46227097511292,152.46227097511292,152.46227097511292,153.49675965309143,2,1.1688711643218994,None,,,,,,,,,,,,,,,,,,112,3,2025-02-25_13h00.09.176,comp,2024.2.4,59.96377272603803,2025-02-25 13h00.20.646612 -0500,
20,20,0,filler_square,None,None,None,None,None,None,None,None,None,None,3,1.930882453918457,None,,,,,0,0,0,0,0,20,20,185,153.51208686828613,,,,,,,,,,,,,,,,,,,,,,,,,,,,,,,,,,,,,,,,,,,,,,,,,,,,,,,,,,,,,,,,,,,,,,,,,,,,,,,,,60.540058527313235,68.85218527060115,61.99533977306791,86.06336433394983,90.08224718302236,90.08224718302236,1.0,1.3,307,-272,480,-274,664,-284,153.49773120880127,153.4977729320526,153.49992084503174,153.51208686828613,153.66218066215515,153.66218066215515,153.66218066215515,153.66218066215515,153.66218066215515,153.66218066215515,153.66218066215515,155.4466414451599,3,1.930882453918457,None,,,,,,,,,,,,,,,,,,112,3,2025-02-25_13h00.09.176,comp,2024.2.4,59.96377272603803,2025-02-25 13h00.20.646612 -0500,
21,21,0,filler_random,None,None,None,None,None,None,None,None,None,None,1,2.1655664443969727,None,,,,,0,0,0,0,0,21,21,159,155.4622151851654,,,,,,,,,,,,,,,,,,,,,,,,,,,,,,,,,,,,,,,,,,,,,,,,,,,,,,,,,,,,,,,,,,,,,,,,,,,,,,,,,185.49338677860447,94.06962891036775,100.81837704664207,80.05141099960164,136.95609126305234,74.8846848640602,2.2,2.22,-183,283,0,-265,173,-290,155.44755125045776,155.44759154319763,155.44975233078003,155.4622151851654,155.61214447021484,155.61214447021484,155.61214447021484,155.61214447021484,155.61214447021484,155.61214447021484,155.61214447021484,157.6302206516266,1,2.1655664443969727,None,,,,,,,,,,,,,,,,,,112,3,2025-02-25_13h00.09.176,comp,2024.2.4,59.96377272603803,2025-02-25 13h00.20.646612 -0500,
22,22,0,critical,dwh,20.0,2.1,upper,141.0,141.0,125.0,200.0,200.0,125.0,2,2.5818488597869873,None,,,,,0,0,0,0,0,22,22,7,157.6455535888672,,,,,,,,,,,,,,,,,,,,,,,,,,,,,,,,,,,,,,,,,,,,,,,,,,,,,,,,,,,,,,,,,,,,,,,,,,,,,,,,,141.0,141.0,125.0,200.0,200.0,125.0,2.1,2.11,-266,267,0,287,258,-276,157.6311616897583,157.63120555877686,157.63369154930115,157.6455535888672,157.79577350616455,157.79577350616455,157.79577350616455,157.79577350616455,157.79577350616455,157.79577350616455,157.79577350616455,160.230238199234,2,2.5818488597869873,None,,,,,,,,,,,,,,,,,,112,3,2025-02-25_13h00.09.176,comp,2024.2.4,59.96377272603803,2025-02-25 13h00.20.646612 -0500,
23,23,0,filler_square,None,None,None,None,None,None,None,None,None,None,1,10.524384498596191,None,,,,,0,0,0,0,0,23,23,198,160.2456178665161,,,,,,,,,,,,,,,,,,,,,,,,,,,,,,,,,,,,,,,,,,,,,,,,,,,,,,,,,,,,,,,,,,,,,,,,,,,,,,,,,57.199962758300856,57.28027677098966,57.308980738927694,57.308980738927694,57.212070345904095,57.093967518521865,1.0,1.2,-153,-9,0,-15,153,-17,160.2312092781067,160.2312526702881,160.23398160934448,160.2456178665161,160.39539551734924,160.39539551734924,160.39539551734924,160.39539551734924,160.39539551734924,160.39539551734924,160.39539551734924,170.78012037277222,1,10.524384498596191,None,,,,,,,,,,,,,,,,,,112,3,2025-02-25_13h00.09.176,comp,2024.2.4,59.96377272603803,2025-02-25 13h00.20.646612 -0500,
24,24,0,critical,hdw,20.0,2.1,lower,133.0,57.0,78.0,78.0,57.0,133.0,3,5.669262170791626,None,,,,,0,0,0,0,0,24,24,46,170.79605650901794,,,,,,,,,,,,,,,,,,,,,,,,,,,,,,,,,,,,,,,,,,,,,,,,,,,,,,,,,,,,,,,,,,,,,,,,,,,,,,,,,133.0,57.0,78.0,78.0,57.0,133.0,2.1,2.11,-164,287,0,266,202,-285,170.78097414970398,170.78101682662964,170.78347253799438,170.79605650901794,170.9457242488861,170.9457242488861,170.9457242488861,170.9457242488861,170.9457242488861,170.9457242488861,170.9457242488861,176.47985434532166,3,5.669262170791626,None,,,,,,,,,,,,,,,,,,112,3,2025-02-25_13h00.09.176,comp,2024.2.4,59.96377272603803,2025-02-25 13h00.20.646612 -0500,
25,25,0,critical,hdw,20.0,2.1,upper,200.0,125.0,141.0,141.0,125.0,200.0,1,2.538205862045288,None,,,,,0,0,0,0,0,25,25,47,176.49515891075134,,,,,,,,,,,,,,,,,,,,,,,,,,,,,,,,,,,,,,,,,,,,,,,,,,,,,,,,,,,,,,,,,,,,,,,,,,,,,,,,,200.0,125.0,141.0,141.0,125.0,200.0,2.1,2.12,-229,-272,0,-265,266,283,176.48067784309387,176.4807186126709,176.48312497138977,176.49515891075134,176.64554023742676,176.64554023742676,176.64554023742676,176.64554023742676,176.64554023742676,176.64554023742676,176.64554023742676,179.04663848876953,1,2.538205862045288,None,,,,,,,,,,,,,,,,,,112,3,2025-02-25_13h00.09.176,comp,2024.2.4,59.96377272603803,2025-02-25 13h00.20.646612 -0500,
26,26,0,critical,hdw,35.0,1.0,upper,200.0,125.0,127.0,127.0,125.0,200.0,3,2.138795852661133,None,,,,,0,0,0,0,0,26,26,109,179.06182169914246,,,,,,,,,,,,,,,,,,,,,,,,,,,,,,,,,,,,,,,,,,,,,,,,,,,,,,,,,,,,,,,,,,,,,,,,,,,,,,,,,200.0,125.0,127.0,127.0,125.0,200.0,1.0,1.2,-222,9,0,-2,260,-15,179.047461271286,179.04750156402588,179.0496633052826,179.06182169914246,179.2123339176178,179.2123339176178,179.2123339176178,179.2123339176178,179.2123339176178,179.2123339176178,179.2123339176178,181.2132465839386,3,2.138795852661133,None,,,,,,,,,,,,,,,,,,112,3,2025-02-25_13h00.09.176,comp,2024.2.4,59.96377272603803,2025-02-25 13h00.20.646612 -0500,
27,27,0,critical,hwd,35.0,4.0,lower,133.0,57.0,57.0,133.0,70.0,70.0,2,5.582624673843384,None,,,,,0,0,0,0,0,27,27,100,181.2284801006317,,,,,,,,,,,,,,,,,,,,,,,,,,,,,,,,,,,,,,,,,,,,,,,,,,,,,,,,,,,,,,,,,,,,,,,,,,,,,,,,,133.0,57.0,57.0,133.0,70.0,70.0,4.0,4.1,-191,-256,0,12,198,-288,181.21402716636658,181.2140667438507,181.21652555465698,181.2284801006317,181.37890887260437,181.37890887260437,181.37890887260437,181.37890887260437,181.37890887260437,181.37890887260437,181.37890887260437,186.82967734336853,2,5.582624673843384,None,,,,,,,,,,,,,,,,,,112,3,2025-02-25_13h00.09.176,comp,2024.2.4,59.96377272603803,2025-02-25 13h00.20.646612 -0500,
28,28,0,critical,dhw,35.0,1.0,upper,127.0,127.0,200.0,125.0,125.0,200.0,3,2.428293466567993,None,,,,,0,0,0,0,0,28,28,49,186.84511709213257,,,,,,,,,,,,,,,,,,,,,,,,,,,,,,,,,,,,,,,,,,,,,,,,,,,,,,,,,,,,,,,,,,,,,,,,,,,,,,,,,127.0,127.0,200.0,125.0,125.0,200.0,1.0,1.1,-702,289,-480,260,-222,274,186.8304750919342,186.83051586151123,186.8329086303711,186.84511709213257,186.9956018924713,186.9956018924713,186.9956018924713,186.9956018924713,186.9956018924713,186.9956018924713,186.9956018924713,189.2800486087799,3,2.428293466567993,None,,,,,,,,,,,,,,,,,,112,3,2025-02-25_13h00.09.176,comp,2024.2.4,59.96377272603803,2025-02-25 13h00.20.646612 -0500,
29,29,0,critical,hdw,35.0,2.1,upper,200.0,125.0,127.0,127.0,125.0,200.0,1,1.8102872371673584,None,,,,,0,0,0,0,0,29,29,45,189.29543137550354,,,,,,,,,,,,,,,,,,,,,,,,,,,,,,,,,,,,,,,,,,,,,,,,,,,,,,,,,,,,,,,,,,,,,,,,,,,,,,,,,200.0,125.0,127.0,127.0,125.0,200.0,2.1,2.12,-222,-280,0,-253,260,272,189.28086495399475,189.28090643882751,189.2835419178009,189.29543137550354,189.44576406478882,189.44576406478882,189.44576406478882,189.44576406478882,189.44576406478882,189.44576406478882,189.44576406478882,191.11321210861206,1,1.8102872371673584,None,,,,,,,,,,,,,,,,,,112,3,2025-02-25_13h00.09.176,comp,2024.2.4,59.96377272603803,2025-02-25 13h00.20.646612 -0500,
30,30,0,critical,hdw,20.0,2.1,upper,200.0,125.0,141.0,141.0,125.0,200.0,1,2.1838488578796387,None,,,,,0,0,0,0,0,30,30,23,191.1288070678711,,,,,,,,,,,,,,,,,,,,,,,,,,,,,,,,,,,,,,,,,,,,,,,,,,,,,,,,,,,,,,,,,,,,,,,,,,,,,,,,,200.0,125.0,141.0,141.0,125.0,200.0,2.1,2.12,-229,-258,0,-260,266,264,191.11409711837769,191.11413979530334,191.11679649353027,191.1288070678711,191.27887725830078,191.27887725830078,191.27887725830078,191.27887725830078,191.27887725830078,191.27887725830078,191.27887725830078,193.32987356185913,1,2.1838488578796387,None,,,,,,,,,,,,,,,,,,112,3,2025-02-25_13h00.09.176,comp,2024.2.4,59.96377272603803,2025-02-25 13h00.20.646612 -0500,
31,31,0,critical,dwh,20.0,1.0,lower,78.0,78.0,57.0,133.0,133.0,57.0,3,1.583674669265747,None,,,,,0,0,0,0,0,31,31,66,193.34546065330505,,,,,,,,,,,,,,,,,,,,,,,,,,,,,,,,,,,,,,,,,,,,,,,,,,,,,,,,,,,,,,,,,,,,,,,,,,,,,,,,,78.0,78.0,57.0,133.0,133.0,57.0,1.0,1.2,-202,18,0,5,191,6,193.33066391944885,193.33070397377014,193.33292722702026,193.34546065330505,193.49526166915894,193.49526166915894,193.49526166915894,193.49526166915894,193.49526166915894,193.49526166915894,193.49526166915894,194.94629764556885,3,1.583674669265747,None,,,,,,,,,,,,,,,,,,112,3,2025-02-25_13h00.09.176,comp,2024.2.4,59.96377272603803,2025-02-25 13h00.20.646612 -0500,
32,32,0,critical,dhw,20.0,3.0,lower,78.0,78.0,133.0,57.0,57.0,133.0,2,1.6868836879730225,None,,,,,0,0,0,0,0,32,32,56,194.961749792099,,,,,,,,,,,,,,,,,,,,,,,,,,,,,,,,,,,,,,,,,,,,,,,,,,,,,,,,,,,,,,,,,,,,,,,,,,,,,,,,,78.0,78.0,133.0,57.0,57.0,133.0,3.0,3.2,-164,-254,0,7,191,256,194.94712281227112,194.94716334342957,194.94927382469177,194.961749792099,195.11176800727844,195.11176800727844,195.11176800727844,195.11176800727844,195.11176800727844,195.11176800727844,195.11176800727844,196.66297602653503,2,1.6868836879730225,None,,,,,,,,,,,,,,,,,,112,3,2025-02-25_13h00.09.176,comp,2024.2.4,59.96377272603803,2025-02-25 13h00.20.646612 -0500,
33,33,0,critical,wdh,35.0,4.0,upper,125.0,200.0,127.0,127.0,200.0,125.0,3,1.9869394302368164,None,,,,,0,0,0,0,0,33,33,77,196.6783812046051,,,,,,,,,,,,,,,,,,,,,,,,,,,,,,,,,,,,,,,,,,,,,,,,,,,,,,,,,,,,,,,,,,,,,,,,,,,,,,,,,125.0,200.0,127.0,127.0,200.0,125.0,4.0,4.1,-260,-272,0,16,222,-251,196.66376495361328,196.6638069152832,196.66630673408508,196.6783812046051,196.82867765426636,196.82867765426636,196.82867765426636,196.82867765426636,196.82867765426636,196.82867765426636,196.82867765426636,198.67994213104248,3,1.9869394302368164,None,,,,,,,,,,,,,,,,,,112,3,2025-02-25_13h00.09.176,comp,2024.2.4,59.96377272603803,2025-02-25 13h00.20.646612 -0500,
34,34,0,critical,whd,20.0,2.1,lower,57.0,133.0,133.0,57.0,78.0,78.0,2,1.7380919456481934,None,,,,,0,0,0,0,0,34,34,38,198.69511151313782,,,,,,,,,,,,,,,,,,,,,,,,,,,,,,,,,,,,,,,,,,,,,,,,,,,,,,,,,,,,,,,,,,,,,,,,,,,,,,,,,57.0,133.0,133.0,57.0,78.0,78.0,2.1,2.12,-191,-288,0,-259,164,262,198.68074107170105,198.6807825565338,198.68317580223083,198.69511151313782,198.8460032939911,198.8460032939911,198.8460032939911,198.8460032939911,198.8460032939911,198.8460032939911,198.8460032939911,200.44622325897217,2,1.7380919456481934,None,,,,,,,,,,,,,,,,,,112,3,2025-02-25_13h00.09.176,comp,2024.2.4,59.96377272603803,2025-02-25 13h00.20.646612 -0500,
35,35,0,critical,hdw,35.0,3.0,lower,133.0,57.0,70.0,70.0,57.0,133.0,1,1.7082984447479248,None,,,,,0,0,0,0,0,35,35,110,200.46161770820618,,,,,,,,,,,,,,,,,,,,,,,,,,,,,,,,,,,,,,,,,,,,,,,,,,,,,,,,,,,,,,,,,,,,,,,,,,,,,,,,,133.0,57.0,70.0,70.0,57.0,133.0,3.0,3.1,-160,281,0,-10,198,-253,200.44704723358154,200.44708728790283,200.44965934753418,200.46161770820618,200.61176776885986,200.61176776885986,200.61176776885986,200.61176776885986,200.61176776885986,200.61176776885986,200.61176776885986,202.17950916290283,1,1.7082984447479248,None,,,,,,,,,,,,,,,,,,112,3,2025-02-25_13h00.09.176,comp,2024.2.4,59.96377272603803,2025-02-25 13h00.20.646612 -0500,
36,36,0,critical,hdw,20.0,4.0,lower,133.0,57.0,78.0,78.0,57.0,133.0,3,2.032137632369995,None,,,,,0,0,0,0,0,36,36,118,202.19528150558472,,,,,,,,,,,,,,,,,,,,,,,,,,,,,,,,,,,,,,,,,,,,,,,,,,,,,,,,,,,,,,,,,,,,,,,,,,,,,,,,,133.0,57.0,78.0,78.0,57.0,133.0,4.0,4.2,-164,-13,0,-267,202,17,202.18031406402588,202.1803548336029,202.18298387527466,202.19528150558472,202.34525418281555,202.34525418281555,202.34525418281555,202.34525418281555,202.34525418281555,202.34525418281555,202.34525418281555,204.22968792915344,3,2.032137632369995,None,,,,,,,,,,,,,,,,,,112,3,2025-02-25_13h00.09.176,comp,2024.2.4,59.96377272603803,2025-02-25 13h00.20.646612 -0500,
37,37,0,critical,whd,20.0,3.0,upper,125.0,200.0,200.0,125.0,141.0,141.0,1,2.076146364212036,None,,,,,0,0,0,0,0,37,37,93,204.24524426460266,,,,,,,,,,,,,,,,,,,,,,,,,,,,,,,,,,,,,,,,,,,,,,,,,,,,,,,,,,,,,,,,,,,,,,,,,,,,,,,,,125.0,200.0,200.0,125.0,141.0,141.0,3.0,3.2,-258,-263,0,-11,229,284,204.23049426078796,204.2305359840393,204.2327618598938,204.24524426460266,204.39533233642578,204.39533233642578,204.39533233642578,204.39533233642578,204.39533233642578,204.39533233642578,204.39533233642578,206.32994508743286,1,2.076146364212036,None,,,,,,,,,,,,,,,,,,112,3,2025-02-25_13h00.09.176,comp,2024.2.4,59.96377272603803,2025-02-25 13h00.20.646612 -0500,
38,38,0,filler_square,None,None,None,None,None,None,None,None,None,None,3,1.0876657962799072,None,,,,,0,0,0,0,0,38,38,199,206.34543561935425,,,,,,,,,,,,,,,,,,,,,,,,,,,,,,,,,,,,,,,,,,,,,,,,,,,,,,,,,,,,,,,,,,,,,,,,,,,,,,,,,184.993630871275,74.4142740994321,178.06652707996523,77.46459639587758,199.73786511695496,199.73786511695496,2.1,2.12,-172,-279,0,-261,235,284,206.33091640472412,206.3309588432312,206.33310890197754,206.34543561935425,206.49529767036438,206.49529767036438,206.49529767036438,206.49529767036438,206.49529767036438,206.49529767036438,206.49529767036438,207.44644117355347,3,1.0876657962799072,None,,,,,,,,,,,,,,,,,,112,3,2025-02-25_13h00.09.176,comp,2024.2.4,59.96377272603803,2025-02-25 13h00.20.646612 -0500,
39,39,0,critical,wdh,35.0,3.0,upper,125.0,200.0,127.0,127.0,200.0,125.0,1,1.5006074905395508,None,,,,,0,0,0,0,0,39,39,75,207.4616470336914,,,,,,,,,,,,,,,,,,,,,,,,,,,,,,,,,,,,,,,,,,,,,,,,,,,,,,,,,,,,,,,,,,,,,,,,,,,,,,,,,125.0,200.0,127.0,127.0,200.0,125.0,3.0,3.2,-260,-254,0,-16,222,280,207.44727754592896,207.4473192691803,207.44991540908813,207.4616470336914,207.61190819740295,207.61190819740295,207.61190819740295,207.61190819740295,207.61190819740295,207.61190819740295,207.61190819740295,208.9797739982605,1,1.5006074905395508,None,,,,,,,,,,,,,,,,,,112,3,2025-02-25_13h00.09.176,comp,2024.2.4,59.96377272603803,2025-02-25 13h00.20.646612 -0500,
40,40,0,filler_random,None,None,None,None,None,None,None,None,None,None,3,1.215881109237671,None,,,,,0,0,0,0,0,40,40,131,208.99503016471863,,,,,,,,,,,,,,,,,,,,,,,,,,,,,,,,,,,,,,,,,,,,,,,,,,,,,,,,,,,,,,,,,,,,,,,,,,,,,,,,,158.10154814900415,117.27794828010443,101.1072033852053,109.32350601690966,161.18304422143956,131.9817339071733,3.0,3.2,-209,-285,0,-14,217,265,208.98070311546326,208.98074555397034,208.98288583755493,208.99503016471863,209.14532709121704,209.14532709121704,209.14532709121704,209.14532709121704,209.14532709121704,209.14532709121704,209.14532709121704,210.2131245136261,3,1.215881109237671,None,,,,,,,,,,,,,,,,,,112,3,2025-02-25_13h00.09.176,comp,2024.2.4,59.96377272603803,2025-02-25 13h00.20.646612 -0500,
41,41,0,filler_random,None,None,None,None,None,None,None,None,None,None,3,1.6681954860687256,None,,,,,0,0,0,0,0,41,41,166,210.2284026145935,,,,,,,,,,,,,,,,,,,,,,,,,,,,,,,,,,,,,,,,,,,,,,,,,,,,,,,,,,,,,,,,,,,,,,,,,,,,,,,,,63.52876847141833,91.60499160575148,89.53475213104912,82.82434932224547,131.96211284096754,68.55937012465807,1.0,1.1,-663,261,-480,265,-308,268,210.214013338089,210.2140531539917,210.2161843776703,210.2284026145935,210.37842202186584,210.37842202186584,210.37842202186584,210.37842202186584,210.37842202186584,210.37842202186584,210.37842202186584,211.91287302970886,3,1.6681954860687256,None,,,,,,,,,,,,,,,,,,112,3,2025-02-25_13h00.09.176,comp,2024.2.4,59.96377272603803,2025-02-25 13h00.20.646612 -0500,
42,42,0,filler_random,None,None,None,None,None,None,None,None,None,None,3,1.1843631267547607,None,,,,,0,0,0,0,0,42,42,146,211.92825603485107,,,,,,,,,,,,,,,,,,,,,,,,,,,,,,,,,,,,,,,,,,,,,,,,,,,,,,,,,,,,,,,,,,,,,,,,,,,,,,,,,160.3988465237543,90.53051353349038,122.06362006580521,114.04771551032064,178.20080092886388,130.45524348425965,1.0,1.2,-198,10,0,-8,218,-2,211.91379380226135,211.91383695602417,211.91633129119873,211.92825603485107,212.07910799980164,212.07910799980164,212.07910799980164,212.07910799980164,212.07910799980164,212.07910799980164,212.07910799980164,213.12978792190552,3,1.1843631267547607,None,,,,,,,,,,,,,,,,,,112,3,2025-02-25_13h00.09.176,comp,2024.2.4,59.96377272603803,2025-02-25 13h00.20.646612 -0500,
43,43,0,critical,whd,35.0,2.1,upper,125.0,200.0,200.0,125.0,127.0,127.0,1,1.6973066329956055,None,,,,,0,0,0,0,0,43,43,37,213.14493989944458,,,,,,,,,,,,,,,,,,,,,,,,,,,,,,,,,,,,,,,,,,,,,,,,,,,,,,,,,,,,,,,,,,,,,,,,,,,,,,,,,125.0,200.0,200.0,125.0,127.0,127.0,2.1,2.11,-258,265,0,287,222,-257,213.13060188293457,213.13066244125366,213.13282537460327,213.14493989944458,213.29523015022278,213.29523015022278,213.29523015022278,213.29523015022278,213.29523015022278,213.29523015022278,213.29523015022278,214.84651637077332,1,1.6973066329956055,None,,,,,,,,,,,,,,,,,,112,3,2025-02-25_13h00.09.176,comp,2024.2.4,59.96377272603803,2025-02-25 13h00.20.646612 -0500,
44,44,0,critical,whd,20.0,2.1,upper,125.0,200.0,200.0,125.0,141.0,141.0,1,1.5802819728851318,None,,,,,0,0,0,0,0,44,44,15,214.86176228523254,,,,,,,,,,,,,,,,,,,,,,,,,,,,,,,,,,,,,,,,,,,,,,,,,,,,,,,,,,,,,,,,,,,,,,,,,,,,,,,,,125.0,200.0,200.0,125.0,141.0,141.0,2.1,2.12,-258,-284,0,-281,229,252,214.84734869003296,214.84739089012146,214.8495409488678,214.86176228523254,215.01229405403137,215.01229405403137,215.01229405403137,215.01229405403137,215.01229405403137,215.01229405403137,215.01229405403137,216.446519613266,1,1.5802819728851318,None,,,,,,,,,,,,,,,,,,112,3,2025-02-25_13h00.09.176,comp,2024.2.4,59.96377272603803,2025-02-25 13h00.20.646612 -0500,
45,45,0,filler_square,None,None,None,None,None,None,None,None,None,None,2,1.2274737358093262,None,,,,,0,0,0,0,0,45,45,181,216.46190118789673,,,,,,,,,,,,,,,,,,,,,,,,,,,,,,,,,,,,,,,,,,,,,,,,,,,,,,,,,,,,,,,,,,,,,,,,,,,,,,,,,159.9775030897918,60.841973132505096,172.8041898417994,172.8041898417994,171.0695053132423,117.36342071796716,3.0,3.1,-213,264,0,-20,241,-261,216.44758558273315,216.44764614105225,216.45000100135803,216.46190118789673,216.61198568344116,216.61198568344116,216.61198568344116,216.61198568344116,216.61198568344116,216.61198568344116,216.61198568344116,217.69653391838074,2,1.2274737358093262,None,,,,,,,,,,,,,,,,,,112,3,2025-02-25_13h00.09.176,comp,2024.2.4,59.96377272603803,2025-02-25 13h00.20.646612 -0500,
46,46,0,critical,hwd,35.0,2.1,upper,200.0,125.0,125.0,200.0,127.0,127.0,1,1.6724231243133545,None,,,,,0,0,0,0,0,46,46,17,217.71186184883118,,,,,,,,,,,,,,,,,,,,,,,,,,,,,,,,,,,,,,,,,,,,,,,,,,,,,,,,,,,,,,,,,,,,,,,,,,,,,,,,,200.0,125.0,125.0,200.0,127.0,127.0,2.1,2.12,-258,-282,0,-251,260,257,217.69735860824585,217.6974015235901,217.69957423210144,217.71186184883118,217.86184167861938,217.86184167861938,217.86184167861938,217.86184167861938,217.86184167861938,217.86184167861938,217.86184167861938,219.39704728126526,1,1.6724231243133545,None,,,,,,,,,,,,,,,,,,112,3,2025-02-25_13h00.09.176,comp,2024.2.4,59.96377272603803,2025-02-25 13h00.20.646612 -0500,
47,47,0,critical,dwh,20.0,2.1,lower,78.0,78.0,57.0,133.0,133.0,57.0,3,1.7669227123260498,None,,,,,0,0,0,0,0,47,47,6,219.41163444519043,,,,,,,,,,,,,,,,,,,,,,,,,,,,,,,,,,,,,,,,,,,,,,,,,,,,,,,,,,,,,,,,,,,,,,,,,,,,,,,,,78.0,78.0,57.0,133.0,133.0,57.0,2.1,2.11,-202,257,0,255,191,-256,219.39786577224731,219.39790844917297,219.39995527267456,219.41163444519043,219.56185722351074,219.56185722351074,219.56185722351074,219.56185722351074,219.56185722351074,219.56185722351074,219.56185722351074,221.19626092910767,3,1.7669227123260498,None,,,,,,,,,,,,,,,,,,112,3,2025-02-25_13h00.09.176,comp,2024.2.4,59.96377272603803,2025-02-25 13h00.20.646612 -0500,
48,48,0,catch,None,None,None,None,None,None,None,None,None,None,1,1.0366778373718262,None,,,,,0,0,0,0,0,48,48,121,221.21189212799072,,,,,,,,,,,,,,,,,,,,,,,,,,,,,,,,,,,,,,,,,,,,,,,,,,,,,,,,,,,,,,,,,,,,,,,,,,,,,,,,,157,168,111,79,90,100,3.0,3.1,-220,256,0,-17,186,-274,221.1973237991333,221.19736623764038,221.2008879184723,221.21189212799072,221.36172246932983,221.36172246932983,221.36172246932983,221.36172246932983,221.36172246932983,221.36172246932983,221.36172246932983,222.2629337310791,1,1.0366778373718262,None,,,,,,,,,,,,,,,,,,112,3,2025-02-25_13h00.09.176,comp,2024.2.4,59.96377272603803,2025-02-25 13h00.20.646612 -0500,
49,49,0,critical,dwh,35.0,2.1,upper,127.0,127.0,125.0,200.0,200.0,125.0,3,1.1059820652008057,None,,,,,0,0,0,0,0,49,49,29,222.27823328971863,,,,,,,,,,,,,,,,,,,,,,,,,,,,,,,,,,,,,,,,,,,,,,,,,,,,,,,,,,,,,,,,,,,,,,,,,,,,,,,,,127.0,127.0,125.0,200.0,200.0,125.0,2.1,2.11,-260,251,0,277,258,-257,222.2638819217682,222.2639229297638,222.2669699192047,222.27823328971863,222.428528547287,222.428528547287,222.428528547287,222.428528547287,222.428528547287,222.428528547287,222.428528547287,223.3968379497528,3,1.1059820652008057,None,,,,,,,,,,,,,,,,,,112,3,2025-02-25_13h00.09.176,comp,2024.2.4,59.96377272603803,2025-02-25 13h00.20.646612 -0500,
50,50,0,critical,wdh,35.0,3.0,lower,57.0,133.0,70.0,70.0,133.0,57.0,1,1.5577640533447266,None,,,,,0,0,0,0,0,50,50,74,223.41167378425598,,,,,,,,,,,,,,,,,,,,,,,,,,,,,,,,,,,,,,,,,,,,,,,,,,,,,,,,,,,,,,,,,,,,,,,,,,,,,,,,,57.0,133.0,70.0,70.0,133.0,57.0,3.0,3.1,-198,257,0,11,160,-274,223.39842915534973,223.39849948883057,223.4007065296173,223.41167378425598,223.56171464920044,223.56171464920044,223.56171464920044,223.56171464920044,223.56171464920044,223.56171464920044,223.56171464920044,224.97938084602356,1,1.5577640533447266,None,,,,,,,,,,,,,,,,,,112,3,2025-02-25_13h00.09.176,comp,2024.2.4,59.96377272603803,2025-02-25 13h00.20.646612 -0500,
51,51,0,filler_random,None,None,None,None,None,None,None,None,None,None,2,1.4318232536315918,None,,,,,0,0,0,0,0,51,51,168,224.99519562721252,,,,,,,,,,,,,,,,,,,,,,,,,,,,,,,,,,,,,,,,,,,,,,,,,,,,,,,,,,,,,,,,,,,,,,,,,,,,,,,,,146.75040547432388,123.46699079689398,133.7093252040487,184.01320961041398,86.00923491162703,172.62199495914763,1.0,1.2,-250,-12,0,-19,274,9,224.9803009033203,224.98034477233887,224.98302626609802,224.99519562721252,225.145085811615,225.145085811615,225.145085811615,225.145085811615,225.145085811615,225.145085811615,225.145085811615,226.42978644371033,2,1.4318232536315918,None,,,,,,,,,,,,,,,,,,112,3,2025-02-25_13h00.09.176,comp,2024.2.4,59.96377272603803,2025-02-25 13h00.20.646612 -0500,
52,52,0,critical,hwd,20.0,2.1,lower,133.0,57.0,57.0,133.0,78.0,78.0,1,5.9339821338653564,None,,,,,0,0,0,0,0,52,52,42,226.44508600234985,,,,,,,,,,,,,,,,,,,,,,,,,,,,,,,,,,,,,,,,,,,,,,,,,,,,,,,,,,,,,,,,,,,,,,,,,,,,,,,,,133.0,57.0,57.0,133.0,78.0,78.0,2.1,2.12,-191,-284,0,-263,202,270,226.43054509162903,226.43058490753174,226.4327540397644,226.44508600234985,226.59501099586487,226.59501099586487,226.59501099586487,226.59501099586487,226.59501099586487,226.59501099586487,226.59501099586487,232.39606761932373,1,5.9339821338653564,None,,,,,,,,,,,,,,,,,,112,3,2025-02-25_13h00.09.176,comp,2024.2.4,59.96377272603803,2025-02-25 13h00.20.646612 -0500,
53,53,0,filler_square,None,None,None,None,None,None,None,None,None,None,2,1.7337672710418701,None,,,,,0,0,0,0,0,53,53,207,232.41149377822876,,,,,,,,,,,,,,,,,,,,,,,,,,,,,,,,,,,,,,,,,,,,,,,,,,,,,,,,,,,,,,,,,,,,,,,,,,,,,,,,,117.36811642711159,101.35090325062954,115.40818866329462,117.63742004958848,117.76656157147366,117.76656157147366,1.0,1.3,275,-271,480,-262,694,-276,232.39705538749695,232.39709758758545,232.39960408210754,232.41149377822876,232.5617320537567,232.5617320537567,232.5617320537567,232.5617320537567,232.5617320537567,232.5617320537567,232.5617320537567,234.162780046463,2,1.7337672710418701,None,,,,,,,,,,,,,,,,,,112,3,2025-02-25_13h00.09.176,comp,2024.2.4,59.96377272603803,2025-02-25 13h00.20.646612 -0500,
54,54,0,catch,None,None,None,None,None,None,None,None,None,None,3,1.391225814819336,None,,,,,0,0,0,0,0,54,54,120,234.17813515663147,,,,,,,,,,,,,,,,,,,,,,,,,,,,,,,,,,,,,,,,,,,,,,,,,,,,,,,,,,,,,,,,,,,,,,,,,,,,,,,,,82,108,102,88,154,171,2.2,2.21,-194,-257,0,258,226,264,234.16384077072144,234.16388392448425,234.1663625240326,234.17813515663147,234.32835054397583,234.32835054397583,234.32835054397583,234.32835054397583,234.32835054397583,234.32835054397583,234.32835054397583,235.57947778701782,3,1.391225814819336,None,,,,,,,,,,,,,,,,,,112,3,2025-02-25_13h00.09.176,comp,2024.2.4,59.96377272603803,2025-02-25 13h00.20.646612 -0500,
55,55,0,filler_square,None,None,None,None,None,None,None,None,None,None,3,1.366887092590332,None,,,,,0,0,0,0,0,55,55,195,235.59509587287903,,,,,,,,,,,,,,,,,,,,,,,,,,,,,,,,,,,,,,,,,,,,,,,,,,,,,,,,,,,,,,,,,,,,,,,,,,,,,,,,,137.28712308057246,96.38889910273917,73.57634142923389,72.69209028387344,173.09970734152017,173.09970734152017,3.0,3.1,-181,282,0,-6,219,-250,235.58045053482056,235.58049392700195,235.58302807807922,235.59509587287903,235.7452573776245,235.7452573776245,235.7452573776245,235.7452573776245,235.7452573776245,235.7452573776245,235.7452573776245,236.97946166992188,3,1.366887092590332,None,,,,,,,,,,,,,,,,,,112,3,2025-02-25_13h00.09.176,comp,2024.2.4,59.96377272603803,2025-02-25 13h00.20.646612 -0500,
56,56,0,critical,hwd,35.0,2.1,lower,133.0,57.0,57.0,133.0,70.0,70.0,1,5.638216972351074,None,,,,,0,0,0,0,0,56,56,16,236.9947578907013,,,,,,,,,,,,,,,,,,,,,,,,,,,,,,,,,,,,,,,,,,,,,,,,,,,,,,,,,,,,,,,,,,,,,,,,,,,,,,,,,133.0,57.0,57.0,133.0,70.0,70.0,2.1,2.12,-191,-266,0,-275,198,284,236.98029112815857,236.98033261299133,236.98295283317566,236.9947578907013,237.1449122428894,237.1449122428894,237.1449122428894,237.1449122428894,237.1449122428894,237.1449122428894,237.1449122428894,242.64607214927673,1,5.638216972351074,None,,,,,,,,,,,,,,,,,,112,3,2025-02-25_13h00.09.176,comp,2024.2.4,59.96377272603803,2025-02-25 13h00.20.646612 -0500,
57,57,0,filler_square,None,None,None,None,None,None,None,None,None,None,2,6.154850244522095,None,,,,,0,0,0,0,0,57,57,178,242.6613528728485,,,,,,,,,,,,,,,,,,,,,,,,,,,,,,,,,,,,,,,,,,,,,,,,,,,,,,,,,,,,,,,,,,,,,,,,,,,,,,,,,65.98593084824284,58.65970344097561,73.75293685985619,73.75293685985619,69.96920382530183,61.133661444047505,2.2,2.22,-162,265,0,-253,163,-267,242.64699792861938,242.64703845977783,242.64947652816772,242.6613528728485,242.81155395507812,242.81155395507812,242.81155395507812,242.81155395507812,242.81155395507812,242.81155395507812,242.81155395507812,248.82922625541687,2,6.154850244522095,None,,,,,,,,,,,,,,,,,,112,3,2025-02-25_13h00.09.176,comp,2024.2.4,59.96377272603803,2025-02-25 13h00.20.646612 -0500,
58,58,0,critical,dwh,20.0,2.1,lower,78.0,78.0,57.0,133.0,133.0,57.0,3,6.012506484985352,None,,,,,0,0,0,0,0,58,58,30,248.84463906288147,,,,,,,,,,,,,,,,,,,,,,,,,,,,,,,,,,,,,,,,,,,,,,,,,,,,,,,,,,,,,,,,,,,,,,,,,,,,,,,,,78.0,78.0,57.0,133.0,133.0,57.0,2.1,2.11,-202,270,0,269,191,-257,248.8300497531891,248.83009314537048,248.83269095420837,248.84463906288147,248.99489784240723,248.99489784240723,248.99489784240723,248.99489784240723,248.99489784240723,248.99489784240723,248.99489784240723,254.86261200904846,3,6.012506484985352,None,,,,,,,,,,,,,,,,,,112,3,2025-02-25_13h00.09.176,comp,2024.2.4,59.96377272603803,2025-02-25 13h00.20.646612 -0500,
59,59,0,filler_square,None,None,None,None,None,None,None,None,None,None,3,1.2107186317443848,None,,,,,0,0,0,0,0,59,59,175,254.87822198867798,,,,,,,,,,,,,,,,,,,,,,,,,,,,,,,,,,,,,,,,,,,,,,,,,,,,,,,,,,,,,,,,,,,,,,,,,,,,,,,,,108.13611945141332,73.576100034028,81.33370473785608,100.09001994507514,127.40691544119487,127.40691544119487,4.0,4.2,-183,-6,0,-266,210,6,254.86353945732117,254.86358046531677,254.8659029006958,254.87822198867798,255.02822256088257,255.02822256088257,255.02822256088257,255.02822256088257,255.02822256088257,255.02822256088257,255.02822256088257,256.0958619117737,3,1.2107186317443848,None,,,,,,,,,,,,,,,,,,112,3,2025-02-25_13h00.09.176,comp,2024.2.4,59.96377272603803,2025-02-25 13h00.20.646612 -0500,
60,60,0,filler_random,None,None,None,None,None,None,None,None,None,None,2,0.9296512603759766,None,,,,,0,0,0,0,0,60,60,134,256.11182594299316,,,,,,,,,,,,,,,,,,,,,,,,,,,,,,,,,,,,,,,,,,,,,,,,,,,,,,,,,,,,,,,,,,,,,,,,,,,,,,,,,104.13496441514658,118.46578330241304,197.63069684519562,138.1327914113927,192.47695757858665,71.60569098881373,2.2,2.22,-224,272,0,-281,201,-275,256.09680557250977,256.09684777259827,256.0990045070648,256.11182594299316,256.2616009712219,256.2616009712219,256.2616009712219,256.2616009712219,256.2616009712219,256.2616009712219,256.2616009712219,257.04611802101135,2,0.9296512603759766,None,,,,,,,,,,,,,,,,,,112,3,2025-02-25_13h00.09.176,comp,2024.2.4,59.96377272603803,2025-02-25 13h00.20.646612 -0500,
61,61,0,critical,hwd,35.0,4.0,upper,200.0,125.0,125.0,200.0,127.0,127.0,1,1.4026541709899902,None,,,,,0,0,0,0,0,61,61,101,257.06151723861694,,,,,,,,,,,,,,,,,,,,,,,,,,,,,,,,,,,,,,,,,,,,,,,,,,,,,,,,,,,,,,,,,,,,,,,,,,,,,,,,,200.0,125.0,125.0,200.0,127.0,127.0,4.0,4.1,-258,-258,0,-19,260,-277,257.04693269729614,257.04697370529175,257.04913210868835,257.06151723861694,257.2117257118225,257.2117257118225,257.2117257118225,257.2117257118225,257.2117257118225,257.2117257118225,257.2117257118225,258.4793179035187,1,1.4026541709899902,None,,,,,,,,,,,,,,,,,,112,3,2025-02-25_13h00.09.176,comp,2024.2.4,59.96377272603803,2025-02-25 13h00.20.646612 -0500,
62,62,0,critical,wdh,20.0,1.0,upper,125.0,200.0,141.0,141.0,200.0,125.0,1,1.201470136642456,None,,,,,0,0,0,0,0,62,62,79,258.4945924282074,,,,,,,,,,,,,,,,,,,,,,,,,,,,,,,,,,,,,,,,,,,,,,,,,,,,,,,,,,,,,,,,,,,,,,,,,,,,,,,,,125.0,200.0,141.0,141.0,200.0,125.0,1.0,1.2,-266,7,0,-13,229,-13,258.48011326789856,258.480153799057,258.4825882911682,258.4945924282074,258.64499735832214,258.64499735832214,258.64499735832214,258.64499735832214,258.64499735832214,258.64499735832214,258.64499735832214,259.71281266212463,1,1.201470136642456,None,,,,,,,,,,,,,,,,,,112,3,2025-02-25_13h00.09.176,comp,2024.2.4,59.96377272603803,2025-02-25 13h00.20.646612 -0500,
63,63,0,critical,dwh,35.0,4.0,upper,127.0,127.0,125.0,200.0,200.0,125.0,2,1.2824678421020508,None,,,,,0,0,0,0,0,63,63,65,259.72805070877075,,,,,,,,,,,,,,,,,,,,,,,,,,,,,,,,,,,,,,,,,,,,,,,,,,,,,,,,,,,,,,,,,,,,,,,,,,,,,,,,,127.0,127.0,125.0,200.0,200.0,125.0,4.0,4.2,-260,-3,0,-288,258,-3,259.7136402130127,259.71368288993835,259.7159218788147,259.72805070877075,259.8783655166626,259.8783655166626,259.8783655166626,259.8783655166626,259.8783655166626,259.8783655166626,259.8783655166626,261.0127820968628,2,1.2824678421020508,None,,,,,,,,,,,,,,,,,,112,3,2025-02-25_13h00.09.176,comp,2024.2.4,59.96377272603803,2025-02-25 13h00.20.646612 -0500,
64,64,0,critical,hwd,20.0,1.0,upper,200.0,125.0,125.0,200.0,141.0,141.0,2,2.4366860389709473,None,,,,,0,0,0,0,0,64,64,103,261.02810621261597,,,,,,,,,,,,,,,,,,,,,,,,,,,,,,,,,,,,,,,,,,,,,,,,,,,,,,,,,,,,,,,,,,,,,,,,,,,,,,,,,200.0,125.0,125.0,200.0,141.0,141.0,1.0,1.2,-258,-9,0,-13,266,3,261.01356077194214,261.0136020183563,261.0158336162567,261.02810621261597,261.1783585548401,261.1783585548401,261.1783585548401,261.1783585548401,261.1783585548401,261.1783585548401,261.1783585548401,263.4793610572815,2,2.4366860389709473,None,,,,,,,,,,,,,,,,,,112,3,2025-02-25_13h00.09.176,comp,2024.2.4,59.96377272603803,2025-02-25 13h00.20.646612 -0500,
65,65,0,critical,dhw,20.0,2.1,upper,141.0,141.0,200.0,125.0,125.0,200.0,2,1.1315195560455322,None,,,,,0,0,0,0,0,65,65,3,263.49457812309265,,,,,,,,,,,,,,,,,,,,,,,,,,,,,,,,,,,,,,,,,,,,,,,,,,,,,,,,,,,,,,,,,,,,,,,,,,,,,,,,,141.0,141.0,200.0,125.0,125.0,200.0,2.1,2.12,-229,-285,0,-280,258,273,263.4801836013794,263.48022389411926,263.48242115974426,263.49457812309265,263.6449155807495,263.6449155807495,263.6449155807495,263.6449155807495,263.6449155807495,263.6449155807495,263.6449155807495,264.6294972896576,2,1.1315195560455322,None,,,,,,,,,,,,,,,,,,112,3,2025-02-25_13h00.09.176,comp,2024.2.4,59.96377272603803,2025-02-25 13h00.20.646612 -0500,
66,66,0,critical,whd,20.0,3.0,lower,57.0,133.0,133.0,57.0,78.0,78.0,2,1.6600754261016846,None,,,,,0,0,0,0,0,66,66,92,264.644770860672,,,,,,,,,,,,,,,,,,,,,,,,,,,,,,,,,,,,,,,,,,,,,,,,,,,,,,,,,,,,,,,,,,,,,,,,,,,,,,,,,57.0,133.0,133.0,57.0,78.0,78.0,3.0,3.2,-191,-266,0,-4,164,271,264.6302876472473,264.63032937049866,264.6324987411499,264.644770860672,264.794780254364,264.794780254364,264.794780254364,264.794780254364,264.794780254364,264.794780254364,264.794780254364,266.3124463558197,2,1.6600754261016846,None,,,,,,,,,,,,,,,,,,112,3,2025-02-25_13h00.09.176,comp,2024.2.4,59.96377272603803,2025-02-25 13h00.20.646612 -0500,
67,67,0,critical,hwd,20.0,2.1,lower,133.0,57.0,57.0,133.0,78.0,78.0,1,2.0248703956604004,None,,,,,0,0,0,0,0,67,67,18,266.3282582759857,,,,,,,,,,,,,,,,,,,,,,,,,,,,,,,,,,,,,,,,,,,,,,,,,,,,,,,,,,,,,,,,,,,,,,,,,,,,,,,,,133.0,57.0,57.0,133.0,78.0,78.0,2.1,2.12,-191,-284,0,-278,202,261,266.3132514953613,266.3132939338684,266.3159010410309,266.3282582759857,266.47805094718933,266.47805094718933,266.47805094718933,266.47805094718933,266.47805094718933,266.47805094718933,266.47805094718933,268.3624515533447,1,2.0248703956604004,None,,,,,,,,,,,,,,,,,,112,3,2025-02-25_13h00.09.176,comp,2024.2.4,59.96377272603803,2025-02-25 13h00.20.646612 -0500,
68,68,0,critical,dhw,35.0,3.0,upper,127.0,127.0,200.0,125.0,125.0,200.0,3,1.3179502487182617,None,,,,,0,0,0,0,0,68,68,51,268.3781292438507,,,,,,,,,,,,,,,,,,,,,,,,,,,,,,,,,,,,,,,,,,,,,,,,,,,,,,,,,,,,,,,,,,,,,,,,,,,,,,,,,127.0,127.0,200.0,125.0,125.0,200.0,3.0,3.2,-222,-252,0,8,258,256,268.36326694488525,268.3633086681366,268.3656029701233,268.3781292438507,268.5283794403076,268.5283794403076,268.5283794403076,268.5283794403076,268.5283794403076,268.5283794403076,268.5283794403076,269.71267652511597,3,1.3179502487182617,None,,,,,,,,,,,,,,,,,,112,3,2025-02-25_13h00.09.176,comp,2024.2.4,59.96377272603803,2025-02-25 13h00.20.646612 -0500,
69,69,0,critical,dhw,35.0,4.0,lower,70.0,70.0,133.0,57.0,57.0,133.0,3,3.0833823680877686,None,,,,,0,0,0,0,0,69,69,52,269.7277898788452,,,,,,,,,,,,,,,,,,,,,,,,,,,,,,,,,,,,,,,,,,,,,,,,,,,,,,,,,,,,,,,,,,,,,,,,,,,,,,,,,70.0,70.0,133.0,57.0,57.0,133.0,4.0,4.1,-160,-284,0,18,191,-274,269.71346950531006,269.7135112285614,269.7158799171448,269.7277898788452,269.877961397171,269.877961397171,269.877961397171,269.877961397171,269.877961397171,269.877961397171,269.877961397171,272.81271743774414,3,3.0833823680877686,None,,,,,,,,,,,,,,,,,,112,3,2025-02-25_13h00.09.176,comp,2024.2.4,59.96377272603803,2025-02-25 13h00.20.646612 -0500,
70,70,0,critical,hdw,35.0,4.0,lower,133.0,57.0,70.0,70.0,57.0,133.0,3,1.219954013824463,None,,,,,0,0,0,0,0,70,70,112,272.82815527915955,,,,,,,,,,,,,,,,,,,,,,,,,,,,,,,,,,,,,,,,,,,,,,,,,,,,,,,,,,,,,,,,,,,,,,,,,,,,,,,,,133.0,57.0,70.0,70.0,57.0,133.0,4.0,4.1,-160,-261,0,-8,198,-271,272.8134903907776,272.8135316371918,272.8156650066376,272.82815527915955,272.9780023097992,272.9780023097992,272.9780023097992,272.9780023097992,272.9780023097992,272.9780023097992,272.9780023097992,274.06259202957153,3,1.219954013824463,None,,,,,,,,,,,,,,,,,,112,3,2025-02-25_13h00.09.176,comp,2024.2.4,59.96377272603803,2025-02-25 13h00.20.646612 -0500,
71,71,0,filler_square,None,None,None,None,None,None,None,None,None,None,1,0.8913767337799072,None,,,,,0,0,0,0,0,71,71,192,274.0781421661377,,,,,,,,,,,,,,,,,,,,,,,,,,,,,,,,,,,,,,,,,,,,,,,,,,,,,,,,,,,,,,,,,,,,,,,,,,,,,,,,,124.49020188835645,124.49020188835645,106.86087714222283,97.78415385280435,64.76115510326689,65.14091759838061,4.0,4.1,-207,-256,0,-3,177,-257,274.0635540485382,274.0635964870453,274.06717252731323,274.0781421661377,274.228063583374,274.228063583374,274.228063583374,274.228063583374,274.228063583374,274.228063583374,274.228063583374,274.97915387153625,1,0.8913767337799072,None,,,,,,,,,,,,,,,,,,112,3,2025-02-25_13h00.09.176,comp,2024.2.4,59.96377272603803,2025-02-25 13h00.20.646612 -0500,
72,72,0,critical,whd,20.0,4.0,lower,57.0,133.0,133.0,57.0,78.0,78.0,1,2.605168581008911,None,,,,,0,0,0,0,0,72,72,94,274.99478030204773,,,,,,,,,,,,,,,,,,,,,,,,,,,,,,,,,,,,,,,,,,,,,,,,,,,,,,,,,,,,,,,,,,,,,,,,,,,,,,,,,57.0,133.0,133.0,57.0,78.0,78.0,4.0,4.2,-191,-20,0,-282,164,0,274.97995138168335,274.97999453544617,274.9824798107147,274.99478030204773,275.14469289779663,275.14469289779663,275.14469289779663,275.14469289779663,275.14469289779663,275.14469289779663,275.14469289779663,277.61255645751953,1,2.605168581008911,None,,,,,,,,,,,,,,,,,,112,3,2025-02-25_13h00.09.176,comp,2024.2.4,59.96377272603803,2025-02-25 13h00.20.646612 -0500,
73,73,0,critical,dhw,35.0,3.0,lower,70.0,70.0,133.0,57.0,57.0,133.0,3,1.1501431465148926,None,,,,,0,0,0,0,0,73,73,50,277.6278736591339,,,,,,,,,,,,,,,,,,,,,,,,,,,,,,,,,,,,,,,,,,,,,,,,,,,,,,,,,,,,,,,,,,,,,,,,,,,,,,,,,70.0,70.0,133.0,57.0,57.0,133.0,3.0,3.1,-160,261,0,-16,191,-279,277.613392829895,277.6134338378906,277.6160976886749,277.6278736591339,277.7779793739319,277.7779793739319,277.7779793739319,277.7779793739319,277.7779793739319,277.7779793739319,277.7779793739319,278.79575514793396,3,1.1501431465148926,None,,,,,,,,,,,,,,,,,,112,3,2025-02-25_13h00.09.176,comp,2024.2.4,59.96377272603803,2025-02-25 13h00.20.646612 -0500,
74,74,0,filler_random,None,None,None,None,None,None,None,None,None,None,2,0.9098539352416992,None,,,,,0,0,0,0,0,74,74,138,278.811154127121,,,,,,,,,,,,,,,,,,,,,,,,,,,,,,,,,,,,,,,,,,,,,,,,,,,,,,,,,,,,,,,,,,,,,,,,,,,,,,,,,102.49393924639816,112.15546623327361,173.4735034777062,140.31258281167294,123.79168333761876,67.38794702531331,3.0,3.2,-222,-275,0,20,200,271,278.7966642379761,278.7967064380646,278.7991313934326,278.811154127121,278.9613707065582,278.9613707065582,278.9613707065582,278.9613707065582,278.9613707065582,278.9613707065582,278.9613707065582,279.72918939590454,2,0.9098539352416992,None,,,,,,,,,,,,,,,,,,112,3,2025-02-25_13h00.09.176,comp,2024.2.4,59.96377272603803,2025-02-25 13h00.20.646612 -0500,
75,75,0,critical,whd,35.0,1.0,lower,57.0,133.0,133.0,57.0,70.0,70.0,2,3.455202579498291,None,,,,,0,0,0,0,0,75,75,84,279.74463748931885,,,,,,,,,,,,,,,,,,,,,,,,,,,,,,,,,,,,,,,,,,,,,,,,,,,,,,,,,,,,,,,,,,,,,,,,,,,,,,,,,57.0,133.0,133.0,57.0,70.0,70.0,1.0,1.2,-191,6,0,19,160,-14,279.7299666404724,279.73000741004944,279.73254442214966,279.74463748931885,279.89461851119995,279.89461851119995,279.89461851119995,279.89461851119995,279.89461851119995,279.89461851119995,279.89461851119995,283.21234250068665,2,3.455202579498291,None,,,,,,,,,,,,,,,,,,112,3,2025-02-25_13h00.09.176,comp,2024.2.4,59.96377272603803,2025-02-25 13h00.20.646612 -0500,
76,76,0,filler_random,None,None,None,None,None,None,None,None,None,None,3,0.9721362590789795,None,,,,,0,0,0,0,0,76,76,142,283.227744102478,,,,,,,,,,,,,,,,,,,,,,,,,,,,,,,,,,,,,,,,,,,,,,,,,,,,,,,,,,,,,,,,,,,,,,,,,,,,,,,,,126.73473382981574,86.78883581260443,169.43422986023467,84.56017746385854,184.98661856123402,188.10656085236707,4.0,4.1,-182,-260,0,-5,232,-282,283.2132112979889,283.21325182914734,283.2152421474457,283.227744102478,283.37803769111633,283.37803769111633,283.37803769111633,283.37803769111633,283.37803769111633,283.37803769111633,283.37803769111633,284.21254873275757,3,0.9721362590789795,None,,,,,,,,,,,,,,,,,,112,3,2025-02-25_13h00.09.176,comp,2024.2.4,59.96377272603803,2025-02-25 13h00.20.646612 -0500,
77,77,0,critical,hdw,35.0,4.0,upper,200.0,125.0,127.0,127.0,125.0,200.0,1,1.5720837116241455,None,,,,,0,0,0,0,0,77,77,113,284.227721452713,,,,,,,,,,,,,,,,,,,,,,,,,,,,,,,,,,,,,,,,,,,,,,,,,,,,,,,,,,,,,,,,,,,,,,,,,,,,,,,,,200.0,125.0,127.0,127.0,125.0,200.0,4.0,4.1,-222,-282,0,14,260,-270,284.2133710384369,284.2134130001068,284.21554946899414,284.227721452713,284.378071308136,284.378071308136,284.378071308136,284.378071308136,284.378071308136,284.378071308136,284.378071308136,285.81254863739014,1,1.5720837116241455,None,,,,,,,,,,,,,,,,,,112,3,2025-02-25_13h00.09.176,comp,2024.2.4,59.96377272603803,2025-02-25 13h00.20.646612 -0500,
78,78,0,filler_square,None,None,None,None,None,None,None,None,None,None,3,1.0362181663513184,None,,,,,0,0,0,0,0,78,78,205,285.827757358551,,,,,,,,,,,,,,,,,,,,,,,,,,,,,,,,,,,,,,,,,,,,,,,,,,,,,,,,,,,,,,,,,,,,,,,,,,,,,,,,,91.3244030771042,93.83402390154369,164.7499224959787,161.5413333781865,192.96088552338045,192.96088552338045,2.1,2.12,-224,-280,0,-280,273,260,285.8135232925415,285.8135666847229,285.81596398353577,285.827757358551,285.97808265686035,285.97808265686035,285.97808265686035,285.97808265686035,285.97808265686035,285.97808265686035,285.97808265686035,286.87929463386536,3,1.0362181663513184,None,,,,,,,,,,,,,,,,,,112,3,2025-02-25_13h00.09.176,comp,2024.2.4,59.96377272603803,2025-02-25 13h00.20.646612 -0500,
79,79,0,filler_square,None,None,None,None,None,None,None,None,None,None,2,3.2103052139282227,None,,,,,0,0,0,0,0,79,79,189,286.8944911956787,,,,,,,,,,,,,,,,,,,,,,,,,,,,,,,,,,,,,,,,,,,,,,,,,,,,,,,,,,,,,,,,,,,,,,,,,,,,,,,,,76.07807628331464,58.986387326806934,83.60225939131782,83.60225939131782,57.24228919297013,80.7008123351785,2.2,2.22,-167,256,0,-273,178,-266,286.88026905059814,286.8803105354309,286.8828077316284,286.8944911956787,287.0446038246155,287.0446038246155,287.0446038246155,287.0446038246155,287.0446038246155,287.0446038246155,287.0446038246155,290.1122682094574,2,3.2103052139282227,None,,,,,,,,,,,,,,,,,,112,3,2025-02-25_13h00.09.176,comp,2024.2.4,59.96377272603803,2025-02-25 13h00.20.646612 -0500,
80,80,0,critical,dwh,35.0,4.0,lower,70.0,70.0,57.0,133.0,133.0,57.0,3,2.792612075805664,None,,,,,0,0,0,0,0,80,80,64,290.12810945510864,,,,,,,,,,,,,,,,,,,,,,,,,,,,,,,,,,,,,,,,,,,,,,,,,,,,,,,,,,,,,,,,,,,,,,,,,,,,,,,,,70.0,70.0,57.0,133.0,133.0,57.0,4.0,4.1,-198,-254,0,14,191,-270,290.1130495071411,290.1130909919739,290.11563539505005,290.12810945510864,290.27804684638977,290.27804684638977,290.27804684638977,290.27804684638977,290.27804684638977,290.27804684638977,290.27804684638977,292.92892575263977,3,2.792612075805664,None,,,,,,,,,,,,,,,,,,112,3,2025-02-25_13h00.09.176,comp,2024.2.4,59.96377272603803,2025-02-25 13h00.20.646612 -0500,
81,81,0,filler_square,None,None,None,None,None,None,None,None,None,None,2,2.192033052444458,None,,,,,0,0,0,0,0,81,81,193,292.94465589523315,,,,,,,,,,,,,,,,,,,,,,,,,,,,,,,,,,,,,,,,,,,,,,,,,,,,,,,,,,,,,,,,,,,,,,,,,,,,,,,,,68.98202986092355,81.09949813727457,128.03532029492715,128.03532029492715,122.29311068506443,123.04928325635377,1.0,1.1,-681,273,-480,260,-258,253,292.9299216270447,292.929963350296,292.932471036911,292.94465589523315,293.09455370903015,293.09455370903015,293.09455370903015,293.09455370903015,293.09455370903015,293.09455370903015,293.09455370903015,295.1456489562988,2,2.192033052444458,None,,,,,,,,,,,,,,,,,,112,3,2025-02-25_13h00.09.176,comp,2024.2.4,59.96377272603803,2025-02-25 13h00.20.646612 -0500,
82,82,0,filler_random,None,None,None,None,None,None,None,None,None,None,2,1.8546340465545654,None,,,,,0,0,0,0,0,82,82,160,295.16128945350647,,,,,,,,,,,,,,,,,,,,,,,,,,,,,,,,,,,,,,,,,,,,,,,,,,,,,,,,,,,,,,,,,,,,,,,,,,,,,,,,,114.34463775489216,143.6591376869977,136.86728716680935,170.6086785783727,63.04977544262775,168.63711192291396,3.0,3.1,-253,254,0,-7,266,-250,295.14659667015076,295.14664936065674,295.1491029262543,295.16128945350647,295.31127762794495,295.31127762794495,295.31127762794495,295.31127762794495,295.31127762794495,295.31127762794495,295.31127762794495,297.02912163734436,2,1.8546340465545654,None,,,,,,,,,,,,,,,,,,112,3,2025-02-25_13h00.09.176,comp,2024.2.4,59.96377272603803,2025-02-25 13h00.20.646612 -0500,
83,83,0,filler_square,None,None,None,None,None,None,None,None,None,None,3,5.251472473144531,None,,,,,0,0,0,0,0,83,83,188,297.04443192481995,,,,,,,,,,,,,,,,,,,,,,,,,,,,,,,,,,,,,,,,,,,,,,,,,,,,,,,,,,,,,,,,,,,,,,,,,,,,,,,,,59.70742082437253,57.20299690278693,62.8759865064956,61.716925663339566,63.240213720023895,63.240213720023895,3.0,3.2,-155,-267,0,-5,158,268,297.0300943851471,297.03013730049133,297.0326066017151,297.04443192481995,297.19451546669006,297.19451546669006,297.19451546669006,297.19451546669006,297.19451546669006,297.19451546669006,297.19451546669006,302.31223487854004,3,5.251472473144531,None,,,,,,,,,,,,,,,,,,112,3,2025-02-25_13h00.09.176,comp,2024.2.4,59.96377272603803,2025-02-25 13h00.20.646612 -0500,
84,84,0,filler_random,None,None,None,None,None,None,None,None,None,None,1,2.288116455078125,None,,,,,0,0,0,0,0,84,84,163,302.3277142047882,,,,,,,,,,,,,,,,,,,,,,,,,,,,,,,,,,,,,,,,,,,,,,,,,,,,,,,,,,,,,,,,,,,,,,,,,,,,,,,,,172.47388562359137,138.6311081587487,61.11773319069574,197.21405696476134,119.27271553795194,124.24894404498455,4.0,4.2,-264,-14,0,-288,257,-18,302.3131377696991,302.3131787776947,302.3157923221588,302.3277142047882,302.4778940677643,302.4778940677643,302.4778940677643,302.4778940677643,302.4778940677643,302.4778940677643,302.4778940677643,304.62914061546326,1,2.288116455078125,None,,,,,,,,,,,,,,,,,,112,3,2025-02-25_13h00.09.176,comp,2024.2.4,59.96377272603803,2025-02-25 13h00.20.646612 -0500,
85,85,0,critical,dwh,35.0,2.1,upper,127.0,127.0,125.0,200.0,200.0,125.0,3,3.1714553833007812,None,,,,,0,0,0,0,0,85,85,5,304.64436197280884,,,,,,,,,,,,,,,,,,,,,,,,,,,,,,,,,,,,,,,,,,,,,,,,,,,,,,,,,,,,,,,,,,,,,,,,,,,,,,,,,127.0,127.0,125.0,200.0,200.0,125.0,2.1,2.12,-260,-255,0,-285,258,265,304.629949092865,304.6299889087677,304.63241624832153,304.64436197280884,304.79502177238464,304.79502177238464,304.79502177238464,304.79502177238464,304.79502177238464,304.79502177238464,304.79502177238464,307.8290650844574,3,3.1714553833007812,None,,,,,,,,,,,,,,,,,,112,3,2025-02-25_13h00.09.176,comp,2024.2.4,59.96377272603803,2025-02-25 13h00.20.646612 -0500,
86,86,0,filler_random,None,None,None,None,None,None,None,None,None,None,3,3.1716368198394775,None,,,,,0,0,0,0,0,86,86,151,307.8443043231964,,,,,,,,,,,,,,,,,,,,,,,,,,,,,,,,,,,,,,,,,,,,,,,,,,,,,,,,,,,,,,,,,,,,,,,,,,,,,,,,,80.51956413548702,146.59644525620612,125.52453494147083,96.06028618567845,119.4659350842518,134.89184760795675,4.0,4.1,-217,-251,0,8,211,-282,307.8299903869629,307.83003187179565,307.83251214027405,307.8443043231964,307.99441146850586,307.99441146850586,307.99441146850586,307.99441146850586,307.99441146850586,307.99441146850586,307.99441146850586,311.0289967060089,3,3.1716368198394775,None,,,,,,,,,,,,,,,,,,112,3,2025-02-25_13h00.09.176,comp,2024.2.4,59.96377272603803,2025-02-25 13h00.20.646612 -0500,
87,87,0,filler_square,None,None,None,None,None,None,None,None,None,None,2,1.1004266738891602,None,,,,,0,0,0,0,0,87,87,184,311.0443277359009,,,,,,,,,,,,,,,,,,,,,,,,,,,,,,,,,,,,,,,,,,,,,,,,,,,,,,,,,,,,,,,,,,,,,,,,,,,,,,,,,58.74831325660788,66.50019186042604,146.4095711381998,146.4095711381998,127.9662068756162,78.0163546162058,2.1,2.12,-202,-252,0,-269,208,253,311.0299746990204,311.0300166606903,311.03253412246704,311.0443277359009,311.1943516731262,311.1943516731262,311.1943516731262,311.1943516731262,311.1943516731262,311.1943516731262,311.1943516731262,312.1622335910797,2,1.1004266738891602,None,,,,,,,,,,,,,,,,,,112,3,2025-02-25_13h00.09.176,comp,2024.2.4,59.96377272603803,2025-02-25 13h00.20.646612 -0500,
88,88,0,filler_random,None,None,None,None,None,None,None,None,None,None,2,3.358854293823242,None,,,,,0,0,0,0,0,88,88,135,312.1776452064514,,,,,,,,,,,,,,,,,,,,,,,,,,,,,,,,,,,,,,,,,,,,,,,,,,,,,,,,,,,,,,,,,,,,,,,,,,,,,,,,,112.58413437054702,133.99719587800934,143.25990106916564,126.14098430520245,151.86185442685922,106.20528183794511,1.0,1.2,-226,20,0,16,212,8,312.1631209850311,312.16316175460815,312.1657729148865,312.1776452064514,312.3279860019684,312.3279860019684,312.3279860019684,312.3279860019684,312.3279860019684,312.3279860019684,312.3279860019684,315.5455701351166,2,3.358854293823242,None,,,,,,,,,,,,,,,,,,112,3,2025-02-25_13h00.09.176,comp,2024.2.4,59.96377272603803,2025-02-25 13h00.20.646612 -0500,
89,89,0,filler_square,None,None,None,None,None,None,None,None,None,None,1,1.1029448509216309,None,,,,,0,0,0,0,0,89,89,191,315.5611777305603,,,,,,,,,,,,,,,,,,,,,,,,,,,,,,,,,,,,,,,,,,,,,,,,,,,,,,,,,,,,,,,,,,,,,,,,,,,,,,,,,194.33983120956714,194.33983120956714,121.35170735828116,153.48963952994387,85.85031050696963,82.55068227611972,1.0,1.3,210,-260,480,-254,694,-282,315.54652643203735,315.54656744003296,315.5487365722656,315.5611777305603,315.71153593063354,315.71153593063354,315.71153593063354,315.71153593063354,315.71153593063354,315.71153593063354,315.71153593063354,316.67892932891846,1,1.1029448509216309,None,,,,,,,,,,,,,,,,,,112,3,2025-02-25_13h00.09.176,comp,2024.2.4,59.96377272603803,2025-02-25 13h00.20.646612 -0500,
90,90,0,critical,dhw,20.0,1.0,lower,78.0,78.0,133.0,57.0,57.0,133.0,3,2.153674602508545,None,,,,,0,0,0,0,0,90,90,54,316.6941285133362,,,,,,,,,,,,,,,,,,,,,,,,,,,,,,,,,,,,,,,,,,,,,,,,,,,,,,,,,,,,,,,,,,,,,,,,,,,,,,,,,78.0,78.0,133.0,57.0,57.0,133.0,1.0,1.1,-644,273,-480,270,-289,252,316.6797125339508,316.67975330352783,316.68218898773193,316.6941285133362,316.8443386554718,316.8443386554718,316.8443386554718,316.8443386554718,316.8443386554718,316.8443386554718,316.8443386554718,318.8621702194214,3,2.153674602508545,None,,,,,,,,,,,,,,,,,,112,3,2025-02-25_13h00.09.176,comp,2024.2.4,59.96377272603803,2025-02-25 13h00.20.646612 -0500,
91,91,0,filler_square,None,None,None,None,None,None,None,None,None,None,1,4.921981573104858,None,,,,,0,0,0,0,0,91,91,180,318.87757563591003,,,,,,,,,,,,,,,,,,,,,,,,,,,,,,,,,,,,,,,,,,,,,,,,,,,,,,,,,,,,,,,,,,,,,,,,,,,,,,,,,112.33449202616086,112.33449202616086,108.3117981369426,108.91391708521422,95.14156248187751,77.50421845837366,3.0,3.2,-207,-267,0,1,189,265,318.8631353378296,318.8631772994995,318.86567783355713,318.87757563591003,319.0277364253998,319.0277364253998,319.0277364253998,319.0277364253998,319.0277364253998,319.0277364253998,319.0277364253998,323.81216526031494,1,4.921981573104858,None,,,,,,,,,,,,,,,,,,112,3,2025-02-25_13h00.09.176,comp,2024.2.4,59.96377272603803,2025-02-25 13h00.20.646612 -0500,
92,92,0,filler_random,None,None,None,None,None,None,None,None,None,None,3,2.4447977542877197,None,,,,,0,0,0,0,0,92,92,136,323.8276162147522,,,,,,,,,,,,,,,,,,,,,,,,,,,,,,,,,,,,,,,,,,,,,,,,,,,,,,,,,,,,,,,,,,,,,,,,,,,,,,,,,156.03693428586627,87.32179645234858,71.70046896745558,140.31611490807254,97.72547582961613,134.53468227302335,3.0,3.1,-210,287,0,5,233,-265,323.8131067752838,323.81314873695374,323.8156635761261,323.8276162147522,323.9778401851654,323.9778401851654,323.9778401851654,323.9778401851654,323.9778401851654,323.9778401851654,323.9778401851654,326.27877044677734,3,2.4447977542877197,None,,,,,,,,,,,,,,,,,,112,3,2025-02-25_13h00.09.176,comp,2024.2.4,59.96377272603803,2025-02-25 13h00.20.646612 -0500,
93,93,0,filler_random,None,None,None,None,None,None,None,None,None,None,3,2.1379387378692627,None,,,,,0,0,0,0,0,93,93,152,326.294353723526,,,,,,,,,,,,,,,,,,,,,,,,,,,,,,,,,,,,,,,,,,,,,,,,,,,,,,,,,,,,,,,,,,,,,,,,,,,,,,,,,108.38880026859374,139.8335501886084,99.39806232504323,189.60172241218194,176.14062527041258,105.02218733987671,2.2,2.22,-261,285,0,-255,243,-283,326.27968525886536,326.27972745895386,326.2821807861328,326.294353723526,326.44452810287476,326.44452810287476,326.44452810287476,326.44452810287476,326.44452810287476,326.44452810287476,326.44452810287476,328.44549655914307,3,2.1379387378692627,None,,,,,,,,,,,,,,,,,,112,3,2025-02-25_13h00.09.176,comp,2024.2.4,59.96377272603803,2025-02-25 13h00.20.646612 -0500,
94,94,0,critical,wdh,20.0,2.1,upper,125.0,200.0,141.0,141.0,200.0,125.0,1,1.434906244277954,None,,,,,0,0,0,0,0,94,94,11,328.46080017089844,,,,,,,,,,,,,,,,,,,,,,,,,,,,,,,,,,,,,,,,,,,,,,,,,,,,,,,,,,,,,,,,,,,,,,,,,,,,,,,,,125.0,200.0,141.0,141.0,200.0,125.0,2.1,2.12,-266,-285,0,-257,229,276,328.44630670547485,328.4463472366333,328.44900703430176,328.46080017089844,328.61115074157715,328.61115074157715,328.61115074157715,328.61115074157715,328.61115074157715,328.61115074157715,328.61115074157715,329.9122304916382,1,1.434906244277954,None,,,,,,,,,,,,,,,,,,112,3,2025-02-25_13h00.09.176,comp,2024.2.4,59.96377272603803,2025-02-25 13h00.20.646612 -0500,
95,95,0,filler_square,None,None,None,None,None,None,None,None,None,None,3,1.2170195579528809,None,,,,,0,0,0,0,0,95,95,173,329.92769145965576,,,,,,,,,,,,,,,,,,,,,,,,,,,,,,,,,,,,,,,,,,,,,,,,,,,,,,,,,,,,,,,,,,,,,,,,,,,,,,,,,124.88555265781147,146.50999494726392,129.87485667107296,91.44061596838415,156.59806058380588,156.59806058380588,2.1,2.11,-215,289,0,277,220,-286,329.9132196903229,329.9132606983185,329.91588950157166,329.92769145965576,330.0778794288635,330.0778794288635,330.0778794288635,330.0778794288635,330.0778794288635,330.0778794288635,330.0778794288635,331.14581871032715,3,1.2170195579528809,None,,,,,,,,,,,,,,,,,,112,3,2025-02-25_13h00.09.176,comp,2024.2.4,59.96377272603803,2025-02-25 13h00.20.646612 -0500,
96,96,0,filler_random,None,None,None,None,None,None,None,None,None,None,2,1.4795942306518555,None,,,,,0,0,0,0,0,96,96,167,331.1609637737274,,,,,,,,,,,,,,,,,,,,,,,,,,,,,,,,,,,,,,,,,,,,,,,,,,,,,,,,,,,,,,,,,,,,,,,,,,,,,,,,,173.5539283268274,184.19927356588306,171.272431434362,181.27550017760854,123.53736833419805,120.65871424849028,3.0,3.2,-279,-286,0,-18,247,253,331.14669466018677,331.14675736427307,331.14945936203003,331.1609637737274,331.3114449977875,331.3114449977875,331.3114449977875,331.3114449977875,331.3114449977875,331.3114449977875,331.3114449977875,332.6457350254059,2,1.4795942306518555,None,,,,,,,,,,,,,,,,,,112,3,2025-02-25_13h00.09.176,comp,2024.2.4,59.96377272603803,2025-02-25 13h00.20.646612 -0500,
97,97,0,critical,dwh,35.0,2.1,lower,70.0,70.0,57.0,133.0,133.0,57.0,2,2.4915616512298584,None,,,,,0,0,0,0,0,97,97,4,332.66110277175903,,,,,,,,,,,,,,,,,,,,,,,,,,,,,,,,,,,,,,,,,,,,,,,,,,,,,,,,,,,,,,,,,,,,,,,,,,,,,,,,,70.0,70.0,57.0,133.0,133.0,57.0,2.1,2.11,-198,259,0,280,191,-272,332.64650988578796,332.64655208587646,332.64875197410583,332.66110277175903,332.8108084201813,332.8108084201813,332.8108084201813,332.8108084201813,332.8108084201813,332.8108084201813,332.8108084201813,335.1621699333191,2,2.4915616512298584,None,,,,,,,,,,,,,,,,,,112,3,2025-02-25_13h00.09.176,comp,2024.2.4,59.96377272603803,2025-02-25 13h00.20.646612 -0500,
98,98,0,critical,wdh,35.0,2.1,lower,57.0,133.0,70.0,70.0,133.0,57.0,3,2.117915153503418,None,,,,,0,0,0,0,0,98,98,32,335.17774844169617,,,,,,,,,,,,,,,,,,,,,,,,,,,,,,,,,,,,,,,,,,,,,,,,,,,,,,,,,,,,,,,,,,,,,,,,,,,,,,,,,57.0,133.0,70.0,70.0,133.0,57.0,2.1,2.12,-198,-258,0,-252,160,281,335.16299772262573,335.16304087638855,335.16552233695984,335.17774844169617,335.32763600349426,335.32763600349426,335.32763600349426,335.32763600349426,335.32763600349426,335.32763600349426,335.32763600349426,337.3120846748352,3,2.117915153503418,None,,,,,,,,,,,,,,,,,,112,3,2025-02-25_13h00.09.176,comp,2024.2.4,59.96377272603803,2025-02-25 13h00.20.646612 -0500,
99,99,0,catch,None,None,None,None,None,None,None,None,None,None,3,0.936058759689331,None,,,,,0,0,0,0,0,99,99,128,337.3274953365326,,,,,,,,,,,,,,,,,,,,,,,,,,,,,,,,,,,,,,,,,,,,,,,,,,,,,,,,,,,,,,,,,,,,,,,,,,,,,,,,,118,72,74,116,161,164,1.0,1.3,290,-258,480,-267,716,-284,337.31314420700073,337.3131856918335,337.3156554698944,337.3274953365326,337.4776620864868,337.4776620864868,337.4776620864868,337.4776620864868,337.4776620864868,337.4776620864868,337.4776620864868,338.27877044677734,3,0.936058759689331,None,,,,,,,,,,,,,,,,,,112,3,2025-02-25_13h00.09.176,comp,2024.2.4,59.96377272603803,2025-02-25 13h00.20.646612 -0500,
100,100,0,filler_random,None,None,None,None,None,None,None,None,None,None,2,1.362168550491333,None,,,,,0,0,0,0,0,100,100,155,338.2941963672638,,,,,,,,,,,,,,,,,,,,,,,,,,,,,,,,,,,,,,,,,,,,,,,,,,,,,,,,,,,,,,,,,,,,,,,,,,,,,,,,,74.0752667350836,162.35670895398164,131.85324047330596,123.89608556574721,71.97850907879892,177.93272452101155,4.0,4.2,-239,-14,0,-269,247,5,338.2797040939331,338.2797465324402,338.28187584877014,338.2941963672638,338.44428396224976,338.44428396224976,338.44428396224976,338.44428396224976,338.44428396224976,338.44428396224976,338.44428396224976,339.66211891174316,2,1.362168550491333,None,,,,,,,,,,,,,,,,,,112,3,2025-02-25_13h00.09.176,comp,2024.2.4,59.96377272603803,2025-02-25 13h00.20.646612 -0500,
101,101,0,critical,dhw,35.0,2.1,lower,70.0,70.0,133.0,57.0,57.0,133.0,3,2.121917247772217,None,,,,,0,0,0,0,0,101,101,24,339.6775920391083,,,,,,,,,,,,,,,,,,,,,,,,,,,,,,,,,,,,,,,,,,,,,,,,,,,,,,,,,,,,,,,,,,,,,,,,,,,,,,,,,70.0,70.0,133.0,57.0,57.0,133.0,2.1,2.11,-160,264,0,261,191,-259,339.66292095184326,339.6629629135132,339.6653962135315,339.6775920391083,339.82768297195435,339.82768297195435,339.82768297195435,339.82768297195435,339.82768297195435,339.82768297195435,339.82768297195435,341.81200098991394,3,2.121917247772217,None,,,,,,,,,,,,,,,,,,112,3,2025-02-25_13h00.09.176,comp,2024.2.4,59.96377272603803,2025-02-25 13h00.20.646612 -0500,
102,102,0,critical,dwh,20.0,1.0,upper,141.0,141.0,125.0,200.0,200.0,125.0,3,2.493072032928467,None,,,,,0,0,0,0,0,102,102,67,341.82731008529663,,,,,,,,,,,,,,,,,,,,,,,,,,,,,,,,,,,,,,,,,,,,,,,,,,,,,,,,,,,,,,,,,,,,,,,,,,,,,,,,,141.0,141.0,125.0,200.0,200.0,125.0,1.0,1.2,-266,19,0,18,258,-7,341.8127887248993,341.8128299713135,341.8153009414673,341.82731008529663,341.9777901172638,341.9777901172638,341.9777901172638,341.9777901172638,341.9777901172638,341.9777901172638,341.9777901172638,344.32892417907715,3,2.493072032928467,None,,,,,,,,,,,,,,,,,,112,3,2025-02-25_13h00.09.176,comp,2024.2.4,59.96377272603803,2025-02-25 13h00.20.646612 -0500,
103,103,0,critical,dhw,20.0,4.0,upper,141.0,141.0,200.0,125.0,125.0,200.0,3,3.633582592010498,None,,,,,0,0,0,0,0,103,103,59,344.3443012237549,,,,,,,,,,,,,,,,,,,,,,,,,,,,,,,,,,,,,,,,,,,,,,,,,,,,,,,,,,,,,,,,,,,,,,,,,,,,,,,,,141.0,141.0,200.0,125.0,125.0,200.0,4.0,4.2,-229,10,0,-267,258,19,344.32973432540894,344.3297772407532,344.3321831226349,344.3443012237549,344.4945614337921,344.4945614337921,344.4945614337921,344.4945614337921,344.4945614337921,344.4945614337921,344.4945614337921,347.99561834335327,3,3.633582592010498,None,,,,,,,,,,,,,,,,,,112,3,2025-02-25_13h00.09.176,comp,2024.2.4,59.96377272603803,2025-02-25 13h00.20.646612 -0500,
104,104,0,filler_random,None,None,None,None,None,None,None,None,None,None,1,1.9728121757507324,None,,,,,0,0,0,0,0,104,104,164,348.01066160202026,,,,,,,,,,,,,,,,,,,,,,,,,,,,,,,,,,,,,,,,,,,,,,,,,,,,,,,,,,,,,,,,,,,,,,,,,,,,,,,,,195.27358059213702,126.06090823035667,137.69238661274693,153.90470822488533,151.92271533492058,92.61083241206396,2.1,2.12,-236,-258,0,-280,219,268,347.9965136051178,347.9965546131134,347.99886178970337,348.01066160202026,348.16104674339294,348.16104674339294,348.16104674339294,348.16104674339294,348.16104674339294,348.16104674339294,348.16104674339294,349.9959692955017,1,1.9728121757507324,None,,,,,,,,,,,,,,,,,,112,3,2025-02-25_13h00.09.176,comp,2024.2.4,59.96377272603803,2025-02-25 13h00.20.646612 -0500,
105,105,0,critical,whd,20.0,2.1,lower,57.0,133.0,133.0,57.0,78.0,78.0,1,3.350219488143921,None,,,,,0,0,0,0,0,105,105,14,350.0107731819153,,,,,,,,,,,,,,,,,,,,,,,,,,,,,,,,,,,,,,,,,,,,,,,,,,,,,,,,,,,,,,,,,,,,,,,,,,,,,,,,,57.0,133.0,133.0,57.0,78.0,78.0,2.1,2.12,-191,-288,0,-284,164,289,349.99677896499634,349.9968202114105,349.99897742271423,350.0107731819153,350.1607530117035,350.1607530117035,350.1607530117035,350.1607530117035,350.1607530117035,350.1607530117035,350.1607530117035,353.36208939552307,1,3.350219488143921,None,,,,,,,,,,,,,,,,,,112,3,2025-02-25_13h00.09.176,comp,2024.2.4,59.96377272603803,2025-02-25 13h00.20.646612 -0500,
106,106,0,filler_square,None,None,None,None,None,None,None,None,None,None,3,1.9428939819335938,None,,,,,0,0,0,0,0,106,106,209,353.3775517940521,,,,,,,,,,,,,,,,,,,,,,,,,,,,,,,,,,,,,,,,,,,,,,,,,,,,,,,,,,,,,,,,,,,,,,,,,,,,,,,,,88.23677686149595,88.23677686149595,79.1350149516761,66.20438017856662,81.64250560106775,82.72843447986983,2.1,2.11,-173,260,0,272,170,-276,353.3630516529083,353.3630931377411,353.3655023574829,353.3775517940521,353.5275456905365,353.5275456905365,353.5275456905365,353.5275456905365,353.5275456905365,353.5275456905365,353.5275456905365,355.32849502563477,3,1.9428939819335938,None,,,,,,,,,,,,,,,,,,112,3,2025-02-25_13h00.09.176,comp,2024.2.4,59.96377272603803,2025-02-25 13h00.20.646612 -0500,
107,107,0,critical,dwh,35.0,3.0,upper,127.0,127.0,125.0,200.0,200.0,125.0,3,1.728057861328125,None,,,,,0,0,0,0,0,107,107,63,355.34425473213196,,,,,,,,,,,,,,,,,,,,,,,,,,,,,,,,,,,,,,,,,,,,,,,,,,,,,,,,,,,,,,,,,,,,,,,,,,,,,,,,,127.0,127.0,125.0,200.0,200.0,125.0,3.0,3.2,-260,-278,0,6,258,289,355.3293240070343,355.32936668395996,355.3320560455322,355.34425473213196,355.49429726600647,355.49429726600647,355.49429726600647,355.49429726600647,355.49429726600647,355.49429726600647,355.49429726600647,357.07866764068604,3,1.728057861328125,None,,,,,,,,,,,,,,,,,,112,3,2025-02-25_13h00.09.176,comp,2024.2.4,59.96377272603803,2025-02-25 13h00.20.646612 -0500,
108,108,0,filler_random,None,None,None,None,None,None,None,None,None,None,1,1.633864402770996,None,,,,,0,0,0,0,0,108,108,137,357.0942211151123,,,,,,,,,,,,,,,,,,,,,,,,,,,,,,,,,,,,,,,,,,,,,,,,,,,,,,,,,,,,,,,,,,,,,,,,,,,,,,,,,182.0406536670441,127.34735639599707,124.39975512225828,177.59386268513998,126.53777283079924,103.64915553625147,1.0,1.1,-728,276,-480,251,-243,285,357.07956099510193,357.07960271835327,357.0817811489105,357.0942211151123,357.24433183670044,357.24433183670044,357.24433183670044,357.24433183670044,357.24433183670044,357.24433183670044,357.24433183670044,358.74531173706055,1,1.633864402770996,None,,,,,,,,,,,,,,,,,,112,3,2025-02-25_13h00.09.176,comp,2024.2.4,59.96377272603803,2025-02-25 13h00.20.646612 -0500,
109,109,0,filler_square,None,None,None,None,None,None,None,None,None,None,1,1.5032968521118164,None,,,,,0,0,0,0,0,109,109,197,358.7606508731842,,,,,,,,,,,,,,,,,,,,,,,,,,,,,,,,,,,,,,,,,,,,,,,,,,,,,,,,,,,,,,,,,,,,,,,,,,,,,,,,,102.41649639352107,102.41649639352107,61.43676713816309,65.80815969663968,78.85529007038011,69.46801761740684,3.0,3.1,-180,258,0,-5,164,-272,358.7462520599365,358.7462913990021,358.7488327026367,358.7606508731842,358.9110085964203,358.9110085964203,358.9110085964203,358.9110085964203,358.9110085964203,358.9110085964203,358.9110085964203,360.27844429016113,1,1.5032968521118164,None,,,,,,,,,,,,,,,,,,112,3,2025-02-25_13h00.09.176,comp,2024.2.4,59.96377272603803,2025-02-25 13h00.20.646612 -0500,
110,110,0,filler_random,None,None,None,None,None,None,None,None,None,None,2,7.674748420715332,None,,,,,0,0,0,0,0,110,110,158,360.29393339157104,,,,,,,,,,,,,,,,,,,,,,,,,,,,,,,,,,,,,,,,,,,,,,,,,,,,,,,,,,,,,,,,,,,,,,,,,,,,,,,,,121.52433434034546,100.9284135171983,100.26070703921897,183.2678976559966,129.82629422986048,67.34322261678173,4.0,4.2,-238,8,0,-268,221,-6,360.27936601638794,360.27940917015076,360.2820293903351,360.29393339157104,360.44425320625305,360.44425320625305,360.44425320625305,360.44425320625305,360.44425320625305,360.44425320625305,360.44425320625305,367.97848296165466,2,7.674748420715332,None,,,,,,,,,,,,,,,,,,112,3,2025-02-25_13h00.09.176,comp,2024.2.4,59.96377272603803,2025-02-25 13h00.20.646612 -0500,
111,111,0,critical,hwd,20.0,3.0,lower,133.0,57.0,57.0,133.0,78.0,78.0,1,1.750075101852417,None,,,,,0,0,0,0,0,111,111,104,367.9941899776459,,,,,,,,,,,,,,,,,,,,,,,,,,,,,,,,,,,,,,,,,,,,,,,,,,,,,,,,,,,,,,,,,,,,,,,,,,,,,,,,,133.0,57.0,57.0,133.0,78.0,78.0,3.0,3.1,-191,288,0,0,202,-263,367.9793152809143,367.97935700416565,367.98202204704285,367.9941899776459,368.14411211013794,368.14411211013794,368.14411211013794,368.14411211013794,368.14411211013794,368.14411211013794,368.14411211013794,369.7618293762207,1,1.750075101852417,None,,,,,,,,,,,,,,,,,,112,3,2025-02-25_13h00.09.176,comp,2024.2.4,59.96377272603803,2025-02-25 13h00.20.646612 -0500,
112,112,0,filler_square,None,None,None,None,None,None,None,None,None,None,2,5.15903377532959,None,,,,,0,0,0,0,0,112,112,194,369.77721118927,,,,,,,,,,,,,,,,,,,,,,,,,,,,,,,,,,,,,,,,,,,,,,,,,,,,,,,,,,,,,,,,,,,,,,,,,,,,,,,,,62.81981888375976,58.997827300610915,70.98159857854023,70.98159857854023,70.66933899412207,66.14698660508711,2.1,2.11,-161,255,0,259,165,-273,369.7627980709076,369.7628405094147,369.7652442455292,369.77721118927,369.92729115486145,369.92729115486145,369.92729115486145,369.92729115486145,369.92729115486145,369.92729115486145,369.92729115486145,374.94497323036194,2,5.15903377532959,None,,,,,,,,,,,,,,,,,,112,3,2025-02-25_13h00.09.176,comp,2024.2.4,59.96377272603803,2025-02-25 13h00.20.646612 -0500,
113,113,0,filler_square,None,None,None,None,None,None,None,None,None,None,1,1.3838739395141602,None,,,,,0,0,0,0,0,113,113,206,374.9607803821564,,,,,,,,,,,,,,,,,,,,,,,,,,,,,,,,,,,,,,,,,,,,,,,,,,,,,,,,,,,,,,,,,,,,,,,,,,,,,,,,,180.30373367130193,180.30373367130193,175.89234309860322,92.11896415485855,97.06065944504678,76.79444489057535,3.0,3.2,-232,-266,0,-2,180,263,374.9459595680237,374.94600224494934,374.94853353500366,374.9607803821564,375.1108341217041,375.1108341217041,375.1108341217041,375.1108341217041,375.1108341217041,375.1108341217041,375.1108341217041,376.36196088790894,1,1.3838739395141602,None,,,,,,,,,,,,,,,,,,112,3,2025-02-25_13h00.09.176,comp,2024.2.4,59.96377272603803,2025-02-25 13h00.20.646612 -0500,
114,114,0,filler_random,None,None,None,None,None,None,None,None,None,None,3,3.016942262649536,None,,,,,0,0,0,0,0,114,114,130,376.3772211074829,,,,,,,,,,,,,,,,,,,,,,,,,,,,,,,,,,,,,,,,,,,,,,,,,,,,,,,,,,,,,,,,,,,,,,,,,,,,,,,,,70.46881783327115,184.7916469526649,166.83802282323285,140.48346967637386,155.61458578575636,139.8215841115907,1.0,1.1,-739,278,-480,263,-244,276,376.3628842830658,376.3629262447357,376.3653373718262,376.3772211074829,376.52745151519775,376.52745151519775,376.52745151519775,376.52745151519775,376.52745151519775,376.52745151519775,376.52745151519775,379.3954348564148,3,3.016942262649536,None,,,,,,,,,,,,,,,,,,112,3,2025-02-25_13h00.09.176,comp,2024.2.4,59.96377272603803,2025-02-25 13h00.20.646612 -0500,
115,115,0,filler_random,None,None,None,None,None,None,None,None,None,None,2,1.4773368835449219,None,,,,,0,0,0,0,0,115,115,169,379.41077971458435,,,,,,,,,,,,,,,,,,,,,,,,,,,,,,,,,,,,,,,,,,,,,,,,,,,,,,,,,,,,,,,,,,,,,,,,,,,,,,,,,168.88283568674348,137.22630769581184,144.60739904727365,166.86582075764616,68.69262357370533,189.3149469283857,2.1,2.11,-248,260,0,251,274,-263,379.39637422561646,379.39641785621643,379.3985435962677,379.41077971458435,379.5610189437866,379.5610189437866,379.5610189437866,379.5610189437866,379.5610189437866,379.5610189437866,379.5610189437866,380.8952798843384,2,1.4773368835449219,None,,,,,,,,,,,,,,,,,,112,3,2025-02-25_13h00.09.176,comp,2024.2.4,59.96377272603803,2025-02-25 13h00.20.646612 -0500,
116,116,0,critical,dhw,20.0,4.0,lower,78.0,78.0,133.0,57.0,57.0,133.0,3,2.361287832260132,None,,,,,0,0,0,0,0,116,116,58,380.91077756881714,,,,,,,,,,,,,,,,,,,,,,,,,,,,,,,,,,,,,,,,,,,,,,,,,,,,,,,,,,,,,,,,,,,,,,,,,,,,,,,,,78.0,78.0,133.0,57.0,57.0,133.0,4.0,4.2,-164,-4,0,-268,191,7,380.89605379104614,380.89609456062317,380.898188829422,380.91077756881714,381.06077313423157,381.06077313423157,381.06077313423157,381.06077313423157,381.06077313423157,381.06077313423157,381.06077313423157,383.278395652771,3,2.361287832260132,None,,,,,,,,,,,,,,,,,,112,3,2025-02-25_13h00.09.176,comp,2024.2.4,59.96377272603803,2025-02-25 13h00.20.646612 -0500,
117,117,0,filler_square,None,None,None,None,None,None,None,None,None,None,2,2.3619775772094727,None,,,,,0,0,0,0,0,117,117,190,383.29411363601685,,,,,,,,,,,,,,,,,,,,,,,,,,,,,,,,,,,,,,,,,,,,,,,,,,,,,,,,,,,,,,,,,,,,,,,,,,,,,,,,,57.45501759693806,57.69812908669313,69.33653144391572,69.33653144391572,57.02943709894219,62.65518793349234,1.0,1.1,-640,269,-480,257,-318,287,383.2793998718262,383.2794439792633,383.281578540802,383.29411363601685,383.44398617744446,383.44398617744446,383.44398617744446,383.44398617744446,383.44398617744446,383.44398617744446,383.44398617744446,385.66184735298157,2,2.3619775772094727,None,,,,,,,,,,,,,,,,,,112,3,2025-02-25_13h00.09.176,comp,2024.2.4,59.96377272603803,2025-02-25 13h00.20.646612 -0500,
118,118,0,critical,whd,20.0,1.0,lower,57.0,133.0,133.0,57.0,78.0,78.0,1,1.6510744094848633,None,,,,,0,0,0,0,0,118,118,90,385.6776559352875,,,,,,,,,,,,,,,,,,,,,,,,,,,,,,,,,,,,,,,,,,,,,,,,,,,,,,,,,,,,,,,,,,,,,,,,,,,,,,,,,57.0,133.0,133.0,57.0,78.0,78.0,1.0,1.1,-671,279,-480,266,-316,254,385.6626625061035,385.662704706192,385.6648473739624,385.6776559352875,385.8271737098694,385.8271737098694,385.8271737098694,385.8271737098694,385.8271737098694,385.8271737098694,385.8271737098694,387.3450484275818,1,1.6510744094848633,None,,,,,,,,,,,,,,,,,,112,3,2025-02-25_13h00.09.176,comp,2024.2.4,59.96377272603803,2025-02-25 13h00.20.646612 -0500,
119,119,0,filler_random,None,None,None,None,None,None,None,None,None,None,3,1.1755387783050537,None,,,,,0,0,0,0,0,119,119,139,387.3605034351349,,,,,,,,,,,,,,,,,,,,,,,,,,,,,,,,,,,,,,,,,,,,,,,,,,,,,,,,,,,,,,,,,,,,,,,,,,,,,,,,,69.4758484873635,197.70623379650502,153.17938885963878,138.88390305142502,189.46644216210652,196.1875995804923,2.1,2.11,-264,260,0,283,264,-272,387.3459360599518,387.34597659111023,387.3484342098236,387.3605034351349,387.5107967853546,387.5107967853546,387.5107967853546,387.5107967853546,387.5107967853546,387.5107967853546,387.5107967853546,388.545334815979,3,1.1755387783050537,None,,,,,,,,,,,,,,,,,,112,3,2025-02-25_13h00.09.176,comp,2024.2.4,59.96377272603803,2025-02-25 13h00.20.646612 -0500,
120,120,0,critical,hwd,20.0,4.0,upper,200.0,125.0,125.0,200.0,141.0,141.0,2,1.766908884048462,None,,,,,0,0,0,0,0,120,120,107,388.56086015701294,,,,,,,,,,,,,,,,,,,,,,,,,,,,,,,,,,,,,,,,,,,,,,,,,,,,,,,,,,,,,,,,,,,,,,,,,,,,,,,,,200.0,125.0,125.0,200.0,141.0,141.0,4.0,4.2,-258,-17,0,-261,266,15,388.5461537837982,388.5461959838867,388.54847240448,388.56086015701294,388.710729598999,388.710729598999,388.710729598999,388.710729598999,388.710729598999,388.710729598999,388.710729598999,390.34539341926575,2,1.766908884048462,None,,,,,,,,,,,,,,,,,,112,3,2025-02-25_13h00.09.176,comp,2024.2.4,59.96377272603803,2025-02-25 13h00.20.646612 -0500,
121,121,0,critical,dwh,20.0,2.1,upper,141.0,141.0,125.0,200.0,200.0,125.0,3,1.383922815322876,None,,,,,0,0,0,0,0,121,121,31,390.3604438304901,,,,,,,,,,,,,,,,,,,,,,,,,,,,,,,,,,,,,,,,,,,,,,,,,,,,,,,,,,,,,,,,,,,,,,,,,,,,,,,,,141.0,141.0,125.0,200.0,200.0,125.0,2.1,2.12,-266,-264,0,-271,258,290,390.3462064266205,390.3462464809418,390.34878396987915,390.3604438304901,390.5107343196869,390.5107343196869,390.5107343196869,390.5107343196869,390.5107343196869,390.5107343196869,390.5107343196869,391.76195788383484,3,1.383922815322876,None,,,,,,,,,,,,,,,,,,112,3,2025-02-25_13h00.09.176,comp,2024.2.4,59.96377272603803,2025-02-25 13h00.20.646612 -0500,
122,122,0,critical,whd,35.0,3.0,upper,125.0,200.0,200.0,125.0,127.0,127.0,1,2.086641788482666,None,,,,,0,0,0,0,0,122,122,87,391.7770953178406,,,,,,,,,,,,,,,,,,,,,,,,,,,,,,,,,,,,,,,,,,,,,,,,,,,,,,,,,,,,,,,,,,,,,,,,,,,,,,,,,125.0,200.0,200.0,125.0,127.0,127.0,3.0,3.2,-258,-268,0,15,222,265,391.7627592086792,391.76280069351196,391.76521134376526,391.7770953178406,391.92737078666687,391.92737078666687,391.92737078666687,391.92737078666687,391.92737078666687,391.92737078666687,391.92737078666687,393.8785388469696,1,2.086641788482666,None,,,,,,,,,,,,,,,,,,112,3,2025-02-25_13h00.09.176,comp,2024.2.4,59.96377272603803,2025-02-25 13h00.20.646612 -0500,
123,123,0,critical,dhw,35.0,2.1,lower,70.0,70.0,133.0,57.0,57.0,133.0,3,1.594203233718872,None,,,,,0,0,0,0,0,123,123,0,393.8937609195709,,,,,,,,,,,,,,,,,,,,,,,,,,,,,,,,,,,,,,,,,,,,,,,,,,,,,,,,,,,,,,,,,,,,,,,,,,,,,,,,,70.0,70.0,133.0,57.0,57.0,133.0,2.1,2.11,-160,250,0,262,191,-280,393.87935280799866,393.87939405441284,393.88267755508423,393.8937609195709,394.0438907146454,394.0438907146454,394.0438907146454,394.0438907146454,394.0438907146454,394.0438907146454,394.0438907146454,395.4949312210083,3,1.594203233718872,None,,,,,,,,,,,,,,,,,,112,3,2025-02-25_13h00.09.176,comp,2024.2.4,59.96377272603803,2025-02-25 13h00.20.646612 -0500,
124,124,0,critical,dwh,35.0,2.1,lower,70.0,70.0,57.0,133.0,133.0,57.0,3,1.1612274646759033,None,,,,,0,0,0,0,0,124,124,28,395.510703086853,,,,,,,,,,,,,,,,,,,,,,,,,,,,,,,,,,,,,,,,,,,,,,,,,,,,,,,,,,,,,,,,,,,,,,,,,,,,,,,,,70.0,70.0,57.0,133.0,133.0,57.0,2.1,2.11,-198,284,0,279,191,-288,395.4957721233368,395.495813369751,395.4979679584503,395.510703086853,395.66059589385986,395.66059589385986,395.66059589385986,395.66059589385986,395.66059589385986,395.66059589385986,395.66059589385986,396.6782908439636,3,1.1612274646759033,None,,,,,,,,,,,,,,,,,,112,3,2025-02-25_13h00.09.176,comp,2024.2.4,59.96377272603803,2025-02-25 13h00.20.646612 -0500,
125,125,0,critical,hwd,20.0,1.0,lower,133.0,57.0,57.0,133.0,78.0,78.0,2,2.4742982387542725,None,,,,,0,0,0,0,0,125,125,102,396.6939024925232,,,,,,,,,,,,,,,,,,,,,,,,,,,,,,,,,,,,,,,,,,,,,,,,,,,,,,,,,,,,,,,,,,,,,,,,,,,,,,,,,133.0,57.0,57.0,133.0,78.0,78.0,1.0,1.1,-671,282,-480,256,-278,267,396.67907667160034,396.6791172027588,396.68169689178467,396.6939024925232,396.84383630752563,396.84383630752563,396.84383630752563,396.84383630752563,396.84383630752563,396.84383630752563,396.84383630752563,399.17823243141174,2,2.4742982387542725,None,,,,,,,,,,,,,,,,,,112,3,2025-02-25_13h00.09.176,comp,2024.2.4,59.96377272603803,2025-02-25 13h00.20.646612 -0500,
126,126,0,critical,hwd,20.0,2.1,upper,200.0,125.0,125.0,200.0,141.0,141.0,2,2.877936840057373,None,,,,,0,0,0,0,0,126,126,19,399.1939694881439,,,,,,,,,,,,,,,,,,,,,,,,,,,,,,,,,,,,,,,,,,,,,,,,,,,,,,,,,,,,,,,,,,,,,,,,,,,,,,,,,200.0,125.0,125.0,200.0,141.0,141.0,2.1,2.12,-258,-271,0,-250,266,266,399.17905139923096,399.1790931224823,399.18167424201965,399.1939694881439,399.343994140625,399.343994140625,399.343994140625,399.343994140625,399.343994140625,399.343994140625,399.343994140625,402.07863903045654,2,2.877936840057373,None,,,,,,,,,,,,,,,,,,112,3,2025-02-25_13h00.09.176,comp,2024.2.4,59.96377272603803,2025-02-25 13h00.20.646612 -0500,
127,127,0,filler_square,None,None,None,None,None,None,None,None,None,None,2,1.1156353950500488,None,,,,,0,0,0,0,0,127,127,177,402.0939736366272,,,,,,,,,,,,,,,,,,,,,,,,,,,,,,,,,,,,,,,,,,,,,,,,,,,,,,,,,,,,,,,,,,,,,,,,,,,,,,,,,69.15955010069139,67.19153127153211,170.56737454389767,170.56737454389767,134.07029420121847,117.61196826092277,3.0,3.1,-215,259,0,2,240,-269,402.07958149909973,402.07963728904724,402.08198976516724,402.0939736366272,402.2439305782318,402.2439305782318,402.2439305782318,402.2439305782318,402.2439305782318,402.2439305782318,402.2439305782318,403.2117519378662,2,1.1156353950500488,None,,,,,,,,,,,,,,,,,,112,3,2025-02-25_13h00.09.176,comp,2024.2.4,59.96377272603803,2025-02-25 13h00.20.646612 -0500,
128,128,0,filler_random,None,None,None,None,None,None,None,None,None,None,2,0.7878243923187256,None,,,,,0,0,0,0,0,128,128,148,403.2272894382477,,,,,,,,,,,,,,,,,,,,,,,,,,,,,,,,,,,,,,,,,,,,,,,,,,,,,,,,,,,,,,,,,,,,,,,,,,,,,,,,,171.27179590654242,80.81809491137354,197.5856309563602,180.47238712520294,185.14686371091983,80.9799346009721,1.0,1.1,-707,269,-480,278,-253,265,403.2126843929291,403.2127285003662,403.2151381969452,403.2272894382477,403.3773350715637,403.3773350715637,403.3773350715637,403.3773350715637,403.3773350715637,403.3773350715637,403.3773350715637,404.0289206504822,2,0.7878243923187256,None,,,,,,,,,,,,,,,,,,112,3,2025-02-25_13h00.09.176,comp,2024.2.4,59.96377272603803,2025-02-25 13h00.20.646612 -0500,
129,129,0,filler_random,None,None,None,None,None,None,None,None,None,None,1,1.7962896823883057,None,,,,,0,0,0,0,0,129,129,145,404.04409980773926,,,,,,,,,,,,,,,,,,,,,,,,,,,,,,,,,,,,,,,,,,,,,,,,,,,,,,,,,,,,,,,,,,,,,,,,,,,,,,,,,150.5241772992847,157.3940334874756,133.85236600650802,183.66736526957774,74.33894462323862,177.41410725829678,2.1,2.12,-267,-281,0,-260,277,255,404.02986001968384,404.0299003124237,404.03188610076904,404.04409980773926,404.1946029663086,404.1946029663086,404.1946029663086,404.1946029663086,404.1946029663086,404.1946029663086,404.1946029663086,405.845246553421,1,1.7962896823883057,None,,,,,,,,,,,,,,,,,,112,3,2025-02-25_13h00.09.176,comp,2024.2.4,59.96377272603803,2025-02-25 13h00.20.646612 -0500,
130,130,0,critical,hwd,20.0,4.0,lower,133.0,57.0,57.0,133.0,78.0,78.0,1,4.754395484924316,None,,,,,0,0,0,0,0,130,130,106,405.8607156276703,,,,,,,,,,,,,,,,,,,,,,,,,,,,,,,,,,,,,,,,,,,,,,,,,,,,,,,,,,,,,,,,,,,,,,,,,,,,,,,,,133.0,57.0,57.0,133.0,78.0,78.0,4.0,4.1,-191,-274,0,16,202,-260,405.8460330963135,405.8460750579834,405.8482253551483,405.8607156276703,406.0105233192444,406.0105233192444,406.0105233192444,406.0105233192444,406.0105233192444,406.0105233192444,406.0105233192444,410.6281690597534,1,4.754395484924316,None,,,,,,,,,,,,,,,,,,112,3,2025-02-25_13h00.09.176,comp,2024.2.4,59.96377272603803,2025-02-25 13h00.20.646612 -0500,
131,131,0,catch,None,None,None,None,None,None,None,None,None,None,2,0.8514955043792725,None,,,,,0,0,0,0,0,131,131,123,410.6435890197754,,,,,,,,,,,,,,,,,,,,,,,,,,,,,,,,,,,,,,,,,,,,,,,,,,,,,,,,,,,,,,,,,,,,,,,,,,,,,,,,,80,110,140,185,115,75,2.2,2.21,-244,-279,0,282,226,265,410.62924313545227,410.6292860507965,410.63186526298523,410.6435890197754,410.79417276382446,410.79417276382446,410.79417276382446,410.79417276382446,410.79417276382446,410.79417276382446,410.79417276382446,411.5115633010864,2,0.8514955043792725,None,,,,,,,,,,,,,,,,,,112,3,2025-02-25_13h00.09.176,comp,2024.2.4,59.96377272603803,2025-02-25 13h00.20.646612 -0500,
132,132,0,critical,wdh,35.0,2.1,lower,57.0,133.0,70.0,70.0,133.0,57.0,1,2.3608829975128174,None,,,,,0,0,0,0,0,132,132,8,411.5269875526428,,,,,,,,,,,,,,,,,,,,,,,,,,,,,,,,,,,,,,,,,,,,,,,,,,,,,,,,,,,,,,,,,,,,,,,,,,,,,,,,,57.0,133.0,70.0,70.0,133.0,57.0,2.1,2.11,-198,262,0,271,160,-284,411.51236605644226,411.512407541275,411.514586687088,411.5269875526428,411.6772291660309,411.6772291660309,411.6772291660309,411.6772291660309,411.6772291660309,411.6772291660309,411.6772291660309,413.8948664665222,1,2.3608829975128174,None,,,,,,,,,,,,,,,,,,112,3,2025-02-25_13h00.09.176,comp,2024.2.4,59.96377272603803,2025-02-25 13h00.20.646612 -0500,
133,133,0,filler_square,None,None,None,None,None,None,None,None,None,None,2,2.2832295894622803,None,,,,,0,0,0,0,0,133,133,171,413.91056275367737,,,,,,,,,,,,,,,,,,,,,,,,,,,,,,,,,,,,,,,,,,,,,,,,,,,,,,,,,,,,,,,,,,,,,,,,,,,,,,,,,138.32911083516183,137.6262186201243,189.19309868551878,189.19309868551878,96.88027193933976,131.51236532282542,3.0,3.2,-259,-285,0,-5,256,262,413.8958315849304,413.89587450027466,413.89803671836853,413.91056275367737,414.0605800151825,414.0605800151825,414.0605800151825,414.0605800151825,414.0605800151825,414.0605800151825,414.0605800151825,416.1953010559082,2,2.2832295894622803,None,,,,,,,,,,,,,,,,,,112,3,2025-02-25_13h00.09.176,comp,2024.2.4,59.96377272603803,2025-02-25 13h00.20.646612 -0500,
134,134,0,filler_square,None,None,None,None,None,None,None,None,None,None,1,1.6526241302490234,None,,,,,0,0,0,0,0,134,134,170,416.2106008529663,,,,,,,,,,,,,,,,,,,,,,,,,,,,,,,,,,,,,,,,,,,,,,,,,,,,,,,,,,,,,,,,,,,,,,,,,,,,,,,,,123.53715233252996,123.53715233252996,114.6381897162638,87.50714837159786,64.25706055773554,76.7625478238937,3.0,3.1,-202,257,0,6,178,-286,416.19627261161804,416.196316242218,416.1984484195709,416.2106008529663,416.3602912425995,416.3602912425995,416.3602912425995,416.3602912425995,416.3602912425995,416.3602912425995,416.3602912425995,417.8782048225403,1,1.6526241302490234,None,,,,,,,,,,,,,,,,,,112,3,2025-02-25_13h00.09.176,comp,2024.2.4,59.96377272603803,2025-02-25 13h00.20.646612 -0500,
135,135,0,critical,hwd,35.0,3.0,upper,200.0,125.0,125.0,200.0,127.0,127.0,2,1.5465638637542725,None,,,,,0,0,0,0,0,135,135,99,417.8936095237732,,,,,,,,,,,,,,,,,,,,,,,,,,,,,,,,,,,,,,,,,,,,,,,,,,,,,,,,,,,,,,,,,,,,,,,,,,,,,,,,,200.0,125.0,125.0,200.0,127.0,127.0,3.0,3.1,-258,282,0,5,260,-287,417.8789949417114,417.87903571128845,417.88158917427063,417.8936095237732,418.04381132125854,418.04381132125854,418.04381132125854,418.04381132125854,418.04381132125854,418.04381132125854,418.04381132125854,419.44509649276733,2,1.5465638637542725,None,,,,,,,,,,,,,,,,,,112,3,2025-02-25_13h00.09.176,comp,2024.2.4,59.96377272603803,2025-02-25 13h00.20.646612 -0500,
136,136,0,critical,whd,35.0,3.0,lower,57.0,133.0,133.0,57.0,70.0,70.0,2,1.3867273330688477,None,,,,,0,0,0,0,0,136,136,86,419.4603958129883,,,,,,,,,,,,,,,,,,,,,,,,,,,,,,,,,,,,,,,,,,,,,,,,,,,,,,,,,,,,,,,,,,,,,,,,,,,,,,,,,57.0,133.0,133.0,57.0,70.0,70.0,3.0,3.1,-191,280,0,18,160,-254,419.4458980560303,419.4459409713745,419.4481406211853,419.4603958129883,419.61036372184753,419.61036372184753,419.61036372184753,419.61036372184753,419.61036372184753,419.61036372184753,419.61036372184753,420.86134243011475,2,1.3867273330688477,None,,,,,,,,,,,,,,,,,,112,3,2025-02-25_13h00.09.176,comp,2024.2.4,59.96377272603803,2025-02-25 13h00.20.646612 -0500,
137,137,0,catch,None,None,None,None,None,None,None,None,None,None,1,0.7788715362548828,None,,,,,0,0,0,0,0,137,137,129,420.87689542770386,,,,,,,,,,,,,,,,,,,,,,,,,,,,,,,,,,,,,,,,,,,,,,,,,,,,,,,,,,,,,,,,,,,,,,,,,,,,,,,,,63,127,128,197,59,131,4.0,4.2,-258,15,0,-279,260,-14,420.86240911483765,420.8624529838562,420.86508655548096,420.87689542770386,421.02716541290283,421.02716541290283,421.02716541290283,421.02716541290283,421.02716541290283,421.02716541290283,421.02716541290283,421.6618869304657,1,0.7788715362548828,None,,,,,,,,,,,,,,,,,,112,3,2025-02-25_13h00.09.176,comp,2024.2.4,59.96377272603803,2025-02-25 13h00.20.646612 -0500,
138,138,0,critical,wdh,20.0,1.0,lower,57.0,133.0,78.0,78.0,133.0,57.0,3,2.0910627841949463,None,,,,,0,0,0,0,0,138,138,78,421.6771833896637,,,,,,,,,,,,,,,,,,,,,,,,,,,,,,,,,,,,,,,,,,,,,,,,,,,,,,,,,,,,,,,,,,,,,,,,,,,,,,,,,57.0,133.0,78.0,78.0,133.0,57.0,1.0,1.3,278,-272,480,-284,644,-255,421.66270661354065,421.6627473831177,421.6648850440979,421.6771833896637,421.82705450057983,421.82705450057983,421.82705450057983,421.82705450057983,421.82705450057983,421.82705450057983,421.82705450057983,423.7781090736389,3,2.0910627841949463,None,,,,,,,,,,,,,,,,,,112,3,2025-02-25_13h00.09.176,comp,2024.2.4,59.96377272603803,2025-02-25 13h00.20.646612 -0500,
139,139,0,critical,wdh,20.0,3.0,upper,125.0,200.0,141.0,141.0,200.0,125.0,3,1.7668826580047607,None,,,,,0,0,0,0,0,139,139,81,423.79380559921265,,,,,,,,,,,,,,,,,,,,,,,,,,,,,,,,,,,,,,,,,,,,,,,,,,,,,,,,,,,,,,,,,,,,,,,,,,,,,,,,,125.0,200.0,141.0,141.0,200.0,125.0,3.0,3.1,-266,255,0,20,229,-274,423.77902460098267,423.7790665626526,423.7811613082886,423.79380559921265,423.94398260116577,423.94398260116577,423.94398260116577,423.94398260116577,423.94398260116577,423.94398260116577,423.94398260116577,425.5781888961792,3,1.7668826580047607,None,,,,,,,,,,,,,,,,,,112,3,2025-02-25_13h00.09.176,comp,2024.2.4,59.96377272603803,2025-02-25 13h00.20.646612 -0500,
