thisN,thisTrialN,thisRepN,effect,order,distance,config,diag,h_1,w_1,h_2,w_2,h_3,w_3,rect_choice.keys,rect_choice.rt,rect_choice.duration,instructions_loop.thisRepN,instructions_loop.thisTrialN,instructions_loop.thisN,instructions_loop.thisIndex,blocks.thisRepN,blocks.thisTrialN,blocks.thisN,blocks.thisIndex,trials.thisRepN,trials.thisTrialN,trials.thisN,trials.thisIndex,thisRow.t,notes,consent.started,agree_button.started,decline_button.started,consent_img.started,mouse.started,consent.stopped,agree_button.numClicks,agree_button.timesOn,agree_button.timesOff,decline_button.numClicks,decline_button.timesOn,decline_button.timesOff,mouse.x,mouse.y,mouse.leftButton,mouse.midButton,mouse.rightButton,mouse.time,mouse.clicked_name,exp_params.started,exp_params.stopped,welcome.started,welcome_text.started,welcome.stopped,instructions_1.started,instructions_1_text_1.started,instructions_1_text_2.started,key_resp.started,instructions_1.stopped,instructions_loop.key_resp.keys,instructions_loop.key_resp.rt,instructions_loop.key_resp.duration,instructions_2.started,instructions_2_text_1.started,instructions_2_text_2.started,key_resp_2.started,instructions_2.stopped,instructions_loop.key_resp_2.keys,instructions_loop.key_resp_2.rt,instructions_loop.key_resp_2.duration,instructions_3.started,instructions_3_text_1.started,r1_instr3.started,r2_instr3.started,r3_instr3.started,r1_instr3_label.started,r2_instr3_label.started,r3_instr3_label.started,instructions_3_text_3.started,instructions_3_text_4.started,key_resp_3.started,instructions_3.stopped,instructions_loop.key_resp_3.keys,instructions_loop.key_resp_3.rt,instructions_loop.key_resp_3.duration,instructions_4.started,instructions_4_text_1.started,instructions_4_text_3.started,instructions_4_text_2.started,key_resp_4.started,instructions_4.stopped,instructions_loop.key_resp_4.keys,instructions_loop.key_resp_4.rt,instructions_loop.key_resp_4.duration,instructions_5.started,instructions_5_text_1.started,instructions_5_text_2.started,key_resp_5.started,instructions_5.stopped,instructions_loop.key_resp_5.keys,instructions_loop.key_resp_5.rt,instructions_loop.key_resp_5.duration,start_exp.started,start_exp_text.started,key_resp_6.started,start_exp.stopped,key_resp_6.keys,key_resp_6.rt,key_resp_6.duration,h_1_tmp,w_1_tmp,h_2_tmp,w_2_tmp,h_3_tmp,w_3_tmp,config_tmp,config_tmp_1,r_1_x,r_1_y,r_2_x,r_2_y,r_3_x,r_3_y,pre_trial.started,pre_trial.stopped,choice_trial.started,rect_choice.started,r_1.started,r_2.started,r_3.started,r_1_label.started,r_2_label.started,r_3_label.started,prompt.started,choice_trial.stopped,trials.rect_choice.keys,trials.rect_choice.rt,trials.rect_choice.duration,end_block.started,end_block_text.started,end_block.stopped,end.started,end_text.started,key_resp_7.started,end.stopped,key_resp_7.keys,key_resp_7.rt,key_resp_7.duration,debriefing.started,debrief_form.started,end_debrief.started,debriefing.stopped,end_debrief.keys,end_debrief.rt,end_debrief.duration,participant,computer,date,expName,psychopyVersion,frameRate,expStart,
,,,,,,,,,,,,,,,,,,,,,,,,,,,,,,,0.019917011260986328,0.034787654876708984,0.034787654876708984,0.034787654876708984,0.019685983657836914,43.296247720718384,1,[43.25914192199707],[43.25916337966919],0,,,[-70.0],[-516.0],[1],[0],[0],[43.27587103843689],['agree_button'],,,,,,,,,,,,,,,,,,,,,,,,,,,,,,,,,,,,,,,,,,,,,,,,,,,,,,,,,,,,,,,,,,,,,,,,,,,,,,,,,,,,,,,,,,,,,,,,,,,,,,,,,,,113,1,2025-02-25_14h05.07.354,comp,2024.2.4,None,2025-02-25 14h05.17.238983 -0500,
,,,,,,,,,,,,,,,,,,,,,,,,,,,,,,,,,,,,,,,,,,,,,,,,,,43.296907901763916,43.29697322845459,,,,,,,,,,,,,,,,,,,,,,,,,,,,,,,,,,,,,,,,,,,,,,,,,,,,,,,,,,,,,,,,,,,,,,,,,,,,,,,,,,,,,,,,,,,,,,,,,,,,,,,,,113,1,2025-02-25_14h05.07.354,comp,2024.2.4,None,2025-02-25 14h05.17.238983 -0500,
,,,,,,,,,,,,,,,,,,,,,,,,,,,,,,,,,,,,,,,,,,,,,,,,,,,,43.29701542854309,43.31506323814392,45.30956673622131,,,,,,,,,,,,,,,,,,,,,,,,,,,,,,,,,,,,,,,,,,,,,,,,,,,,,,,,,,,,,,,,,,,,,,,,,,,,,,,,,,,,,,,,,,,,,,,,,,,,,,113,1,2025-02-25_14h05.07.354,comp,2024.2.4,None,2025-02-25 14h05.17.238983 -0500,
0,0,0,,,,,,,,,,,,,,,0,0,0,0,,,,,,,,,45.32499599456787,,,,,,,,,,,,,,,,,,,,,,,,,,45.31044411659241,45.32499599456787,45.32499599456787,46.8114447593689,49.51223635673523,space,2.696028232574463,None,49.5123827457428,49.528082847595215,49.528082847595215,51.01138925552368,56.19748568534851,space,5.1765148639678955,None,56.19763541221619,56.227506160736084,56.227506160736084,56.227506160736084,56.227506160736084,56.227506160736084,56.227506160736084,56.227506160736084,56.227506160736084,56.227506160736084,57.7133047580719,63.4695930480957,space,5.737916946411133,None,63.469748735427856,63.48582196235657,63.48582196235657,63.48582196235657,64.98306012153625,68.03529596328735,space,3.0446135997772217,None,68.03544449806213,68.05081486701965,68.05081486701965,69.53346252441406,70.38762068748474,space,0.8378231525421143,None,70.38782024383545,70.40289068222046,70.40289068222046,72.1662278175354,space,1.7609765529632568,None,,,,,,,,,,,,,,,,,,,,,,,,,,,,,,,,,,,,,,,,,,,,,,,113,1,2025-02-25_14h05.07.354,comp,2024.2.4,None,2025-02-25 14h05.17.238983 -0500,
0,0,0,critical,dwh,35.0,2.1,lower,70.0,70.0,57.0,133.0,133.0,57.0,3,12.020723104476929,None,,,,,0,0,0,0,0,0,0,4,72.23863911628723,,,,,,,,,,,,,,,,,,,,,,,,,,,,,,,,,,,,,,,,,,,,,,,,,,,,,,,,,,,,,,,,,,,,,,,,,,,,,,,,,70.0,70.0,57.0,133.0,133.0,57.0,2.1,2.11,-198,272,0,259,191,-288,72.22573328018188,72.22576642036438,72.22691798210144,72.23863911628723,72.38355660438538,72.38355660438538,72.38355660438538,72.38355660438538,72.38355660438538,72.38355660438538,72.38355660438538,84.27400493621826,3,12.020723104476929,None,,,,,,,,,,,,,,,,,,113,1,2025-02-25_14h05.07.354,comp,2024.2.4,None,2025-02-25 14h05.17.238983 -0500,
1,1,0,critical,wdh,20.0,4.0,upper,125.0,200.0,141.0,141.0,200.0,125.0,3,11.297429323196411,None,,,,,0,0,0,0,0,1,1,83,84.29035115242004,,,,,,,,,,,,,,,,,,,,,,,,,,,,,,,,,,,,,,,,,,,,,,,,,,,,,,,,,,,,,,,,,,,,,,,,,,,,,,,,,125.0,200.0,141.0,141.0,200.0,125.0,4.0,4.1,-266,-256,0,7,229,-274,84.27540421485901,84.27546739578247,84.27905917167664,84.29035115242004,84.43960237503052,84.43960237503052,84.43960237503052,84.43960237503052,84.43960237503052,84.43960237503052,84.43960237503052,95.59531497955322,3,11.297429323196411,None,,,,,,,,,,,,,,,,,,113,1,2025-02-25_14h05.07.354,comp,2024.2.4,None,2025-02-25 14h05.17.238983 -0500,
2,2,0,filler_square,None,None,None,None,None,None,None,None,None,None,2,4.674872636795044,None,,,,,0,0,0,0,0,2,2,185,95.61639046669006,,,,,,,,,,,,,,,,,,,,,,,,,,,,,,,,,,,,,,,,,,,,,,,,,,,,,,,,,,,,,,,,,,,,,,,,,,,,,,,,,123.5324149593404,153.12429839155197,172.81325514803717,172.81325514803717,153.11550366782623,161.8511724552192,2.2,2.22,-259,285,0,-289,263,-276,95.59724855422974,95.59735679626465,95.60057139396667,95.61639046669006,95.7593297958374,95.7593297958374,95.7593297958374,95.7593297958374,95.7593297958374,95.7593297958374,95.7593297958374,100.29449534416199,2,4.674872636795044,None,,,,,,,,,,,,,,,,,,113,1,2025-02-25_14h05.07.354,comp,2024.2.4,None,2025-02-25 14h05.17.238983 -0500,
3,3,0,filler_random,None,None,None,None,None,None,None,None,None,None,2,4.892844200134277,None,,,,,0,0,0,0,0,3,3,151,100.31046414375305,,,,,,,,,,,,,,,,,,,,,,,,,,,,,,,,,,,,,,,,,,,,,,,,,,,,,,,,,,,,,,,,,,,,,,,,,,,,,,,,,192.17268030267633,109.54753596922731,154.38289186203588,190.31842822879725,98.34177202635175,84.79284181403249,2.2,2.22,-246,271,0,-265,234,-253,100.29627418518066,100.29635405540466,100.29954171180725,100.31046414375305,100.45948696136475,100.45948696136475,100.45948696136475,100.45948696136475,100.45948696136475,100.45948696136475,100.45948696136475,105.22219395637512,2,4.892844200134277,None,,,,,,,,,,,,,,,,,,113,1,2025-02-25_14h05.07.354,comp,2024.2.4,None,2025-02-25 14h05.17.238983 -0500,
4,4,0,critical,dhw,20.0,4.0,upper,141.0,141.0,200.0,125.0,125.0,200.0,3,5.6043477058410645,None,,,,,0,0,0,0,0,4,4,59,105.23937273025513,,,,,,,,,,,,,,,,,,,,,,,,,,,,,,,,,,,,,,,,,,,,,,,,,,,,,,,,,,,,,,,,,,,,,,,,,,,,,,,,,141.0,141.0,200.0,125.0,125.0,200.0,4.0,4.1,-229,-289,0,17,258,-281,105.22372269630432,105.22379899024963,105.2267074584961,105.23937273025513,105.38024020195007,105.38024020195007,105.38024020195007,105.38024020195007,105.38024020195007,105.38024020195007,105.38024020195007,110.85079026222229,3,5.6043477058410645,None,,,,,,,,,,,,,,,,,,113,1,2025-02-25_14h05.07.354,comp,2024.2.4,None,2025-02-25 14h05.17.238983 -0500,
5,5,0,filler_square,None,None,None,None,None,None,None,None,None,None,3,2.8488564491271973,None,,,,,0,0,0,0,0,5,5,184,110.86641526222229,,,,,,,,,,,,,,,,,,,,,,,,,,,,,,,,,,,,,,,,,,,,,,,,,,,,,,,,,,,,,,,,,,,,,,,,,,,,,,,,,126.13250709283389,109.43972242878314,110.79754511007002,129.89710820858608,146.26284690346722,146.26284690346722,2.2,2.21,-216,-279,0,272,234,270,110.85257291793823,110.8526520729065,110.85559606552124,110.86641526222229,111.02145171165466,111.02145171165466,111.02145171165466,111.02145171165466,111.02145171165466,111.02145171165466,111.02145171165466,113.7266674041748,3,2.8488564491271973,None,,,,,,,,,,,,,,,,,,113,1,2025-02-25_14h05.07.354,comp,2024.2.4,None,2025-02-25 14h05.17.238983 -0500,
6,6,0,catch,None,None,None,None,None,None,None,None,None,None,2,2.068326473236084,None,,,,,0,0,0,0,0,6,6,123,113.74337077140808,,,,,,,,,,,,,,,,,,,,,,,,,,,,,,,,,,,,,,,,,,,,,,,,,,,,,,,,,,,,,,,,,,,,,,,,,,,,,,,,,67,123,173,152,80,110,2.2,2.22,-234,252,0,-284,227,-260,113.72858572006226,113.72866678237915,113.73165488243103,113.74337077140808,113.88074040412903,113.88074040412903,113.88074040412903,113.88074040412903,113.88074040412903,113.88074040412903,113.88074040412903,115.81534934043884,2,2.068326473236084,None,,,,,,,,,,,,,,,,,,113,1,2025-02-25_14h05.07.354,comp,2024.2.4,None,2025-02-25 14h05.17.238983 -0500,
7,7,0,critical,dhw,20.0,1.0,upper,141.0,141.0,200.0,125.0,125.0,200.0,3,6.279983043670654,None,,,,,0,0,0,0,0,7,7,55,115.83591079711914,,,,,,,,,,,,,,,,,,,,,,,,,,,,,,,,,,,,,,,,,,,,,,,,,,,,,,,,,,,,,,,,,,,,,,,,,,,,,,,,,141.0,141.0,200.0,125.0,125.0,200.0,1.0,1.2,-229,7,0,10,258,-15,115.81693267822266,115.81703686714172,115.82038998603821,115.83591079711914,115.98896431922913,115.98896431922913,115.98896431922913,115.98896431922913,115.98896431922913,115.98896431922913,115.98896431922913,122.13447737693787,3,6.279983043670654,None,,,,,,,,,,,,,,,,,,113,1,2025-02-25_14h05.07.354,comp,2024.2.4,None,2025-02-25 14h05.17.238983 -0500,
8,8,0,critical,hdw,20.0,2.1,upper,200.0,125.0,141.0,141.0,125.0,200.0,3,7.5085670948028564,None,,,,,0,0,0,0,0,8,8,47,122.15071320533752,,,,,,,,,,,,,,,,,,,,,,,,,,,,,,,,,,,,,,,,,,,,,,,,,,,,,,,,,,,,,,,,,,,,,,,,,,,,,,,,,200.0,125.0,141.0,141.0,125.0,200.0,2.1,2.12,-229,-276,0,-277,266,255,122.13585805892944,122.13593101501465,122.13907098770142,122.15071320533752,122.30207443237305,122.30207443237305,122.30207443237305,122.30207443237305,122.30207443237305,122.30207443237305,122.30207443237305,129.66871643066406,3,7.5085670948028564,None,,,,,,,,,,,,,,,,,,113,1,2025-02-25_14h05.07.354,comp,2024.2.4,None,2025-02-25 14h05.17.238983 -0500,
9,9,0,critical,wdh,35.0,1.0,lower,57.0,133.0,70.0,70.0,133.0,57.0,1,6.417320489883423,None,,,,,0,0,0,0,0,9,9,72,129.68269896507263,,,,,,,,,,,,,,,,,,,,,,,,,,,,,,,,,,,,,,,,,,,,,,,,,,,,,,,,,,,,,,,,,,,,,,,,,,,,,,,,,57.0,133.0,70.0,70.0,133.0,57.0,1.0,1.3,282,-258,480,-286,640,-251,129.67023372650146,129.67031025886536,129.67323660850525,129.68269896507263,129.82086372375488,129.82086372375488,129.82086372375488,129.82086372375488,129.82086372375488,129.82086372375488,129.82086372375488,136.10488533973694,1,6.417320489883423,None,,,,,,,,,,,,,,,,,,113,1,2025-02-25_14h05.07.354,comp,2024.2.4,None,2025-02-25 14h05.17.238983 -0500,
10,10,0,critical,dwh,20.0,3.0,upper,141.0,141.0,125.0,200.0,200.0,125.0,3,10.20969271659851,None,,,,,0,0,0,0,0,10,10,69,136.12252855300903,,,,,,,,,,,,,,,,,,,,,,,,,,,,,,,,,,,,,,,,,,,,,,,,,,,,,,,,,,,,,,,,,,,,,,,,,,,,,,,,,141.0,141.0,125.0,200.0,200.0,125.0,3.0,3.2,-266,-268,0,15,258,268,136.10653114318848,136.1066427230835,136.10997986793518,136.12252855300903,136.27227663993835,136.27227663993835,136.27227663993835,136.27227663993835,136.27227663993835,136.27227663993835,136.27227663993835,146.3394751548767,3,10.20969271659851,None,,,,,,,,,,,,,,,,,,113,1,2025-02-25_14h05.07.354,comp,2024.2.4,None,2025-02-25 14h05.17.238983 -0500,
11,11,0,critical,hdw,35.0,4.0,upper,200.0,125.0,127.0,127.0,125.0,200.0,3,5.671162128448486,None,,,,,0,0,0,0,0,11,11,113,146.35634779930115,,,,,,,,,,,,,,,,,,,,,,,,,,,,,,,,,,,,,,,,,,,,,,,,,,,,,,,,,,,,,,,,,,,,,,,,,,,,,,,,,200.0,125.0,127.0,127.0,125.0,200.0,4.0,4.2,-222,-20,0,-269,260,15,146.3410074710846,146.34108233451843,146.3444230556488,146.35634779930115,146.50794005393982,146.50794005393982,146.50794005393982,146.50794005393982,146.50794005393982,146.50794005393982,146.50794005393982,152.0336754322052,3,5.671162128448486,None,,,,,,,,,,,,,,,,,,113,1,2025-02-25_14h05.07.354,comp,2024.2.4,None,2025-02-25 14h05.17.238983 -0500,
12,12,0,filler_square,None,None,None,None,None,None,None,None,None,None,1,6.128497123718262,None,,,,,0,0,0,0,0,12,12,175,152.05140495300293,,,,,,,,,,,,,,,,,,,,,,,,,,,,,,,,,,,,,,,,,,,,,,,,,,,,,,,,,,,,,,,,,,,,,,,,,,,,,,,,,154.84458504886896,154.84458504886896,149.62102260106843,99.48292150316222,95.2853790899793,85.21278146193842,1.0,1.3,257,-261,480,-286,668,-266,152.03550839424133,152.03558826446533,152.03845381736755,152.05140495300293,152.1936480998993,152.1936480998993,152.1936480998993,152.1936480998993,152.1936480998993,152.1936480998993,152.1936480998993,158.19833326339722,1,6.128497123718262,None,,,,,,,,,,,,,,,,,,113,1,2025-02-25_14h05.07.354,comp,2024.2.4,None,2025-02-25 14h05.17.238983 -0500,
13,13,0,filler_random,None,None,None,None,None,None,None,None,None,None,2,2.796726942062378,None,,,,,0,0,0,0,0,13,13,169,158.21469449996948,,,,,,,,,,,,,,,,,,,,,,,,,,,,,,,,,,,,,,,,,,,,,,,,,,,,,,,,,,,,,,,,,,,,,,,,,,,,,,,,,103.75944292645944,88.65997207470245,146.67792080495377,140.00467578604804,129.28055669613497,147.64295306612559,2.1,2.11,-210,270,0,272,240,-289,158.20034337043762,158.20044422149658,158.20435118675232,158.21469449996948,158.36273193359375,158.36273193359375,158.36273193359375,158.36273193359375,158.36273193359375,158.36273193359375,158.36273193359375,161.0136160850525,2,2.796726942062378,None,,,,,,,,,,,,,,,,,,113,1,2025-02-25_14h05.07.354,comp,2024.2.4,None,2025-02-25 14h05.17.238983 -0500,
14,14,0,catch,None,None,None,None,None,None,None,None,None,None,2,2.429598331451416,None,,,,,0,0,0,0,0,14,14,126,161.03064107894897,,,,,,,,,,,,,,,,,,,,,,,,,,,,,,,,,,,,,,,,,,,,,,,,,,,,,,,,,,,,,,,,,,,,,,,,,,,,,,,,,126,64,158,167,97,93,1.0,1.2,-212,-12,0,-9,226,0,161.01567792892456,161.01575827598572,161.0198357105255,161.03064107894897,161.17867422103882,161.17867422103882,161.17867422103882,161.17867422103882,161.17867422103882,161.17867422103882,161.17867422103882,163.46544241905212,2,2.429598331451416,None,,,,,,,,,,,,,,,,,,113,1,2025-02-25_14h05.07.354,comp,2024.2.4,None,2025-02-25 14h05.17.238983 -0500,
15,15,0,critical,dhw,35.0,1.0,lower,70.0,70.0,133.0,57.0,57.0,133.0,2,3.794793128967285,None,,,,,0,0,0,0,0,15,15,48,163.4814808368683,,,,,,,,,,,,,,,,,,,,,,,,,,,,,,,,,,,,,,,,,,,,,,,,,,,,,,,,,,,,,,,,,,,,,,,,,,,,,,,,,70.0,70.0,133.0,57.0,57.0,133.0,1.0,1.3,320,-283,480,-281,671,-283,163.46703720092773,163.46711897850037,163.4706254005432,163.4814808368683,163.63135838508606,163.63135838508606,163.63135838508606,163.63135838508606,163.63135838508606,163.63135838508606,163.63135838508606,167.281578540802,2,3.794793128967285,None,,,,,,,,,,,,,,,,,,113,1,2025-02-25_14h05.07.354,comp,2024.2.4,None,2025-02-25 14h05.17.238983 -0500,
16,16,0,filler_square,None,None,None,None,None,None,None,None,None,None,1,2.921262264251709,None,,,,,0,0,0,0,0,16,16,171,167.29866576194763,,,,,,,,,,,,,,,,,,,,,,,,,,,,,,,,,,,,,,,,,,,,,,,,,,,,,,,,,,,,,,,,,,,,,,,,,,,,,,,,,113.45058917787043,113.45058917787043,109.78605049471425,95.25450395736686,68.14666442617497,80.75362852208465,2.1,2.11,-200,258,0,268,184,-266,167.28344821929932,167.28352665901184,167.28682494163513,167.29866576194763,167.45662236213684,167.45662236213684,167.45662236213684,167.45662236213684,167.45662236213684,167.45662236213684,167.45662236213684,170.23324131965637,1,2.921262264251709,None,,,,,,,,,,,,,,,,,,113,1,2025-02-25_14h05.07.354,comp,2024.2.4,None,2025-02-25 14h05.17.238983 -0500,
17,17,0,critical,whd,20.0,2.1,upper,125.0,200.0,200.0,125.0,141.0,141.0,2,10.131391525268555,None,,,,,0,0,0,0,0,17,17,15,170.24853897094727,,,,,,,,,,,,,,,,,,,,,,,,,,,,,,,,,,,,,,,,,,,,,,,,,,,,,,,,,,,,,,,,,,,,,,,,,,,,,,,,,125.0,200.0,200.0,125.0,141.0,141.0,2.1,2.12,-258,-279,0,-285,229,290,170.234760761261,170.23484086990356,170.23822665214539,170.24853897094727,170.4016396999359,170.4016396999359,170.4016396999359,170.4016396999359,170.4016396999359,170.4016396999359,170.4016396999359,180.38725352287292,2,10.131391525268555,None,,,,,,,,,,,,,,,,,,113,1,2025-02-25_14h05.07.354,comp,2024.2.4,None,2025-02-25 14h05.17.238983 -0500,
18,18,0,filler_square,None,None,None,None,None,None,None,None,None,None,2,7.279720306396484,None,,,,,0,0,0,0,0,18,18,176,180.40410685539246,,,,,,,,,,,,,,,,,,,,,,,,,,,,,,,,,,,,,,,,,,,,,,,,,,,,,,,,,,,,,,,,,,,,,,,,,,,,,,,,,60.35768162546423,59.647583276099766,64.51029752024719,59.537308271598924,65.6166803887842,65.6166803887842,2.1,2.11,-156,270,0,290,159,-289,180.38936352729797,180.3894431591034,180.39311385154724,180.40410685539246,180.5522792339325,180.5522792339325,180.5522792339325,180.5522792339325,180.5522792339325,180.5522792339325,180.5522792339325,187.6886441707611,2,7.279720306396484,None,,,,,,,,,,,,,,,,,,113,1,2025-02-25_14h05.07.354,comp,2024.2.4,None,2025-02-25 14h05.17.238983 -0500,
19,19,0,critical,wdh,35.0,2.1,upper,125.0,200.0,127.0,127.0,200.0,125.0,1,23.083167791366577,None,,,,,0,0,0,0,0,19,19,9,187.70497035980225,,,,,,,,,,,,,,,,,,,,,,,,,,,,,,,,,,,,,,,,,,,,,,,,,,,,,,,,,,,,,,,,,,,,,,,,,,,,,,,,,125.0,200.0,127.0,127.0,200.0,125.0,2.1,2.12,-260,-265,0,-285,222,263,187.690283536911,187.6903886795044,187.6938672065735,187.70497035980225,187.85297894477844,187.85297894477844,187.85297894477844,187.85297894477844,187.85297894477844,187.85297894477844,187.85297894477844,210.79595804214478,1,23.083167791366577,None,,,,,,,,,,,,,,,,,,113,1,2025-02-25_14h05.07.354,comp,2024.2.4,None,2025-02-25 14h05.17.238983 -0500,
20,20,0,critical,dwh,35.0,2.1,upper,127.0,127.0,125.0,200.0,200.0,125.0,2,7.512059450149536,None,,,,,0,0,0,0,0,20,20,29,210.81200742721558,,,,,,,,,,,,,,,,,,,,,,,,,,,,,,,,,,,,,,,,,,,,,,,,,,,,,,,,,,,,,,,,,,,,,,,,,,,,,,,,,127.0,127.0,125.0,200.0,200.0,125.0,2.1,2.12,-260,-265,0,-263,258,277,210.7976109981537,210.79768705368042,210.8010630607605,210.81200742721558,210.96068358421326,210.96068358421326,210.96068358421326,210.96068358421326,210.96068358421326,210.96068358421326,210.96068358421326,218.33214950561523,2,7.512059450149536,None,,,,,,,,,,,,,,,,,,113,1,2025-02-25_14h05.07.354,comp,2024.2.4,None,2025-02-25 14h05.17.238983 -0500,
21,21,0,critical,whd,35.0,3.0,lower,57.0,133.0,133.0,57.0,70.0,70.0,2,8.213660717010498,None,,,,,0,0,0,0,0,21,21,86,218.35010266304016,,,,,,,,,,,,,,,,,,,,,,,,,,,,,,,,,,,,,,,,,,,,,,,,,,,,,,,,,,,,,,,,,,,,,,,,,,,,,,,,,57.0,133.0,133.0,57.0,70.0,70.0,3.0,3.2,-191,-275,0,19,160,274,218.3337368965149,218.33381628990173,218.33782649040222,218.35010266304016,218.4990358352661,218.4990358352661,218.4990358352661,218.4990358352661,218.4990358352661,218.4990358352661,218.4990358352661,226.5722198486328,2,8.213660717010498,None,,,,,,,,,,,,,,,,,,113,1,2025-02-25_14h05.07.354,comp,2024.2.4,None,2025-02-25 14h05.17.238983 -0500,
22,22,0,critical,dhw,35.0,2.1,lower,70.0,70.0,133.0,57.0,57.0,133.0,2,12.122277736663818,None,,,,,0,0,0,0,0,22,22,0,226.5853717327118,,,,,,,,,,,,,,,,,,,,,,,,,,,,,,,,,,,,,,,,,,,,,,,,,,,,,,,,,,,,,,,,,,,,,,,,,,,,,,,,,70.0,70.0,133.0,57.0,57.0,133.0,2.1,2.11,-160,261,0,278,191,-275,226.5736334323883,226.57369422912598,226.57511591911316,226.5853717327118,226.7385802268982,226.7385802268982,226.7385802268982,226.7385802268982,226.7385802268982,226.7385802268982,226.7385802268982,238.72281455993652,2,12.122277736663818,None,,,,,,,,,,,,,,,,,,113,1,2025-02-25_14h05.07.354,comp,2024.2.4,None,2025-02-25 14h05.17.238983 -0500,
23,23,0,critical,dwh,35.0,1.0,upper,127.0,127.0,125.0,200.0,200.0,125.0,3,11.665868520736694,None,,,,,0,0,0,0,0,23,23,61,238.73801040649414,,,,,,,,,,,,,,,,,,,,,,,,,,,,,,,,,,,,,,,,,,,,,,,,,,,,,,,,,,,,,,,,,,,,,,,,,,,,,,,,,127.0,127.0,125.0,200.0,200.0,125.0,1.0,1.2,-260,0,0,-3,258,-5,238.72435331344604,238.7244303226471,238.72771739959717,238.73801040649414,238.88796305656433,238.88796305656433,238.88796305656433,238.88796305656433,238.88796305656433,238.88796305656433,238.88796305656433,250.40697956085205,3,11.665868520736694,None,,,,,,,,,,,,,,,,,,113,1,2025-02-25_14h05.07.354,comp,2024.2.4,None,2025-02-25 14h05.17.238983 -0500,
24,24,0,filler_square,None,None,None,None,None,None,None,None,None,None,2,2.803605079650879,None,,,,,0,0,0,0,0,24,24,207,250.42391657829285,,,,,,,,,,,,,,,,,,,,,,,,,,,,,,,,,,,,,,,,,,,,,,,,,,,,,,,,,,,,,,,,,,,,,,,,,,,,,,,,,79.19504653113125,99.99086606134702,171.20040154871168,171.20040154871168,154.28021642250496,75.72445131379672,2.1,2.11,-232,287,0,260,219,-277,250.40879368782043,250.408873796463,250.4120213985443,250.42391657829285,250.56364345550537,250.56364345550537,250.56364345550537,250.56364345550537,250.56364345550537,250.56364345550537,250.56364345550537,253.2417597770691,2,2.803605079650879,None,,,,,,,,,,,,,,,,,,113,1,2025-02-25_14h05.07.354,comp,2024.2.4,None,2025-02-25 14h05.17.238983 -0500,
25,25,0,critical,whd,20.0,1.0,lower,57.0,133.0,133.0,57.0,78.0,78.0,2,18.4110426902771,None,,,,,0,0,0,0,0,25,25,90,253.25674700737,,,,,,,,,,,,,,,,,,,,,,,,,,,,,,,,,,,,,,,,,,,,,,,,,,,,,,,,,,,,,,,,,,,,,,,,,,,,,,,,,57.0,133.0,133.0,57.0,78.0,78.0,1.0,1.1,-671,252,-480,279,-316,254,253.24329042434692,253.24336576461792,253.24644780158997,253.25674700737,253.40989565849304,253.40989565849304,253.40989565849304,253.40989565849304,253.40989565849304,253.40989565849304,253.40989565849304,271.6817216873169,2,18.4110426902771,None,,,,,,,,,,,,,,,,,,113,1,2025-02-25_14h05.07.354,comp,2024.2.4,None,2025-02-25 14h05.17.238983 -0500,
26,26,0,critical,dhw,20.0,3.0,upper,141.0,141.0,200.0,125.0,125.0,200.0,3,5.625688791275024,None,,,,,0,0,0,0,0,26,26,57,271.6978602409363,,,,,,,,,,,,,,,,,,,,,,,,,,,,,,,,,,,,,,,,,,,,,,,,,,,,,,,,,,,,,,,,,,,,,,,,,,,,,,,,,141.0,141.0,200.0,125.0,125.0,200.0,3.0,3.2,-229,-279,0,-18,258,284,271.68321990966797,271.68330001831055,271.6872980594635,271.6978602409363,271.8517940044403,271.8517940044403,271.8517940044403,271.8517940044403,271.8517940044403,271.8517940044403,271.8517940044403,277.33481907844543,3,5.625688791275024,None,,,,,,,,,,,,,,,,,,113,1,2025-02-25_14h05.07.354,comp,2024.2.4,None,2025-02-25 14h05.17.238983 -0500,
27,27,0,critical,hdw,35.0,2.1,lower,133.0,57.0,70.0,70.0,57.0,133.0,1,6.519668102264404,None,,,,,0,0,0,0,0,27,27,20,277.3562150001526,,,,,,,,,,,,,,,,,,,,,,,,,,,,,,,,,,,,,,,,,,,,,,,,,,,,,,,,,,,,,,,,,,,,,,,,,,,,,,,,,133.0,57.0,70.0,70.0,57.0,133.0,2.1,2.12,-160,-256,0,-281,198,286,277.336421251297,277.3365273475647,277.3398246765137,277.3562150001526,277.5039236545563,277.5039236545563,277.5039236545563,277.5039236545563,277.5039236545563,277.5039236545563,277.5039236545563,283.88623881340027,1,6.519668102264404,None,,,,,,,,,,,,,,,,,,113,1,2025-02-25_14h05.07.354,comp,2024.2.4,None,2025-02-25 14h05.17.238983 -0500,
28,28,0,filler_square,None,None,None,None,None,None,None,None,None,None,1,3.7653095722198486,None,,,,,0,0,0,0,0,28,28,194,283.90230798721313,,,,,,,,,,,,,,,,,,,,,,,,,,,,,,,,,,,,,,,,,,,,,,,,,,,,,,,,,,,,,,,,,,,,,,,,,,,,,,,,,109.65346391373826,109.65346391373826,63.06574943377547,82.13455546006783,102.7905293596093,99.88081302161868,1.0,1.3,288,-271,480,-252,667,-258,283.8880248069763,283.88810634613037,283.89134192466736,283.90230798721313,284.0543568134308,284.0543568134308,284.0543568134308,284.0543568134308,284.0543568134308,284.0543568134308,284.0543568134308,287.6698741912842,1,3.7653095722198486,None,,,,,,,,,,,,,,,,,,113,1,2025-02-25_14h05.07.354,comp,2024.2.4,None,2025-02-25 14h05.17.238983 -0500,
29,29,0,filler_random,None,None,None,None,None,None,None,None,None,None,1,2.0138819217681885,None,,,,,0,0,0,0,0,29,29,160,287.6859757900238,,,,,,,,,,,,,,,,,,,,,,,,,,,,,,,,,,,,,,,,,,,,,,,,,,,,,,,,,,,,,,,,,,,,,,,,,,,,,,,,,154.48055558564727,154.7731562383072,71.4869225608549,58.58843422146614,84.27417687695471,174.40573718920967,3.0,3.2,-203,-259,0,13,212,265,287.67166018486023,287.6717402935028,287.67522048950195,287.6859757900238,287.8257806301117,287.8257806301117,287.8257806301117,287.8257806301117,287.8257806301117,287.8257806301117,287.8257806301117,289.70305824279785,1,2.0138819217681885,None,,,,,,,,,,,,,,,,,,113,1,2025-02-25_14h05.07.354,comp,2024.2.4,None,2025-02-25 14h05.17.238983 -0500,
30,30,0,critical,hwd,20.0,3.0,upper,200.0,125.0,125.0,200.0,141.0,141.0,1,18.586604595184326,None,,,,,0,0,0,0,0,30,30,105,289.72154450416565,,,,,,,,,,,,,,,,,,,,,,,,,,,,,,,,,,,,,,,,,,,,,,,,,,,,,,,,,,,,,,,,,,,,,,,,,,,,,,,,,200.0,125.0,125.0,200.0,141.0,141.0,3.0,3.2,-258,-258,0,12,266,289,289.70456862449646,289.7046434879303,289.707622051239,289.72154450416565,289.87073159217834,289.87073159217834,289.87073159217834,289.87073159217834,289.87073159217834,289.87073159217834,289.87073159217834,308.31502747535706,1,18.586604595184326,None,,,,,,,,,,,,,,,,,,113,1,2025-02-25_14h05.07.354,comp,2024.2.4,None,2025-02-25 14h05.17.238983 -0500,
31,31,0,filler_square,None,None,None,None,None,None,None,None,None,None,2,3.9487428665161133,None,,,,,0,0,0,0,0,31,31,196,308.3356227874756,,,,,,,,,,,,,,,,,,,,,,,,,,,,,,,,,,,,,,,,,,,,,,,,,,,,,,,,,,,,,,,,,,,,,,,,,,,,,,,,,71.318631699104,73.31347916163865,78.67669191793563,78.67669191793563,59.77041472501423,64.1608407413905,3.0,3.1,-172,255,0,3,167,-260,308.316853761673,308.3169331550598,308.3198537826538,308.3356227874756,308.4782371520996,308.4782371520996,308.4782371520996,308.4782371520996,308.4782371520996,308.4782371520996,308.4782371520996,312.29456663131714,2,3.9487428665161133,None,,,,,,,,,,,,,,,,,,113,1,2025-02-25_14h05.07.354,comp,2024.2.4,None,2025-02-25 14h05.17.238983 -0500,
32,32,0,critical,dhw,35.0,4.0,lower,70.0,70.0,133.0,57.0,57.0,133.0,2,4.6616926193237305,None,,,,,0,0,0,0,0,32,32,52,312.31051754951477,,,,,,,,,,,,,,,,,,,,,,,,,,,,,,,,,,,,,,,,,,,,,,,,,,,,,,,,,,,,,,,,,,,,,,,,,,,,,,,,,70.0,70.0,133.0,57.0,57.0,133.0,4.0,4.1,-160,-274,0,1,191,-285,312.29614210128784,312.29625630378723,312.2996735572815,312.31051754951477,312.4629511833191,312.4629511833191,312.4629511833191,312.4629511833191,312.4629511833191,312.4629511833191,312.4629511833191,316.97934460639954,2,4.6616926193237305,None,,,,,,,,,,,,,,,,,,113,1,2025-02-25_14h05.07.354,comp,2024.2.4,None,2025-02-25 14h05.17.238983 -0500,
33,33,0,critical,dhw,35.0,4.0,upper,127.0,127.0,200.0,125.0,125.0,200.0,2,8.144911050796509,None,,,,,0,0,0,0,0,33,33,53,316.99549770355225,,,,,,,,,,,,,,,,,,,,,,,,,,,,,,,,,,,,,,,,,,,,,,,,,,,,,,,,,,,,,,,,,,,,,,,,,,,,,,,,,127.0,127.0,200.0,125.0,125.0,200.0,4.0,4.2,-222,12,0,-260,258,-8,316.98096442222595,316.98105812072754,316.9845657348633,316.99549770355225,317.1439278125763,317.1439278125763,317.1439278125763,317.1439278125763,317.1439278125763,317.1439278125763,317.1439278125763,325.14794874191284,2,8.144911050796509,None,,,,,,,,,,,,,,,,,,113,1,2025-02-25_14h05.07.354,comp,2024.2.4,None,2025-02-25 14h05.17.238983 -0500,
34,34,0,filler_random,None,None,None,None,None,None,None,None,None,None,1,2.280238151550293,None,,,,,0,0,0,0,0,34,34,147,325.164103269577,,,,,,,,,,,,,,,,,,,,,,,,,,,,,,,,,,,,,,,,,,,,,,,,,,,,,,,,,,,,,,,,,,,,,,,,,,,,,,,,,163.56295043224077,171.6896834254964,159.73309826469796,78.23326335384374,158.94064758593638,85.37547399659302,2.1,2.11,-221,270,0,257,178,-263,325.1496286392212,325.1497039794922,325.15252709388733,325.164103269577,325.31498408317566,325.31498408317566,325.31498408317566,325.31498408317566,325.31498408317566,325.31498408317566,325.31498408317566,327.45292949676514,1,2.280238151550293,None,,,,,,,,,,,,,,,,,,113,1,2025-02-25_14h05.07.354,comp,2024.2.4,None,2025-02-25 14h05.17.238983 -0500,
35,35,0,critical,whd,35.0,2.1,upper,125.0,200.0,200.0,125.0,127.0,127.0,2,9.423033952713013,None,,,,,0,0,0,0,0,35,35,37,327.4692370891571,,,,,,,,,,,,,,,,,,,,,,,,,,,,,,,,,,,,,,,,,,,,,,,,,,,,,,,,,,,,,,,,,,,,,,,,,,,,,,,,,125.0,200.0,200.0,125.0,127.0,127.0,2.1,2.11,-258,271,0,274,222,-264,327.45458245277405,327.4547095298767,327.4584004878998,327.4692370891571,327.6153631210327,327.6153631210327,327.6153631210327,327.6153631210327,327.6153631210327,327.6153631210327,327.6153631210327,336.90085196495056,2,9.423033952713013,None,,,,,,,,,,,,,,,,,,113,1,2025-02-25_14h05.07.354,comp,2024.2.4,None,2025-02-25 14h05.17.238983 -0500,
36,36,0,filler_random,None,None,None,None,None,None,None,None,None,None,3,5.4310243129730225,None,,,,,0,0,0,0,0,36,36,168,336.91737127304077,,,,,,,,,,,,,,,,,,,,,,,,,,,,,,,,,,,,,,,,,,,,,,,,,,,,,,,,,,,,,,,,,,,,,,,,,,,,,,,,,63.35384814927494,111.63275163192078,75.03626913560277,136.7542565542165,197.51595212422887,63.39868052890921,4.0,4.2,-220,-17,0,-277,196,-3,336.90256810188293,336.9026436805725,336.9055588245392,336.91737127304077,337.0724091529846,337.0724091529846,337.0724091529846,337.0724091529846,337.0724091529846,337.0724091529846,337.0724091529846,342.35220551490784,3,5.4310243129730225,None,,,,,,,,,,,,,,,,,,113,1,2025-02-25_14h05.07.354,comp,2024.2.4,None,2025-02-25 14h05.17.238983 -0500,
37,37,0,filler_square,None,None,None,None,None,None,None,None,None,None,1,3.1477324962615967,None,,,,,0,0,0,0,0,37,37,208,342.3686249256134,,,,,,,,,,,,,,,,,,,,,,,,,,,,,,,,,,,,,,,,,,,,,,,,,,,,,,,,,,,,,,,,,,,,,,,,,,,,,,,,,74.06761018761043,74.06761018761043,69.63066824470499,63.031322566164135,71.29541221370586,65.78225645531217,4.0,4.1,-165,-283,0,-3,160,-276,342.3539545536041,342.3540313243866,342.35681223869324,342.3686249256134,342.52071142196655,342.52071142196655,342.52071142196655,342.52071142196655,342.52071142196655,342.52071142196655,342.52071142196655,345.52413845062256,1,3.1477324962615967,None,,,,,,,,,,,,,,,,,,113,1,2025-02-25_14h05.07.354,comp,2024.2.4,None,2025-02-25 14h05.17.238983 -0500,
38,38,0,filler_random,None,None,None,None,None,None,None,None,None,None,3,2.780294179916382,None,,,,,0,0,0,0,0,38,38,161,345.5434103012085,,,,,,,,,,,,,,,,,,,,,,,,,,,,,,,,,,,,,,,,,,,,,,,,,,,,,,,,,,,,,,,,,,,,,,,,,,,,,,,,,60.92603608265408,181.84192796351056,78.88504791867267,65.52786256310588,127.23841659716913,144.81836148928744,2.2,2.21,-220,-260,0,283,201,276,345.52652740478516,345.52661180496216,345.52958703041077,345.5434103012085,345.6868431568146,345.6868431568146,345.6868431568146,345.6868431568146,345.6868431568146,345.6868431568146,345.6868431568146,348.3263394832611,3,2.780294179916382,None,,,,,,,,,,,,,,,,,,113,1,2025-02-25_14h05.07.354,comp,2024.2.4,None,2025-02-25 14h05.17.238983 -0500,
39,39,0,critical,dhw,35.0,2.1,lower,70.0,70.0,133.0,57.0,57.0,133.0,2,5.32171893119812,None,,,,,0,0,0,0,0,39,39,24,348.3465440273285,,,,,,,,,,,,,,,,,,,,,,,,,,,,,,,,,,,,,,,,,,,,,,,,,,,,,,,,,,,,,,,,,,,,,,,,,,,,,,,,,70.0,70.0,133.0,57.0,57.0,133.0,2.1,2.12,-160,-260,0,-268,191,256,348.32793068885803,348.3280072212219,348.33084774017334,348.3465440273285,348.48827362060547,348.48827362060547,348.48827362060547,348.48827362060547,348.48827362060547,348.48827362060547,348.48827362060547,353.6740562915802,2,5.32171893119812,None,,,,,,,,,,,,,,,,,,113,1,2025-02-25_14h05.07.354,comp,2024.2.4,None,2025-02-25 14h05.17.238983 -0500,
40,40,0,filler_random,None,None,None,None,None,None,None,None,None,None,2,2.3617331981658936,None,,,,,0,0,0,0,0,40,40,140,353.689909696579,,,,,,,,,,,,,,,,,,,,,,,,,,,,,,,,,,,,,,,,,,,,,,,,,,,,,,,,,,,,,,,,,,,,,,,,,,,,,,,,,98.38490131257603,98.4403469308302,129.73430486129027,181.32569481321394,87.03572299911652,187.6841241744898,2.2,2.21,-236,-255,0,289,281,277,353.6757593154907,353.67583775520325,353.67914390563965,353.689909696579,353.83950757980347,353.83950757980347,353.83950757980347,353.83950757980347,353.83950757980347,353.83950757980347,353.83950757980347,356.0617415904999,2,2.3617331981658936,None,,,,,,,,,,,,,,,,,,113,1,2025-02-25_14h05.07.354,comp,2024.2.4,None,2025-02-25 14h05.17.238983 -0500,
41,41,0,critical,hwd,20.0,2.1,lower,133.0,57.0,57.0,133.0,78.0,78.0,1,7.403541088104248,None,,,,,0,0,0,0,0,41,41,18,356.08085560798645,,,,,,,,,,,,,,,,,,,,,,,,,,,,,,,,,,,,,,,,,,,,,,,,,,,,,,,,,,,,,,,,,,,,,,,,,,,,,,,,,133.0,57.0,57.0,133.0,78.0,78.0,2.1,2.11,-191,274,0,266,202,-265,356.0634262561798,356.0635075569153,356.0664827823639,356.08085560798645,356.22528862953186,356.22528862953186,356.22528862953186,356.22528862953186,356.22528862953186,356.22528862953186,356.22528862953186,363.49453687667847,1,7.403541088104248,None,,,,,,,,,,,,,,,,,,113,1,2025-02-25_14h05.07.354,comp,2024.2.4,None,2025-02-25 14h05.17.238983 -0500,
42,42,0,critical,wdh,20.0,2.1,lower,57.0,133.0,78.0,78.0,133.0,57.0,3,6.295945405960083,None,,,,,0,0,0,0,0,42,42,10,363.5104043483734,,,,,,,,,,,,,,,,,,,,,,,,,,,,,,,,,,,,,,,,,,,,,,,,,,,,,,,,,,,,,,,,,,,,,,,,,,,,,,,,,57.0,133.0,78.0,78.0,133.0,57.0,2.1,2.12,-202,-259,0,-260,164,279,363.49610137939453,363.4962065219879,363.499630689621,363.5104043483734,363.6701412200928,363.6701412200928,363.6701412200928,363.6701412200928,363.6701412200928,363.6701412200928,363.6701412200928,369.8116023540497,3,6.295945405960083,None,,,,,,,,,,,,,,,,,,113,1,2025-02-25_14h05.07.354,comp,2024.2.4,None,2025-02-25 14h05.17.238983 -0500,
43,43,0,filler_random,None,None,None,None,None,None,None,None,None,None,3,4.751330375671387,None,,,,,0,0,0,0,0,43,43,130,369.8288583755493,,,,,,,,,,,,,,,,,,,,,,,,,,,,,,,,,,,,,,,,,,,,,,,,,,,,,,,,,,,,,,,,,,,,,,,,,,,,,,,,,154.78616379056882,110.51975711011463,199.15898297714403,93.48782283729875,125.24209096560088,157.38646244839458,2.2,2.22,-198,256,0,-252,221,-261,369.8134756088257,369.813597202301,369.8170268535614,369.8288583755493,369.98491191864014,369.98491191864014,369.98491191864014,369.98491191864014,369.98491191864014,369.98491191864014,369.98491191864014,374.58244013786316,3,4.751330375671387,None,,,,,,,,,,,,,,,,,,113,1,2025-02-25_14h05.07.354,comp,2024.2.4,None,2025-02-25 14h05.17.238983 -0500,
44,44,0,critical,dhw,35.0,1.0,upper,127.0,127.0,200.0,125.0,125.0,200.0,2,3.9564754962921143,None,,,,,0,0,0,0,0,44,44,49,374.6010046005249,,,,,,,,,,,,,,,,,,,,,,,,,,,,,,,,,,,,,,,,,,,,,,,,,,,,,,,,,,,,,,,,,,,,,,,,,,,,,,,,,127.0,127.0,200.0,125.0,125.0,200.0,1.0,1.1,-702,260,-480,274,-222,264,374.58411478996277,374.5842740535736,374.5876739025116,374.6010046005249,374.7472403049469,374.7472403049469,374.7472403049469,374.7472403049469,374.7472403049469,374.7472403049469,374.7472403049469,378.5674819946289,2,3.9564754962921143,None,,,,,,,,,,,,,,,,,,113,1,2025-02-25_14h05.07.354,comp,2024.2.4,None,2025-02-25 14h05.17.238983 -0500,
45,45,0,critical,hwd,20.0,2.1,lower,133.0,57.0,57.0,133.0,78.0,78.0,1,21.27477478981018,None,,,,,0,0,0,0,0,45,45,42,378.5855405330658,,,,,,,,,,,,,,,,,,,,,,,,,,,,,,,,,,,,,,,,,,,,,,,,,,,,,,,,,,,,,,,,,,,,,,,,,,,,,,,,,133.0,57.0,57.0,133.0,78.0,78.0,2.1,2.11,-191,254,0,289,202,-256,378.5691878795624,378.56927967071533,378.57244062423706,378.5855405330658,378.73608660697937,378.73608660697937,378.73608660697937,378.73608660697937,378.73608660697937,378.73608660697937,378.73608660697937,399.8717873096466,1,21.27477478981018,None,,,,,,,,,,,,,,,,,,113,1,2025-02-25_14h05.07.354,comp,2024.2.4,None,2025-02-25 14h05.17.238983 -0500,
46,46,0,filler_square,None,None,None,None,None,None,None,None,None,None,2,2.7713096141815186,None,,,,,0,0,0,0,0,46,46,190,399.88845682144165,,,,,,,,,,,,,,,,,,,,,,,,,,,,,,,,,,,,,,,,,,,,,,,,,,,,,,,,,,,,,,,,,,,,,,,,,,,,,,,,,79.22996076447619,80.60085797391831,94.49893636277253,94.49893636277253,77.43783724026025,65.45449855779485,1.0,1.3,296,-260,480,-255,656,-252,399.8736469745636,399.8737282752991,399.8770978450775,399.88845682144165,400.043253660202,400.043253660202,400.043253660202,400.043253660202,400.043253660202,400.043253660202,400.043253660202,402.6727705001831,2,2.7713096141815186,None,,,,,,,,,,,,,,,,,,113,1,2025-02-25_14h05.07.354,comp,2024.2.4,None,2025-02-25 14h05.17.238983 -0500,
47,47,0,critical,whd,35.0,2.1,lower,57.0,133.0,133.0,57.0,70.0,70.0,2,3.6634151935577393,None,,,,,0,0,0,0,0,47,47,12,402.69294261932373,,,,,,,,,,,,,,,,,,,,,,,,,,,,,,,,,,,,,,,,,,,,,,,,,,,,,,,,,,,,,,,,,,,,,,,,,,,,,,,,,57.0,133.0,133.0,57.0,70.0,70.0,2.1,2.11,-191,263,0,277,160,-287,402.67431116104126,402.6743857860565,402.67767095565796,402.69294261932373,402.8423273563385,402.8423273563385,402.8423273563385,402.8423273563385,402.8423273563385,402.8423273563385,402.8423273563385,406.3585913181305,2,3.6634151935577393,None,,,,,,,,,,,,,,,,,,113,1,2025-02-25_14h05.07.354,comp,2024.2.4,None,2025-02-25 14h05.17.238983 -0500,
48,48,0,catch,None,None,None,None,None,None,None,None,None,None,1,1.9095895290374756,None,,,,,0,0,0,0,0,48,48,124,406.3755965232849,,,,,,,,,,,,,,,,,,,,,,,,,,,,,,,,,,,,,,,,,,,,,,,,,,,,,,,,,,,,,,,,,,,,,,,,,,,,,,,,,175,150,81,109,124,66,4.0,4.1,-226,-277,0,-16,184,-263,406.3607430458069,406.36082220077515,406.364403963089,406.3755965232849,406.5248761177063,406.5248761177063,406.5248761177063,406.5248761177063,406.5248761177063,406.5248761177063,406.5248761177063,408.2903130054474,1,1.9095895290374756,None,,,,,,,,,,,,,,,,,,113,1,2025-02-25_14h05.07.354,comp,2024.2.4,None,2025-02-25 14h05.17.238983 -0500,
49,49,0,critical,wdh,35.0,3.0,upper,125.0,200.0,127.0,127.0,200.0,125.0,1,6.597879409790039,None,,,,,0,0,0,0,0,49,49,75,408.3098888397217,,,,,,,,,,,,,,,,,,,,,,,,,,,,,,,,,,,,,,,,,,,,,,,,,,,,,,,,,,,,,,,,,,,,,,,,,,,,,,,,,125.0,200.0,127.0,127.0,200.0,125.0,3.0,3.2,-260,-275,0,-7,222,288,408.2917606830597,408.29183650016785,408.2948508262634,408.3098888397217,408.457453250885,408.457453250885,408.457453250885,408.457453250885,408.457453250885,408.457453250885,408.457453250885,414.9259979724884,1,6.597879409790039,None,,,,,,,,,,,,,,,,,,113,1,2025-02-25_14h05.07.354,comp,2024.2.4,None,2025-02-25 14h05.17.238983 -0500,
50,50,0,critical,wdh,20.0,3.0,lower,57.0,133.0,78.0,78.0,133.0,57.0,1,5.358452320098877,None,,,,,0,0,0,0,0,50,50,80,414.9422056674957,,,,,,,,,,,,,,,,,,,,,,,,,,,,,,,,,,,,,,,,,,,,,,,,,,,,,,,,,,,,,,,,,,,,,,,,,,,,,,,,,57.0,133.0,78.0,78.0,133.0,57.0,3.0,3.2,-202,-253,0,-1,164,271,414.92754197120667,414.9276168346405,414.9309411048889,414.9422056674957,415.0918457508087,415.0918457508087,415.0918457508087,415.0918457508087,415.0918457508087,415.0918457508087,415.0918457508087,420.3183603286743,1,5.358452320098877,None,,,,,,,,,,,,,,,,,,113,1,2025-02-25_14h05.07.354,comp,2024.2.4,None,2025-02-25 14h05.17.238983 -0500,
51,51,0,critical,hwd,35.0,4.0,upper,200.0,125.0,125.0,200.0,127.0,127.0,2,11.805879592895508,None,,,,,0,0,0,0,0,51,51,101,420.33409428596497,,,,,,,,,,,,,,,,,,,,,,,,,,,,,,,,,,,,,,,,,,,,,,,,,,,,,,,,,,,,,,,,,,,,,,,,,,,,,,,,,200.0,125.0,125.0,200.0,127.0,127.0,4.0,4.1,-258,-280,0,18,260,-280,420.3199405670166,420.3200194835663,420.3229067325592,420.33409428596497,420.480286359787,420.480286359787,420.480286359787,420.480286359787,420.480286359787,420.480286359787,420.480286359787,432.1487753391266,2,11.805879592895508,None,,,,,,,,,,,,,,,,,,113,1,2025-02-25_14h05.07.354,comp,2024.2.4,None,2025-02-25 14h05.17.238983 -0500,
52,52,0,critical,hdw,35.0,2.1,lower,133.0,57.0,70.0,70.0,57.0,133.0,1,3.102665662765503,None,,,,,0,0,0,0,0,52,52,44,432.16523909568787,,,,,,,,,,,,,,,,,,,,,,,,,,,,,,,,,,,,,,,,,,,,,,,,,,,,,,,,,,,,,,,,,,,,,,,,,,,,,,,,,133.0,57.0,70.0,70.0,57.0,133.0,2.1,2.11,-160,268,0,279,198,-252,432.1504352092743,432.1505262851715,432.15396189689636,432.16523909568787,432.31855034828186,432.31855034828186,432.31855034828186,432.31855034828186,432.31855034828186,432.31855034828186,432.31855034828186,435.28231620788574,1,3.102665662765503,None,,,,,,,,,,,,,,,,,,113,1,2025-02-25_14h05.07.354,comp,2024.2.4,None,2025-02-25 14h05.17.238983 -0500,
53,53,0,critical,dhw,20.0,2.1,upper,141.0,141.0,200.0,125.0,125.0,200.0,2,7.9772491455078125,None,,,,,0,0,0,0,0,53,53,27,435.2987871170044,,,,,,,,,,,,,,,,,,,,,,,,,,,,,,,,,,,,,,,,,,,,,,,,,,,,,,,,,,,,,,,,,,,,,,,,,,,,,,,,,141.0,141.0,200.0,125.0,125.0,200.0,2.1,2.12,-229,-257,0,-260,258,251,435.283979177475,435.28410601615906,435.2874186038971,435.2987871170044,435.45368242263794,435.45368242263794,435.45368242263794,435.45368242263794,435.45368242263794,435.45368242263794,435.45368242263794,443.2936420440674,2,7.9772491455078125,None,,,,,,,,,,,,,,,,,,113,1,2025-02-25_14h05.07.354,comp,2024.2.4,None,2025-02-25 14h05.17.238983 -0500,
54,54,0,critical,dwh,20.0,2.1,lower,78.0,78.0,57.0,133.0,133.0,57.0,2,5.154217958450317,None,,,,,0,0,0,0,0,54,54,6,443.3138074874878,,,,,,,,,,,,,,,,,,,,,,,,,,,,,,,,,,,,,,,,,,,,,,,,,,,,,,,,,,,,,,,,,,,,,,,,,,,,,,,,,78.0,78.0,57.0,133.0,133.0,57.0,2.1,2.11,-202,284,0,257,191,-258,443.2952687740326,443.2953898906708,443.2984540462494,443.3138074874878,443.45389318466187,443.45389318466187,443.45389318466187,443.45389318466187,443.45389318466187,443.45389318466187,443.45389318466187,448.4703619480133,2,5.154217958450317,None,,,,,,,,,,,,,,,,,,113,1,2025-02-25_14h05.07.354,comp,2024.2.4,None,2025-02-25 14h05.17.238983 -0500,
55,55,0,filler_square,None,None,None,None,None,None,None,None,None,None,1,3.1126554012298584,None,,,,,0,0,0,0,0,55,55,180,448.49150252342224,,,,,,,,,,,,,,,,,,,,,,,,,,,,,,,,,,,,,,,,,,,,,,,,,,,,,,,,,,,,,,,,,,,,,,,,,,,,,,,,,83.01453188009539,83.01453188009539,76.13669596051521,77.99778480877282,76.77895862678656,61.72256239000298,2.2,2.22,-177,253,0,-259,166,-288,448.4723780155182,448.4724609851837,448.47564458847046,448.49150252342224,448.63803005218506,448.63803005218506,448.63803005218506,448.63803005218506,448.63803005218506,448.63803005218506,448.63803005218506,451.6212646961212,1,3.1126554012298584,None,,,,,,,,,,,,,,,,,,113,1,2025-02-25_14h05.07.354,comp,2024.2.4,None,2025-02-25 14h05.17.238983 -0500,
56,56,0,critical,wdh,20.0,2.1,lower,57.0,133.0,78.0,78.0,133.0,57.0,3,11.61536693572998,None,,,,,0,0,0,0,0,56,56,34,451.6369619369507,,,,,,,,,,,,,,,,,,,,,,,,,,,,,,,,,,,,,,,,,,,,,,,,,,,,,,,,,,,,,,,,,,,,,,,,,,,,,,,,,57.0,133.0,78.0,78.0,133.0,57.0,2.1,2.12,-202,-254,0,-253,164,283,451.6228744983673,451.62296438217163,451.6265766620636,451.6369619369507,451.7875323295593,451.7875323295593,451.7875323295593,451.7875323295593,451.7875323295593,451.7875323295593,451.7875323295593,463.2595024108887,3,11.61536693572998,None,,,,,,,,,,,,,,,,,,113,1,2025-02-25_14h05.07.354,comp,2024.2.4,None,2025-02-25 14h05.17.238983 -0500,
57,57,0,catch,None,None,None,None,None,None,None,None,None,None,1,2.7363295555114746,None,,,,,0,0,0,0,0,57,57,127,463.27615094184875,,,,,,,,,,,,,,,,,,,,,,,,,,,,,,,,,,,,,,,,,,,,,,,,,,,,,,,,,,,,,,,,,,,,,,,,,,,,,,,,,137,188,96,94,126,64,1.0,1.3,243,-284,480,-268,655,-270,463.2615022659302,463.2616322040558,463.26540446281433,463.27615094184875,463.42975521087646,463.42975521087646,463.42975521087646,463.42975521087646,463.42975521087646,463.42975521087646,463.42975521087646,466.01984882354736,1,2.7363295555114746,None,,,,,,,,,,,,,,,,,,113,1,2025-02-25_14h05.07.354,comp,2024.2.4,None,2025-02-25 14h05.17.238983 -0500,
58,58,0,filler_square,None,None,None,None,None,None,None,None,None,None,1,2.17185378074646,None,,,,,0,0,0,0,0,58,58,189,466.0402760505676,,,,,,,,,,,,,,,,,,,,,,,,,,,,,,,,,,,,,,,,,,,,,,,,,,,,,,,,,,,,,,,,,,,,,,,,,,,,,,,,,100.77865476740837,100.77865476740837,70.53915049443864,58.367710805120176,69.09133466310902,92.52751435622386,4.0,4.1,-176,-261,0,16,171,-282,466.0216164588928,466.02169489860535,466.02455258369446,466.0402760505676,466.1758906841278,466.1758906841278,466.1758906841278,466.1758906841278,466.1758906841278,466.1758906841278,466.1758906841278,468.2271406650543,1,2.17185378074646,None,,,,,,,,,,,,,,,,,,113,1,2025-02-25_14h05.07.354,comp,2024.2.4,None,2025-02-25 14h05.17.238983 -0500,
59,59,0,critical,hdw,35.0,2.1,upper,200.0,125.0,127.0,127.0,125.0,200.0,1,9.412120580673218,None,,,,,0,0,0,0,0,59,59,21,468.2479691505432,,,,,,,,,,,,,,,,,,,,,,,,,,,,,,,,,,,,,,,,,,,,,,,,,,,,,,,,,,,,,,,,,,,,,,,,,,,,,,,,,200.0,125.0,127.0,127.0,125.0,200.0,2.1,2.12,-222,-271,0,-270,260,277,468.2287526130676,468.22885632514954,468.23212909698486,468.2479691505432,468.39348912239075,468.39348912239075,468.39348912239075,468.39348912239075,468.39348912239075,468.39348912239075,468.39348912239075,477.6643342971802,1,9.412120580673218,None,,,,,,,,,,,,,,,,,,113,1,2025-02-25_14h05.07.354,comp,2024.2.4,None,2025-02-25 14h05.17.238983 -0500,
60,60,0,catch,None,None,None,None,None,None,None,None,None,None,3,2.798434257507324,None,,,,,0,0,0,0,0,60,60,121,477.6854956150055,,,,,,,,,,,,,,,,,,,,,,,,,,,,,,,,,,,,,,,,,,,,,,,,,,,,,,,,,,,,,,,,,,,,,,,,,,,,,,,,,98,92,113,77,177,148,1.0,1.2,-180,-11,0,-17,208,-14,477.6663055419922,477.6663854122162,477.66961789131165,477.6854956150055,477.83585143089294,477.83585143089294,477.83585143089294,477.83585143089294,477.83585143089294,477.83585143089294,477.83585143089294,480.4995930194855,3,2.798434257507324,None,,,,,,,,,,,,,,,,,,113,1,2025-02-25_14h05.07.354,comp,2024.2.4,None,2025-02-25 14h05.17.238983 -0500,
61,61,0,critical,hdw,35.0,2.1,upper,200.0,125.0,127.0,127.0,125.0,200.0,1,4.864673137664795,None,,,,,0,0,0,0,0,61,61,45,480.5155372619629,,,,,,,,,,,,,,,,,,,,,,,,,,,,,,,,,,,,,,,,,,,,,,,,,,,,,,,,,,,,,,,,,,,,,,,,,,,,,,,,,200.0,125.0,127.0,127.0,125.0,200.0,2.1,2.11,-222,270,0,283,260,-254,480.5012938976288,480.5013725757599,480.5052123069763,480.5155372619629,480.6707112789154,480.6707112789154,480.6707112789154,480.6707112789154,480.6707112789154,480.6707112789154,480.6707112789154,485.3868980407715,1,4.864673137664795,None,,,,,,,,,,,,,,,,,,113,1,2025-02-25_14h05.07.354,comp,2024.2.4,None,2025-02-25 14h05.17.238983 -0500,
62,62,0,filler_random,None,None,None,None,None,None,None,None,None,None,1,6.952434301376343,None,,,,,0,0,0,0,0,62,62,134,485.40480184555054,,,,,,,,,,,,,,,,,,,,,,,,,,,,,,,,,,,,,,,,,,,,,,,,,,,,,,,,,,,,,,,,,,,,,,,,,,,,,,,,,98.0469179114813,119.12538446998065,84.78089344122276,98.75626729266575,80.1797826234568,136.96868984648984,3.0,3.2,-205,-290,0,14,214,276,485.3885962963104,485.38872480392456,485.3916256427765,485.40480184555054,485.54940462112427,485.54940462112427,485.54940462112427,485.54940462112427,485.54940462112427,485.54940462112427,485.54940462112427,492.36783504486084,1,6.952434301376343,None,,,,,,,,,,,,,,,,,,113,1,2025-02-25_14h05.07.354,comp,2024.2.4,None,2025-02-25 14h05.17.238983 -0500,
63,63,0,filler_square,None,None,None,None,None,None,None,None,None,None,2,1.6676177978515625,None,,,,,0,0,0,0,0,63,63,198,492.38421654701233,,,,,,,,,,,,,,,,,,,,,,,,,,,,,,,,,,,,,,,,,,,,,,,,,,,,,,,,,,,,,,,,,,,,,,,,,,,,,,,,,59.535159089570314,91.63201239891517,109.86569458337802,109.86569458337802,61.436957371622356,86.92694995356996,2.2,2.21,-197,-253,0,262,194,252,492.36975932121277,492.3698606491089,492.37327098846436,492.38421654701233,492.5354290008545,492.5354290008545,492.5354290008545,492.5354290008545,492.5354290008545,492.5354290008545,492.5354290008545,494.0712425708771,2,1.6676177978515625,None,,,,,,,,,,,,,,,,,,113,1,2025-02-25_14h05.07.354,comp,2024.2.4,None,2025-02-25 14h05.17.238983 -0500,
64,64,0,filler_random,None,None,None,None,None,None,None,None,None,None,3,7.1706383228302,None,,,,,0,0,0,0,0,64,64,146,494.08948826789856,,,,,,,,,,,,,,,,,,,,,,,,,,,,,,,,,,,,,,,,,,,,,,,,,,,,,,,,,,,,,,,,,,,,,,,,,,,,,,,,,93.7408555435889,145.9848844472382,172.59303245104348,158.1097822394428,132.6306638382961,182.35681157121178,3.0,3.1,-248,277,0,12,266,-264,494.0730299949646,494.0731122493744,494.0761365890503,494.08948826789856,494.23526668548584,494.23526668548584,494.23526668548584,494.23526668548584,494.23526668548584,494.23526668548584,494.23526668548584,501.2694411277771,3,7.1706383228302,None,,,,,,,,,,,,,,,,,,113,1,2025-02-25_14h05.07.354,comp,2024.2.4,None,2025-02-25 14h05.17.238983 -0500,
65,65,0,catch,None,None,None,None,None,None,None,None,None,None,3,1.6669349670410156,None,,,,,0,0,0,0,0,65,65,120,501.28911685943604,,,,,,,,,,,,,,,,,,,,,,,,,,,,,,,,,,,,,,,,,,,,,,,,,,,,,,,,,,,,,,,,,,,,,,,,,,,,,,,,,118,72,115,75,188,137,4.0,4.2,-170,14,0,-268,202,19,501.27149868011475,501.2715754508972,501.2747576236725,501.28911685943604,501.42301297187805,501.42301297187805,501.42301297187805,501.42301297187805,501.42301297187805,501.42301297187805,501.42301297187805,502.9689962863922,3,1.6669349670410156,None,,,,,,,,,,,,,,,,,,113,1,2025-02-25_14h05.07.354,comp,2024.2.4,None,2025-02-25 14h05.17.238983 -0500,
66,66,0,filler_random,None,None,None,None,None,None,None,None,None,None,3,1.6515061855316162,None,,,,,0,0,0,0,0,66,66,163,502.98448181152344,,,,,,,,,,,,,,,,,,,,,,,,,,,,,,,,,,,,,,,,,,,,,,,,,,,,,,,,,,,,,,,,,,,,,,,,,,,,,,,,,175.35697559820983,57.46092365340332,125.15032501098577,108.90860182292079,195.22587401864052,142.52727947537247,2.2,2.21,-179,-287,0,258,222,261,502.970685005188,502.97075843811035,502.97357845306396,502.98448181152344,503.13666796684265,503.13666796684265,503.13666796684265,503.13666796684265,503.13666796684265,503.13666796684265,503.13666796684265,504.6415259838104,3,1.6515061855316162,None,,,,,,,,,,,,,,,,,,113,1,2025-02-25_14h05.07.354,comp,2024.2.4,None,2025-02-25 14h05.17.238983 -0500,
67,67,0,filler_square,None,None,None,None,None,None,None,None,None,None,2,3.35140061378479,None,,,,,0,0,0,0,0,67,67,200,504.661559343338,,,,,,,,,,,,,,,,,,,,,,,,,,,,,,,,,,,,,,,,,,,,,,,,,,,,,,,,,,,,,,,,,,,,,,,,,,,,,,,,,73.82783600905785,67.20720004340365,76.29372866583073,76.29372866583073,57.848865475519496,75.72949917138118,2.1,2.11,-168,277,0,265,172,-283,504.6435761451721,504.6437027454376,504.64666223526,504.661559343338,504.8050322532654,504.8050322532654,504.8050322532654,504.8050322532654,504.8050322532654,504.8050322532654,504.8050322532654,508.0232424736023,2,3.35140061378479,None,,,,,,,,,,,,,,,,,,113,1,2025-02-25_14h05.07.354,comp,2024.2.4,None,2025-02-25 14h05.17.238983 -0500,
68,68,0,critical,hwd,35.0,2.1,lower,133.0,57.0,57.0,133.0,70.0,70.0,1,5.325559854507446,None,,,,,0,0,0,0,0,68,68,40,508.039781332016,,,,,,,,,,,,,,,,,,,,,,,,,,,,,,,,,,,,,,,,,,,,,,,,,,,,,,,,,,,,,,,,,,,,,,,,,,,,,,,,,133.0,57.0,57.0,133.0,70.0,70.0,2.1,2.11,-191,286,0,269,198,-260,508.02477192878723,508.02485513687134,508.0280907154083,508.039781332016,508.18737745285034,508.18737745285034,508.18737745285034,508.18737745285034,508.18737745285034,508.18737745285034,508.18737745285034,513.3750557899475,1,5.325559854507446,None,,,,,,,,,,,,,,,,,,113,1,2025-02-25_14h05.07.354,comp,2024.2.4,None,2025-02-25 14h05.17.238983 -0500,
69,69,0,critical,whd,35.0,1.0,lower,57.0,133.0,133.0,57.0,70.0,70.0,1,4.314606428146362,None,,,,,0,0,0,0,0,69,69,84,513.3939070701599,,,,,,,,,,,,,,,,,,,,,,,,,,,,,,,,,,,,,,,,,,,,,,,,,,,,,,,,,,,,,,,,,,,,,,,,,,,,,,,,,57.0,133.0,133.0,57.0,70.0,70.0,1.0,1.1,-671,258,-480,281,-320,288,513.37735414505,513.3774342536926,513.3819465637207,513.3939070701599,513.5473344326019,513.5473344326019,513.5473344326019,513.5473344326019,513.5473344326019,513.5473344326019,513.5473344326019,517.7260820865631,1,4.314606428146362,None,,,,,,,,,,,,,,,,,,113,1,2025-02-25_14h05.07.354,comp,2024.2.4,None,2025-02-25 14h05.17.238983 -0500,
70,70,0,critical,hdw,20.0,1.0,lower,133.0,57.0,78.0,78.0,57.0,133.0,2,12.518630981445312,None,,,,,0,0,0,0,0,70,70,114,517.7415919303894,,,,,,,,,,,,,,,,,,,,,,,,,,,,,,,,,,,,,,,,,,,,,,,,,,,,,,,,,,,,,,,,,,,,,,,,,,,,,,,,,133.0,57.0,78.0,78.0,57.0,133.0,1.0,1.3,316,-279,480,-289,682,-285,517.7277369499207,517.7278163433075,517.7313013076782,517.7415919303894,517.8918058872223,517.8918058872223,517.8918058872223,517.8918058872223,517.8918058872223,517.8918058872223,517.8918058872223,530.2628273963928,2,12.518630981445312,None,,,,,,,,,,,,,,,,,,113,1,2025-02-25_14h05.07.354,comp,2024.2.4,None,2025-02-25 14h05.17.238983 -0500,
71,71,0,critical,hwd,35.0,3.0,lower,133.0,57.0,57.0,133.0,70.0,70.0,1,6.86280632019043,None,,,,,0,0,0,0,0,71,71,98,530.2791221141815,,,,,,,,,,,,,,,,,,,,,,,,,,,,,,,,,,,,,,,,,,,,,,,,,,,,,,,,,,,,,,,,,,,,,,,,,,,,,,,,,133.0,57.0,57.0,133.0,70.0,70.0,3.0,3.2,-191,-286,0,-19,198,270,530.2643315792084,530.2644073963165,530.2674784660339,530.2791221141815,530.4188566207886,530.4188566207886,530.4188566207886,530.4188566207886,530.4188566207886,530.4188566207886,530.4188566207886,537.1490585803986,1,6.86280632019043,None,,,,,,,,,,,,,,,,,,113,1,2025-02-25_14h05.07.354,comp,2024.2.4,None,2025-02-25 14h05.17.238983 -0500,
72,72,0,filler_square,None,None,None,None,None,None,None,None,None,None,3,1.8702564239501953,None,,,,,0,0,0,0,0,72,72,192,537.1657574176788,,,,,,,,,,,,,,,,,,,,,,,,,,,,,,,,,,,,,,,,,,,,,,,,,,,,,,,,,,,,,,,,,,,,,,,,,,,,,,,,,63.96441862889519,103.47028506375545,87.22473755703892,87.96360447998912,114.14155877911719,114.14155877911719,4.0,4.2,-192,-5,0,-263,197,-8,537.1508700847626,537.1509485244751,537.1540858745575,537.1657574176788,537.3142521381378,537.3142521381378,537.3142521381378,537.3142521381378,537.3142521381378,537.3142521381378,537.3142521381378,539.049026966095,3,1.8702564239501953,None,,,,,,,,,,,,,,,,,,113,1,2025-02-25_14h05.07.354,comp,2024.2.4,None,2025-02-25 14h05.17.238983 -0500,
73,73,0,critical,dhw,20.0,2.1,lower,78.0,78.0,133.0,57.0,57.0,133.0,2,14.972003698348999,None,,,,,0,0,0,0,0,73,73,2,539.064300775528,,,,,,,,,,,,,,,,,,,,,,,,,,,,,,,,,,,,,,,,,,,,,,,,,,,,,,,,,,,,,,,,,,,,,,,,,,,,,,,,,78.0,78.0,133.0,57.0,57.0,133.0,2.1,2.12,-164,-290,0,-268,191,252,539.0506129264832,539.0506920814514,539.0540113449097,539.064300775528,539.2135529518127,539.2135529518127,539.2135529518127,539.2135529518127,539.2135529518127,539.2135529518127,539.2135529518127,554.0538895130157,2,14.972003698348999,None,,,,,,,,,,,,,,,,,,113,1,2025-02-25_14h05.07.354,comp,2024.2.4,None,2025-02-25 14h05.17.238983 -0500,
74,74,0,critical,wdh,20.0,1.0,upper,125.0,200.0,141.0,141.0,200.0,125.0,3,4.590165376663208,None,,,,,0,0,0,0,0,74,74,79,554.0698795318604,,,,,,,,,,,,,,,,,,,,,,,,,,,,,,,,,,,,,,,,,,,,,,,,,,,,,,,,,,,,,,,,,,,,,,,,,,,,,,,,,125.0,200.0,141.0,141.0,200.0,125.0,1.0,1.2,-266,10,0,6,229,18,554.0553843975067,554.0554621219635,554.0595886707306,554.0698795318604,554.222635269165,554.222635269165,554.222635269165,554.222635269165,554.222635269165,554.222635269165,554.222635269165,558.6746649742126,3,4.590165376663208,None,,,,,,,,,,,,,,,,,,113,1,2025-02-25_14h05.07.354,comp,2024.2.4,None,2025-02-25 14h05.17.238983 -0500,
75,75,0,critical,whd,20.0,4.0,lower,57.0,133.0,133.0,57.0,78.0,78.0,2,9.610240697860718,None,,,,,0,0,0,0,0,75,75,94,558.6903703212738,,,,,,,,,,,,,,,,,,,,,,,,,,,,,,,,,,,,,,,,,,,,,,,,,,,,,,,,,,,,,,,,,,,,,,,,,,,,,,,,,57.0,133.0,133.0,57.0,78.0,78.0,4.0,4.1,-191,-263,0,-12,164,-260,558.6766083240509,558.6766891479492,558.6800191402435,558.6903703212738,558.8470461368561,558.8470461368561,558.8470461368561,558.8470461368561,558.8470461368561,558.8470461368561,558.8470461368561,568.3083131313324,2,9.610240697860718,None,,,,,,,,,,,,,,,,,,113,1,2025-02-25_14h05.07.354,comp,2024.2.4,None,2025-02-25 14h05.17.238983 -0500,
76,76,0,critical,wdh,35.0,4.0,lower,57.0,133.0,70.0,70.0,133.0,57.0,3,11.40868091583252,None,,,,,0,0,0,0,0,76,76,76,568.3241262435913,,,,,,,,,,,,,,,,,,,,,,,,,,,,,,,,,,,,,,,,,,,,,,,,,,,,,,,,,,,,,,,,,,,,,,,,,,,,,,,,,57.0,133.0,70.0,70.0,133.0,57.0,4.0,4.1,-198,-274,0,-3,160,-277,568.3098640441895,568.3099453449249,568.3133635520935,568.3241262435913,568.4736220836639,568.4736220836639,568.4736220836639,568.4736220836639,568.4736220836639,568.4736220836639,568.4736220836639,579.7504572868347,3,11.40868091583252,None,,,,,,,,,,,,,,,,,,113,1,2025-02-25_14h05.07.354,comp,2024.2.4,None,2025-02-25 14h05.17.238983 -0500,
77,77,0,critical,dwh,35.0,3.0,upper,127.0,127.0,125.0,200.0,200.0,125.0,2,2.29243540763855,None,,,,,0,0,0,0,0,77,77,63,579.7676348686218,,,,,,,,,,,,,,,,,,,,,,,,,,,,,,,,,,,,,,,,,,,,,,,,,,,,,,,,,,,,,,,,,,,,,,,,,,,,,,,,,127.0,127.0,125.0,200.0,200.0,125.0,3.0,3.2,-260,-266,0,12,258,265,579.7520089149475,579.75208568573,579.7549738883972,579.7676348686218,579.9123375415802,579.9123375415802,579.9123375415802,579.9123375415802,579.9123375415802,579.9123375415802,579.9123375415802,582.0628201961517,2,2.29243540763855,None,,,,,,,,,,,,,,,,,,113,1,2025-02-25_14h05.07.354,comp,2024.2.4,None,2025-02-25 14h05.17.238983 -0500,
78,78,0,critical,whd,20.0,1.0,upper,125.0,200.0,200.0,125.0,141.0,141.0,2,6.416061162948608,None,,,,,0,0,0,0,0,78,78,91,582.0840191841125,,,,,,,,,,,,,,,,,,,,,,,,,,,,,,,,,,,,,,,,,,,,,,,,,,,,,,,,,,,,,,,,,,,,,,,,,,,,,,,,,125.0,200.0,200.0,125.0,141.0,141.0,1.0,1.3,222,-256,480,-271,709,-277,582.0644617080688,582.0645816326141,582.0680658817291,582.0840191841125,582.2329721450806,582.2329721450806,582.2329721450806,582.2329721450806,582.2329721450806,582.2329721450806,582.2329721450806,588.5160803794861,2,6.416061162948608,None,,,,,,,,,,,,,,,,,,113,1,2025-02-25_14h05.07.354,comp,2024.2.4,None,2025-02-25 14h05.17.238983 -0500,
79,79,0,critical,whd,35.0,4.0,lower,57.0,133.0,133.0,57.0,70.0,70.0,2,2.7783217430114746,None,,,,,0,0,0,0,0,79,79,88,588.5299685001373,,,,,,,,,,,,,,,,,,,,,,,,,,,,,,,,,,,,,,,,,,,,,,,,,,,,,,,,,,,,,,,,,,,,,,,,,,,,,,,,,57.0,133.0,133.0,57.0,70.0,70.0,4.0,4.2,-191,1,0,-286,160,6,588.5178394317627,588.5179183483124,588.5209002494812,588.5299685001373,588.6796145439148,588.6796145439148,588.6796145439148,588.6796145439148,588.6796145439148,588.6796145439148,588.6796145439148,591.3189613819122,2,2.7783217430114746,None,,,,,,,,,,,,,,,,,,113,1,2025-02-25_14h05.07.354,comp,2024.2.4,None,2025-02-25 14h05.17.238983 -0500,
80,80,0,catch,None,None,None,None,None,None,None,None,None,None,3,1.7845661640167236,None,,,,,0,0,0,0,0,80,80,128,591.3402910232544,,,,,,,,,,,,,,,,,,,,,,,,,,,,,,,,,,,,,,,,,,,,,,,,,,,,,,,,,,,,,,,,,,,,,,,,,,,,,,,,,61,129,129,61,148,177,3.0,3.2,-191,-275,0,-8,215,252,591.3209886550903,591.3210725784302,591.3243818283081,591.3402910232544,591.4819259643555,591.4819259643555,591.4819259643555,591.4819259643555,591.4819259643555,591.4819259643555,591.4819259643555,593.1316211223602,3,1.7845661640167236,None,,,,,,,,,,,,,,,,,,113,1,2025-02-25_14h05.07.354,comp,2024.2.4,None,2025-02-25 14h05.17.238983 -0500,
81,81,0,filler_square,None,None,None,None,None,None,None,None,None,None,3,1.3912482261657715,None,,,,,0,0,0,0,0,81,81,191,593.156729221344,,,,,,,,,,,,,,,,,,,,,,,,,,,,,,,,,,,,,,,,,,,,,,,,,,,,,,,,,,,,,,,,,,,,,,,,,,,,,,,,,66.7706864504534,69.3031720386805,58.70790654398177,57.1179030866901,101.25352835157695,101.25352835157695,1.0,1.2,-159,-16,0,-18,175,5,593.1335513591766,593.1336517333984,593.1368217468262,593.156729221344,593.2985451221466,593.2985451221466,593.2985451221466,593.2985451221466,593.2985451221466,593.2985451221466,593.2985451221466,594.5654635429382,3,1.3912482261657715,None,,,,,,,,,,,,,,,,,,113,1,2025-02-25_14h05.07.354,comp,2024.2.4,None,2025-02-25 14h05.17.238983 -0500,
82,82,0,filler_random,None,None,None,None,None,None,None,None,None,None,3,3.2758266925811768,None,,,,,0,0,0,0,0,82,82,167,594.5841805934906,,,,,,,,,,,,,,,,,,,,,,,,,,,,,,,,,,,,,,,,,,,,,,,,,,,,,,,,,,,,,,,,,,,,,,,,,,,,,,,,,127.89251040004477,137.3136106256151,192.49473606455584,119.27264436479484,194.87365996678648,179.34504196147407,3.0,3.1,-224,276,0,-18,245,-281,594.567088842392,594.567183971405,594.5701885223389,594.5841805934906,594.7311346530914,594.7311346530914,594.7311346530914,594.7311346530914,594.7311346530914,594.7311346530914,594.7311346530914,597.8733379840851,3,3.2758266925811768,None,,,,,,,,,,,,,,,,,,113,1,2025-02-25_14h05.07.354,comp,2024.2.4,None,2025-02-25 14h05.17.238983 -0500,
83,83,0,filler_random,None,None,None,None,None,None,None,None,None,None,1,1.7565429210662842,None,,,,,0,0,0,0,0,83,83,162,597.8881878852844,,,,,,,,,,,,,,,,,,,,,,,,,,,,,,,,,,,,,,,,,,,,,,,,,,,,,,,,,,,,,,,,,,,,,,,,,,,,,,,,,199.06182198544715,138.49451935937506,158.17535060341902,77.79723376095389,80.38312716744403,159.96390876364788,4.0,4.2,-204,-1,0,-280,215,-12,597.874965429306,597.8750431537628,597.8778691291809,597.8881878852844,598.0365011692047,598.0365011692047,598.0365011692047,598.0365011692047,598.0365011692047,598.0365011692047,598.0365011692047,599.652984380722,1,1.7565429210662842,None,,,,,,,,,,,,,,,,,,113,1,2025-02-25_14h05.07.354,comp,2024.2.4,None,2025-02-25 14h05.17.238983 -0500,
84,84,0,filler_random,None,None,None,None,None,None,None,None,None,None,3,2.681877613067627,None,,,,,0,0,0,0,0,84,84,152,599.6667997837067,,,,,,,,,,,,,,,,,,,,,,,,,,,,,,,,,,,,,,,,,,,,,,,,,,,,,,,,,,,,,,,,,,,,,,,,,,,,,,,,,129.76643193397234,95.34536923508279,127.72268820571816,60.6576056619775,134.06985257377212,196.6522437359542,2.1,2.11,-174,272,0,286,225,-253,599.6544523239136,599.6544826030731,599.655686378479,599.6667997837067,599.8177487850189,599.8177487850189,599.8177487850189,599.8177487850189,599.8177487850189,599.8177487850189,599.8177487850189,602.3507978916168,3,2.681877613067627,None,,,,,,,,,,,,,,,,,,113,1,2025-02-25_14h05.07.354,comp,2024.2.4,None,2025-02-25 14h05.17.238983 -0500,
85,85,0,filler_random,None,None,None,None,None,None,None,None,None,None,2,2.4766345024108887,None,,,,,0,0,0,0,0,85,85,136,602.367434501648,,,,,,,,,,,,,,,,,,,,,,,,,,,,,,,,,,,,,,,,,,,,,,,,,,,,,,,,,,,,,,,,,,,,,,,,,,,,,,,,,72.83358571138336,86.77931536365611,161.08345906027546,80.05780486840484,87.48439182359604,64.88605001822879,2.2,2.21,-179,-273,0,267,168,275,602.3525910377502,602.352689743042,602.3556227684021,602.367434501648,602.5188093185425,602.5188093185425,602.5188093185425,602.5188093185425,602.5188093185425,602.5188093185425,602.5188093185425,604.8587477207184,2,2.4766345024108887,None,,,,,,,,,,,,,,,,,,113,1,2025-02-25_14h05.07.354,comp,2024.2.4,None,2025-02-25 14h05.17.238983 -0500,
86,86,0,critical,whd,35.0,1.0,upper,125.0,200.0,200.0,125.0,127.0,127.0,2,4.481523275375366,None,,,,,0,0,0,0,0,86,86,85,604.8744614124298,,,,,,,,,,,,,,,,,,,,,,,,,,,,,,,,,,,,,,,,,,,,,,,,,,,,,,,,,,,,,,,,,,,,,,,,,,,,,,,,,125.0,200.0,200.0,125.0,127.0,127.0,1.0,1.3,222,-258,480,-285,702,-253,604.8603160381317,604.8603918552399,604.8633029460907,604.8744614124298,605.0229761600494,605.0229761600494,605.0229761600494,605.0229761600494,605.0229761600494,605.0229761600494,605.0229761600494,609.374062538147,2,4.481523275375366,None,,,,,,,,,,,,,,,,,,113,1,2025-02-25_14h05.07.354,comp,2024.2.4,None,2025-02-25 14h05.17.238983 -0500,
87,87,0,critical,dhw,20.0,1.0,lower,78.0,78.0,133.0,57.0,57.0,133.0,2,4.036715507507324,None,,,,,0,0,0,0,0,87,87,54,609.3925070762634,,,,,,,,,,,,,,,,,,,,,,,,,,,,,,,,,,,,,,,,,,,,,,,,,,,,,,,,,,,,,,,,,,,,,,,,,,,,,,,,,78.0,78.0,133.0,57.0,57.0,133.0,1.0,1.3,316,-268,480,-281,671,-258,609.3759446144104,609.3760712146759,609.3792135715485,609.3925070762634,609.5375807285309,609.5375807285309,609.5375807285309,609.5375807285309,609.5375807285309,609.5375807285309,609.5375807285309,613.4454548358917,2,4.036715507507324,None,,,,,,,,,,,,,,,,,,113,1,2025-02-25_14h05.07.354,comp,2024.2.4,None,2025-02-25 14h05.17.238983 -0500,
88,88,0,filler_random,None,None,None,None,None,None,None,None,None,None,2,8.174891948699951,None,,,,,0,0,0,0,0,88,88,139,613.4618716239929,,,,,,,,,,,,,,,,,,,,,,,,,,,,,,,,,,,,,,,,,,,,,,,,,,,,,,,,,,,,,,,,,,,,,,,,,,,,,,,,,179.81495681839738,85.50056174136823,123.60579806016021,138.09108536065617,106.99399683753816,114.27937958357873,4.0,4.2,-208,4,0,-280,222,-7,613.4473402500153,613.4474248886108,613.4505982398987,613.4618716239929,613.6077177524567,613.6077177524567,613.6077177524567,613.6077177524567,613.6077177524567,613.6077177524567,613.6077177524567,621.6418180465698,2,8.174891948699951,None,,,,,,,,,,,,,,,,,,113,1,2025-02-25_14h05.07.354,comp,2024.2.4,None,2025-02-25 14h05.17.238983 -0500,
89,89,0,critical,hdw,35.0,1.0,upper,200.0,125.0,127.0,127.0,125.0,200.0,1,3.4338698387145996,None,,,,,0,0,0,0,0,89,89,109,621.6583576202393,,,,,,,,,,,,,,,,,,,,,,,,,,,,,,,,,,,,,,,,,,,,,,,,,,,,,,,,,,,,,,,,,,,,,,,,,,,,,,,,,200.0,125.0,127.0,127.0,125.0,200.0,1.0,1.2,-222,-5,0,-8,260,-10,621.6433119773865,621.6434133052826,621.6474575996399,621.6583576202393,621.8063716888428,621.8063716888428,621.8063716888428,621.8063716888428,621.8063716888428,621.8063716888428,621.8063716888428,625.1092245578766,1,3.4338698387145996,None,,,,,,,,,,,,,,,,,,113,1,2025-02-25_14h05.07.354,comp,2024.2.4,None,2025-02-25 14h05.17.238983 -0500,
90,90,0,critical,dhw,35.0,2.1,upper,127.0,127.0,200.0,125.0,125.0,200.0,2,2.016169786453247,None,,,,,0,0,0,0,0,90,90,25,625.1246252059937,,,,,,,,,,,,,,,,,,,,,,,,,,,,,,,,,,,,,,,,,,,,,,,,,,,,,,,,,,,,,,,,,,,,,,,,,,,,,,,,,127.0,127.0,200.0,125.0,125.0,200.0,2.1,2.11,-222,290,0,279,258,-276,625.1107740402222,625.1108539104462,625.1143178939819,625.1246252059937,625.2739150524139,625.2739150524139,625.2739150524139,625.2739150524139,625.2739150524139,625.2739150524139,625.2739150524139,627.1466398239136,2,2.016169786453247,None,,,,,,,,,,,,,,,,,,113,1,2025-02-25_14h05.07.354,comp,2024.2.4,None,2025-02-25 14h05.17.238983 -0500,
91,91,0,critical,hwd,35.0,2.1,upper,200.0,125.0,125.0,200.0,127.0,127.0,1,3.3612565994262695,None,,,,,0,0,0,0,0,91,91,41,627.1633052825928,,,,,,,,,,,,,,,,,,,,,,,,,,,,,,,,,,,,,,,,,,,,,,,,,,,,,,,,,,,,,,,,,,,,,,,,,,,,,,,,,200.0,125.0,125.0,200.0,127.0,127.0,2.1,2.12,-258,-278,0,-261,260,282,627.1482725143433,627.148362159729,627.1515991687775,627.1633052825928,627.3097519874573,627.3097519874573,627.3097519874573,627.3097519874573,627.3097519874573,627.3097519874573,627.3097519874573,630.5437099933624,1,3.3612565994262695,None,,,,,,,,,,,,,,,,,,113,1,2025-02-25_14h05.07.354,comp,2024.2.4,None,2025-02-25 14h05.17.238983 -0500,
92,92,0,critical,hdw,20.0,2.1,lower,133.0,57.0,78.0,78.0,57.0,133.0,1,8.531066179275513,None,,,,,0,0,0,0,0,92,92,46,630.5619623661041,,,,,,,,,,,,,,,,,,,,,,,,,,,,,,,,,,,,,,,,,,,,,,,,,,,,,,,,,,,,,,,,,,,,,,,,,,,,,,,,,133.0,57.0,78.0,78.0,57.0,133.0,2.1,2.11,-164,250,0,286,202,-287,630.5452499389648,630.5453281402588,630.5484955310822,630.5619623661041,630.7116248607635,630.7116248607635,630.7116248607635,630.7116248607635,630.7116248607635,630.7116248607635,630.7116248607635,639.1005802154541,1,8.531066179275513,None,,,,,,,,,,,,,,,,,,113,1,2025-02-25_14h05.07.354,comp,2024.2.4,None,2025-02-25 14h05.17.238983 -0500,
93,93,0,filler_square,None,None,None,None,None,None,None,None,None,None,2,3.7877278327941895,None,,,,,0,0,0,0,0,93,93,202,639.1211938858032,,,,,,,,,,,,,,,,,,,,,,,,,,,,,,,,,,,,,,,,,,,,,,,,,,,,,,,,,,,,,,,,,,,,,,,,,,,,,,,,,78.42056167668576,77.35035775471489,85.37435423242944,85.37435423242944,77.47920262894019,71.57795807008662,2.1,2.11,-177,287,0,265,174,-275,639.1024975776672,639.1025795936584,639.1055235862732,639.1211938858032,639.2631461620331,639.2631461620331,639.2631461620331,639.2631461620331,639.2631461620331,639.2631461620331,639.2631461620331,642.9161250591278,2,3.7877278327941895,None,,,,,,,,,,,,,,,,,,113,1,2025-02-25_14h05.07.354,comp,2024.2.4,None,2025-02-25 14h05.17.238983 -0500,
94,94,0,filler_square,None,None,None,None,None,None,None,None,None,None,3,14.048017501831055,None,,,,,0,0,0,0,0,94,94,170,642.9326915740967,,,,,,,,,,,,,,,,,,,,,,,,,,,,,,,,,,,,,,,,,,,,,,,,,,,,,,,,,,,,,,,,,,,,,,,,,,,,,,,,,59.48705665946719,58.044131785288954,57.78724421346805,60.78129723373736,62.87223312808839,62.87223312808839,2.1,2.11,-155,270,0,264,158,-287,642.9182250499725,642.9183025360107,642.9216666221619,642.9326915740967,643.0802931785583,643.0802931785583,643.0802931785583,643.0802931785583,643.0802931785583,643.0802931785583,643.0802931785583,656.9843168258667,3,14.048017501831055,None,,,,,,,,,,,,,,,,,,113,1,2025-02-25_14h05.07.354,comp,2024.2.4,None,2025-02-25 14h05.17.238983 -0500,
95,95,0,critical,whd,35.0,4.0,upper,125.0,200.0,200.0,125.0,127.0,127.0,2,3.036005735397339,None,,,,,0,0,0,0,0,95,95,89,657.0005259513855,,,,,,,,,,,,,,,,,,,,,,,,,,,,,,,,,,,,,,,,,,,,,,,,,,,,,,,,,,,,,,,,,,,,,,,,,,,,,,,,,125.0,200.0,200.0,125.0,127.0,127.0,4.0,4.2,-258,-19,0,-252,222,14,656.9857199192047,656.9857981204987,656.9886231422424,657.0005259513855,657.1377358436584,657.1377358436584,657.1377358436584,657.1377358436584,657.1377358436584,657.1377358436584,657.1377358436584,660.040048122406,2,3.036005735397339,None,,,,,,,,,,,,,,,,,,113,1,2025-02-25_14h05.07.354,comp,2024.2.4,None,2025-02-25 14h05.17.238983 -0500,
96,96,0,filler_random,None,None,None,None,None,None,None,None,None,None,3,2.059626817703247,None,,,,,0,0,0,0,0,96,96,135,660.0569410324097,,,,,,,,,,,,,,,,,,,,,,,,,,,,,,,,,,,,,,,,,,,,,,,,,,,,,,,,,,,,,,,,,,,,,,,,,,,,,,,,,148.9049964285616,127.02740412392401,163.154048815672,96.35015499101681,151.47063045632916,172.4510104461442,4.0,4.2,-208,-1,0,-260,230,-3,660.0419843196869,660.0420722961426,660.0453934669495,660.0569410324097,660.2039048671722,660.2039048671722,660.2039048671722,660.2039048671722,660.2039048671722,660.2039048671722,660.2039048671722,662.1202170848846,3,2.059626817703247,None,,,,,,,,,,,,,,,,,,113,1,2025-02-25_14h05.07.354,comp,2024.2.4,None,2025-02-25 14h05.17.238983 -0500,
97,97,0,critical,dwh,35.0,2.1,upper,127.0,127.0,125.0,200.0,200.0,125.0,3,7.7846519947052,None,,,,,0,0,0,0,0,97,97,5,662.139892578125,,,,,,,,,,,,,,,,,,,,,,,,,,,,,,,,,,,,,,,,,,,,,,,,,,,,,,,,,,,,,,,,,,,,,,,,,,,,,,,,,127.0,127.0,125.0,200.0,200.0,125.0,2.1,2.11,-260,260,0,278,258,-257,662.1217150688171,662.1217930316925,662.1249315738678,662.139892578125,662.2875535488129,662.2875535488129,662.2875535488129,662.2875535488129,662.2875535488129,662.2875535488129,662.2875535488129,669.9417998790741,3,7.7846519947052,None,,,,,,,,,,,,,,,,,,113,1,2025-02-25_14h05.07.354,comp,2024.2.4,None,2025-02-25 14h05.17.238983 -0500,
98,98,0,critical,dhw,35.0,2.1,upper,127.0,127.0,200.0,125.0,125.0,200.0,2,2.2311999797821045,None,,,,,0,0,0,0,0,98,98,1,669.9573795795441,,,,,,,,,,,,,,,,,,,,,,,,,,,,,,,,,,,,,,,,,,,,,,,,,,,,,,,,,,,,,,,,,,,,,,,,,,,,,,,,,127.0,127.0,200.0,125.0,125.0,200.0,2.1,2.12,-222,-288,0,-282,258,269,669.9435863494873,669.9437141418457,669.9471259117126,669.9573795795441,670.1065883636475,670.1065883636475,670.1065883636475,670.1065883636475,670.1065883636475,670.1065883636475,670.1065883636475,672.1907708644867,2,2.2311999797821045,None,,,,,,,,,,,,,,,,,,113,1,2025-02-25_14h05.07.354,comp,2024.2.4,None,2025-02-25 14h05.17.238983 -0500,
99,99,0,critical,hdw,20.0,3.0,upper,200.0,125.0,141.0,141.0,125.0,200.0,1,2.8771114349365234,None,,,,,0,0,0,0,0,99,99,117,672.2075788974762,,,,,,,,,,,,,,,,,,,,,,,,,,,,,,,,,,,,,,,,,,,,,,,,,,,,,,,,,,,,,,,,,,,,,,,,,,,,,,,,,200.0,125.0,141.0,141.0,125.0,200.0,3.0,3.2,-229,-273,0,16,266,281,672.1924114227295,672.1925413608551,672.1957876682281,672.2075788974762,672.3619711399078,672.3619711399078,672.3619711399078,672.3619711399078,672.3619711399078,672.3619711399078,672.3619711399078,675.0917592048645,1,2.8771114349365234,None,,,,,,,,,,,,,,,,,,113,1,2025-02-25_14h05.07.354,comp,2024.2.4,None,2025-02-25 14h05.17.238983 -0500,
100,100,0,critical,whd,35.0,3.0,upper,125.0,200.0,200.0,125.0,127.0,127.0,1,2.81648325920105,None,,,,,0,0,0,0,0,100,100,87,675.1082601547241,,,,,,,,,,,,,,,,,,,,,,,,,,,,,,,,,,,,,,,,,,,,,,,,,,,,,,,,,,,,,,,,,,,,,,,,,,,,,,,,,125.0,200.0,200.0,125.0,127.0,127.0,3.0,3.2,-258,-275,0,-15,222,286,675.093416929245,675.0934956073761,675.0969405174255,675.1082601547241,675.2559823989868,675.2559823989868,675.2559823989868,675.2559823989868,675.2559823989868,675.2559823989868,675.2559823989868,677.9315896034241,1,2.81648325920105,None,,,,,,,,,,,,,,,,,,113,1,2025-02-25_14h05.07.354,comp,2024.2.4,None,2025-02-25 14h05.17.238983 -0500,
101,101,0,critical,hwd,20.0,1.0,lower,133.0,57.0,57.0,133.0,78.0,78.0,1,7.551696062088013,None,,,,,0,0,0,0,0,101,101,102,677.9492497444153,,,,,,,,,,,,,,,,,,,,,,,,,,,,,,,,,,,,,,,,,,,,,,,,,,,,,,,,,,,,,,,,,,,,,,,,,,,,,,,,,133.0,57.0,57.0,133.0,78.0,78.0,1.0,1.2,-191,2,0,0,202,-8,677.9330606460571,677.9331395626068,677.936039686203,677.9492497444153,678.0924115180969,678.0924115180969,678.0924115180969,678.0924115180969,678.0924115180969,678.0924115180969,678.0924115180969,685.5102937221527,1,7.551696062088013,None,,,,,,,,,,,,,,,,,,113,1,2025-02-25_14h05.07.354,comp,2024.2.4,None,2025-02-25 14h05.17.238983 -0500,
102,102,0,critical,dwh,20.0,1.0,lower,78.0,78.0,57.0,133.0,133.0,57.0,3,5.513110637664795,None,,,,,0,0,0,0,0,102,102,66,685.5310282707214,,,,,,,,,,,,,,,,,,,,,,,,,,,,,,,,,,,,,,,,,,,,,,,,,,,,,,,,,,,,,,,,,,,,,,,,,,,,,,,,,78.0,78.0,57.0,133.0,133.0,57.0,1.0,1.2,-202,-19,0,-14,191,9,685.5118427276611,685.511919260025,685.5151081085205,685.5310282707214,685.6802706718445,685.6802706718445,685.6802706718445,685.6802706718445,685.6802706718445,685.6802706718445,685.6802706718445,691.0465369224548,3,5.513110637664795,None,,,,,,,,,,,,,,,,,,113,1,2025-02-25_14h05.07.354,comp,2024.2.4,None,2025-02-25 14h05.17.238983 -0500,
103,103,0,critical,dhw,20.0,3.0,lower,78.0,78.0,133.0,57.0,57.0,133.0,2,11.006014347076416,None,,,,,0,0,0,0,0,103,103,56,691.062239408493,,,,,,,,,,,,,,,,,,,,,,,,,,,,,,,,,,,,,,,,,,,,,,,,,,,,,,,,,,,,,,,,,,,,,,,,,,,,,,,,,78.0,78.0,133.0,57.0,57.0,133.0,3.0,3.1,-164,271,0,11,191,-273,691.0480692386627,691.0481469631195,691.0514395236969,691.062239408493,691.2139544487,691.2139544487,691.2139544487,691.2139544487,691.2139544487,691.2139544487,691.2139544487,702.0829794406891,2,11.006014347076416,None,,,,,,,,,,,,,,,,,,113,1,2025-02-25_14h05.07.354,comp,2024.2.4,None,2025-02-25 14h05.17.238983 -0500,
104,104,0,filler_square,None,None,None,None,None,None,None,None,None,None,3,1.941474437713623,None,,,,,0,0,0,0,0,104,104,181,702.1031179428101,,,,,,,,,,,,,,,,,,,,,,,,,,,,,,,,,,,,,,,,,,,,,,,,,,,,,,,,,,,,,,,,,,,,,,,,,,,,,,,,,92.22686720562751,72.8207276158353,134.61720677426143,82.68190465895195,181.60321369116969,181.60321369116969,4.0,4.2,-174,9,0,-250,228,-8,702.0847396850586,702.0848178863525,702.0878744125366,702.1031179428101,702.2504551410675,702.2504551410675,702.2504551410675,702.2504551410675,702.2504551410675,702.2504551410675,702.2504551410675,704.0489821434021,3,1.941474437713623,None,,,,,,,,,,,,,,,,,,113,1,2025-02-25_14h05.07.354,comp,2024.2.4,None,2025-02-25 14h05.17.238983 -0500,
105,105,0,critical,whd,20.0,3.0,lower,57.0,133.0,133.0,57.0,78.0,78.0,2,5.187972068786621,None,,,,,0,0,0,0,0,105,105,92,704.0648322105408,,,,,,,,,,,,,,,,,,,,,,,,,,,,,,,,,,,,,,,,,,,,,,,,,,,,,,,,,,,,,,,,,,,,,,,,,,,,,,,,,57.0,133.0,133.0,57.0,78.0,78.0,3.0,3.1,-191,268,0,2,164,-258,704.0504581928253,704.0505332946777,704.0533323287964,704.0648322105408,704.2211246490479,704.2211246490479,704.2211246490479,704.2211246490479,704.2211246490479,704.2211246490479,704.2211246490479,709.2613208293915,2,5.187972068786621,None,,,,,,,,,,,,,,,,,,113,1,2025-02-25_14h05.07.354,comp,2024.2.4,None,2025-02-25 14h05.17.238983 -0500,
106,106,0,critical,hwd,35.0,1.0,lower,133.0,57.0,57.0,133.0,70.0,70.0,1,5.402709007263184,None,,,,,0,0,0,0,0,106,106,96,709.2814753055573,,,,,,,,,,,,,,,,,,,,,,,,,,,,,,,,,,,,,,,,,,,,,,,,,,,,,,,,,,,,,,,,,,,,,,,,,,,,,,,,,133.0,57.0,57.0,133.0,70.0,70.0,1.0,1.1,-671,267,-480,277,-282,264,709.2628145217896,709.2628903388977,709.2657558917999,709.2814753055573,709.4215161800385,709.4215161800385,709.4215161800385,709.4215161800385,709.4215161800385,709.4215161800385,709.4215161800385,714.6871476173401,1,5.402709007263184,None,,,,,,,,,,,,,,,,,,113,1,2025-02-25_14h05.07.354,comp,2024.2.4,None,2025-02-25 14h05.17.238983 -0500,
107,107,0,critical,dwh,20.0,1.0,upper,141.0,141.0,125.0,200.0,200.0,125.0,3,6.3650805950164795,None,,,,,0,0,0,0,0,107,107,67,714.7033591270447,,,,,,,,,,,,,,,,,,,,,,,,,,,,,,,,,,,,,,,,,,,,,,,,,,,,,,,,,,,,,,,,,,,,,,,,,,,,,,,,,141.0,141.0,125.0,200.0,200.0,125.0,1.0,1.2,-266,-12,0,13,258,0,714.6888802051544,714.6889746189117,714.6924574375153,714.7033591270447,714.8562097549438,714.8562097549438,714.8562097549438,714.8562097549438,714.8562097549438,714.8562097549438,714.8562097549438,721.0751178264618,3,6.3650805950164795,None,,,,,,,,,,,,,,,,,,113,1,2025-02-25_14h05.07.354,comp,2024.2.4,None,2025-02-25 14h05.17.238983 -0500,
108,108,0,critical,hdw,35.0,3.0,upper,200.0,125.0,127.0,127.0,125.0,200.0,1,14.364560842514038,None,,,,,0,0,0,0,0,108,108,111,721.0956802368164,,,,,,,,,,,,,,,,,,,,,,,,,,,,,,,,,,,,,,,,,,,,,,,,,,,,,,,,,,,,,,,,,,,,,,,,,,,,,,,,,200.0,125.0,127.0,127.0,125.0,200.0,3.0,3.2,-222,-288,0,11,260,251,721.0768458843231,721.0769457817078,721.0799651145935,721.0956802368164,721.2398152351379,721.2398152351379,721.2398152351379,721.2398152351379,721.2398152351379,721.2398152351379,721.2398152351379,735.4628412723541,1,14.364560842514038,None,,,,,,,,,,,,,,,,,,113,1,2025-02-25_14h05.07.354,comp,2024.2.4,None,2025-02-25 14h05.17.238983 -0500,
109,109,0,critical,wdh,20.0,2.1,upper,125.0,200.0,141.0,141.0,200.0,125.0,1,2.973559856414795,None,,,,,0,0,0,0,0,109,109,11,735.4792327880859,,,,,,,,,,,,,,,,,,,,,,,,,,,,,,,,,,,,,,,,,,,,,,,,,,,,,,,,,,,,,,,,,,,,,,,,,,,,,,,,,125.0,200.0,141.0,141.0,200.0,125.0,2.1,2.12,-266,-268,0,-266,229,279,735.4644846916199,735.4645657539368,735.4684016704559,735.4792327880859,735.6300373077393,735.6300373077393,735.6300373077393,735.6300373077393,735.6300373077393,735.6300373077393,735.6300373077393,738.456132888794,1,2.973559856414795,None,,,,,,,,,,,,,,,,,,113,1,2025-02-25_14h05.07.354,comp,2024.2.4,None,2025-02-25 14h05.17.238983 -0500,
110,110,0,catch,None,None,None,None,None,None,None,None,None,None,3,3.058499813079834,None,,,,,0,0,0,0,0,110,110,129,738.4738011360168,,,,,,,,,,,,,,,,,,,,,,,,,,,,,,,,,,,,,,,,,,,,,,,,,,,,,,,,,,,,,,,,,,,,,,,,,,,,,,,,,99,91,96,94,160,165,2.2,2.21,-188,-275,0,268,226,264,738.4583020210266,738.4583804607391,738.4616379737854,738.4738011360168,738.6160976886749,738.6160976886749,738.6160976886749,738.6160976886749,738.6160976886749,738.6160976886749,738.6160976886749,741.547327041626,3,3.058499813079834,None,,,,,,,,,,,,,,,,,,113,1,2025-02-25_14h05.07.354,comp,2024.2.4,None,2025-02-25 14h05.17.238983 -0500,
111,111,0,filler_random,None,None,None,None,None,None,None,None,None,None,1,1.7745764255523682,None,,,,,0,0,0,0,0,111,111,155,741.566367149353,,,,,,,,,,,,,,,,,,,,,,,,,,,,,,,,,,,,,,,,,,,,,,,,,,,,,,,,,,,,,,,,,,,,,,,,,,,,,,,,,158.9557467098686,164.6290887499784,148.33000493801384,116.67846453588965,159.03796402333302,70.9757014157955,2.2,2.21,-237,-262,0,257,190,277,741.5489711761475,741.5490965843201,741.5523366928101,741.566367149353,741.713981628418,741.713981628418,741.713981628418,741.713981628418,741.713981628418,741.713981628418,741.713981628418,743.3469989299774,1,1.7745764255523682,None,,,,,,,,,,,,,,,,,,113,1,2025-02-25_14h05.07.354,comp,2024.2.4,None,2025-02-25 14h05.17.238983 -0500,
112,112,0,filler_random,None,None,None,None,None,None,None,None,None,None,3,4.112034559249878,None,,,,,0,0,0,0,0,112,112,142,743.3645060062408,,,,,,,,,,,,,,,,,,,,,,,,,,,,,,,,,,,,,,,,,,,,,,,,,,,,,,,,,,,,,,,,,,,,,,,,,,,,,,,,,169.1328018580557,91.34938066030318,154.8119229500906,168.96472704524172,130.25220123607792,196.57285371157812,2.2,2.22,-226,252,0,-276,279,-265,743.3488285541534,743.3489527702332,743.3529694080353,743.3645060062408,743.5134704113007,743.5134704113007,743.5134704113007,743.5134704113007,743.5134704113007,743.5134704113007,743.5134704113007,747.4816479682922,3,4.112034559249878,None,,,,,,,,,,,,,,,,,,113,1,2025-02-25_14h05.07.354,comp,2024.2.4,None,2025-02-25 14h05.17.238983 -0500,
113,113,0,filler_square,None,None,None,None,None,None,None,None,None,None,3,3.312070846557617,None,,,,,0,0,0,0,0,113,113,174,747.5005786418915,,,,,,,,,,,,,,,,,,,,,,,,,,,,,,,,,,,,,,,,,,,,,,,,,,,,,,,,,,,,,,,,,,,,,,,,,,,,,,,,,112.37448508830528,121.90843740961932,101.46556471085361,71.73010046558177,129.03292650101122,129.03292650101122,4.0,4.2,-193,-20,0,-264,196,1,747.483412027359,747.4835369586945,747.4867377281189,747.5005786418915,747.6495962142944,747.6495962142944,747.6495962142944,747.6495962142944,747.6495962142944,747.6495962142944,747.6495962142944,750.8161022663116,3,3.312070846557617,None,,,,,,,,,,,,,,,,,,113,1,2025-02-25_14h05.07.354,comp,2024.2.4,None,2025-02-25 14h05.17.238983 -0500,
114,114,0,critical,dwh,20.0,4.0,upper,141.0,141.0,125.0,200.0,200.0,125.0,3,4.261280536651611,None,,,,,0,0,0,0,0,114,114,71,750.831892490387,,,,,,,,,,,,,,,,,,,,,,,,,,,,,,,,,,,,,,,,,,,,,,,,,,,,,,,,,,,,,,,,,,,,,,,,,,,,,,,,,141.0,141.0,125.0,200.0,200.0,125.0,4.0,4.2,-266,19,0,-287,258,15,750.8176553249359,750.8177354335785,750.821037530899,750.831892490387,750.9817306995392,750.9817306995392,750.9817306995392,750.9817306995392,750.9817306995392,750.9817306995392,750.9817306995392,755.099219083786,3,4.261280536651611,None,,,,,,,,,,,,,,,,,,113,1,2025-02-25_14h05.07.354,comp,2024.2.4,None,2025-02-25 14h05.17.238983 -0500,
115,115,0,filler_random,None,None,None,None,None,None,None,None,None,None,3,11.437543869018555,None,,,,,0,0,0,0,0,115,115,137,755.118757724762,,,,,,,,,,,,,,,,,,,,,,,,,,,,,,,,,,,,,,,,,,,,,,,,,,,,,,,,,,,,,,,,,,,,,,,,,,,,,,,,,105.56321202863577,135.97105424434562,157.4091762825337,121.19171523070204,181.1776090702072,102.1771946674192,1.0,1.1,-705,272,-480,262,-272,278,755.101024389267,755.101176738739,755.1044538021088,755.118757724762,755.2678270339966,755.2678270339966,755.2678270339966,755.2678270339966,755.2678270339966,755.2678270339966,755.2678270339966,766.5696732997894,3,11.437543869018555,None,,,,,,,,,,,,,,,,,,113,1,2025-02-25_14h05.07.354,comp,2024.2.4,None,2025-02-25 14h05.17.238983 -0500,
116,116,0,filler_random,None,None,None,None,None,None,None,None,None,None,1,2.334761142730713,None,,,,,0,0,0,0,0,116,116,145,766.5896625518799,,,,,,,,,,,,,,,,,,,,,,,,,,,,,,,,,,,,,,,,,,,,,,,,,,,,,,,,,,,,,,,,,,,,,,,,,,,,,,,,,190.82734560755105,120.44313393673993,188.1192312946267,86.82950561257289,117.1733636566155,137.45804060735276,2.1,2.11,-200,285,0,272,208,-279,766.5713307857513,766.5714380741119,766.5747466087341,766.5896625518799,766.7372851371765,766.7372851371765,766.7372851371765,766.7372851371765,766.7372851371765,766.7372851371765,766.7372851371765,768.9377884864807,1,2.334761142730713,None,,,,,,,,,,,,,,,,,,113,1,2025-02-25_14h05.07.354,comp,2024.2.4,None,2025-02-25 14h05.17.238983 -0500,
117,117,0,filler_square,None,None,None,None,None,None,None,None,None,None,1,1.5711324214935303,None,,,,,0,0,0,0,0,117,117,201,768.9535396099091,,,,,,,,,,,,,,,,,,,,,,,,,,,,,,,,,,,,,,,,,,,,,,,,,,,,,,,,,,,,,,,,,,,,,,,,,,,,,,,,,107.49413567739776,107.49413567739776,70.11975005930265,60.42777645148592,95.70492885491129,73.84870425725114,2.2,2.21,-180,-268,0,273,163,262,768.9395997524261,768.9396781921387,768.943039894104,768.9535396099091,769.1050539016724,769.1050539016724,769.1050539016724,769.1050539016724,769.1050539016724,769.1050539016724,769.1050539016724,770.53826379776,1,1.5711324214935303,None,,,,,,,,,,,,,,,,,,113,1,2025-02-25_14h05.07.354,comp,2024.2.4,None,2025-02-25 14h05.17.238983 -0500,
118,118,0,critical,dwh,35.0,3.0,lower,70.0,70.0,57.0,133.0,133.0,57.0,3,5.20251989364624,None,,,,,0,0,0,0,0,118,118,62,770.5537741184235,,,,,,,,,,,,,,,,,,,,,,,,,,,,,,,,,,,,,,,,,,,,,,,,,,,,,,,,,,,,,,,,,,,,,,,,,,,,,,,,,70.0,70.0,57.0,133.0,133.0,57.0,3.0,3.2,-198,-261,0,7,191,276,770.5398745536804,770.5399503707886,770.5434110164642,770.5537741184235,770.70951795578,770.70951795578,770.70951795578,770.70951795578,770.70951795578,770.70951795578,770.70951795578,775.7762789726257,3,5.20251989364624,None,,,,,,,,,,,,,,,,,,113,1,2025-02-25_14h05.07.354,comp,2024.2.4,None,2025-02-25 14h05.17.238983 -0500,
119,119,0,critical,wdh,35.0,2.1,lower,57.0,133.0,70.0,70.0,133.0,57.0,3,4.554929494857788,None,,,,,0,0,0,0,0,119,119,32,775.7940130233765,,,,,,,,,,,,,,,,,,,,,,,,,,,,,,,,,,,,,,,,,,,,,,,,,,,,,,,,,,,,,,,,,,,,,,,,,,,,,,,,,57.0,133.0,70.0,70.0,133.0,57.0,2.1,2.11,-198,251,0,251,160,-283,775.7782075405121,775.7783486843109,775.7814388275146,775.7940130233765,775.9398016929626,775.9398016929626,775.9398016929626,775.9398016929626,775.9398016929626,775.9398016929626,775.9398016929626,780.3552029132843,3,4.554929494857788,None,,,,,,,,,,,,,,,,,,113,1,2025-02-25_14h05.07.354,comp,2024.2.4,None,2025-02-25 14h05.17.238983 -0500,
120,120,0,critical,hwd,35.0,3.0,upper,200.0,125.0,125.0,200.0,127.0,127.0,2,3.336914300918579,None,,,,,0,0,0,0,0,120,120,99,780.3714461326599,,,,,,,,,,,,,,,,,,,,,,,,,,,,,,,,,,,,,,,,,,,,,,,,,,,,,,,,,,,,,,,,,,,,,,,,,,,,,,,,,200.0,125.0,125.0,200.0,127.0,127.0,3.0,3.1,-258,268,0,16,260,-283,780.356748342514,780.3568263053894,780.3597493171692,780.3714461326599,780.5082523822784,780.5082523822784,780.5082523822784,780.5082523822784,780.5082523822784,780.5082523822784,780.5082523822784,783.722888469696,2,3.336914300918579,None,,,,,,,,,,,,,,,,,,113,1,2025-02-25_14h05.07.354,comp,2024.2.4,None,2025-02-25 14h05.17.238983 -0500,
121,121,0,filler_square,None,None,None,None,None,None,None,None,None,None,1,3.952601909637451,None,,,,,0,0,0,0,0,121,121,209,783.7398464679718,,,,,,,,,,,,,,,,,,,,,,,,,,,,,,,,,,,,,,,,,,,,,,,,,,,,,,,,,,,,,,,,,,,,,,,,,,,,,,,,,93.73523600186567,93.73523600186567,83.0396335183535,85.07839202690928,87.5633929381452,66.05355419904402,4.0,4.2,-185,9,0,-258,172,12,783.7246699333191,783.7247474193573,783.7276480197906,783.7398464679718,783.8804581165314,783.8804581165314,783.8804581165314,783.8804581165314,783.8804581165314,783.8804581165314,783.8804581165314,787.7124345302582,1,3.952601909637451,None,,,,,,,,,,,,,,,,,,113,1,2025-02-25_14h05.07.354,comp,2024.2.4,None,2025-02-25 14h05.17.238983 -0500,
122,122,0,critical,hwd,20.0,3.0,lower,133.0,57.0,57.0,133.0,78.0,78.0,2,5.743431568145752,None,,,,,0,0,0,0,0,122,122,104,787.7329792976379,,,,,,,,,,,,,,,,,,,,,,,,,,,,,,,,,,,,,,,,,,,,,,,,,,,,,,,,,,,,,,,,,,,,,,,,,,,,,,,,,133.0,57.0,57.0,133.0,78.0,78.0,3.0,3.1,-191,251,0,-15,202,-273,787.7140197753906,787.7141025066376,787.7176580429077,787.7329792976379,787.8756692409515,787.8756692409515,787.8756692409515,787.8756692409515,787.8756692409515,787.8756692409515,787.8756692409515,793.489616394043,2,5.743431568145752,None,,,,,,,,,,,,,,,,,,113,1,2025-02-25_14h05.07.354,comp,2024.2.4,None,2025-02-25 14h05.17.238983 -0500,
123,123,0,filler_square,None,None,None,None,None,None,None,None,None,None,1,1.1069419384002686,None,,,,,0,0,0,0,0,123,123,177,793.5054776668549,,,,,,,,,,,,,,,,,,,,,,,,,,,,,,,,,,,,,,,,,,,,,,,,,,,,,,,,,,,,,,,,,,,,,,,,,,,,,,,,,92.02169836573759,92.02169836573759,71.92866241608314,63.60551767574686,58.70326779546709,65.90400409685643,4.0,4.1,-174,-258,0,-15,161,-280,793.4914300441742,793.4915051460266,793.4944169521332,793.5054776668549,793.6570403575897,793.6570403575897,793.6570403575897,793.6570403575897,793.6570403575897,793.6570403575897,793.6570403575897,794.6291851997375,1,1.1069419384002686,None,,,,,,,,,,,,,,,,,,113,1,2025-02-25_14h05.07.354,comp,2024.2.4,None,2025-02-25 14h05.17.238983 -0500,
124,124,0,critical,wdh,35.0,2.1,upper,125.0,200.0,127.0,127.0,200.0,125.0,1,6.623279571533203,None,,,,,0,0,0,0,0,124,124,33,794.6450808048248,,,,,,,,,,,,,,,,,,,,,,,,,,,,,,,,,,,,,,,,,,,,,,,,,,,,,,,,,,,,,,,,,,,,,,,,,,,,,,,,,125.0,200.0,127.0,127.0,200.0,125.0,2.1,2.11,-260,279,0,275,222,-268,794.630716085434,794.6307907104492,794.6347696781158,794.6450808048248,794.7944812774658,794.7944812774658,794.7944812774658,794.7944812774658,794.7944812774658,794.7944812774658,794.7944812774658,801.28684258461,1,6.623279571533203,None,,,,,,,,,,,,,,,,,,113,1,2025-02-25_14h05.07.354,comp,2024.2.4,None,2025-02-25 14h05.17.238983 -0500,
125,125,0,filler_random,None,None,None,None,None,None,None,None,None,None,3,2.446129083633423,None,,,,,0,0,0,0,0,125,125,159,801.3024220466614,,,,,,,,,,,,,,,,,,,,,,,,,,,,,,,,,,,,,,,,,,,,,,,,,,,,,,,,,,,,,,,,,,,,,,,,,,,,,,,,,129.61963312726837,135.7761940499391,188.34139241061112,70.92896594545373,173.9673613400595,149.3430976167988,4.0,4.2,-199,7,0,-252,206,13,801.2885484695435,801.2886245250702,801.291510105133,801.3024220466614,801.4474718570709,801.4474718570709,801.4474718570709,801.4474718570709,801.4474718570709,801.4474718570709,801.4474718570709,803.7513117790222,3,2.446129083633423,None,,,,,,,,,,,,,,,,,,113,1,2025-02-25_14h05.07.354,comp,2024.2.4,None,2025-02-25 14h05.17.238983 -0500,
126,126,0,filler_square,None,None,None,None,None,None,None,None,None,None,1,2.146505832672119,None,,,,,0,0,0,0,0,126,126,203,803.7702639102936,,,,,,,,,,,,,,,,,,,,,,,,,,,,,,,,,,,,,,,,,,,,,,,,,,,,,,,,,,,,,,,,,,,,,,,,,,,,,,,,,176.20532218479588,176.20532218479588,84.80259603224805,68.91397595420409,148.0333956136504,130.71594333722453,2.2,2.21,-219,-270,0,275,196,276,803.7533941268921,803.7534759044647,803.7566742897034,803.7702639102936,803.915726184845,803.915726184845,803.915726184845,803.915726184845,803.915726184845,803.915726184845,803.915726184845,805.9203972816467,1,2.146505832672119,None,,,,,,,,,,,,,,,,,,113,1,2025-02-25_14h05.07.354,comp,2024.2.4,None,2025-02-25 14h05.17.238983 -0500,
127,127,0,filler_random,None,None,None,None,None,None,None,None,None,None,1,2.4681358337402344,None,,,,,0,0,0,0,0,127,127,166,805.939043045044,,,,,,,,,,,,,,,,,,,,,,,,,,,,,,,,,,,,,,,,,,,,,,,,,,,,,,,,,,,,,,,,,,,,,,,,,,,,,,,,,199.55976845725704,161.11712144505086,170.3875346396528,137.1588004011869,117.29657137410638,142.17314985215825,4.0,4.1,-245,-255,0,18,236,-286,805.9224212169647,805.9225025177002,805.9257254600525,805.939043045044,806.0806677341461,806.0806677341461,806.0806677341461,806.0806677341461,806.0806677341461,806.0806677341461,806.0806677341461,808.4102675914764,1,2.4681358337402344,None,,,,,,,,,,,,,,,,,,113,1,2025-02-25_14h05.07.354,comp,2024.2.4,None,2025-02-25 14h05.17.238983 -0500,
128,128,0,filler_random,None,None,None,None,None,None,None,None,None,None,3,7.106557846069336,None,,,,,0,0,0,0,0,128,128,133,808.4259521961212,,,,,,,,,,,,,,,,,,,,,,,,,,,,,,,,,,,,,,,,,,,,,,,,,,,,,,,,,,,,,,,,,,,,,,,,,,,,,,,,,115.93408061908306,143.75046699820072,82.50090397787135,112.42958537892878,117.7022388148296,152.51133808923277,2.2,2.21,-224,-258,0,283,228,265,808.4119818210602,808.4120628833771,808.414897441864,808.4259521961212,808.5705206394196,808.5705206394196,808.5705206394196,808.5705206394196,808.5705206394196,808.5705206394196,808.5705206394196,815.5356254577637,3,7.106557846069336,None,,,,,,,,,,,,,,,,,,113,1,2025-02-25_14h05.07.354,comp,2024.2.4,None,2025-02-25 14h05.17.238983 -0500,
129,129,0,critical,hwd,20.0,2.1,upper,200.0,125.0,125.0,200.0,141.0,141.0,1,3.5408935546875,None,,,,,0,0,0,0,0,129,129,19,815.5514423847198,,,,,,,,,,,,,,,,,,,,,,,,,,,,,,,,,,,,,,,,,,,,,,,,,,,,,,,,,,,,,,,,,,,,,,,,,,,,,,,,,200.0,125.0,125.0,200.0,141.0,141.0,2.1,2.12,-258,-266,0,-265,266,289,815.5372912883759,815.5373713970184,815.5406126976013,815.5514423847198,815.7007572650909,815.7007572650909,815.7007572650909,815.7007572650909,815.7007572650909,815.7007572650909,815.7007572650909,819.1069283485413,1,3.5408935546875,None,,,,,,,,,,,,,,,,,,113,1,2025-02-25_14h05.07.354,comp,2024.2.4,None,2025-02-25 14h05.17.238983 -0500,
130,130,0,filler_square,None,None,None,None,None,None,None,None,None,None,1,2.152273654937744,None,,,,,0,0,0,0,0,130,130,193,819.1240305900574,,,,,,,,,,,,,,,,,,,,,,,,,,,,,,,,,,,,,,,,,,,,,,,,,,,,,,,,,,,,,,,,,,,,,,,,,,,,,,,,,83.68988823680147,83.68988823680147,65.73729246168078,62.040030815257964,77.66726432158654,58.42379282055873,2.1,2.11,-169,279,0,264,156,-267,819.1087186336517,819.1087942123413,819.1117012500763,819.1240305900574,819.2685933113098,819.2685933113098,819.2685933113098,819.2685933113098,819.2685933113098,819.2685933113098,819.2685933113098,821.2865035533905,1,2.152273654937744,None,,,,,,,,,,,,,,,,,,113,1,2025-02-25_14h05.07.354,comp,2024.2.4,None,2025-02-25 14h05.17.238983 -0500,
131,131,0,critical,whd,35.0,2.1,lower,57.0,133.0,133.0,57.0,70.0,70.0,2,2.7583441734313965,None,,,,,0,0,0,0,0,131,131,36,821.3028917312622,,,,,,,,,,,,,,,,,,,,,,,,,,,,,,,,,,,,,,,,,,,,,,,,,,,,,,,,,,,,,,,,,,,,,,,,,,,,,,,,,57.0,133.0,133.0,57.0,70.0,70.0,2.1,2.11,-191,285,0,255,160,-263,821.2880291938782,821.2881078720093,821.2911977767944,821.3028917312622,821.4543032646179,821.4543032646179,821.4543032646179,821.4543032646179,821.4543032646179,821.4543032646179,821.4543032646179,824.0727365016937,2,2.7583441734313965,None,,,,,,,,,,,,,,,,,,113,1,2025-02-25_14h05.07.354,comp,2024.2.4,None,2025-02-25 14h05.17.238983 -0500,
132,132,0,filler_square,None,None,None,None,None,None,None,None,None,None,3,2.956031560897827,None,,,,,0,0,0,0,0,132,132,186,824.0892844200134,,,,,,,,,,,,,,,,,,,,,,,,,,,,,,,,,,,,,,,,,,,,,,,,,,,,,,,,,,,,,,,,,,,,,,,,,,,,,,,,,61.57788449485911,85.9886958328076,74.3585945673469,88.33882873145515,100.33663422548761,100.33663422548761,2.1,2.11,-183,282,0,268,190,-255,824.0747919082642,824.0748715400696,824.0783798694611,824.0892844200134,824.2370865345001,824.2370865345001,824.2370865345001,824.2370865345001,824.2370865345001,824.2370865345001,824.2370865345001,827.057333946228,3,2.956031560897827,None,,,,,,,,,,,,,,,,,,113,1,2025-02-25_14h05.07.354,comp,2024.2.4,None,2025-02-25 14h05.17.238983 -0500,
133,133,0,critical,hdw,20.0,4.0,upper,200.0,125.0,141.0,141.0,125.0,200.0,1,4.787396430969238,None,,,,,0,0,0,0,0,133,133,119,827.0730183124542,,,,,,,,,,,,,,,,,,,,,,,,,,,,,,,,,,,,,,,,,,,,,,,,,,,,,,,,,,,,,,,,,,,,,,,,,,,,,,,,,200.0,125.0,141.0,141.0,125.0,200.0,4.0,4.2,-229,9,0,-255,266,3,827.0590178966522,827.059118270874,827.0626168251038,827.0730183124542,827.2218317985535,827.2218317985535,827.2218317985535,827.2218317985535,827.2218317985535,827.2218317985535,827.2218317985535,831.8740930557251,1,4.787396430969238,None,,,,,,,,,,,,,,,,,,113,1,2025-02-25_14h05.07.354,comp,2024.2.4,None,2025-02-25 14h05.17.238983 -0500,
134,134,0,critical,hwd,20.0,4.0,lower,133.0,57.0,57.0,133.0,78.0,78.0,1,4.3773276805877686,None,,,,,0,0,0,0,0,134,134,106,831.8915951251984,,,,,,,,,,,,,,,,,,,,,,,,,,,,,,,,,,,,,,,,,,,,,,,,,,,,,,,,,,,,,,,,,,,,,,,,,,,,,,,,,133.0,57.0,57.0,133.0,78.0,78.0,4.0,4.1,-191,-289,0,14,202,-285,831.8756232261658,831.875697851181,831.8789417743683,831.8915951251984,832.0400807857513,832.0400807857513,832.0400807857513,832.0400807857513,832.0400807857513,832.0400807857513,832.0400807857513,836.2802608013153,1,4.3773276805877686,None,,,,,,,,,,,,,,,,,,113,1,2025-02-25_14h05.07.354,comp,2024.2.4,None,2025-02-25 14h05.17.238983 -0500,
135,135,0,critical,hdw,20.0,3.0,lower,133.0,57.0,78.0,78.0,57.0,133.0,3,3.169783115386963,None,,,,,0,0,0,0,0,135,135,116,836.2985558509827,,,,,,,,,,,,,,,,,,,,,,,,,,,,,,,,,,,,,,,,,,,,,,,,,,,,,,,,,,,,,,,,,,,,,,,,,,,,,,,,,133.0,57.0,78.0,78.0,57.0,133.0,3.0,3.1,-164,269,0,-12,202,-274,836.2818667888641,836.2819883823395,836.2852766513824,836.2985558509827,836.4429864883423,836.4429864883423,836.4429864883423,836.4429864883423,836.4429864883423,836.4429864883423,836.4429864883423,839.4827797412872,3,3.169783115386963,None,,,,,,,,,,,,,,,,,,113,1,2025-02-25_14h05.07.354,comp,2024.2.4,None,2025-02-25 14h05.17.238983 -0500,
136,136,0,filler_random,None,None,None,None,None,None,None,None,None,None,2,1.4909825325012207,None,,,,,0,0,0,0,0,136,136,149,839.4978437423706,,,,,,,,,,,,,,,,,,,,,,,,,,,,,,,,,,,,,,,,,,,,,,,,,,,,,,,,,,,,,,,,,,,,,,,,,,,,,,,,,131.84923215272227,70.05651824084327,158.52179764634968,139.04860177933247,119.38290338926407,59.5519727280398,1.0,1.2,-201,-11,0,-8,195,15,839.4845194816589,839.4845962524414,839.4875285625458,839.4978437423706,839.6428344249725,839.6428344249725,839.6428344249725,839.6428344249725,839.6428344249725,839.6428344249725,839.6428344249725,840.9938020706177,2,1.4909825325012207,None,,,,,,,,,,,,,,,,,,113,1,2025-02-25_14h05.07.354,comp,2024.2.4,None,2025-02-25 14h05.17.238983 -0500,
137,137,0,critical,dwh,20.0,2.1,lower,78.0,78.0,57.0,133.0,133.0,57.0,3,7.418910264968872,None,,,,,0,0,0,0,0,137,137,30,841.0095326900482,,,,,,,,,,,,,,,,,,,,,,,,,,,,,,,,,,,,,,,,,,,,,,,,,,,,,,,,,,,,,,,,,,,,,,,,,,,,,,,,,78.0,78.0,57.0,133.0,133.0,57.0,2.1,2.11,-202,289,0,282,191,-255,840.9953389167786,840.9954199790955,840.99889087677,841.0095326900482,841.1574087142944,841.1574087142944,841.1574087142944,841.1574087142944,841.1574087142944,841.1574087142944,841.1574087142944,848.4457783699036,3,7.418910264968872,None,,,,,,,,,,,,,,,,,,113,1,2025-02-25_14h05.07.354,comp,2024.2.4,None,2025-02-25 14h05.17.238983 -0500,
138,138,0,filler_square,None,None,None,None,None,None,None,None,None,None,1,1.750925064086914,None,,,,,0,0,0,0,0,138,138,204,848.4614927768707,,,,,,,,,,,,,,,,,,,,,,,,,,,,,,,,,,,,,,,,,,,,,,,,,,,,,,,,,,,,,,,,,,,,,,,,,,,,,,,,,99.54645419263252,99.54645419263252,62.66733635150309,92.69465229156904,91.84589033037949,91.9176665203108,2.1,2.11,-192,254,0,283,188,-287,848.4476704597473,848.4477486610413,848.4510674476624,848.4614927768707,848.6115815639496,848.6115815639496,848.6115815639496,848.6115815639496,848.6115815639496,848.6115815639496,848.6115815639496,850.2308452129364,1,1.750925064086914,None,,,,,,,,,,,,,,,,,,113,1,2025-02-25_14h05.07.354,comp,2024.2.4,None,2025-02-25 14h05.17.238983 -0500,
139,139,0,filler_square,None,None,None,None,None,None,None,None,None,None,2,1.143829345703125,None,,,,,0,0,0,0,0,139,139,205,850.2469346523285,,,,,,,,,,,,,,,,,,,,,,,,,,,,,,,,,,,,,,,,,,,,,,,,,,,,,,,,,,,,,,,,,,,,,,,,,,,,,,,,,64.750574614352,63.6166003774346,104.7758259787158,104.7758259787158,65.81369326368583,70.8326173182388,4.0,4.1,-180,-271,0,20,184,-272,850.2328827381134,850.2329585552216,850.2362687587738,850.2469346523285,850.3956184387207,850.3956184387207,850.3956184387207,850.3956184387207,850.3956184387207,850.3956184387207,850.3956184387207,851.3960044384003,2,1.143829345703125,None,,,,,,,,,,,,,,,,,,113,1,2025-02-25_14h05.07.354,comp,2024.2.4,None,2025-02-25 14h05.17.238983 -0500,
140,140,0,critical,hdw,20.0,4.0,lower,133.0,57.0,78.0,78.0,57.0,133.0,1,4.160625696182251,None,,,,,0,0,0,0,0,140,140,118,851.412433385849,,,,,,,,,,,,,,,,,,,,,,,,,,,,,,,,,,,,,,,,,,,,,,,,,,,,,,,,,,,,,,,,,,,,,,,,,,,,,,,,,133.0,57.0,78.0,78.0,57.0,133.0,4.0,4.1,-164,-254,0,-9,202,-267,851.3976063728333,851.3976848125458,851.4007692337036,851.412433385849,851.5618331432343,851.5618331432343,851.5618331432343,851.5618331432343,851.5618331432343,851.5618331432343,851.5618331432343,855.5827217102051,1,4.160625696182251,None,,,,,,,,,,,,,,,,,,113,1,2025-02-25_14h05.07.354,comp,2024.2.4,None,2025-02-25 14h05.17.238983 -0500,
141,141,0,filler_square,None,None,None,None,None,None,None,None,None,None,1,2.7493982315063477,None,,,,,0,0,0,0,0,141,141,187,855.5992002487183,,,,,,,,,,,,,,,,,,,,,,,,,,,,,,,,,,,,,,,,,,,,,,,,,,,,,,,,,,,,,,,,,,,,,,,,,,,,,,,,,65.60833900158231,66.80364988484357,67.77310421321599,67.77310421321599,60.100911567691696,59.43732018538155,2.1,2.11,-163,273,0,271,160,-250,855.5845155715942,855.5846421718597,855.5884234905243,855.5992002487183,855.7491090297699,855.7491090297699,855.7491090297699,855.7491090297699,855.7491090297699,855.7491090297699,855.7491090297699,858.3671185970306,1,2.7493982315063477,None,,,,,,,,,,,,,,,,,,113,1,2025-02-25_14h05.07.354,comp,2024.2.4,None,2025-02-25 14h05.17.238983 -0500,
142,142,0,filler_square,None,None,None,None,None,None,None,None,None,None,3,1.6065223217010498,None,,,,,0,0,0,0,0,142,142,178,858.3834383487701,,,,,,,,,,,,,,,,,,,,,,,,,,,,,,,,,,,,,,,,,,,,,,,,,,,,,,,,,,,,,,,,,,,,,,,,,,,,,,,,,98.29641660105631,75.52498337033711,78.75197951983358,85.70563608652888,114.45595960950493,114.45595960950493,4.0,4.1,-177,-257,0,15,196,-282,858.3692212104797,858.3693056106567,858.3731389045715,858.3834383487701,858.524153470993,858.524153470993,858.524153470993,858.524153470993,858.524153470993,858.524153470993,858.524153470993,859.9926836490631,3,1.6065223217010498,None,,,,,,,,,,,,,,,,,,113,1,2025-02-25_14h05.07.354,comp,2024.2.4,None,2025-02-25 14h05.17.238983 -0500,
143,143,0,filler_random,None,None,None,None,None,None,None,None,None,None,3,4.1246702671051025,None,,,,,0,0,0,0,0,143,143,156,860.0082457065582,,,,,,,,,,,,,,,,,,,,,,,,,,,,,,,,,,,,,,,,,,,,,,,,,,,,,,,,,,,,,,,,,,,,,,,,,,,,,,,,,75.31964279989603,69.69934544957177,73.77611249589646,77.47865532168628,118.24235140622272,60.2418019394749,3.0,3.1,-170,282,0,20,165,-257,859.994387626648,859.9944634437561,859.9972665309906,860.0082457065582,860.1515638828278,860.1515638828278,860.1515638828278,860.1515638828278,860.1515638828278,860.1515638828278,860.1515638828278,864.150981426239,3,4.1246702671051025,None,,,,,,,,,,,,,,,,,,113,1,2025-02-25_14h05.07.354,comp,2024.2.4,None,2025-02-25 14h05.17.238983 -0500,
