thisN,thisTrialN,thisRepN,effect,order,distance,config,diag,h_1,w_1,h_2,w_2,h_3,w_3,rect_choice.keys,rect_choice.rt,rect_choice.duration,instructions_loop.thisRepN,instructions_loop.thisTrialN,instructions_loop.thisN,instructions_loop.thisIndex,blocks.thisRepN,blocks.thisTrialN,blocks.thisN,blocks.thisIndex,trials.thisRepN,trials.thisTrialN,trials.thisN,trials.thisIndex,thisRow.t,notes,consent.started,agree_button.started,decline_button.started,consent_img.started,mouse.started,consent.stopped,agree_button.numClicks,agree_button.timesOn,agree_button.timesOff,decline_button.numClicks,decline_button.timesOn,decline_button.timesOff,mouse.x,mouse.y,mouse.leftButton,mouse.midButton,mouse.rightButton,mouse.time,mouse.clicked_name,exp_params.started,exp_params.stopped,welcome.started,welcome_text.started,welcome.stopped,instructions_1.started,instructions_1_text_1.started,instructions_1_text_2.started,key_resp.started,instructions_1.stopped,instructions_loop.key_resp.keys,instructions_loop.key_resp.rt,instructions_loop.key_resp.duration,instructions_2.started,instructions_2_text_1.started,instructions_2_text_2.started,key_resp_2.started,instructions_2.stopped,instructions_loop.key_resp_2.keys,instructions_loop.key_resp_2.rt,instructions_loop.key_resp_2.duration,instructions_3.started,instructions_3_text_1.started,r1_instr3.started,r2_instr3.started,r3_instr3.started,r1_instr3_label.started,r2_instr3_label.started,r3_instr3_label.started,instructions_3_text_3.started,instructions_3_text_4.started,key_resp_3.started,instructions_3.stopped,instructions_loop.key_resp_3.keys,instructions_loop.key_resp_3.rt,instructions_loop.key_resp_3.duration,instructions_4.started,instructions_4_text_1.started,instructions_4_text_3.started,instructions_4_text_2.started,key_resp_4.started,instructions_4.stopped,instructions_loop.key_resp_4.keys,instructions_loop.key_resp_4.rt,instructions_loop.key_resp_4.duration,instructions_5.started,instructions_5_text_1.started,instructions_5_text_2.started,key_resp_5.started,instructions_5.stopped,instructions_loop.key_resp_5.keys,instructions_loop.key_resp_5.rt,instructions_loop.key_resp_5.duration,start_exp.started,start_exp_text.started,key_resp_6.started,start_exp.stopped,key_resp_6.keys,key_resp_6.rt,key_resp_6.duration,h_1_tmp,w_1_tmp,h_2_tmp,w_2_tmp,h_3_tmp,w_3_tmp,config_tmp,config_tmp_1,r_1_x,r_1_y,r_2_x,r_2_y,r_3_x,r_3_y,pre_trial.started,pre_trial.stopped,choice_trial.started,rect_choice.started,r_1.started,r_2.started,r_3.started,r_1_label.started,r_2_label.started,r_3_label.started,prompt.started,choice_trial.stopped,trials.rect_choice.keys,trials.rect_choice.rt,trials.rect_choice.duration,end_block.started,end_block_text.started,end_block.stopped,end.started,end_text.started,key_resp_7.started,end.stopped,key_resp_7.keys,key_resp_7.rt,key_resp_7.duration,debriefing.started,debrief_form.started,end_debrief.started,debriefing.stopped,end_debrief.keys,end_debrief.rt,end_debrief.duration,participant,computer,date,expName,psychopyVersion,frameRate,expStart,
,,,,,,,,,,,,,,,,,,,,,,,,,,,,,,,0.014202594757080078,0.03394770622253418,0.03394770622253418,0.03394770622253418,0.013984203338623047,23.534029006958008,1,[23.497899293899536],[23.497921466827393],0,,,[-46.0],[-469.0],[1],[0],[0],[23.51934242248535],['agree_button'],,,,,,,,,,,,,,,,,,,,,,,,,,,,,,,,,,,,,,,,,,,,,,,,,,,,,,,,,,,,,,,,,,,,,,,,,,,,,,,,,,,,,,,,,,,,,,,,,,,,,,,,,,,114,2,2025-02-25_14h05.19.009,comp,2024.2.4,57.36726063145917,2025-02-25 14h05.28.215393 -0500,
,,,,,,,,,,,,,,,,,,,,,,,,,,,,,,,,,,,,,,,,,,,,,,,,,,23.534497022628784,23.53455400466919,,,,,,,,,,,,,,,,,,,,,,,,,,,,,,,,,,,,,,,,,,,,,,,,,,,,,,,,,,,,,,,,,,,,,,,,,,,,,,,,,,,,,,,,,,,,,,,,,,,,,,,,,114,2,2025-02-25_14h05.19.009,comp,2024.2.4,57.36726063145917,2025-02-25 14h05.28.215393 -0500,
,,,,,,,,,,,,,,,,,,,,,,,,,,,,,,,,,,,,,,,,,,,,,,,,,,,,23.534592628479004,23.548028707504272,25.541181564331055,,,,,,,,,,,,,,,,,,,,,,,,,,,,,,,,,,,,,,,,,,,,,,,,,,,,,,,,,,,,,,,,,,,,,,,,,,,,,,,,,,,,,,,,,,,,,,,,,,,,,,114,2,2025-02-25_14h05.19.009,comp,2024.2.4,57.36726063145917,2025-02-25 14h05.28.215393 -0500,
0,0,0,,,,,,,,,,,,,,,0,0,0,0,,,,,,,,,25.55959987640381,,,,,,,,,,,,,,,,,,,,,,,,,,25.542057752609253,25.55959987640381,25.55959987640381,27.041128396987915,30.661831378936768,space,3.6156251430511475,None,30.661978721618652,30.678025484085083,30.678025484085083,32.17611265182495,39.21340465545654,space,7.023829460144043,None,39.21351861953735,39.23801803588867,39.23801803588867,39.23801803588867,39.23801803588867,39.23801803588867,39.23801803588867,39.23801803588867,39.23801803588867,39.23801803588867,40.71756553649902,43.23283529281616,space,2.498493194580078,None,43.232991456985474,43.249905586242676,43.249905586242676,43.249905586242676,44.74609422683716,47.83354139328003,space,3.070004940032959,None,47.83372974395752,47.848745584487915,47.848745584487915,49.332685232162476,52.217384338378906,space,2.86740779876709,None,52.21757936477661,52.23200058937073,52.23200058937073,53.66747522354126,space,1.4324367046356201,None,,,,,,,,,,,,,,,,,,,,,,,,,,,,,,,,,,,,,,,,,,,,,,,114,2,2025-02-25_14h05.19.009,comp,2024.2.4,57.36726063145917,2025-02-25 14h05.28.215393 -0500,
0,0,0,critical,wdh,35.0,2.1,upper,125.0,200.0,127.0,127.0,200.0,125.0,1,2.6167330741882324,None,,,,,0,0,0,0,0,0,0,9,53.743274211883545,,,,,,,,,,,,,,,,,,,,,,,,,,,,,,,,,,,,,,,,,,,,,,,,,,,,,,,,,,,,,,,,,,,,,,,,,,,,,,,,,125.0,200.0,127.0,127.0,200.0,125.0,2.1,2.12,-260,-285,0,-262,222,252,53.726828813552856,53.72685766220093,53.72794961929321,53.743274211883545,53.89274001121521,53.89274001121521,53.89274001121521,53.89274001121521,53.89274001121521,53.89274001121521,53.89274001121521,56.37053465843201,1,2.6167330741882324,None,,,,,,,,,,,,,,,,,,114,2,2025-02-25_14h05.19.009,comp,2024.2.4,57.36726063145917,2025-02-25 14h05.28.215393 -0500,
1,1,0,critical,hdw,20.0,3.0,upper,200.0,125.0,141.0,141.0,125.0,200.0,3,3.366394519805908,None,,,,,0,0,0,0,0,1,1,117,56.38560390472412,,,,,,,,,,,,,,,,,,,,,,,,,,,,,,,,,,,,,,,,,,,,,,,,,,,,,,,,,,,,,,,,,,,,,,,,,,,,,,,,,200.0,125.0,141.0,141.0,125.0,200.0,3.0,3.2,-229,-253,0,18,266,252,56.37184262275696,56.37191081047058,56.37414598464966,56.38560390472412,56.53678560256958,56.53678560256958,56.53678560256958,56.53678560256958,56.53678560256958,56.53678560256958,56.53678560256958,59.75512933731079,3,3.366394519805908,None,,,,,,,,,,,,,,,,,,114,2,2025-02-25_14h05.19.009,comp,2024.2.4,57.36726063145917,2025-02-25 14h05.28.215393 -0500,
2,2,0,filler_square,None,None,None,None,None,None,None,None,None,None,1,1.8613917827606201,None,,,,,0,0,0,0,0,2,2,196,59.771273136138916,,,,,,,,,,,,,,,,,,,,,,,,,,,,,,,,,,,,,,,,,,,,,,,,,,,,,,,,,,,,,,,,,,,,,,,,,,,,,,,,,109.82302259091377,109.82302259091377,57.8209100953648,67.09865985013418,105.09654306511521,71.22604936340667,2.2,2.22,-184,266,0,-258,165,-254,59.757102727890015,59.75718116760254,59.760446548461914,59.771273136138916,59.92040991783142,59.92040991783142,59.92040991783142,59.92040991783142,59.92040991783142,59.92040991783142,59.92040991783142,61.6379280090332,1,1.8613917827606201,None,,,,,,,,,,,,,,,,,,114,2,2025-02-25_14h05.19.009,comp,2024.2.4,57.36726063145917,2025-02-25 14h05.28.215393 -0500,
3,3,0,filler_square,None,None,None,None,None,None,None,None,None,None,2,1.7530903816223145,None,,,,,0,0,0,0,0,3,3,183,61.65498661994934,,,,,,,,,,,,,,,,,,,,,,,,,,,,,,,,,,,,,,,,,,,,,,,,,,,,,,,,,,,,,,,,,,,,,,,,,,,,,,,,,89.29379174589874,61.43405292627633,104.81113062842653,104.81113062842653,87.78380169185198,98.96262308848245,3.0,3.1,-179,288,0,-9,198,-262,61.64015555381775,61.64025855064392,61.644280672073364,61.65498661994934,61.80914783477783,61.80914783477783,61.80914783477783,61.80914783477783,61.80914783477783,61.80914783477783,61.80914783477783,63.42556858062744,2,1.7530903816223145,None,,,,,,,,,,,,,,,,,,114,2,2025-02-25_14h05.19.009,comp,2024.2.4,57.36726063145917,2025-02-25 14h05.28.215393 -0500,
4,4,0,filler_square,None,None,None,None,None,None,None,None,None,None,1,1.7567460536956787,None,,,,,0,0,0,0,0,4,4,193,63.44362235069275,,,,,,,,,,,,,,,,,,,,,,,,,,,,,,,,,,,,,,,,,,,,,,,,,,,,,,,,,,,,,,,,,,,,,,,,,,,,,,,,,118.07981434062339,118.07981434062339,64.1209336604859,89.32092555200393,92.75978236422151,73.55364677896584,2.1,2.11,-200,270,0,286,177,-262,63.427433013916016,63.427509784698486,63.43044066429138,63.44362235069275,63.58940649032593,63.58940649032593,63.58940649032593,63.58940649032593,63.58940649032593,63.58940649032593,63.58940649032593,65.20485830307007,1,1.7567460536956787,None,,,,,,,,,,,,,,,,,,114,2,2025-02-25_14h05.19.009,comp,2024.2.4,57.36726063145917,2025-02-25 14h05.28.215393 -0500,
5,5,0,filler_random,None,None,None,None,None,None,None,None,None,None,3,1.5962622165679932,None,,,,,0,0,0,0,0,5,5,167,65.22048997879028,,,,,,,,,,,,,,,,,,,,,,,,,,,,,,,,,,,,,,,,,,,,,,,,,,,,,,,,,,,,,,,,,,,,,,,,,,,,,,,,,184.8251119956115,78.9481148664356,150.90862622146471,71.97500243130858,186.38304359660626,122.23417943821723,2.1,2.12,-171,-272,0,-255,193,278,65.2065122127533,65.20658731460571,65.20979642868042,65.22048997879028,65.36211347579956,65.36211347579956,65.36211347579956,65.36211347579956,65.36211347579956,65.36211347579956,65.36211347579956,66.8231782913208,3,1.5962622165679932,None,,,,,,,,,,,,,,,,,,114,2,2025-02-25_14h05.19.009,comp,2024.2.4,57.36726063145917,2025-02-25 14h05.28.215393 -0500,
6,6,0,filler_square,None,None,None,None,None,None,None,None,None,None,3,1.4007046222686768,None,,,,,0,0,0,0,0,6,6,191,66.83941698074341,,,,,,,,,,,,,,,,,,,,,,,,,,,,,,,,,,,,,,,,,,,,,,,,,,,,,,,,,,,,,,,,,,,,,,,,,,,,,,,,,58.42866761755793,68.22986768842752,64.01928223451357,84.31336043515587,103.95795170870991,103.95795170870991,4.0,4.2,-172,14,0,-289,190,13,66.82501649856567,66.82509398460388,66.82856178283691,66.83941698074341,66.9899160861969,66.9899160861969,66.9899160861969,66.9899160861969,66.9899160861969,66.9899160861969,66.9899160861969,68.25609588623047,3,1.4007046222686768,None,,,,,,,,,,,,,,,,,,114,2,2025-02-25_14h05.19.009,comp,2024.2.4,57.36726063145917,2025-02-25 14h05.28.215393 -0500,
7,7,0,critical,dhw,35.0,2.1,upper,127.0,127.0,200.0,125.0,125.0,200.0,3,1.605398178100586,None,,,,,0,0,0,0,0,7,7,25,68.276047706604,,,,,,,,,,,,,,,,,,,,,,,,,,,,,,,,,,,,,,,,,,,,,,,,,,,,,,,,,,,,,,,,,,,,,,,,,,,,,,,,,127.0,127.0,200.0,125.0,125.0,200.0,2.1,2.12,-222,-258,0,-283,258,283,68.25757503509521,68.2576494216919,68.26083469390869,68.276047706604,68.42414903640747,68.42414903640747,68.42414903640747,68.42414903640747,68.42414903640747,68.42414903640747,68.42414903640747,69.8880500793457,3,1.605398178100586,None,,,,,,,,,,,,,,,,,,114,2,2025-02-25_14h05.19.009,comp,2024.2.4,57.36726063145917,2025-02-25 14h05.28.215393 -0500,
8,8,0,critical,hwd,35.0,1.0,upper,200.0,125.0,125.0,200.0,127.0,127.0,2,3.911870241165161,None,,,,,0,0,0,0,0,8,8,97,69.90494132041931,,,,,,,,,,,,,,,,,,,,,,,,,,,,,,,,,,,,,,,,,,,,,,,,,,,,,,,,,,,,,,,,,,,,,,,,,,,,,,,,,200.0,125.0,125.0,200.0,127.0,127.0,1.0,1.2,-258,11,0,9,260,17,69.88948249816895,69.88955521583557,69.89283633232117,69.90494132041931,70.04036951065063,70.04036951065063,70.04036951065063,70.04036951065063,70.04036951065063,70.04036951065063,70.04036951065063,73.82526540756226,2,3.911870241165161,None,,,,,,,,,,,,,,,,,,114,2,2025-02-25_14h05.19.009,comp,2024.2.4,57.36726063145917,2025-02-25 14h05.28.215393 -0500,
9,9,0,filler_square,None,None,None,None,None,None,None,None,None,None,3,1.4953482151031494,None,,,,,0,0,0,0,0,9,9,188,73.84114384651184,,,,,,,,,,,,,,,,,,,,,,,,,,,,,,,,,,,,,,,,,,,,,,,,,,,,,,,,,,,,,,,,,,,,,,,,,,,,,,,,,145.93359711396238,80.56271748174711,130.46511374900984,114.89331105995109,161.30474057436757,161.30474057436757,4.0,4.1,-194,-268,0,-16,234,-275,73.82702779769897,73.82710313796997,73.8304591178894,73.84114384651184,73.9936375617981,73.9936375617981,73.9936375617981,73.9936375617981,73.9936375617981,73.9936375617981,73.9936375617981,75.34273099899292,3,1.4953482151031494,None,,,,,,,,,,,,,,,,,,114,2,2025-02-25_14h05.19.009,comp,2024.2.4,57.36726063145917,2025-02-25 14h05.28.215393 -0500,
10,10,0,critical,hwd,35.0,3.0,lower,133.0,57.0,57.0,133.0,70.0,70.0,2,3.278290033340454,None,,,,,0,0,0,0,0,10,10,98,75.36183476448059,,,,,,,,,,,,,,,,,,,,,,,,,,,,,,,,,,,,,,,,,,,,,,,,,,,,,,,,,,,,,,,,,,,,,,,,,,,,,,,,,133.0,57.0,57.0,133.0,70.0,70.0,3.0,3.1,-191,261,0,-18,198,-284,75.34419870376587,75.34427309036255,75.34729671478271,75.36183476448059,75.51012444496155,75.51012444496155,75.51012444496155,75.51012444496155,75.51012444496155,75.51012444496155,75.51012444496155,78.64990711212158,2,3.278290033340454,None,,,,,,,,,,,,,,,,,,114,2,2025-02-25_14h05.19.009,comp,2024.2.4,57.36726063145917,2025-02-25 14h05.28.215393 -0500,
11,11,0,filler_square,None,None,None,None,None,None,None,None,None,None,2,2.6205549240112305,None,,,,,0,0,0,0,0,11,11,170,78.66788721084595,,,,,,,,,,,,,,,,,,,,,,,,,,,,,,,,,,,,,,,,,,,,,,,,,,,,,,,,,,,,,,,,,,,,,,,,,,,,,,,,,64.96216083641644,66.36714099139941,111.8540947259069,111.8540947259069,88.44956730330912,91.6683747653644,3.0,3.1,-185,260,0,-16,198,-271,78.65169763565063,78.65178680419922,78.65462279319763,78.66788721084595,78.81053137779236,78.81053137779236,78.81053137779236,78.81053137779236,78.81053137779236,78.81053137779236,78.81053137779236,81.29319095611572,2,2.6205549240112305,None,,,,,,,,,,,,,,,,,,114,2,2025-02-25_14h05.19.009,comp,2024.2.4,57.36726063145917,2025-02-25 14h05.28.215393 -0500,
12,12,0,critical,dwh,20.0,2.1,lower,78.0,78.0,57.0,133.0,133.0,57.0,3,3.5669727325439453,None,,,,,0,0,0,0,0,12,12,6,81.31313896179199,,,,,,,,,,,,,,,,,,,,,,,,,,,,,,,,,,,,,,,,,,,,,,,,,,,,,,,,,,,,,,,,,,,,,,,,,,,,,,,,,78.0,78.0,57.0,133.0,133.0,57.0,2.1,2.11,-202,262,0,269,191,-277,81.29464888572693,81.2947428226471,81.29784917831421,81.31313896179199,81.46114349365234,81.46114349365234,81.46114349365234,81.46114349365234,81.46114349365234,81.46114349365234,81.46114349365234,84.89530873298645,3,3.5669727325439453,None,,,,,,,,,,,,,,,,,,114,2,2025-02-25_14h05.19.009,comp,2024.2.4,57.36726063145917,2025-02-25 14h05.28.215393 -0500,
13,13,0,filler_square,None,None,None,None,None,None,None,None,None,None,2,1.7771894931793213,None,,,,,0,0,0,0,0,13,13,185,84.91149258613586,,,,,,,,,,,,,,,,,,,,,,,,,,,,,,,,,,,,,,,,,,,,,,,,,,,,,,,,,,,,,,,,,,,,,,,,,,,,,,,,,114.1384886310683,133.57282373256243,149.47165283633086,149.47165283633086,59.69803467978805,62.024271482425306,4.0,4.1,-238,-289,0,-7,202,-281,84.89710211753845,84.8971779346466,84.90125155448914,84.91149258613586,85.05891394615173,85.05891394615173,85.05891394615173,85.05891394615173,85.05891394615173,85.05891394615173,85.05891394615173,86.69662666320801,2,1.7771894931793213,None,,,,,,,,,,,,,,,,,,114,2,2025-02-25_14h05.19.009,comp,2024.2.4,57.36726063145917,2025-02-25 14h05.28.215393 -0500,
14,14,0,critical,wdh,20.0,4.0,upper,125.0,200.0,141.0,141.0,200.0,125.0,1,4.527716875076294,None,,,,,0,0,0,0,0,14,14,83,86.71321392059326,,,,,,,,,,,,,,,,,,,,,,,,,,,,,,,,,,,,,,,,,,,,,,,,,,,,,,,,,,,,,,,,,,,,,,,,,,,,,,,,,125.0,200.0,141.0,141.0,200.0,125.0,4.0,4.2,-266,-2,0,-251,229,-16,86.69815564155579,86.69822859764099,86.70156979560852,86.71321392059326,86.86528849601746,86.86528849601746,86.86528849601746,86.86528849601746,86.86528849601746,86.86528849601746,86.86528849601746,91.24638319015503,1,4.527716875076294,None,,,,,,,,,,,,,,,,,,114,2,2025-02-25_14h05.19.009,comp,2024.2.4,57.36726063145917,2025-02-25 14h05.28.215393 -0500,
15,15,0,critical,wdh,35.0,1.0,upper,125.0,200.0,127.0,127.0,200.0,125.0,3,4.693932771682739,None,,,,,0,0,0,0,0,15,15,73,91.26688623428345,,,,,,,,,,,,,,,,,,,,,,,,,,,,,,,,,,,,,,,,,,,,,,,,,,,,,,,,,,,,,,,,,,,,,,,,,,,,,,,,,125.0,200.0,127.0,127.0,200.0,125.0,1.0,1.3,220,-250,480,-256,702,-279,91.24800610542297,91.24807953834534,91.25135684013367,91.26688623428345,91.41445708274841,91.41445708274841,91.41445708274841,91.41445708274841,91.41445708274841,91.41445708274841,91.41445708274841,95.96551132202148,3,4.693932771682739,None,,,,,,,,,,,,,,,,,,114,2,2025-02-25_14h05.19.009,comp,2024.2.4,57.36726063145917,2025-02-25 14h05.28.215393 -0500,
16,16,0,filler_square,None,None,None,None,None,None,None,None,None,None,2,0.9942264556884766,None,,,,,0,0,0,0,0,16,16,200,95.98224234580994,,,,,,,,,,,,,,,,,,,,,,,,,,,,,,,,,,,,,,,,,,,,,,,,,,,,,,,,,,,,,,,,,,,,,,,,,,,,,,,,,95.92566596431196,66.06094201257368,141.36256664722566,141.36256664722566,107.6853146460125,96.20386152238767,2.2,2.22,-200,254,0,-251,215,-254,95.96723508834839,95.96730947494507,95.97072792053223,95.98224234580994,96.1158356666565,96.1158356666565,96.1158356666565,96.1158356666565,96.1158356666565,96.1158356666565,96.1158356666565,96.98508143424988,2,0.9942264556884766,None,,,,,,,,,,,,,,,,,,114,2,2025-02-25_14h05.19.009,comp,2024.2.4,57.36726063145917,2025-02-25 14h05.28.215393 -0500,
17,17,0,critical,hdw,35.0,1.0,upper,200.0,125.0,127.0,127.0,125.0,200.0,3,2.0212161540985107,None,,,,,0,0,0,0,0,17,17,109,97.00360655784607,,,,,,,,,,,,,,,,,,,,,,,,,,,,,,,,,,,,,,,,,,,,,,,,,,,,,,,,,,,,,,,,,,,,,,,,,,,,,,,,,200.0,125.0,127.0,127.0,125.0,200.0,1.0,1.3,258,-265,480,-254,740,-282,96.9869704246521,96.98710107803345,96.99024319648743,97.00360655784607,97.14878344535828,97.14878344535828,97.14878344535828,97.14878344535828,97.14878344535828,97.14878344535828,97.14878344535828,99.0337963104248,3,2.0212161540985107,None,,,,,,,,,,,,,,,,,,114,2,2025-02-25_14h05.19.009,comp,2024.2.4,57.36726063145917,2025-02-25 14h05.28.215393 -0500,
18,18,0,filler_random,None,None,None,None,None,None,None,None,None,None,3,2.4297585487365723,None,,,,,0,0,0,0,0,18,18,140,99.05035328865051,,,,,,,,,,,,,,,,,,,,,,,,,,,,,,,,,,,,,,,,,,,,,,,,,,,,,,,,,,,,,,,,,,,,,,,,,,,,,,,,,91.76662646187188,101.74177900625463,58.801670338734446,126.6479256406807,74.0437137838097,155.20764469898978,2.2,2.22,-210,259,0,-275,237,-273,99.03569293022156,99.03578567504883,99.03953099250793,99.05035328865051,99.19901299476624,99.19901299476624,99.19901299476624,99.19901299476624,99.19901299476624,99.19901299476624,99.19901299476624,101.48359489440918,3,2.4297585487365723,None,,,,,,,,,,,,,,,,,,114,2,2025-02-25_14h05.19.009,comp,2024.2.4,57.36726063145917,2025-02-25 14h05.28.215393 -0500,
19,19,0,critical,whd,20.0,2.1,lower,57.0,133.0,133.0,57.0,78.0,78.0,1,1.4767351150512695,None,,,,,0,0,0,0,0,19,19,38,101.49935603141785,,,,,,,,,,,,,,,,,,,,,,,,,,,,,,,,,,,,,,,,,,,,,,,,,,,,,,,,,,,,,,,,,,,,,,,,,,,,,,,,,57.0,133.0,133.0,57.0,78.0,78.0,2.1,2.12,-191,-272,0,-262,164,257,101.48512268066406,101.48519802093506,101.4885618686676,101.49935603141785,101.6480484008789,101.6480484008789,101.6480484008789,101.6480484008789,101.6480484008789,101.6480484008789,101.6480484008789,102.99029231071472,1,1.4767351150512695,None,,,,,,,,,,,,,,,,,,114,2,2025-02-25_14h05.19.009,comp,2024.2.4,57.36726063145917,2025-02-25 14h05.28.215393 -0500,
20,20,0,filler_random,None,None,None,None,None,None,None,None,None,None,2,1.4169774055480957,None,,,,,0,0,0,0,0,20,20,161,103.00784468650818,,,,,,,,,,,,,,,,,,,,,,,,,,,,,,,,,,,,,,,,,,,,,,,,,,,,,,,,,,,,,,,,,,,,,,,,,,,,,,,,,108.70116778540375,151.6096223057655,144.71854060674758,180.67079411602236,64.94854004563125,98.81747236855219,3.0,3.1,-262,284,0,13,236,-272,102.99198651313782,102.99206447601318,102.9949266910553,103.00784468650818,103.15057015419006,103.15057015419006,103.15057015419006,103.15057015419006,103.15057015419006,103.15057015419006,103.15057015419006,104.43506336212158,2,1.4169774055480957,None,,,,,,,,,,,,,,,,,,114,2,2025-02-25_14h05.19.009,comp,2024.2.4,57.36726063145917,2025-02-25 14h05.28.215393 -0500,
21,21,0,filler_random,None,None,None,None,None,None,None,None,None,None,2,5.109234809875488,None,,,,,0,0,0,0,0,21,21,148,104.45131373405457,,,,,,,,,,,,,,,,,,,,,,,,,,,,,,,,,,,,,,,,,,,,,,,,,,,,,,,,,,,,,,,,,,,,,,,,,,,,,,,,,85.09477310415119,97.08452346771173,104.59228368211076,119.07152191303771,67.98779318246179,143.9569336727066,2.2,2.22,-204,285,0,-259,228,-268,104.43695855140686,104.43708777427673,104.4405460357666,104.45131373405457,104.60061287879944,104.60061287879944,104.60061287879944,104.60061287879944,104.60061287879944,104.60061287879944,104.60061287879944,109.57129573822021,2,5.109234809875488,None,,,,,,,,,,,,,,,,,,114,2,2025-02-25_14h05.19.009,comp,2024.2.4,57.36726063145917,2025-02-25 14h05.28.215393 -0500,
22,22,0,critical,dwh,35.0,2.1,upper,127.0,127.0,125.0,200.0,200.0,125.0,2,1.8316867351531982,None,,,,,0,0,0,0,0,22,22,29,109.59231352806091,,,,,,,,,,,,,,,,,,,,,,,,,,,,,,,,,,,,,,,,,,,,,,,,,,,,,,,,,,,,,,,,,,,,,,,,,,,,,,,,,127.0,127.0,125.0,200.0,200.0,125.0,2.1,2.12,-260,-250,0,-270,258,259,109.57294797897339,109.57307124137878,109.57663917541504,109.59231352806091,109.73639822006226,109.73639822006226,109.73639822006226,109.73639822006226,109.73639822006226,109.73639822006226,109.73639822006226,111.4369580745697,2,1.8316867351531982,None,,,,,,,,,,,,,,,,,,114,2,2025-02-25_14h05.19.009,comp,2024.2.4,57.36726063145917,2025-02-25 14h05.28.215393 -0500,
23,23,0,filler_random,None,None,None,None,None,None,None,None,None,None,3,7.242365121841431,None,,,,,0,0,0,0,0,23,23,146,111.45373201370239,,,,,,,,,,,,,,,,,,,,,,,,,,,,,,,,,,,,,,,,,,,,,,,,,,,,,,,,,,,,,,,,,,,,,,,,,,,,,,,,,189.50150289386713,133.49619262527023,132.41440019561668,73.15195694874123,185.2014719031355,125.39860996193963,2.1,2.11,-199,271,0,272,195,-283,111.43862247467041,111.43873333930969,111.44248032569885,111.45373201370239,111.60627484321594,111.60627484321594,111.60627484321594,111.60627484321594,111.60627484321594,111.60627484321594,111.60627484321594,118.70856738090515,3,7.242365121841431,None,,,,,,,,,,,,,,,,,,114,2,2025-02-25_14h05.19.009,comp,2024.2.4,57.36726063145917,2025-02-25 14h05.28.215393 -0500,
24,24,0,critical,dhw,20.0,4.0,upper,141.0,141.0,200.0,125.0,125.0,200.0,2,2.9157590866088867,None,,,,,0,0,0,0,0,24,24,59,118.72435259819031,,,,,,,,,,,,,,,,,,,,,,,,,,,,,,,,,,,,,,,,,,,,,,,,,,,,,,,,,,,,,,,,,,,,,,,,,,,,,,,,,141.0,141.0,200.0,125.0,125.0,200.0,4.0,4.2,-229,-3,0,-287,258,-1,118.71026253700256,118.71035480499268,118.71331834793091,118.72435259819031,118.8726224899292,118.8726224899292,118.8726224899292,118.8726224899292,118.8726224899292,118.8726224899292,118.8726224899292,121.65675282478333,2,2.9157590866088867,None,,,,,,,,,,,,,,,,,,114,2,2025-02-25_14h05.19.009,comp,2024.2.4,57.36726063145917,2025-02-25 14h05.28.215393 -0500,
25,25,0,critical,dhw,35.0,2.1,lower,70.0,70.0,133.0,57.0,57.0,133.0,3,4.192270755767822,None,,,,,0,0,0,0,0,25,25,24,121.67258810997009,,,,,,,,,,,,,,,,,,,,,,,,,,,,,,,,,,,,,,,,,,,,,,,,,,,,,,,,,,,,,,,,,,,,,,,,,,,,,,,,,70.0,70.0,133.0,57.0,57.0,133.0,2.1,2.11,-160,284,0,275,191,-263,121.65835976600647,121.65843558311462,121.66198897361755,121.67258810997009,121.82313847541809,121.82313847541809,121.82313847541809,121.82313847541809,121.82313847541809,121.82313847541809,121.82313847541809,125.87488150596619,3,4.192270755767822,None,,,,,,,,,,,,,,,,,,114,2,2025-02-25_14h05.19.009,comp,2024.2.4,57.36726063145917,2025-02-25 14h05.28.215393 -0500,
26,26,0,critical,hwd,35.0,2.1,lower,133.0,57.0,57.0,133.0,70.0,70.0,1,3.0857062339782715,None,,,,,0,0,0,0,0,26,26,16,125.89056944847107,,,,,,,,,,,,,,,,,,,,,,,,,,,,,,,,,,,,,,,,,,,,,,,,,,,,,,,,,,,,,,,,,,,,,,,,,,,,,,,,,133.0,57.0,57.0,133.0,70.0,70.0,2.1,2.11,-191,263,0,264,198,-276,125.87641263008118,125.87648940086365,125.87986278533936,125.89056944847107,126.0428454875946,126.0428454875946,126.0428454875946,126.0428454875946,126.0428454875946,126.0428454875946,126.0428454875946,128.9785487651825,1,3.0857062339782715,None,,,,,,,,,,,,,,,,,,114,2,2025-02-25_14h05.19.009,comp,2024.2.4,57.36726063145917,2025-02-25 14h05.28.215393 -0500,
27,27,0,critical,hwd,20.0,2.1,lower,133.0,57.0,57.0,133.0,78.0,78.0,2,2.587189197540283,None,,,,,0,0,0,0,0,27,27,42,128.99772477149963,,,,,,,,,,,,,,,,,,,,,,,,,,,,,,,,,,,,,,,,,,,,,,,,,,,,,,,,,,,,,,,,,,,,,,,,,,,,,,,,,133.0,57.0,57.0,133.0,78.0,78.0,2.1,2.12,-191,-269,0,-271,202,278,128.98016595840454,128.98024153709412,128.98358392715454,128.99772477149963,129.14402079582214,129.14402079582214,129.14402079582214,129.14402079582214,129.14402079582214,129.14402079582214,129.14402079582214,131.59321475028992,2,2.587189197540283,None,,,,,,,,,,,,,,,,,,114,2,2025-02-25_14h05.19.009,comp,2024.2.4,57.36726063145917,2025-02-25 14h05.28.215393 -0500,
28,28,0,critical,hwd,20.0,1.0,lower,133.0,57.0,57.0,133.0,78.0,78.0,2,5.583224773406982,None,,,,,0,0,0,0,0,28,28,102,131.60954070091248,,,,,,,,,,,,,,,,,,,,,,,,,,,,,,,,,,,,,,,,,,,,,,,,,,,,,,,,,,,,,,,,,,,,,,,,,,,,,,,,,133.0,57.0,57.0,133.0,78.0,78.0,1.0,1.3,289,-255,480,-269,682,-280,131.59471607208252,131.59479427337646,131.598876953125,131.60954070091248,131.76942348480225,131.76942348480225,131.76942348480225,131.76942348480225,131.76942348480225,131.76942348480225,131.76942348480225,137.19606471061707,2,5.583224773406982,None,,,,,,,,,,,,,,,,,,114,2,2025-02-25_14h05.19.009,comp,2024.2.4,57.36726063145917,2025-02-25 14h05.28.215393 -0500,
29,29,0,critical,whd,20.0,3.0,lower,57.0,133.0,133.0,57.0,78.0,78.0,1,2.916206121444702,None,,,,,0,0,0,0,0,29,29,92,137.2120656967163,,,,,,,,,,,,,,,,,,,,,,,,,,,,,,,,,,,,,,,,,,,,,,,,,,,,,,,,,,,,,,,,,,,,,,,,,,,,,,,,,57.0,133.0,133.0,57.0,78.0,78.0,3.0,3.2,-191,-271,0,-11,164,269,137.19762659072876,137.19775772094727,137.20123672485352,137.2120656967163,137.36145496368408,137.36145496368408,137.36145496368408,137.36145496368408,137.36145496368408,137.36145496368408,137.36145496368408,140.1331329345703,1,2.916206121444702,None,,,,,,,,,,,,,,,,,,114,2,2025-02-25_14h05.19.009,comp,2024.2.4,57.36726063145917,2025-02-25 14h05.28.215393 -0500,
30,30,0,filler_random,None,None,None,None,None,None,None,None,None,None,3,1.47294282913208,None,,,,,0,0,0,0,0,30,30,159,140.15181875228882,,,,,,,,,,,,,,,,,,,,,,,,,,,,,,,,,,,,,,,,,,,,,,,,,,,,,,,,,,,,,,,,,,,,,,,,,,,,,,,,,92.25453070733172,158.86271966421202,113.53664297431743,137.42808875075923,177.08146543158904,162.35063809949608,3.0,3.2,-244,-257,0,16,246,274,140.13517022132874,140.13529801368713,140.1385793685913,140.15181875228882,140.29582738876343,140.29582738876343,140.29582738876343,140.29582738876343,140.29582738876343,140.29582738876343,140.29582738876343,141.62876629829407,3,1.47294282913208,None,,,,,,,,,,,,,,,,,,114,2,2025-02-25_14h05.19.009,comp,2024.2.4,57.36726063145917,2025-02-25 14h05.28.215393 -0500,
31,31,0,critical,whd,20.0,2.1,upper,125.0,200.0,200.0,125.0,141.0,141.0,1,3.244455337524414,None,,,,,0,0,0,0,0,31,31,39,141.64486527442932,,,,,,,,,,,,,,,,,,,,,,,,,,,,,,,,,,,,,,,,,,,,,,,,,,,,,,,,,,,,,,,,,,,,,,,,,,,,,,,,,125.0,200.0,200.0,125.0,141.0,141.0,2.1,2.12,-258,-258,0,-254,229,252,141.63022875785828,141.63030338287354,141.63328766822815,141.64486527442932,141.79676151275635,141.79676151275635,141.79676151275635,141.79676151275635,141.79676151275635,141.79676151275635,141.79676151275635,144.89809727668762,1,3.244455337524414,None,,,,,,,,,,,,,,,,,,114,2,2025-02-25_14h05.19.009,comp,2024.2.4,57.36726063145917,2025-02-25 14h05.28.215393 -0500,
32,32,0,filler_random,None,None,None,None,None,None,None,None,None,None,2,1.156651258468628,None,,,,,0,0,0,0,0,32,32,164,144.91636419296265,,,,,,,,,,,,,,,,,,,,,,,,,,,,,,,,,,,,,,,,,,,,,,,,,,,,,,,,,,,,,,,,,,,,,,,,,,,,,,,,,100.28854070348339,107.4203004782635,152.60915929250808,183.97346454685533,160.9607946012789,104.36617030648591,4.0,4.2,-242,7,0,-268,240,-9,144.89977502822876,144.89989972114563,144.90323448181152,144.91636419296265,145.0636785030365,145.0636785030365,145.0636785030365,145.0636785030365,145.0636785030365,145.0636785030365,145.0636785030365,146.08415365219116,2,1.156651258468628,None,,,,,,,,,,,,,,,,,,114,2,2025-02-25_14h05.19.009,comp,2024.2.4,57.36726063145917,2025-02-25 14h05.28.215393 -0500,
33,33,0,catch,None,None,None,None,None,None,None,None,None,None,2,1.4994337558746338,None,,,,,0,0,0,0,0,33,33,129,146.1008586883545,,,,,,,,,,,,,,,,,,,,,,,,,,,,,,,,,,,,,,,,,,,,,,,,,,,,,,,,,,,,,,,,,,,,,,,,,,,,,,,,,106,84,139,186,76,114,2.2,2.22,-231,270,0,-285,246,-262,146.0864441394806,146.08653855323792,146.09027576446533,146.1008586883545,146.24756836891174,146.24756836891174,146.24756836891174,146.24756836891174,146.24756836891174,146.24756836891174,146.24756836891174,147.6160216331482,2,1.4994337558746338,None,,,,,,,,,,,,,,,,,,114,2,2025-02-25_14h05.19.009,comp,2024.2.4,57.36726063145917,2025-02-25 14h05.28.215393 -0500,
34,34,0,catch,None,None,None,None,None,None,None,None,None,None,1,1.5048134326934814,None,,,,,0,0,0,0,0,34,34,121,147.63144063949585,,,,,,,,,,,,,,,,,,,,,,,,,,,,,,,,,,,,,,,,,,,,,,,,,,,,,,,,,,,,,,,,,,,,,,,,,,,,,,,,,179,146,58,132,64,126,2.2,2.21,-235,-267,0,262,225,271,147.618066072464,147.61814379692078,147.6212215423584,147.63144063949585,147.78082156181335,147.78082156181335,147.78082156181335,147.78082156181335,147.78082156181335,147.78082156181335,147.78082156181335,149.14789032936096,1,1.5048134326934814,None,,,,,,,,,,,,,,,,,,114,2,2025-02-25_14h05.19.009,comp,2024.2.4,57.36726063145917,2025-02-25 14h05.28.215393 -0500,
35,35,0,critical,dwh,20.0,2.1,lower,78.0,78.0,57.0,133.0,133.0,57.0,2,4.2845916748046875,None,,,,,0,0,0,0,0,35,35,30,149.16360020637512,,,,,,,,,,,,,,,,,,,,,,,,,,,,,,,,,,,,,,,,,,,,,,,,,,,,,,,,,,,,,,,,,,,,,,,,,,,,,,,,,78.0,78.0,57.0,133.0,133.0,57.0,2.1,2.12,-202,-286,0,-290,191,252,149.14940309524536,149.14947867393494,149.15260553359985,149.16360020637512,149.31609773635864,149.31609773635864,149.31609773635864,149.31609773635864,149.31609773635864,149.31609773635864,149.31609773635864,153.45015454292297,2,4.2845916748046875,None,,,,,,,,,,,,,,,,,,114,2,2025-02-25_14h05.19.009,comp,2024.2.4,57.36726063145917,2025-02-25 14h05.28.215393 -0500,
36,36,0,filler_random,None,None,None,None,None,None,None,None,None,None,2,7.589486598968506,None,,,,,0,0,0,0,0,36,36,145,153.46674942970276,,,,,,,,,,,,,,,,,,,,,,,,,,,,,,,,,,,,,,,,,,,,,,,,,,,,,,,,,,,,,,,,,,,,,,,,,,,,,,,,,158.271202706224,64.93109231925482,129.55795306919407,132.20787757979434,183.2626521116498,73.5754718290965,4.0,4.1,-195,-279,0,-6,199,-257,153.45183968544006,153.45191478729248,153.45590567588806,153.46674942970276,153.60720682144165,153.60720682144165,153.60720682144165,153.60720682144165,153.60720682144165,153.60720682144165,153.60720682144165,161.06929564476013,2,7.589486598968506,None,,,,,,,,,,,,,,,,,,114,2,2025-02-25_14h05.19.009,comp,2024.2.4,57.36726063145917,2025-02-25 14h05.28.215393 -0500,
37,37,0,filler_square,None,None,None,None,None,None,None,None,None,None,3,1.6912734508514404,None,,,,,0,0,0,0,0,37,37,209,161.08558249473572,,,,,,,,,,,,,,,,,,,,,,,,,,,,,,,,,,,,,,,,,,,,,,,,,,,,,,,,,,,,,,,,,,,,,,,,,,,,,,,,,125.81561183748249,102.60282608943348,61.47014968099089,140.7027145109918,143.08256052950748,143.08256052950748,1.0,1.3,262,-274,480,-257,718,-264,161.07112979888916,161.07120537757874,161.07458639144897,161.08558249473572,161.2336037158966,161.2336037158966,161.2336037158966,161.2336037158966,161.2336037158966,161.2336037158966,161.2336037158966,162.7847101688385,3,1.6912734508514404,None,,,,,,,,,,,,,,,,,,114,2,2025-02-25_14h05.19.009,comp,2024.2.4,57.36726063145917,2025-02-25 14h05.28.215393 -0500,
38,38,0,filler_square,None,None,None,None,None,None,None,None,None,None,2,2.3438265323638916,None,,,,,0,0,0,0,0,38,38,179,162.8010663986206,,,,,,,,,,,,,,,,,,,,,,,,,,,,,,,,,,,,,,,,,,,,,,,,,,,,,,,,,,,,,,,,,,,,,,,,,,,,,,,,,63.15968168682932,63.15968168682932,62.152868646332706,60.410786935681045,57.76979816774625,59.51795733131784,1.0,1.1,-638,264,-480,274,-324,261,162.7864806652069,162.7865583896637,162.78946900367737,162.8010663986206,162.93816232681274,162.93816232681274,162.93816232681274,162.93816232681274,162.93816232681274,162.93816232681274,162.93816232681274,165.15274357795715,2,2.3438265323638916,None,,,,,,,,,,,,,,,,,,114,2,2025-02-25_14h05.19.009,comp,2024.2.4,57.36726063145917,2025-02-25 14h05.28.215393 -0500,
39,39,0,critical,wdh,20.0,2.1,lower,57.0,133.0,78.0,78.0,133.0,57.0,1,4.007433652877808,None,,,,,0,0,0,0,0,39,39,10,165.16928625106812,,,,,,,,,,,,,,,,,,,,,,,,,,,,,,,,,,,,,,,,,,,,,,,,,,,,,,,,,,,,,,,,,,,,,,,,,,,,,,,,,57.0,133.0,78.0,78.0,133.0,57.0,2.1,2.11,-202,278,0,275,164,-269,165.15442991256714,165.15450406074524,165.15768027305603,165.16928625106812,165.32341599464417,165.32341599464417,165.32341599464417,165.32341599464417,165.32341599464417,165.32341599464417,165.32341599464417,169.1944727897644,1,4.007433652877808,None,,,,,,,,,,,,,,,,,,114,2,2025-02-25_14h05.19.009,comp,2024.2.4,57.36726063145917,2025-02-25 14h05.28.215393 -0500,
40,40,0,critical,hdw,20.0,2.1,upper,200.0,125.0,141.0,141.0,125.0,200.0,3,1.9751133918762207,None,,,,,0,0,0,0,0,40,40,47,169.2096221446991,,,,,,,,,,,,,,,,,,,,,,,,,,,,,,,,,,,,,,,,,,,,,,,,,,,,,,,,,,,,,,,,,,,,,,,,,,,,,,,,,200.0,125.0,141.0,141.0,125.0,200.0,2.1,2.11,-229,253,0,277,266,-268,169.19601321220398,169.19608569145203,169.19891929626465,169.2096221446991,169.35581612586975,169.35581612586975,169.35581612586975,169.35581612586975,169.35581612586975,169.35581612586975,169.35581612586975,171.1882266998291,3,1.9751133918762207,None,,,,,,,,,,,,,,,,,,114,2,2025-02-25_14h05.19.009,comp,2024.2.4,57.36726063145917,2025-02-25 14h05.28.215393 -0500,
41,41,0,filler_random,None,None,None,None,None,None,None,None,None,None,2,9.783836603164673,None,,,,,0,0,0,0,0,41,41,150,171.2083728313446,,,,,,,,,,,,,,,,,,,,,,,,,,,,,,,,,,,,,,,,,,,,,,,,,,,,,,,,,,,,,,,,,,,,,,,,,,,,,,,,,133.51441872033092,77.50736534938508,117.1111537546227,146.45754634155247,90.12279047658856,171.49514415888584,2.2,2.21,-208,-258,0,250,255,267,171.189866065979,171.18994235992432,171.19299054145813,171.2083728313446,171.35517621040344,171.35517621040344,171.35517621040344,171.35517621040344,171.35517621040344,171.35517621040344,171.35517621040344,181.0084946155548,2,9.783836603164673,None,,,,,,,,,,,,,,,,,,114,2,2025-02-25_14h05.19.009,comp,2024.2.4,57.36726063145917,2025-02-25 14h05.28.215393 -0500,
42,42,0,filler_square,None,None,None,None,None,None,None,None,None,None,1,0.9199728965759277,None,,,,,0,0,0,0,0,42,42,202,181.02444434165955,,,,,,,,,,,,,,,,,,,,,,,,,,,,,,,,,,,,,,,,,,,,,,,,,,,,,,,,,,,,,,,,,,,,,,,,,,,,,,,,,187.44254389212432,187.44254389212432,82.72147329776229,110.19844382217309,116.7975411359984,177.4985882722862,4.0,4.2,-245,-19,0,-262,240,-5,181.01052284240723,181.0106019973755,181.01408195495605,181.02444434165955,181.18207669258118,181.18207669258118,181.18207669258118,181.18207669258118,181.18207669258118,181.18207669258118,181.18207669258118,181.94712376594543,1,0.9199728965759277,None,,,,,,,,,,,,,,,,,,114,2,2025-02-25_14h05.19.009,comp,2024.2.4,57.36726063145917,2025-02-25 14h05.28.215393 -0500,
43,43,0,catch,None,None,None,None,None,None,None,None,None,None,3,1.22428297996521,None,,,,,0,0,0,0,0,43,43,124,181.96811032295227,,,,,,,,,,,,,,,,,,,,,,,,,,,,,,,,,,,,,,,,,,,,,,,,,,,,,,,,,,,,,,,,,,,,,,,,,,,,,,,,,128,62,113,77,174,151,2.1,2.11,-166,253,0,264,210,-264,181.9491925239563,181.9492723941803,181.9524965286255,181.96811032295227,182.10955333709717,182.10955333709717,182.10955333709717,182.10955333709717,182.10955333709717,182.10955333709717,182.10955333709717,183.2099015712738,3,1.22428297996521,None,,,,,,,,,,,,,,,,,,114,2,2025-02-25_14h05.19.009,comp,2024.2.4,57.36726063145917,2025-02-25 14h05.28.215393 -0500,
44,44,0,filler_random,None,None,None,None,None,None,None,None,None,None,2,1.0970556735992432,None,,,,,0,0,0,0,0,44,44,158,183.22394442558289,,,,,,,,,,,,,,,,,,,,,,,,,,,,,,,,,,,,,,,,,,,,,,,,,,,,,,,,,,,,,,,,,,,,,,,,,,,,,,,,,108.36763802926063,105.92124126732006,173.2645835420189,106.84660462820952,67.69988605091817,165.19911387043052,1.0,1.2,-202,-2,0,-6,232,19,183.2115421295166,183.21161890029907,183.21498227119446,183.22394442558289,183.38105535507202,183.38105535507202,183.38105535507202,183.38105535507202,183.38105535507202,183.38105535507202,183.38105535507202,184.32679629325867,2,1.0970556735992432,None,,,,,,,,,,,,,,,,,,114,2,2025-02-25_14h05.19.009,comp,2024.2.4,57.36726063145917,2025-02-25 14h05.28.215393 -0500,
45,45,0,filler_square,None,None,None,None,None,None,None,None,None,None,2,1.3613674640655518,None,,,,,0,0,0,0,0,45,45,172,184.3434352874756,,,,,,,,,,,,,,,,,,,,,,,,,,,,,,,,,,,,,,,,,,,,,,,,,,,,,,,,,,,,,,,,,,,,,,,,,,,,,,,,,64.10602324516941,80.46998361436444,160.0538493968737,160.0538493968737,114.61216409237257,76.0836588895192,2.1,2.11,-216,261,0,285,214,-267,184.32863426208496,184.32874512672424,184.33275318145752,184.3434352874756,184.49242210388184,184.49242210388184,184.49242210388184,184.49242210388184,184.49242210388184,184.49242210388184,184.49242210388184,185.71015572547913,2,1.3613674640655518,None,,,,,,,,,,,,,,,,,,114,2,2025-02-25_14h05.19.009,comp,2024.2.4,57.36726063145917,2025-02-25 14h05.28.215393 -0500,
46,46,0,filler_square,None,None,None,None,None,None,None,None,None,None,2,1.4659860134124756,None,,,,,0,0,0,0,0,46,46,182,185.72649693489075,,,,,,,,,,,,,,,,,,,,,,,,,,,,,,,,,,,,,,,,,,,,,,,,,,,,,,,,,,,,,,,,,,,,,,,,,,,,,,,,,107.7535467532451,85.11842674525937,187.4149148468316,187.4149148468316,67.0565216890887,148.05912090843788,2.1,2.12,-232,-265,0,-253,264,264,185.712153673172,185.71223187446594,185.71561455726624,185.72649693489075,185.87393188476562,185.87393188476562,185.87393188476562,185.87393188476562,185.87393188476562,185.87393188476562,185.87393188476562,187.21160864830017,2,1.4659860134124756,None,,,,,,,,,,,,,,,,,,114,2,2025-02-25_14h05.19.009,comp,2024.2.4,57.36726063145917,2025-02-25 14h05.28.215393 -0500,
47,47,0,critical,dwh,35.0,4.0,upper,127.0,127.0,125.0,200.0,200.0,125.0,2,2.07366681098938,None,,,,,0,0,0,0,0,47,47,65,187.2312524318695,,,,,,,,,,,,,,,,,,,,,,,,,,,,,,,,,,,,,,,,,,,,,,,,,,,,,,,,,,,,,,,,,,,,,,,,,,,,,,,,,127.0,127.0,125.0,200.0,200.0,125.0,4.0,4.2,-260,-15,0,-269,258,-5,187.21317338943481,187.21324515342712,187.21650552749634,187.2312524318695,187.36629581451416,187.36629581451416,187.36629581451416,187.36629581451416,187.36629581451416,187.36629581451416,187.36629581451416,189.31165146827698,2,2.07366681098938,None,,,,,,,,,,,,,,,,,,114,2,2025-02-25_14h05.19.009,comp,2024.2.4,57.36726063145917,2025-02-25 14h05.28.215393 -0500,
48,48,0,critical,hdw,35.0,2.1,upper,200.0,125.0,127.0,127.0,125.0,200.0,3,1.6725420951843262,None,,,,,0,0,0,0,0,48,48,21,189.3277223110199,,,,,,,,,,,,,,,,,,,,,,,,,,,,,,,,,,,,,,,,,,,,,,,,,,,,,,,,,,,,,,,,,,,,,,,,,,,,,,,,,200.0,125.0,127.0,127.0,125.0,200.0,2.1,2.11,-222,270,0,263,260,-257,189.31337308883667,189.31350374221802,189.31692838668823,189.3277223110199,189.4787094593048,189.4787094593048,189.4787094593048,189.4787094593048,189.4787094593048,189.4787094593048,189.4787094593048,191.0165946483612,3,1.6725420951843262,None,,,,,,,,,,,,,,,,,,114,2,2025-02-25_14h05.19.009,comp,2024.2.4,57.36726063145917,2025-02-25 14h05.28.215393 -0500,
49,49,0,filler_square,None,None,None,None,None,None,None,None,None,None,3,1.8678345680236816,None,,,,,0,0,0,0,0,49,49,171,191.03713655471802,,,,,,,,,,,,,,,,,,,,,,,,,,,,,,,,,,,,,,,,,,,,,,,,,,,,,,,,,,,,,,,,,,,,,,,,,,,,,,,,,57.148715821532086,64.96433345277184,63.56368328515966,60.99021418661209,66.2137577161428,66.2137577161428,2.2,2.21,-159,-254,0,253,160,271,191.018572807312,191.018648147583,191.0218527317047,191.03713655471802,191.1791443824768,191.1791443824768,191.1791443824768,191.1791443824768,191.1791443824768,191.1791443824768,191.1791443824768,192.91316771507263,3,1.8678345680236816,None,,,,,,,,,,,,,,,,,,114,2,2025-02-25_14h05.19.009,comp,2024.2.4,57.36726063145917,2025-02-25 14h05.28.215393 -0500,
50,50,0,catch,None,None,None,None,None,None,None,None,None,None,2,1.1934771537780762,None,,,,,0,0,0,0,0,50,50,123,192.92904210090637,,,,,,,,,,,,,,,,,,,,,,,,,,,,,,,,,,,,,,,,,,,,,,,,,,,,,,,,,,,,,,,,,,,,,,,,,,,,,,,,,103,87,154,171,69,121,3.0,3.1,-225,283,0,3,242,-271,192.9150652885437,192.91514325141907,192.9184639453888,192.92904210090637,193.0839331150055,193.0839331150055,193.0839331150055,193.0839331150055,193.0839331150055,193.0839331150055,193.0839331150055,194.12742924690247,2,1.1934771537780762,None,,,,,,,,,,,,,,,,,,114,2,2025-02-25_14h05.19.009,comp,2024.2.4,57.36726063145917,2025-02-25 14h05.28.215393 -0500,
51,51,0,critical,dwh,35.0,2.1,lower,70.0,70.0,57.0,133.0,133.0,57.0,3,2.0329020023345947,None,,,,,0,0,0,0,0,51,51,4,194.14338302612305,,,,,,,,,,,,,,,,,,,,,,,,,,,,,,,,,,,,,,,,,,,,,,,,,,,,,,,,,,,,,,,,,,,,,,,,,,,,,,,,,70.0,70.0,57.0,133.0,133.0,57.0,2.1,2.11,-198,264,0,254,191,-259,194.128910779953,194.12898516654968,194.13186502456665,194.14338302612305,194.30753016471863,194.30753016471863,194.30753016471863,194.30753016471863,194.30753016471863,194.30753016471863,194.30753016471863,196.18020176887512,3,2.0329020023345947,None,,,,,,,,,,,,,,,,,,114,2,2025-02-25_14h05.19.009,comp,2024.2.4,57.36726063145917,2025-02-25 14h05.28.215393 -0500,
52,52,0,critical,hdw,20.0,4.0,upper,200.0,125.0,141.0,141.0,125.0,200.0,3,2.4761006832122803,None,,,,,0,0,0,0,0,52,52,119,196.1964135169983,,,,,,,,,,,,,,,,,,,,,,,,,,,,,,,,,,,,,,,,,,,,,,,,,,,,,,,,,,,,,,,,,,,,,,,,,,,,,,,,,200.0,125.0,141.0,141.0,125.0,200.0,4.0,4.2,-229,-12,0,-252,266,-16,196.18164587020874,196.1817433834076,196.18571710586548,196.1964135169983,196.34787464141846,196.34787464141846,196.34787464141846,196.34787464141846,196.34787464141846,196.34787464141846,196.34787464141846,198.6810281276703,3,2.4761006832122803,None,,,,,,,,,,,,,,,,,,114,2,2025-02-25_14h05.19.009,comp,2024.2.4,57.36726063145917,2025-02-25 14h05.28.215393 -0500,
53,53,0,critical,dhw,20.0,4.0,lower,78.0,78.0,133.0,57.0,57.0,133.0,3,1.727252721786499,None,,,,,0,0,0,0,0,53,53,58,198.6975612640381,,,,,,,,,,,,,,,,,,,,,,,,,,,,,,,,,,,,,,,,,,,,,,,,,,,,,,,,,,,,,,,,,,,,,,,,,,,,,,,,,78.0,78.0,133.0,57.0,57.0,133.0,4.0,4.1,-164,-264,0,1,191,-263,198.6825156211853,198.68259024620056,198.6860122680664,198.6975612640381,198.85223078727722,198.85223078727722,198.85223078727722,198.85223078727722,198.85223078727722,198.85223078727722,198.85223078727722,200.43237328529358,3,1.727252721786499,None,,,,,,,,,,,,,,,,,,114,2,2025-02-25_14h05.19.009,comp,2024.2.4,57.36726063145917,2025-02-25 14h05.28.215393 -0500,
54,54,0,critical,wdh,20.0,3.0,upper,125.0,200.0,141.0,141.0,200.0,125.0,1,1.2171447277069092,None,,,,,0,0,0,0,0,54,54,81,200.44777369499207,,,,,,,,,,,,,,,,,,,,,,,,,,,,,,,,,,,,,,,,,,,,,,,,,,,,,,,,,,,,,,,,,,,,,,,,,,,,,,,,,125.0,200.0,141.0,141.0,200.0,125.0,3.0,3.2,-266,-271,0,2,229,260,200.43392157554626,200.43399715423584,200.43712663650513,200.44777369499207,200.5977213382721,200.5977213382721,200.5977213382721,200.5977213382721,200.5977213382721,200.5977213382721,200.5977213382721,201.6670253276825,1,1.2171447277069092,None,,,,,,,,,,,,,,,,,,114,2,2025-02-25_14h05.19.009,comp,2024.2.4,57.36726063145917,2025-02-25 14h05.28.215393 -0500,
55,55,0,critical,hwd,20.0,2.1,lower,133.0,57.0,57.0,133.0,78.0,78.0,2,2.4298994541168213,None,,,,,0,0,0,0,0,55,55,18,201.68322944641113,,,,,,,,,,,,,,,,,,,,,,,,,,,,,,,,,,,,,,,,,,,,,,,,,,,,,,,,,,,,,,,,,,,,,,,,,,,,,,,,,133.0,57.0,57.0,133.0,78.0,78.0,2.1,2.12,-191,-289,0,-257,202,278,201.66858506202698,201.66869115829468,201.6717779636383,201.68322944641113,201.83209228515625,201.83209228515625,201.83209228515625,201.83209228515625,201.83209228515625,201.83209228515625,201.83209228515625,204.12080121040344,2,2.4298994541168213,None,,,,,,,,,,,,,,,,,,114,2,2025-02-25_14h05.19.009,comp,2024.2.4,57.36726063145917,2025-02-25 14h05.28.215393 -0500,
56,56,0,filler_square,None,None,None,None,None,None,None,None,None,None,1,1.3869178295135498,None,,,,,0,0,0,0,0,56,56,190,204.14186191558838,,,,,,,,,,,,,,,,,,,,,,,,,,,,,,,,,,,,,,,,,,,,,,,,,,,,,,,,,,,,,,,,,,,,,,,,,,,,,,,,,110.26062155933906,110.26062155933906,87.80189181830887,91.25702919876991,85.81597565090738,102.31339572818192,2.1,2.11,-197,289,0,264,193,-273,204.12278962135315,204.12286353111267,204.12606382369995,204.14186191558838,204.28338050842285,204.28338050842285,204.28338050842285,204.28338050842285,204.28338050842285,204.28338050842285,204.28338050842285,205.5380563735962,1,1.3869178295135498,None,,,,,,,,,,,,,,,,,,114,2,2025-02-25_14h05.19.009,comp,2024.2.4,57.36726063145917,2025-02-25 14h05.28.215393 -0500,
57,57,0,critical,whd,35.0,2.1,upper,125.0,200.0,200.0,125.0,127.0,127.0,1,0.05362582206726074,None,,,,,0,0,0,0,0,57,57,13,205.55550074577332,,,,,,,,,,,,,,,,,,,,,,,,,,,,,,,,,,,,,,,,,,,,,,,,,,,,,,,,,,,,,,,,,,,,,,,,,,,,,,,,,125.0,200.0,200.0,125.0,127.0,127.0,2.1,2.12,-258,-262,0,-279,222,259,205.53955554962158,205.53963088989258,205.54245471954346,205.55550074577332,,,,,,,,205.61650729179382,1,0.05362582206726074,None,,,,,,,,,,,,,,,,,,114,2,2025-02-25_14h05.19.009,comp,2024.2.4,57.36726063145917,2025-02-25 14h05.28.215393 -0500,
58,58,0,filler_square,None,None,None,None,None,None,None,None,None,None,1,1.1279046535491943,None,,,,,0,0,0,0,0,58,58,194,205.63294291496277,,,,,,,,,,,,,,,,,,,,,,,,,,,,,,,,,,,,,,,,,,,,,,,,,,,,,,,,,,,,,,,,,,,,,,,,,,,,,,,,,161.45300641962922,161.45300641962922,69.26733449937245,84.56458151597607,102.75727086228332,100.41888758066112,1.0,1.3,261,-285,480,-260,668,-285,205.6183729171753,205.61844873428345,205.6217851638794,205.63294291496277,205.7825345993042,205.7825345993042,205.7825345993042,205.7825345993042,205.7825345993042,205.7825345993042,205.7825345993042,206.76730823516846,1,1.1279046535491943,None,,,,,,,,,,,,,,,,,,114,2,2025-02-25_14h05.19.009,comp,2024.2.4,57.36726063145917,2025-02-25 14h05.28.215393 -0500,
59,59,0,filler_random,None,None,None,None,None,None,None,None,None,None,3,1.5290250778198242,None,,,,,0,0,0,0,0,59,59,134,206.79163122177124,,,,,,,,,,,,,,,,,,,,,,,,,,,,,,,,,,,,,,,,,,,,,,,,,,,,,,,,,,,,,,,,,,,,,,,,,,,,,,,,,91.17976320187277,174.11876268985273,66.99697864693258,189.989651660312,122.7216816568586,162.40216586483095,2.2,2.21,-278,-261,0,258,272,262,206.76893711090088,206.76901173591614,206.7720868587494,206.79163122177124,206.93415904045105,206.93415904045105,206.93415904045105,206.93415904045105,206.93415904045105,206.93415904045105,206.93415904045105,208.33270955085754,3,1.5290250778198242,None,,,,,,,,,,,,,,,,,,114,2,2025-02-25_14h05.19.009,comp,2024.2.4,57.36726063145917,2025-02-25 14h05.28.215393 -0500,
60,60,0,critical,dwh,20.0,1.0,upper,141.0,141.0,125.0,200.0,200.0,125.0,3,2.036057710647583,None,,,,,0,0,0,0,0,60,60,67,208.34821963310242,,,,,,,,,,,,,,,,,,,,,,,,,,,,,,,,,,,,,,,,,,,,,,,,,,,,,,,,,,,,,,,,,,,,,,,,,,,,,,,,,141.0,141.0,125.0,200.0,200.0,125.0,1.0,1.2,-266,-3,0,-2,258,-16,208.33421897888184,208.33429288864136,208.3376226425171,208.34821963310242,208.50240898132324,208.50240898132324,208.50240898132324,208.50240898132324,208.50240898132324,208.50240898132324,208.50240898132324,210.38648462295532,3,2.036057710647583,None,,,,,,,,,,,,,,,,,,114,2,2025-02-25_14h05.19.009,comp,2024.2.4,57.36726063145917,2025-02-25 14h05.28.215393 -0500,
61,61,0,filler_square,None,None,None,None,None,None,None,None,None,None,3,1.2057116031646729,None,,,,,0,0,0,0,0,61,61,199,210.40309810638428,,,,,,,,,,,,,,,,,,,,,,,,,,,,,,,,,,,,,,,,,,,,,,,,,,,,,,,,,,,,,,,,,,,,,,,,,,,,,,,,,149.1297172977023,114.86055337578682,105.7318776819761,106.29652382998864,153.1011994734981,153.1011994734981,4.0,4.2,-207,-6,0,-285,226,-18,210.38858461380005,210.38869547843933,210.3921890258789,210.40309810638428,210.55129432678223,210.55129432678223,210.55129432678223,210.55129432678223,210.55129432678223,210.55129432678223,210.55129432678223,211.62469792366028,3,1.2057116031646729,None,,,,,,,,,,,,,,,,,,114,2,2025-02-25_14h05.19.009,comp,2024.2.4,57.36726063145917,2025-02-25 14h05.28.215393 -0500,
62,62,0,filler_square,None,None,None,None,None,None,None,None,None,None,3,1.3676936626434326,None,,,,,0,0,0,0,0,62,62,198,211.6406376361847,,,,,,,,,,,,,,,,,,,,,,,,,,,,,,,,,,,,,,,,,,,,,,,,,,,,,,,,,,,,,,,,,,,,,,,,,,,,,,,,,70.99817038243044,64.83539260307975,61.68476969422579,70.38467786709678,78.63571033223675,78.63571033223675,2.1,2.11,-164,252,0,288,171,-262,211.6264786720276,211.62655115127563,211.62954568862915,211.6406376361847,211.78358268737793,211.78358268737793,211.78358268737793,211.78358268737793,211.78358268737793,211.78358268737793,211.78358268737793,213.02197432518005,3,1.3676936626434326,None,,,,,,,,,,,,,,,,,,114,2,2025-02-25_14h05.19.009,comp,2024.2.4,57.36726063145917,2025-02-25 14h05.28.215393 -0500,
63,63,0,filler_square,None,None,None,None,None,None,None,None,None,None,2,1.065741777420044,None,,,,,0,0,0,0,0,63,63,186,213.03849864006042,,,,,,,,,,,,,,,,,,,,,,,,,,,,,,,,,,,,,,,,,,,,,,,,,,,,,,,,,,,,,,,,,,,,,,,,,,,,,,,,,157.0477981890895,133.48719750336693,176.01624513693992,176.01624513693992,59.71657553177025,95.39005526074908,1.0,1.2,-251,-13,0,7,232,3,213.0240616798401,213.0241379737854,213.02734351158142,213.03849864006042,213.18589735031128,213.18589735031128,213.18589735031128,213.18589735031128,213.18589735031128,213.18589735031128,213.18589735031128,214.12010860443115,2,1.065741777420044,None,,,,,,,,,,,,,,,,,,114,2,2025-02-25_14h05.19.009,comp,2024.2.4,57.36726063145917,2025-02-25 14h05.28.215393 -0500,
64,64,0,catch,None,None,None,None,None,None,None,None,None,None,1,0.7425141334533691,None,,,,,0,0,0,0,0,64,64,126,214.13863897323608,,,,,,,,,,,,,,,,,,,,,,,,,,,,,,,,,,,,,,,,,,,,,,,,,,,,,,,,,,,,,,,,,,,,,,,,,,,,,,,,,138,187,90,100,114,76,2.2,2.22,-240,263,0,-280,184,-253,214.1221718788147,214.12224555015564,214.1255238056183,214.13863897323608,214.28692150115967,214.28692150115967,214.28692150115967,214.28692150115967,214.28692150115967,214.28692150115967,214.28692150115967,214.89199304580688,1,0.7425141334533691,None,,,,,,,,,,,,,,,,,,114,2,2025-02-25_14h05.19.009,comp,2024.2.4,57.36726063145917,2025-02-25 14h05.28.215393 -0500,
65,65,0,filler_random,None,None,None,None,None,None,None,None,None,None,2,0.8606541156768799,None,,,,,0,0,0,0,0,65,65,157,214.90780806541443,,,,,,,,,,,,,,,,,,,,,,,,,,,,,,,,,,,,,,,,,,,,,,,,,,,,,,,,,,,,,,,,,,,,,,,,,,,,,,,,,69.28019300961671,71.90673980723778,79.87566753009193,170.84980866496193,59.656919388892895,73.87918151731012,3.0,3.2,-217,-268,0,-1,218,283,214.89421200752258,214.89429259300232,214.89717388153076,214.90780806541443,215.05253195762634,215.05253195762634,215.05253195762634,215.05253195762634,215.05253195762634,215.05253195762634,215.05253195762634,215.7722203731537,2,0.8606541156768799,None,,,,,,,,,,,,,,,,,,114,2,2025-02-25_14h05.19.009,comp,2024.2.4,57.36726063145917,2025-02-25 14h05.28.215393 -0500,
66,66,0,filler_square,None,None,None,None,None,None,None,None,None,None,3,1.0764706134796143,None,,,,,0,0,0,0,0,66,66,205,215.78777718544006,,,,,,,,,,,,,,,,,,,,,,,,,,,,,,,,,,,,,,,,,,,,,,,,,,,,,,,,,,,,,,,,,,,,,,,,,,,,,,,,,114.74507946509124,179.06646189073885,97.7860466683632,171.50331000297535,192.9495664837199,192.9495664837199,3.0,3.1,-271,267,0,18,278,-254,215.77404069900513,215.77411675453186,215.77723288536072,215.78777718544006,215.93701434135437,215.93701434135437,215.93701434135437,215.93701434135437,215.93701434135437,215.93701434135437,215.93701434135437,216.8769073486328,3,1.0764706134796143,None,,,,,,,,,,,,,,,,,,114,2,2025-02-25_14h05.19.009,comp,2024.2.4,57.36726063145917,2025-02-25 14h05.28.215393 -0500,
67,67,0,filler_random,None,None,None,None,None,None,None,None,None,None,2,1.2944068908691406,None,,,,,0,0,0,0,0,67,67,130,216.8979561328888,,,,,,,,,,,,,,,,,,,,,,,,,,,,,,,,,,,,,,,,,,,,,,,,,,,,,,,,,,,,,,,,,,,,,,,,,,,,,,,,,97.5683961078777,142.09501816547407,92.75598635207635,182.42260466900413,82.22114164109186,175.8503960539115,1.0,1.1,-738,278,-480,283,-205,253,216.87864875793457,216.87880992889404,216.88205862045288,216.8979561328888,217.0350956916809,217.0350956916809,217.0350956916809,217.0350956916809,217.0350956916809,217.0350956916809,217.0350956916809,218.20362901687622,2,1.2944068908691406,None,,,,,,,,,,,,,,,,,,114,2,2025-02-25_14h05.19.009,comp,2024.2.4,57.36726063145917,2025-02-25 14h05.28.215393 -0500,
68,68,0,filler_random,None,None,None,None,None,None,None,None,None,None,2,1.6122159957885742,None,,,,,0,0,0,0,0,68,68,137,218.22013092041016,,,,,,,,,,,,,,,,,,,,,,,,,,,,,,,,,,,,,,,,,,,,,,,,,,,,,,,,,,,,,,,,,,,,,,,,,,,,,,,,,75.2748370368335,149.014476636006,130.7363868994614,106.68513941010937,120.83959120837,83.900533760721,3.0,3.1,-224,281,0,-5,191,-286,218.2054741382599,218.20559215545654,218.209082365036,218.22013092041016,218.37431859970093,218.37431859970093,218.37431859970093,218.37431859970093,218.37431859970093,218.37431859970093,218.37431859970093,219.8430995941162,2,1.6122159957885742,None,,,,,,,,,,,,,,,,,,114,2,2025-02-25_14h05.19.009,comp,2024.2.4,57.36726063145917,2025-02-25 14h05.28.215393 -0500,
69,69,0,filler_random,None,None,None,None,None,None,None,None,None,None,1,1.0990121364593506,None,,,,,0,0,0,0,0,69,69,131,219.86217331886292,,,,,,,,,,,,,,,,,,,,,,,,,,,,,,,,,,,,,,,,,,,,,,,,,,,,,,,,,,,,,,,,,,,,,,,,,,,,,,,,,178.69935750919672,68.61480264812813,61.65545396445891,69.54433912812388,68.79466206472486,103.13359862057564,2.2,2.22,-165,268,0,-277,182,-284,219.84487080574036,219.84499716758728,219.8482551574707,219.86217331886292,220.00546717643738,220.00546717643738,220.00546717643738,220.00546717643738,220.00546717643738,220.00546717643738,220.00546717643738,220.97246146202087,1,1.0990121364593506,None,,,,,,,,,,,,,,,,,,114,2,2025-02-25_14h05.19.009,comp,2024.2.4,57.36726063145917,2025-02-25 14h05.28.215393 -0500,
70,70,0,critical,hdw,35.0,2.1,upper,200.0,125.0,127.0,127.0,125.0,200.0,3,1.364354133605957,None,,,,,0,0,0,0,0,70,70,45,220.98869562149048,,,,,,,,,,,,,,,,,,,,,,,,,,,,,,,,,,,,,,,,,,,,,,,,,,,,,,,,,,,,,,,,,,,,,,,,,,,,,,,,,200.0,125.0,127.0,127.0,125.0,200.0,2.1,2.11,-222,259,0,286,260,-263,220.97398900985718,220.97406315803528,220.97713136672974,220.98869562149048,221.14404845237732,221.14404845237732,221.14404845237732,221.14404845237732,221.14404845237732,221.14404845237732,221.14404845237732,222.35810446739197,3,1.364354133605957,None,,,,,,,,,,,,,,,,,,114,2,2025-02-25_14h05.19.009,comp,2024.2.4,57.36726063145917,2025-02-25 14h05.28.215393 -0500,
71,71,0,filler_square,None,None,None,None,None,None,None,None,None,None,2,0.8587045669555664,None,,,,,0,0,0,0,0,71,71,208,222.37377047538757,,,,,,,,,,,,,,,,,,,,,,,,,,,,,,,,,,,,,,,,,,,,,,,,,,,,,,,,,,,,,,,,,,,,,,,,,,,,,,,,,68.85344257875737,73.42686179604607,117.31105964067501,117.31105964067501,74.85726974279089,57.61585962455925,3.0,3.2,-191,-288,0,-6,183,282,222.36000037193298,222.3600766658783,222.36310744285583,222.37377047538757,222.5211591720581,222.5211591720581,222.5211591720581,222.5211591720581,222.5211591720581,222.5211591720581,222.5211591720581,223.2417643070221,2,0.8587045669555664,None,,,,,,,,,,,,,,,,,,114,2,2025-02-25_14h05.19.009,comp,2024.2.4,57.36726063145917,2025-02-25 14h05.28.215393 -0500,
72,72,0,critical,wdh,35.0,4.0,upper,125.0,200.0,127.0,127.0,200.0,125.0,1,5.828311204910278,None,,,,,0,0,0,0,0,72,72,77,223.26028180122375,,,,,,,,,,,,,,,,,,,,,,,,,,,,,,,,,,,,,,,,,,,,,,,,,,,,,,,,,,,,,,,,,,,,,,,,,,,,,,,,,125.0,200.0,127.0,127.0,200.0,125.0,4.0,4.2,-260,-5,0,-261,222,-8,223.24327158927917,223.24334573745728,223.24662947654724,223.26028180122375,223.40885710716248,223.40885710716248,223.40885710716248,223.40885710716248,223.40885710716248,223.40885710716248,223.40885710716248,229.09825944900513,1,5.828311204910278,None,,,,,,,,,,,,,,,,,,114,2,2025-02-25_14h05.19.009,comp,2024.2.4,57.36726063145917,2025-02-25 14h05.28.215393 -0500,
73,73,0,filler_random,None,None,None,None,None,None,None,None,None,None,1,2.4978065490722656,None,,,,,0,0,0,0,0,73,73,147,229.11915469169617,,,,,,,,,,,,,,,,,,,,,,,,,,,,,,,,,,,,,,,,,,,,,,,,,,,,,,,,,,,,,,,,,,,,,,,,,,,,,,,,,160.12178961932023,121.18136280317518,192.63907891571338,82.89787760158652,82.09851928207233,118.26690480619996,2.1,2.12,-198,-284,0,-277,197,288,229.10000705718994,229.10014057159424,229.10335993766785,229.11915469169617,229.26390480995178,229.26390480995178,229.26390480995178,229.26390480995178,229.26390480995178,229.26390480995178,229.26390480995178,231.62476992607117,1,2.4978065490722656,None,,,,,,,,,,,,,,,,,,114,2,2025-02-25_14h05.19.009,comp,2024.2.4,57.36726063145917,2025-02-25 14h05.28.215393 -0500,
74,74,0,critical,hwd,35.0,4.0,upper,200.0,125.0,125.0,200.0,127.0,127.0,1,1.7352192401885986,None,,,,,0,0,0,0,0,74,74,101,231.64112377166748,,,,,,,,,,,,,,,,,,,,,,,,,,,,,,,,,,,,,,,,,,,,,,,,,,,,,,,,,,,,,,,,,,,,,,,,,,,,,,,,,200.0,125.0,125.0,200.0,127.0,127.0,4.0,4.1,-258,-284,0,-1,260,-281,231.62628197669983,231.62635803222656,231.63028597831726,231.64112377166748,231.78959679603577,231.78959679603577,231.78959679603577,231.78959679603577,231.78959679603577,231.78959679603577,231.78959679603577,233.391756772995,1,1.7352192401885986,None,,,,,,,,,,,,,,,,,,114,2,2025-02-25_14h05.19.009,comp,2024.2.4,57.36726063145917,2025-02-25 14h05.28.215393 -0500,
75,75,0,critical,wdh,35.0,3.0,upper,125.0,200.0,127.0,127.0,200.0,125.0,3,2.9296162128448486,None,,,,,0,0,0,0,0,75,75,75,233.40735840797424,,,,,,,,,,,,,,,,,,,,,,,,,,,,,,,,,,,,,,,,,,,,,,,,,,,,,,,,,,,,,,,,,,,,,,,,,,,,,,,,,125.0,200.0,127.0,127.0,200.0,125.0,3.0,3.1,-260,269,0,9,222,-268,233.39320468902588,233.39327836036682,233.3969326019287,233.40735840797424,233.5573012828827,233.5573012828827,233.5573012828827,233.5573012828827,233.5573012828827,233.5573012828827,233.5573012828827,236.34616470336914,3,2.9296162128448486,None,,,,,,,,,,,,,,,,,,114,2,2025-02-25_14h05.19.009,comp,2024.2.4,57.36726063145917,2025-02-25 14h05.28.215393 -0500,
76,76,0,critical,wdh,20.0,1.0,upper,125.0,200.0,141.0,141.0,200.0,125.0,1,2.020148277282715,None,,,,,0,0,0,0,0,76,76,79,236.36421537399292,,,,,,,,,,,,,,,,,,,,,,,,,,,,,,,,,,,,,,,,,,,,,,,,,,,,,,,,,,,,,,,,,,,,,,,,,,,,,,,,,125.0,200.0,141.0,141.0,200.0,125.0,1.0,1.1,-746,277,-480,287,-251,270,236.34772849082947,236.34780526161194,236.35069036483765,236.36421537399292,236.50885224342346,236.50885224342346,236.50885224342346,236.50885224342346,236.50885224342346,236.50885224342346,236.50885224342346,238.39851021766663,1,2.020148277282715,None,,,,,,,,,,,,,,,,,,114,2,2025-02-25_14h05.19.009,comp,2024.2.4,57.36726063145917,2025-02-25 14h05.28.215393 -0500,
77,77,0,critical,dhw,20.0,2.1,lower,78.0,78.0,133.0,57.0,57.0,133.0,3,3.0275769233703613,None,,,,,0,0,0,0,0,77,77,26,238.41320514678955,,,,,,,,,,,,,,,,,,,,,,,,,,,,,,,,,,,,,,,,,,,,,,,,,,,,,,,,,,,,,,,,,,,,,,,,,,,,,,,,,78.0,78.0,133.0,57.0,57.0,133.0,2.1,2.12,-164,-259,0,-278,191,251,238.40001726150513,238.40009093284607,238.40300226211548,238.41320514678955,238.55911350250244,238.55911350250244,238.55911350250244,238.55911350250244,238.55911350250244,238.55911350250244,238.55911350250244,241.44513511657715,3,3.0275769233703613,None,,,,,,,,,,,,,,,,,,114,2,2025-02-25_14h05.19.009,comp,2024.2.4,57.36726063145917,2025-02-25 14h05.28.215393 -0500,
78,78,0,filler_random,None,None,None,None,None,None,None,None,None,None,1,1.4349274635314941,None,,,,,0,0,0,0,0,78,78,152,241.46148538589478,,,,,,,,,,,,,,,,,,,,,,,,,,,,,,,,,,,,,,,,,,,,,,,,,,,,,,,,,,,,,,,,,,,,,,,,,,,,,,,,,147.7751420912487,137.5704289095733,140.1066020478931,101.54012859436003,79.29840755860562,153.34717446365684,2.1,2.11,-216,259,0,260,223,-273,241.44672656059265,241.44680309295654,241.4507668018341,241.46148538589478,241.61141419410706,241.61141419410706,241.61141419410706,241.61141419410706,241.61141419410706,241.61141419410706,241.61141419410706,242.9125199317932,1,1.4349274635314941,None,,,,,,,,,,,,,,,,,,114,2,2025-02-25_14h05.19.009,comp,2024.2.4,57.36726063145917,2025-02-25 14h05.28.215393 -0500,
79,79,0,critical,wdh,20.0,2.1,upper,125.0,200.0,141.0,141.0,200.0,125.0,3,3.3047308921813965,None,,,,,0,0,0,0,0,79,79,35,242.9276463985443,,,,,,,,,,,,,,,,,,,,,,,,,,,,,,,,,,,,,,,,,,,,,,,,,,,,,,,,,,,,,,,,,,,,,,,,,,,,,,,,,125.0,200.0,141.0,141.0,200.0,125.0,2.1,2.11,-266,289,0,290,229,-258,242.91400170326233,242.914076089859,242.91732811927795,242.9276463985443,243.07852244377136,243.07852244377136,243.07852244377136,243.07852244377136,243.07852244377136,243.07852244377136,243.07852244377136,246.24520659446716,3,3.3047308921813965,None,,,,,,,,,,,,,,,,,,114,2,2025-02-25_14h05.19.009,comp,2024.2.4,57.36726063145917,2025-02-25 14h05.28.215393 -0500,
80,80,0,filler_square,None,None,None,None,None,None,None,None,None,None,2,1.4598722457885742,None,,,,,0,0,0,0,0,80,80,181,246.2611427307129,,,,,,,,,,,,,,,,,,,,,,,,,,,,,,,,,,,,,,,,,,,,,,,,,,,,,,,,,,,,,,,,,,,,,,,,,,,,,,,,,63.05280367686993,75.92540494855267,167.85933478255305,167.85933478255305,159.80802452014024,129.3632942927097,1.0,1.1,-698,251,-480,274,-235,267,246.24699187278748,246.24706482887268,246.25030708312988,246.2611427307129,246.41844534873962,246.41844534873962,246.41844534873962,246.41844534873962,246.41844534873962,246.41844534873962,246.41844534873962,247.72892379760742,2,1.4598722457885742,None,,,,,,,,,,,,,,,,,,114,2,2025-02-25_14h05.19.009,comp,2024.2.4,57.36726063145917,2025-02-25 14h05.28.215393 -0500,
81,81,0,critical,whd,35.0,4.0,upper,125.0,200.0,200.0,125.0,127.0,127.0,1,2.299165725708008,None,,,,,0,0,0,0,0,81,81,89,247.74927711486816,,,,,,,,,,,,,,,,,,,,,,,,,,,,,,,,,,,,,,,,,,,,,,,,,,,,,,,,,,,,,,,,,,,,,,,,,,,,,,,,,125.0,200.0,200.0,125.0,127.0,127.0,4.0,4.2,-258,-17,0,-278,222,7,247.73037195205688,247.73044633865356,247.7334852218628,247.74927711486816,247.8968210220337,247.8968210220337,247.8968210220337,247.8968210220337,247.8968210220337,247.8968210220337,247.8968210220337,250.06360626220703,1,2.299165725708008,None,,,,,,,,,,,,,,,,,,114,2,2025-02-25_14h05.19.009,comp,2024.2.4,57.36726063145917,2025-02-25 14h05.28.215393 -0500,
82,82,0,critical,hdw,20.0,1.0,lower,133.0,57.0,78.0,78.0,57.0,133.0,3,2.0978336334228516,None,,,,,0,0,0,0,0,82,82,114,250.07898879051208,,,,,,,,,,,,,,,,,,,,,,,,,,,,,,,,,,,,,,,,,,,,,,,,,,,,,,,,,,,,,,,,,,,,,,,,,,,,,,,,,133.0,57.0,78.0,78.0,57.0,133.0,1.0,1.1,-644,283,-480,271,-278,276,250.06517362594604,250.06524658203125,250.06845140457153,250.07898879051208,250.22875142097473,250.22875142097473,250.22875142097473,250.22875142097473,250.22875142097473,250.22875142097473,250.22875142097473,252.18325281143188,3,2.0978336334228516,None,,,,,,,,,,,,,,,,,,114,2,2025-02-25_14h05.19.009,comp,2024.2.4,57.36726063145917,2025-02-25 14h05.28.215393 -0500,
83,83,0,filler_random,None,None,None,None,None,None,None,None,None,None,1,2.0219333171844482,None,,,,,0,0,0,0,0,83,83,151,252.20297861099243,,,,,,,,,,,,,,,,,,,,,,,,,,,,,,,,,,,,,,,,,,,,,,,,,,,,,,,,,,,,,,,,,,,,,,,,,,,,,,,,,154.3971596531536,131.9721857691346,197.8503835440345,70.7221106391914,117.16612817642374,146.56492788651548,2.2,2.22,-197,259,0,-257,205,-268,252.1851966381073,252.18527102470398,252.18846893310547,252.20297861099243,252.34984970092773,252.34984970092773,252.34984970092773,252.34984970092773,252.34984970092773,252.34984970092773,252.34984970092773,254.2336175441742,1,2.0219333171844482,None,,,,,,,,,,,,,,,,,,114,2,2025-02-25_14h05.19.009,comp,2024.2.4,57.36726063145917,2025-02-25 14h05.28.215393 -0500,
84,84,0,filler_random,None,None,None,None,None,None,None,None,None,None,2,1.102936029434204,None,,,,,0,0,0,0,0,84,84,166,254.24945259094238,,,,,,,,,,,,,,,,,,,,,,,,,,,,,,,,,,,,,,,,,,,,,,,,,,,,,,,,,,,,,,,,,,,,,,,,,,,,,,,,,153.30709140473235,167.5685664413954,138.54201813135057,195.0158747255215,133.10578510086003,151.25735924662806,3.0,3.1,-277,278,0,-18,269,-254,254.23546409606934,254.23554301261902,254.23877573013306,254.24945259094238,254.39820790290833,254.39820790290833,254.39820790290833,254.39820790290833,254.39820790290833,254.39820790290833,254.39820790290833,255.3630518913269,2,1.102936029434204,None,,,,,,,,,,,,,,,,,,114,2,2025-02-25_14h05.19.009,comp,2024.2.4,57.36726063145917,2025-02-25 14h05.28.215393 -0500,
85,85,0,critical,wdh,35.0,2.1,lower,57.0,133.0,70.0,70.0,133.0,57.0,3,1.9901084899902344,None,,,,,0,0,0,0,0,85,85,32,255.3788938522339,,,,,,,,,,,,,,,,,,,,,,,,,,,,,,,,,,,,,,,,,,,,,,,,,,,,,,,,,,,,,,,,,,,,,,,,,,,,,,,,,57.0,133.0,70.0,70.0,133.0,57.0,2.1,2.12,-198,-267,0,-251,160,274,255.36454558372498,255.3646183013916,255.36745500564575,255.3788938522339,255.53102326393127,255.53102326393127,255.53102326393127,255.53102326393127,255.53102326393127,255.53102326393127,255.53102326393127,257.3872175216675,3,1.9901084899902344,None,,,,,,,,,,,,,,,,,,114,2,2025-02-25_14h05.19.009,comp,2024.2.4,57.36726063145917,2025-02-25 14h05.28.215393 -0500,
86,86,0,critical,whd,35.0,1.0,upper,125.0,200.0,200.0,125.0,127.0,127.0,1,2.1141037940979004,None,,,,,0,0,0,0,0,86,86,85,257.40638422966003,,,,,,,,,,,,,,,,,,,,,,,,,,,,,,,,,,,,,,,,,,,,,,,,,,,,,,,,,,,,,,,,,,,,,,,,,,,,,,,,,125.0,200.0,200.0,125.0,127.0,127.0,1.0,1.2,-258,-1,0,-8,222,9,257.38894844055176,257.38902282714844,257.39241123199463,257.40638422966003,257.54976868629456,257.54976868629456,257.54976868629456,257.54976868629456,257.54976868629456,257.54976868629456,257.54976868629456,259.53333926200867,1,2.1141037940979004,None,,,,,,,,,,,,,,,,,,114,2,2025-02-25_14h05.19.009,comp,2024.2.4,57.36726063145917,2025-02-25 14h05.28.215393 -0500,
87,87,0,critical,whd,35.0,2.1,lower,57.0,133.0,133.0,57.0,70.0,70.0,2,1.683692216873169,None,,,,,0,0,0,0,0,87,87,36,259.5487205982208,,,,,,,,,,,,,,,,,,,,,,,,,,,,,,,,,,,,,,,,,,,,,,,,,,,,,,,,,,,,,,,,,,,,,,,,,,,,,,,,,57.0,133.0,133.0,57.0,70.0,70.0,2.1,2.11,-191,265,0,268,160,-251,259.53488659858704,259.53496074676514,259.5381908416748,259.5487205982208,259.68963074684143,259.68963074684143,259.68963074684143,259.68963074684143,259.68963074684143,259.68963074684143,259.68963074684143,261.23425340652466,2,1.683692216873169,None,,,,,,,,,,,,,,,,,,114,2,2025-02-25_14h05.19.009,comp,2024.2.4,57.36726063145917,2025-02-25 14h05.28.215393 -0500,
88,88,0,filler_random,None,None,None,None,None,None,None,None,None,None,3,0.9917645454406738,None,,,,,0,0,0,0,0,88,88,153,261.2501676082611,,,,,,,,,,,,,,,,,,,,,,,,,,,,,,,,,,,,,,,,,,,,,,,,,,,,,,,,,,,,,,,,,,,,,,,,,,,,,,,,,85.745396988498,171.90264911541087,141.40400780081137,146.19945647032472,163.38918666920944,153.9554966194094,4.0,4.2,-255,2,0,-255,246,-13,261.2360327243805,261.23611283302307,261.2394218444824,261.2501676082611,261.40292716026306,261.40292716026306,261.40292716026306,261.40292716026306,261.40292716026306,261.40292716026306,261.40292716026306,262.25009655952454,3,0.9917645454406738,None,,,,,,,,,,,,,,,,,,114,2,2025-02-25_14h05.19.009,comp,2024.2.4,57.36726063145917,2025-02-25 14h05.28.215393 -0500,
89,89,0,filler_square,None,None,None,None,None,None,None,None,None,None,1,1.1975672245025635,None,,,,,0,0,0,0,0,89,89,206,262.27518606185913,,,,,,,,,,,,,,,,,,,,,,,,,,,,,,,,,,,,,,,,,,,,,,,,,,,,,,,,,,,,,,,,,,,,,,,,,,,,,,,,,106.02662172339848,106.02662172339848,103.02225228105802,92.44688994329852,77.74730532471017,78.92019546110485,4.0,4.1,-195,-276,0,2,182,-266,262.25205993652344,262.2521347999573,262.25532507896423,262.27518606185913,262.4176998138428,262.4176998138428,262.4176998138428,262.4176998138428,262.4176998138428,262.4176998138428,262.4176998138428,263.4835548400879,1,1.1975672245025635,None,,,,,,,,,,,,,,,,,,114,2,2025-02-25_14h05.19.009,comp,2024.2.4,57.36726063145917,2025-02-25 14h05.28.215393 -0500,
90,90,0,critical,dhw,35.0,3.0,lower,70.0,70.0,133.0,57.0,57.0,133.0,2,1.4882051944732666,None,,,,,0,0,0,0,0,90,90,50,263.50497007369995,,,,,,,,,,,,,,,,,,,,,,,,,,,,,,,,,,,,,,,,,,,,,,,,,,,,,,,,,,,,,,,,,,,,,,,,,,,,,,,,,70.0,70.0,133.0,57.0,57.0,133.0,3.0,3.1,-160,265,0,15,191,-251,263.4850265979767,263.4851014614105,263.48823070526123,263.50497007369995,263.63759899139404,263.63759899139404,263.63759899139404,263.63759899139404,263.63759899139404,263.63759899139404,263.63759899139404,265.0022642612457,2,1.4882051944732666,None,,,,,,,,,,,,,,,,,,114,2,2025-02-25_14h05.19.009,comp,2024.2.4,57.36726063145917,2025-02-25 14h05.28.215393 -0500,
91,91,0,critical,dhw,20.0,2.1,lower,78.0,78.0,133.0,57.0,57.0,133.0,3,1.3501403331756592,None,,,,,0,0,0,0,0,91,91,2,265.0183279514313,,,,,,,,,,,,,,,,,,,,,,,,,,,,,,,,,,,,,,,,,,,,,,,,,,,,,,,,,,,,,,,,,,,,,,,,,,,,,,,,,78.0,78.0,133.0,57.0,57.0,133.0,2.1,2.11,-164,262,0,262,191,-262,265.00379037857056,265.00386452674866,265.00700855255127,265.0183279514313,265.1678864955902,265.1678864955902,265.1678864955902,265.1678864955902,265.1678864955902,265.1678864955902,265.1678864955902,266.38563227653503,3,1.3501403331756592,None,,,,,,,,,,,,,,,,,,114,2,2025-02-25_14h05.19.009,comp,2024.2.4,57.36726063145917,2025-02-25 14h05.28.215393 -0500,
92,92,0,catch,None,None,None,None,None,None,None,None,None,None,3,1.133833646774292,None,,,,,0,0,0,0,0,92,92,128,266.4028639793396,,,,,,,,,,,,,,,,,,,,,,,,,,,,,,,,,,,,,,,,,,,,,,,,,,,,,,,,,,,,,,,,,,,,,,,,,,,,,,,,,82,108,60,130,175,150,4.0,4.1,-215,-266,0,6,236,-288,266.38758087158203,266.38768243789673,266.3917305469513,266.4028639793396,266.55104804039,266.55104804039,266.55104804039,266.55104804039,266.55104804039,266.55104804039,266.55104804039,267.5406484603882,3,1.133833646774292,None,,,,,,,,,,,,,,,,,,114,2,2025-02-25_14h05.19.009,comp,2024.2.4,57.36726063145917,2025-02-25 14h05.28.215393 -0500,
93,93,0,filler_square,None,None,None,None,None,None,None,None,None,None,1,0.9266946315765381,None,,,,,0,0,0,0,0,93,93,195,267.56174206733704,,,,,,,,,,,,,,,,,,,,,,,,,,,,,,,,,,,,,,,,,,,,,,,,,,,,,,,,,,,,,,,,,,,,,,,,,,,,,,,,,141.19797390831417,141.19797390831417,136.8841330498966,84.05570922251633,107.40489381709602,57.84521402198641,3.0,3.1,-209,286,0,-13,167,-287,267.54293036460876,267.543007850647,267.54636216163635,267.56174206733704,267.7016978263855,267.7016978263855,267.7016978263855,267.7016978263855,267.7016978263855,267.7016978263855,267.7016978263855,268.5026409626007,1,0.9266946315765381,None,,,,,,,,,,,,,,,,,,114,2,2025-02-25_14h05.19.009,comp,2024.2.4,57.36726063145917,2025-02-25 14h05.28.215393 -0500,
94,94,0,catch,None,None,None,None,None,None,None,None,None,None,2,0.9690589904785156,None,,,,,0,0,0,0,0,94,94,127,268.5194892883301,,,,,,,,,,,,,,,,,,,,,,,,,,,,,,,,,,,,,,,,,,,,,,,,,,,,,,,,,,,,,,,,,,,,,,,,,,,,,,,,,100,90,129,196,109,81,1.0,1.3,241,-280,480,-275,714,-252,268.5045533180237,268.504629611969,268.5086271762848,268.5194892883301,268.6690032482147,268.6690032482147,268.6690032482147,268.6690032482147,268.6690032482147,268.6690032482147,268.6690032482147,269.50251269340515,2,0.9690589904785156,None,,,,,,,,,,,,,,,,,,114,2,2025-02-25_14h05.19.009,comp,2024.2.4,57.36726063145917,2025-02-25 14h05.28.215393 -0500,
95,95,0,critical,dhw,35.0,3.0,upper,127.0,127.0,200.0,125.0,125.0,200.0,2,1.5624654293060303,None,,,,,0,0,0,0,0,95,95,51,269.5180752277374,,,,,,,,,,,,,,,,,,,,,,,,,,,,,,,,,,,,,,,,,,,,,,,,,,,,,,,,,,,,,,,,,,,,,,,,,,,,,,,,,127.0,127.0,200.0,125.0,125.0,200.0,3.0,3.1,-222,272,0,10,258,-252,269.50396060943604,269.5040330886841,269.5069932937622,269.5180752277374,269.66975712776184,269.66975712776184,269.66975712776184,269.66975712776184,269.66975712776184,269.66975712776184,269.66975712776184,271.0932102203369,2,1.5624654293060303,None,,,,,,,,,,,,,,,,,,114,2,2025-02-25_14h05.19.009,comp,2024.2.4,57.36726063145917,2025-02-25 14h05.28.215393 -0500,
96,96,0,critical,wdh,35.0,2.1,upper,125.0,200.0,127.0,127.0,200.0,125.0,1,0.9075822830200195,None,,,,,0,0,0,0,0,96,96,33,271.1093821525574,,,,,,,,,,,,,,,,,,,,,,,,,,,,,,,,,,,,,,,,,,,,,,,,,,,,,,,,,,,,,,,,,,,,,,,,,,,,,,,,,125.0,200.0,127.0,127.0,200.0,125.0,2.1,2.12,-260,-267,0,-273,222,265,271.0948076248169,271.09488224983215,271.09817147254944,271.1093821525574,271.25227785110474,271.25227785110474,271.25227785110474,271.25227785110474,271.25227785110474,271.25227785110474,271.25227785110474,272.0252466201782,1,0.9075822830200195,None,,,,,,,,,,,,,,,,,,114,2,2025-02-25_14h05.19.009,comp,2024.2.4,57.36726063145917,2025-02-25 14h05.28.215393 -0500,
97,97,0,critical,whd,35.0,1.0,lower,57.0,133.0,133.0,57.0,70.0,70.0,1,3.1681690216064453,None,,,,,0,0,0,0,0,97,97,84,272.0402307510376,,,,,,,,,,,,,,,,,,,,,,,,,,,,,,,,,,,,,,,,,,,,,,,,,,,,,,,,,,,,,,,,,,,,,,,,,,,,,,,,,57.0,133.0,133.0,57.0,70.0,70.0,1.0,1.1,-671,253,-480,262,-320,280,272.0267565250397,272.0268335342407,272.02969789505005,272.0402307510376,272.1871716976166,272.1871716976166,272.1871716976166,272.1871716976166,272.1871716976166,272.1871716976166,272.1871716976166,275.2200984954834,1,3.1681690216064453,None,,,,,,,,,,,,,,,,,,114,2,2025-02-25_14h05.19.009,comp,2024.2.4,57.36726063145917,2025-02-25 14h05.28.215393 -0500,
98,98,0,critical,hwd,20.0,1.0,upper,200.0,125.0,125.0,200.0,141.0,141.0,2,1.7884085178375244,None,,,,,0,0,0,0,0,98,98,103,275.23600006103516,,,,,,,,,,,,,,,,,,,,,,,,,,,,,,,,,,,,,,,,,,,,,,,,,,,,,,,,,,,,,,,,,,,,,,,,,,,,,,,,,200.0,125.0,125.0,200.0,141.0,141.0,1.0,1.1,-738,257,-480,250,-214,276,275.2216000556946,275.2217092514038,275.22472953796387,275.23600006103516,275.38801980018616,275.38801980018616,275.38801980018616,275.38801980018616,275.38801980018616,275.38801980018616,275.38801980018616,277.02668952941895,2,1.7884085178375244,None,,,,,,,,,,,,,,,,,,114,2,2025-02-25_14h05.19.009,comp,2024.2.4,57.36726063145917,2025-02-25 14h05.28.215393 -0500,
99,99,0,critical,whd,20.0,2.1,upper,125.0,200.0,200.0,125.0,141.0,141.0,1,2.526129722595215,None,,,,,0,0,0,0,0,99,99,15,277.04220938682556,,,,,,,,,,,,,,,,,,,,,,,,,,,,,,,,,,,,,,,,,,,,,,,,,,,,,,,,,,,,,,,,,,,,,,,,,,,,,,,,,125.0,200.0,200.0,125.0,141.0,141.0,2.1,2.11,-258,262,0,251,229,-260,277.0281662940979,277.0282406806946,277.0313935279846,277.04220938682556,277.186803817749,277.186803817749,277.186803817749,277.186803817749,277.186803817749,277.186803817749,277.186803817749,279.5795056819916,1,2.526129722595215,None,,,,,,,,,,,,,,,,,,114,2,2025-02-25_14h05.19.009,comp,2024.2.4,57.36726063145917,2025-02-25 14h05.28.215393 -0500,
100,100,0,filler_square,None,None,None,None,None,None,None,None,None,None,2,2.2284905910491943,None,,,,,0,0,0,0,0,100,100,189,279.59584045410156,,,,,,,,,,,,,,,,,,,,,,,,,,,,,,,,,,,,,,,,,,,,,,,,,,,,,,,,,,,,,,,,,,,,,,,,,,,,,,,,,66.19429314129768,58.81807086038391,67.11097474489026,67.11097474489026,61.143105195120114,66.73856754069601,1.0,1.2,-159,-17,0,-18,163,17,279.5813338756561,279.5814673900604,279.5847837924957,279.59584045410156,279.7384421825409,279.7384421825409,279.7384421825409,279.7384421825409,279.7384421825409,279.7384421825409,279.7384421825409,281.8396017551422,2,2.2284905910491943,None,,,,,,,,,,,,,,,,,,114,2,2025-02-25_14h05.19.009,comp,2024.2.4,57.36726063145917,2025-02-25 14h05.28.215393 -0500,
101,101,0,critical,dwh,35.0,1.0,lower,70.0,70.0,57.0,133.0,133.0,57.0,3,3.1593053340911865,None,,,,,0,0,0,0,0,101,101,60,281.85948181152344,,,,,,,,,,,,,,,,,,,,,,,,,,,,,,,,,,,,,,,,,,,,,,,,,,,,,,,,,,,,,,,,,,,,,,,,,,,,,,,,,70.0,70.0,57.0,133.0,133.0,57.0,1.0,1.2,-198,3,0,-13,191,13,281.8412027359009,281.84127593040466,281.84472036361694,281.85948181152344,282.03092432022095,282.03092432022095,282.03092432022095,282.03092432022095,282.03092432022095,282.03092432022095,282.03092432022095,285.0230767726898,3,3.1593053340911865,None,,,,,,,,,,,,,,,,,,114,2,2025-02-25_14h05.19.009,comp,2024.2.4,57.36726063145917,2025-02-25 14h05.28.215393 -0500,
102,102,0,critical,wdh,35.0,2.1,lower,57.0,133.0,70.0,70.0,133.0,57.0,1,1.386361837387085,None,,,,,0,0,0,0,0,102,102,8,285.0385682582855,,,,,,,,,,,,,,,,,,,,,,,,,,,,,,,,,,,,,,,,,,,,,,,,,,,,,,,,,,,,,,,,,,,,,,,,,,,,,,,,,57.0,133.0,70.0,70.0,133.0,57.0,2.1,2.11,-198,252,0,276,160,-271,285.0245440006256,285.02461886405945,285.0274519920349,285.0385682582855,285.19075441360474,285.19075441360474,285.19075441360474,285.19075441360474,285.19075441360474,285.19075441360474,285.19075441360474,286.43115854263306,1,1.386361837387085,None,,,,,,,,,,,,,,,,,,114,2,2025-02-25_14h05.19.009,comp,2024.2.4,57.36726063145917,2025-02-25 14h05.28.215393 -0500,
103,103,0,catch,None,None,None,None,None,None,None,None,None,None,2,0.873483419418335,None,,,,,0,0,0,0,0,103,103,122,286.44733476638794,,,,,,,,,,,,,,,,,,,,,,,,,,,,,,,,,,,,,,,,,,,,,,,,,,,,,,,,,,,,,,,,,,,,,,,,,,,,,,,,,72,118,147,178,83,107,3.0,3.2,-244,-282,0,15,238,267,286.4331519603729,286.43322920799255,286.43647599220276,286.44733476638794,286.59113073349,286.59113073349,286.59113073349,286.59113073349,286.59113073349,286.59113073349,286.59113073349,287.33078598976135,2,0.873483419418335,None,,,,,,,,,,,,,,,,,,114,2,2025-02-25_14h05.19.009,comp,2024.2.4,57.36726063145917,2025-02-25 14h05.28.215393 -0500,
104,104,0,filler_random,None,None,None,None,None,None,None,None,None,None,3,1.1314380168914795,None,,,,,0,0,0,0,0,104,104,165,287.3490319252014,,,,,,,,,,,,,,,,,,,,,,,,,,,,,,,,,,,,,,,,,,,,,,,,,,,,,,,,,,,,,,,,,,,,,,,,,,,,,,,,,100.5031051979241,89.42822951889926,98.76361256382688,108.1851499104601,93.74239560864243,199.4932901221978,2.2,2.22,-195,286,0,-276,250,-256,287.33249282836914,287.33262372016907,287.33589243888855,287.3490319252014,287.4953079223633,287.4953079223633,287.4953079223633,287.4953079223633,287.4953079223633,287.4953079223633,287.4953079223633,288.49289107322693,3,1.1314380168914795,None,,,,,,,,,,,,,,,,,,114,2,2025-02-25_14h05.19.009,comp,2024.2.4,57.36726063145917,2025-02-25 14h05.28.215393 -0500,
105,105,0,critical,wdh,35.0,4.0,lower,57.0,133.0,70.0,70.0,133.0,57.0,3,3.1306188106536865,None,,,,,0,0,0,0,0,105,105,76,288.51023411750793,,,,,,,,,,,,,,,,,,,,,,,,,,,,,,,,,,,,,,,,,,,,,,,,,,,,,,,,,,,,,,,,,,,,,,,,,,,,,,,,,57.0,133.0,70.0,70.0,133.0,57.0,4.0,4.1,-198,-252,0,1,160,-272,288.494327545166,288.49440264701843,288.4974467754364,288.51023411750793,288.6578207015991,288.6578207015991,288.6578207015991,288.6578207015991,288.6578207015991,288.6578207015991,288.6578207015991,291.6451086997986,3,3.1306188106536865,None,,,,,,,,,,,,,,,,,,114,2,2025-02-25_14h05.19.009,comp,2024.2.4,57.36726063145917,2025-02-25 14h05.28.215393 -0500,
106,106,0,critical,dwh,35.0,3.0,lower,70.0,70.0,57.0,133.0,133.0,57.0,1,1.8121519088745117,None,,,,,0,0,0,0,0,106,106,62,291.6605546474457,,,,,,,,,,,,,,,,,,,,,,,,,,,,,,,,,,,,,,,,,,,,,,,,,,,,,,,,,,,,,,,,,,,,,,,,,,,,,,,,,70.0,70.0,57.0,133.0,133.0,57.0,3.0,3.1,-198,280,0,10,191,-270,291.64658403396606,291.64668560028076,291.64990758895874,291.6605546474457,291.8110604286194,291.8110604286194,291.8110604286194,291.8110604286194,291.8110604286194,291.8110604286194,291.8110604286194,293.47547221183777,1,1.8121519088745117,None,,,,,,,,,,,,,,,,,,114,2,2025-02-25_14h05.19.009,comp,2024.2.4,57.36726063145917,2025-02-25 14h05.28.215393 -0500,
107,107,0,critical,dwh,20.0,4.0,upper,141.0,141.0,125.0,200.0,200.0,125.0,3,3.0763072967529297,None,,,,,0,0,0,0,0,107,107,71,293.491984128952,,,,,,,,,,,,,,,,,,,,,,,,,,,,,,,,,,,,,,,,,,,,,,,,,,,,,,,,,,,,,,,,,,,,,,,,,,,,,,,,,141.0,141.0,125.0,200.0,200.0,125.0,4.0,4.2,-266,-5,0,-258,258,3,293.47695422172546,293.4770290851593,293.47989201545715,293.491984128952,293.6464581489563,293.6464581489563,293.6464581489563,293.6464581489563,293.6464581489563,293.6464581489563,293.6464581489563,296.57820558547974,3,3.0763072967529297,None,,,,,,,,,,,,,,,,,,114,2,2025-02-25_14h05.19.009,comp,2024.2.4,57.36726063145917,2025-02-25 14h05.28.215393 -0500,
108,108,0,filler_random,None,None,None,None,None,None,None,None,None,None,1,1.0852103233337402,None,,,,,0,0,0,0,0,108,108,149,296.59514570236206,,,,,,,,,,,,,,,,,,,,,,,,,,,,,,,,,,,,,,,,,,,,,,,,,,,,,,,,,,,,,,,,,,,,,,,,,,,,,,,,,168.41254112249757,103.6452287609979,179.31587043584187,74.42993803134198,189.58236083106638,61.820603084542086,2.1,2.12,-185,-252,0,-256,164,287,296.5800151824951,296.58013582229614,296.5834872722626,296.59514570236206,296.7449564933777,296.7449564933777,296.7449564933777,296.7449564933777,296.7449564933777,296.7449564933777,296.7449564933777,297.69699215888977,1,1.0852103233337402,None,,,,,,,,,,,,,,,,,,114,2,2025-02-25_14h05.19.009,comp,2024.2.4,57.36726063145917,2025-02-25 14h05.28.215393 -0500,
109,109,0,critical,dhw,35.0,4.0,lower,70.0,70.0,133.0,57.0,57.0,133.0,3,1.7763440608978271,None,,,,,0,0,0,0,0,109,109,52,297.712792634964,,,,,,,,,,,,,,,,,,,,,,,,,,,,,,,,,,,,,,,,,,,,,,,,,,,,,,,,,,,,,,,,,,,,,,,,,,,,,,,,,70.0,70.0,133.0,57.0,57.0,133.0,4.0,4.1,-160,-268,0,-12,191,-276,297.6985137462616,297.6985878944397,297.70197916030884,297.712792634964,297.86100602149963,297.86100602149963,297.86100602149963,297.86100602149963,297.86100602149963,297.86100602149963,297.86100602149963,299.4961018562317,3,1.7763440608978271,None,,,,,,,,,,,,,,,,,,114,2,2025-02-25_14h05.19.009,comp,2024.2.4,57.36726063145917,2025-02-25 14h05.28.215393 -0500,
110,110,0,critical,whd,20.0,2.1,lower,57.0,133.0,133.0,57.0,78.0,78.0,1,1.9043681621551514,None,,,,,0,0,0,0,0,110,110,14,299.51220417022705,,,,,,,,,,,,,,,,,,,,,,,,,,,,,,,,,,,,,,,,,,,,,,,,,,,,,,,,,,,,,,,,,,,,,,,,,,,,,,,,,57.0,133.0,133.0,57.0,78.0,78.0,2.1,2.12,-191,-276,0,-269,164,283,299.49764108657837,299.49777817726135,299.50108575820923,299.51220417022705,299.66153740882874,299.66153740882874,299.66153740882874,299.66153740882874,299.66153740882874,299.66153740882874,299.66153740882874,301.42912554740906,1,1.9043681621551514,None,,,,,,,,,,,,,,,,,,114,2,2025-02-25_14h05.19.009,comp,2024.2.4,57.36726063145917,2025-02-25 14h05.28.215393 -0500,
111,111,0,critical,hdw,35.0,4.0,upper,200.0,125.0,127.0,127.0,125.0,200.0,3,1.852330207824707,None,,,,,0,0,0,0,0,111,111,113,301.44502234458923,,,,,,,,,,,,,,,,,,,,,,,,,,,,,,,,,,,,,,,,,,,,,,,,,,,,,,,,,,,,,,,,,,,,,,,,,,,,,,,,,200.0,125.0,127.0,127.0,125.0,200.0,4.0,4.2,-222,-12,0,-280,260,20,301.43056988716125,301.43064188957214,301.43381905555725,301.44502234458923,301.5928063392639,301.5928063392639,301.5928063392639,301.5928063392639,301.5928063392639,301.5928063392639,301.5928063392639,303.3039662837982,3,1.852330207824707,None,,,,,,,,,,,,,,,,,,114,2,2025-02-25_14h05.19.009,comp,2024.2.4,57.36726063145917,2025-02-25 14h05.28.215393 -0500,
112,112,0,critical,dhw,35.0,1.0,lower,70.0,70.0,133.0,57.0,57.0,133.0,3,1.2953400611877441,None,,,,,0,0,0,0,0,112,112,48,303.32116079330444,,,,,,,,,,,,,,,,,,,,,,,,,,,,,,,,,,,,,,,,,,,,,,,,,,,,,,,,,,,,,,,,,,,,,,,,,,,,,,,,,70.0,70.0,133.0,57.0,57.0,133.0,1.0,1.2,-160,-4,0,-1,191,-17,303.3053650856018,303.30543637275696,303.30828642845154,303.32116079330444,303.46394205093384,303.46394205093384,303.46394205093384,303.46394205093384,303.46394205093384,303.46394205093384,303.46394205093384,304.63091826438904,3,1.2953400611877441,None,,,,,,,,,,,,,,,,,,114,2,2025-02-25_14h05.19.009,comp,2024.2.4,57.36726063145917,2025-02-25 14h05.28.215393 -0500,
113,113,0,filler_square,None,None,None,None,None,None,None,None,None,None,1,0.9934940338134766,None,,,,,0,0,0,0,0,113,113,207,304.6472098827362,,,,,,,,,,,,,,,,,,,,,,,,,,,,,,,,,,,,,,,,,,,,,,,,,,,,,,,,,,,,,,,,,,,,,,,,,,,,,,,,,79.44282327995063,79.44282327995063,60.65650196327829,58.67761223564651,62.97588088327768,71.44042315211546,1.0,1.2,-165,9,0,0,161,16,304.632684469223,304.63276529312134,304.63676142692566,304.6472098827362,304.796893119812,304.796893119812,304.796893119812,304.796893119812,304.796893119812,304.796893119812,304.796893119812,305.6523222923279,1,0.9934940338134766,None,,,,,,,,,,,,,,,,,,114,2,2025-02-25_14h05.19.009,comp,2024.2.4,57.36726063145917,2025-02-25 14h05.28.215393 -0500,
114,114,0,critical,whd,35.0,3.0,lower,57.0,133.0,133.0,57.0,70.0,70.0,2,2.279484272003174,None,,,,,0,0,0,0,0,114,114,86,305.6730782985687,,,,,,,,,,,,,,,,,,,,,,,,,,,,,,,,,,,,,,,,,,,,,,,,,,,,,,,,,,,,,,,,,,,,,,,,,,,,,,,,,57.0,133.0,133.0,57.0,70.0,70.0,3.0,3.1,-191,251,0,11,160,-274,305.65394616127014,305.65402126312256,305.6572551727295,305.6730782985687,305.8147118091583,305.8147118091583,305.8147118091583,305.8147118091583,305.8147118091583,305.8147118091583,305.8147118091583,307.96498680114746,2,2.279484272003174,None,,,,,,,,,,,,,,,,,,114,2,2025-02-25_14h05.19.009,comp,2024.2.4,57.36726063145917,2025-02-25 14h05.28.215393 -0500,
115,115,0,critical,dwh,35.0,2.1,upper,127.0,127.0,125.0,200.0,200.0,125.0,2,2.1717381477355957,None,,,,,0,0,0,0,0,115,115,5,307.98075914382935,,,,,,,,,,,,,,,,,,,,,,,,,,,,,,,,,,,,,,,,,,,,,,,,,,,,,,,,,,,,,,,,,,,,,,,,,,,,,,,,,127.0,127.0,125.0,200.0,200.0,125.0,2.1,2.12,-260,-281,0,-267,258,253,307.9664680957794,307.9665427207947,307.9695973396301,307.98075914382935,308.1183454990387,308.1183454990387,308.1183454990387,308.1183454990387,308.1183454990387,308.1183454990387,308.1183454990387,310.16806173324585,2,2.1717381477355957,None,,,,,,,,,,,,,,,,,,114,2,2025-02-25_14h05.19.009,comp,2024.2.4,57.36726063145917,2025-02-25 14h05.28.215393 -0500,
116,116,0,critical,whd,20.0,3.0,upper,125.0,200.0,200.0,125.0,141.0,141.0,1,1.8988990783691406,None,,,,,0,0,0,0,0,116,116,93,310.1815106868744,,,,,,,,,,,,,,,,,,,,,,,,,,,,,,,,,,,,,,,,,,,,,,,,,,,,,,,,,,,,,,,,,,,,,,,,,,,,,,,,,125.0,200.0,200.0,125.0,141.0,141.0,3.0,3.1,-258,252,0,-10,229,-273,310.1695713996887,310.16964769363403,310.1725871562958,310.1815106868744,310.33675956726074,310.33675956726074,310.33675956726074,310.33675956726074,310.33675956726074,310.33675956726074,310.33675956726074,312.08322072029114,1,1.8988990783691406,None,,,,,,,,,,,,,,,,,,114,2,2025-02-25_14h05.19.009,comp,2024.2.4,57.36726063145917,2025-02-25 14h05.28.215393 -0500,
117,117,0,filler_random,None,None,None,None,None,None,None,None,None,None,2,1.5413804054260254,None,,,,,0,0,0,0,0,117,117,144,312.0996356010437,,,,,,,,,,,,,,,,,,,,,,,,,,,,,,,,,,,,,,,,,,,,,,,,,,,,,,,,,,,,,,,,,,,,,,,,,,,,,,,,,135.14860205717054,65.94295941593202,158.84037210434838,170.182624935371,198.43057293232698,122.54635980238332,2.1,2.12,-214,-259,0,-257,242,271,312.0850899219513,312.0851905345917,312.0885956287384,312.0996356010437,312.24891090393066,312.24891090393066,312.24891090393066,312.24891090393066,312.24891090393066,312.24891090393066,312.24891090393066,313.65072560310364,2,1.5413804054260254,None,,,,,,,,,,,,,,,,,,114,2,2025-02-25_14h05.19.009,comp,2024.2.4,57.36726063145917,2025-02-25 14h05.28.215393 -0500,
118,118,0,filler_square,None,None,None,None,None,None,None,None,None,None,3,3.3493385314941406,None,,,,,0,0,0,0,0,118,118,197,313.66705656051636,,,,,,,,,,,,,,,,,,,,,,,,,,,,,,,,,,,,,,,,,,,,,,,,,,,,,,,,,,,,,,,,,,,,,,,,,,,,,,,,,95.15948835823818,62.81750562381875,104.74368716017187,115.55020977781751,116.06157681438187,116.06157681438187,2.1,2.12,-185,-256,0,-264,212,262,313.6528010368347,313.65287709236145,313.6563003063202,313.66705656051636,313.8231682777405,313.8231682777405,313.8231682777405,313.8231682777405,313.8231682777405,313.8231682777405,313.8231682777405,317.0195813179016,3,3.3493385314941406,None,,,,,,,,,,,,,,,,,,114,2,2025-02-25_14h05.19.009,comp,2024.2.4,57.36726063145917,2025-02-25 14h05.28.215393 -0500,
119,119,0,critical,hdw,35.0,3.0,lower,133.0,57.0,70.0,70.0,57.0,133.0,3,1.636681079864502,None,,,,,0,0,0,0,0,119,119,110,317.0357508659363,,,,,,,,,,,,,,,,,,,,,,,,,,,,,,,,,,,,,,,,,,,,,,,,,,,,,,,,,,,,,,,,,,,,,,,,,,,,,,,,,133.0,57.0,70.0,70.0,57.0,133.0,3.0,3.1,-160,269,0,-3,198,-279,317.02125787734985,317.02138447761536,317.024950504303,317.0357508659363,317.184255361557,317.184255361557,317.184255361557,317.184255361557,317.184255361557,317.184255361557,317.184255361557,318.6855585575104,3,1.636681079864502,None,,,,,,,,,,,,,,,,,,114,2,2025-02-25_14h05.19.009,comp,2024.2.4,57.36726063145917,2025-02-25 14h05.28.215393 -0500,
120,120,0,critical,dhw,20.0,3.0,lower,78.0,78.0,133.0,57.0,57.0,133.0,3,1.801330804824829,None,,,,,0,0,0,0,0,120,120,56,318.70314931869507,,,,,,,,,,,,,,,,,,,,,,,,,,,,,,,,,,,,,,,,,,,,,,,,,,,,,,,,,,,,,,,,,,,,,,,,,,,,,,,,,78.0,78.0,133.0,57.0,57.0,133.0,3.0,3.2,-164,-255,0,17,191,251,318.6871521472931,318.6872253417969,318.69047451019287,318.70314931869507,318.85448026657104,318.85448026657104,318.85448026657104,318.85448026657104,318.85448026657104,318.85448026657104,318.85448026657104,320.5195543766022,3,1.801330804824829,None,,,,,,,,,,,,,,,,,,114,2,2025-02-25_14h05.19.009,comp,2024.2.4,57.36726063145917,2025-02-25 14h05.28.215393 -0500,
121,121,0,critical,hdw,20.0,2.1,lower,133.0,57.0,78.0,78.0,57.0,133.0,1,1.4333915710449219,None,,,,,0,0,0,0,0,121,121,22,320.53501749038696,,,,,,,,,,,,,,,,,,,,,,,,,,,,,,,,,,,,,,,,,,,,,,,,,,,,,,,,,,,,,,,,,,,,,,,,,,,,,,,,,133.0,57.0,78.0,78.0,57.0,133.0,2.1,2.12,-164,-287,0,-255,202,272,320.5211510658264,320.52122497558594,320.5247037410736,320.53501749038696,320.6888573169708,320.6888573169708,320.6888573169708,320.6888573169708,320.6888573169708,320.6888573169708,320.6888573169708,321.98614621162415,1,1.4333915710449219,None,,,,,,,,,,,,,,,,,,114,2,2025-02-25_14h05.19.009,comp,2024.2.4,57.36726063145917,2025-02-25 14h05.28.215393 -0500,
122,122,0,critical,whd,20.0,4.0,upper,125.0,200.0,200.0,125.0,141.0,141.0,1,2.079289674758911,None,,,,,0,0,0,0,0,122,122,95,322.00171279907227,,,,,,,,,,,,,,,,,,,,,,,,,,,,,,,,,,,,,,,,,,,,,,,,,,,,,,,,,,,,,,,,,,,,,,,,,,,,,,,,,125.0,200.0,200.0,125.0,141.0,141.0,4.0,4.1,-258,-269,0,-7,229,-267,321.9877381324768,321.9878113269806,321.9913613796234,322.00171279907227,322.1518568992615,322.1518568992615,322.1518568992615,322.1518568992615,322.1518568992615,322.1518568992615,322.1518568992615,324.0860650539398,1,2.079289674758911,None,,,,,,,,,,,,,,,,,,114,2,2025-02-25_14h05.19.009,comp,2024.2.4,57.36726063145917,2025-02-25 14h05.28.215393 -0500,
123,123,0,filler_square,None,None,None,None,None,None,None,None,None,None,2,1.0428693294525146,None,,,,,0,0,0,0,0,123,123,174,324.1024558544159,,,,,,,,,,,,,,,,,,,,,,,,,,,,,,,,,,,,,,,,,,,,,,,,,,,,,,,,,,,,,,,,,,,,,,,,,,,,,,,,,72.8431979361047,68.97377450515096,79.37958764075069,79.37958764075069,78.96035283695039,60.13472046180814,3.0,3.1,-170,278,0,-6,166,-254,324.08775067329407,324.0878255367279,324.09095191955566,324.1024558544159,324.25445556640625,324.25445556640625,324.25445556640625,324.25445556640625,324.25445556640625,324.25445556640625,324.25445556640625,325.1544098854065,2,1.0428693294525146,None,,,,,,,,,,,,,,,,,,114,2,2025-02-25_14h05.19.009,comp,2024.2.4,57.36726063145917,2025-02-25 14h05.28.215393 -0500,
124,124,0,critical,dwh,20.0,3.0,upper,141.0,141.0,125.0,200.0,200.0,125.0,2,1.565711259841919,None,,,,,0,0,0,0,0,124,124,69,325.17097449302673,,,,,,,,,,,,,,,,,,,,,,,,,,,,,,,,,,,,,,,,,,,,,,,,,,,,,,,,,,,,,,,,,,,,,,,,,,,,,,,,,141.0,141.0,125.0,200.0,200.0,125.0,3.0,3.2,-266,-276,0,-11,258,290,325.15593338012695,325.1560094356537,325.1600732803345,325.17097449302673,325.324506521225,325.324506521225,325.324506521225,325.324506521225,325.324506521225,325.324506521225,325.324506521225,326.7411267757416,2,1.565711259841919,None,,,,,,,,,,,,,,,,,,114,2,2025-02-25_14h05.19.009,comp,2024.2.4,57.36726063145917,2025-02-25 14h05.28.215393 -0500,
125,125,0,filler_random,None,None,None,None,None,None,None,None,None,None,3,1.0435872077941895,None,,,,,0,0,0,0,0,125,125,162,326.75716161727905,,,,,,,,,,,,,,,,,,,,,,,,,,,,,,,,,,,,,,,,,,,,,,,,,,,,,,,,,,,,,,,,,,,,,,,,,,,,,,,,,63.89186910674273,143.92899881936629,97.36456028555062,88.34002927804465,79.71134258957049,143.37188917733252,2.2,2.21,-212,-271,0,273,212,285,326.7431993484497,326.74335074424744,326.746463060379,326.75716161727905,326.89547300338745,326.89547300338745,326.89547300338745,326.89547300338745,326.89547300338745,326.89547300338745,326.89547300338745,327.80619263648987,3,1.0435872077941895,None,,,,,,,,,,,,,,,,,,114,2,2025-02-25_14h05.19.009,comp,2024.2.4,57.36726063145917,2025-02-25 14h05.28.215393 -0500,
126,126,0,critical,wdh,35.0,3.0,lower,57.0,133.0,70.0,70.0,133.0,57.0,3,2.1814510822296143,None,,,,,0,0,0,0,0,126,126,74,327.82699942588806,,,,,,,,,,,,,,,,,,,,,,,,,,,,,,,,,,,,,,,,,,,,,,,,,,,,,,,,,,,,,,,,,,,,,,,,,,,,,,,,,57.0,133.0,70.0,70.0,133.0,57.0,3.0,3.2,-198,-280,0,-8,160,284,327.80783915519714,327.8079137802124,327.81131768226624,327.82699942588806,327.97253346443176,327.97253346443176,327.97253346443176,327.97253346443176,327.97253346443176,327.97253346443176,327.97253346443176,330.02511262893677,3,2.1814510822296143,None,,,,,,,,,,,,,,,,,,114,2,2025-02-25_14h05.19.009,comp,2024.2.4,57.36726063145917,2025-02-25 14h05.28.215393 -0500,
127,127,0,filler_square,None,None,None,None,None,None,None,None,None,None,2,2.5036630630493164,None,,,,,0,0,0,0,0,127,127,204,330.04120087623596,,,,,,,,,,,,,,,,,,,,,,,,,,,,,,,,,,,,,,,,,,,,,,,,,,,,,,,,,,,,,,,,,,,,,,,,,,,,,,,,,160.42175443795296,146.21526101109157,160.46874544448832,160.46874544448832,102.08821182020249,99.91972479643076,4.0,4.1,-249,-269,0,-1,226,-252,330.02711749076843,330.02719736099243,330.030100107193,330.04120087623596,330.1902747154236,330.1902747154236,330.1902747154236,330.1902747154236,330.1902747154236,330.1902747154236,330.1902747154236,332.5615198612213,2,2.5036630630493164,None,,,,,,,,,,,,,,,,,,114,2,2025-02-25_14h05.19.009,comp,2024.2.4,57.36726063145917,2025-02-25 14h05.28.215393 -0500,
128,128,0,critical,hdw,20.0,2.1,lower,133.0,57.0,78.0,78.0,57.0,133.0,3,2.3907084465026855,None,,,,,0,0,0,0,0,128,128,46,332.5777339935303,,,,,,,,,,,,,,,,,,,,,,,,,,,,,,,,,,,,,,,,,,,,,,,,,,,,,,,,,,,,,,,,,,,,,,,,,,,,,,,,,133.0,57.0,78.0,78.0,57.0,133.0,2.1,2.11,-164,256,0,279,202,-260,332.5630798339844,332.56315183639526,332.56655287742615,332.5777339935303,332.7248339653015,332.7248339653015,332.7248339653015,332.7248339653015,332.7248339653015,332.7248339653015,332.7248339653015,334.9821984767914,3,2.3907084465026855,None,,,,,,,,,,,,,,,,,,114,2,2025-02-25_14h05.19.009,comp,2024.2.4,57.36726063145917,2025-02-25 14h05.28.215393 -0500,
129,129,0,filler_random,None,None,None,None,None,None,None,None,None,None,3,0.99526047706604,None,,,,,0,0,0,0,0,129,129,168,334.99714708328247,,,,,,,,,,,,,,,,,,,,,,,,,,,,,,,,,,,,,,,,,,,,,,,,,,,,,,,,,,,,,,,,,,,,,,,,,,,,,,,,,80.55812217987835,63.21877806122328,67.62445280926067,185.0179943264173,116.46479139520676,167.89997176769117,2.2,2.22,-220,271,0,-262,272,-270,334.98386907577515,334.98394203186035,334.98677015304565,334.99714708328247,335.1407198905945,335.1407198905945,335.1407198905945,335.1407198905945,335.1407198905945,335.1407198905945,335.1407198905945,336.0095043182373,3,0.99526047706604,None,,,,,,,,,,,,,,,,,,114,2,2025-02-25_14h05.19.009,comp,2024.2.4,57.36726063145917,2025-02-25 14h05.28.215393 -0500,
130,130,0,critical,hdw,35.0,2.1,lower,133.0,57.0,70.0,70.0,57.0,133.0,3,1.3837952613830566,None,,,,,0,0,0,0,0,130,130,20,336.02478218078613,,,,,,,,,,,,,,,,,,,,,,,,,,,,,,,,,,,,,,,,,,,,,,,,,,,,,,,,,,,,,,,,,,,,,,,,,,,,,,,,,133.0,57.0,70.0,70.0,57.0,133.0,2.1,2.11,-160,254,0,250,198,-289,336.0110812187195,336.01115584373474,336.01436734199524,336.02478218078613,336.17497992515564,336.17497992515564,336.17497992515564,336.17497992515564,336.17497992515564,336.17497992515564,336.17497992515564,337.41348242759705,3,1.3837952613830566,None,,,,,,,,,,,,,,,,,,114,2,2025-02-25_14h05.19.009,comp,2024.2.4,57.36726063145917,2025-02-25 14h05.28.215393 -0500,
131,131,0,critical,wdh,35.0,1.0,lower,57.0,133.0,70.0,70.0,133.0,57.0,3,1.9378113746643066,None,,,,,0,0,0,0,0,131,131,72,337.43096590042114,,,,,,,,,,,,,,,,,,,,,,,,,,,,,,,,,,,,,,,,,,,,,,,,,,,,,,,,,,,,,,,,,,,,,,,,,,,,,,,,,57.0,133.0,70.0,70.0,133.0,57.0,1.0,1.3,282,-283,480,-278,640,-251,337.414990901947,337.4150655269623,337.4179136753082,337.43096590042114,337.575710773468,337.575710773468,337.575710773468,337.575710773468,337.575710773468,337.575710773468,337.575710773468,339.3773262500763,3,1.9378113746643066,None,,,,,,,,,,,,,,,,,,114,2,2025-02-25_14h05.19.009,comp,2024.2.4,57.36726063145917,2025-02-25 14h05.28.215393 -0500,
132,132,0,critical,wdh,20.0,1.0,lower,57.0,133.0,78.0,78.0,133.0,57.0,1,1.6073453426361084,None,,,,,0,0,0,0,0,132,132,78,339.39341592788696,,,,,,,,,,,,,,,,,,,,,,,,,,,,,,,,,,,,,,,,,,,,,,,,,,,,,,,,,,,,,,,,,,,,,,,,,,,,,,,,,57.0,133.0,78.0,78.0,133.0,57.0,1.0,1.2,-202,4,0,-14,164,16,339.3789253234863,339.3790056705475,339.3826804161072,339.39341592788696,339.5426867008209,339.5426867008209,339.5426867008209,339.5426867008209,339.5426867008209,339.5426867008209,339.5426867008209,341.0144271850586,1,1.6073453426361084,None,,,,,,,,,,,,,,,,,,114,2,2025-02-25_14h05.19.009,comp,2024.2.4,57.36726063145917,2025-02-25 14h05.28.215393 -0500,
133,133,0,critical,hdw,20.0,3.0,lower,133.0,57.0,78.0,78.0,57.0,133.0,3,1.6172873973846436,None,,,,,0,0,0,0,0,133,133,116,341.0318911075592,,,,,,,,,,,,,,,,,,,,,,,,,,,,,,,,,,,,,,,,,,,,,,,,,,,,,,,,,,,,,,,,,,,,,,,,,,,,,,,,,133.0,57.0,78.0,78.0,57.0,133.0,3.0,3.2,-164,-270,0,0,202,250,341.01593589782715,341.016010761261,341.01885509490967,341.0318911075592,341.174932718277,341.174932718277,341.174932718277,341.174932718277,341.174932718277,341.174932718277,341.174932718277,342.65983057022095,3,1.6172873973846436,None,,,,,,,,,,,,,,,,,,114,2,2025-02-25_14h05.19.009,comp,2024.2.4,57.36726063145917,2025-02-25 14h05.28.215393 -0500,
134,134,0,critical,hwd,20.0,3.0,lower,133.0,57.0,57.0,133.0,78.0,78.0,2,1.9490900039672852,None,,,,,0,0,0,0,0,134,134,104,342.6758875846863,,,,,,,,,,,,,,,,,,,,,,,,,,,,,,,,,,,,,,,,,,,,,,,,,,,,,,,,,,,,,,,,,,,,,,,,,,,,,,,,,133.0,57.0,57.0,133.0,78.0,78.0,3.0,3.1,-191,282,0,4,202,-272,342.6614468097687,342.6615221500397,342.66501235961914,342.6758875846863,342.8173460960388,342.8173460960388,342.8173460960388,342.8173460960388,342.8173460960388,342.8173460960388,342.8173460960388,344.6270098686218,2,1.9490900039672852,None,,,,,,,,,,,,,,,,,,114,2,2025-02-25_14h05.19.009,comp,2024.2.4,57.36726063145917,2025-02-25 14h05.28.215393 -0500,
135,135,0,critical,whd,35.0,2.1,upper,125.0,200.0,200.0,125.0,127.0,127.0,1,3.5117886066436768,None,,,,,0,0,0,0,0,135,135,37,344.64344120025635,,,,,,,,,,,,,,,,,,,,,,,,,,,,,,,,,,,,,,,,,,,,,,,,,,,,,,,,,,,,,,,,,,,,,,,,,,,,,,,,,125.0,200.0,200.0,125.0,127.0,127.0,2.1,2.11,-258,261,0,267,222,-264,344.62850427627563,344.62858033180237,344.6319270133972,344.64344120025635,344.79714465141296,344.79714465141296,344.79714465141296,344.79714465141296,344.79714465141296,344.79714465141296,344.79714465141296,348.15955901145935,1,3.5117886066436768,None,,,,,,,,,,,,,,,,,,114,2,2025-02-25_14h05.19.009,comp,2024.2.4,57.36726063145917,2025-02-25 14h05.28.215393 -0500,
136,136,0,filler_random,None,None,None,None,None,None,None,None,None,None,3,2.6723711490631104,None,,,,,0,0,0,0,0,136,136,132,348.1763868331909,,,,,,,,,,,,,,,,,,,,,,,,,,,,,,,,,,,,,,,,,,,,,,,,,,,,,,,,,,,,,,,,,,,,,,,,,,,,,,,,,69.39266008467995,197.26704729677604,156.53507153153328,65.83965593108312,81.42140816624344,174.0563857083572,2.1,2.12,-228,-274,0,-283,216,275,348.16123962402344,348.16135001182556,348.1645791530609,348.1763868331909,348.32380986213684,348.32380986213684,348.32380986213684,348.32380986213684,348.32380986213684,348.32380986213684,348.32380986213684,350.85113286972046,3,2.6723711490631104,None,,,,,,,,,,,,,,,,,,114,2,2025-02-25_14h05.19.009,comp,2024.2.4,57.36726063145917,2025-02-25 14h05.28.215393 -0500,
137,137,0,critical,wdh,20.0,2.1,lower,57.0,133.0,78.0,78.0,133.0,57.0,3,1.9461429119110107,None,,,,,0,0,0,0,0,137,137,34,350.8705384731293,,,,,,,,,,,,,,,,,,,,,,,,,,,,,,,,,,,,,,,,,,,,,,,,,,,,,,,,,,,,,,,,,,,,,,,,,,,,,,,,,57.0,133.0,78.0,78.0,133.0,57.0,2.1,2.12,-202,-258,0,-260,164,268,350.8526232242584,350.8527297973633,350.8560552597046,350.8705384731293,351.00882267951965,351.00882267951965,351.00882267951965,351.00882267951965,351.00882267951965,351.00882267951965,351.00882267951965,352.8191804885864,3,1.9461429119110107,None,,,,,,,,,,,,,,,,,,114,2,2025-02-25_14h05.19.009,comp,2024.2.4,57.36726063145917,2025-02-25 14h05.28.215393 -0500,
138,138,0,filler_random,None,None,None,None,None,None,None,None,None,None,2,1.8369536399841309,None,,,,,0,0,0,0,0,138,138,160,352.8368146419525,,,,,,,,,,,,,,,,,,,,,,,,,,,,,,,,,,,,,,,,,,,,,,,,,,,,,,,,,,,,,,,,,,,,,,,,,,,,,,,,,96.87129349681675,159.69775973539637,195.5588324497617,188.7415187760657,103.39495922008145,126.85355451307771,4.0,4.2,-270,5,0,-287,254,-17,352.8208591938019,352.8209340572357,352.8237941265106,352.8368146419525,352.97976636886597,352.97976636886597,352.97976636886597,352.97976636886597,352.97976636886597,352.97976636886597,352.97976636886597,354.67918395996094,2,1.8369536399841309,None,,,,,,,,,,,,,,,,,,114,2,2025-02-25_14h05.19.009,comp,2024.2.4,57.36726063145917,2025-02-25 14h05.28.215393 -0500,
139,139,0,critical,hwd,20.0,2.1,upper,200.0,125.0,125.0,200.0,141.0,141.0,2,1.5420031547546387,None,,,,,0,0,0,0,0,139,139,43,354.6992735862732,,,,,,,,,,,,,,,,,,,,,,,,,,,,,,,,,,,,,,,,,,,,,,,,,,,,,,,,,,,,,,,,,,,,,,,,,,,,,,,,,200.0,125.0,125.0,200.0,141.0,141.0,2.1,2.11,-258,281,0,259,266,-251,354.6806447505951,354.6807441711426,354.68378138542175,354.6992735862732,354.8475477695465,354.8475477695465,354.8475477695465,354.8475477695465,354.8475477695465,354.8475477695465,354.8475477695465,356.24706411361694,2,1.5420031547546387,None,,,,,,,,,,,,,,,,,,114,2,2025-02-25_14h05.19.009,comp,2024.2.4,57.36726063145917,2025-02-25 14h05.28.215393 -0500,
