thisN,thisTrialN,thisRepN,effect,order,distance,config,diag,h_1,w_1,h_2,w_2,h_3,w_3,rect_choice.keys,rect_choice.rt,rect_choice.duration,instructions_loop.thisRepN,instructions_loop.thisTrialN,instructions_loop.thisN,instructions_loop.thisIndex,blocks.thisRepN,blocks.thisTrialN,blocks.thisN,blocks.thisIndex,trials.thisRepN,trials.thisTrialN,trials.thisN,trials.thisIndex,thisRow.t,notes,consent.started,agree_button.started,decline_button.started,consent_img.started,mouse.started,consent.stopped,agree_button.numClicks,agree_button.timesOn,agree_button.timesOff,decline_button.numClicks,decline_button.timesOn,decline_button.timesOff,mouse.x,mouse.y,mouse.leftButton,mouse.midButton,mouse.rightButton,mouse.time,mouse.clicked_name,exp_params.started,exp_params.stopped,welcome.started,welcome_text.started,welcome_text.stopped,welcome.stopped,instructions_1.started,instructions_1_text_1.started,instructions_1_text_2.started,key_resp.started,instructions_1.stopped,instructions_loop.key_resp.keys,instructions_loop.key_resp.rt,instructions_loop.key_resp.duration,instructions_2.started,instructions_2_text_1.started,instructions_2_text_2.started,key_resp_2.started,instructions_2.stopped,instructions_loop.key_resp_2.keys,instructions_loop.key_resp_2.rt,instructions_loop.key_resp_2.duration,instructions_3.started,instructions_3_text_1.started,r1_instr3.started,r2_instr3.started,r3_instr3.started,r1_instr3_label.started,r2_instr3_label.started,r3_instr3_label.started,instructions_3_text_3.started,instructions_3_text_4.started,key_resp_3.started,instructions_3.stopped,instructions_loop.key_resp_3.keys,instructions_loop.key_resp_3.rt,instructions_loop.key_resp_3.duration,instructions_4.started,instructions_4_text_1.started,instructions_4_text_3.started,instructions_4_text_2.started,key_resp_4.started,instructions_4.stopped,instructions_loop.key_resp_4.keys,instructions_loop.key_resp_4.rt,instructions_loop.key_resp_4.duration,instructions_5.started,instructions_5_text_1.started,instructions_5_text_2.started,key_resp_5.started,instructions_5.stopped,instructions_loop.key_resp_5.keys,instructions_loop.key_resp_5.rt,instructions_loop.key_resp_5.duration,start_exp.started,start_exp_text.started,key_resp_6.started,start_exp.stopped,key_resp_6.keys,key_resp_6.rt,key_resp_6.duration,h_1_tmp,w_1_tmp,h_2_tmp,w_2_tmp,h_3_tmp,w_3_tmp,config_tmp,config_tmp_1,r_1_x,r_1_y,r_2_x,r_2_y,r_3_x,r_3_y,pre_trial.started,pre_trial.stopped,choice_trial.started,rect_choice.started,r_1.started,r_2.started,r_3.started,r_1_label.started,r_2_label.started,r_3_label.started,prompt.started,choice_trial.stopped,trials.rect_choice.keys,trials.rect_choice.rt,trials.rect_choice.duration,end_block.started,end_block_text.started,end_block.stopped,end.started,end_text.started,key_resp_7.started,end.stopped,key_resp_7.keys,key_resp_7.rt,key_resp_7.duration,debriefing.started,debrief_form.started,end_debrief.started,debriefing.stopped,end_debrief.keys,end_debrief.rt,end_debrief.duration,participant,computer,date,expName,psychopyVersion,frameRate,expStart,
,,,,,,,,,,,,,,,,,,,,,,,,,,,,,,,0.015316963195800781,0.04167652130126953,0.04167652130126953,0.04167652130126953,0.014899015426635742,28.750040769577026,1,[28.707143545150757],[28.70715641975403],0,,,[-95.0],[-503.0],[1],[0],[0],[28.734179258346558],['agree_button'],,,,,,,,,,,,,,,,,,,,,,,,,,,,,,,,,,,,,,,,,,,,,,,,,,,,,,,,,,,,,,,,,,,,,,,,,,,,,,,,,,,,,,,,,,,,,,,,,,,,,,,,,,,,115,3,2025-02-25_14h05.29.902,comp,2024.2.4,59.9493740361128,2025-02-25 14h05.36.466913 -0500,
,,,,,,,,,,,,,,,,,,,,,,,,,,,,,,,,,,,,,,,,,,,,,,,,,,28.750314235687256,28.750348806381226,,,,,,,,,,,,,,,,,,,,,,,,,,,,,,,,,,,,,,,,,,,,,,,,,,,,,,,,,,,,,,,,,,,,,,,,,,,,,,,,,,,,,,,,,,,,,,,,,,,,,,,,,,115,3,2025-02-25_14h05.29.902,comp,2024.2.4,59.9493740361128,2025-02-25 14h05.36.466913 -0500,
,,,,,,,,,,,,,,,,,,,,,,,,,,,,,,,,,,,,,,,,,,,,,,,,,,,,28.750370979309082,28.763625383377075,30.764681100845337,30.747968912124634,,,,,,,,,,,,,,,,,,,,,,,,,,,,,,,,,,,,,,,,,,,,,,,,,,,,,,,,,,,,,,,,,,,,,,,,,,,,,,,,,,,,,,,,,,,,,,,,,,,,,,115,3,2025-02-25_14h05.29.902,comp,2024.2.4,59.9493740361128,2025-02-25 14h05.36.466913 -0500,
0,0,0,,,,,,,,,,,,,,,0,0,0,0,,,,,,,,,30.764681100845337,,,,,,,,,,,,,,,,,,,,,,,,,,,30.748494863510132,30.764681100845337,30.764681100845337,32.26454401016235,35.56593132019043,space,3.283616065979004,None,35.566009521484375,35.58145475387573,35.58145475387573,37.0813205242157,43.59909963607788,space,6.513581991195679,None,43.599180698394775,43.62019181251526,43.62019181251526,43.62019181251526,43.62019181251526,43.62019181251526,43.62019181251526,43.62019181251526,43.62019181251526,43.62019181251526,45.09822392463684,49.68280029296875,space,4.57584023475647,None,49.68288779258728,49.698474645614624,49.698474645614624,49.698474645614624,51.19785976409912,57.24887561798096,space,6.035404205322266,None,57.2489550113678,57.26452970504761,57.26452970504761,58.76437735557556,59.415442943573,space,0.6457717418670654,None,59.415552377700806,59.43121910095215,59.43121910095215,60.51516008377075,space,1.066633701324463,None,,,,,,,,,,,,,,,,,,,,,,,,,,,,,,,,,,,,,,,,,,,,,,,115,3,2025-02-25_14h05.29.902,comp,2024.2.4,59.9493740361128,2025-02-25 14h05.36.466913 -0500,
0,0,0,filler_random,None,None,None,None,None,None,None,None,None,None,3,2.434086799621582,None,,,,,0,0,0,0,0,0,0,149,60.575777769088745,,,,,,,,,,,,,,,,,,,,,,,,,,,,,,,,,,,,,,,,,,,,,,,,,,,,,,,,,,,,,,,,,,,,,,,,,,,,,,,,,,57.77101202284752,127.84309195403915,59.31586465575951,164.41993646726354,158.23207516389226,188.07019153762974,4.0,4.2,-242,-11,0,-278,272,16,60.5623664855957,60.56241416931152,60.564430952072144,60.575777769088745,60.72064971923828,60.72064971923828,60.72064971923828,60.72064971923828,60.72064971923828,60.72064971923828,60.72064971923828,63.015671730041504,3,2.434086799621582,None,,,,,,,,,,,,,,,,,,115,3,2025-02-25_14h05.29.902,comp,2024.2.4,59.9493740361128,2025-02-25 14h05.36.466913 -0500,
1,1,0,critical,whd,35.0,1.0,lower,57.0,133.0,133.0,57.0,70.0,70.0,2,9.321767807006836,None,,,,,0,0,0,0,0,1,1,84,63.03130769729614,,,,,,,,,,,,,,,,,,,,,,,,,,,,,,,,,,,,,,,,,,,,,,,,,,,,,,,,,,,,,,,,,,,,,,,,,,,,,,,,,,57.0,133.0,133.0,57.0,70.0,70.0,1.0,1.1,-671,282,-480,271,-320,257,63.01645040512085,63.01649284362793,63.018784523010254,63.03130769729614,63.18111276626587,63.18111276626587,63.18111276626587,63.18111276626587,63.18111276626587,63.18111276626587,63.18111276626587,72.36550521850586,2,9.321767807006836,None,,,,,,,,,,,,,,,,,,115,3,2025-02-25_14h05.29.902,comp,2024.2.4,59.9493740361128,2025-02-25 14h05.36.466913 -0500,
2,2,0,critical,whd,35.0,1.0,upper,125.0,200.0,200.0,125.0,127.0,127.0,2,3.3010518550872803,None,,,,,0,0,0,0,0,2,2,85,72.38086295127869,,,,,,,,,,,,,,,,,,,,,,,,,,,,,,,,,,,,,,,,,,,,,,,,,,,,,,,,,,,,,,,,,,,,,,,,,,,,,,,,,,125.0,200.0,200.0,125.0,127.0,127.0,1.0,1.2,-258,11,0,-10,222,-19,72.36629676818848,72.36633706092834,72.36949419975281,72.38086295127869,72.53161787986755,72.53161787986755,72.53161787986755,72.53161787986755,72.53161787986755,72.53161787986755,72.53161787986755,75.69905948638916,2,3.3010518550872803,None,,,,,,,,,,,,,,,,,,115,3,2025-02-25_14h05.29.902,comp,2024.2.4,59.9493740361128,2025-02-25 14h05.36.466913 -0500,
3,3,0,critical,hwd,35.0,1.0,lower,133.0,57.0,57.0,133.0,70.0,70.0,2,9.311547040939331,None,,,,,0,0,0,0,0,3,3,96,75.71428179740906,,,,,,,,,,,,,,,,,,,,,,,,,,,,,,,,,,,,,,,,,,,,,,,,,,,,,,,,,,,,,,,,,,,,,,,,,,,,,,,,,,133.0,57.0,57.0,133.0,70.0,70.0,1.0,1.1,-671,279,-480,251,-282,269,75.69989371299744,75.69993495941162,75.70239925384521,75.71428179740906,75.86434888839722,75.86434888839722,75.86434888839722,75.86434888839722,75.86434888839722,75.86434888839722,75.86434888839722,85.03208136558533,2,9.311547040939331,None,,,,,,,,,,,,,,,,,,115,3,2025-02-25_14h05.29.902,comp,2024.2.4,59.9493740361128,2025-02-25 14h05.36.466913 -0500,
4,4,0,critical,hwd,35.0,4.0,lower,133.0,57.0,57.0,133.0,70.0,70.0,2,7.785393714904785,None,,,,,0,0,0,0,0,4,4,100,85.04768538475037,,,,,,,,,,,,,,,,,,,,,,,,,,,,,,,,,,,,,,,,,,,,,,,,,,,,,,,,,,,,,,,,,,,,,,,,,,,,,,,,,,133.0,57.0,57.0,133.0,70.0,70.0,4.0,4.2,-191,6,0,-275,198,15,85.03285074234009,85.03289270401001,85.03533673286438,85.04768538475037,85.19753789901733,85.19753789901733,85.19753789901733,85.19753789901733,85.19753789901733,85.19753789901733,85.19753789901733,92.84866714477539,2,7.785393714904785,None,,,,,,,,,,,,,,,,,,115,3,2025-02-25_14h05.29.902,comp,2024.2.4,59.9493740361128,2025-02-25 14h05.36.466913 -0500,
5,5,0,critical,whd,35.0,4.0,upper,125.0,200.0,200.0,125.0,127.0,127.0,1,6.217533349990845,None,,,,,0,0,0,0,0,5,5,89,92.86403775215149,,,,,,,,,,,,,,,,,,,,,,,,,,,,,,,,,,,,,,,,,,,,,,,,,,,,,,,,,,,,,,,,,,,,,,,,,,,,,,,,,,125.0,200.0,200.0,125.0,127.0,127.0,4.0,4.2,-258,15,0,-254,222,3,92.84940719604492,92.84944605827332,92.8516960144043,92.86403775215149,93.01442456245422,93.01442456245422,93.01442456245422,93.01442456245422,93.01442456245422,93.01442456245422,93.01442456245422,99.09887623786926,1,6.217533349990845,None,,,,,,,,,,,,,,,,,,115,3,2025-02-25_14h05.29.902,comp,2024.2.4,59.9493740361128,2025-02-25 14h05.36.466913 -0500,
6,6,0,catch,None,None,None,None,None,None,None,None,None,None,3,2.359497308731079,None,,,,,0,0,0,0,0,6,6,128,99.11413359642029,,,,,,,,,,,,,,,,,,,,,,,,,,,,,,,,,,,,,,,,,,,,,,,,,,,,,,,,,,,,,,,,,,,,,,,,,,,,,,,,,,70,120,95,95,176,149,2.2,2.21,-204,-261,0,254,218,284,99.09994196891785,99.0999858379364,99.10239768028259,99.11413359642029,99.2642571926117,99.2642571926117,99.2642571926117,99.2642571926117,99.2642571926117,99.2642571926117,99.2642571926117,101.48205065727234,3,2.359497308731079,None,,,,,,,,,,,,,,,,,,115,3,2025-02-25_14h05.29.902,comp,2024.2.4,59.9493740361128,2025-02-25 14h05.36.466913 -0500,
7,7,0,critical,whd,20.0,3.0,lower,57.0,133.0,133.0,57.0,78.0,78.0,1,10.081430673599243,None,,,,,0,0,0,0,0,7,7,92,101.49770712852478,,,,,,,,,,,,,,,,,,,,,,,,,,,,,,,,,,,,,,,,,,,,,,,,,,,,,,,,,,,,,,,,,,,,,,,,,,,,,,,,,,57.0,133.0,133.0,57.0,78.0,78.0,3.0,3.2,-191,-273,0,-2,164,281,101.48288249969482,101.48292326927185,101.48550486564636,101.49770712852478,101.64747500419617,101.64747500419617,101.64747500419617,101.64747500419617,101.64747500419617,101.64747500419617,101.64747500419617,111.58237862586975,1,10.081430673599243,None,,,,,,,,,,,,,,,,,,115,3,2025-02-25_14h05.29.902,comp,2024.2.4,59.9493740361128,2025-02-25 14h05.36.466913 -0500,
8,8,0,critical,dhw,35.0,1.0,upper,127.0,127.0,200.0,125.0,125.0,200.0,3,4.965913772583008,None,,,,,0,0,0,0,0,8,8,49,111.59755373001099,,,,,,,,,,,,,,,,,,,,,,,,,,,,,,,,,,,,,,,,,,,,,,,,,,,,,,,,,,,,,,,,,,,,,,,,,,,,,,,,,,127.0,127.0,200.0,125.0,125.0,200.0,1.0,1.2,-222,15,0,-14,258,20,111.58313488960266,111.58317565917969,111.58527517318726,111.59755373001099,111.74769306182861,111.74769306182861,111.74769306182861,111.74769306182861,111.74769306182861,111.74769306182861,111.74769306182861,116.5656225681305,3,4.965913772583008,None,,,,,,,,,,,,,,,,,,115,3,2025-02-25_14h05.29.902,comp,2024.2.4,59.9493740361128,2025-02-25 14h05.36.466913 -0500,
9,9,0,filler_square,None,None,None,None,None,None,None,None,None,None,2,4.533586025238037,None,,,,,0,0,0,0,0,9,9,184,116.58099746704102,,,,,,,,,,,,,,,,,,,,,,,,,,,,,,,,,,,,,,,,,,,,,,,,,,,,,,,,,,,,,,,,,,,,,,,,,,,,,,,,,,159.25422185809867,120.16241840082282,163.53944514282483,163.53944514282483,87.45368809914714,112.27299856168437,2.1,2.12,-238,-259,0,-278,234,286,116.56656551361084,116.56662178039551,116.56889009475708,116.58099746704102,116.73087286949158,116.73087286949158,116.73087286949158,116.73087286949158,116.73087286949158,116.73087286949158,116.73087286949158,121.13199615478516,2,4.533586025238037,None,,,,,,,,,,,,,,,,,,115,3,2025-02-25_14h05.29.902,comp,2024.2.4,59.9493740361128,2025-02-25 14h05.36.466913 -0500,
10,10,0,filler_random,None,None,None,None,None,None,None,None,None,None,2,1.9581882953643799,None,,,,,0,0,0,0,0,10,10,164,121.1472384929657,,,,,,,,,,,,,,,,,,,,,,,,,,,,,,,,,,,,,,,,,,,,,,,,,,,,,,,,,,,,,,,,,,,,,,,,,,,,,,,,,,76.19864418810909,86.87574285426436,169.99596747776656,179.53615204377581,86.59788612578728,177.5611868429686,2.1,2.12,-229,-267,0,-284,275,266,121.13293242454529,121.13297533988953,121.1353714466095,121.1472384929657,121.2975127696991,121.2975127696991,121.2975127696991,121.2975127696991,121.2975127696991,121.2975127696991,121.2975127696991,123.11537337303162,2,1.9581882953643799,None,,,,,,,,,,,,,,,,,,115,3,2025-02-25_14h05.29.902,comp,2024.2.4,59.9493740361128,2025-02-25 14h05.36.466913 -0500,
11,11,0,filler_random,None,None,None,None,None,None,None,None,None,None,1,5.054527044296265,None,,,,,0,0,0,0,0,11,11,156,123.13080358505249,,,,,,,,,,,,,,,,,,,,,,,,,,,,,,,,,,,,,,,,,,,,,,,,,,,,,,,,,,,,,,,,,,,,,,,,,,,,,,,,,,154.4156621272462,104.49886153408853,167.17192702993884,96.38142552064215,90.86046431926181,72.08565116660618,4.0,4.2,-196,-2,0,-284,180,1,123.11624646186829,123.11628675460815,123.11832189559937,123.13080358505249,123.2808051109314,123.2808051109314,123.2808051109314,123.2808051109314,123.2808051109314,123.2808051109314,123.2808051109314,128.19850540161133,1,5.054527044296265,None,,,,,,,,,,,,,,,,,,115,3,2025-02-25_14h05.29.902,comp,2024.2.4,59.9493740361128,2025-02-25 14h05.36.466913 -0500,
12,12,0,critical,hdw,20.0,2.1,upper,200.0,125.0,141.0,141.0,125.0,200.0,3,5.643630504608154,None,,,,,0,0,0,0,0,12,12,23,128.21385192871094,,,,,,,,,,,,,,,,,,,,,,,,,,,,,,,,,,,,,,,,,,,,,,,,,,,,,,,,,,,,,,,,,,,,,,,,,,,,,,,,,,200.0,125.0,141.0,141.0,125.0,200.0,2.1,2.12,-229,-279,0,-263,266,282,128.1993145942688,128.19935417175293,128.2014217376709,128.21385192871094,128.36426377296448,128.36426377296448,128.36426377296448,128.36426377296448,128.36426377296448,128.36426377296448,128.36426377296448,133.86527013778687,3,5.643630504608154,None,,,,,,,,,,,,,,,,,,115,3,2025-02-25_14h05.29.902,comp,2024.2.4,59.9493740361128,2025-02-25 14h05.36.466913 -0500,
13,13,0,critical,hwd,35.0,1.0,upper,200.0,125.0,125.0,200.0,127.0,127.0,1,11.751968622207642,None,,,,,0,0,0,0,0,13,13,97,133.88075017929077,,,,,,,,,,,,,,,,,,,,,,,,,,,,,,,,,,,,,,,,,,,,,,,,,,,,,,,,,,,,,,,,,,,,,,,,,,,,,,,,,,200.0,125.0,125.0,200.0,127.0,127.0,1.0,1.2,-258,7,0,-1,260,9,133.8660638332367,133.86610627174377,133.86856961250305,133.88075017929077,134.03068828582764,134.03068828582764,134.03068828582764,134.03068828582764,134.03068828582764,134.03068828582764,134.03068828582764,145.64840579032898,1,11.751968622207642,None,,,,,,,,,,,,,,,,,,115,3,2025-02-25_14h05.29.902,comp,2024.2.4,59.9493740361128,2025-02-25 14h05.36.466913 -0500,
14,14,0,catch,None,None,None,None,None,None,None,None,None,None,3,2.5047833919525146,None,,,,,0,0,0,0,0,14,14,121,145.66374444961548,,,,,,,,,,,,,,,,,,,,,,,,,,,,,,,,,,,,,,,,,,,,,,,,,,,,,,,,,,,,,,,,,,,,,,,,,,,,,,,,,,76,114,105,85,169,156,3.0,3.1,-196,281,0,-4,216,-287,145.64947628974915,145.64951610565186,145.65161275863647,145.66374444961548,145.81400799751282,145.81400799751282,145.81400799751282,145.81400799751282,145.81400799751282,145.81400799751282,145.81400799751282,148.18175959587097,3,2.5047833919525146,None,,,,,,,,,,,,,,,,,,115,3,2025-02-25_14h05.29.902,comp,2024.2.4,59.9493740361128,2025-02-25 14h05.36.466913 -0500,
15,15,0,critical,whd,20.0,4.0,upper,125.0,200.0,200.0,125.0,141.0,141.0,1,3.371445894241333,None,,,,,0,0,0,0,0,15,15,95,148.1970489025116,,,,,,,,,,,,,,,,,,,,,,,,,,,,,,,,,,,,,,,,,,,,,,,,,,,,,,,,,,,,,,,,,,,,,,,,,,,,,,,,,,125.0,200.0,200.0,125.0,141.0,141.0,4.0,4.1,-258,-286,0,-19,229,-287,148.1825487613678,148.18260216712952,148.1849582195282,148.1970489025116,148.3473355770111,148.3473355770111,148.3473355770111,148.3473355770111,148.3473355770111,148.3473355770111,148.3473355770111,151.58187413215637,1,3.371445894241333,None,,,,,,,,,,,,,,,,,,115,3,2025-02-25_14h05.29.902,comp,2024.2.4,59.9493740361128,2025-02-25 14h05.36.466913 -0500,
16,16,0,filler_square,None,None,None,None,None,None,None,None,None,None,2,3.7004501819610596,None,,,,,0,0,0,0,0,16,16,207,151.59705352783203,,,,,,,,,,,,,,,,,,,,,,,,,,,,,,,,,,,,,,,,,,,,,,,,,,,,,,,,,,,,,,,,,,,,,,,,,,,,,,,,,,88.50458012230447,100.22757946426984,129.4706193880213,129.4706193880213,111.50978167637078,121.61450367945866,3.0,3.1,-211,289,0,10,222,-284,151.58280754089355,151.58284854888916,151.58518242835999,151.59705352783203,151.7473075389862,151.7473075389862,151.7473075389862,151.7473075389862,151.7473075389862,151.7473075389862,151.7473075389862,155.31497406959534,2,3.7004501819610596,None,,,,,,,,,,,,,,,,,,115,3,2025-02-25_14h05.29.902,comp,2024.2.4,59.9493740361128,2025-02-25 14h05.36.466913 -0500,
17,17,0,catch,None,None,None,None,None,None,None,None,None,None,3,1.791372537612915,None,,,,,0,0,0,0,0,17,17,129,155.3304796218872,,,,,,,,,,,,,,,,,,,,,,,,,,,,,,,,,,,,,,,,,,,,,,,,,,,,,,,,,,,,,,,,,,,,,,,,,,,,,,,,,,109,81,92,98,137,188,2.1,2.12,-186,-282,0,-283,239,263,155.31602597236633,155.3160674571991,155.31850957870483,155.3304796218872,155.48054909706116,155.48054909706116,155.48054909706116,155.48054909706116,155.48054909706116,155.48054909706116,155.48054909706116,157.1315996646881,3,1.791372537612915,None,,,,,,,,,,,,,,,,,,115,3,2025-02-25_14h05.29.902,comp,2024.2.4,59.9493740361128,2025-02-25 14h05.36.466913 -0500,
18,18,0,filler_square,None,None,None,None,None,None,None,None,None,None,1,6.215827941894531,None,,,,,0,0,0,0,0,18,18,173,157.14728999137878,,,,,,,,,,,,,,,,,,,,,,,,,,,,,,,,,,,,,,,,,,,,,,,,,,,,,,,,,,,,,,,,,,,,,,,,,,,,,,,,,,62.762938743224076,62.762938743224076,62.44426962245839,58.50560084353844,61.78602098755898,59.9322253082292,1.0,1.2,-157,5,0,-13,155,19,157.1325056552887,157.1325442790985,157.13469195365906,157.14728999137878,157.2970907688141,157.2970907688141,157.2970907688141,157.2970907688141,157.2970907688141,157.2970907688141,157.2970907688141,163.3814754486084,1,6.215827941894531,None,,,,,,,,,,,,,,,,,,115,3,2025-02-25_14h05.29.902,comp,2024.2.4,59.9493740361128,2025-02-25 14h05.36.466913 -0500,
19,19,0,critical,whd,20.0,2.1,upper,125.0,200.0,200.0,125.0,141.0,141.0,1,3.484107494354248,None,,,,,0,0,0,0,0,19,19,39,163.39696955680847,,,,,,,,,,,,,,,,,,,,,,,,,,,,,,,,,,,,,,,,,,,,,,,,,,,,,,,,,,,,,,,,,,,,,,,,,,,,,,,,,,125.0,200.0,200.0,125.0,141.0,141.0,2.1,2.11,-258,286,0,264,229,-273,163.38227462768555,163.3823139667511,163.38429880142212,163.39696955680847,163.54719424247742,163.54719424247742,163.54719424247742,163.54719424247742,163.54719424247742,163.54719424247742,163.54719424247742,166.89846873283386,1,3.484107494354248,None,,,,,,,,,,,,,,,,,,115,3,2025-02-25_14h05.29.902,comp,2024.2.4,59.9493740361128,2025-02-25 14h05.36.466913 -0500,
20,20,0,catch,None,None,None,None,None,None,None,None,None,None,3,1.7436707019805908,None,,,,,0,0,0,0,0,20,20,120,166.9136345386505,,,,,,,,,,,,,,,,,,,,,,,,,,,,,,,,,,,,,,,,,,,,,,,,,,,,,,,,,,,,,,,,,,,,,,,,,,,,,,,,,,96,94,96,94,169,156,4.0,4.2,-190,18,0,-262,221,3,166.89951944351196,166.899560213089,166.90210580825806,166.9136345386505,167.06379508972168,167.06379508972168,167.06379508972168,167.06379508972168,167.06379508972168,167.06379508972168,167.06379508972168,168.66489171981812,3,1.7436707019805908,None,,,,,,,,,,,,,,,,,,115,3,2025-02-25_14h05.29.902,comp,2024.2.4,59.9493740361128,2025-02-25 14h05.36.466913 -0500,
21,21,0,filler_square,None,None,None,None,None,None,None,None,None,None,3,2.192636728286743,None,,,,,0,0,0,0,0,21,21,187,168.68055415153503,,,,,,,,,,,,,,,,,,,,,,,,,,,,,,,,,,,,,,,,,,,,,,,,,,,,,,,,,,,,,,,,,,,,,,,,,,,,,,,,,,74.96582991618149,66.90303725476527,57.496493591845415,59.61622836608631,82.79963910048306,82.79963910048306,2.2,2.21,-159,-276,0,274,167,262,168.66584849357605,168.66588950157166,168.66824054718018,168.68055415153503,168.8304398059845,168.8304398059845,168.8304398059845,168.8304398059845,168.8304398059845,168.8304398059845,168.8304398059845,170.88142728805542,3,2.192636728286743,None,,,,,,,,,,,,,,,,,,115,3,2025-02-25_14h05.29.902,comp,2024.2.4,59.9493740361128,2025-02-25 14h05.36.466913 -0500,
22,22,0,filler_square,None,None,None,None,None,None,None,None,None,None,3,2.487936496734619,None,,,,,0,0,0,0,0,22,22,203,170.8971598148346,,,,,,,,,,,,,,,,,,,,,,,,,,,,,,,,,,,,,,,,,,,,,,,,,,,,,,,,,,,,,,,,,,,,,,,,,,,,,,,,,,84.18278608712379,89.82971220258582,76.09071094363298,104.09699208305076,110.7770323233502,110.7770323233502,2.2,2.21,-193,-276,0,279,203,274,170.88238763809204,170.88242936134338,170.88505864143372,170.8971598148346,171.04705357551575,171.04705357551575,171.04705357551575,171.04705357551575,171.04705357551575,171.04705357551575,171.04705357551575,173.3982207775116,3,2.487936496734619,None,,,,,,,,,,,,,,,,,,115,3,2025-02-25_14h05.29.902,comp,2024.2.4,59.9493740361128,2025-02-25 14h05.36.466913 -0500,
23,23,0,critical,dwh,35.0,2.1,upper,127.0,127.0,125.0,200.0,200.0,125.0,2,3.76480770111084,None,,,,,0,0,0,0,0,23,23,5,173.41359162330627,,,,,,,,,,,,,,,,,,,,,,,,,,,,,,,,,,,,,,,,,,,,,,,,,,,,,,,,,,,,,,,,,,,,,,,,,,,,,,,,,,127.0,127.0,125.0,200.0,200.0,125.0,2.1,2.11,-260,251,0,280,258,-265,173.39904117584229,173.39908242225647,173.40155172348022,173.41359162330627,173.5638632774353,173.5638632774353,173.5638632774353,173.5638632774353,173.5638632774353,173.5638632774353,173.5638632774353,177.18181920051575,2,3.76480770111084,None,,,,,,,,,,,,,,,,,,115,3,2025-02-25_14h05.29.902,comp,2024.2.4,59.9493740361128,2025-02-25 14h05.36.466913 -0500,
24,24,0,critical,dwh,35.0,4.0,upper,127.0,127.0,125.0,200.0,200.0,125.0,2,4.435272932052612,None,,,,,0,0,0,0,0,24,24,65,177.19717931747437,,,,,,,,,,,,,,,,,,,,,,,,,,,,,,,,,,,,,,,,,,,,,,,,,,,,,,,,,,,,,,,,,,,,,,,,,,,,,,,,,,127.0,127.0,125.0,200.0,200.0,125.0,4.0,4.2,-260,9,0,-280,258,-19,177.1825830936432,177.18262600898743,177.18474340438843,177.19717931747437,177.34726548194885,177.34726548194885,177.34726548194885,177.34726548194885,177.34726548194885,177.34726548194885,177.34726548194885,181.64835023880005,2,4.435272932052612,None,,,,,,,,,,,,,,,,,,115,3,2025-02-25_14h05.29.902,comp,2024.2.4,59.9493740361128,2025-02-25 14h05.36.466913 -0500,
25,25,0,catch,None,None,None,None,None,None,None,None,None,None,1,1.9774510860443115,None,,,,,0,0,0,0,0,25,25,125,181.6636393070221,,,,,,,,,,,,,,,,,,,,,,,,,,,,,,,,,,,,,,,,,,,,,,,,,,,,,,,,,,,,,,,,,,,,,,,,,,,,,,,,,,194,131,72,118,82,108,2.1,2.11,-220,261,0,265,209,-270,181.64940571784973,181.6494481563568,181.65198135375977,181.6636393070221,181.8137605190277,181.8137605190277,181.8137605190277,181.8137605190277,181.8137605190277,181.8137605190277,181.8137605190277,183.6482012271881,1,1.9774510860443115,None,,,,,,,,,,,,,,,,,,115,3,2025-02-25_14h05.29.902,comp,2024.2.4,59.9493740361128,2025-02-25 14h05.36.466913 -0500,
26,26,0,catch,None,None,None,None,None,None,None,None,None,None,3,1.9299609661102295,None,,,,,0,0,0,0,0,26,26,126,183.6637728214264,,,,,,,,,,,,,,,,,,,,,,,,,,,,,,,,,,,,,,,,,,,,,,,,,,,,,,,,,,,,,,,,,,,,,,,,,,,,,,,,,,63,127,126,64,144,181,3.0,3.1,-192,273,0,-9,218,-283,183.6492383480072,183.64928030967712,183.65186715126038,183.6637728214264,183.81364035606384,183.81364035606384,183.81364035606384,183.81364035606384,183.81364035606384,183.81364035606384,183.81364035606384,185.59818243980408,3,1.9299609661102295,None,,,,,,,,,,,,,,,,,,115,3,2025-02-25_14h05.29.902,comp,2024.2.4,59.9493740361128,2025-02-25 14h05.36.466913 -0500,
27,27,0,filler_random,None,None,None,None,None,None,None,None,None,None,2,2.379876136779785,None,,,,,0,0,0,0,0,27,27,158,185.61378717422485,,,,,,,,,,,,,,,,,,,,,,,,,,,,,,,,,,,,,,,,,,,,,,,,,,,,,,,,,,,,,,,,,,,,,,,,,,,,,,,,,,185.84710437920123,114.9504712829843,138.4201057175856,165.04336424246003,67.43985197354998,133.5760489333637,3.0,3.2,-236,-250,0,-12,245,266,185.59914231300354,185.5991837978363,185.60129570960999,185.61378717422485,185.7637836933136,185.7637836933136,185.7637836933136,185.7637836933136,185.7637836933136,185.7637836933136,185.7637836933136,187.9982614517212,2,2.379876136779785,None,,,,,,,,,,,,,,,,,,115,3,2025-02-25_14h05.29.902,comp,2024.2.4,59.9493740361128,2025-02-25 14h05.36.466913 -0500,
28,28,0,critical,dwh,20.0,3.0,lower,78.0,78.0,57.0,133.0,133.0,57.0,2,7.859560966491699,None,,,,,0,0,0,0,0,28,28,68,188.01373195648193,,,,,,,,,,,,,,,,,,,,,,,,,,,,,,,,,,,,,,,,,,,,,,,,,,,,,,,,,,,,,,,,,,,,,,,,,,,,,,,,,,78.0,78.0,57.0,133.0,133.0,57.0,3.0,3.2,-202,-275,0,13,191,252,187.9990587234497,187.99909830093384,188.00168800354004,188.01373195648193,188.1636519432068,188.1636519432068,188.1636519432068,188.1636519432068,188.1636519432068,188.1636519432068,188.1636519432068,195.881338596344,2,7.859560966491699,None,,,,,,,,,,,,,,,,,,115,3,2025-02-25_14h05.29.902,comp,2024.2.4,59.9493740361128,2025-02-25 14h05.36.466913 -0500,
29,29,0,critical,whd,20.0,1.0,upper,125.0,200.0,200.0,125.0,141.0,141.0,1,6.624379396438599,None,,,,,0,0,0,0,0,29,29,91,195.8969852924347,,,,,,,,,,,,,,,,,,,,,,,,,,,,,,,,,,,,,,,,,,,,,,,,,,,,,,,,,,,,,,,,,,,,,,,,,,,,,,,,,,125.0,200.0,200.0,125.0,141.0,141.0,1.0,1.3,222,-268,480,-276,709,-275,195.88215684890747,195.88219809532166,195.88483834266663,195.8969852924347,196.04701924324036,196.04701924324036,196.04701924324036,196.04701924324036,196.04701924324036,196.04701924324036,196.04701924324036,202.53156542778015,1,6.624379396438599,None,,,,,,,,,,,,,,,,,,115,3,2025-02-25_14h05.29.902,comp,2024.2.4,59.9493740361128,2025-02-25 14h05.36.466913 -0500,
30,30,0,filler_square,None,None,None,None,None,None,None,None,None,None,1,1.61598801612854,None,,,,,0,0,0,0,0,30,30,170,202.54702758789062,,,,,,,,,,,,,,,,,,,,,,,,,,,,,,,,,,,,,,,,,,,,,,,,,,,,,,,,,,,,,,,,,,,,,,,,,,,,,,,,,,124.0302573075749,124.0302573075749,92.11155671650945,94.41864143818236,89.96504327694669,100.64847988365918,3.0,3.1,-205,279,0,-8,194,-259,202.53253412246704,202.53258967399597,202.53469491004944,202.54702758789062,202.69676113128662,202.69676113128662,202.69676113128662,202.69676113128662,202.69676113128662,202.69676113128662,202.69676113128662,204.16492199897766,1,1.61598801612854,None,,,,,,,,,,,,,,,,,,115,3,2025-02-25_14h05.29.902,comp,2024.2.4,59.9493740361128,2025-02-25 14h05.36.466913 -0500,
31,31,0,critical,dwh,35.0,3.0,lower,70.0,70.0,57.0,133.0,133.0,57.0,2,6.733264684677124,None,,,,,0,0,0,0,0,31,31,62,204.18029284477234,,,,,,,,,,,,,,,,,,,,,,,,,,,,,,,,,,,,,,,,,,,,,,,,,,,,,,,,,,,,,,,,,,,,,,,,,,,,,,,,,,70.0,70.0,57.0,133.0,133.0,57.0,3.0,3.2,-198,-280,0,-7,191,276,204.1656997203827,204.16574001312256,204.16784167289734,204.18029284477234,204.33024787902832,204.33024787902832,204.33024787902832,204.33024787902832,204.33024787902832,204.33024787902832,204.33024787902832,210.93120956420898,2,6.733264684677124,None,,,,,,,,,,,,,,,,,,115,3,2025-02-25_14h05.29.902,comp,2024.2.4,59.9493740361128,2025-02-25 14h05.36.466913 -0500,
32,32,0,filler_square,None,None,None,None,None,None,None,None,None,None,3,1.967235803604126,None,,,,,0,0,0,0,0,32,32,177,210.94663500785828,,,,,,,,,,,,,,,,,,,,,,,,,,,,,,,,,,,,,,,,,,,,,,,,,,,,,,,,,,,,,,,,,,,,,,,,,,,,,,,,,,166.2007360388772,137.94459603126427,61.73377425929992,158.15447525642125,181.9553768643101,181.9553768643101,1.0,1.1,-724,268,-480,288,-214,265,210.93219375610352,210.93223595619202,210.93478512763977,210.94663500785828,211.09700727462769,211.09700727462769,211.09700727462769,211.09700727462769,211.09700727462769,211.09700727462769,211.09700727462769,212.93145108222961,3,1.967235803604126,None,,,,,,,,,,,,,,,,,,115,3,2025-02-25_14h05.29.902,comp,2024.2.4,59.9493740361128,2025-02-25 14h05.36.466913 -0500,
33,33,0,filler_square,None,None,None,None,None,None,None,None,None,None,3,1.910341739654541,None,,,,,0,0,0,0,0,33,33,186,212.94660639762878,,,,,,,,,,,,,,,,,,,,,,,,,,,,,,,,,,,,,,,,,,,,,,,,,,,,,,,,,,,,,,,,,,,,,,,,,,,,,,,,,,96.46719677505297,69.86148272805005,111.1847373784606,72.39226372666361,114.57778545210887,114.57778545210887,2.1,2.12,-167,-255,0,-290,189,269,212.9324266910553,212.93246841430664,212.93475532531738,212.94660639762878,213.09668564796448,213.09668564796448,213.09668564796448,213.09668564796448,213.09668564796448,213.09668564796448,213.09668564796448,214.8644847869873,3,1.910341739654541,None,,,,,,,,,,,,,,,,,,115,3,2025-02-25_14h05.29.902,comp,2024.2.4,59.9493740361128,2025-02-25 14h05.36.466913 -0500,
34,34,0,filler_random,None,None,None,None,None,None,None,None,None,None,3,1.5767560005187988,None,,,,,0,0,0,0,0,34,34,141,214.88021302223206,,,,,,,,,,,,,,,,,,,,,,,,,,,,,,,,,,,,,,,,,,,,,,,,,,,,,,,,,,,,,,,,,,,,,,,,,,,,,,,,,,93.84983990354996,198.4466123553441,97.07523417590409,67.73332486343377,199.105258992923,196.0620649865735,2.2,2.21,-229,-281,0,282,228,285,214.86539793014526,214.86543893814087,214.86772561073303,214.88021302223206,215.03030347824097,215.03030347824097,215.03030347824097,215.03030347824097,215.03030347824097,215.03030347824097,215.03030347824097,216.4647147655487,3,1.5767560005187988,None,,,,,,,,,,,,,,,,,,115,3,2025-02-25_14h05.29.902,comp,2024.2.4,59.9493740361128,2025-02-25 14h05.36.466913 -0500,
35,35,0,filler_square,None,None,None,None,None,None,None,None,None,None,2,1.850184679031372,None,,,,,0,0,0,0,0,35,35,188,216.48026299476624,,,,,,,,,,,,,,,,,,,,,,,,,,,,,,,,,,,,,,,,,,,,,,,,,,,,,,,,,,,,,,,,,,,,,,,,,,,,,,,,,,59.95775310775179,101.20483069689959,147.27019290195767,147.27019290195767,60.41128084117665,115.63756615903822,4.0,4.2,-220,-5,0,-278,227,18,216.46568202972412,216.46572351455688,216.46781826019287,216.48026299476624,216.63008499145508,216.63008499145508,216.63008499145508,216.63008499145508,216.63008499145508,216.63008499145508,216.63008499145508,218.34784150123596,2,1.850184679031372,None,,,,,,,,,,,,,,,,,,115,3,2025-02-25_14h05.29.902,comp,2024.2.4,59.9493740361128,2025-02-25 14h05.36.466913 -0500,
36,36,0,filler_square,None,None,None,None,None,None,None,None,None,None,2,1.9339373111724854,None,,,,,0,0,0,0,0,36,36,183,218.3632025718689,,,,,,,,,,,,,,,,,,,,,,,,,,,,,,,,,,,,,,,,,,,,,,,,,,,,,,,,,,,,,,,,,,,,,,,,,,,,,,,,,,65.51698051776798,60.61381900329968,75.84372523499533,75.84372523499533,65.73369991915798,58.85458246625176,2.2,2.21,-164,-257,0,287,163,283,218.34884786605835,218.34888911247253,218.35129761695862,218.3632025718689,218.5133397579193,218.5133397579193,218.5133397579193,218.5133397579193,218.5133397579193,218.5133397579193,218.5133397579193,220.31438541412354,2,1.9339373111724854,None,,,,,,,,,,,,,,,,,,115,3,2025-02-25_14h05.29.902,comp,2024.2.4,59.9493740361128,2025-02-25 14h05.36.466913 -0500,
37,37,0,critical,dhw,20.0,1.0,upper,141.0,141.0,200.0,125.0,125.0,200.0,3,3.400420904159546,None,,,,,0,0,0,0,0,37,37,55,220.3299560546875,,,,,,,,,,,,,,,,,,,,,,,,,,,,,,,,,,,,,,,,,,,,,,,,,,,,,,,,,,,,,,,,,,,,,,,,,,,,,,,,,,141.0,141.0,200.0,125.0,125.0,200.0,1.0,1.2,-229,3,0,-15,258,15,220.31516027450562,220.3152015209198,220.31779289245605,220.3299560546875,220.48018836975098,220.48018836975098,220.48018836975098,220.48018836975098,220.48018836975098,220.48018836975098,220.48018836975098,223.73154735565186,3,3.400420904159546,None,,,,,,,,,,,,,,,,,,115,3,2025-02-25_14h05.29.902,comp,2024.2.4,59.9493740361128,2025-02-25 14h05.36.466913 -0500,
38,38,0,critical,dhw,35.0,2.1,lower,70.0,70.0,133.0,57.0,57.0,133.0,3,3.9667415618896484,None,,,,,0,0,0,0,0,38,38,24,223.74685835838318,,,,,,,,,,,,,,,,,,,,,,,,,,,,,,,,,,,,,,,,,,,,,,,,,,,,,,,,,,,,,,,,,,,,,,,,,,,,,,,,,,70.0,70.0,133.0,57.0,57.0,133.0,2.1,2.11,-160,258,0,271,191,-276,223.7323076725006,223.73234939575195,223.73484230041504,223.74685835838318,223.89660668373108,223.89660668373108,223.89660668373108,223.89660668373108,223.89660668373108,223.89660668373108,223.89660668373108,227.73108553886414,3,3.9667415618896484,None,,,,,,,,,,,,,,,,,,115,3,2025-02-25_14h05.29.902,comp,2024.2.4,59.9493740361128,2025-02-25 14h05.36.466913 -0500,
39,39,0,filler_square,None,None,None,None,None,None,None,None,None,None,1,1.0623254776000977,None,,,,,0,0,0,0,0,39,39,175,227.74645566940308,,,,,,,,,,,,,,,,,,,,,,,,,,,,,,,,,,,,,,,,,,,,,,,,,,,,,,,,,,,,,,,,,,,,,,,,,,,,,,,,,,107.3157219506297,107.3157219506297,58.10472306879214,94.69139434438188,62.3510670022617,60.91201165525095,1.0,1.1,-677,285,-480,267,-306,269,227.7320544719696,227.73209500312805,227.73454785346985,227.74645566940308,227.89662384986877,227.89662384986877,227.89662384986877,227.89662384986877,227.89662384986877,227.89662384986877,227.89662384986877,228.81436848640442,1,1.0623254776000977,None,,,,,,,,,,,,,,,,,,115,3,2025-02-25_14h05.29.902,comp,2024.2.4,59.9493740361128,2025-02-25 14h05.36.466913 -0500,
40,40,0,critical,hdw,35.0,1.0,upper,200.0,125.0,127.0,127.0,125.0,200.0,1,1.185725212097168,None,,,,,0,0,0,0,0,40,40,109,228.83030486106873,,,,,,,,,,,,,,,,,,,,,,,,,,,,,,,,,,,,,,,,,,,,,,,,,,,,,,,,,,,,,,,,,,,,,,,,,,,,,,,,,,200.0,125.0,127.0,127.0,125.0,200.0,1.0,1.1,-702,275,-480,263,-220,267,228.8151774406433,228.81521725654602,228.81867814064026,228.83030486106873,228.98010063171387,228.98010063171387,228.98010063171387,228.98010063171387,228.98010063171387,228.98010063171387,228.98010063171387,230.03124570846558,1,1.185725212097168,None,,,,,,,,,,,,,,,,,,115,3,2025-02-25_14h05.29.902,comp,2024.2.4,59.9493740361128,2025-02-25 14h05.36.466913 -0500,
41,41,0,critical,dwh,20.0,2.1,upper,141.0,141.0,125.0,200.0,200.0,125.0,2,6.362287998199463,None,,,,,0,0,0,0,0,41,41,31,230.04650354385376,,,,,,,,,,,,,,,,,,,,,,,,,,,,,,,,,,,,,,,,,,,,,,,,,,,,,,,,,,,,,,,,,,,,,,,,,,,,,,,,,,141.0,141.0,125.0,200.0,200.0,125.0,2.1,2.11,-266,270,0,273,258,-289,230.03201842308044,230.03205823898315,230.03451895713806,230.04650354385376,230.19677734375,230.19677734375,230.19677734375,230.19677734375,230.19677734375,230.19677734375,230.19677734375,236.41456747055054,2,6.362287998199463,None,,,,,,,,,,,,,,,,,,115,3,2025-02-25_14h05.29.902,comp,2024.2.4,59.9493740361128,2025-02-25 14h05.36.466913 -0500,
42,42,0,filler_random,None,None,None,None,None,None,None,None,None,None,1,1.6018922328948975,None,,,,,0,0,0,0,0,42,42,132,236.43016028404236,,,,,,,,,,,,,,,,,,,,,,,,,,,,,,,,,,,,,,,,,,,,,,,,,,,,,,,,,,,,,,,,,,,,,,,,,,,,,,,,,,186.53209780904237,184.67487691706265,164.92210278132313,171.4582029710447,66.8296808791384,182.85378567430269,2.1,2.11,-274,260,0,251,273,-274,236.41545963287354,236.41550159454346,236.41774606704712,236.43016028404236,236.5802538394928,236.5802538394928,236.5802538394928,236.5802538394928,236.5802538394928,236.5802538394928,236.5802538394928,238.04788279533386,1,1.6018922328948975,None,,,,,,,,,,,,,,,,,,115,3,2025-02-25_14h05.29.902,comp,2024.2.4,59.9493740361128,2025-02-25 14h05.36.466913 -0500,
43,43,0,filler_square,None,None,None,None,None,None,None,None,None,None,1,1.2007358074188232,None,,,,,0,0,0,0,0,43,43,174,238.0631444454193,,,,,,,,,,,,,,,,,,,,,,,,,,,,,,,,,,,,,,,,,,,,,,,,,,,,,,,,,,,,,,,,,,,,,,,,,,,,,,,,,,148.15532279777014,148.15532279777014,107.45747658324603,67.8986786921165,96.41057616335328,116.32999937374069,1.0,1.3,276,-267,480,-264,668,-260,238.04883694648743,238.04887795448303,238.051274061203,238.0631444454193,238.21322894096375,238.21322894096375,238.21322894096375,238.21322894096375,238.21322894096375,238.21322894096375,238.21322894096375,239.28094816207886,1,1.2007358074188232,None,,,,,,,,,,,,,,,,,,115,3,2025-02-25_14h05.29.902,comp,2024.2.4,59.9493740361128,2025-02-25 14h05.36.466913 -0500,
44,44,0,critical,hdw,35.0,4.0,upper,200.0,125.0,127.0,127.0,125.0,200.0,1,5.344311952590942,None,,,,,0,0,0,0,0,44,44,113,239.29638385772705,,,,,,,,,,,,,,,,,,,,,,,,,,,,,,,,,,,,,,,,,,,,,,,,,,,,,,,,,,,,,,,,,,,,,,,,,,,,,,,,,,200.0,125.0,127.0,127.0,125.0,200.0,4.0,4.2,-222,3,0,-261,260,7,239.28175497055054,239.28179454803467,239.28424835205078,239.29638385772705,239.44681000709534,239.44681000709534,239.44681000709534,239.44681000709534,239.44681000709534,239.44681000709534,239.44681000709534,244.6478841304779,1,5.344311952590942,None,,,,,,,,,,,,,,,,,,115,3,2025-02-25_14h05.29.902,comp,2024.2.4,59.9493740361128,2025-02-25 14h05.36.466913 -0500,
45,45,0,critical,dwh,35.0,2.1,lower,70.0,70.0,57.0,133.0,133.0,57.0,2,3.1772892475128174,None,,,,,0,0,0,0,0,45,45,28,244.66335821151733,,,,,,,,,,,,,,,,,,,,,,,,,,,,,,,,,,,,,,,,,,,,,,,,,,,,,,,,,,,,,,,,,,,,,,,,,,,,,,,,,,70.0,70.0,57.0,133.0,133.0,57.0,2.1,2.12,-198,-259,0,-267,191,256,244.64870071411133,244.64874386787415,244.65085816383362,244.66335821151733,244.81323146820068,244.81323146820068,244.81323146820068,244.81323146820068,244.81323146820068,244.81323146820068,244.81323146820068,247.84763646125793,2,3.1772892475128174,None,,,,,,,,,,,,,,,,,,115,3,2025-02-25_14h05.29.902,comp,2024.2.4,59.9493740361128,2025-02-25 14h05.36.466913 -0500,
46,46,0,critical,wdh,35.0,3.0,lower,57.0,133.0,70.0,70.0,133.0,57.0,2,5.177361488342285,None,,,,,0,0,0,0,0,46,46,74,247.86325120925903,,,,,,,,,,,,,,,,,,,,,,,,,,,,,,,,,,,,,,,,,,,,,,,,,,,,,,,,,,,,,,,,,,,,,,,,,,,,,,,,,,57.0,133.0,70.0,70.0,133.0,57.0,3.0,3.1,-198,254,0,16,160,-252,247.84844207763672,247.84848403930664,247.85062050819397,247.86325120925903,248.0131962299347,248.0131962299347,248.0131962299347,248.0131962299347,248.0131962299347,248.0131962299347,248.0131962299347,253.04762411117554,2,5.177361488342285,None,,,,,,,,,,,,,,,,,,115,3,2025-02-25_14h05.29.902,comp,2024.2.4,59.9493740361128,2025-02-25 14h05.36.466913 -0500,
47,47,0,filler_random,None,None,None,None,None,None,None,None,None,None,1,3.8885414600372314,None,,,,,0,0,0,0,0,47,47,152,253.06329226493835,,,,,,,,,,,,,,,,,,,,,,,,,,,,,,,,,,,,,,,,,,,,,,,,,,,,,,,,,,,,,,,,,,,,,,,,,,,,,,,,,,191.1179651301457,89.64035744613928,148.15418317393653,128.42847815832513,78.52145050276334,154.55415605591534,2.1,2.12,-205,-259,0,-250,237,289,253.04852104187012,253.04856276512146,253.05091667175293,253.06329226493835,253.21317672729492,253.21317672729492,253.21317672729492,253.21317672729492,253.21317672729492,253.21317672729492,253.21317672729492,256.96445655822754,1,3.8885414600372314,None,,,,,,,,,,,,,,,,,,115,3,2025-02-25_14h05.29.902,comp,2024.2.4,59.9493740361128,2025-02-25 14h05.36.466913 -0500,
48,48,0,critical,dwh,20.0,2.1,lower,78.0,78.0,57.0,133.0,133.0,57.0,3,3.5666677951812744,None,,,,,0,0,0,0,0,48,48,6,256.97968101501465,,,,,,,,,,,,,,,,,,,,,,,,,,,,,,,,,,,,,,,,,,,,,,,,,,,,,,,,,,,,,,,,,,,,,,,,,,,,,,,,,,78.0,78.0,57.0,133.0,133.0,57.0,2.1,2.12,-202,-253,0,-267,191,271,256.9652259349823,256.96526646614075,256.9684069156647,256.97968101501465,257.1299159526825,257.1299159526825,257.1299159526825,257.1299159526825,257.1299159526825,257.1299159526825,257.1299159526825,260.5477921962738,3,3.5666677951812744,None,,,,,,,,,,,,,,,,,,115,3,2025-02-25_14h05.29.902,comp,2024.2.4,59.9493740361128,2025-02-25 14h05.36.466913 -0500,
49,49,0,critical,whd,35.0,3.0,lower,57.0,133.0,133.0,57.0,70.0,70.0,1,3.8304455280303955,None,,,,,0,0,0,0,0,49,49,86,260.56325507164,,,,,,,,,,,,,,,,,,,,,,,,,,,,,,,,,,,,,,,,,,,,,,,,,,,,,,,,,,,,,,,,,,,,,,,,,,,,,,,,,,57.0,133.0,133.0,57.0,70.0,70.0,3.0,3.1,-191,276,0,8,160,-278,260.54854702949524,260.54860043525696,260.5508646965027,260.56325507164,260.71305799484253,260.71305799484253,260.71305799484253,260.71305799484253,260.71305799484253,260.71305799484253,260.71305799484253,264.3976125717163,1,3.8304455280303955,None,,,,,,,,,,,,,,,,,,115,3,2025-02-25_14h05.29.902,comp,2024.2.4,59.9493740361128,2025-02-25 14h05.36.466913 -0500,
50,50,0,critical,dwh,35.0,2.1,upper,127.0,127.0,125.0,200.0,200.0,125.0,2,4.043484687805176,None,,,,,0,0,0,0,0,50,50,29,264.41311049461365,,,,,,,,,,,,,,,,,,,,,,,,,,,,,,,,,,,,,,,,,,,,,,,,,,,,,,,,,,,,,,,,,,,,,,,,,,,,,,,,,,127.0,127.0,125.0,200.0,200.0,125.0,2.1,2.12,-260,-269,0,-271,258,289,264.39838337898254,264.3984236717224,264.4007234573364,264.41311049461365,264.5632300376892,264.5632300376892,264.5632300376892,264.5632300376892,264.5632300376892,264.5632300376892,264.5632300376892,268.4643602371216,2,4.043484687805176,None,,,,,,,,,,,,,,,,,,115,3,2025-02-25_14h05.29.902,comp,2024.2.4,59.9493740361128,2025-02-25 14h05.36.466913 -0500,
51,51,0,critical,dwh,20.0,2.1,lower,78.0,78.0,57.0,133.0,133.0,57.0,2,7.583835601806641,None,,,,,0,0,0,0,0,51,51,30,268.4798879623413,,,,,,,,,,,,,,,,,,,,,,,,,,,,,,,,,,,,,,,,,,,,,,,,,,,,,,,,,,,,,,,,,,,,,,,,,,,,,,,,,,78.0,78.0,57.0,133.0,133.0,57.0,2.1,2.11,-202,262,0,282,191,-268,268.465190410614,268.465234041214,268.46774792671204,268.4798879623413,268.62970209121704,268.62970209121704,268.62970209121704,268.62970209121704,268.62970209121704,268.62970209121704,268.62970209121704,276.0809144973755,2,7.583835601806641,None,,,,,,,,,,,,,,,,,,115,3,2025-02-25_14h05.29.902,comp,2024.2.4,59.9493740361128,2025-02-25 14h05.36.466913 -0500,
52,52,0,filler_random,None,None,None,None,None,None,None,None,None,None,1,1.1356208324432373,None,,,,,0,0,0,0,0,52,52,154,276.0962224006653,,,,,,,,,,,,,,,,,,,,,,,,,,,,,,,,,,,,,,,,,,,,,,,,,,,,,,,,,,,,,,,,,,,,,,,,,,,,,,,,,,175.6892808807526,172.52333232859684,60.48724386638878,184.81434622803786,179.9396506585557,120.09821961658673,2.2,2.21,-275,-287,0,253,248,287,276.08181285858154,276.08185362815857,276.0843040943146,276.0962224006653,276.2464599609375,276.2464599609375,276.2464599609375,276.2464599609375,276.2464599609375,276.2464599609375,276.2464599609375,277.2476279735565,1,1.1356208324432373,None,,,,,,,,,,,,,,,,,,115,3,2025-02-25_14h05.29.902,comp,2024.2.4,59.9493740361128,2025-02-25 14h05.36.466913 -0500,
53,53,0,critical,hwd,20.0,2.1,upper,200.0,125.0,125.0,200.0,141.0,141.0,1,2.7775790691375732,None,,,,,0,0,0,0,0,53,53,43,277.26283979415894,,,,,,,,,,,,,,,,,,,,,,,,,,,,,,,,,,,,,,,,,,,,,,,,,,,,,,,,,,,,,,,,,,,,,,,,,,,,,,,,,,200.0,125.0,125.0,200.0,141.0,141.0,2.1,2.11,-258,253,0,265,266,-254,277.24839997291565,277.2484402656555,277.25049328804016,277.26283979415894,277.4132237434387,277.4132237434387,277.4132237434387,277.4132237434387,277.4132237434387,277.4132237434387,277.4132237434387,280.0476677417755,1,2.7775790691375732,None,,,,,,,,,,,,,,,,,,115,3,2025-02-25_14h05.29.902,comp,2024.2.4,59.9493740361128,2025-02-25 14h05.36.466913 -0500,
54,54,0,critical,hwd,20.0,2.1,lower,133.0,57.0,57.0,133.0,78.0,78.0,2,12.601629257202148,None,,,,,0,0,0,0,0,54,54,42,280.0632064342499,,,,,,,,,,,,,,,,,,,,,,,,,,,,,,,,,,,,,,,,,,,,,,,,,,,,,,,,,,,,,,,,,,,,,,,,,,,,,,,,,,133.0,57.0,57.0,133.0,78.0,78.0,2.1,2.12,-191,-290,0,-258,202,270,280.0484631061554,280.04850482940674,280.0506455898285,280.0632064342499,280.21293807029724,280.21293807029724,280.21293807029724,280.21293807029724,280.21293807029724,280.21293807029724,280.21293807029724,292.68068504333496,2,12.601629257202148,None,,,,,,,,,,,,,,,,,,115,3,2025-02-25_14h05.29.902,comp,2024.2.4,59.9493740361128,2025-02-25 14h05.36.466913 -0500,
55,55,0,filler_random,None,None,None,None,None,None,None,None,None,None,2,1.8171684741973877,None,,,,,0,0,0,0,0,55,55,165,292.69613337516785,,,,,,,,,,,,,,,,,,,,,,,,,,,,,,,,,,,,,,,,,,,,,,,,,,,,,,,,,,,,,,,,,,,,,,,,,,,,,,,,,,153.45064169535604,79.79328749304203,176.99172592697414,137.98320483415353,125.46437605653705,124.02822037062239,4.0,4.1,-205,-265,0,-19,227,-282,292.68158173561096,292.6816244125366,292.68402123451233,292.69613337516785,292.8463761806488,292.8463761806488,292.8463761806488,292.8463761806488,292.8463761806488,292.8463761806488,292.8463761806488,294.53084421157837,2,1.8171684741973877,None,,,,,,,,,,,,,,,,,,115,3,2025-02-25_14h05.29.902,comp,2024.2.4,59.9493740361128,2025-02-25 14h05.36.466913 -0500,
56,56,0,critical,dhw,20.0,3.0,lower,78.0,78.0,133.0,57.0,57.0,133.0,3,5.269738435745239,None,,,,,0,0,0,0,0,56,56,56,294.54598689079285,,,,,,,,,,,,,,,,,,,,,,,,,,,,,,,,,,,,,,,,,,,,,,,,,,,,,,,,,,,,,,,,,,,,,,,,,,,,,,,,,,78.0,78.0,133.0,57.0,57.0,133.0,3.0,3.1,-164,268,0,8,191,-253,294.5316152572632,294.53165578842163,294.533988237381,294.54598689079285,294.69618344306946,294.69618344306946,294.69618344306946,294.69618344306946,294.69618344306946,294.69618344306946,294.69618344306946,299.8308005332947,3,5.269738435745239,None,,,,,,,,,,,,,,,,,,115,3,2025-02-25_14h05.29.902,comp,2024.2.4,59.9493740361128,2025-02-25 14h05.36.466913 -0500,
57,57,0,filler_random,None,None,None,None,None,None,None,None,None,None,2,1.274660348892212,None,,,,,0,0,0,0,0,57,57,150,299.84603476524353,,,,,,,,,,,,,,,,,,,,,,,,,,,,,,,,,,,,,,,,,,,,,,,,,,,,,,,,,,,,,,,,,,,,,,,,,,,,,,,,,,143.5092402940345,57.60311627978283,133.92664368922718,157.76168047689157,57.66198912221845,77.54458579657987,4.0,4.1,-204,-280,0,-9,214,-259,299.8316867351532,299.8317277431488,299.8340690135956,299.84603476524353,299.9962627887726,299.9962627887726,299.9962627887726,299.9962627887726,299.9962627887726,299.9962627887726,299.9962627887726,301.13071846961975,2,1.274660348892212,None,,,,,,,,,,,,,,,,,,115,3,2025-02-25_14h05.29.902,comp,2024.2.4,59.9493740361128,2025-02-25 14h05.36.466913 -0500,
58,58,0,critical,whd,20.0,3.0,upper,125.0,200.0,200.0,125.0,141.0,141.0,2,4.0619056224823,None,,,,,0,0,0,0,0,58,58,93,301.14638471603394,,,,,,,,,,,,,,,,,,,,,,,,,,,,,,,,,,,,,,,,,,,,,,,,,,,,,,,,,,,,,,,,,,,,,,,,,,,,,,,,,,125.0,200.0,200.0,125.0,141.0,141.0,3.0,3.1,-258,271,0,-1,229,-256,301.1315064430237,301.1315486431122,301.1338155269623,301.14638471603394,301.29633951187134,301.29633951187134,301.29633951187134,301.29633951187134,301.29633951187134,301.29633951187134,301.29633951187134,305.2141511440277,2,4.0619056224823,None,,,,,,,,,,,,,,,,,,115,3,2025-02-25_14h05.29.902,comp,2024.2.4,59.9493740361128,2025-02-25 14h05.36.466913 -0500,
59,59,0,filler_random,None,None,None,None,None,None,None,None,None,None,3,1.8585608005523682,None,,,,,0,0,0,0,0,59,59,166,305.2296462059021,,,,,,,,,,,,,,,,,,,,,,,,,,,,,,,,,,,,,,,,,,,,,,,,,,,,,,,,,,,,,,,,,,,,,,,,,,,,,,,,,,96.45794806133134,116.08476976616194,107.41405223627498,130.5005382197936,165.30347159528327,110.02114936072918,2.2,2.22,-219,286,0,-260,216,-279,305.21508049964905,305.21512269973755,305.2175455093384,305.2296462059021,305.37962794303894,305.37962794303894,305.37962794303894,305.37962794303894,305.37962794303894,305.37962794303894,305.37962794303894,307.09730863571167,3,1.8585608005523682,None,,,,,,,,,,,,,,,,,,115,3,2025-02-25_14h05.29.902,comp,2024.2.4,59.9493740361128,2025-02-25 14h05.36.466913 -0500,
60,60,0,critical,hdw,35.0,3.0,upper,200.0,125.0,127.0,127.0,125.0,200.0,3,5.33445143699646,None,,,,,0,0,0,0,0,60,60,111,307.1129915714264,,,,,,,,,,,,,,,,,,,,,,,,,,,,,,,,,,,,,,,,,,,,,,,,,,,,,,,,,,,,,,,,,,,,,,,,,,,,,,,,,,200.0,125.0,127.0,127.0,125.0,200.0,3.0,3.2,-222,-265,0,9,260,274,307.09812474250793,307.09816575050354,307.1006212234497,307.1129915714264,307.262992143631,307.262992143631,307.262992143631,307.262992143631,307.262992143631,307.262992143631,307.262992143631,312.46409273147583,3,5.33445143699646,None,,,,,,,,,,,,,,,,,,115,3,2025-02-25_14h05.29.902,comp,2024.2.4,59.9493740361128,2025-02-25 14h05.36.466913 -0500,
61,61,0,critical,wdh,35.0,3.0,upper,125.0,200.0,127.0,127.0,200.0,125.0,1,2.482579231262207,None,,,,,0,0,0,0,0,61,61,75,312.4793846607208,,,,,,,,,,,,,,,,,,,,,,,,,,,,,,,,,,,,,,,,,,,,,,,,,,,,,,,,,,,,,,,,,,,,,,,,,,,,,,,,,,125.0,200.0,127.0,127.0,200.0,125.0,3.0,3.1,-260,268,0,10,222,-251,312.46491289138794,312.4649541378021,312.4674026966095,312.4793846607208,312.6296546459198,312.6296546459198,312.6296546459198,312.6296546459198,312.6296546459198,312.6296546459198,312.6296546459198,314.9642143249512,1,2.482579231262207,None,,,,,,,,,,,,,,,,,,115,3,2025-02-25_14h05.29.902,comp,2024.2.4,59.9493740361128,2025-02-25 14h05.36.466913 -0500,
62,62,0,critical,hwd,35.0,2.1,lower,133.0,57.0,57.0,133.0,70.0,70.0,2,7.382129192352295,None,,,,,0,0,0,0,0,62,62,16,314.97963070869446,,,,,,,,,,,,,,,,,,,,,,,,,,,,,,,,,,,,,,,,,,,,,,,,,,,,,,,,,,,,,,,,,,,,,,,,,,,,,,,,,,133.0,57.0,57.0,133.0,70.0,70.0,2.1,2.11,-191,267,0,254,198,-278,314.96502161026,314.9650619029999,314.9674253463745,314.97963070869446,315.1294159889221,315.1294159889221,315.1294159889221,315.1294159889221,315.1294159889221,315.1294159889221,315.1294159889221,322.3638732433319,2,7.382129192352295,None,,,,,,,,,,,,,,,,,,115,3,2025-02-25_14h05.29.902,comp,2024.2.4,59.9493740361128,2025-02-25 14h05.36.466913 -0500,
63,63,0,catch,None,None,None,None,None,None,None,None,None,None,2,1.292790412902832,None,,,,,0,0,0,0,0,63,63,123,322.37943935394287,,,,,,,,,,,,,,,,,,,,,,,,,,,,,,,,,,,,,,,,,,,,,,,,,,,,,,,,,,,,,,,,,,,,,,,,,,,,,,,,,,121,69,139,186,119,71,2.1,2.11,-224,257,0,290,224,-265,322.3649890422821,322.36502838134766,322.3674602508545,322.37943935394287,322.52939200401306,322.52939200401306,322.52939200401306,322.52939200401306,322.52939200401306,322.52939200401306,322.52939200401306,323.6805398464203,2,1.292790412902832,None,,,,,,,,,,,,,,,,,,115,3,2025-02-25_14h05.29.902,comp,2024.2.4,59.9493740361128,2025-02-25 14h05.36.466913 -0500,
64,64,0,critical,hdw,20.0,2.1,lower,133.0,57.0,78.0,78.0,57.0,133.0,3,5.696398973464966,None,,,,,0,0,0,0,0,64,64,22,323.69612193107605,,,,,,,,,,,,,,,,,,,,,,,,,,,,,,,,,,,,,,,,,,,,,,,,,,,,,,,,,,,,,,,,,,,,,,,,,,,,,,,,,,133.0,57.0,78.0,78.0,57.0,133.0,2.1,2.12,-164,-270,0,-280,202,276,323.6813151836395,323.68135619163513,323.6835587024689,323.69612193107605,323.84595823287964,323.84595823287964,323.84595823287964,323.84595823287964,323.84595823287964,323.84595823287964,323.84595823287964,329.3973512649536,3,5.696398973464966,None,,,,,,,,,,,,,,,,,,115,3,2025-02-25_14h05.29.902,comp,2024.2.4,59.9493740361128,2025-02-25 14h05.36.466913 -0500,
65,65,0,critical,whd,35.0,2.1,upper,125.0,200.0,200.0,125.0,127.0,127.0,2,4.116835355758667,None,,,,,0,0,0,0,0,65,65,37,329.4127748012543,,,,,,,,,,,,,,,,,,,,,,,,,,,,,,,,,,,,,,,,,,,,,,,,,,,,,,,,,,,,,,,,,,,,,,,,,,,,,,,,,,125.0,200.0,200.0,125.0,127.0,127.0,2.1,2.11,-258,257,0,259,222,-252,329.39817810058594,329.3982267379761,329.4002776145935,329.4127748012543,329.56283378601074,329.56283378601074,329.56283378601074,329.56283378601074,329.56283378601074,329.56283378601074,329.56283378601074,333.53090739250183,2,4.116835355758667,None,,,,,,,,,,,,,,,,,,115,3,2025-02-25_14h05.29.902,comp,2024.2.4,59.9493740361128,2025-02-25 14h05.36.466913 -0500,
66,66,0,filler_random,None,None,None,None,None,None,None,None,None,None,1,6.815497636795044,None,,,,,0,0,0,0,0,66,66,157,333.54615330696106,,,,,,,,,,,,,,,,,,,,,,,,,,,,,,,,,,,,,,,,,,,,,,,,,,,,,,,,,,,,,,,,,,,,,,,,,,,,,,,,,,140.66127777393842,85.4499468619616,109.49934132146566,98.5184387242078,160.6314937043857,69.35546058052228,3.0,3.1,-188,257,0,-4,180,-284,333.5317940711975,333.5318350791931,333.53393387794495,333.54615330696106,333.69597339630127,333.69597339630127,333.69597339630127,333.69597339630127,333.69597339630127,333.69597339630127,333.69597339630127,340.363835811615,1,6.815497636795044,None,,,,,,,,,,,,,,,,,,115,3,2025-02-25_14h05.29.902,comp,2024.2.4,59.9493740361128,2025-02-25 14h05.36.466913 -0500,
67,67,0,filler_square,None,None,None,None,None,None,None,None,None,None,2,2.7878966331481934,None,,,,,0,0,0,0,0,67,67,192,340.37930560112,,,,,,,,,,,,,,,,,,,,,,,,,,,,,,,,,,,,,,,,,,,,,,,,,,,,,,,,,,,,,,,,,,,,,,,,,,,,,,,,,,152.35408261874204,184.30327884984797,189.97481783312946,189.97481783312946,106.47208483304098,173.52762106516715,1.0,1.3,197,-255,480,-256,758,-288,340.36480045318604,340.36484360694885,340.36697030067444,340.37930560112,340.5294692516327,340.5294692516327,340.5294692516327,340.5294692516327,340.5294692516327,340.5294692516327,340.5294692516327,343.18060517311096,2,2.7878966331481934,None,,,,,,,,,,,,,,,,,,115,3,2025-02-25_14h05.29.902,comp,2024.2.4,59.9493740361128,2025-02-25 14h05.36.466913 -0500,
68,68,0,filler_square,None,None,None,None,None,None,None,None,None,None,3,1.6354591846466064,None,,,,,0,0,0,0,0,68,68,204,343.19588923454285,,,,,,,,,,,,,,,,,,,,,,,,,,,,,,,,,,,,,,,,,,,,,,,,,,,,,,,,,,,,,,,,,,,,,,,,,,,,,,,,,,97.60887408102863,96.87164195683678,139.01374959966137,97.7489050159779,159.30321175033865,159.30321175033865,1.0,1.3,287,-256,480,-285,705,-270,343.18154859542847,343.18160581588745,343.1849012374878,343.19588923454285,343.34593987464905,343.34593987464905,343.34593987464905,343.34593987464905,343.34593987464905,343.34593987464905,343.34593987464905,344.84709191322327,3,1.6354591846466064,None,,,,,,,,,,,,,,,,,,115,3,2025-02-25_14h05.29.902,comp,2024.2.4,59.9493740361128,2025-02-25 14h05.36.466913 -0500,
69,69,0,critical,hwd,35.0,2.1,upper,200.0,125.0,125.0,200.0,127.0,127.0,1,4.067142486572266,None,,,,,0,0,0,0,0,69,69,17,344.86236548423767,,,,,,,,,,,,,,,,,,,,,,,,,,,,,,,,,,,,,,,,,,,,,,,,,,,,,,,,,,,,,,,,,,,,,,,,,,,,,,,,,,200.0,125.0,125.0,200.0,127.0,127.0,2.1,2.12,-258,-276,0,-285,260,286,344.8478786945343,344.84792017936707,344.8503465652466,344.86236548423767,345.01277327537537,345.01277327537537,345.01277327537537,345.01277327537537,345.01277327537537,345.01277327537537,345.01277327537537,348.9471261501312,1,4.067142486572266,None,,,,,,,,,,,,,,,,,,115,3,2025-02-25_14h05.29.902,comp,2024.2.4,59.9493740361128,2025-02-25 14h05.36.466913 -0500,
70,70,0,critical,hwd,35.0,2.1,upper,200.0,125.0,125.0,200.0,127.0,127.0,1,3.8615739345550537,None,,,,,0,0,0,0,0,70,70,41,348.96241641044617,,,,,,,,,,,,,,,,,,,,,,,,,,,,,,,,,,,,,,,,,,,,,,,,,,,,,,,,,,,,,,,,,,,,,,,,,,,,,,,,,,200.0,125.0,125.0,200.0,127.0,127.0,2.1,2.12,-258,-265,0,-262,260,265,348.94790172576904,348.94794154167175,348.95042061805725,348.96241641044617,349.11266589164734,349.11266589164734,349.11266589164734,349.11266589164734,349.11266589164734,349.11266589164734,349.11266589164734,352.83064007759094,1,3.8615739345550537,None,,,,,,,,,,,,,,,,,,115,3,2025-02-25_14h05.29.902,comp,2024.2.4,59.9493740361128,2025-02-25 14h05.36.466913 -0500,
71,71,0,critical,wdh,20.0,3.0,lower,57.0,133.0,78.0,78.0,133.0,57.0,1,8.63361120223999,None,,,,,0,0,0,0,0,71,71,80,352.8459324836731,,,,,,,,,,,,,,,,,,,,,,,,,,,,,,,,,,,,,,,,,,,,,,,,,,,,,,,,,,,,,,,,,,,,,,,,,,,,,,,,,,57.0,133.0,78.0,78.0,133.0,57.0,3.0,3.1,-202,279,0,20,164,-256,352.83143377304077,352.8314743041992,352.8337981700897,352.8459324836731,352.9957318305969,352.9957318305969,352.9957318305969,352.9957318305969,352.9957318305969,352.9957318305969,352.9957318305969,361.49683475494385,1,8.63361120223999,None,,,,,,,,,,,,,,,,,,115,3,2025-02-25_14h05.29.902,comp,2024.2.4,59.9493740361128,2025-02-25 14h05.36.466913 -0500,
72,72,0,filler_random,None,None,None,None,None,None,None,None,None,None,3,1.7595503330230713,None,,,,,0,0,0,0,0,72,72,131,361.5123302936554,,,,,,,,,,,,,,,,,,,,,,,,,,,,,,,,,,,,,,,,,,,,,,,,,,,,,,,,,,,,,,,,,,,,,,,,,,,,,,,,,,94.5813195014951,159.17692971146607,186.15838349510986,102.65220027308419,165.93174209299355,117.43521940902576,4.0,4.2,-227,-4,0,-279,206,13,361.49773478507996,361.497775554657,361.5002613067627,361.5123302936554,361.6627097129822,361.6627097129822,361.6627097129822,361.6627097129822,361.6627097129822,361.6627097129822,361.6627097129822,363.28026700019836,3,1.7595503330230713,None,,,,,,,,,,,,,,,,,,115,3,2025-02-25_14h05.29.902,comp,2024.2.4,59.9493740361128,2025-02-25 14h05.36.466913 -0500,
73,73,0,critical,hwd,20.0,4.0,lower,133.0,57.0,57.0,133.0,78.0,78.0,2,3.624366044998169,None,,,,,0,0,0,0,0,73,73,106,363.29582476615906,,,,,,,,,,,,,,,,,,,,,,,,,,,,,,,,,,,,,,,,,,,,,,,,,,,,,,,,,,,,,,,,,,,,,,,,,,,,,,,,,,133.0,57.0,57.0,133.0,78.0,78.0,4.0,4.1,-191,-257,0,6,202,-251,363.28104877471924,363.2810904979706,363.28364157676697,363.29582476615906,363.445680141449,363.445680141449,363.445680141449,363.445680141449,363.445680141449,363.445680141449,363.445680141449,366.9301311969757,2,3.624366044998169,None,,,,,,,,,,,,,,,,,,115,3,2025-02-25_14h05.29.902,comp,2024.2.4,59.9493740361128,2025-02-25 14h05.36.466913 -0500,
74,74,0,critical,dhw,20.0,2.1,lower,78.0,78.0,133.0,57.0,57.0,133.0,3,3.237788438796997,None,,,,,0,0,0,0,0,74,74,2,366.9459307193756,,,,,,,,,,,,,,,,,,,,,,,,,,,,,,,,,,,,,,,,,,,,,,,,,,,,,,,,,,,,,,,,,,,,,,,,,,,,,,,,,,78.0,78.0,133.0,57.0,57.0,133.0,2.1,2.11,-164,277,0,265,191,-274,366.93095541000366,366.93099784851074,366.9336009025574,366.9459307193756,367.095666885376,367.095666885376,367.095666885376,367.095666885376,367.095666885376,367.095666885376,367.095666885376,370.196861743927,3,3.237788438796997,None,,,,,,,,,,,,,,,,,,115,3,2025-02-25_14h05.29.902,comp,2024.2.4,59.9493740361128,2025-02-25 14h05.36.466913 -0500,
75,75,0,critical,dwh,35.0,1.0,lower,70.0,70.0,57.0,133.0,133.0,57.0,2,2.3956120014190674,None,,,,,0,0,0,0,0,75,75,60,370.21219539642334,,,,,,,,,,,,,,,,,,,,,,,,,,,,,,,,,,,,,,,,,,,,,,,,,,,,,,,,,,,,,,,,,,,,,,,,,,,,,,,,,,70.0,70.0,57.0,133.0,133.0,57.0,1.0,1.1,-678,271,-480,278,-289,266,370.1976070404053,370.1976466178894,370.19997358322144,370.21219539642334,370.3622856140137,370.3622856140137,370.3622856140137,370.3622856140137,370.3622856140137,370.3622856140137,370.3622856140137,372.6135003566742,2,2.3956120014190674,None,,,,,,,,,,,,,,,,,,115,3,2025-02-25_14h05.29.902,comp,2024.2.4,59.9493740361128,2025-02-25 14h05.36.466913 -0500,
76,76,0,filler_random,None,None,None,None,None,None,None,None,None,None,3,2.4508068561553955,None,,,,,0,0,0,0,0,76,76,169,372.6290509700775,,,,,,,,,,,,,,,,,,,,,,,,,,,,,,,,,,,,,,,,,,,,,,,,,,,,,,,,,,,,,,,,,,,,,,,,,,,,,,,,,,156.36915395058315,80.99653545521393,109.01865247092681,95.46924411617452,146.19091225782176,117.08687185988815,1.0,1.3,296,-255,480,-279,682,-274,372.61438965797424,372.6144309043884,372.61673521995544,372.6290509700775,372.7793550491333,372.7793550491333,372.7793550491333,372.7793550491333,372.7793550491333,372.7793550491333,372.7793550491333,375.09691286087036,3,2.4508068561553955,None,,,,,,,,,,,,,,,,,,115,3,2025-02-25_14h05.29.902,comp,2024.2.4,59.9493740361128,2025-02-25 14h05.36.466913 -0500,
77,77,0,filler_square,None,None,None,None,None,None,None,None,None,None,1,1.134699821472168,None,,,,,0,0,0,0,0,77,77,179,375.11234164237976,,,,,,,,,,,,,,,,,,,,,,,,,,,,,,,,,,,,,,,,,,,,,,,,,,,,,,,,,,,,,,,,,,,,,,,,,,,,,,,,,,148.89911191067756,148.89911191067756,94.43702469096854,84.15189574279685,94.71273826796929,140.5414258563423,4.0,4.2,-213,9,0,-277,208,8,375.09788608551025,375.09792709350586,375.10041403770447,375.11234164237976,375.2624020576477,375.2624020576477,375.2624020576477,375.2624020576477,375.2624020576477,375.2624020576477,375.2624020576477,376.2634973526001,1,1.134699821472168,None,,,,,,,,,,,,,,,,,,115,3,2025-02-25_14h05.29.902,comp,2024.2.4,59.9493740361128,2025-02-25 14h05.36.466913 -0500,
78,78,0,catch,None,None,None,None,None,None,None,None,None,None,2,1.2249562740325928,None,,,,,0,0,0,0,0,78,78,122,376.2789771556854,,,,,,,,,,,,,,,,,,,,,,,,,,,,,,,,,,,,,,,,,,,,,,,,,,,,,,,,,,,,,,,,,,,,,,,,,,,,,,,,,,112,78,193,132,86,104,3.0,3.1,-201,288,0,-16,214,-253,376.26455640792847,376.2646198272705,376.2667372226715,376.2789771556854,376.42903566360474,376.42903566360474,376.42903566360474,376.42903566360474,376.42903566360474,376.42903566360474,376.42903566360474,377.51353120803833,2,1.2249562740325928,None,,,,,,,,,,,,,,,,,,115,3,2025-02-25_14h05.29.902,comp,2024.2.4,59.9493740361128,2025-02-25 14h05.36.466913 -0500,
79,79,0,critical,whd,35.0,2.1,upper,125.0,200.0,200.0,125.0,127.0,127.0,1,3.8949241638183594,None,,,,,0,0,0,0,0,79,79,13,377.5290105342865,,,,,,,,,,,,,,,,,,,,,,,,,,,,,,,,,,,,,,,,,,,,,,,,,,,,,,,,,,,,,,,,,,,,,,,,,,,,,,,,,,125.0,200.0,200.0,125.0,127.0,127.0,2.1,2.12,-258,-253,0,-270,222,253,377.51431250572205,377.51435565948486,377.5166885852814,377.5290105342865,377.6791250705719,377.6791250705719,377.6791250705719,377.6791250705719,377.6791250705719,377.6791250705719,377.6791250705719,381.4302980899811,1,3.8949241638183594,None,,,,,,,,,,,,,,,,,,115,3,2025-02-25_14h05.29.902,comp,2024.2.4,59.9493740361128,2025-02-25 14h05.36.466913 -0500,
80,80,0,critical,dhw,20.0,2.1,upper,141.0,141.0,200.0,125.0,125.0,200.0,3,4.601188898086548,None,,,,,0,0,0,0,0,80,80,3,381.445729970932,,,,,,,,,,,,,,,,,,,,,,,,,,,,,,,,,,,,,,,,,,,,,,,,,,,,,,,,,,,,,,,,,,,,,,,,,,,,,,,,,,141.0,141.0,200.0,125.0,125.0,200.0,2.1,2.12,-229,-276,0,-266,258,258,381.4310715198517,381.431113243103,381.43356585502625,381.445729970932,381.59588956832886,381.59588956832886,381.59588956832886,381.59588956832886,381.59588956832886,381.59588956832886,381.59588956832886,386.063618183136,3,4.601188898086548,None,,,,,,,,,,,,,,,,,,115,3,2025-02-25_14h05.29.902,comp,2024.2.4,59.9493740361128,2025-02-25 14h05.36.466913 -0500,
81,81,0,filler_square,None,None,None,None,None,None,None,None,None,None,1,2.9287798404693604,None,,,,,0,0,0,0,0,81,81,199,386.078910112381,,,,,,,,,,,,,,,,,,,,,,,,,,,,,,,,,,,,,,,,,,,,,,,,,,,,,,,,,,,,,,,,,,,,,,,,,,,,,,,,,,151.45769525258154,151.45769525258154,141.1079348368403,123.4354044190839,59.693445565550576,65.08730469119843,4.0,4.1,-233,-264,0,13,190,-254,386.06455636024475,386.0646138191223,386.0667448043823,386.078910112381,386.2290606498718,386.2290606498718,386.2290606498718,386.2290606498718,386.2290606498718,386.2290606498718,386.2290606498718,389.01355624198914,1,2.9287798404693604,None,,,,,,,,,,,,,,,,,,115,3,2025-02-25_14h05.29.902,comp,2024.2.4,59.9493740361128,2025-02-25 14h05.36.466913 -0500,
82,82,0,critical,wdh,20.0,3.0,upper,125.0,200.0,141.0,141.0,200.0,125.0,1,3.9946937561035156,None,,,,,0,0,0,0,0,82,82,81,389.02902150154114,,,,,,,,,,,,,,,,,,,,,,,,,,,,,,,,,,,,,,,,,,,,,,,,,,,,,,,,,,,,,,,,,,,,,,,,,,,,,,,,,,125.0,200.0,141.0,141.0,200.0,125.0,3.0,3.2,-266,-285,0,-7,229,264,389.0143668651581,389.0144073963165,389.0166368484497,389.02902150154114,389.1790714263916,389.1790714263916,389.1790714263916,389.1790714263916,389.1790714263916,389.1790714263916,389.1790714263916,393.0301740169525,1,3.9946937561035156,None,,,,,,,,,,,,,,,,,,115,3,2025-02-25_14h05.29.902,comp,2024.2.4,59.9493740361128,2025-02-25 14h05.36.466913 -0500,
83,83,0,filler_random,None,None,None,None,None,None,None,None,None,None,1,2.017299175262451,None,,,,,0,0,0,0,0,83,83,144,393.0456943511963,,,,,,,,,,,,,,,,,,,,,,,,,,,,,,,,,,,,,,,,,,,,,,,,,,,,,,,,,,,,,,,,,,,,,,,,,,,,,,,,,,139.61195616626452,187.2777268272867,67.79856649567938,143.6906586423943,87.16568522776767,101.2427838719416,3.0,3.2,-261,-253,0,3,218,257,393.03109097480774,393.0311324596405,393.03362703323364,393.0456943511963,393.1956660747528,393.1956660747528,393.1956660747528,393.1956660747528,393.1956660747528,393.1956660747528,393.1956660747528,395.0803689956665,1,2.017299175262451,None,,,,,,,,,,,,,,,,,,115,3,2025-02-25_14h05.29.902,comp,2024.2.4,59.9493740361128,2025-02-25 14h05.36.466913 -0500,
84,84,0,filler_square,None,None,None,None,None,None,None,None,None,None,2,6.36734676361084,None,,,,,0,0,0,0,0,84,84,200,395.095486164093,,,,,,,,,,,,,,,,,,,,,,,,,,,,,,,,,,,,,,,,,,,,,,,,,,,,,,,,,,,,,,,,,,,,,,,,,,,,,,,,,,65.21484498830365,69.2802154079443,128.01354682186394,128.01354682186394,57.63666108572956,120.22039747765598,2.1,2.12,-195,-261,0,-284,220,262,395.0813763141632,395.08141708374023,395.08393812179565,395.095486164093,395.2456169128418,395.2456169128418,395.2456169128418,395.2456169128418,395.2456169128418,395.2456169128418,395.2456169128418,401.4798381328583,2,6.36734676361084,None,,,,,,,,,,,,,,,,,,115,3,2025-02-25_14h05.29.902,comp,2024.2.4,59.9493740361128,2025-02-25 14h05.36.466913 -0500,
85,85,0,critical,wdh,20.0,2.1,lower,57.0,133.0,78.0,78.0,133.0,57.0,3,7.776332139968872,None,,,,,0,0,0,0,0,85,85,34,401.4953100681305,,,,,,,,,,,,,,,,,,,,,,,,,,,,,,,,,,,,,,,,,,,,,,,,,,,,,,,,,,,,,,,,,,,,,,,,,,,,,,,,,,57.0,133.0,78.0,78.0,133.0,57.0,2.1,2.12,-202,-254,0,-259,164,258,401.48063611984253,401.48067569732666,401.4830768108368,401.4953100681305,401.64553213119507,401.64553213119507,401.64553213119507,401.64553213119507,401.64553213119507,401.64553213119507,401.64553213119507,409.2797737121582,3,7.776332139968872,None,,,,,,,,,,,,,,,,,,115,3,2025-02-25_14h05.29.902,comp,2024.2.4,59.9493740361128,2025-02-25 14h05.36.466913 -0500,
86,86,0,critical,dhw,35.0,4.0,lower,70.0,70.0,133.0,57.0,57.0,133.0,3,2.455148458480835,None,,,,,0,0,0,0,0,86,86,52,409.2955675125122,,,,,,,,,,,,,,,,,,,,,,,,,,,,,,,,,,,,,,,,,,,,,,,,,,,,,,,,,,,,,,,,,,,,,,,,,,,,,,,,,,70.0,70.0,133.0,57.0,57.0,133.0,4.0,4.2,-160,13,0,-260,191,14,409.2805595397949,409.2806134223938,409.2829394340515,409.2955675125122,409.44538402557373,409.44538402557373,409.44538402557373,409.44538402557373,409.44538402557373,409.44538402557373,409.44538402557373,411.7634017467499,3,2.455148458480835,None,,,,,,,,,,,,,,,,,,115,3,2025-02-25_14h05.29.902,comp,2024.2.4,59.9493740361128,2025-02-25 14h05.36.466913 -0500,
87,87,0,critical,dhw,20.0,3.0,upper,141.0,141.0,200.0,125.0,125.0,200.0,2,6.204312562942505,None,,,,,0,0,0,0,0,87,87,57,411.7787139415741,,,,,,,,,,,,,,,,,,,,,,,,,,,,,,,,,,,,,,,,,,,,,,,,,,,,,,,,,,,,,,,,,,,,,,,,,,,,,,,,,,141.0,141.0,200.0,125.0,125.0,200.0,3.0,3.2,-229,-288,0,-1,258,287,411.76420879364014,411.7642488479614,411.76681685447693,411.7787139415741,411.92890763282776,411.92890763282776,411.92890763282776,411.92890763282776,411.92890763282776,411.92890763282776,411.92890763282776,417.9981803894043,2,6.204312562942505,None,,,,,,,,,,,,,,,,,,115,3,2025-02-25_14h05.29.902,comp,2024.2.4,59.9493740361128,2025-02-25 14h05.36.466913 -0500,
88,88,0,critical,wdh,35.0,1.0,upper,125.0,200.0,127.0,127.0,200.0,125.0,1,4.099311828613281,None,,,,,0,0,0,0,0,88,88,73,418.013423204422,,,,,,,,,,,,,,,,,,,,,,,,,,,,,,,,,,,,,,,,,,,,,,,,,,,,,,,,,,,,,,,,,,,,,,,,,,,,,,,,,,125.0,200.0,127.0,127.0,200.0,125.0,1.0,1.3,220,-278,480,-266,702,-285,417.9992206096649,417.99927520751953,418.00201869010925,418.013423204422,418.1622676849365,418.1622676849365,418.1622676849365,418.1622676849365,418.1622676849365,418.1622676849365,418.1622676849365,422.12995171546936,1,4.099311828613281,None,,,,,,,,,,,,,,,,,,115,3,2025-02-25_14h05.29.902,comp,2024.2.4,59.9493740361128,2025-02-25 14h05.36.466913 -0500,
89,89,0,filler_random,None,None,None,None,None,None,None,None,None,None,1,1.71736478805542,None,,,,,0,0,0,0,0,89,89,161,422.1452932357788,,,,,,,,,,,,,,,,,,,,,,,,,,,,,,,,,,,,,,,,,,,,,,,,,,,,,,,,,,,,,,,,,,,,,,,,,,,,,,,,,,135.42125863287606,153.68162895572397,76.95741278223585,90.2514247441153,154.1389531144485,82.59518046559924,2.2,2.21,-218,-273,0,252,182,282,422.13105750083923,422.1310992240906,422.13354086875916,422.1452932357788,422.29542112350464,422.29542112350464,422.29542112350464,422.29542112350464,422.29542112350464,422.29542112350464,422.29542112350464,423.8798542022705,1,1.71736478805542,None,,,,,,,,,,,,,,,,,,115,3,2025-02-25_14h05.29.902,comp,2024.2.4,59.9493740361128,2025-02-25 14h05.36.466913 -0500,
90,90,0,filler_random,None,None,None,None,None,None,None,None,None,None,3,1.9514625072479248,None,,,,,0,0,0,0,0,90,90,162,423.89519453048706,,,,,,,,,,,,,,,,,,,,,,,,,,,,,,,,,,,,,,,,,,,,,,,,,,,,,,,,,,,,,,,,,,,,,,,,,,,,,,,,,,83.60958538560803,122.65134997046401,77.32904135500823,154.39861138716066,120.56137687970154,123.7114928824855,4.0,4.2,-235,9,0,-256,235,14,423.8807463645935,423.880788564682,423.8831799030304,423.89519453048706,424.0453927516937,424.0453927516937,424.0453927516937,424.0453927516937,424.0453927516937,424.0453927516937,424.0453927516937,425.86320209503174,3,1.9514625072479248,None,,,,,,,,,,,,,,,,,,115,3,2025-02-25_14h05.29.902,comp,2024.2.4,59.9493740361128,2025-02-25 14h05.36.466913 -0500,
91,91,0,critical,wdh,35.0,2.1,lower,57.0,133.0,70.0,70.0,133.0,57.0,3,6.298695802688599,None,,,,,0,0,0,0,0,91,91,8,425.878449678421,,,,,,,,,,,,,,,,,,,,,,,,,,,,,,,,,,,,,,,,,,,,,,,,,,,,,,,,,,,,,,,,,,,,,,,,,,,,,,,,,,57.0,133.0,70.0,70.0,133.0,57.0,2.1,2.11,-198,271,0,271,160,-253,425.8640236854553,425.8640639781952,425.86665177345276,425.878449678421,426.0286400318146,426.0286400318146,426.0286400318146,426.0286400318146,426.0286400318146,426.0286400318146,426.0286400318146,432.1799464225769,3,6.298695802688599,None,,,,,,,,,,,,,,,,,,115,3,2025-02-25_14h05.29.902,comp,2024.2.4,59.9493740361128,2025-02-25 14h05.36.466913 -0500,
92,92,0,critical,dwh,20.0,2.1,upper,141.0,141.0,125.0,200.0,200.0,125.0,3,4.65126371383667,None,,,,,0,0,0,0,0,92,92,7,432.19541454315186,,,,,,,,,,,,,,,,,,,,,,,,,,,,,,,,,,,,,,,,,,,,,,,,,,,,,,,,,,,,,,,,,,,,,,,,,,,,,,,,,,141.0,141.0,125.0,200.0,200.0,125.0,2.1,2.11,-266,281,0,268,258,-258,432.18074440956116,432.1807861328125,432.182879447937,432.19541454315186,432.34549951553345,432.34549951553345,432.34549951553345,432.34549951553345,432.34549951553345,432.34549951553345,432.34549951553345,436.8633186817169,3,4.65126371383667,None,,,,,,,,,,,,,,,,,,115,3,2025-02-25_14h05.29.902,comp,2024.2.4,59.9493740361128,2025-02-25 14h05.36.466913 -0500,
93,93,0,critical,dhw,35.0,2.1,upper,127.0,127.0,200.0,125.0,125.0,200.0,3,3.225008010864258,None,,,,,0,0,0,0,0,93,93,1,436.8785524368286,,,,,,,,,,,,,,,,,,,,,,,,,,,,,,,,,,,,,,,,,,,,,,,,,,,,,,,,,,,,,,,,,,,,,,,,,,,,,,,,,,127.0,127.0,200.0,125.0,125.0,200.0,2.1,2.12,-222,-259,0,-256,258,267,436.8641126155853,436.86415243148804,436.8666305541992,436.8785524368286,437.0288083553314,437.0288083553314,437.0288083553314,437.0288083553314,437.0288083553314,437.0288083553314,437.0288083553314,440.11320519447327,3,3.225008010864258,None,,,,,,,,,,,,,,,,,,115,3,2025-02-25_14h05.29.902,comp,2024.2.4,59.9493740361128,2025-02-25 14h05.36.466913 -0500,
94,94,0,critical,whd,20.0,2.1,lower,57.0,133.0,133.0,57.0,78.0,78.0,2,10.05423092842102,None,,,,,0,0,0,0,0,94,94,14,440.1290078163147,,,,,,,,,,,,,,,,,,,,,,,,,,,,,,,,,,,,,,,,,,,,,,,,,,,,,,,,,,,,,,,,,,,,,,,,,,,,,,,,,,57.0,133.0,133.0,57.0,78.0,78.0,2.1,2.11,-191,263,0,286,164,-272,440.1139931678772,440.1140327453613,440.1160662174225,440.1290078163147,440.2785303592682,440.2785303592682,440.2785303592682,440.2785303592682,440.2785303592682,440.2785303592682,440.2785303592682,450.1961646080017,2,10.05423092842102,None,,,,,,,,,,,,,,,,,,115,3,2025-02-25_14h05.29.902,comp,2024.2.4,59.9493740361128,2025-02-25 14h05.36.466913 -0500,
95,95,0,filler_random,None,None,None,None,None,None,None,None,None,None,1,2.9079642295837402,None,,,,,0,0,0,0,0,95,95,142,450.2117033004761,,,,,,,,,,,,,,,,,,,,,,,,,,,,,,,,,,,,,,,,,,,,,,,,,,,,,,,,,,,,,,,,,,,,,,,,,,,,,,,,,,87.48675414564133,164.60606432838784,64.59659456170394,68.74253681164038,118.74961952611065,142.2835065577134,3.0,3.1,-213,263,0,9,202,-265,450.1970868110657,450.1971290111542,450.19965267181396,450.2117033004761,450.361820936203,450.361820936203,450.361820936203,450.361820936203,450.361820936203,450.361820936203,450.361820936203,453.1296513080597,1,2.9079642295837402,None,,,,,,,,,,,,,,,,,,115,3,2025-02-25_14h05.29.902,comp,2024.2.4,59.9493740361128,2025-02-25 14h05.36.466913 -0500,
96,96,0,critical,hdw,35.0,2.1,lower,133.0,57.0,70.0,70.0,57.0,133.0,3,7.966687440872192,None,,,,,0,0,0,0,0,96,96,20,453.1452751159668,,,,,,,,,,,,,,,,,,,,,,,,,,,,,,,,,,,,,,,,,,,,,,,,,,,,,,,,,,,,,,,,,,,,,,,,,,,,,,,,,,133.0,57.0,70.0,70.0,57.0,133.0,2.1,2.12,-160,-264,0,-253,198,258,453.1304187774658,453.13046002388,453.1324396133423,453.1452751159668,453.2951912879944,453.2951912879944,453.2951912879944,453.2951912879944,453.2951912879944,453.2951912879944,453.2951912879944,461.1297769546509,3,7.966687440872192,None,,,,,,,,,,,,,,,,,,115,3,2025-02-25_14h05.29.902,comp,2024.2.4,59.9493740361128,2025-02-25 14h05.36.466913 -0500,
97,97,0,critical,hdw,35.0,2.1,upper,200.0,125.0,127.0,127.0,125.0,200.0,1,4.501399993896484,None,,,,,0,0,0,0,0,97,97,21,461.1450433731079,,,,,,,,,,,,,,,,,,,,,,,,,,,,,,,,,,,,,,,,,,,,,,,,,,,,,,,,,,,,,,,,,,,,,,,,,,,,,,,,,,200.0,125.0,127.0,127.0,125.0,200.0,2.1,2.12,-222,-279,0,-284,260,290,461.1305344104767,461.13058638572693,461.133175611496,461.1450433731079,461.29529452323914,461.29529452323914,461.29529452323914,461.29529452323914,461.29529452323914,461.29529452323914,461.29529452323914,465.6634349822998,1,4.501399993896484,None,,,,,,,,,,,,,,,,,,115,3,2025-02-25_14h05.29.902,comp,2024.2.4,59.9493740361128,2025-02-25 14h05.36.466913 -0500,
98,98,0,filler_random,None,None,None,None,None,None,None,None,None,None,2,7.912971019744873,None,,,,,0,0,0,0,0,98,98,145,465.67865443229675,,,,,,,,,,,,,,,,,,,,,,,,,,,,,,,,,,,,,,,,,,,,,,,,,,,,,,,,,,,,,,,,,,,,,,,,,,,,,,,,,,189.7258975139323,106.06879327824731,146.53895671789536,198.89209488146912,141.0446219311933,185.64560960465985,3.0,3.1,-248,274,0,6,288,-270,465.6643466949463,465.6643874645233,465.666464805603,465.67865443229675,465.82892751693726,465.82892751693726,465.82892751693726,465.82892751693726,465.82892751693726,465.82892751693726,465.82892751693726,473.5964722633362,2,7.912971019744873,None,,,,,,,,,,,,,,,,,,115,3,2025-02-25_14h05.29.902,comp,2024.2.4,59.9493740361128,2025-02-25 14h05.36.466913 -0500,
99,99,0,filler_square,None,None,None,None,None,None,None,None,None,None,2,2.850513219833374,None,,,,,0,0,0,0,0,99,99,206,473.6118950843811,,,,,,,,,,,,,,,,,,,,,,,,,,,,,,,,,,,,,,,,,,,,,,,,,,,,,,,,,,,,,,,,,,,,,,,,,,,,,,,,,,131.05776936335877,105.71696599260159,146.99693913214628,146.99693913214628,109.17949778072258,86.51714222785503,1.0,1.1,-702,283,-480,268,-267,264,473.59744691848755,473.5974895954132,473.5998885631561,473.6118950843811,473.76170802116394,473.76170802116394,473.76170802116394,473.76170802116394,473.76170802116394,473.76170802116394,473.76170802116394,476.47948241233826,2,2.850513219833374,None,,,,,,,,,,,,,,,,,,115,3,2025-02-25_14h05.29.902,comp,2024.2.4,59.9493740361128,2025-02-25 14h05.36.466913 -0500,
100,100,0,critical,wdh,20.0,2.1,upper,125.0,200.0,141.0,141.0,200.0,125.0,1,5.865756988525391,None,,,,,0,0,0,0,0,100,100,11,476.49486446380615,,,,,,,,,,,,,,,,,,,,,,,,,,,,,,,,,,,,,,,,,,,,,,,,,,,,,,,,,,,,,,,,,,,,,,,,,,,,,,,,,,125.0,200.0,141.0,141.0,200.0,125.0,2.1,2.12,-266,-268,0,-265,229,263,476.48028659820557,476.4803273677826,476.4823729991913,476.49486446380615,476.645081281662,476.645081281662,476.645081281662,476.645081281662,476.645081281662,476.645081281662,476.645081281662,482.3630266189575,1,5.865756988525391,None,,,,,,,,,,,,,,,,,,115,3,2025-02-25_14h05.29.902,comp,2024.2.4,59.9493740361128,2025-02-25 14h05.36.466913 -0500,
101,101,0,filler_square,None,None,None,None,None,None,None,None,None,None,3,3.228651762008667,None,,,,,0,0,0,0,0,101,101,209,482.3784294128418,,,,,,,,,,,,,,,,,,,,,,,,,,,,,,,,,,,,,,,,,,,,,,,,,,,,,,,,,,,,,,,,,,,,,,,,,,,,,,,,,,101.59917705988673,73.30920166294325,70.48475613816557,111.01567251781927,137.31991969718302,137.31991969718302,4.0,4.1,-188,-262,0,9,220,-257,482.36401629447937,482.364057302475,482.3661618232727,482.3784294128418,482.52829670906067,482.52829670906067,482.52829670906067,482.52829670906067,482.52829670906067,482.52829670906067,482.52829670906067,485.61275267601013,3,3.228651762008667,None,,,,,,,,,,,,,,,,,,115,3,2025-02-25_14h05.29.902,comp,2024.2.4,59.9493740361128,2025-02-25 14h05.36.466913 -0500,
102,102,0,filler_square,None,None,None,None,None,None,None,None,None,None,2,1.8176186084747314,None,,,,,0,0,0,0,0,102,102,197,485.62865138053894,,,,,,,,,,,,,,,,,,,,,,,,,,,,,,,,,,,,,,,,,,,,,,,,,,,,,,,,,,,,,,,,,,,,,,,,,,,,,,,,,,69.9042685943947,153.9897104712275,180.47947887866013,180.47947887866013,147.3351412258882,161.99968719432695,3.0,3.1,-263,287,0,16,267,-286,485.61371326446533,485.61375546455383,485.6158547401428,485.62865138053894,485.77846360206604,485.77846360206604,485.77846360206604,485.77846360206604,485.77846360206604,485.77846360206604,485.77846360206604,487.4629256725311,2,1.8176186084747314,None,,,,,,,,,,,,,,,,,,115,3,2025-02-25_14h05.29.902,comp,2024.2.4,59.9493740361128,2025-02-25 14h05.36.466913 -0500,
103,103,0,critical,dhw,35.0,3.0,lower,70.0,70.0,133.0,57.0,57.0,133.0,3,4.409032583236694,None,,,,,0,0,0,0,0,103,103,50,487.4781370162964,,,,,,,,,,,,,,,,,,,,,,,,,,,,,,,,,,,,,,,,,,,,,,,,,,,,,,,,,,,,,,,,,,,,,,,,,,,,,,,,,,70.0,70.0,133.0,57.0,57.0,133.0,3.0,3.2,-160,-289,0,-7,191,277,487.4637279510498,487.46376872062683,487.4658782482147,487.4781370162964,487.6282238960266,487.6282238960266,487.6282238960266,487.6282238960266,487.6282238960266,487.6282238960266,487.6282238960266,491.89589953422546,3,4.409032583236694,None,,,,,,,,,,,,,,,,,,115,3,2025-02-25_14h05.29.902,comp,2024.2.4,59.9493740361128,2025-02-25 14h05.36.466913 -0500,
104,104,0,filler_square,None,None,None,None,None,None,None,None,None,None,1,1.167255163192749,None,,,,,0,0,0,0,0,104,104,178,491.9117121696472,,,,,,,,,,,,,,,,,,,,,,,,,,,,,,,,,,,,,,,,,,,,,,,,,,,,,,,,,,,,,,,,,,,,,,,,,,,,,,,,,,128.94806704037035,128.94806704037035,74.87291713231635,125.43746224194943,82.3056774949385,61.20797894735985,2.1,2.11,-223,251,0,265,189,-286,491.8968348503113,491.89687609672546,491.89926314353943,491.9117121696472,492.0616600513458,492.0616600513458,492.0616600513458,492.0616600513458,492.0616600513458,492.0616600513458,492.0616600513458,493.0960593223572,1,1.167255163192749,None,,,,,,,,,,,,,,,,,,115,3,2025-02-25_14h05.29.902,comp,2024.2.4,59.9493740361128,2025-02-25 14h05.36.466913 -0500,
105,105,0,filler_square,None,None,None,None,None,None,None,None,None,None,3,1.3756277561187744,None,,,,,0,0,0,0,0,105,105,189,493.1114101409912,,,,,,,,,,,,,,,,,,,,,,,,,,,,,,,,,,,,,,,,,,,,,,,,,,,,,,,,,,,,,,,,,,,,,,,,,,,,,,,,,,106.21222871101533,70.20136293007582,98.94721165651859,60.706286181940854,125.38484469616485,125.38484469616485,4.0,4.2,-161,-7,0,-265,189,-4,493.0970299243927,493.0970711708069,493.0995283126831,493.1114101409912,493.2616307735443,493.2616307735443,493.2616307735443,493.2616307735443,493.2616307735443,493.2616307735443,493.2616307735443,494.4959673881531,3,1.3756277561187744,None,,,,,,,,,,,,,,,,,,115,3,2025-02-25_14h05.29.902,comp,2024.2.4,59.9493740361128,2025-02-25 14h05.36.466913 -0500,
106,106,0,critical,hwd,35.0,3.0,lower,133.0,57.0,57.0,133.0,70.0,70.0,1,2.527486562728882,None,,,,,0,0,0,0,0,106,106,98,494.51158595085144,,,,,,,,,,,,,,,,,,,,,,,,,,,,,,,,,,,,,,,,,,,,,,,,,,,,,,,,,,,,,,,,,,,,,,,,,,,,,,,,,,133.0,57.0,57.0,133.0,70.0,70.0,3.0,3.2,-191,-255,0,-12,198,267,494.49674367904663,494.4967851638794,494.49888944625854,494.51158595085144,494.66160345077515,494.66160345077515,494.66160345077515,494.66160345077515,494.66160345077515,494.66160345077515,494.66160345077515,497.04588294029236,1,2.527486562728882,None,,,,,,,,,,,,,,,,,,115,3,2025-02-25_14h05.29.902,comp,2024.2.4,59.9493740361128,2025-02-25 14h05.36.466913 -0500,
107,107,0,critical,dhw,35.0,4.0,upper,127.0,127.0,200.0,125.0,125.0,200.0,2,2.1045334339141846,None,,,,,0,0,0,0,0,107,107,53,497.0616388320923,,,,,,,,,,,,,,,,,,,,,,,,,,,,,,,,,,,,,,,,,,,,,,,,,,,,,,,,,,,,,,,,,,,,,,,,,,,,,,,,,,127.0,127.0,200.0,125.0,125.0,200.0,4.0,4.1,-222,-264,0,18,258,-255,497.0466661453247,497.0467085838318,497.04879212379456,497.0616388320923,497.21181058883667,497.21181058883667,497.21181058883667,497.21181058883667,497.21181058883667,497.21181058883667,497.21181058883667,499.1794328689575,2,2.1045334339141846,None,,,,,,,,,,,,,,,,,,115,3,2025-02-25_14h05.29.902,comp,2024.2.4,59.9493740361128,2025-02-25 14h05.36.466913 -0500,
108,108,0,filler_random,None,None,None,None,None,None,None,None,None,None,1,1.5082571506500244,None,,,,,0,0,0,0,0,108,108,130,499.1947822570801,,,,,,,,,,,,,,,,,,,,,,,,,,,,,,,,,,,,,,,,,,,,,,,,,,,,,,,,,,,,,,,,,,,,,,,,,,,,,,,,,,127.54348440088984,198.95801250461628,178.08487219732888,97.31243950075779,72.16330897347274,153.59156705921504,3.0,3.1,-244,258,0,-11,221,-258,499.1803650856018,499.180406332016,499.182950258255,499.1947822570801,499.3449172973633,499.3449172973633,499.3449172973633,499.3449172973633,499.3449172973633,499.3449172973633,499.3449172973633,500.71280241012573,1,1.5082571506500244,None,,,,,,,,,,,,,,,,,,115,3,2025-02-25_14h05.29.902,comp,2024.2.4,59.9493740361128,2025-02-25 14h05.36.466913 -0500,
109,109,0,filler_square,None,None,None,None,None,None,None,None,None,None,3,3.8638429641723633,None,,,,,0,0,0,0,0,109,109,185,500.7283065319061,,,,,,,,,,,,,,,,,,,,,,,,,,,,,,,,,,,,,,,,,,,,,,,,,,,,,,,,,,,,,,,,,,,,,,,,,,,,,,,,,,75.3750188648181,60.78542430818319,83.54977779930186,73.31253801757278,87.13865419961398,87.13865419961398,1.0,1.3,317,-268,480,-273,656,-275,500.71377778053284,500.713819026947,500.71595215797424,500.7283065319061,500.87812542915344,500.87812542915344,500.87812542915344,500.87812542915344,500.87812542915344,500.87812542915344,500.87812542915344,504.59602403640747,3,3.8638429641723633,None,,,,,,,,,,,,,,,,,,115,3,2025-02-25_14h05.29.902,comp,2024.2.4,59.9493740361128,2025-02-25 14h05.36.466913 -0500,
110,110,0,critical,hdw,35.0,2.1,upper,200.0,125.0,127.0,127.0,125.0,200.0,3,2.300346612930298,None,,,,,0,0,0,0,0,110,110,45,504.61151909828186,,,,,,,,,,,,,,,,,,,,,,,,,,,,,,,,,,,,,,,,,,,,,,,,,,,,,,,,,,,,,,,,,,,,,,,,,,,,,,,,,,200.0,125.0,127.0,127.0,125.0,200.0,2.1,2.12,-222,-270,0,-269,260,250,504.5967779159546,504.5968179702759,504.59916615486145,504.61151909828186,504.761625289917,504.761625289917,504.761625289917,504.761625289917,504.761625289917,504.761625289917,504.761625289917,506.91299700737,3,2.300346612930298,None,,,,,,,,,,,,,,,,,,115,3,2025-02-25_14h05.29.902,comp,2024.2.4,59.9493740361128,2025-02-25 14h05.36.466913 -0500,
111,111,0,filler_random,None,None,None,None,None,None,None,None,None,None,3,1.694697380065918,None,,,,,0,0,0,0,0,111,111,137,506.9282417297363,,,,,,,,,,,,,,,,,,,,,,,,,,,,,,,,,,,,,,,,,,,,,,,,,,,,,,,,,,,,,,,,,,,,,,,,,,,,,,,,,,64.69620526242585,111.60611408054315,103.72187062277706,57.10707272831177,138.01552308999732,137.35773773393385,2.2,2.22,-180,273,0,-261,193,-261,506.9139063358307,506.9139492511749,506.91606521606445,506.9282417297363,507.07862424850464,507.07862424850464,507.07862424850464,507.07862424850464,507.07862424850464,507.07862424850464,507.07862424850464,508.63047194480896,3,1.694697380065918,None,,,,,,,,,,,,,,,,,,115,3,2025-02-25_14h05.29.902,comp,2024.2.4,59.9493740361128,2025-02-25 14h05.36.466913 -0500,
112,112,0,critical,dhw,35.0,1.0,lower,70.0,70.0,133.0,57.0,57.0,133.0,3,8.209195852279663,None,,,,,0,0,0,0,0,112,112,48,508.64579582214355,,,,,,,,,,,,,,,,,,,,,,,,,,,,,,,,,,,,,,,,,,,,,,,,,,,,,,,,,,,,,,,,,,,,,,,,,,,,,,,,,,70.0,70.0,133.0,57.0,57.0,133.0,1.0,1.2,-160,-12,0,5,191,17,508.6312074661255,508.63124561309814,508.6342685222626,508.64579582214355,508.79660534858704,508.79660534858704,508.79660534858704,508.79660534858704,508.79660534858704,508.79660534858704,508.79660534858704,516.8624122142792,3,8.209195852279663,None,,,,,,,,,,,,,,,,,,115,3,2025-02-25_14h05.29.902,comp,2024.2.4,59.9493740361128,2025-02-25 14h05.36.466913 -0500,
113,113,0,filler_square,None,None,None,None,None,None,None,None,None,None,2,1.3925955295562744,None,,,,,0,0,0,0,0,113,113,180,516.8782703876495,,,,,,,,,,,,,,,,,,,,,,,,,,,,,,,,,,,,,,,,,,,,,,,,,,,,,,,,,,,,,,,,,,,,,,,,,,,,,,,,,,95.28577519784876,95.3678980163765,176.1216313566274,176.1216313566274,157.61264624281546,88.20600925521516,4.0,4.1,-232,-281,0,-4,228,-270,516.863391160965,516.8634343147278,516.8657190799713,516.8782703876495,517.028222322464,517.028222322464,517.028222322464,517.028222322464,517.028222322464,517.028222322464,517.028222322464,518.2792706489563,2,1.3925955295562744,None,,,,,,,,,,,,,,,,,,115,3,2025-02-25_14h05.29.902,comp,2024.2.4,59.9493740361128,2025-02-25 14h05.36.466913 -0500,
114,114,0,critical,hwd,20.0,2.1,upper,200.0,125.0,125.0,200.0,141.0,141.0,1,3.6879982948303223,None,,,,,0,0,0,0,0,114,114,19,518.2947297096252,,,,,,,,,,,,,,,,,,,,,,,,,,,,,,,,,,,,,,,,,,,,,,,,,,,,,,,,,,,,,,,,,,,,,,,,,,,,,,,,,,200.0,125.0,125.0,200.0,141.0,141.0,2.1,2.12,-258,-285,0,-287,266,275,518.2800595760345,518.2801005840302,518.2826790809631,518.2947297096252,518.4449036121368,518.4449036121368,518.4449036121368,518.4449036121368,518.4449036121368,518.4449036121368,518.4449036121368,521.9960384368896,1,3.6879982948303223,None,,,,,,,,,,,,,,,,,,115,3,2025-02-25_14h05.29.902,comp,2024.2.4,59.9493740361128,2025-02-25 14h05.36.466913 -0500,
115,115,0,critical,dwh,20.0,1.0,lower,78.0,78.0,57.0,133.0,133.0,57.0,2,3.9653539657592773,None,,,,,0,0,0,0,0,115,115,66,522.011236667633,,,,,,,,,,,,,,,,,,,,,,,,,,,,,,,,,,,,,,,,,,,,,,,,,,,,,,,,,,,,,,,,,,,,,,,,,,,,,,,,,,78.0,78.0,57.0,133.0,133.0,57.0,1.0,1.2,-202,-2,0,10,191,13,521.9967803955078,521.9968183040619,521.9991674423218,522.011236667633,522.1613435745239,522.1613435745239,522.1613435745239,522.1613435745239,522.1613435745239,522.1613435745239,522.1613435745239,525.9793040752411,2,3.9653539657592773,None,,,,,,,,,,,,,,,,,,115,3,2025-02-25_14h05.29.902,comp,2024.2.4,59.9493740361128,2025-02-25 14h05.36.466913 -0500,
116,116,0,critical,whd,20.0,4.0,lower,57.0,133.0,133.0,57.0,78.0,78.0,1,6.283718109130859,None,,,,,0,0,0,0,0,116,116,94,525.9947340488434,,,,,,,,,,,,,,,,,,,,,,,,,,,,,,,,,,,,,,,,,,,,,,,,,,,,,,,,,,,,,,,,,,,,,,,,,,,,,,,,,,57.0,133.0,133.0,57.0,78.0,78.0,4.0,4.2,-191,-20,0,-280,164,-12,525.9800937175751,525.9801344871521,525.9822301864624,525.9947340488434,526.1446709632874,526.1446709632874,526.1446709632874,526.1446709632874,526.1446709632874,526.1446709632874,526.1446709632874,532.2956762313843,1,6.283718109130859,None,,,,,,,,,,,,,,,,,,115,3,2025-02-25_14h05.29.902,comp,2024.2.4,59.9493740361128,2025-02-25 14h05.36.466913 -0500,
117,117,0,critical,dhw,20.0,2.1,lower,78.0,78.0,133.0,57.0,57.0,133.0,3,4.080575466156006,None,,,,,0,0,0,0,0,117,117,26,532.3110377788544,,,,,,,,,,,,,,,,,,,,,,,,,,,,,,,,,,,,,,,,,,,,,,,,,,,,,,,,,,,,,,,,,,,,,,,,,,,,,,,,,,78.0,78.0,133.0,57.0,57.0,133.0,2.1,2.12,-164,-254,0,-272,191,281,532.2964625358582,532.2965042591095,532.2988588809967,532.3110377788544,532.4613080024719,532.4613080024719,532.4613080024719,532.4613080024719,532.4613080024719,532.4613080024719,532.4613080024719,536.3957726955414,3,4.080575466156006,None,,,,,,,,,,,,,,,,,,115,3,2025-02-25_14h05.29.902,comp,2024.2.4,59.9493740361128,2025-02-25 14h05.36.466913 -0500,
118,118,0,filler_random,None,None,None,None,None,None,None,None,None,None,1,4.803109169006348,None,,,,,0,0,0,0,0,118,118,163,536.4113552570343,,,,,,,,,,,,,,,,,,,,,,,,,,,,,,,,,,,,,,,,,,,,,,,,,,,,,,,,,,,,,,,,,,,,,,,,,,,,,,,,,,178.64322958615463,98.79216528765964,126.57757318417296,172.93681240994272,72.1023221059479,76.85458682153642,2.1,2.12,-232,-282,0,-277,221,261,536.3966519832611,536.3966946601868,536.3988065719604,536.4113552570343,536.5613152980804,536.5613152980804,536.5613152980804,536.5613152980804,536.5613152980804,536.5613152980804,536.5613152980804,541.2291533946991,1,4.803109169006348,None,,,,,,,,,,,,,,,,,,115,3,2025-02-25_14h05.29.902,comp,2024.2.4,59.9493740361128,2025-02-25 14h05.36.466913 -0500,
119,119,0,filler_square,None,None,None,None,None,None,None,None,None,None,2,2.0505528450012207,None,,,,,0,0,0,0,0,119,119,205,541.244461774826,,,,,,,,,,,,,,,,,,,,,,,,,,,,,,,,,,,,,,,,,,,,,,,,,,,,,,,,,,,,,,,,,,,,,,,,,,,,,,,,,,136.7613273954293,121.11351573995242,165.41371408635177,165.41371408635177,125.37625729022628,145.54902088646384,4.0,4.1,-239,-270,0,-18,251,-272,541.2301082611084,541.2301487922668,541.2326130867004,541.244461774826,541.3946950435638,541.3946950435638,541.3946950435638,541.3946950435638,541.3946950435638,541.3946950435638,541.3946950435638,543.3125252723694,2,2.0505528450012207,None,,,,,,,,,,,,,,,,,,115,3,2025-02-25_14h05.29.902,comp,2024.2.4,59.9493740361128,2025-02-25 14h05.36.466913 -0500,
120,120,0,critical,dwh,35.0,2.1,lower,70.0,70.0,57.0,133.0,133.0,57.0,3,5.166844606399536,None,,,,,0,0,0,0,0,120,120,4,543.3278803825378,,,,,,,,,,,,,,,,,,,,,,,,,,,,,,,,,,,,,,,,,,,,,,,,,,,,,,,,,,,,,,,,,,,,,,,,,,,,,,,,,,70.0,70.0,57.0,133.0,133.0,57.0,2.1,2.11,-198,260,0,251,191,-255,543.3133339881897,543.3133749961853,543.3157269954681,543.3278803825378,543.4778821468353,543.4778821468353,543.4778821468353,543.4778821468353,543.4778821468353,543.4778821468353,543.4778821468353,548.5123164653778,3,5.166844606399536,None,,,,,,,,,,,,,,,,,,115,3,2025-02-25_14h05.29.902,comp,2024.2.4,59.9493740361128,2025-02-25 14h05.36.466913 -0500,
121,121,0,critical,hdw,20.0,2.1,lower,133.0,57.0,78.0,78.0,57.0,133.0,3,5.502304315567017,None,,,,,0,0,0,0,0,121,121,46,548.527642250061,,,,,,,,,,,,,,,,,,,,,,,,,,,,,,,,,,,,,,,,,,,,,,,,,,,,,,,,,,,,,,,,,,,,,,,,,,,,,,,,,,133.0,57.0,78.0,78.0,57.0,133.0,2.1,2.11,-164,255,0,283,202,-283,548.5131232738495,548.5131645202637,548.5157172679901,548.527642250061,548.6777930259705,548.6777930259705,548.6777930259705,548.6777930259705,548.6777930259705,548.6777930259705,548.6777930259705,554.045567035675,3,5.502304315567017,None,,,,,,,,,,,,,,,,,,115,3,2025-02-25_14h05.29.902,comp,2024.2.4,59.9493740361128,2025-02-25 14h05.36.466913 -0500,
122,122,0,critical,hwd,20.0,2.1,lower,133.0,57.0,57.0,133.0,78.0,78.0,2,2.8096282482147217,None,,,,,0,0,0,0,0,122,122,18,554.0610017776489,,,,,,,,,,,,,,,,,,,,,,,,,,,,,,,,,,,,,,,,,,,,,,,,,,,,,,,,,,,,,,,,,,,,,,,,,,,,,,,,,,133.0,57.0,57.0,133.0,78.0,78.0,2.1,2.12,-191,-269,0,-272,202,287,554.0463266372681,554.046365737915,554.0485520362854,554.0610017776489,554.2110121250153,554.2110121250153,554.2110121250153,554.2110121250153,554.2110121250153,554.2110121250153,554.2110121250153,556.8788232803345,2,2.8096282482147217,None,,,,,,,,,,,,,,,,,,115,3,2025-02-25_14h05.29.902,comp,2024.2.4,59.9493740361128,2025-02-25 14h05.36.466913 -0500,
123,123,0,critical,hdw,20.0,4.0,lower,133.0,57.0,78.0,78.0,57.0,133.0,3,5.2661826610565186,None,,,,,0,0,0,0,0,123,123,118,556.894562959671,,,,,,,,,,,,,,,,,,,,,,,,,,,,,,,,,,,,,,,,,,,,,,,,,,,,,,,,,,,,,,,,,,,,,,,,,,,,,,,,,,133.0,57.0,78.0,78.0,57.0,133.0,4.0,4.1,-164,-280,0,-14,202,-265,556.8795852661133,556.8796269893646,556.8819670677185,556.894562959671,557.0444827079773,557.0444827079773,557.0444827079773,557.0444827079773,557.0444827079773,557.0444827079773,557.0444827079773,562.1622874736786,3,5.2661826610565186,None,,,,,,,,,,,,,,,,,,115,3,2025-02-25_14h05.29.902,comp,2024.2.4,59.9493740361128,2025-02-25 14h05.36.466913 -0500,
124,124,0,filler_square,None,None,None,None,None,None,None,None,None,None,3,1.483963966369629,None,,,,,0,0,0,0,0,124,124,198,562.1778240203857,,,,,,,,,,,,,,,,,,,,,,,,,,,,,,,,,,,,,,,,,,,,,,,,,,,,,,,,,,,,,,,,,,,,,,,,,,,,,,,,,,89.6876995943677,75.12341193897478,84.78030637831071,80.29324480511949,93.56291349301914,93.56291349301914,1.0,1.1,-654,273,-480,290,-297,253,562.1632363796234,562.1632785797119,562.1654267311096,562.1778240203857,562.3277068138123,562.3277068138123,562.3277068138123,562.3277068138123,562.3277068138123,562.3277068138123,562.3277068138123,563.67884349823,3,1.483963966369629,None,,,,,,,,,,,,,,,,,,115,3,2025-02-25_14h05.29.902,comp,2024.2.4,59.9493740361128,2025-02-25 14h05.36.466913 -0500,
125,125,0,filler_random,None,None,None,None,None,None,None,None,None,None,3,1.7604701519012451,None,,,,,0,0,0,0,0,125,125,168,563.6942653656006,,,,,,,,,,,,,,,,,,,,,,,,,,,,,,,,,,,,,,,,,,,,,,,,,,,,,,,,,,,,,,,,,,,,,,,,,,,,,,,,,,120.57551061206217,181.04333449090052,169.7261241162836,84.5705664887419,174.70725495409997,191.88441838230634,2.1,2.11,-229,284,0,257,234,-256,563.6797711849213,563.6798112392426,563.6822047233582,563.6942653656006,563.8445951938629,563.8445951938629,563.8445951938629,563.8445951938629,563.8445951938629,563.8445951938629,563.8445951938629,565.4623391628265,3,1.7604701519012451,None,,,,,,,,,,,,,,,,,,115,3,2025-02-25_14h05.29.902,comp,2024.2.4,59.9493740361128,2025-02-25 14h05.36.466913 -0500,
126,126,0,critical,hdw,20.0,1.0,upper,200.0,125.0,141.0,141.0,125.0,200.0,1,3.087965250015259,None,,,,,0,0,0,0,0,126,126,115,565.4778335094452,,,,,,,,,,,,,,,,,,,,,,,,,,,,,,,,,,,,,,,,,,,,,,,,,,,,,,,,,,,,,,,,,,,,,,,,,,,,,,,,,,200.0,125.0,141.0,141.0,125.0,200.0,1.0,1.1,-709,281,-480,284,-214,286,565.4631447792053,565.4631860256195,565.4658300876617,565.4778335094452,565.6279764175415,565.6279764175415,565.6279764175415,565.6279764175415,565.6279764175415,565.6279764175415,565.6279764175415,568.5791215896606,1,3.087965250015259,None,,,,,,,,,,,,,,,,,,115,3,2025-02-25_14h05.29.902,comp,2024.2.4,59.9493740361128,2025-02-25 14h05.36.466913 -0500,
127,127,0,critical,dwh,20.0,3.0,upper,141.0,141.0,125.0,200.0,200.0,125.0,2,5.300581932067871,None,,,,,0,0,0,0,0,127,127,69,568.5942125320435,,,,,,,,,,,,,,,,,,,,,,,,,,,,,,,,,,,,,,,,,,,,,,,,,,,,,,,,,,,,,,,,,,,,,,,,,,,,,,,,,,141.0,141.0,125.0,200.0,200.0,125.0,3.0,3.1,-266,272,0,15,258,-251,568.5799205303192,568.5799612998962,568.5823669433594,568.5942125320435,568.7445561885834,568.7445561885834,568.7445561885834,568.7445561885834,568.7445561885834,568.7445561885834,568.7445561885834,573.9123537540436,2,5.300581932067871,None,,,,,,,,,,,,,,,,,,115,3,2025-02-25_14h05.29.902,comp,2024.2.4,59.9493740361128,2025-02-25 14h05.36.466913 -0500,
128,128,0,filler_square,None,None,None,None,None,None,None,None,None,None,1,2.294848680496216,None,,,,,0,0,0,0,0,128,128,208,573.9275829792023,,,,,,,,,,,,,,,,,,,,,,,,,,,,,,,,,,,,,,,,,,,,,,,,,,,,,,,,,,,,,,,,,,,,,,,,,,,,,,,,,,154.0246881023652,154.0246881023652,146.96300349887102,111.05092281070645,140.38101047922433,93.17788179338908,2.2,2.22,-229,266,0,-289,198,-272,573.9133219718933,573.9133641719818,573.9158892631531,573.9275829792023,574.0778954029083,574.0778954029083,574.0778954029083,574.0778954029083,574.0778954029083,574.0778954029083,574.0778954029083,576.228880405426,1,2.294848680496216,None,,,,,,,,,,,,,,,,,,115,3,2025-02-25_14h05.29.902,comp,2024.2.4,59.9493740361128,2025-02-25 14h05.36.466913 -0500,
129,129,0,critical,dwh,35.0,4.0,lower,70.0,70.0,57.0,133.0,133.0,57.0,2,2.201371431350708,None,,,,,0,0,0,0,0,129,129,64,576.244357585907,,,,,,,,,,,,,,,,,,,,,,,,,,,,,,,,,,,,,,,,,,,,,,,,,,,,,,,,,,,,,,,,,,,,,,,,,,,,,,,,,,70.0,70.0,57.0,133.0,133.0,57.0,4.0,4.1,-198,-288,0,-19,191,-276,576.229697227478,576.2297377586365,576.2323000431061,576.244357585907,576.3943016529083,576.3943016529083,576.3943016529083,576.3943016529083,576.3943016529083,576.3943016529083,576.3943016529083,578.4620847702026,2,2.201371431350708,None,,,,,,,,,,,,,,,,,,115,3,2025-02-25_14h05.29.902,comp,2024.2.4,59.9493740361128,2025-02-25 14h05.36.466913 -0500,
130,130,0,critical,whd,35.0,2.1,lower,57.0,133.0,133.0,57.0,70.0,70.0,2,5.336170673370361,None,,,,,0,0,0,0,0,130,130,36,578.4775159358978,,,,,,,,,,,,,,,,,,,,,,,,,,,,,,,,,,,,,,,,,,,,,,,,,,,,,,,,,,,,,,,,,,,,,,,,,,,,,,,,,,57.0,133.0,133.0,57.0,70.0,70.0,2.1,2.11,-191,260,0,268,160,-262,578.4628806114197,578.4629211425781,578.4653465747833,578.4775159358978,578.6276414394379,578.6276414394379,578.6276414394379,578.6276414394379,578.6276414394379,578.6276414394379,578.6276414394379,583.8291568756104,2,5.336170673370361,None,,,,,,,,,,,,,,,,,,115,3,2025-02-25_14h05.29.902,comp,2024.2.4,59.9493740361128,2025-02-25 14h05.36.466913 -0500,
131,131,0,critical,dhw,35.0,2.1,lower,70.0,70.0,133.0,57.0,57.0,133.0,3,1.9855940341949463,None,,,,,0,0,0,0,0,131,131,0,583.8441786766052,,,,,,,,,,,,,,,,,,,,,,,,,,,,,,,,,,,,,,,,,,,,,,,,,,,,,,,,,,,,,,,,,,,,,,,,,,,,,,,,,,70.0,70.0,133.0,57.0,57.0,133.0,2.1,2.12,-160,-254,0,-256,191,256,583.8299601078033,583.8300008773804,583.8324401378632,583.8441786766052,583.9942903518677,583.9942903518677,583.9942903518677,583.9942903518677,583.9942903518677,583.9942903518677,583.9942903518677,585.8453850746155,3,1.9855940341949463,None,,,,,,,,,,,,,,,,,,115,3,2025-02-25_14h05.29.902,comp,2024.2.4,59.9493740361128,2025-02-25 14h05.36.466913 -0500,
132,132,0,critical,hdw,35.0,3.0,lower,133.0,57.0,70.0,70.0,57.0,133.0,3,1.9156279563903809,None,,,,,0,0,0,0,0,132,132,110,585.8607234954834,,,,,,,,,,,,,,,,,,,,,,,,,,,,,,,,,,,,,,,,,,,,,,,,,,,,,,,,,,,,,,,,,,,,,,,,,,,,,,,,,,133.0,57.0,70.0,70.0,57.0,133.0,3.0,3.2,-160,-255,0,-1,198,270,585.8461604118347,585.846200466156,585.8482248783112,585.8607234954834,586.0108201503754,586.0108201503754,586.0108201503754,586.0108201503754,586.0108201503754,586.0108201503754,586.0108201503754,587.778751373291,3,1.9156279563903809,None,,,,,,,,,,,,,,,,,,115,3,2025-02-25_14h05.29.902,comp,2024.2.4,59.9493740361128,2025-02-25 14h05.36.466913 -0500,
133,133,0,filler_random,None,None,None,None,None,None,None,None,None,None,3,1.4119389057159424,None,,,,,0,0,0,0,0,133,133,153,587.7943711280823,,,,,,,,,,,,,,,,,,,,,,,,,,,,,,,,,,,,,,,,,,,,,,,,,,,,,,,,,,,,,,,,,,,,,,,,,,,,,,,,,,148.78141392490664,61.344368454072715,103.11499974936171,107.70403613674304,181.101047337514,170.04422842672312,1.0,1.3,299,-269,480,-279,715,-275,587.7796809673309,587.7797226905823,587.7821369171143,587.7943711280823,587.9444968700409,587.9444968700409,587.9444968700409,587.9444968700409,587.9444968700409,587.9444968700409,587.9444968700409,589.2121288776398,3,1.4119389057159424,None,,,,,,,,,,,,,,,,,,115,3,2025-02-25_14h05.29.902,comp,2024.2.4,59.9493740361128,2025-02-25 14h05.36.466913 -0500,
134,134,0,critical,hwd,35.0,4.0,upper,200.0,125.0,125.0,200.0,127.0,127.0,2,2.642967462539673,None,,,,,0,0,0,0,0,134,134,101,589.2276358604431,,,,,,,,,,,,,,,,,,,,,,,,,,,,,,,,,,,,,,,,,,,,,,,,,,,,,,,,,,,,,,,,,,,,,,,,,,,,,,,,,,200.0,125.0,125.0,200.0,127.0,127.0,4.0,4.1,-258,-257,0,-1,260,-282,589.2129216194153,589.212963104248,589.2150421142578,589.2276358604431,589.377792596817,589.377792596817,589.377792596817,589.377792596817,589.377792596817,589.377792596817,589.377792596817,591.8787670135498,2,2.642967462539673,None,,,,,,,,,,,,,,,,,,115,3,2025-02-25_14h05.29.902,comp,2024.2.4,59.9493740361128,2025-02-25 14h05.36.466913 -0500,
135,135,0,critical,dwh,20.0,1.0,upper,141.0,141.0,125.0,200.0,200.0,125.0,3,3.2661213874816895,None,,,,,0,0,0,0,0,135,135,67,591.8942723274231,,,,,,,,,,,,,,,,,,,,,,,,,,,,,,,,,,,,,,,,,,,,,,,,,,,,,,,,,,,,,,,,,,,,,,,,,,,,,,,,,,141.0,141.0,125.0,200.0,200.0,125.0,1.0,1.2,-266,7,0,-19,258,-7,591.8795127868652,591.8795557022095,591.8818643093109,591.8942723274231,592.0444355010986,592.0444355010986,592.0444355010986,592.0444355010986,592.0444355010986,592.0444355010986,592.0444355010986,595.1622366905212,3,3.2661213874816895,None,,,,,,,,,,,,,,,,,,115,3,2025-02-25_14h05.29.902,comp,2024.2.4,59.9493740361128,2025-02-25 14h05.36.466913 -0500,
136,136,0,critical,whd,35.0,3.0,upper,125.0,200.0,200.0,125.0,127.0,127.0,1,2.228668451309204,None,,,,,0,0,0,0,0,136,136,87,595.1776580810547,,,,,,,,,,,,,,,,,,,,,,,,,,,,,,,,,,,,,,,,,,,,,,,,,,,,,,,,,,,,,,,,,,,,,,,,,,,,,,,,,,125.0,200.0,200.0,125.0,127.0,127.0,3.0,3.2,-258,-263,0,19,222,254,595.1630556583405,595.1630976200104,595.1652278900146,595.1776580810547,595.3278481960297,595.3278481960297,595.3278481960297,595.3278481960297,595.3278481960297,595.3278481960297,595.3278481960297,597.4122190475464,1,2.228668451309204,None,,,,,,,,,,,,,,,,,,115,3,2025-02-25_14h05.29.902,comp,2024.2.4,59.9493740361128,2025-02-25 14h05.36.466913 -0500,
137,137,0,critical,hdw,20.0,2.1,upper,200.0,125.0,141.0,141.0,125.0,200.0,3,2.267125368118286,None,,,,,0,0,0,0,0,137,137,47,597.4276547431946,,,,,,,,,,,,,,,,,,,,,,,,,,,,,,,,,,,,,,,,,,,,,,,,,,,,,,,,,,,,,,,,,,,,,,,,,,,,,,,,,,200.0,125.0,141.0,141.0,125.0,200.0,2.1,2.11,-229,271,0,281,266,-271,597.4131200313568,597.4131617546082,597.4153332710266,597.4276547431946,597.5778980255127,597.5778980255127,597.5778980255127,597.5778980255127,597.5778980255127,597.5778980255127,597.5778980255127,599.6959230899811,3,2.267125368118286,None,,,,,,,,,,,,,,,,,,115,3,2025-02-25_14h05.29.902,comp,2024.2.4,59.9493740361128,2025-02-25 14h05.36.466913 -0500,
138,138,0,critical,wdh,35.0,1.0,lower,57.0,133.0,70.0,70.0,133.0,57.0,1,4.6952502727508545,None,,,,,0,0,0,0,0,138,138,72,599.7110841274261,,,,,,,,,,,,,,,,,,,,,,,,,,,,,,,,,,,,,,,,,,,,,,,,,,,,,,,,,,,,,,,,,,,,,,,,,,,,,,,,,,57.0,133.0,70.0,70.0,133.0,57.0,1.0,1.2,-198,-12,0,-9,160,0,599.6967430114746,599.6967854499817,599.6991255283356,599.7110841274261,599.860867023468,599.860867023468,599.860867023468,599.860867023468,599.860867023468,599.860867023468,599.860867023468,604.411958694458,1,4.6952502727508545,None,,,,,,,,,,,,,,,,,,115,3,2025-02-25_14h05.29.902,comp,2024.2.4,59.9493740361128,2025-02-25 14h05.36.466913 -0500,
139,139,0,filler_random,None,None,None,None,None,None,None,None,None,None,1,1.569991111755371,None,,,,,0,0,0,0,0,139,139,139,604.4276041984558,,,,,,,,,,,,,,,,,,,,,,,,,,,,,,,,,,,,,,,,,,,,,,,,,,,,,,,,,,,,,,,,,,,,,,,,,,,,,,,,,,175.13089235419793,195.8856736351856,85.29394959812184,139.9375639820194,133.57767972552057,166.20277799550541,3.0,3.1,-264,257,0,-11,249,-287,604.412844657898,604.4128856658936,604.415242433548,604.4276041984558,604.5777542591095,604.5777542591095,604.5777542591095,604.5777542591095,604.5777542591095,604.5777542591095,604.5777542591095,606.0121076107025,1,1.569991111755371,None,,,,,,,,,,,,,,,,,,115,3,2025-02-25_14h05.29.902,comp,2024.2.4,59.9493740361128,2025-02-25 14h05.36.466913 -0500,
140,140,0,critical,dhw,35.0,2.1,upper,127.0,127.0,200.0,125.0,125.0,200.0,3,3.305954933166504,None,,,,,0,0,0,0,0,140,140,25,606.0273287296295,,,,,,,,,,,,,,,,,,,,,,,,,,,,,,,,,,,,,,,,,,,,,,,,,,,,,,,,,,,,,,,,,,,,,,,,,,,,,,,,,,127.0,127.0,200.0,125.0,125.0,200.0,2.1,2.12,-222,-260,0,-260,258,287,606.0129055976868,606.0129466056824,606.015389919281,606.0273287296295,606.1776702404022,606.1776702404022,606.1776702404022,606.1776702404022,606.1776702404022,606.1776702404022,606.1776702404022,609.3456573486328,3,3.305954933166504,None,,,,,,,,,,,,,,,,,,115,3,2025-02-25_14h05.29.902,comp,2024.2.4,59.9493740361128,2025-02-25 14h05.36.466913 -0500,
