thisN,thisTrialN,thisRepN,effect,order,distance,config,diag,h_1,w_1,h_2,w_2,h_3,w_3,rect_choice.keys,rect_choice.rt,rect_choice.duration,instructions_loop.thisRepN,instructions_loop.thisTrialN,instructions_loop.thisN,instructions_loop.thisIndex,blocks.thisRepN,blocks.thisTrialN,blocks.thisN,blocks.thisIndex,trials.thisRepN,trials.thisTrialN,trials.thisN,trials.thisIndex,thisRow.t,notes,consent.started,agree_button.started,decline_button.started,consent_img.started,mouse.started,consent.stopped,agree_button.numClicks,agree_button.timesOn,agree_button.timesOff,decline_button.numClicks,decline_button.timesOn,decline_button.timesOff,mouse.x,mouse.y,mouse.leftButton,mouse.midButton,mouse.rightButton,mouse.time,mouse.clicked_name,exp_params.started,exp_params.stopped,welcome.started,welcome_text.started,welcome.stopped,instructions_1.started,instructions_1_text_1.started,instructions_1_text_2.started,key_resp.started,instructions_1.stopped,instructions_loop.key_resp.keys,instructions_loop.key_resp.rt,instructions_loop.key_resp.duration,instructions_2.started,instructions_2_text_1.started,instructions_2_text_2.started,key_resp_2.started,instructions_2.stopped,instructions_loop.key_resp_2.keys,instructions_loop.key_resp_2.rt,instructions_loop.key_resp_2.duration,instructions_3.started,instructions_3_text_1.started,r1_instr3.started,r2_instr3.started,r3_instr3.started,r1_instr3_label.started,r2_instr3_label.started,r3_instr3_label.started,instructions_3_text_3.started,instructions_3_text_4.started,key_resp_3.started,instructions_3.stopped,instructions_loop.key_resp_3.keys,instructions_loop.key_resp_3.rt,instructions_loop.key_resp_3.duration,instructions_4.started,instructions_4_text_1.started,instructions_4_text_3.started,instructions_4_text_2.started,key_resp_4.started,instructions_4.stopped,instructions_loop.key_resp_4.keys,instructions_loop.key_resp_4.rt,instructions_loop.key_resp_4.duration,instructions_5.started,instructions_5_text_1.started,instructions_5_text_2.started,key_resp_5.started,instructions_5.stopped,instructions_loop.key_resp_5.keys,instructions_loop.key_resp_5.rt,instructions_loop.key_resp_5.duration,start_exp.started,start_exp_text.started,key_resp_6.started,start_exp.stopped,key_resp_6.keys,key_resp_6.rt,key_resp_6.duration,h_1_tmp,w_1_tmp,h_2_tmp,w_2_tmp,h_3_tmp,w_3_tmp,config_tmp,config_tmp_1,r_1_x,r_1_y,r_2_x,r_2_y,r_3_x,r_3_y,pre_trial.started,pre_trial.stopped,choice_trial.started,rect_choice.started,r_1.started,r_2.started,r_3.started,r_1_label.started,r_2_label.started,r_3_label.started,prompt.started,choice_trial.stopped,trials.rect_choice.keys,trials.rect_choice.rt,trials.rect_choice.duration,end_block.started,end_block_text.started,end_block.stopped,end.started,end_text.started,key_resp_7.started,end.stopped,key_resp_7.keys,key_resp_7.rt,key_resp_7.duration,debriefing.started,debrief_form.started,end_debrief.started,debriefing.stopped,end_debrief.keys,end_debrief.rt,end_debrief.duration,participant,computer,date,expName,psychopyVersion,frameRate,expStart,
,,,,,,,,,,,,,,,,,,,,,,,,,,,,,,,0.014301776885986328,0.036803483963012695,0.036803483963012695,0.036803483963012695,0.014098405838012695,43.10522413253784,1,[43.06593918800354],[43.06596040725708],0,,,[-75.0],[-509.0],[1],[0],[0],[43.09042310714722],['agree_button'],,,,,,,,,,,,,,,,,,,,,,,,,,,,,,,,,,,,,,,,,,,,,,,,,,,,,,,,,,,,,,,,,,,,,,,,,,,,,,,,,,,,,,,,,,,,,,,,,,,,,,,,,,,116,4,2025-02-25_14h06.04.826,comp,2024.2.4,55.33309586944763,2025-02-25 14h06.12.667879 -0500,
,,,,,,,,,,,,,,,,,,,,,,,,,,,,,,,,,,,,,,,,,,,,,,,,,,43.10570049285889,43.10576558113098,,,,,,,,,,,,,,,,,,,,,,,,,,,,,,,,,,,,,,,,,,,,,,,,,,,,,,,,,,,,,,,,,,,,,,,,,,,,,,,,,,,,,,,,,,,,,,,,,,,,,,,,,116,4,2025-02-25_14h06.04.826,comp,2024.2.4,55.33309586944763,2025-02-25 14h06.12.667879 -0500,
,,,,,,,,,,,,,,,,,,,,,,,,,,,,,,,,,,,,,,,,,,,,,,,,,,,,43.10584259033203,43.12288165092468,45.10958790779114,,,,,,,,,,,,,,,,,,,,,,,,,,,,,,,,,,,,,,,,,,,,,,,,,,,,,,,,,,,,,,,,,,,,,,,,,,,,,,,,,,,,,,,,,,,,,,,,,,,,,,116,4,2025-02-25_14h06.04.826,comp,2024.2.4,55.33309586944763,2025-02-25 14h06.12.667879 -0500,
0,0,0,,,,,,,,,,,,,,,0,0,0,0,,,,,,,,,45.12566590309143,,,,,,,,,,,,,,,,,,,,,,,,,,45.11046004295349,45.12566590309143,45.12566590309143,46.60971426963806,51.495211362838745,space,4.8728110790252686,None,51.49536657333374,51.51188850402832,51.51188850402832,52.994869232177734,58.064266204833984,space,5.064598798751831,None,58.0644154548645,58.094016790390015,58.094016790390015,58.094016790390015,58.094016790390015,58.094016790390015,58.094016790390015,58.094016790390015,58.094016790390015,58.094016790390015,59.57235312461853,67.60390281677246,space,8.01431679725647,None,67.60406994819641,67.62036085128784,67.62036085128784,67.62036085128784,69.11637306213379,73.98566269874573,space,4.854332447052002,None,73.98585081100464,74.00107431411743,74.00107431411743,75.48485565185547,78.93813109397888,space,3.4377777576446533,None,78.93832993507385,78.94931125640869,78.94931125640869,80.70337581634521,space,1.7412190437316895,None,,,,,,,,,,,,,,,,,,,,,,,,,,,,,,,,,,,,,,,,,,,,,,,116,4,2025-02-25_14h06.04.826,comp,2024.2.4,55.33309586944763,2025-02-25 14h06.12.667879 -0500,
0,0,0,critical,dhw,20.0,1.0,upper,141.0,141.0,200.0,125.0,125.0,200.0,3,20.97576093673706,None,,,,,0,0,0,0,0,0,0,55,80.77970266342163,,,,,,,,,,,,,,,,,,,,,,,,,,,,,,,,,,,,,,,,,,,,,,,,,,,,,,,,,,,,,,,,,,,,,,,,,,,,,,,,,141.0,141.0,200.0,125.0,125.0,200.0,1.0,1.3,251,-286,480,-265,738,-287,80.76341414451599,80.76345539093018,80.76503086090088,80.77970266342163,80.93018054962158,80.93018054962158,80.93018054962158,80.93018054962158,80.93018054962158,80.93018054962158,80.93018054962158,101.76149606704712,3,20.97576093673706,None,,,,,,,,,,,,,,,,,,116,4,2025-02-25_14h06.04.826,comp,2024.2.4,55.33309586944763,2025-02-25 14h06.12.667879 -0500,
1,1,0,filler_random,None,None,None,None,None,None,None,None,None,None,2,4.465457201004028,None,,,,,0,0,0,0,0,1,1,135,101.7774772644043,,,,,,,,,,,,,,,,,,,,,,,,,,,,,,,,,,,,,,,,,,,,,,,,,,,,,,,,,,,,,,,,,,,,,,,,,,,,,,,,,121.50391149384225,70.26965335404475,132.9410706475212,171.44630468387342,85.3540477012321,173.79281721208872,1.0,1.1,-697,254,-480,285,-211,263,101.76321196556091,101.76328992843628,101.76673889160156,101.7774772644043,101.92776918411255,101.92776918411255,101.92776918411255,101.92776918411255,101.92776918411255,101.92776918411255,101.92776918411255,106.24521899223328,2,4.465457201004028,None,,,,,,,,,,,,,,,,,,116,4,2025-02-25_14h06.04.826,comp,2024.2.4,55.33309586944763,2025-02-25 14h06.12.667879 -0500,
2,2,0,filler_random,None,None,None,None,None,None,None,None,None,None,2,2.7158703804016113,None,,,,,0,0,0,0,0,2,2,167,106.26356434822083,,,,,,,,,,,,,,,,,,,,,,,,,,,,,,,,,,,,,,,,,,,,,,,,,,,,,,,,,,,,,,,,,,,,,,,,,,,,,,,,,136.04908830855828,139.9001623988351,171.82723120208894,168.8643358396301,65.26009743598544,67.60541185308023,4.0,4.2,-250,-12,0,-290,214,13,106.24704694747925,106.24717712402344,106.2505235671997,106.26356434822083,106.41387438774109,106.41387438774109,106.41387438774109,106.41387438774109,106.41387438774109,106.41387438774109,106.41387438774109,108.98444271087646,2,2.7158703804016113,None,,,,,,,,,,,,,,,,,,116,4,2025-02-25_14h06.04.826,comp,2024.2.4,55.33309586944763,2025-02-25 14h06.12.667879 -0500,
3,3,0,catch,None,None,None,None,None,None,None,None,None,None,2,2.9373326301574707,None,,,,,0,0,0,0,0,3,3,122,109.0021984577179,,,,,,,,,,,,,,,,,,,,,,,,,,,,,,,,,,,,,,,,,,,,,,,,,,,,,,,,,,,,,,,,,,,,,,,,,,,,,,,,,92,98,163,162,98,92,2.1,2.12,-226,-279,0,-282,223,269,108.98667621612549,108.98675584793091,108.99049758911133,109.0021984577179,109.14714336395264,109.14714336395264,109.14714336395264,109.14714336395264,109.14714336395264,109.14714336395264,109.14714336395264,111.94870662689209,2,2.9373326301574707,None,,,,,,,,,,,,,,,,,,116,4,2025-02-25_14h06.04.826,comp,2024.2.4,55.33309586944763,2025-02-25 14h06.12.667879 -0500,
4,4,0,critical,whd,20.0,1.0,lower,57.0,133.0,133.0,57.0,78.0,78.0,1,5.188533782958984,None,,,,,0,0,0,0,0,4,4,90,111.96723341941833,,,,,,,,,,,,,,,,,,,,,,,,,,,,,,,,,,,,,,,,,,,,,,,,,,,,,,,,,,,,,,,,,,,,,,,,,,,,,,,,,57.0,133.0,133.0,57.0,78.0,78.0,1.0,1.3,289,-251,480,-285,644,-277,111.95039343833923,111.95051050186157,111.95412516593933,111.96723341941833,112.10271620750427,112.10271620750427,112.10271620750427,112.10271620750427,112.10271620750427,112.10271620750427,112.10271620750427,117.16682600975037,1,5.188533782958984,None,,,,,,,,,,,,,,,,,,116,4,2025-02-25_14h06.04.826,comp,2024.2.4,55.33309586944763,2025-02-25 14h06.12.667879 -0500,
5,5,0,filler_random,None,None,None,None,None,None,None,None,None,None,1,2.312145471572876,None,,,,,0,0,0,0,0,5,5,156,117.18672943115234,,,,,,,,,,,,,,,,,,,,,,,,,,,,,,,,,,,,,,,,,,,,,,,,,,,,,,,,,,,,,,,,,,,,,,,,,,,,,,,,,199.69511759081604,171.2759209382749,95.64727520478027,107.12108734939744,58.320865122723596,198.2627340898292,1.0,1.2,-235,-15,0,9,249,10,117.16844248771667,117.16851854324341,117.17243790626526,117.18672943115234,117.3314528465271,117.3314528465271,117.3314528465271,117.3314528465271,117.3314528465271,117.3314528465271,117.3314528465271,119.50125217437744,1,2.312145471572876,None,,,,,,,,,,,,,,,,,,116,4,2025-02-25_14h06.04.826,comp,2024.2.4,55.33309586944763,2025-02-25 14h06.12.667879 -0500,
6,6,0,critical,hdw,35.0,1.0,upper,200.0,125.0,127.0,127.0,125.0,200.0,3,4.172273874282837,None,,,,,0,0,0,0,0,6,6,109,119.51975846290588,,,,,,,,,,,,,,,,,,,,,,,,,,,,,,,,,,,,,,,,,,,,,,,,,,,,,,,,,,,,,,,,,,,,,,,,,,,,,,,,,200.0,125.0,127.0,127.0,125.0,200.0,1.0,1.3,258,-269,480,-270,740,-286,119.50291204452515,119.50303936004639,119.50651454925537,119.51975846290588,119.66722846031189,119.66722846031189,119.66722846031189,119.66722846031189,119.66722846031189,119.66722846031189,119.66722846031189,123.7031524181366,3,4.172273874282837,None,,,,,,,,,,,,,,,,,,116,4,2025-02-25_14h06.04.826,comp,2024.2.4,55.33309586944763,2025-02-25 14h06.12.667879 -0500,
7,7,0,filler_random,None,None,None,None,None,None,None,None,None,None,1,1.8992345333099365,None,,,,,0,0,0,0,0,7,7,139,123.71958136558533,,,,,,,,,,,,,,,,,,,,,,,,,,,,,,,,,,,,,,,,,,,,,,,,,,,,,,,,,,,,,,,,,,,,,,,,,,,,,,,,,196.30690943636728,143.13233074778907,71.09570355202663,117.88719010447741,67.15350788775238,141.35148843435172,1.0,1.3,253,-267,480,-253,706,-261,123.70510911941528,123.7052309513092,123.70866179466248,123.71958136558533,123.87693452835083,123.87693452835083,123.87693452835083,123.87693452835083,123.87693452835083,123.87693452835083,123.87693452835083,125.62398386001587,1,1.8992345333099365,None,,,,,,,,,,,,,,,,,,116,4,2025-02-25_14h06.04.826,comp,2024.2.4,55.33309586944763,2025-02-25 14h06.12.667879 -0500,
8,8,0,filler_square,None,None,None,None,None,None,None,None,None,None,3,2.5055832862854004,None,,,,,0,0,0,0,0,8,8,187,125.64183688163757,,,,,,,,,,,,,,,,,,,,,,,,,,,,,,,,,,,,,,,,,,,,,,,,,,,,,,,,,,,,,,,,,,,,,,,,,,,,,,,,,80.8960803631698,137.5829862232684,59.46409125117639,69.7717749954695,179.2684459218075,179.2684459218075,4.0,4.2,-200,2,0,-260,221,-3,125.62568545341492,125.62576150894165,125.62873911857605,125.64183688163757,125.78488492965698,125.78488492965698,125.78488492965698,125.78488492965698,125.78488492965698,125.78488492965698,125.78488492965698,128.1532120704651,3,2.5055832862854004,None,,,,,,,,,,,,,,,,,,116,4,2025-02-25_14h06.04.826,comp,2024.2.4,55.33309586944763,2025-02-25 14h06.12.667879 -0500,
9,9,0,critical,hwd,20.0,1.0,lower,133.0,57.0,57.0,133.0,78.0,78.0,2,7.275257349014282,None,,,,,0,0,0,0,0,9,9,102,128.1697657108307,,,,,,,,,,,,,,,,,,,,,,,,,,,,,,,,,,,,,,,,,,,,,,,,,,,,,,,,,,,,,,,,,,,,,,,,,,,,,,,,,133.0,57.0,57.0,133.0,78.0,78.0,1.0,1.2,-191,8,0,12,202,-4,128.15483355522156,128.15491795539856,128.1586000919342,128.1697657108307,128.3236620426178,128.3236620426178,128.3236620426178,128.3236620426178,128.3236620426178,128.3236620426178,128.3236620426178,135.45529055595398,2,7.275257349014282,None,,,,,,,,,,,,,,,,,,116,4,2025-02-25_14h06.04.826,comp,2024.2.4,55.33309586944763,2025-02-25 14h06.12.667879 -0500,
10,10,0,critical,wdh,35.0,1.0,upper,125.0,200.0,127.0,127.0,200.0,125.0,3,3.8195502758026123,None,,,,,0,0,0,0,0,10,10,73,135.47112846374512,,,,,,,,,,,,,,,,,,,,,,,,,,,,,,,,,,,,,,,,,,,,,,,,,,,,,,,,,,,,,,,,,,,,,,,,,,,,,,,,,125.0,200.0,127.0,127.0,200.0,125.0,1.0,1.2,-260,11,0,6,222,7,135.45676708221436,135.45688009262085,135.46043014526367,135.47112846374512,135.62038826942444,135.62038826942444,135.62038826942444,135.62038826942444,135.62038826942444,135.62038826942444,135.62038826942444,139.3058729171753,3,3.8195502758026123,None,,,,,,,,,,,,,,,,,,116,4,2025-02-25_14h06.04.826,comp,2024.2.4,55.33309586944763,2025-02-25 14h06.12.667879 -0500,
11,11,0,critical,dhw,20.0,1.0,lower,78.0,78.0,133.0,57.0,57.0,133.0,2,17.032604694366455,None,,,,,0,0,0,0,0,11,11,54,139.32204914093018,,,,,,,,,,,,,,,,,,,,,,,,,,,,,,,,,,,,,,,,,,,,,,,,,,,,,,,,,,,,,,,,,,,,,,,,,,,,,,,,,78.0,78.0,133.0,57.0,57.0,133.0,1.0,1.3,316,-283,480,-286,671,-284,139.30737447738647,139.30744862556458,139.310889005661,139.32204914093018,139.4738507270813,139.4738507270813,139.4738507270813,139.4738507270813,139.4738507270813,139.4738507270813,139.4738507270813,156.37061166763306,2,17.032604694366455,None,,,,,,,,,,,,,,,,,,116,4,2025-02-25_14h06.04.826,comp,2024.2.4,55.33309586944763,2025-02-25 14h06.12.667879 -0500,
12,12,0,critical,hwd,35.0,1.0,lower,133.0,57.0,57.0,133.0,70.0,70.0,2,5.811900854110718,None,,,,,0,0,0,0,0,12,12,96,156.39101243019104,,,,,,,,,,,,,,,,,,,,,,,,,,,,,,,,,,,,,,,,,,,,,,,,,,,,,,,,,,,,,,,,,,,,,,,,,,,,,,,,,133.0,57.0,57.0,133.0,70.0,70.0,1.0,1.2,-191,2,0,-13,198,-17,156.37223315238953,156.37230777740479,156.37572765350342,156.39101243019104,156.53218340873718,156.53218340873718,156.53218340873718,156.53218340873718,156.53218340873718,156.53218340873718,156.53218340873718,162.20505475997925,2,5.811900854110718,None,,,,,,,,,,,,,,,,,,116,4,2025-02-25_14h06.04.826,comp,2024.2.4,55.33309586944763,2025-02-25 14h06.12.667879 -0500,
13,13,0,critical,whd,20.0,2.1,lower,57.0,133.0,133.0,57.0,78.0,78.0,1,16.033626079559326,None,,,,,0,0,0,0,0,13,13,14,162.22577953338623,,,,,,,,,,,,,,,,,,,,,,,,,,,,,,,,,,,,,,,,,,,,,,,,,,,,,,,,,,,,,,,,,,,,,,,,,,,,,,,,,57.0,133.0,133.0,57.0,78.0,78.0,2.1,2.12,-191,-276,0,-265,164,263,162.20668697357178,162.20676374435425,162.21010208129883,162.22577953338623,162.3643798828125,162.3643798828125,162.3643798828125,162.3643798828125,162.3643798828125,162.3643798828125,162.3643798828125,178.26879477500916,1,16.033626079559326,None,,,,,,,,,,,,,,,,,,116,4,2025-02-25_14h06.04.826,comp,2024.2.4,55.33309586944763,2025-02-25 14h06.12.667879 -0500,
14,14,0,critical,hdw,35.0,3.0,upper,200.0,125.0,127.0,127.0,125.0,200.0,3,3.0056848526000977,None,,,,,0,0,0,0,0,14,14,111,178.2849998474121,,,,,,,,,,,,,,,,,,,,,,,,,,,,,,,,,,,,,,,,,,,,,,,,,,,,,,,,,,,,,,,,,,,,,,,,,,,,,,,,,200.0,125.0,127.0,127.0,125.0,200.0,3.0,3.1,-222,262,0,-5,260,-253,178.27047157287598,178.27059841156006,178.27415657043457,178.2849998474121,178.42311096191406,178.42311096191406,178.42311096191406,178.42311096191406,178.42311096191406,178.42311096191406,178.42311096191406,181.30249333381653,3,3.0056848526000977,None,,,,,,,,,,,,,,,,,,116,4,2025-02-25_14h06.04.826,comp,2024.2.4,55.33309586944763,2025-02-25 14h06.12.667879 -0500,
15,15,0,filler_random,None,None,None,None,None,None,None,None,None,None,1,1.6992981433868408,None,,,,,0,0,0,0,0,15,15,146,181.31947469711304,,,,,,,,,,,,,,,,,,,,,,,,,,,,,,,,,,,,,,,,,,,,,,,,,,,,,,,,,,,,,,,,,,,,,,,,,,,,,,,,,175.11498694093933,151.34567556814034,113.87311578110896,81.7747857708912,134.06262224879623,60.31657133383544,1.0,1.1,-693,266,-480,287,-313,269,181.30426144599915,181.30433821678162,181.30784511566162,181.31947469711304,181.46971487998962,181.46971487998962,181.46971487998962,181.46971487998962,181.46971487998962,181.46971487998962,181.46971487998962,183.03656363487244,1,1.6992981433868408,None,,,,,,,,,,,,,,,,,,116,4,2025-02-25_14h06.04.826,comp,2024.2.4,55.33309586944763,2025-02-25 14h06.12.667879 -0500,
16,16,0,critical,hwd,20.0,3.0,upper,200.0,125.0,125.0,200.0,141.0,141.0,2,2.838705539703369,None,,,,,0,0,0,0,0,16,16,105,183.0520076751709,,,,,,,,,,,,,,,,,,,,,,,,,,,,,,,,,,,,,,,,,,,,,,,,,,,,,,,,,,,,,,,,,,,,,,,,,,,,,,,,,200.0,125.0,125.0,200.0,141.0,141.0,3.0,3.2,-258,-271,0,-9,266,266,183.0380835533142,183.03815746307373,183.0417718887329,183.0520076751709,183.2037467956543,183.2037467956543,183.2037467956543,183.2037467956543,183.2037467956543,183.2037467956543,183.2037467956543,185.90598225593567,2,2.838705539703369,None,,,,,,,,,,,,,,,,,,116,4,2025-02-25_14h06.04.826,comp,2024.2.4,55.33309586944763,2025-02-25 14h06.12.667879 -0500,
17,17,0,filler_square,None,None,None,None,None,None,None,None,None,None,1,1.4324743747711182,None,,,,,0,0,0,0,0,17,17,189,185.92230916023254,,,,,,,,,,,,,,,,,,,,,,,,,,,,,,,,,,,,,,,,,,,,,,,,,,,,,,,,,,,,,,,,,,,,,,,,,,,,,,,,,157.7604297756871,157.7604297756871,87.68575599421949,68.92329325301435,107.21016813688178,155.78374178383098,2.1,2.12,-209,-272,0,-288,208,272,185.908105134964,185.90818428993225,185.9112093448639,185.92230916023254,186.07490158081055,186.07490158081055,186.07490158081055,186.07490158081055,186.07490158081055,186.07490158081055,186.07490158081055,187.37095665931702,1,1.4324743747711182,None,,,,,,,,,,,,,,,,,,116,4,2025-02-25_14h06.04.826,comp,2024.2.4,55.33309586944763,2025-02-25 14h06.12.667879 -0500,
18,18,0,critical,dhw,35.0,4.0,upper,127.0,127.0,200.0,125.0,125.0,200.0,2,2.5041303634643555,None,,,,,0,0,0,0,0,18,18,53,187.38687777519226,,,,,,,,,,,,,,,,,,,,,,,,,,,,,,,,,,,,,,,,,,,,,,,,,,,,,,,,,,,,,,,,,,,,,,,,,,,,,,,,,127.0,127.0,200.0,125.0,125.0,200.0,4.0,4.1,-222,-255,0,6,258,-272,187.372460603714,187.37253332138062,187.37566685676575,187.38687777519226,187.53833389282227,187.53833389282227,187.53833389282227,187.53833389282227,187.53833389282227,187.53833389282227,187.53833389282227,189.89538311958313,2,2.5041303634643555,None,,,,,,,,,,,,,,,,,,116,4,2025-02-25_14h06.04.826,comp,2024.2.4,55.33309586944763,2025-02-25 14h06.12.667879 -0500,
19,19,0,critical,hwd,35.0,2.1,lower,133.0,57.0,57.0,133.0,70.0,70.0,3,7.483655214309692,None,,,,,0,0,0,0,0,19,19,40,189.91129207611084,,,,,,,,,,,,,,,,,,,,,,,,,,,,,,,,,,,,,,,,,,,,,,,,,,,,,,,,,,,,,,,,,,,,,,,,,,,,,,,,,133.0,57.0,57.0,133.0,70.0,70.0,2.1,2.11,-191,259,0,260,198,-257,189.89691829681396,189.8969955444336,189.89996981620789,189.91129207611084,190.05556654930115,190.05556654930115,190.05556654930115,190.05556654930115,190.05556654930115,190.05556654930115,190.05556654930115,197.40807962417603,3,7.483655214309692,None,,,,,,,,,,,,,,,,,,116,4,2025-02-25_14h06.04.826,comp,2024.2.4,55.33309586944763,2025-02-25 14h06.12.667879 -0500,
20,20,0,filler_random,None,None,None,None,None,None,None,None,None,None,1,3.2607760429382324,None,,,,,0,0,0,0,0,20,20,163,197.4243083000183,,,,,,,,,,,,,,,,,,,,,,,,,,,,,,,,,,,,,,,,,,,,,,,,,,,,,,,,,,,,,,,,,,,,,,,,,,,,,,,,,128.25114432160188,173.1902986994462,101.06026562821978,177.66588599665332,95.40750832608218,165.7698906562489,1.0,1.2,-271,11,0,9,268,16,197.4097864627838,197.40988612174988,197.4140429496765,197.4243083000183,197.57421278953552,197.57421278953552,197.57421278953552,197.57421278953552,197.57421278953552,197.57421278953552,197.57421278953552,200.69099116325378,1,3.2607760429382324,None,,,,,,,,,,,,,,,,,,116,4,2025-02-25_14h06.04.826,comp,2024.2.4,55.33309586944763,2025-02-25 14h06.12.667879 -0500,
21,21,0,filler_random,None,None,None,None,None,None,None,None,None,None,1,3.8955180644989014,None,,,,,0,0,0,0,0,21,21,131,200.70785355567932,,,,,,,,,,,,,,,,,,,,,,,,,,,,,,,,,,,,,,,,,,,,,,,,,,,,,,,,,,,,,,,,,,,,,,,,,,,,,,,,,167.74632703640845,89.99330152956918,88.80605327734293,118.96770526146426,142.62638779972556,91.09643377731584,3.0,3.2,-200,-279,0,-19,201,253,200.6927330493927,200.6928346157074,200.6961555480957,200.70785355567932,200.84548163414001,200.84548163414001,200.84548163414001,200.84548163414001,200.84548163414001,200.84548163414001,200.84548163414001,204.61094760894775,1,3.8955180644989014,None,,,,,,,,,,,,,,,,,,116,4,2025-02-25_14h06.04.826,comp,2024.2.4,55.33309586944763,2025-02-25 14h06.12.667879 -0500,
22,22,0,critical,wdh,20.0,2.1,lower,57.0,133.0,78.0,78.0,133.0,57.0,2,2.08022403717041,None,,,,,0,0,0,0,0,22,22,10,204.6268470287323,,,,,,,,,,,,,,,,,,,,,,,,,,,,,,,,,,,,,,,,,,,,,,,,,,,,,,,,,,,,,,,,,,,,,,,,,,,,,,,,,57.0,133.0,78.0,78.0,133.0,57.0,2.1,2.12,-202,-283,0,-256,164,281,204.61250162124634,204.61257886886597,204.61610507965088,204.6268470287323,204.78062224388123,204.78062224388123,204.78062224388123,204.78062224388123,204.78062224388123,204.78062224388123,204.78062224388123,206.71142864227295,2,2.08022403717041,None,,,,,,,,,,,,,,,,,,116,4,2025-02-25_14h06.04.826,comp,2024.2.4,55.33309586944763,2025-02-25 14h06.12.667879 -0500,
23,23,0,filler_square,None,None,None,None,None,None,None,None,None,None,1,2.5575499534606934,None,,,,,0,0,0,0,0,23,23,170,206.72735953330994,,,,,,,,,,,,,,,,,,,,,,,,,,,,,,,,,,,,,,,,,,,,,,,,,,,,,,,,,,,,,,,,,,,,,,,,,,,,,,,,,126.08440950035752,126.08440950035752,98.92484862493373,92.86142320192424,106.85405704340317,119.64697829327218,4.0,4.2,-205,-5,0,-267,202,-7,206.71324682235718,206.71332240104675,206.71652579307556,206.72735953330994,206.8780493736267,206.8780493736267,206.8780493736267,206.8780493736267,206.8780493736267,206.8780493736267,206.8780493736267,209.295423746109,1,2.5575499534606934,None,,,,,,,,,,,,,,,,,,116,4,2025-02-25_14h06.04.826,comp,2024.2.4,55.33309586944763,2025-02-25 14h06.12.667879 -0500,
24,24,0,filler_random,None,None,None,None,None,None,None,None,None,None,3,2.074979305267334,None,,,,,0,0,0,0,0,24,24,151,209.31196784973145,,,,,,,,,,,,,,,,,,,,,,,,,,,,,,,,,,,,,,,,,,,,,,,,,,,,,,,,,,,,,,,,,,,,,,,,,,,,,,,,,61.821460841390504,195.59645287140594,78.00123096715367,134.27424816596823,80.81043572348604,195.01798576278915,2.2,2.21,-261,-268,0,276,261,283,209.29735684394836,209.29743885993958,209.30107998847961,209.31196784973145,209.4607219696045,209.4607219696045,209.4607219696045,209.4607219696045,209.4607219696045,209.4607219696045,209.4607219696045,211.39866948127747,3,2.074979305267334,None,,,,,,,,,,,,,,,,,,116,4,2025-02-25_14h06.04.826,comp,2024.2.4,55.33309586944763,2025-02-25 14h06.12.667879 -0500,
25,25,0,filler_random,None,None,None,None,None,None,None,None,None,None,1,1.4258325099945068,None,,,,,0,0,0,0,0,25,25,164,211.417573928833,,,,,,,,,,,,,,,,,,,,,,,,,,,,,,,,,,,,,,,,,,,,,,,,,,,,,,,,,,,,,,,,,,,,,,,,,,,,,,,,,174.1922794959343,198.633843592511,83.66621622653332,62.8907975402607,175.80891309555346,160.34431709102944,2.1,2.12,-227,-282,0,-272,208,265,211.40039539337158,211.40052890777588,211.4040548801422,211.417573928833,211.56185626983643,211.56185626983643,211.56185626983643,211.56185626983643,211.56185626983643,211.56185626983643,211.56185626983643,212.84841132164001,1,1.4258325099945068,None,,,,,,,,,,,,,,,,,,116,4,2025-02-25_14h06.04.826,comp,2024.2.4,55.33309586944763,2025-02-25 14h06.12.667879 -0500,
26,26,0,critical,wdh,20.0,4.0,lower,57.0,133.0,78.0,78.0,133.0,57.0,1,8.065924882888794,None,,,,,0,0,0,0,0,26,26,82,212.86490273475647,,,,,,,,,,,,,,,,,,,,,,,,,,,,,,,,,,,,,,,,,,,,,,,,,,,,,,,,,,,,,,,,,,,,,,,,,,,,,,,,,57.0,133.0,78.0,78.0,133.0,57.0,4.0,4.1,-202,-254,0,-19,164,-278,212.85011506080627,212.8502552509308,212.85372185707092,212.86490273475647,213.0137014389038,213.0137014389038,213.0137014389038,213.0137014389038,213.0137014389038,213.0137014389038,213.0137014389038,220.93383145332336,1,8.065924882888794,None,,,,,,,,,,,,,,,,,,116,4,2025-02-25_14h06.04.826,comp,2024.2.4,55.33309586944763,2025-02-25 14h06.12.667879 -0500,
27,27,0,critical,hdw,20.0,3.0,upper,200.0,125.0,141.0,141.0,125.0,200.0,3,2.8027567863464355,None,,,,,0,0,0,0,0,27,27,117,220.95262956619263,,,,,,,,,,,,,,,,,,,,,,,,,,,,,,,,,,,,,,,,,,,,,,,,,,,,,,,,,,,,,,,,,,,,,,,,,,,,,,,,,200.0,125.0,141.0,141.0,125.0,200.0,3.0,3.2,-229,-269,0,-11,266,257,220.9355387687683,220.93561935424805,220.9394974708557,220.95262956619263,221.10196590423584,221.10196590423584,221.10196590423584,221.10196590423584,221.10196590423584,221.10196590423584,221.10196590423584,223.76522970199585,3,2.8027567863464355,None,,,,,,,,,,,,,,,,,,116,4,2025-02-25_14h06.04.826,comp,2024.2.4,55.33309586944763,2025-02-25 14h06.12.667879 -0500,
28,28,0,critical,whd,35.0,4.0,lower,57.0,133.0,133.0,57.0,70.0,70.0,1,4.0518107414245605,None,,,,,0,0,0,0,0,28,28,88,223.7828905582428,,,,,,,,,,,,,,,,,,,,,,,,,,,,,,,,,,,,,,,,,,,,,,,,,,,,,,,,,,,,,,,,,,,,,,,,,,,,,,,,,57.0,133.0,133.0,57.0,70.0,70.0,4.0,4.2,-191,12,0,-279,160,14,223.76675367355347,223.76686549186707,223.7702124118805,223.7828905582428,223.93964886665344,223.93964886665344,223.93964886665344,223.93964886665344,223.93964886665344,223.93964886665344,223.93964886665344,227.85025095939636,1,4.0518107414245605,None,,,,,,,,,,,,,,,,,,116,4,2025-02-25_14h06.04.826,comp,2024.2.4,55.33309586944763,2025-02-25 14h06.12.667879 -0500,
29,29,0,filler_square,None,None,None,None,None,None,None,None,None,None,1,1.5497751235961914,None,,,,,0,0,0,0,0,29,29,208,227.86958861351013,,,,,,,,,,,,,,,,,,,,,,,,,,,,,,,,,,,,,,,,,,,,,,,,,,,,,,,,,,,,,,,,,,,,,,,,,,,,,,,,,159.77566578469623,159.77566578469623,110.63360690254552,143.65391970111006,153.32303133708103,137.41347220907716,4.0,4.1,-248,-266,0,-17,237,-257,227.85226225852966,227.85233688354492,227.85569262504578,227.86958861351013,228.0033984184265,228.0033984184265,228.0033984184265,228.0033984184265,228.0033984184265,228.0033984184265,228.0033984184265,229.422504901886,1,1.5497751235961914,None,,,,,,,,,,,,,,,,,,116,4,2025-02-25_14h06.04.826,comp,2024.2.4,55.33309586944763,2025-02-25 14h06.12.667879 -0500,
30,30,0,filler_square,None,None,None,None,None,None,None,None,None,None,1,0.9555115699768066,None,,,,,0,0,0,0,0,30,30,175,229.43978333473206,,,,,,,,,,,,,,,,,,,,,,,,,,,,,,,,,,,,,,,,,,,,,,,,,,,,,,,,,,,,,,,,,,,,,,,,,,,,,,,,,192.4743700995862,192.4743700995862,130.84784363900684,127.29409966370903,68.47027577935967,105.57568426225566,4.0,4.1,-256,-270,0,-3,212,-259,229.42461562156677,229.42469382286072,229.42851758003235,229.43978333473206,229.58407878875732,229.58407878875732,229.58407878875732,229.58407878875732,229.58407878875732,229.58407878875732,229.58407878875732,230.3992793560028,1,0.9555115699768066,None,,,,,,,,,,,,,,,,,,116,4,2025-02-25_14h06.04.826,comp,2024.2.4,55.33309586944763,2025-02-25 14h06.12.667879 -0500,
31,31,0,filler_random,None,None,None,None,None,None,None,None,None,None,3,2.7554771900177,None,,,,,0,0,0,0,0,31,31,150,230.4158821105957,,,,,,,,,,,,,,,,,,,,,,,,,,,,,,,,,,,,,,,,,,,,,,,,,,,,,,,,,,,,,,,,,,,,,,,,,,,,,,,,,174.30576956551738,62.330906838307946,176.00660516549794,96.97749032129931,174.83227339931364,132.25426238033202,1.0,1.2,-176,-10,0,-12,211,-11,230.40100479125977,230.4010820388794,230.4040675163269,230.4158821105957,230.55293941497803,230.55293941497803,230.55293941497803,230.55293941497803,230.55293941497803,230.55293941497803,230.55293941497803,233.17928457260132,3,2.7554771900177,None,,,,,,,,,,,,,,,,,,116,4,2025-02-25_14h06.04.826,comp,2024.2.4,55.33309586944763,2025-02-25 14h06.12.667879 -0500,
32,32,0,critical,wdh,35.0,3.0,upper,125.0,200.0,127.0,127.0,200.0,125.0,1,6.154973745346069,None,,,,,0,0,0,0,0,32,32,75,233.19977188110352,,,,,,,,,,,,,,,,,,,,,,,,,,,,,,,,,,,,,,,,,,,,,,,,,,,,,,,,,,,,,,,,,,,,,,,,,,,,,,,,,125.0,200.0,127.0,127.0,200.0,125.0,3.0,3.1,-260,279,0,-8,222,-254,233.1808488368988,233.18092727661133,233.18402743339539,233.19977188110352,233.33666968345642,233.33666968345642,233.33666968345642,233.33666968345642,233.33666968345642,233.33666968345642,233.33666968345642,239.37107825279236,1,6.154973745346069,None,,,,,,,,,,,,,,,,,,116,4,2025-02-25_14h06.04.826,comp,2024.2.4,55.33309586944763,2025-02-25 14h06.12.667879 -0500,
33,33,0,catch,None,None,None,None,None,None,None,None,None,None,2,1.4879977703094482,None,,,,,0,0,0,0,0,33,33,126,239.3868956565857,,,,,,,,,,,,,,,,,,,,,,,,,,,,,,,,,,,,,,,,,,,,,,,,,,,,,,,,,,,,,,,,,,,,,,,,,,,,,,,,,77,113,185,140,116,74,2.1,2.11,-222,275,0,276,203,-286,239.3731336593628,239.37320971488953,239.37667870521545,239.3868956565857,239.52596807479858,239.52596807479858,239.52596807479858,239.52596807479858,239.52596807479858,239.52596807479858,239.52596807479858,240.88817596435547,2,1.4879977703094482,None,,,,,,,,,,,,,,,,,,116,4,2025-02-25_14h06.04.826,comp,2024.2.4,55.33309586944763,2025-02-25 14h06.12.667879 -0500,
34,34,0,filler_square,None,None,None,None,None,None,None,None,None,None,1,4.522058963775635,None,,,,,0,0,0,0,0,34,34,173,240.90470576286316,,,,,,,,,,,,,,,,,,,,,,,,,,,,,,,,,,,,,,,,,,,,,,,,,,,,,,,,,,,,,,,,,,,,,,,,,,,,,,,,,58.39775248897557,57.33925658534378,58.732996388074454,59.21206946868326,59.725714045417526,59.725714045417526,2.1,2.12,-154,-289,0,-268,155,267,240.89022517204285,240.89030075073242,240.89407348632812,240.90470576286316,241.05352330207825,241.05352330207825,241.05352330207825,241.05352330207825,241.05352330207825,241.05352330207825,241.05352330207825,245.44072103500366,1,4.522058963775635,None,,,,,,,,,,,,,,,,,,116,4,2025-02-25_14h06.04.826,comp,2024.2.4,55.33309586944763,2025-02-25 14h06.12.667879 -0500,
35,35,0,filler_random,None,None,None,None,None,None,None,None,None,None,1,1.6114907264709473,None,,,,,0,0,0,0,0,35,35,158,245.4561038017273,,,,,,,,,,,,,,,,,,,,,,,,,,,,,,,,,,,,,,,,,,,,,,,,,,,,,,,,,,,,,,,,,,,,,,,,,,,,,,,,,116.90908744305762,164.22290570429777,63.86300048711683,196.18521852226482,84.13029494287036,65.1593304475933,1.0,1.1,-756,250,-480,283,-253,278,245.44251251220703,245.44263458251953,245.44586825370789,245.4561038017273,245.61194944381714,245.61194944381714,245.61194944381714,245.61194944381714,245.61194944381714,245.61194944381714,245.61194944381714,247.07220339775085,1,1.6114907264709473,None,,,,,,,,,,,,,,,,,,116,4,2025-02-25_14h06.04.826,comp,2024.2.4,55.33309586944763,2025-02-25 14h06.12.667879 -0500,
36,36,0,critical,dwh,20.0,3.0,lower,78.0,78.0,57.0,133.0,133.0,57.0,1,4.44936990737915,None,,,,,0,0,0,0,0,36,36,68,247.0894374847412,,,,,,,,,,,,,,,,,,,,,,,,,,,,,,,,,,,,,,,,,,,,,,,,,,,,,,,,,,,,,,,,,,,,,,,,,,,,,,,,,78.0,78.0,57.0,133.0,133.0,57.0,3.0,3.2,-202,-283,0,8,191,272,247.07389402389526,247.07398438453674,247.0775215625763,247.0894374847412,247.24287605285645,247.24287605285645,247.24287605285645,247.24287605285645,247.24287605285645,247.24287605285645,247.24287605285645,251.54245495796204,1,4.44936990737915,None,,,,,,,,,,,,,,,,,,116,4,2025-02-25_14h06.04.826,comp,2024.2.4,55.33309586944763,2025-02-25 14h06.12.667879 -0500,
37,37,0,catch,None,None,None,None,None,None,None,None,None,None,1,0.9969220161437988,None,,,,,0,0,0,0,0,37,37,123,251.55859470367432,,,,,,,,,,,,,,,,,,,,,,,,,,,,,,,,,,,,,,,,,,,,,,,,,,,,,,,,,,,,,,,,,,,,,,,,,,,,,,,,,157,168,95,95,64,126,2.1,2.12,-228,-275,0,-287,206,257,251.5444016456604,251.54448175430298,251.54792404174805,251.55859470367432,251.71819305419922,251.71819305419922,251.71819305419922,251.71819305419922,251.71819305419922,251.71819305419922,251.71819305419922,252.55867266654968,1,0.9969220161437988,None,,,,,,,,,,,,,,,,,,116,4,2025-02-25_14h06.04.826,comp,2024.2.4,55.33309586944763,2025-02-25 14h06.12.667879 -0500,
38,38,0,filler_square,None,None,None,None,None,None,None,None,None,None,1,1.9399058818817139,None,,,,,0,0,0,0,0,38,38,181,252.5748951435089,,,,,,,,,,,,,,,,,,,,,,,,,,,,,,,,,,,,,,,,,,,,,,,,,,,,,,,,,,,,,,,,,,,,,,,,,,,,,,,,,64.79468788517177,64.79468788517177,61.49696570736068,61.23944591573435,57.1643858133912,57.57206737929178,2.1,2.11,-159,272,0,277,155,-272,252.56055355072021,252.560631275177,252.5641462802887,252.5748951435089,252.72491312026978,252.72491312026978,252.72491312026978,252.72491312026978,252.72491312026978,252.72491312026978,252.72491312026978,254.5269820690155,1,1.9399058818817139,None,,,,,,,,,,,,,,,,,,116,4,2025-02-25_14h06.04.826,comp,2024.2.4,55.33309586944763,2025-02-25 14h06.12.667879 -0500,
39,39,0,filler_random,None,None,None,None,None,None,None,None,None,None,3,2.4896140098571777,None,,,,,0,0,0,0,0,39,39,144,254.5454273223877,,,,,,,,,,,,,,,,,,,,,,,,,,,,,,,,,,,,,,,,,,,,,,,,,,,,,,,,,,,,,,,,,,,,,,,,,,,,,,,,,103.40831887172058,192.23520600625326,130.34982405774474,89.92057857177574,129.4017973751343,181.6018085490283,4.0,4.1,-237,-283,0,16,232,-266,254.5287206172943,254.5288417339325,254.532240152359,254.5454273223877,254.69252157211304,254.69252157211304,254.69252157211304,254.69252157211304,254.69252157211304,254.69252157211304,254.69252157211304,257.04573345184326,3,2.4896140098571777,None,,,,,,,,,,,,,,,,,,116,4,2025-02-25_14h06.04.826,comp,2024.2.4,55.33309586944763,2025-02-25 14h06.12.667879 -0500,
40,40,0,critical,dhw,20.0,3.0,upper,141.0,141.0,200.0,125.0,125.0,200.0,3,4.748438119888306,None,,,,,0,0,0,0,0,40,40,57,257.0623712539673,,,,,,,,,,,,,,,,,,,,,,,,,,,,,,,,,,,,,,,,,,,,,,,,,,,,,,,,,,,,,,,,,,,,,,,,,,,,,,,,,141.0,141.0,200.0,125.0,125.0,200.0,3.0,3.1,-229,255,0,3,258,-266,257.0474364757538,257.04757833480835,257.0509760379791,257.0623712539673,257.2092640399933,257.2092640399933,257.2092640399933,257.2092640399933,257.2092640399933,257.2092640399933,257.2092640399933,261.8291223049164,3,4.748438119888306,None,,,,,,,,,,,,,,,,,,116,4,2025-02-25_14h06.04.826,comp,2024.2.4,55.33309586944763,2025-02-25 14h06.12.667879 -0500,
41,41,0,critical,hdw,20.0,3.0,lower,133.0,57.0,78.0,78.0,57.0,133.0,2,4.254106760025024,None,,,,,0,0,0,0,0,41,41,116,261.8448836803436,,,,,,,,,,,,,,,,,,,,,,,,,,,,,,,,,,,,,,,,,,,,,,,,,,,,,,,,,,,,,,,,,,,,,,,,,,,,,,,,,133.0,57.0,78.0,78.0,57.0,133.0,3.0,3.1,-164,256,0,0,202,-277,261.830708026886,261.83078360557556,261.8341774940491,261.8448836803436,261.99387645721436,261.99387645721436,261.99387645721436,261.99387645721436,261.99387645721436,261.99387645721436,261.99387645721436,266.1046907901764,2,4.254106760025024,None,,,,,,,,,,,,,,,,,,116,4,2025-02-25_14h06.04.826,comp,2024.2.4,55.33309586944763,2025-02-25 14h06.12.667879 -0500,
42,42,0,critical,wdh,20.0,4.0,upper,125.0,200.0,141.0,141.0,200.0,125.0,3,1.5657258033752441,None,,,,,0,0,0,0,0,42,42,83,266.12564420700073,,,,,,,,,,,,,,,,,,,,,,,,,,,,,,,,,,,,,,,,,,,,,,,,,,,,,,,,,,,,,,,,,,,,,,,,,,,,,,,,,125.0,200.0,141.0,141.0,200.0,125.0,4.0,4.2,-266,-17,0,-252,229,-2,266.1063106060028,266.10641074180603,266.1098313331604,266.12564420700073,266.26375341415405,266.26375341415405,266.26375341415405,266.26375341415405,266.26375341415405,266.26375341415405,266.26375341415405,267.69871044158936,3,1.5657258033752441,None,,,,,,,,,,,,,,,,,,116,4,2025-02-25_14h06.04.826,comp,2024.2.4,55.33309586944763,2025-02-25 14h06.12.667879 -0500,
43,43,0,filler_random,None,None,None,None,None,None,None,None,None,None,1,1.2228641510009766,None,,,,,0,0,0,0,0,43,43,137,267.71593618392944,,,,,,,,,,,,,,,,,,,,,,,,,,,,,,,,,,,,,,,,,,,,,,,,,,,,,,,,,,,,,,,,,,,,,,,,,,,,,,,,,153.49035606726213,126.00446532554355,59.268153867014185,89.71194315689283,78.30813550824028,163.8971496116378,4.0,4.2,-204,9,0,-266,223,11,267.7009930610657,267.7011308670044,267.70434069633484,267.71593618392944,267.8632471561432,267.8632471561432,267.8632471561432,267.8632471561432,267.8632471561432,267.8632471561432,267.8632471561432,268.95185112953186,1,1.2228641510009766,None,,,,,,,,,,,,,,,,,,116,4,2025-02-25_14h06.04.826,comp,2024.2.4,55.33309586944763,2025-02-25 14h06.12.667879 -0500,
44,44,0,critical,dhw,35.0,2.1,lower,70.0,70.0,133.0,57.0,57.0,133.0,2,6.974804401397705,None,,,,,0,0,0,0,0,44,44,24,268.97202229499817,,,,,,,,,,,,,,,,,,,,,,,,,,,,,,,,,,,,,,,,,,,,,,,,,,,,,,,,,,,,,,,,,,,,,,,,,,,,,,,,,70.0,70.0,133.0,57.0,57.0,133.0,2.1,2.12,-160,-289,0,-267,191,263,268.9533631801605,268.953439950943,268.9564986228943,268.97202229499817,269.1138913631439,269.1138913631439,269.1138913631439,269.1138913631439,269.1138913631439,269.1138913631439,269.1138913631439,275.96130108833313,2,6.974804401397705,None,,,,,,,,,,,,,,,,,,116,4,2025-02-25_14h06.04.826,comp,2024.2.4,55.33309586944763,2025-02-25 14h06.12.667879 -0500,
45,45,0,critical,whd,20.0,2.1,upper,125.0,200.0,200.0,125.0,141.0,141.0,1,2.6021010875701904,None,,,,,0,0,0,0,0,45,45,15,275.9773979187012,,,,,,,,,,,,,,,,,,,,,,,,,,,,,,,,,,,,,,,,,,,,,,,,,,,,,,,,,,,,,,,,,,,,,,,,,,,,,,,,,125.0,200.0,200.0,125.0,141.0,141.0,2.1,2.11,-258,273,0,269,229,-250,275.9630105495453,275.96308612823486,275.96644401550293,275.9773979187012,276.1148717403412,276.1148717403412,276.1148717403412,276.1148717403412,276.1148717403412,276.1148717403412,276.1148717403412,278.584388256073,1,2.6021010875701904,None,,,,,,,,,,,,,,,,,,116,4,2025-02-25_14h06.04.826,comp,2024.2.4,55.33309586944763,2025-02-25 14h06.12.667879 -0500,
46,46,0,critical,hdw,20.0,2.1,upper,200.0,125.0,141.0,141.0,125.0,200.0,3,13.84269642829895,None,,,,,0,0,0,0,0,46,46,47,278.60149240493774,,,,,,,,,,,,,,,,,,,,,,,,,,,,,,,,,,,,,,,,,,,,,,,,,,,,,,,,,,,,,,,,,,,,,,,,,,,,,,,,,200.0,125.0,141.0,141.0,125.0,200.0,2.1,2.12,-229,-263,0,-279,266,274,278.58590960502625,278.58598470687866,278.5899558067322,278.60149240493774,278.74857330322266,278.74857330322266,278.74857330322266,278.74857330322266,278.74857330322266,278.74857330322266,278.74857330322266,292.45539140701294,3,13.84269642829895,None,,,,,,,,,,,,,,,,,,116,4,2025-02-25_14h06.04.826,comp,2024.2.4,55.33309586944763,2025-02-25 14h06.12.667879 -0500,
47,47,0,filler_square,None,None,None,None,None,None,None,None,None,None,2,6.899353504180908,None,,,,,0,0,0,0,0,47,47,204,292.47205924987793,,,,,,,,,,,,,,,,,,,,,,,,,,,,,,,,,,,,,,,,,,,,,,,,,,,,,,,,,,,,,,,,,,,,,,,,,,,,,,,,,57.290841953904184,60.6943400158242,61.50117793551385,59.7938256089481,61.71723318478732,61.71723318478732,1.0,1.1,-636,272,-480,288,-323,279,292.45741724967957,292.45749521255493,292.46120953559875,292.47205924987793,292.620970249176,292.620970249176,292.620970249176,292.620970249176,292.620970249176,292.620970249176,292.620970249176,299.3737106323242,2,6.899353504180908,None,,,,,,,,,,,,,,,,,,116,4,2025-02-25_14h06.04.826,comp,2024.2.4,55.33309586944763,2025-02-25 14h06.12.667879 -0500,
48,48,0,critical,hdw,35.0,4.0,lower,133.0,57.0,70.0,70.0,57.0,133.0,3,2.9800868034362793,None,,,,,0,0,0,0,0,48,48,112,299.390750169754,,,,,,,,,,,,,,,,,,,,,,,,,,,,,,,,,,,,,,,,,,,,,,,,,,,,,,,,,,,,,,,,,,,,,,,,,,,,,,,,,133.0,57.0,70.0,70.0,57.0,133.0,4.0,4.1,-160,-270,0,14,198,-275,299.37535405158997,299.37543296813965,299.3796184062958,299.390750169754,299.53868222236633,299.53868222236633,299.53868222236633,299.53868222236633,299.53868222236633,299.53868222236633,299.53868222236633,302.38311648368835,3,2.9800868034362793,None,,,,,,,,,,,,,,,,,,116,4,2025-02-25_14h06.04.826,comp,2024.2.4,55.33309586944763,2025-02-25 14h06.12.667879 -0500,
49,49,0,filler_random,None,None,None,None,None,None,None,None,None,None,2,1.4532675743103027,None,,,,,0,0,0,0,0,49,49,148,302.397940158844,,,,,,,,,,,,,,,,,,,,,,,,,,,,,,,,,,,,,,,,,,,,,,,,,,,,,,,,,,,,,,,,,,,,,,,,,,,,,,,,,177.19216297783592,102.8864256203361,168.44059383084203,176.38662585880292,93.35381089250029,166.61526620898843,4.0,4.2,-236,10,0,-289,268,13,302.38492250442505,302.385036945343,302.3883512020111,302.397940158844,302.5441665649414,302.5441665649414,302.5441665649414,302.5441665649414,302.5441665649414,302.5441665649414,302.5441665649414,303.85871291160583,2,1.4532675743103027,None,,,,,,,,,,,,,,,,,,116,4,2025-02-25_14h06.04.826,comp,2024.2.4,55.33309586944763,2025-02-25 14h06.12.667879 -0500,
50,50,0,critical,dhw,35.0,3.0,upper,127.0,127.0,200.0,125.0,125.0,200.0,3,1.8646748065948486,None,,,,,0,0,0,0,0,50,50,51,303.8747606277466,,,,,,,,,,,,,,,,,,,,,,,,,,,,,,,,,,,,,,,,,,,,,,,,,,,,,,,,,,,,,,,,,,,,,,,,,,,,,,,,,127.0,127.0,200.0,125.0,125.0,200.0,3.0,3.1,-222,270,0,-19,258,-282,303.86036586761475,303.86044239997864,303.8639976978302,303.8747606277466,304.0272135734558,304.0272135734558,304.0272135734558,304.0272135734558,304.0272135734558,304.0272135734558,304.0272135734558,305.74507999420166,3,1.8646748065948486,None,,,,,,,,,,,,,,,,,,116,4,2025-02-25_14h06.04.826,comp,2024.2.4,55.33309586944763,2025-02-25 14h06.12.667879 -0500,
51,51,0,catch,None,None,None,None,None,None,None,None,None,None,2,1.3445336818695068,None,,,,,0,0,0,0,0,51,51,127,305.7624189853668,,,,,,,,,,,,,,,,,,,,,,,,,,,,,,,,,,,,,,,,,,,,,,,,,,,,,,,,,,,,,,,,,,,,,,,,,,,,,,,,,71,119,195,130,88,102,3.0,3.2,-220,-280,0,-1,212,279,305.7471945285797,305.7472724914551,305.7506902217865,305.7624189853668,305.9088251590729,305.9088251590729,305.9088251590729,305.9088251590729,305.9088251590729,305.9088251590729,305.9088251590729,307.11170721054077,2,1.3445336818695068,None,,,,,,,,,,,,,,,,,,116,4,2025-02-25_14h06.04.826,comp,2024.2.4,55.33309586944763,2025-02-25 14h06.12.667879 -0500,
52,52,0,critical,hwd,20.0,3.0,lower,133.0,57.0,57.0,133.0,78.0,78.0,3,2.6899688243865967,None,,,,,0,0,0,0,0,52,52,104,307.1302239894867,,,,,,,,,,,,,,,,,,,,,,,,,,,,,,,,,,,,,,,,,,,,,,,,,,,,,,,,,,,,,,,,,,,,,,,,,,,,,,,,,133.0,57.0,57.0,133.0,78.0,78.0,3.0,3.2,-191,-251,0,3,202,275,307.1133530139923,307.1134305000305,307.11661410331726,307.1302239894867,307.2758696079254,307.2758696079254,307.2758696079254,307.2758696079254,307.2758696079254,307.2758696079254,307.2758696079254,309.8273162841797,3,2.6899688243865967,None,,,,,,,,,,,,,,,,,,116,4,2025-02-25_14h06.04.826,comp,2024.2.4,55.33309586944763,2025-02-25 14h06.12.667879 -0500,
53,53,0,filler_square,None,None,None,None,None,None,None,None,None,None,2,1.8134970664978027,None,,,,,0,0,0,0,0,53,53,196,309.8453254699707,,,,,,,,,,,,,,,,,,,,,,,,,,,,,,,,,,,,,,,,,,,,,,,,,,,,,,,,,,,,,,,,,,,,,,,,,,,,,,,,,151.57823628873777,144.3669808620256,170.02796741902353,170.02796741902353,123.88983250807411,104.99915834413798,1.0,1.2,-253,2,0,6,234,-5,309.82915568351746,309.8292338848114,309.8324296474457,309.8453254699707,309.9917917251587,309.9917917251587,309.9917917251587,309.9917917251587,309.9917917251587,309.9917917251587,309.9917917251587,311.6683158874512,2,1.8134970664978027,None,,,,,,,,,,,,,,,,,,116,4,2025-02-25_14h06.04.826,comp,2024.2.4,55.33309586944763,2025-02-25 14h06.12.667879 -0500,
54,54,0,filler_square,None,None,None,None,None,None,None,None,None,None,2,1.5350062847137451,None,,,,,0,0,0,0,0,54,54,207,311.68387961387634,,,,,,,,,,,,,,,,,,,,,,,,,,,,,,,,,,,,,,,,,,,,,,,,,,,,,,,,,,,,,,,,,,,,,,,,,,,,,,,,,86.07596783138698,57.480840109674354,131.49064686820236,131.49064686820236,116.87638178048519,119.44069644805751,1.0,1.3,290,-285,480,-252,701,-278,311.6700248718262,311.6701021194458,311.67306780815125,311.68387961387634,311.82884550094604,311.82884550094604,311.82884550094604,311.82884550094604,311.82884550094604,311.82884550094604,311.82884550094604,313.2310485839844,2,1.5350062847137451,None,,,,,,,,,,,,,,,,,,116,4,2025-02-25_14h06.04.826,comp,2024.2.4,55.33309586944763,2025-02-25 14h06.12.667879 -0500,
55,55,0,filler_random,None,None,None,None,None,None,None,None,None,None,3,1.5892727375030518,None,,,,,0,0,0,0,0,55,55,130,313.2455620765686,,,,,,,,,,,,,,,,,,,,,,,,,,,,,,,,,,,,,,,,,,,,,,,,,,,,,,,,,,,,,,,,,,,,,,,,,,,,,,,,,136.89130442080753,61.48593816126867,114.55888175219754,71.19946810216383,187.0089593517241,132.13530784021515,2.1,2.12,-162,-287,0,-281,198,254,313.23278617858887,313.2329001426697,313.2364194393158,313.2455620765686,313.392480134964,313.392480134964,313.392480134964,313.392480134964,313.392480134964,313.392480134964,313.392480134964,314.84593987464905,3,1.5892727375030518,None,,,,,,,,,,,,,,,,,,116,4,2025-02-25_14h06.04.826,comp,2024.2.4,55.33309586944763,2025-02-25 14h06.12.667879 -0500,
56,56,0,critical,hdw,35.0,2.1,lower,133.0,57.0,70.0,70.0,57.0,133.0,1,3.4937634468078613,None,,,,,0,0,0,0,0,56,56,20,314.8618915081024,,,,,,,,,,,,,,,,,,,,,,,,,,,,,,,,,,,,,,,,,,,,,,,,,,,,,,,,,,,,,,,,,,,,,,,,,,,,,,,,,133.0,57.0,70.0,70.0,57.0,133.0,2.1,2.12,-160,-286,0,-260,198,255,314.8475704193115,314.84766459465027,314.85122632980347,314.8618915081024,315.01142168045044,315.01142168045044,315.01142168045044,315.01142168045044,315.01142168045044,315.01142168045044,315.01142168045044,318.3626344203949,1,3.4937634468078613,None,,,,,,,,,,,,,,,,,,116,4,2025-02-25_14h06.04.826,comp,2024.2.4,55.33309586944763,2025-02-25 14h06.12.667879 -0500,
57,57,0,critical,hwd,20.0,2.1,upper,200.0,125.0,125.0,200.0,141.0,141.0,1,3.223660707473755,None,,,,,0,0,0,0,0,57,57,19,318.3792898654938,,,,,,,,,,,,,,,,,,,,,,,,,,,,,,,,,,,,,,,,,,,,,,,,,,,,,,,,,,,,,,,,,,,,,,,,,,,,,,,,,200.0,125.0,125.0,200.0,141.0,141.0,2.1,2.12,-258,-290,0,-262,266,279,318.3641903400421,318.3642666339874,318.3677167892456,318.3792898654938,318.5288796424866,318.5288796424866,318.5288796424866,318.5288796424866,318.5288796424866,318.5288796424866,318.5288796424866,321.6178755760193,1,3.223660707473755,None,,,,,,,,,,,,,,,,,,116,4,2025-02-25_14h06.04.826,comp,2024.2.4,55.33309586944763,2025-02-25 14h06.12.667879 -0500,
58,58,0,filler_square,None,None,None,None,None,None,None,None,None,None,3,2.737180233001709,None,,,,,0,0,0,0,0,58,58,172,321.63377046585083,,,,,,,,,,,,,,,,,,,,,,,,,,,,,,,,,,,,,,,,,,,,,,,,,,,,,,,,,,,,,,,,,,,,,,,,,,,,,,,,,75.91413922866796,72.43869191446825,59.035875866387585,59.17345035515952,78.31435640401143,78.31435640401143,3.0,3.2,-162,-280,0,7,165,268,321.61986351013184,321.61997532844543,321.6232795715332,321.63377046585083,321.7795341014862,321.7795341014862,321.7795341014862,321.7795341014862,321.7795341014862,321.7795341014862,321.7795341014862,324.3735179901123,3,2.737180233001709,None,,,,,,,,,,,,,,,,,,116,4,2025-02-25_14h06.04.826,comp,2024.2.4,55.33309586944763,2025-02-25 14h06.12.667879 -0500,
59,59,0,filler_square,None,None,None,None,None,None,None,None,None,None,3,1.253371238708496,None,,,,,0,0,0,0,0,59,59,182,324.38996601104736,,,,,,,,,,,,,,,,,,,,,,,,,,,,,,,,,,,,,,,,,,,,,,,,,,,,,,,,,,,,,,,,,,,,,,,,,,,,,,,,,67.98627164062779,74.41584506436581,89.80215960932145,62.71584616330274,161.33950605854795,161.33950605854795,2.2,2.22,-165,282,0,-270,208,-256,324.37534046173096,324.3754680156708,324.37888050079346,324.38996601104736,324.53039360046387,324.53039360046387,324.53039360046387,324.53039360046387,324.53039360046387,324.53039360046387,324.53039360046387,325.646990776062,3,1.253371238708496,None,,,,,,,,,,,,,,,,,,116,4,2025-02-25_14h06.04.826,comp,2024.2.4,55.33309586944763,2025-02-25 14h06.12.667879 -0500,
60,60,0,critical,dwh,20.0,4.0,upper,141.0,141.0,125.0,200.0,200.0,125.0,2,1.7165682315826416,None,,,,,0,0,0,0,0,60,60,71,325.6631324291229,,,,,,,,,,,,,,,,,,,,,,,,,,,,,,,,,,,,,,,,,,,,,,,,,,,,,,,,,,,,,,,,,,,,,,,,,,,,,,,,,141.0,141.0,125.0,200.0,200.0,125.0,4.0,4.1,-266,-258,0,8,258,-275,325.6485471725464,325.6486220359802,325.65206146240234,325.6631324291229,325.8159546852112,325.8159546852112,325.8159546852112,325.8159546852112,325.8159546852112,325.8159546852112,325.8159546852112,327.38248324394226,2,1.7165682315826416,None,,,,,,,,,,,,,,,,,,116,4,2025-02-25_14h06.04.826,comp,2024.2.4,55.33309586944763,2025-02-25 14h06.12.667879 -0500,
61,61,0,catch,None,None,None,None,None,None,None,None,None,None,3,1.2759974002838135,None,,,,,0,0,0,0,0,61,61,121,327.39906573295593,,,,,,,,,,,,,,,,,,,,,,,,,,,,,,,,,,,,,,,,,,,,,,,,,,,,,,,,,,,,,,,,,,,,,,,,,,,,,,,,,120,70,70,120,132,193,2.1,2.11,-191,251,0,263,252,-269,327.3844120502472,327.384489774704,327.3879098892212,327.39906573295593,327.5488827228546,327.5488827228546,327.5488827228546,327.5488827228546,327.5488827228546,327.5488827228546,327.5488827228546,328.6876289844513,3,1.2759974002838135,None,,,,,,,,,,,,,,,,,,116,4,2025-02-25_14h06.04.826,comp,2024.2.4,55.33309586944763,2025-02-25 14h06.12.667879 -0500,
62,62,0,filler_square,None,None,None,None,None,None,None,None,None,None,3,0.9565889835357666,None,,,,,0,0,0,0,0,62,62,201,328.70327377319336,,,,,,,,,,,,,,,,,,,,,,,,,,,,,,,,,,,,,,,,,,,,,,,,,,,,,,,,,,,,,,,,,,,,,,,,,,,,,,,,,85.20888224445588,187.9929361743939,108.23751252229954,151.61598092451882,196.00381160345896,196.00381160345896,1.0,1.2,-266,-2,0,9,270,17,328.6897442340851,328.6898510456085,328.6933467388153,328.70327377319336,328.8494358062744,328.8494358062744,328.8494358062744,328.8494358062744,328.8494358062744,328.8494358062744,328.8494358062744,329.6654407978058,3,0.9565889835357666,None,,,,,,,,,,,,,,,,,,116,4,2025-02-25_14h06.04.826,comp,2024.2.4,55.33309586944763,2025-02-25 14h06.12.667879 -0500,
63,63,0,critical,wdh,35.0,2.1,upper,125.0,200.0,127.0,127.0,200.0,125.0,1,3.301826238632202,None,,,,,0,0,0,0,0,63,63,33,329.685341835022,,,,,,,,,,,,,,,,,,,,,,,,,,,,,,,,,,,,,,,,,,,,,,,,,,,,,,,,,,,,,,,,,,,,,,,,,,,,,,,,,125.0,200.0,127.0,127.0,200.0,125.0,2.1,2.12,-260,-282,0,-251,222,270,329.66696429252625,329.66704082489014,329.6701123714447,329.685341835022,329.8327112197876,329.8327112197876,329.8327112197876,329.8327112197876,329.8327112197876,329.8327112197876,329.8327112197876,332.98976945877075,1,3.301826238632202,None,,,,,,,,,,,,,,,,,,116,4,2025-02-25_14h06.04.826,comp,2024.2.4,55.33309586944763,2025-02-25 14h06.12.667879 -0500,
64,64,0,critical,dwh,20.0,2.1,lower,78.0,78.0,57.0,133.0,133.0,57.0,1,1.9798815250396729,None,,,,,0,0,0,0,0,64,64,30,333.00753808021545,,,,,,,,,,,,,,,,,,,,,,,,,,,,,,,,,,,,,,,,,,,,,,,,,,,,,,,,,,,,,,,,,,,,,,,,,,,,,,,,,78.0,78.0,57.0,133.0,133.0,57.0,2.1,2.12,-202,-263,0,-284,191,258,332.99130272865295,332.9913794994354,332.99437832832336,333.00753808021545,333.15768098831177,333.15768098831177,333.15768098831177,333.15768098831177,333.15768098831177,333.15768098831177,333.15768098831177,334.9942955970764,1,1.9798815250396729,None,,,,,,,,,,,,,,,,,,116,4,2025-02-25_14h06.04.826,comp,2024.2.4,55.33309586944763,2025-02-25 14h06.12.667879 -0500,
65,65,0,filler_square,None,None,None,None,None,None,None,None,None,None,3,1.3881139755249023,None,,,,,0,0,0,0,0,65,65,199,335.0149028301239,,,,,,,,,,,,,,,,,,,,,,,,,,,,,,,,,,,,,,,,,,,,,,,,,,,,,,,,,,,,,,,,,,,,,,,,,,,,,,,,,99.1651719833654,122.93497123361573,123.33350441391256,113.36653902314825,151.89342826123112,151.89342826123112,2.2,2.21,-214,-262,0,286,229,252,334.99630856513977,334.9963848590851,334.9997248649597,335.0149028301239,335.1583821773529,335.1583821773529,335.1583821773529,335.1583821773529,335.1583821773529,335.1583821773529,335.1583821773529,336.4202048778534,3,1.3881139755249023,None,,,,,,,,,,,,,,,,,,116,4,2025-02-25_14h06.04.826,comp,2024.2.4,55.33309586944763,2025-02-25 14h06.12.667879 -0500,
66,66,0,filler_square,None,None,None,None,None,None,None,None,None,None,3,0.7804257869720459,None,,,,,0,0,0,0,0,66,66,179,336.43865847587585,,,,,,,,,,,,,,,,,,,,,,,,,,,,,,,,,,,,,,,,,,,,,,,,,,,,,,,,,,,,,,,,,,,,,,,,,,,,,,,,,107.38984431903324,73.18187311437107,66.87357442021671,61.51402078741933,121.65467695592983,121.65467695592983,2.2,2.21,-163,-286,0,286,188,268,336.4222152233124,336.42229199409485,336.4260289669037,336.43865847587585,336.5941197872162,336.5941197872162,336.5941197872162,336.5941197872162,336.5941197872162,336.5941197872162,336.5941197872162,337.23723316192627,3,0.7804257869720459,None,,,,,,,,,,,,,,,,,,116,4,2025-02-25_14h06.04.826,comp,2024.2.4,55.33309586944763,2025-02-25 14h06.12.667879 -0500,
67,67,0,filler_square,None,None,None,None,None,None,None,None,None,None,2,1.1572558879852295,None,,,,,0,0,0,0,0,67,67,186,337.25356101989746,,,,,,,,,,,,,,,,,,,,,,,,,,,,,,,,,,,,,,,,,,,,,,,,,,,,,,,,,,,,,,,,,,,,,,,,,,,,,,,,,123.34969905715228,96.36475766866519,156.30690428005795,156.30690428005795,122.21703806254763,129.97251473522255,2.1,2.12,-222,-276,0,-274,239,256,337.2393944263458,337.23947381973267,337.24309849739075,337.25356101989746,337.40776681900024,337.40776681900024,337.40776681900024,337.40776681900024,337.40776681900024,337.40776681900024,337.40776681900024,338.42090249061584,2,1.1572558879852295,None,,,,,,,,,,,,,,,,,,116,4,2025-02-25_14h06.04.826,comp,2024.2.4,55.33309586944763,2025-02-25 14h06.12.667879 -0500,
68,68,0,filler_square,None,None,None,None,None,None,None,None,None,None,2,1.1258618831634521,None,,,,,0,0,0,0,0,68,68,203,338.43765783309937,,,,,,,,,,,,,,,,,,,,,,,,,,,,,,,,,,,,,,,,,,,,,,,,,,,,,,,,,,,,,,,,,,,,,,,,,,,,,,,,,58.839658343302816,138.18736141860293,139.02455081092506,139.02455081092506,108.2493291062735,64.18007194886842,3.0,3.1,-235,253,0,-18,198,-252,338.4229881763458,338.4230673313141,338.42667531967163,338.43765783309937,338.5880937576294,338.5880937576294,338.5880937576294,338.5880937576294,338.5880937576294,338.5880937576294,338.5880937576294,339.56638264656067,2,1.1258618831634521,None,,,,,,,,,,,,,,,,,,116,4,2025-02-25_14h06.04.826,comp,2024.2.4,55.33309586944763,2025-02-25 14h06.12.667879 -0500,
69,69,0,filler_random,None,None,None,None,None,None,None,None,None,None,2,1.1878492832183838,None,,,,,0,0,0,0,0,69,69,165,339.5830364227295,,,,,,,,,,,,,,,,,,,,,,,,,,,,,,,,,,,,,,,,,,,,,,,,,,,,,,,,,,,,,,,,,,,,,,,,,,,,,,,,,69.64113481193428,138.77421018906975,140.27690509238084,186.93020910538434,124.17002601647545,174.7113441228912,2.2,2.21,-259,-288,0,283,277,255,339.56812715530396,339.5682499408722,339.57158875465393,339.5830364227295,339.7356815338135,339.7356815338135,339.7356815338135,339.7356815338135,339.7356815338135,339.7356815338135,339.7356815338135,340.78497648239136,2,1.1878492832183838,None,,,,,,,,,,,,,,,,,,116,4,2025-02-25_14h06.04.826,comp,2024.2.4,55.33309586944763,2025-02-25 14h06.12.667879 -0500,
70,70,0,filler_random,None,None,None,None,None,None,None,None,None,None,2,1.1216621398925781,None,,,,,0,0,0,0,0,70,70,159,340.8012435436249,,,,,,,,,,,,,,,,,,,,,,,,,,,,,,,,,,,,,,,,,,,,,,,,,,,,,,,,,,,,,,,,,,,,,,,,,,,,,,,,,70.36869846185564,130.78674669312227,189.22088721618434,181.47658131839216,60.1620229597905,120.44348787820522,2.2,2.22,-252,286,0,-275,247,-284,340.7866291999817,340.78670287132263,340.7899625301361,340.8012435436249,340.9500946998596,340.9500946998596,340.9500946998596,340.9500946998596,340.9500946998596,340.9500946998596,340.9500946998596,341.9359095096588,2,1.1216621398925781,None,,,,,,,,,,,,,,,,,,116,4,2025-02-25_14h06.04.826,comp,2024.2.4,55.33309586944763,2025-02-25 14h06.12.667879 -0500,
71,71,0,critical,dhw,35.0,2.1,upper,127.0,127.0,200.0,125.0,125.0,200.0,3,4.216204643249512,None,,,,,0,0,0,0,0,71,71,25,341.95540380477905,,,,,,,,,,,,,,,,,,,,,,,,,,,,,,,,,,,,,,,,,,,,,,,,,,,,,,,,,,,,,,,,,,,,,,,,,,,,,,,,,127.0,127.0,200.0,125.0,125.0,200.0,2.1,2.11,-222,280,0,276,258,-250,341.9374349117279,341.9375092983246,341.9407625198364,341.95540380477905,342.11143803596497,342.11143803596497,342.11143803596497,342.11143803596497,342.11143803596497,342.11143803596497,342.11143803596497,346.17383313179016,3,4.216204643249512,None,,,,,,,,,,,,,,,,,,116,4,2025-02-25_14h06.04.826,comp,2024.2.4,55.33309586944763,2025-02-25 14h06.12.667879 -0500,
72,72,0,filler_square,None,None,None,None,None,None,None,None,None,None,2,0.859851598739624,None,,,,,0,0,0,0,0,72,72,200,346.1914756298065,,,,,,,,,,,,,,,,,,,,,,,,,,,,,,,,,,,,,,,,,,,,,,,,,,,,,,,,,,,,,,,,,,,,,,,,,,,,,,,,,101.6338197018479,96.47391468738336,198.38839199195567,198.38839199195567,163.10783159552267,160.6797595209694,2.2,2.21,-243,-270,0,266,276,252,346.17584109306335,346.1759262084961,346.17907786369324,346.1914756298065,346.33983731269836,346.33983731269836,346.33983731269836,346.33983731269836,346.33983731269836,346.33983731269836,346.33983731269836,347.053790807724,2,0.859851598739624,None,,,,,,,,,,,,,,,,,,116,4,2025-02-25_14h06.04.826,comp,2024.2.4,55.33309586944763,2025-02-25 14h06.12.667879 -0500,
73,73,0,critical,hdw,20.0,4.0,lower,133.0,57.0,78.0,78.0,57.0,133.0,3,2.2042033672332764,None,,,,,0,0,0,0,0,73,73,118,347.07068252563477,,,,,,,,,,,,,,,,,,,,,,,,,,,,,,,,,,,,,,,,,,,,,,,,,,,,,,,,,,,,,,,,,,,,,,,,,,,,,,,,,133.0,57.0,78.0,78.0,57.0,133.0,4.0,4.1,-164,-264,0,17,202,-262,347.05537462234497,347.05545377731323,347.05894446372986,347.07068252563477,347.2252938747406,347.2252938747406,347.2252938747406,347.2252938747406,347.2252938747406,347.2252938747406,347.2252938747406,349.2883791923523,3,2.2042033672332764,None,,,,,,,,,,,,,,,,,,116,4,2025-02-25_14h06.04.826,comp,2024.2.4,55.33309586944763,2025-02-25 14h06.12.667879 -0500,
74,74,0,filler_square,None,None,None,None,None,None,None,None,None,None,3,1.6559159755706787,None,,,,,0,0,0,0,0,74,74,183,349.307932138443,,,,,,,,,,,,,,,,,,,,,,,,,,,,,,,,,,,,,,,,,,,,,,,,,,,,,,,,,,,,,,,,,,,,,,,,,,,,,,,,,57.80820195641571,66.80342729158414,67.10642309246795,59.36064070116705,68.83641220655463,68.83641220655463,4.0,4.1,-159,-283,0,-3,160,-281,349.29025316238403,349.29033160209656,349.2936406135559,349.307932138443,349.45554304122925,349.45554304122925,349.45554304122925,349.45554304122925,349.45554304122925,349.45554304122925,349.45554304122925,350.9732096195221,3,1.6559159755706787,None,,,,,,,,,,,,,,,,,,116,4,2025-02-25_14h06.04.826,comp,2024.2.4,55.33309586944763,2025-02-25 14h06.12.667879 -0500,
75,75,0,critical,dwh,35.0,1.0,upper,127.0,127.0,125.0,200.0,200.0,125.0,2,2.2282142639160156,None,,,,,0,0,0,0,0,75,75,61,350.99075198173523,,,,,,,,,,,,,,,,,,,,,,,,,,,,,,,,,,,,,,,,,,,,,,,,,,,,,,,,,,,,,,,,,,,,,,,,,,,,,,,,,127.0,127.0,125.0,200.0,200.0,125.0,1.0,1.2,-260,-8,0,-2,258,-18,350.974675655365,350.97475123405457,350.97772097587585,350.99075198173523,351.1356825828552,351.1356825828552,351.1356825828552,351.1356825828552,351.1356825828552,351.1356825828552,351.1356825828552,353.224351644516,2,2.2282142639160156,None,,,,,,,,,,,,,,,,,,116,4,2025-02-25_14h06.04.826,comp,2024.2.4,55.33309586944763,2025-02-25 14h06.12.667879 -0500,
76,76,0,filler_random,None,None,None,None,None,None,None,None,None,None,1,1.8254437446594238,None,,,,,0,0,0,0,0,76,76,143,353.2421119213104,,,,,,,,,,,,,,,,,,,,,,,,,,,,,,,,,,,,,,,,,,,,,,,,,,,,,,,,,,,,,,,,,,,,,,,,,,,,,,,,,171.16685677759892,135.60092297139772,190.68490828051432,119.32876078982844,143.10461574143716,95.445206752443,2.1,2.12,-223,-284,0,-264,203,268,353.2260251045227,353.22609996795654,353.2290861606598,353.2421119213104,353.39004826545715,353.39004826545715,353.39004826545715,353.39004826545715,353.39004826545715,353.39004826545715,353.39004826545715,355.0731716156006,1,1.8254437446594238,None,,,,,,,,,,,,,,,,,,116,4,2025-02-25_14h06.04.826,comp,2024.2.4,55.33309586944763,2025-02-25 14h06.12.667879 -0500,
77,77,0,critical,dhw,35.0,1.0,upper,127.0,127.0,200.0,125.0,125.0,200.0,2,8.317952394485474,None,,,,,0,0,0,0,0,77,77,49,355.09294390678406,,,,,,,,,,,,,,,,,,,,,,,,,,,,,,,,,,,,,,,,,,,,,,,,,,,,,,,,,,,,,,,,,,,,,,,,,,,,,,,,,127.0,127.0,200.0,125.0,125.0,200.0,1.0,1.1,-702,280,-480,252,-222,289,355.0746097564697,355.0746853351593,355.07779145240784,355.09294390678406,355.22900891304016,355.22900891304016,355.22900891304016,355.22900891304016,355.22900891304016,355.22900891304016,355.22900891304016,363.4265787601471,2,8.317952394485474,None,,,,,,,,,,,,,,,,,,116,4,2025-02-25_14h06.04.826,comp,2024.2.4,55.33309586944763,2025-02-25 14h06.12.667879 -0500,
78,78,0,filler_random,None,None,None,None,None,None,None,None,None,None,1,4.993790626525879,None,,,,,0,0,0,0,0,78,78,152,363.44206500053406,,,,,,,,,,,,,,,,,,,,,,,,,,,,,,,,,,,,,,,,,,,,,,,,,,,,,,,,,,,,,,,,,,,,,,,,,,,,,,,,,180.7186371251068,123.47200125740653,185.28717435185487,103.82432641031664,108.48265959355331,151.58948706350265,3.0,3.2,-210,-284,0,-11,224,251,363.428254365921,363.42832827568054,363.4318299293518,363.44206500053406,363.5989713668823,363.5989713668823,363.5989713668823,363.5989713668823,363.5989713668823,363.5989713668823,363.5989713668823,368.4439342021942,1,4.993790626525879,None,,,,,,,,,,,,,,,,,,116,4,2025-02-25_14h06.04.826,comp,2024.2.4,55.33309586944763,2025-02-25 14h06.12.667879 -0500,
79,79,0,critical,hdw,35.0,3.0,lower,133.0,57.0,70.0,70.0,57.0,133.0,3,2.776038885116577,None,,,,,0,0,0,0,0,79,79,110,368.460565328598,,,,,,,,,,,,,,,,,,,,,,,,,,,,,,,,,,,,,,,,,,,,,,,,,,,,,,,,,,,,,,,,,,,,,,,,,,,,,,,,,133.0,57.0,70.0,70.0,57.0,133.0,3.0,3.2,-160,-269,0,-16,198,253,368.4454228878021,368.4455015659332,368.44877529144287,368.460565328598,368.5994083881378,368.5994083881378,368.5994083881378,368.5994083881378,368.5994083881378,368.5994083881378,368.5994083881378,371.2480092048645,3,2.776038885116577,None,,,,,,,,,,,,,,,,,,116,4,2025-02-25_14h06.04.826,comp,2024.2.4,55.33309586944763,2025-02-25 14h06.12.667879 -0500,
80,80,0,filler_square,None,None,None,None,None,None,None,None,None,None,1,1.490973711013794,None,,,,,0,0,0,0,0,80,80,177,371.2645652294159,,,,,,,,,,,,,,,,,,,,,,,,,,,,,,,,,,,,,,,,,,,,,,,,,,,,,,,,,,,,,,,,,,,,,,,,,,,,,,,,,95.22042931301846,95.22042931301846,70.80689895483248,73.44169458959297,74.3955898780827,68.78070901071308,4.0,4.2,-180,-6,0,-253,167,1,371.24995374679565,371.2500305175781,371.25386095046997,371.2645652294159,371.4111156463623,371.4111156463623,371.4111156463623,371.4111156463623,371.4111156463623,371.4111156463623,371.4111156463623,372.76186895370483,1,1.490973711013794,None,,,,,,,,,,,,,,,,,,116,4,2025-02-25_14h06.04.826,comp,2024.2.4,55.33309586944763,2025-02-25 14h06.12.667879 -0500,
81,81,0,critical,dwh,35.0,2.1,lower,70.0,70.0,57.0,133.0,133.0,57.0,2,20.843330144882202,None,,,,,0,0,0,0,0,81,81,4,372.78464436531067,,,,,,,,,,,,,,,,,,,,,,,,,,,,,,,,,,,,,,,,,,,,,,,,,,,,,,,,,,,,,,,,,,,,,,,,,,,,,,,,,70.0,70.0,57.0,133.0,133.0,57.0,2.1,2.12,-198,-273,0,-270,191,260,372.76333260536194,372.76340913772583,372.766544342041,372.78464436531067,372.93009877204895,372.93009877204895,372.93009877204895,372.93009877204895,372.93009877204895,372.93009877204895,372.93009877204895,393.6353225708008,2,20.843330144882202,None,,,,,,,,,,,,,,,,,,116,4,2025-02-25_14h06.04.826,comp,2024.2.4,55.33309586944763,2025-02-25 14h06.12.667879 -0500,
82,82,0,filler_random,None,None,None,None,None,None,None,None,None,None,2,1.2157776355743408,None,,,,,0,0,0,0,0,82,82,160,393.6517884731293,,,,,,,,,,,,,,,,,,,,,,,,,,,,,,,,,,,,,,,,,,,,,,,,,,,,,,,,,,,,,,,,,,,,,,,,,,,,,,,,,97.3789970605953,136.79315977278665,107.37621477401963,146.49133872619274,67.96370586082712,116.5338879192268,3.0,3.2,-238,-277,0,15,228,269,393.63698959350586,393.6370658874512,393.64006757736206,393.6517884731293,393.7981915473938,393.7981915473938,393.7981915473938,393.7981915473938,393.7981915473938,393.7981915473938,393.7981915473938,394.8739960193634,2,1.2157776355743408,None,,,,,,,,,,,,,,,,,,116,4,2025-02-25_14h06.04.826,comp,2024.2.4,55.33309586944763,2025-02-25 14h06.12.667879 -0500,
83,83,0,critical,hwd,35.0,3.0,upper,200.0,125.0,125.0,200.0,127.0,127.0,2,1.8470780849456787,None,,,,,0,0,0,0,0,83,83,99,394.89200592041016,,,,,,,,,,,,,,,,,,,,,,,,,,,,,,,,,,,,,,,,,,,,,,,,,,,,,,,,,,,,,,,,,,,,,,,,,,,,,,,,,200.0,125.0,125.0,200.0,127.0,127.0,3.0,3.1,-258,258,0,1,260,-251,394.8756456375122,394.87572622299194,394.87884187698364,394.89200592041016,395.0368275642395,395.0368275642395,395.0368275642395,395.0368275642395,395.0368275642395,395.0368275642395,395.0368275642395,396.7548723220825,2,1.8470780849456787,None,,,,,,,,,,,,,,,,,,116,4,2025-02-25_14h06.04.826,comp,2024.2.4,55.33309586944763,2025-02-25 14h06.12.667879 -0500,
84,84,0,critical,whd,35.0,2.1,lower,57.0,133.0,133.0,57.0,70.0,70.0,1,2.2005631923675537,None,,,,,0,0,0,0,0,84,84,36,396.7704074382782,,,,,,,,,,,,,,,,,,,,,,,,,,,,,,,,,,,,,,,,,,,,,,,,,,,,,,,,,,,,,,,,,,,,,,,,,,,,,,,,,57.0,133.0,133.0,57.0,70.0,70.0,2.1,2.12,-191,-270,0,-277,160,264,396.7563714981079,396.75644731521606,396.75994181632996,396.7704074382782,396.9262924194336,396.9262924194336,396.9262924194336,396.9262924194336,396.9262924194336,396.9262924194336,396.9262924194336,398.98769330978394,1,2.2005631923675537,None,,,,,,,,,,,,,,,,,,116,4,2025-02-25_14h06.04.826,comp,2024.2.4,55.33309586944763,2025-02-25 14h06.12.667879 -0500,
85,85,0,filler_random,None,None,None,None,None,None,None,None,None,None,1,1.8719313144683838,None,,,,,0,0,0,0,0,85,85,145,399.0031599998474,,,,,,,,,,,,,,,,,,,,,,,,,,,,,,,,,,,,,,,,,,,,,,,,,,,,,,,,,,,,,,,,,,,,,,,,,,,,,,,,,119.07379681882611,117.25012301197748,63.24954909846632,140.74762033361193,57.107258260829745,171.9341139312565,3.0,3.2,-225,-254,0,12,252,282,398.98938059806824,398.98945689201355,398.9929585456848,399.0031599998474,399.16071939468384,399.16071939468384,399.16071939468384,399.16071939468384,399.16071939468384,399.16071939468384,399.16071939468384,400.8916084766388,1,1.8719313144683838,None,,,,,,,,,,,,,,,,,,116,4,2025-02-25_14h06.04.826,comp,2024.2.4,55.33309586944763,2025-02-25 14h06.12.667879 -0500,
86,86,0,critical,hdw,20.0,1.0,upper,200.0,125.0,141.0,141.0,125.0,200.0,2,6.151538372039795,None,,,,,0,0,0,0,0,86,86,115,400.90761399269104,,,,,,,,,,,,,,,,,,,,,,,,,,,,,,,,,,,,,,,,,,,,,,,,,,,,,,,,,,,,,,,,,,,,,,,,,,,,,,,,,200.0,125.0,141.0,141.0,125.0,200.0,1.0,1.2,-229,-12,0,-5,266,15,400.89321637153625,400.89329528808594,400.8972764015198,400.90761399269104,401.05384254455566,401.05384254455566,401.05384254455566,401.05384254455566,401.05384254455566,401.05384254455566,401.05384254455566,407.0751440525055,2,6.151538372039795,None,,,,,,,,,,,,,,,,,,116,4,2025-02-25_14h06.04.826,comp,2024.2.4,55.33309586944763,2025-02-25 14h06.12.667879 -0500,
87,87,0,filler_square,None,None,None,None,None,None,None,None,None,None,2,1.2149710655212402,None,,,,,0,0,0,0,0,87,87,174,407.09222292900085,,,,,,,,,,,,,,,,,,,,,,,,,,,,,,,,,,,,,,,,,,,,,,,,,,,,,,,,,,,,,,,,,,,,,,,,,,,,,,,,,87.64249080178566,107.18528391136485,111.40638200895566,111.40638200895566,81.09535189636536,87.59438186459039,2.2,2.21,-205,-284,0,255,196,278,407.0771508216858,407.07724165916443,407.08103346824646,407.09222292900085,407.2400722503662,407.2400722503662,407.2400722503662,407.2400722503662,407.2400722503662,407.2400722503662,407.2400722503662,408.3240957260132,2,1.2149710655212402,None,,,,,,,,,,,,,,,,,,116,4,2025-02-25_14h06.04.826,comp,2024.2.4,55.33309586944763,2025-02-25 14h06.12.667879 -0500,
88,88,0,critical,dhw,20.0,4.0,upper,141.0,141.0,200.0,125.0,125.0,200.0,3,1.2064108848571777,None,,,,,0,0,0,0,0,88,88,59,408.3405475616455,,,,,,,,,,,,,,,,,,,,,,,,,,,,,,,,,,,,,,,,,,,,,,,,,,,,,,,,,,,,,,,,,,,,,,,,,,,,,,,,,141.0,141.0,200.0,125.0,125.0,200.0,4.0,4.1,-229,-268,0,-17,258,-265,408.32577252388,408.3259313106537,408.32956862449646,408.3405475616455,408.4890720844269,408.4890720844269,408.4890720844269,408.4890720844269,408.4890720844269,408.4890720844269,408.4890720844269,409.56107544898987,3,1.2064108848571777,None,,,,,,,,,,,,,,,,,,116,4,2025-02-25_14h06.04.826,comp,2024.2.4,55.33309586944763,2025-02-25 14h06.12.667879 -0500,
89,89,0,filler_random,None,None,None,None,None,None,None,None,None,None,1,1.1139111518859863,None,,,,,0,0,0,0,0,89,89,142,409.57747864723206,,,,,,,,,,,,,,,,,,,,,,,,,,,,,,,,,,,,,,,,,,,,,,,,,,,,,,,,,,,,,,,,,,,,,,,,,,,,,,,,,126.23426897951549,150.26640486659159,173.0924594806941,70.6920997122126,125.07506409592912,81.01850511503073,2.2,2.22,-206,254,0,-254,172,-272,409.5632379055023,409.5633137226105,409.56631445884705,409.57747864723206,409.73315691947937,409.73315691947937,409.73315691947937,409.73315691947937,409.73315691947937,409.73315691947937,409.73315691947937,410.7061092853546,1,1.1139111518859863,None,,,,,,,,,,,,,,,,,,116,4,2025-02-25_14h06.04.826,comp,2024.2.4,55.33309586944763,2025-02-25 14h06.12.667879 -0500,
90,90,0,critical,hwd,20.0,2.1,lower,133.0,57.0,57.0,133.0,78.0,78.0,2,4.481477737426758,None,,,,,0,0,0,0,0,90,90,42,410.7221281528473,,,,,,,,,,,,,,,,,,,,,,,,,,,,,,,,,,,,,,,,,,,,,,,,,,,,,,,,,,,,,,,,,,,,,,,,,,,,,,,,,133.0,57.0,57.0,133.0,78.0,78.0,2.1,2.12,-191,-254,0,-256,202,262,410.70754885673523,410.7076213359833,410.71056270599365,410.7221281528473,410.85824704170227,410.85824704170227,410.85824704170227,410.85824704170227,410.85824704170227,410.85824704170227,410.85824704170227,415.21014499664307,2,4.481477737426758,None,,,,,,,,,,,,,,,,,,116,4,2025-02-25_14h06.04.826,comp,2024.2.4,55.33309586944763,2025-02-25 14h06.12.667879 -0500,
91,91,0,critical,wdh,20.0,2.1,upper,125.0,200.0,141.0,141.0,200.0,125.0,1,2.4486517906188965,None,,,,,0,0,0,0,0,91,91,11,415.2269561290741,,,,,,,,,,,,,,,,,,,,,,,,,,,,,,,,,,,,,,,,,,,,,,,,,,,,,,,,,,,,,,,,,,,,,,,,,,,,,,,,,125.0,200.0,141.0,141.0,200.0,125.0,2.1,2.11,-266,276,0,258,229,-280,415.21186685562134,415.21200466156006,415.2154731750488,415.2269561290741,415.375515460968,415.375515460968,415.375515460968,415.375515460968,415.375515460968,415.375515460968,415.375515460968,417.68239188194275,1,2.4486517906188965,None,,,,,,,,,,,,,,,,,,116,4,2025-02-25_14h06.04.826,comp,2024.2.4,55.33309586944763,2025-02-25 14h06.12.667879 -0500,
92,92,0,filler_square,None,None,None,None,None,None,None,None,None,None,3,1.491987943649292,None,,,,,0,0,0,0,0,92,92,195,417.70295786857605,,,,,,,,,,,,,,,,,,,,,,,,,,,,,,,,,,,,,,,,,,,,,,,,,,,,,,,,,,,,,,,,,,,,,,,,,,,,,,,,,103.1536425559496,70.16920707822966,96.9659228845458,101.58371285576614,123.78436249344755,123.78436249344755,2.1,2.11,-182,282,0,282,209,-277,417.684202671051,417.6842784881592,417.68727254867554,417.70295786857605,417.84349632263184,417.84349632263184,417.84349632263184,417.84349632263184,417.84349632263184,417.84349632263184,417.84349632263184,419.2101454734802,3,1.491987943649292,None,,,,,,,,,,,,,,,,,,116,4,2025-02-25_14h06.04.826,comp,2024.2.4,55.33309586944763,2025-02-25 14h06.12.667879 -0500,
93,93,0,filler_square,None,None,None,None,None,None,None,None,None,None,2,1.143050193786621,None,,,,,0,0,0,0,0,93,93,178,419.22860884666443,,,,,,,,,,,,,,,,,,,,,,,,,,,,,,,,,,,,,,,,,,,,,,,,,,,,,,,,,,,,,,,,,,,,,,,,,,,,,,,,,128.7933051843329,138.84655954618498,157.5362632296693,157.5362632296693,106.22448705190438,118.47663546835363,2.1,2.12,-244,-258,0,-275,234,264,419.21193265914917,419.212007522583,419.21516942977905,419.22860884666443,419.37875485420227,419.37875485420227,419.37875485420227,419.37875485420227,419.37875485420227,419.37875485420227,419.37875485420227,420.37798261642456,2,1.143050193786621,None,,,,,,,,,,,,,,,,,,116,4,2025-02-25_14h06.04.826,comp,2024.2.4,55.33309586944763,2025-02-25 14h06.12.667879 -0500,
94,94,0,filler_random,None,None,None,None,None,None,None,None,None,None,2,1.4141879081726074,None,,,,,0,0,0,0,0,94,94,140,420.3969256877899,,,,,,,,,,,,,,,,,,,,,,,,,,,,,,,,,,,,,,,,,,,,,,,,,,,,,,,,,,,,,,,,,,,,,,,,,,,,,,,,,110.42023515916475,105.23158339560837,111.68282921898576,163.8766609894214,68.46568006784601,97.62909012573007,2.2,2.22,-231,276,0,-290,227,-273,420.3797810077667,420.37995052337646,420.383446931839,420.3969256877899,420.54456901550293,420.54456901550293,420.54456901550293,420.54456901550293,420.54456901550293,420.54456901550293,420.54456901550293,421.8287148475647,2,1.4141879081726074,None,,,,,,,,,,,,,,,,,,116,4,2025-02-25_14h06.04.826,comp,2024.2.4,55.33309586944763,2025-02-25 14h06.12.667879 -0500,
95,95,0,filler_random,None,None,None,None,None,None,None,None,None,None,2,0.9422488212585449,None,,,,,0,0,0,0,0,95,95,149,421.8449172973633,,,,,,,,,,,,,,,,,,,,,,,,,,,,,,,,,,,,,,,,,,,,,,,,,,,,,,,,,,,,,,,,,,,,,,,,,,,,,,,,,123.70271741103386,149.93964862841563,154.87696356104124,173.42422136563658,100.43571695671102,173.83762648844942,4.0,4.1,-258,-270,0,-18,270,-273,421.830482006073,421.8305592536926,421.83467507362366,421.8449172973633,421.9950952529907,421.9950952529907,421.9950952529907,421.9950952529907,421.9950952529907,421.9950952529907,421.9950952529907,422.80487513542175,2,0.9422488212585449,None,,,,,,,,,,,,,,,,,,116,4,2025-02-25_14h06.04.826,comp,2024.2.4,55.33309586944763,2025-02-25 14h06.12.667879 -0500,
96,96,0,critical,dhw,35.0,2.1,upper,127.0,127.0,200.0,125.0,125.0,200.0,3,2.2685110569000244,None,,,,,0,0,0,0,0,96,96,1,422.8233621120453,,,,,,,,,,,,,,,,,,,,,,,,,,,,,,,,,,,,,,,,,,,,,,,,,,,,,,,,,,,,,,,,,,,,,,,,,,,,,,,,,127.0,127.0,200.0,125.0,125.0,200.0,2.1,2.11,-222,286,0,266,258,-266,422.80637788772583,422.8064503669739,422.80987572669983,422.8233621120453,422.9609203338623,422.9609203338623,422.9609203338623,422.9609203338623,422.9609203338623,422.9609203338623,422.9609203338623,425.0962586402893,3,2.2685110569000244,None,,,,,,,,,,,,,,,,,,116,4,2025-02-25_14h06.04.826,comp,2024.2.4,55.33309586944763,2025-02-25 14h06.12.667879 -0500,
97,97,0,critical,hwd,35.0,2.1,upper,200.0,125.0,125.0,200.0,127.0,127.0,2,9.997205018997192,None,,,,,0,0,0,0,0,97,97,17,425.1104085445404,,,,,,,,,,,,,,,,,,,,,,,,,,,,,,,,,,,,,,,,,,,,,,,,,,,,,,,,,,,,,,,,,,,,,,,,,,,,,,,,,200.0,125.0,125.0,200.0,127.0,127.0,2.1,2.11,-258,286,0,254,260,-261,425.0977499485016,425.09785628318787,425.1010956764221,425.1104085445404,425.2657244205475,425.2657244205475,425.2657244205475,425.2657244205475,425.2657244205475,425.2657244205475,425.2657244205475,435.11831760406494,2,9.997205018997192,None,,,,,,,,,,,,,,,,,,116,4,2025-02-25_14h06.04.826,comp,2024.2.4,55.33309586944763,2025-02-25 14h06.12.667879 -0500,
98,98,0,critical,dhw,35.0,1.0,lower,70.0,70.0,133.0,57.0,57.0,133.0,1,2.116584062576294,None,,,,,0,0,0,0,0,98,98,48,435.1344459056854,,,,,,,,,,,,,,,,,,,,,,,,,,,,,,,,,,,,,,,,,,,,,,,,,,,,,,,,,,,,,,,,,,,,,,,,,,,,,,,,,70.0,70.0,133.0,57.0,57.0,133.0,1.0,1.3,320,-261,480,-255,671,-274,435.11994647979736,435.1200716495514,435.12357234954834,435.1344459056854,435.2886371612549,435.2886371612549,435.2886371612549,435.2886371612549,435.2886371612549,435.2886371612549,435.2886371612549,437.26585578918457,1,2.116584062576294,None,,,,,,,,,,,,,,,,,,116,4,2025-02-25_14h06.04.826,comp,2024.2.4,55.33309586944763,2025-02-25 14h06.12.667879 -0500,
99,99,0,critical,whd,35.0,2.1,upper,125.0,200.0,200.0,125.0,127.0,127.0,2,1.8453972339630127,None,,,,,0,0,0,0,0,99,99,13,437.2856662273407,,,,,,,,,,,,,,,,,,,,,,,,,,,,,,,,,,,,,,,,,,,,,,,,,,,,,,,,,,,,,,,,,,,,,,,,,,,,,,,,,125.0,200.0,200.0,125.0,127.0,127.0,2.1,2.12,-258,-275,0,-279,222,261,437.26738452911377,437.2674582004547,437.2705352306366,437.2856662273407,437.43294620513916,437.43294620513916,437.43294620513916,437.43294620513916,437.43294620513916,437.43294620513916,437.43294620513916,439.1412274837494,2,1.8453972339630127,None,,,,,,,,,,,,,,,,,,116,4,2025-02-25_14h06.04.826,comp,2024.2.4,55.33309586944763,2025-02-25 14h06.12.667879 -0500,
100,100,0,critical,whd,35.0,1.0,lower,57.0,133.0,133.0,57.0,70.0,70.0,1,2.78157114982605,None,,,,,0,0,0,0,0,100,100,84,439.15740847587585,,,,,,,,,,,,,,,,,,,,,,,,,,,,,,,,,,,,,,,,,,,,,,,,,,,,,,,,,,,,,,,,,,,,,,,,,,,,,,,,,57.0,133.0,133.0,57.0,70.0,70.0,1.0,1.2,-191,7,0,8,160,-7,439.14265871047974,439.14273738861084,439.1457178592682,439.15740847587585,439.29944252967834,439.29944252967834,439.29944252967834,439.29944252967834,439.29944252967834,439.29944252967834,439.29944252967834,441.9502534866333,1,2.78157114982605,None,,,,,,,,,,,,,,,,,,116,4,2025-02-25_14h06.04.826,comp,2024.2.4,55.33309586944763,2025-02-25 14h06.12.667879 -0500,
101,101,0,critical,wdh,20.0,2.1,lower,57.0,133.0,78.0,78.0,133.0,57.0,1,1.8742527961730957,None,,,,,0,0,0,0,0,101,101,34,441.9688551425934,,,,,,,,,,,,,,,,,,,,,,,,,,,,,,,,,,,,,,,,,,,,,,,,,,,,,,,,,,,,,,,,,,,,,,,,,,,,,,,,,57.0,133.0,78.0,78.0,133.0,57.0,2.1,2.12,-202,-282,0,-277,164,271,441.95167422294617,441.9517481327057,441.9548978805542,441.9688551425934,442.1189365386963,442.1189365386963,442.1189365386963,442.1189365386963,442.1189365386963,442.1189365386963,442.1189365386963,443.8467092514038,1,1.8742527961730957,None,,,,,,,,,,,,,,,,,,116,4,2025-02-25_14h06.04.826,comp,2024.2.4,55.33309586944763,2025-02-25 14h06.12.667879 -0500,
102,102,0,critical,dwh,20.0,4.0,lower,78.0,78.0,57.0,133.0,133.0,57.0,2,3.4843332767486572,None,,,,,0,0,0,0,0,102,102,70,443.8632245063782,,,,,,,,,,,,,,,,,,,,,,,,,,,,,,,,,,,,,,,,,,,,,,,,,,,,,,,,,,,,,,,,,,,,,,,,,,,,,,,,,78.0,78.0,57.0,133.0,133.0,57.0,4.0,4.1,-202,-287,0,13,191,-255,443.84830498695374,443.8483784198761,443.85171604156494,443.8632245063782,443.99935030937195,443.99935030937195,443.99935030937195,443.99935030937195,443.99935030937195,443.99935030937195,443.99935030937195,447.3512239456177,2,3.4843332767486572,None,,,,,,,,,,,,,,,,,,116,4,2025-02-25_14h06.04.826,comp,2024.2.4,55.33309586944763,2025-02-25 14h06.12.667879 -0500,
103,103,0,filler_square,None,None,None,None,None,None,None,None,None,None,2,1.1711957454681396,None,,,,,0,0,0,0,0,103,103,188,447.3678719997406,,,,,,,,,,,,,,,,,,,,,,,,,,,,,,,,,,,,,,,,,,,,,,,,,,,,,,,,,,,,,,,,,,,,,,,,,,,,,,,,,103.02513362959175,152.24043171848035,194.32144430907854,194.32144430907854,158.03901528927105,169.55916935152266,2.2,2.22,-269,271,0,-282,278,-269,447.3530435562134,447.3531177043915,447.3563506603241,447.3678719997406,447.5197043418884,447.5197043418884,447.5197043418884,447.5197043418884,447.5197043418884,447.5197043418884,447.5197043418884,448.5545172691345,2,1.1711957454681396,None,,,,,,,,,,,,,,,,,,116,4,2025-02-25_14h06.04.826,comp,2024.2.4,55.33309586944763,2025-02-25 14h06.12.667879 -0500,
104,104,0,filler_square,None,None,None,None,None,None,None,None,None,None,2,0.9044487476348877,None,,,,,0,0,0,0,0,104,104,193,448.57235503196716,,,,,,,,,,,,,,,,,,,,,,,,,,,,,,,,,,,,,,,,,,,,,,,,,,,,,,,,,,,,,,,,,,,,,,,,,,,,,,,,,157.12073691315055,157.12073691315055,118.7298735768064,84.46724605779545,123.60390319539633,111.45799153392348,3.0,3.2,-217,-282,0,-2,194,258,448.5564889907837,448.55658769607544,448.5598523616791,448.57235503196716,448.7185711860657,448.7185711860657,448.7185711860657,448.7185711860657,448.7185711860657,448.7185711860657,448.7185711860657,449.48827505111694,2,0.9044487476348877,None,,,,,,,,,,,,,,,,,,116,4,2025-02-25_14h06.04.826,comp,2024.2.4,55.33309586944763,2025-02-25 14h06.12.667879 -0500,
105,105,0,critical,wdh,20.0,2.1,upper,125.0,200.0,141.0,141.0,200.0,125.0,1,4.690142869949341,None,,,,,0,0,0,0,0,105,105,35,449.50508975982666,,,,,,,,,,,,,,,,,,,,,,,,,,,,,,,,,,,,,,,,,,,,,,,,,,,,,,,,,,,,,,,,,,,,,,,,,,,,,,,,,125.0,200.0,141.0,141.0,200.0,125.0,2.1,2.11,-266,252,0,286,229,-264,449.4896960258484,449.48977279663086,449.4936716556549,449.50508975982666,449.6540765762329,449.6540765762329,449.6540765762329,449.6540765762329,449.6540765762329,449.6540765762329,449.6540765762329,454.20122742652893,1,4.690142869949341,None,,,,,,,,,,,,,,,,,,116,4,2025-02-25_14h06.04.826,comp,2024.2.4,55.33309586944763,2025-02-25 14h06.12.667879 -0500,
106,106,0,critical,hwd,20.0,2.1,lower,133.0,57.0,57.0,133.0,78.0,78.0,3,1.9497442245483398,None,,,,,0,0,0,0,0,106,106,18,454.22199010849,,,,,,,,,,,,,,,,,,,,,,,,,,,,,,,,,,,,,,,,,,,,,,,,,,,,,,,,,,,,,,,,,,,,,,,,,,,,,,,,,133.0,57.0,57.0,133.0,78.0,78.0,2.1,2.11,-191,255,0,262,202,-282,454.20278239250183,454.20288705825806,454.20626044273376,454.22199010849,454.3553864955902,454.3553864955902,454.3553864955902,454.3553864955902,454.3553864955902,454.3553864955902,454.3553864955902,456.1775007247925,3,1.9497442245483398,None,,,,,,,,,,,,,,,,,,116,4,2025-02-25_14h06.04.826,comp,2024.2.4,55.33309586944763,2025-02-25 14h06.12.667879 -0500,
107,107,0,filler_random,None,None,None,None,None,None,None,None,None,None,2,1.3930175304412842,None,,,,,0,0,0,0,0,107,107,134,456.19392704963684,,,,,,,,,,,,,,,,,,,,,,,,,,,,,,,,,,,,,,,,,,,,,,,,,,,,,,,,,,,,,,,,,,,,,,,,,,,,,,,,,133.36976673718078,102.01191071291294,131.56849444167167,106.70580992089978,66.4076602392999,78.95013918971586,2.2,2.21,-200,-274,0,252,189,272,456.1793327331543,456.1794557571411,456.18274331092834,456.19392704963684,456.33791494369507,456.33791494369507,456.33791494369507,456.33791494369507,456.33791494369507,456.33791494369507,456.33791494369507,457.5896632671356,2,1.3930175304412842,None,,,,,,,,,,,,,,,,,,116,4,2025-02-25_14h06.04.826,comp,2024.2.4,55.33309586944763,2025-02-25 14h06.12.667879 -0500,
108,108,0,critical,whd,35.0,4.0,upper,125.0,200.0,200.0,125.0,127.0,127.0,2,2.821183681488037,None,,,,,0,0,0,0,0,108,108,89,457.60578870773315,,,,,,,,,,,,,,,,,,,,,,,,,,,,,,,,,,,,,,,,,,,,,,,,,,,,,,,,,,,,,,,,,,,,,,,,,,,,,,,,,125.0,200.0,200.0,125.0,127.0,127.0,4.0,4.2,-258,-4,0,-285,222,8,457.59124851226807,457.5913281440735,457.5947847366333,457.60578870773315,457.75549697875977,457.75549697875977,457.75549697875977,457.75549697875977,457.75549697875977,457.75549697875977,457.75549697875977,460.4397883415222,2,2.821183681488037,None,,,,,,,,,,,,,,,,,,116,4,2025-02-25_14h06.04.826,comp,2024.2.4,55.33309586944763,2025-02-25 14h06.12.667879 -0500,
109,109,0,critical,wdh,20.0,3.0,lower,57.0,133.0,78.0,78.0,133.0,57.0,3,2.1236679553985596,None,,,,,0,0,0,0,0,109,109,80,460.45589208602905,,,,,,,,,,,,,,,,,,,,,,,,,,,,,,,,,,,,,,,,,,,,,,,,,,,,,,,,,,,,,,,,,,,,,,,,,,,,,,,,,57.0,133.0,78.0,78.0,133.0,57.0,3.0,3.2,-202,-251,0,-20,164,263,460.4412796497345,460.44135308265686,460.44461154937744,460.45589208602905,460.60693097114563,460.60693097114563,460.60693097114563,460.60693097114563,460.60693097114563,460.60693097114563,460.60693097114563,462.5882067680359,3,2.1236679553985596,None,,,,,,,,,,,,,,,,,,116,4,2025-02-25_14h06.04.826,comp,2024.2.4,55.33309586944763,2025-02-25 14h06.12.667879 -0500,
110,110,0,critical,hdw,35.0,1.0,lower,133.0,57.0,70.0,70.0,57.0,133.0,3,2.5815303325653076,None,,,,,0,0,0,0,0,110,110,108,462.6057412624359,,,,,,,,,,,,,,,,,,,,,,,,,,,,,,,,,,,,,,,,,,,,,,,,,,,,,,,,,,,,,,,,,,,,,,,,,,,,,,,,,133.0,57.0,70.0,70.0,57.0,133.0,1.0,1.2,-160,-8,0,-11,198,-13,462.58971071243286,462.58978509902954,462.59317111968994,462.6057412624359,462.75689911842346,462.75689911842346,462.75689911842346,462.75689911842346,462.75689911842346,462.75689911842346,462.75689911842346,465.19040608406067,3,2.5815303325653076,None,,,,,,,,,,,,,,,,,,116,4,2025-02-25_14h06.04.826,comp,2024.2.4,55.33309586944763,2025-02-25 14h06.12.667879 -0500,
111,111,0,critical,hwd,35.0,4.0,upper,200.0,125.0,125.0,200.0,127.0,127.0,1,14.292191743850708,None,,,,,0,0,0,0,0,111,111,101,465.2068772315979,,,,,,,,,,,,,,,,,,,,,,,,,,,,,,,,,,,,,,,,,,,,,,,,,,,,,,,,,,,,,,,,,,,,,,,,,,,,,,,,,200.0,125.0,125.0,200.0,127.0,127.0,4.0,4.2,-258,11,0,-288,260,-11,465.1919729709625,465.1920495033264,465.19509506225586,465.2068772315979,465.3629696369171,465.3629696369171,465.3629696369171,465.3629696369171,465.3629696369171,465.3629696369171,465.3629696369171,479.5120713710785,1,14.292191743850708,None,,,,,,,,,,,,,,,,,,116,4,2025-02-25_14h06.04.826,comp,2024.2.4,55.33309586944763,2025-02-25 14h06.12.667879 -0500,
112,112,0,critical,dwh,20.0,3.0,upper,141.0,141.0,125.0,200.0,200.0,125.0,2,1.547377347946167,None,,,,,0,0,0,0,0,112,112,69,479.5285475254059,,,,,,,,,,,,,,,,,,,,,,,,,,,,,,,,,,,,,,,,,,,,,,,,,,,,,,,,,,,,,,,,,,,,,,,,,,,,,,,,,141.0,141.0,125.0,200.0,200.0,125.0,3.0,3.2,-266,-278,0,18,258,285,479.5136580467224,479.513729095459,479.51713585853577,479.5285475254059,479.68268036842346,479.68268036842346,479.68268036842346,479.68268036842346,479.68268036842346,479.68268036842346,479.68268036842346,481.0849645137787,2,1.547377347946167,None,,,,,,,,,,,,,,,,,,116,4,2025-02-25_14h06.04.826,comp,2024.2.4,55.33309586944763,2025-02-25 14h06.12.667879 -0500,
113,113,0,critical,whd,20.0,4.0,lower,57.0,133.0,133.0,57.0,78.0,78.0,3,4.542052268981934,None,,,,,0,0,0,0,0,113,113,94,481.1014745235443,,,,,,,,,,,,,,,,,,,,,,,,,,,,,,,,,,,,,,,,,,,,,,,,,,,,,,,,,,,,,,,,,,,,,,,,,,,,,,,,,57.0,133.0,133.0,57.0,78.0,78.0,4.0,4.1,-191,-255,0,0,164,-258,481.08663177490234,481.0867745876312,481.0905284881592,481.1014745235443,481.25433802604675,481.25433802604675,481.25433802604675,481.25433802604675,481.25433802604675,481.25433802604675,481.25433802604675,485.64772057533264,3,4.542052268981934,None,,,,,,,,,,,,,,,,,,116,4,2025-02-25_14h06.04.826,comp,2024.2.4,55.33309586944763,2025-02-25 14h06.12.667879 -0500,
114,114,0,filler_square,None,None,None,None,None,None,None,None,None,None,1,1.1142444610595703,None,,,,,0,0,0,0,0,114,114,176,485.66494154930115,,,,,,,,,,,,,,,,,,,,,,,,,,,,,,,,,,,,,,,,,,,,,,,,,,,,,,,,,,,,,,,,,,,,,,,,,,,,,,,,,100.61998500947229,100.61998500947229,87.55722701192553,58.32783120712148,70.03037942012016,60.387007650721024,1.0,1.3,305,-264,480,-287,635,-268,485.6495578289032,485.64963459968567,485.6533408164978,485.66494154930115,485.82295775413513,485.82295775413513,485.82295775413513,485.82295775413513,485.82295775413513,485.82295775413513,485.82295775413513,486.78460001945496,1,1.1142444610595703,None,,,,,,,,,,,,,,,,,,116,4,2025-02-25_14h06.04.826,comp,2024.2.4,55.33309586944763,2025-02-25 14h06.12.667879 -0500,
115,115,0,critical,wdh,20.0,1.0,upper,125.0,200.0,141.0,141.0,200.0,125.0,2,2.2151713371276855,None,,,,,0,0,0,0,0,115,115,79,486.80387711524963,,,,,,,,,,,,,,,,,,,,,,,,,,,,,,,,,,,,,,,,,,,,,,,,,,,,,,,,,,,,,,,,,,,,,,,,,,,,,,,,,125.0,200.0,141.0,141.0,200.0,125.0,1.0,1.3,214,-255,480,-252,709,-271,486.786497592926,486.78662610054016,486.7898814678192,486.80387711524963,486.94889664649963,486.94889664649963,486.94889664649963,486.94889664649963,486.94889664649963,486.94889664649963,486.94889664649963,489.0354959964752,2,2.2151713371276855,None,,,,,,,,,,,,,,,,,,116,4,2025-02-25_14h06.04.826,comp,2024.2.4,55.33309586944763,2025-02-25 14h06.12.667879 -0500,
116,116,0,critical,dhw,35.0,3.0,lower,70.0,70.0,133.0,57.0,57.0,133.0,2,2.4274978637695312,None,,,,,0,0,0,0,0,116,116,50,489.04989409446716,,,,,,,,,,,,,,,,,,,,,,,,,,,,,,,,,,,,,,,,,,,,,,,,,,,,,,,,,,,,,,,,,,,,,,,,,,,,,,,,,70.0,70.0,133.0,57.0,57.0,133.0,3.0,3.1,-160,268,0,10,191,-274,489.0361921787262,489.0362241268158,489.0376536846161,489.04989409446716,489.20097041130066,489.20097041130066,489.20097041130066,489.20097041130066,489.20097041130066,489.20097041130066,489.20097041130066,491.4817798137665,2,2.4274978637695312,None,,,,,,,,,,,,,,,,,,116,4,2025-02-25_14h06.04.826,comp,2024.2.4,55.33309586944763,2025-02-25 14h06.12.667879 -0500,
117,117,0,critical,wdh,35.0,3.0,lower,57.0,133.0,70.0,70.0,133.0,57.0,3,1.8500018119812012,None,,,,,0,0,0,0,0,117,117,74,491.4973855018616,,,,,,,,,,,,,,,,,,,,,,,,,,,,,,,,,,,,,,,,,,,,,,,,,,,,,,,,,,,,,,,,,,,,,,,,,,,,,,,,,57.0,133.0,70.0,70.0,133.0,57.0,3.0,3.2,-198,-266,0,-8,160,278,491.48330998420715,491.4833912849426,491.48642110824585,491.4973855018616,491.6389784812927,491.6389784812927,491.6389784812927,491.6389784812927,491.6389784812927,491.6389784812927,491.6389784812927,493.3499038219452,3,1.8500018119812012,None,,,,,,,,,,,,,,,,,,116,4,2025-02-25_14h06.04.826,comp,2024.2.4,55.33309586944763,2025-02-25 14h06.12.667879 -0500,
118,118,0,critical,hdw,20.0,2.1,lower,133.0,57.0,78.0,78.0,57.0,133.0,3,1.8406672477722168,None,,,,,0,0,0,0,0,118,118,46,493.3710880279541,,,,,,,,,,,,,,,,,,,,,,,,,,,,,,,,,,,,,,,,,,,,,,,,,,,,,,,,,,,,,,,,,,,,,,,,,,,,,,,,,133.0,57.0,78.0,78.0,57.0,133.0,2.1,2.11,-164,262,0,273,202,-277,493.35151982307434,493.3515975475311,493.3552300930023,493.3710880279541,493.518057346344,493.518057346344,493.518057346344,493.518057346344,493.518057346344,493.518057346344,493.518057346344,495.2184762954712,3,1.8406672477722168,None,,,,,,,,,,,,,,,,,,116,4,2025-02-25_14h06.04.826,comp,2024.2.4,55.33309586944763,2025-02-25 14h06.12.667879 -0500,
119,119,0,critical,whd,20.0,3.0,upper,125.0,200.0,200.0,125.0,141.0,141.0,2,3.956221580505371,None,,,,,0,0,0,0,0,119,119,93,495.2395353317261,,,,,,,,,,,,,,,,,,,,,,,,,,,,,,,,,,,,,,,,,,,,,,,,,,,,,,,,,,,,,,,,,,,,,,,,,,,,,,,,,125.0,200.0,200.0,125.0,141.0,141.0,3.0,3.2,-258,-283,0,-18,229,258,495.2200195789337,495.2200984954834,495.2236714363098,495.2395353317261,495.3847134113312,495.3847134113312,495.3847134113312,495.3847134113312,495.3847134113312,495.3847134113312,495.3847134113312,499.20326590538025,2,3.956221580505371,None,,,,,,,,,,,,,,,,,,116,4,2025-02-25_14h06.04.826,comp,2024.2.4,55.33309586944763,2025-02-25 14h06.12.667879 -0500,
120,120,0,critical,wdh,35.0,4.0,upper,125.0,200.0,127.0,127.0,200.0,125.0,3,1.3230500221252441,None,,,,,0,0,0,0,0,120,120,77,499.22442293167114,,,,,,,,,,,,,,,,,,,,,,,,,,,,,,,,,,,,,,,,,,,,,,,,,,,,,,,,,,,,,,,,,,,,,,,,,,,,,,,,,125.0,200.0,127.0,127.0,200.0,125.0,4.0,4.1,-260,-255,0,-18,222,-264,499.20473527908325,499.20483231544495,499.20789098739624,499.22442293167114,499.3684904575348,499.3684904575348,499.3684904575348,499.3684904575348,499.3684904575348,499.3684904575348,499.3684904575348,500.551682472229,3,1.3230500221252441,None,,,,,,,,,,,,,,,,,,116,4,2025-02-25_14h06.04.826,comp,2024.2.4,55.33309586944763,2025-02-25 14h06.12.667879 -0500,
121,121,0,critical,dwh,35.0,1.0,lower,70.0,70.0,57.0,133.0,133.0,57.0,3,18.043732166290283,None,,,,,0,0,0,0,0,121,121,60,500.56797647476196,,,,,,,,,,,,,,,,,,,,,,,,,,,,,,,,,,,,,,,,,,,,,,,,,,,,,,,,,,,,,,,,,,,,,,,,,,,,,,,,,70.0,70.0,57.0,133.0,133.0,57.0,1.0,1.1,-678,286,-480,254,-289,269,500.5532166957855,500.55329155921936,500.55644512176514,500.56797647476196,500.72355222702026,500.72355222702026,500.72355222702026,500.72355222702026,500.72355222702026,500.72355222702026,500.72355222702026,518.6214809417725,3,18.043732166290283,None,,,,,,,,,,,,,,,,,,116,4,2025-02-25_14h06.04.826,comp,2024.2.4,55.33309586944763,2025-02-25 14h06.12.667879 -0500,
122,122,0,critical,dhw,20.0,2.1,lower,78.0,78.0,133.0,57.0,57.0,133.0,3,1.5892016887664795,None,,,,,0,0,0,0,0,122,122,26,518.637932062149,,,,,,,,,,,,,,,,,,,,,,,,,,,,,,,,,,,,,,,,,,,,,,,,,,,,,,,,,,,,,,,,,,,,,,,,,,,,,,,,,78.0,78.0,133.0,57.0,57.0,133.0,2.1,2.11,-164,285,0,261,191,-256,518.6230821609497,518.6231598854065,518.6262109279633,518.637932062149,518.7752690315247,518.7752690315247,518.7752690315247,518.7752690315247,518.7752690315247,518.7752690315247,518.7752690315247,520.2452204227448,3,1.5892016887664795,None,,,,,,,,,,,,,,,,,,116,4,2025-02-25_14h06.04.826,comp,2024.2.4,55.33309586944763,2025-02-25 14h06.12.667879 -0500,
123,123,0,critical,hwd,35.0,4.0,lower,133.0,57.0,57.0,133.0,70.0,70.0,2,4.556737422943115,None,,,,,0,0,0,0,0,123,123,100,520.2628679275513,,,,,,,,,,,,,,,,,,,,,,,,,,,,,,,,,,,,,,,,,,,,,,,,,,,,,,,,,,,,,,,,,,,,,,,,,,,,,,,,,133.0,57.0,57.0,133.0,70.0,70.0,4.0,4.1,-191,-255,0,3,198,-289,520.2469716072083,520.2470459938049,520.2502245903015,520.2628679275513,520.4091994762421,520.4091994762421,520.4091994762421,520.4091994762421,520.4091994762421,520.4091994762421,520.4091994762421,524.8400220870972,2,4.556737422943115,None,,,,,,,,,,,,,,,,,,116,4,2025-02-25_14h06.04.826,comp,2024.2.4,55.33309586944763,2025-02-25 14h06.12.667879 -0500,
124,124,0,critical,whd,20.0,2.1,lower,57.0,133.0,133.0,57.0,78.0,78.0,2,23.09000015258789,None,,,,,0,0,0,0,0,124,124,38,524.857079744339,,,,,,,,,,,,,,,,,,,,,,,,,,,,,,,,,,,,,,,,,,,,,,,,,,,,,,,,,,,,,,,,,,,,,,,,,,,,,,,,,57.0,133.0,133.0,57.0,78.0,78.0,2.1,2.11,-191,252,0,279,164,-262,524.841521024704,524.8415939807892,524.8445394039154,524.857079744339,525.0142629146576,525.0142629146576,525.0142629146576,525.0142629146576,525.0142629146576,525.0142629146576,525.0142629146576,547.95108294487,2,23.09000015258789,None,,,,,,,,,,,,,,,,,,116,4,2025-02-25_14h06.04.826,comp,2024.2.4,55.33309586944763,2025-02-25 14h06.12.667879 -0500,
125,125,0,filler_random,None,None,None,None,None,None,None,None,None,None,2,1.0601012706756592,None,,,,,0,0,0,0,0,125,125,154,547.9672102928162,,,,,,,,,,,,,,,,,,,,,,,,,,,,,,,,,,,,,,,,,,,,,,,,,,,,,,,,,,,,,,,,,,,,,,,,,,,,,,,,,85.0260417862464,91.4935906830077,188.54699713139644,94.89873226341493,93.80461093000415,165.43155749987912,1.0,1.1,-669,282,-480,257,-254,290,547.9529457092285,547.9530255794525,547.9564814567566,547.9672102928162,548.1162362098694,548.1162362098694,548.1162362098694,548.1162362098694,548.1162362098694,548.1162362098694,548.1162362098694,549.0391430854797,2,1.0601012706756592,None,,,,,,,,,,,,,,,,,,116,4,2025-02-25_14h06.04.826,comp,2024.2.4,55.33309586944763,2025-02-25 14h06.12.667879 -0500,
126,126,0,critical,whd,20.0,3.0,lower,57.0,133.0,133.0,57.0,78.0,78.0,1,2.628207206726074,None,,,,,0,0,0,0,0,126,126,92,549.0553507804871,,,,,,,,,,,,,,,,,,,,,,,,,,,,,,,,,,,,,,,,,,,,,,,,,,,,,,,,,,,,,,,,,,,,,,,,,,,,,,,,,57.0,133.0,133.0,57.0,78.0,78.0,3.0,3.1,-191,252,0,-3,164,-263,549.0407407283783,549.0408477783203,549.0438983440399,549.0553507804871,549.2021074295044,549.2021074295044,549.2021074295044,549.2021074295044,549.2021074295044,549.2021074295044,549.2021074295044,551.7017114162445,1,2.628207206726074,None,,,,,,,,,,,,,,,,,,116,4,2025-02-25_14h06.04.826,comp,2024.2.4,55.33309586944763,2025-02-25 14h06.12.667879 -0500,
127,127,0,critical,dwh,35.0,4.0,upper,127.0,127.0,125.0,200.0,200.0,125.0,2,34.889349937438965,None,,,,,0,0,0,0,0,127,127,65,551.7222435474396,,,,,,,,,,,,,,,,,,,,,,,,,,,,,,,,,,,,,,,,,,,,,,,,,,,,,,,,,,,,,,,,,,,,,,,,,,,,,,,,,127.0,127.0,125.0,200.0,200.0,125.0,4.0,4.1,-260,-267,0,-18,258,-286,551.703373670578,551.7034497261047,551.7069079875946,551.7222435474396,551.8693120479584,551.8693120479584,551.8693120479584,551.8693120479584,551.8693120479584,551.8693120479584,551.8693120479584,586.6136457920074,2,34.889349937438965,None,,,,,,,,,,,,,,,,,,116,4,2025-02-25_14h06.04.826,comp,2024.2.4,55.33309586944763,2025-02-25 14h06.12.667879 -0500,
128,128,0,filler_square,None,None,None,None,None,None,None,None,None,None,2,3.4523234367370605,None,,,,,0,0,0,0,0,128,128,184,586.630937576294,,,,,,,,,,,,,,,,,,,,,,,,,,,,,,,,,,,,,,,,,,,,,,,,,,,,,,,,,,,,,,,,,,,,,,,,,,,,,,,,,64.13045922839537,59.27169324228465,64.83409949330613,64.83409949330613,63.17464209638776,61.33709840902087,2.2,2.22,-158,274,0,-258,159,-276,586.6156647205353,586.6157455444336,586.6191956996918,586.630937576294,586.7802600860596,586.7802600860596,586.7802600860596,586.7802600860596,586.7802600860596,586.7802600860596,586.7802600860596,590.0967454910278,2,3.4523234367370605,None,,,,,,,,,,,,,,,,,,116,4,2025-02-25_14h06.04.826,comp,2024.2.4,55.33309586944763,2025-02-25 14h06.12.667879 -0500,
129,129,0,filler_square,None,None,None,None,None,None,None,None,None,None,1,1.1462976932525635,None,,,,,0,0,0,0,0,129,129,185,590.1133542060852,,,,,,,,,,,,,,,,,,,,,,,,,,,,,,,,,,,,,,,,,,,,,,,,,,,,,,,,,,,,,,,,,,,,,,,,,,,,,,,,,195.79695675164427,195.79695675164427,92.93792016493043,126.35570744854276,89.71754202634186,156.61109191444166,1.0,1.1,-737,272,-480,289,-243,260,590.0986428260803,590.0987226963043,590.102064371109,590.1133542060852,590.2722327709198,590.2722327709198,590.2722327709198,590.2722327709198,590.2722327709198,590.2722327709198,590.2722327709198,591.2648253440857,1,1.1462976932525635,None,,,,,,,,,,,,,,,,,,116,4,2025-02-25_14h06.04.826,comp,2024.2.4,55.33309586944763,2025-02-25 14h06.12.667879 -0500,
130,130,0,critical,hwd,20.0,1.0,upper,200.0,125.0,125.0,200.0,141.0,141.0,2,1.9079334735870361,None,,,,,0,0,0,0,0,130,130,103,591.2794804573059,,,,,,,,,,,,,,,,,,,,,,,,,,,,,,,,,,,,,,,,,,,,,,,,,,,,,,,,,,,,,,,,,,,,,,,,,,,,,,,,,200.0,125.0,125.0,200.0,141.0,141.0,1.0,1.2,-258,-4,0,2,266,-13,591.266401052475,591.2664802074432,591.2697713375092,591.2794804573059,591.4192817211151,591.4192817211151,591.4192817211151,591.4192817211151,591.4192817211151,591.4192817211151,591.4192817211151,593.1968891620636,2,1.9079334735870361,None,,,,,,,,,,,,,,,,,,116,4,2025-02-25_14h06.04.826,comp,2024.2.4,55.33309586944763,2025-02-25 14h06.12.667879 -0500,
131,131,0,critical,wdh,35.0,1.0,lower,57.0,133.0,70.0,70.0,133.0,57.0,3,10.626492500305176,None,,,,,0,0,0,0,0,131,131,72,593.2175931930542,,,,,,,,,,,,,,,,,,,,,,,,,,,,,,,,,,,,,,,,,,,,,,,,,,,,,,,,,,,,,,,,,,,,,,,,,,,,,,,,,57.0,133.0,70.0,70.0,133.0,57.0,1.0,1.2,-198,-5,0,-1,160,14,593.1984539031982,593.1985409259796,593.202006816864,593.2175931930542,593.3727164268494,593.3727164268494,593.3727164268494,593.3727164268494,593.3727164268494,593.3727164268494,593.3727164268494,603.8508837223053,3,10.626492500305176,None,,,,,,,,,,,,,,,,,,116,4,2025-02-25_14h06.04.826,comp,2024.2.4,55.33309586944763,2025-02-25 14h06.12.667879 -0500,
132,132,0,critical,dhw,20.0,2.1,upper,141.0,141.0,200.0,125.0,125.0,200.0,3,1.279667854309082,None,,,,,0,0,0,0,0,132,132,27,603.8678750991821,,,,,,,,,,,,,,,,,,,,,,,,,,,,,,,,,,,,,,,,,,,,,,,,,,,,,,,,,,,,,,,,,,,,,,,,,,,,,,,,,141.0,141.0,200.0,125.0,125.0,200.0,2.1,2.12,-229,-271,0,-276,258,252,603.8523688316345,603.8524441719055,603.8557069301605,603.8678750991821,604.0193939208984,604.0193939208984,604.0193939208984,604.0193939208984,604.0193939208984,604.0193939208984,604.0193939208984,605.1516950130463,3,1.279667854309082,None,,,,,,,,,,,,,,,,,,116,4,2025-02-25_14h06.04.826,comp,2024.2.4,55.33309586944763,2025-02-25 14h06.12.667879 -0500,
133,133,0,filler_square,None,None,None,None,None,None,None,None,None,None,3,2.208585739135742,None,,,,,0,0,0,0,0,133,133,197,605.1707503795624,,,,,,,,,,,,,,,,,,,,,,,,,,,,,,,,,,,,,,,,,,,,,,,,,,,,,,,,,,,,,,,,,,,,,,,,,,,,,,,,,60.191012329216406,59.20233382574329,57.09956926101418,58.81512716424703,61.154903594136904,61.154903594136904,1.0,1.3,325,-267,480,-279,636,-283,605.1537888050079,605.15389752388,605.1576595306396,605.1707503795624,605.3269731998444,605.3269731998444,605.3269731998444,605.3269731998444,605.3269731998444,605.3269731998444,605.3269731998444,607.3931653499603,3,2.208585739135742,None,,,,,,,,,,,,,,,,,,116,4,2025-02-25_14h06.04.826,comp,2024.2.4,55.33309586944763,2025-02-25 14h06.12.667879 -0500,
134,134,0,filler_random,None,None,None,None,None,None,None,None,None,None,2,1.2539513111114502,None,,,,,0,0,0,0,0,134,134,133,607.4133961200714,,,,,,,,,,,,,,,,,,,,,,,,,,,,,,,,,,,,,,,,,,,,,,,,,,,,,,,,,,,,,,,,,,,,,,,,,,,,,,,,,72.59165864279133,174.10289241375278,121.32734825328835,166.10661942866471,149.77493093095916,98.02934645888661,3.0,3.2,-266,-286,0,-17,228,264,607.3947823047638,607.394880771637,607.3978214263916,607.4133961200714,607.5536634922028,607.5536634922028,607.5536634922028,607.5536634922028,607.5536634922028,607.5536634922028,607.5536634922028,608.6726906299591,2,1.2539513111114502,None,,,,,,,,,,,,,,,,,,116,4,2025-02-25_14h06.04.826,comp,2024.2.4,55.33309586944763,2025-02-25 14h06.12.667879 -0500,
135,135,0,critical,hwd,20.0,4.0,upper,200.0,125.0,125.0,200.0,141.0,141.0,3,1.7193958759307861,None,,,,,0,0,0,0,0,135,135,107,608.6926472187042,,,,,,,,,,,,,,,,,,,,,,,,,,,,,,,,,,,,,,,,,,,,,,,,,,,,,,,,,,,,,,,,,,,,,,,,,,,,,,,,,200.0,125.0,125.0,200.0,141.0,141.0,4.0,4.2,-258,16,0,-288,266,-19,608.6744201183319,608.6744968891144,608.677930355072,608.6926472187042,608.8370237350464,608.8370237350464,608.8370237350464,608.8370237350464,608.8370237350464,608.8370237350464,608.8370237350464,610.4222798347473,3,1.7193958759307861,None,,,,,,,,,,,,,,,,,,116,4,2025-02-25_14h06.04.826,comp,2024.2.4,55.33309586944763,2025-02-25 14h06.12.667879 -0500,
136,136,0,filler_square,None,None,None,None,None,None,None,None,None,None,2,0.9329776763916016,None,,,,,0,0,0,0,0,136,136,202,610.4382255077362,,,,,,,,,,,,,,,,,,,,,,,,,,,,,,,,,,,,,,,,,,,,,,,,,,,,,,,,,,,,,,,,,,,,,,,,,,,,,,,,,59.48388762081612,89.81668302732834,104.3616459200873,104.3616459200873,81.21519210929463,66.26230215086348,3.0,3.2,-193,-290,0,-7,181,285,610.4240760803223,610.4241609573364,610.4275007247925,610.4382255077362,610.594377040863,610.594377040863,610.594377040863,610.594377040863,610.594377040863,610.594377040863,610.594377040863,611.3861713409424,2,0.9329776763916016,None,,,,,,,,,,,,,,,,,,116,4,2025-02-25_14h06.04.826,comp,2024.2.4,55.33309586944763,2025-02-25 14h06.12.667879 -0500,
137,137,0,critical,whd,35.0,3.0,upper,125.0,200.0,200.0,125.0,127.0,127.0,2,1.3472485542297363,None,,,,,0,0,0,0,0,137,137,87,611.3998861312866,,,,,,,,,,,,,,,,,,,,,,,,,,,,,,,,,,,,,,,,,,,,,,,,,,,,,,,,,,,,,,,,,,,,,,,,,,,,,,,,,125.0,200.0,200.0,125.0,127.0,127.0,3.0,3.1,-258,288,0,-11,222,-263,611.3876824378967,611.387757062912,611.390956401825,611.3998861312866,611.5423874855042,611.5423874855042,611.5423874855042,611.5423874855042,611.5423874855042,611.5423874855042,611.5423874855042,612.7578649520874,2,1.3472485542297363,None,,,,,,,,,,,,,,,,,,116,4,2025-02-25_14h06.04.826,comp,2024.2.4,55.33309586944763,2025-02-25 14h06.12.667879 -0500,
138,138,0,critical,wdh,35.0,2.1,lower,57.0,133.0,70.0,70.0,133.0,57.0,1,3.020895481109619,None,,,,,0,0,0,0,0,138,138,8,612.7744081020355,,,,,,,,,,,,,,,,,,,,,,,,,,,,,,,,,,,,,,,,,,,,,,,,,,,,,,,,,,,,,,,,,,,,,,,,,,,,,,,,,57.0,133.0,70.0,70.0,133.0,57.0,2.1,2.11,-198,252,0,262,160,-267,612.7593560218811,612.7594332695007,612.7626760005951,612.7744081020355,612.9215636253357,612.9215636253357,612.9215636253357,612.9215636253357,612.9215636253357,612.9215636253357,612.9215636253357,615.8049111366272,1,3.020895481109619,None,,,,,,,,,,,,,,,,,,116,4,2025-02-25_14h06.04.826,comp,2024.2.4,55.33309586944763,2025-02-25 14h06.12.667879 -0500,
139,139,0,filler_square,None,None,None,None,None,None,None,None,None,None,2,0.9561784267425537,None,,,,,0,0,0,0,0,139,139,205,615.8241691589355,,,,,,,,,,,,,,,,,,,,,,,,,,,,,,,,,,,,,,,,,,,,,,,,,,,,,,,,,,,,,,,,,,,,,,,,,,,,,,,,,81.60519731497834,68.48831886702806,161.17252654335664,161.17252654335664,69.65805198204379,80.4001006353241,3.0,3.2,-211,-264,0,-1,217,260,615.8066663742065,615.8067455291748,615.8099820613861,615.8241691589355,615.9728720188141,615.9728720188141,615.9728720188141,615.9728720188141,615.9728720188141,615.9728720188141,615.9728720188141,616.7921762466431,2,0.9561784267425537,None,,,,,,,,,,,,,,,,,,116,4,2025-02-25_14h06.04.826,comp,2024.2.4,55.33309586944763,2025-02-25 14h06.12.667879 -0500,
