thisN,thisTrialN,thisRepN,effect,order,distance,config,diag,h_1,w_1,h_2,w_2,h_3,w_3,rect_choice.keys,rect_choice.rt,rect_choice.duration,instructions_loop.thisRepN,instructions_loop.thisTrialN,instructions_loop.thisN,instructions_loop.thisIndex,blocks.thisRepN,blocks.thisTrialN,blocks.thisN,blocks.thisIndex,trials.thisRepN,trials.thisTrialN,trials.thisN,trials.thisIndex,thisRow.t,notes,consent.started,agree_button.started,decline_button.started,consent_img.started,mouse.started,consent.stopped,agree_button.numClicks,agree_button.timesOn,agree_button.timesOff,decline_button.numClicks,decline_button.timesOn,decline_button.timesOff,mouse.x,mouse.y,mouse.leftButton,mouse.midButton,mouse.rightButton,mouse.time,mouse.clicked_name,exp_params.started,exp_params.stopped,welcome.started,welcome_text.started,welcome.stopped,instructions_1.started,instructions_1_text_1.started,instructions_1_text_2.started,key_resp.started,instructions_1.stopped,instructions_loop.key_resp.keys,instructions_loop.key_resp.rt,instructions_loop.key_resp.duration,instructions_2.started,instructions_2_text_1.started,instructions_2_text_2.started,key_resp_2.started,instructions_2.stopped,instructions_loop.key_resp_2.keys,instructions_loop.key_resp_2.rt,instructions_loop.key_resp_2.duration,instructions_3.started,instructions_3_text_1.started,r1_instr3.started,r2_instr3.started,r3_instr3.started,r1_instr3_label.started,r2_instr3_label.started,r3_instr3_label.started,instructions_3_text_3.started,instructions_3_text_4.started,key_resp_3.started,instructions_3.stopped,instructions_loop.key_resp_3.keys,instructions_loop.key_resp_3.rt,instructions_loop.key_resp_3.duration,instructions_4.started,instructions_4_text_1.started,instructions_4_text_3.started,instructions_4_text_2.started,key_resp_4.started,instructions_4.stopped,instructions_loop.key_resp_4.keys,instructions_loop.key_resp_4.rt,instructions_loop.key_resp_4.duration,instructions_5.started,instructions_5_text_1.started,instructions_5_text_2.started,key_resp_5.started,instructions_5.stopped,instructions_loop.key_resp_5.keys,instructions_loop.key_resp_5.rt,instructions_loop.key_resp_5.duration,start_exp.started,start_exp_text.started,key_resp_6.started,start_exp.stopped,key_resp_6.keys,key_resp_6.rt,key_resp_6.duration,h_1_tmp,w_1_tmp,h_2_tmp,w_2_tmp,h_3_tmp,w_3_tmp,config_tmp,config_tmp_1,r_1_x,r_1_y,r_2_x,r_2_y,r_3_x,r_3_y,pre_trial.started,pre_trial.stopped,choice_trial.started,rect_choice.started,r_1.started,r_2.started,r_3.started,r_1_label.started,r_2_label.started,r_3_label.started,prompt.started,choice_trial.stopped,trials.rect_choice.keys,trials.rect_choice.rt,trials.rect_choice.duration,end_block.started,end_block_text.started,end_block.stopped,end.started,end_text.started,key_resp_7.started,end.stopped,key_resp_7.keys,key_resp_7.rt,key_resp_7.duration,debriefing.started,debrief_form.started,end_debrief.started,debriefing.stopped,end_debrief.keys,end_debrief.rt,end_debrief.duration,participant,computer,date,expName,psychopyVersion,frameRate,expStart,
,,,,,,,,,,,,,,,,,,,,,,,,,,,,,,,0.014602422714233398,0.03459310531616211,0.03459310531616211,0.03459310531616211,0.014409065246582031,9.476272106170654,1,[9.43913459777832],[9.439156293869019],0,,,[-86.0],[-495.0],[1],[0],[0],[9.46107816696167],['agree_button'],,,,,,,,,,,,,,,,,,,,,,,,,,,,,,,,,,,,,,,,,,,,,,,,,,,,,,,,,,,,,,,,,,,,,,,,,,,,,,,,,,,,,,,,,,,,,,,,,,,,,,,,,,,117,1,2025-02-25_15h07.57.762,comp,2024.2.4,59.62798473725214,2025-02-25 15h08.07.977453 -0500,
,,,,,,,,,,,,,,,,,,,,,,,,,,,,,,,,,,,,,,,,,,,,,,,,,,9.476895570755005,9.476963520050049,,,,,,,,,,,,,,,,,,,,,,,,,,,,,,,,,,,,,,,,,,,,,,,,,,,,,,,,,,,,,,,,,,,,,,,,,,,,,,,,,,,,,,,,,,,,,,,,,,,,,,,,,117,1,2025-02-25_15h07.57.762,comp,2024.2.4,59.62798473725214,2025-02-25 15h08.07.977453 -0500,
,,,,,,,,,,,,,,,,,,,,,,,,,,,,,,,,,,,,,,,,,,,,,,,,,,,,9.477007627487183,9.495256185531616,11.486114501953125,,,,,,,,,,,,,,,,,,,,,,,,,,,,,,,,,,,,,,,,,,,,,,,,,,,,,,,,,,,,,,,,,,,,,,,,,,,,,,,,,,,,,,,,,,,,,,,,,,,,,,117,1,2025-02-25_15h07.57.762,comp,2024.2.4,59.62798473725214,2025-02-25 15h08.07.977453 -0500,
0,0,0,,,,,,,,,,,,,,,0,0,0,0,,,,,,,,,11.502904415130615,,,,,,,,,,,,,,,,,,,,,,,,,,11.48701786994934,11.502904415130615,11.502904415130615,12.987090349197388,15.890912294387817,space,2.8860230445861816,None,15.89105772972107,15.906487226486206,15.906487226486206,17.388203382492065,25.394233226776123,space,7.997390508651733,None,25.3944194316864,25.425068378448486,25.425068378448486,25.425068378448486,25.425068378448486,25.425068378448486,25.425068378448486,25.425068378448486,25.425068378448486,25.425068378448486,26.90136432647705,32.315523624420166,space,5.403630018234253,None,32.31568193435669,32.33306837081909,32.33306837081909,32.33306837081909,33.82924270629883,39.46513843536377,space,5.619748592376709,None,39.46529221534729,39.48085808753967,39.48085808753967,40.9811372756958,41.76679468154907,space,0.7802493572235107,None,41.76698899269104,41.78125071525574,41.78125071525574,43.11712431907654,space,1.3317534923553467,None,,,,,,,,,,,,,,,,,,,,,,,,,,,,,,,,,,,,,,,,,,,,,,,117,1,2025-02-25_15h07.57.762,comp,2024.2.4,59.62798473725214,2025-02-25 15h08.07.977453 -0500,
0,0,0,critical,dhw,20.0,1.0,lower,78.0,78.0,133.0,57.0,57.0,133.0,2,5.457253694534302,None,,,,,0,0,0,0,0,0,0,54,43.191943883895874,,,,,,,,,,,,,,,,,,,,,,,,,,,,,,,,,,,,,,,,,,,,,,,,,,,,,,,,,,,,,,,,,,,,,,,,,,,,,,,,,78.0,78.0,133.0,57.0,57.0,133.0,1.0,1.1,-644,278,-480,290,-289,253,43.17495393753052,43.17500400543213,43.17668628692627,43.191943883895874,43.34131741523743,43.34131741523743,43.34131741523743,43.34131741523743,43.34131741523743,43.34131741523743,43.34131741523743,48.652719020843506,2,5.457253694534302,None,,,,,,,,,,,,,,,,,,117,1,2025-02-25_15h07.57.762,comp,2024.2.4,59.62798473725214,2025-02-25 15h08.07.977453 -0500,
1,1,0,critical,whd,20.0,1.0,upper,125.0,200.0,200.0,125.0,141.0,141.0,1,2.836815118789673,None,,,,,0,0,0,0,0,1,1,91,48.668861389160156,,,,,,,,,,,,,,,,,,,,,,,,,,,,,,,,,,,,,,,,,,,,,,,,,,,,,,,,,,,,,,,,,,,,,,,,,,,,,,,,,125.0,200.0,200.0,125.0,141.0,141.0,1.0,1.2,-258,-14,0,10,229,20,48.65421223640442,48.65428853034973,48.65760326385498,48.668861389160156,48.817418336868286,48.817418336868286,48.817418336868286,48.817418336868286,48.817418336868286,48.817418336868286,48.817418336868286,51.522520303726196,1,2.836815118789673,None,,,,,,,,,,,,,,,,,,117,1,2025-02-25_15h07.57.762,comp,2024.2.4,59.62798473725214,2025-02-25 15h08.07.977453 -0500,
2,2,0,critical,hdw,20.0,4.0,lower,133.0,57.0,78.0,78.0,57.0,133.0,1,12.394616842269897,None,,,,,0,0,0,0,0,2,2,118,51.54308247566223,,,,,,,,,,,,,,,,,,,,,,,,,,,,,,,,,,,,,,,,,,,,,,,,,,,,,,,,,,,,,,,,,,,,,,,,,,,,,,,,,133.0,57.0,78.0,78.0,57.0,133.0,4.0,4.2,-164,-11,0,-256,202,18,51.52417325973511,51.52430558204651,51.52760648727417,51.54308247566223,51.69408082962036,51.69408082962036,51.69408082962036,51.69408082962036,51.69408082962036,51.69408082962036,51.69408082962036,63.94593954086304,1,12.394616842269897,None,,,,,,,,,,,,,,,,,,117,1,2025-02-25_15h07.57.762,comp,2024.2.4,59.62798473725214,2025-02-25 15h08.07.977453 -0500,
3,3,0,critical,hdw,20.0,1.0,lower,133.0,57.0,78.0,78.0,57.0,133.0,3,7.643164873123169,None,,,,,0,0,0,0,0,3,3,114,63.96590733528137,,,,,,,,,,,,,,,,,,,,,,,,,,,,,,,,,,,,,,,,,,,,,,,,,,,,,,,,,,,,,,,,,,,,,,,,,,,,,,,,,133.0,57.0,78.0,78.0,57.0,133.0,1.0,1.1,-644,270,-480,268,-278,282,63.94743013381958,63.947508573532104,63.95027256011963,63.96590733528137,64.10646057128906,64.10646057128906,64.10646057128906,64.10646057128906,64.10646057128906,64.10646057128906,64.10646057128906,71.62378597259521,3,7.643164873123169,None,,,,,,,,,,,,,,,,,,117,1,2025-02-25_15h07.57.762,comp,2024.2.4,59.62798473725214,2025-02-25 15h08.07.977453 -0500,
4,4,0,critical,wdh,35.0,2.1,lower,57.0,133.0,70.0,70.0,133.0,57.0,1,5.549835681915283,None,,,,,0,0,0,0,0,4,4,32,71.6432957649231,,,,,,,,,,,,,,,,,,,,,,,,,,,,,,,,,,,,,,,,,,,,,,,,,,,,,,,,,,,,,,,,,,,,,,,,,,,,,,,,,57.0,133.0,70.0,70.0,133.0,57.0,2.1,2.12,-198,-273,0,-269,160,287,71.62523055076599,71.62530755996704,71.62810111045837,71.6432957649231,71.78838753700256,71.78838753700256,71.78838753700256,71.78838753700256,71.78838753700256,71.78838753700256,71.78838753700256,77.19593453407288,1,5.549835681915283,None,,,,,,,,,,,,,,,,,,117,1,2025-02-25_15h07.57.762,comp,2024.2.4,59.62798473725214,2025-02-25 15h08.07.977453 -0500,
5,5,0,filler_square,None,None,None,None,None,None,None,None,None,None,1,3.2800281047821045,None,,,,,0,0,0,0,0,5,5,193,77.21712350845337,,,,,,,,,,,,,,,,,,,,,,,,,,,,,,,,,,,,,,,,,,,,,,,,,,,,,,,,,,,,,,,,,,,,,,,,,,,,,,,,,149.39960767850192,149.39960767850192,63.25204098259922,139.68805900441993,66.9097793100662,148.22813524545694,3.0,3.1,-241,288,0,-8,240,-273,77.19796299934387,77.19804906845093,77.20125770568848,77.21712350845337,77.36045265197754,77.36045265197754,77.36045265197754,77.36045265197754,77.36045265197754,77.36045265197754,77.36045265197754,80.49972152709961,1,3.2800281047821045,None,,,,,,,,,,,,,,,,,,117,1,2025-02-25_15h07.57.762,comp,2024.2.4,59.62798473725214,2025-02-25 15h08.07.977453 -0500,
6,6,0,filler_square,None,None,None,None,None,None,None,None,None,None,3,3.520963191986084,None,,,,,0,0,0,0,0,6,6,200,80.52025055885315,,,,,,,,,,,,,,,,,,,,,,,,,,,,,,,,,,,,,,,,,,,,,,,,,,,,,,,,,,,,,,,,,,,,,,,,,,,,,,,,,72.07772594916393,62.45224421233868,73.84879327520203,69.17776338103909,89.78784267633317,89.78784267633317,3.0,3.2,-162,-254,0,3,175,250,80.50154948234558,80.50162935256958,80.50447869300842,80.52025055885315,80.66174626350403,80.66174626350403,80.66174626350403,80.66174626350403,80.66174626350403,80.66174626350403,80.66174626350403,84.04329085350037,3,3.520963191986084,None,,,,,,,,,,,,,,,,,,117,1,2025-02-25_15h07.57.762,comp,2024.2.4,59.62798473725214,2025-02-25 15h08.07.977453 -0500,
7,7,0,critical,dhw,20.0,1.0,upper,141.0,141.0,200.0,125.0,125.0,200.0,2,4.941141843795776,None,,,,,0,0,0,0,0,7,7,55,84.05984711647034,,,,,,,,,,,,,,,,,,,,,,,,,,,,,,,,,,,,,,,,,,,,,,,,,,,,,,,,,,,,,,,,,,,,,,,,,,,,,,,,,141.0,141.0,200.0,125.0,125.0,200.0,1.0,1.2,-229,6,0,0,258,-18,84.04480528831482,84.04488348960876,84.04766845703125,84.05984711647034,84.21092748641968,84.21092748641968,84.21092748641968,84.21092748641968,84.21092748641968,84.21092748641968,84.21092748641968,89.0134630203247,2,4.941141843795776,None,,,,,,,,,,,,,,,,,,117,1,2025-02-25_15h07.57.762,comp,2024.2.4,59.62798473725214,2025-02-25 15h08.07.977453 -0500,
8,8,0,critical,wdh,35.0,2.1,lower,57.0,133.0,70.0,70.0,133.0,57.0,1,3.7800445556640625,None,,,,,0,0,0,0,0,8,8,8,89.02946090698242,,,,,,,,,,,,,,,,,,,,,,,,,,,,,,,,,,,,,,,,,,,,,,,,,,,,,,,,,,,,,,,,,,,,,,,,,,,,,,,,,57.0,133.0,70.0,70.0,133.0,57.0,2.1,2.12,-198,-280,0,-285,160,259,89.01499724388123,89.01507377624512,89.01813244819641,89.02946090698242,89.17717266082764,89.17717266082764,89.17717266082764,89.17717266082764,89.17717266082764,89.17717266082764,89.17717266082764,92.8248541355133,1,3.7800445556640625,None,,,,,,,,,,,,,,,,,,117,1,2025-02-25_15h07.57.762,comp,2024.2.4,59.62798473725214,2025-02-25 15h08.07.977453 -0500,
9,9,0,filler_square,None,None,None,None,None,None,None,None,None,None,3,10.672429084777832,None,,,,,0,0,0,0,0,9,9,175,92.84128975868225,,,,,,,,,,,,,,,,,,,,,,,,,,,,,,,,,,,,,,,,,,,,,,,,,,,,,,,,,,,,,,,,,,,,,,,,,,,,,,,,,75.08711828108594,72.96296750788426,76.7170625728787,59.522391159665624,79.77079414177385,79.77079414177385,1.0,1.2,-162,13,0,-18,166,2,92.82686066627502,92.82693791389465,92.83010506629944,92.84128975868225,92.9825828075409,92.9825828075409,92.9825828075409,92.9825828075409,92.9825828075409,92.9825828075409,92.9825828075409,103.52043628692627,3,10.672429084777832,None,,,,,,,,,,,,,,,,,,117,1,2025-02-25_15h07.57.762,comp,2024.2.4,59.62798473725214,2025-02-25 15h08.07.977453 -0500,
10,10,0,filler_random,None,None,None,None,None,None,None,None,None,None,1,5.296266794204712,None,,,,,0,0,0,0,0,10,10,149,103.53726387023926,,,,,,,,,,,,,,,,,,,,,,,,,,,,,,,,,,,,,,,,,,,,,,,,,,,,,,,,,,,,,,,,,,,,,,,,,,,,,,,,,190.82921807716664,130.16150116662487,190.81394111298061,111.6178943711983,184.62310835332124,99.54937108969517,2.2,2.21,-217,-258,0,279,202,284,103.52224206924438,103.52232480049133,103.52546048164368,103.53726387023926,103.68656897544861,103.68656897544861,103.68656897544861,103.68656897544861,103.68656897544861,103.68656897544861,103.68656897544861,108.83595967292786,1,5.296266794204712,None,,,,,,,,,,,,,,,,,,117,1,2025-02-25_15h07.57.762,comp,2024.2.4,59.62798473725214,2025-02-25 15h08.07.977453 -0500,
11,11,0,critical,hwd,20.0,3.0,upper,200.0,125.0,125.0,200.0,141.0,141.0,2,4.916730165481567,None,,,,,0,0,0,0,0,11,11,105,108.85229969024658,,,,,,,,,,,,,,,,,,,,,,,,,,,,,,,,,,,,,,,,,,,,,,,,,,,,,,,,,,,,,,,,,,,,,,,,,,,,,,,,,200.0,125.0,125.0,200.0,141.0,141.0,3.0,3.1,-258,251,0,1,266,-281,108.83746910095215,108.83754682540894,108.84054350852966,108.85229969024658,109.00115895271301,109.00115895271301,109.00115895271301,109.00115895271301,109.00115895271301,109.00115895271301,109.00115895271301,113.78262495994568,2,4.916730165481567,None,,,,,,,,,,,,,,,,,,117,1,2025-02-25_15h07.57.762,comp,2024.2.4,59.62798473725214,2025-02-25 15h08.07.977453 -0500,
12,12,0,critical,hdw,20.0,3.0,lower,133.0,57.0,78.0,78.0,57.0,133.0,3,6.92173957824707,None,,,,,0,0,0,0,0,12,12,116,113.79995965957642,,,,,,,,,,,,,,,,,,,,,,,,,,,,,,,,,,,,,,,,,,,,,,,,,,,,,,,,,,,,,,,,,,,,,,,,,,,,,,,,,133.0,57.0,78.0,78.0,57.0,133.0,3.0,3.1,-164,276,0,-17,202,-279,113.78414154052734,113.78422045707703,113.78705167770386,113.79995965957642,113.93693685531616,113.93693685531616,113.93693685531616,113.93693685531616,113.93693685531616,113.93693685531616,113.93693685531616,120.72649836540222,3,6.92173957824707,None,,,,,,,,,,,,,,,,,,117,1,2025-02-25_15h07.57.762,comp,2024.2.4,59.62798473725214,2025-02-25 15h08.07.977453 -0500,
13,13,0,filler_random,None,None,None,None,None,None,None,None,None,None,1,2.7222723960876465,None,,,,,0,0,0,0,0,13,13,130,120.74279999732971,,,,,,,,,,,,,,,,,,,,,,,,,,,,,,,,,,,,,,,,,,,,,,,,,,,,,,,,,,,,,,,,,,,,,,,,,,,,,,,,,114.08491808921474,198.27282492783203,69.2695160018255,109.39640717236762,182.28712096524288,85.73880227335376,1.0,1.3,230,-253,480,-276,674,-254,120.72882008552551,120.72890400886536,120.73177886009216,120.74279999732971,120.89000535011292,120.89000535011292,120.89000535011292,120.89000535011292,120.89000535011292,120.89000535011292,120.89000535011292,123.47557544708252,1,2.7222723960876465,None,,,,,,,,,,,,,,,,,,117,1,2025-02-25_15h07.57.762,comp,2024.2.4,59.62798473725214,2025-02-25 15h08.07.977453 -0500,
14,14,0,critical,dwh,35.0,4.0,upper,127.0,127.0,125.0,200.0,200.0,125.0,2,2.0305237770080566,None,,,,,0,0,0,0,0,14,14,65,123.49092483520508,,,,,,,,,,,,,,,,,,,,,,,,,,,,,,,,,,,,,,,,,,,,,,,,,,,,,,,,,,,,,,,,,,,,,,,,,,,,,,,,,127.0,127.0,125.0,200.0,200.0,125.0,4.0,4.1,-260,-256,0,-17,258,-286,123.47712469100952,123.477205991745,123.48016715049744,123.49092483520508,123.64591932296753,123.64591932296753,123.64591932296753,123.64591932296753,123.64591932296753,123.64591932296753,123.64591932296753,125.52446413040161,2,2.0305237770080566,None,,,,,,,,,,,,,,,,,,117,1,2025-02-25_15h07.57.762,comp,2024.2.4,59.62798473725214,2025-02-25 15h08.07.977453 -0500,
15,15,0,critical,wdh,35.0,2.1,upper,125.0,200.0,127.0,127.0,200.0,125.0,1,3.176835775375366,None,,,,,0,0,0,0,0,15,15,33,125.54462814331055,,,,,,,,,,,,,,,,,,,,,,,,,,,,,,,,,,,,,,,,,,,,,,,,,,,,,,,,,,,,,,,,,,,,,,,,,,,,,,,,,125.0,200.0,127.0,127.0,200.0,125.0,2.1,2.11,-260,269,0,264,222,-285,125.52596497535706,125.526043176651,125.52927017211914,125.54462814331055,125.67645525932312,125.67645525932312,125.67645525932312,125.67645525932312,125.67645525932312,125.67645525932312,125.67645525932312,128.72582912445068,1,3.176835775375366,None,,,,,,,,,,,,,,,,,,117,1,2025-02-25_15h07.57.762,comp,2024.2.4,59.62798473725214,2025-02-25 15h08.07.977453 -0500,
16,16,0,filler_square,None,None,None,None,None,None,None,None,None,None,1,2.2190701961517334,None,,,,,0,0,0,0,0,16,16,195,128.74212670326233,,,,,,,,,,,,,,,,,,,,,,,,,,,,,,,,,,,,,,,,,,,,,,,,,,,,,,,,,,,,,,,,,,,,,,,,,,,,,,,,,97.33795975450585,97.33795975450585,89.16447832587639,63.552834949866224,61.38945803009648,94.9353810797146,2.2,2.21,-176,-271,0,255,175,269,128.7274796962738,128.727557182312,128.73056197166443,128.74212670326233,128.89788603782654,128.89788603782654,128.89788603782654,128.89788603782654,128.89788603782654,128.89788603782654,128.89788603782654,130.96655702590942,1,2.2190701961517334,None,,,,,,,,,,,,,,,,,,117,1,2025-02-25_15h07.57.762,comp,2024.2.4,59.62798473725214,2025-02-25 15h08.07.977453 -0500,
17,17,0,critical,whd,35.0,3.0,lower,57.0,133.0,133.0,57.0,70.0,70.0,1,3.9779715538024902,None,,,,,0,0,0,0,0,17,17,86,130.9840166568756,,,,,,,,,,,,,,,,,,,,,,,,,,,,,,,,,,,,,,,,,,,,,,,,,,,,,,,,,,,,,,,,,,,,,,,,,,,,,,,,,57.0,133.0,133.0,57.0,70.0,70.0,3.0,3.1,-191,274,0,14,160,-262,130.96803307533264,130.96810936927795,130.97095799446106,130.9840166568756,131.1272578239441,131.1272578239441,131.1272578239441,131.1272578239441,131.1272578239441,131.1272578239441,131.1272578239441,134.96895265579224,1,3.9779715538024902,None,,,,,,,,,,,,,,,,,,117,1,2025-02-25_15h07.57.762,comp,2024.2.4,59.62798473725214,2025-02-25 15h08.07.977453 -0500,
18,18,0,critical,hdw,20.0,2.1,upper,200.0,125.0,141.0,141.0,125.0,200.0,1,3.3772106170654297,None,,,,,0,0,0,0,0,18,18,23,134.9842746257782,,,,,,,,,,,,,,,,,,,,,,,,,,,,,,,,,,,,,,,,,,,,,,,,,,,,,,,,,,,,,,,,,,,,,,,,,,,,,,,,,200.0,125.0,141.0,141.0,125.0,200.0,2.1,2.12,-229,-257,0,-279,266,279,134.9704532623291,134.97053289413452,134.9734010696411,134.9842746257782,135.1315667629242,135.1315667629242,135.1315667629242,135.1315667629242,135.1315667629242,135.1315667629242,135.1315667629242,138.3799068927765,1,3.3772106170654297,None,,,,,,,,,,,,,,,,,,117,1,2025-02-25_15h07.57.762,comp,2024.2.4,59.62798473725214,2025-02-25 15h08.07.977453 -0500,
19,19,0,filler_random,None,None,None,None,None,None,None,None,None,None,2,2.6378273963928223,None,,,,,0,0,0,0,0,19,19,153,138.39522552490234,,,,,,,,,,,,,,,,,,,,,,,,,,,,,,,,,,,,,,,,,,,,,,,,,,,,,,,,,,,,,,,,,,,,,,,,,,,,,,,,,154.80556575826455,167.40421715509763,165.67038429040008,174.00727719367978,106.16236590294508,125.63401545469252,4.0,4.2,-267,17,0,-280,246,-1,138.38157653808594,138.3816545009613,138.38495516777039,138.39522552490234,138.54664015769958,138.54664015769958,138.54664015769958,138.54664015769958,138.54664015769958,138.54664015769958,138.54664015769958,141.04614639282227,2,2.6378273963928223,None,,,,,,,,,,,,,,,,,,117,1,2025-02-25_15h07.57.762,comp,2024.2.4,59.62798473725214,2025-02-25 15h08.07.977453 -0500,
20,20,0,critical,dhw,20.0,3.0,lower,78.0,78.0,133.0,57.0,57.0,133.0,2,7.946943759918213,None,,,,,0,0,0,0,0,20,20,56,141.06214022636414,,,,,,,,,,,,,,,,,,,,,,,,,,,,,,,,,,,,,,,,,,,,,,,,,,,,,,,,,,,,,,,,,,,,,,,,,,,,,,,,,78.0,78.0,133.0,57.0,57.0,133.0,3.0,3.2,-164,-277,0,7,191,263,141.04764652252197,141.04772210121155,141.05083322525024,141.06214022636414,141.21710419654846,141.21710419654846,141.21710419654846,141.21710419654846,141.21710419654846,141.21710419654846,141.21710419654846,149.02174520492554,2,7.946943759918213,None,,,,,,,,,,,,,,,,,,117,1,2025-02-25_15h07.57.762,comp,2024.2.4,59.62798473725214,2025-02-25 15h08.07.977453 -0500,
21,21,0,filler_square,None,None,None,None,None,None,None,None,None,None,2,1.9297192096710205,None,,,,,0,0,0,0,0,21,21,188,149.03972864151,,,,,,,,,,,,,,,,,,,,,,,,,,,,,,,,,,,,,,,,,,,,,,,,,,,,,,,,,,,,,,,,,,,,,,,,,,,,,,,,,158.75911528796857,66.55943203609263,194.5948235226233,194.5948235226233,189.80683480864678,146.53374859116116,1.0,1.1,-707,286,-480,279,-213,269,149.02378916740417,149.02386903762817,149.02710437774658,149.03972864151,149.17951488494873,149.17951488494873,149.17951488494873,149.17951488494873,149.17951488494873,149.17951488494873,149.17951488494873,150.9836699962616,2,1.9297192096710205,None,,,,,,,,,,,,,,,,,,117,1,2025-02-25_15h07.57.762,comp,2024.2.4,59.62798473725214,2025-02-25 15h08.07.977453 -0500,
22,22,0,critical,whd,20.0,3.0,upper,125.0,200.0,200.0,125.0,141.0,141.0,1,3.4517934322357178,None,,,,,0,0,0,0,0,22,22,93,150.99761319160461,,,,,,,,,,,,,,,,,,,,,,,,,,,,,,,,,,,,,,,,,,,,,,,,,,,,,,,,,,,,,,,,,,,,,,,,,,,,,,,,,125.0,200.0,200.0,125.0,141.0,141.0,3.0,3.2,-258,-265,0,6,229,273,150.98521614074707,150.9852957725525,150.98844957351685,150.99761319160461,151.1531810760498,151.1531810760498,151.1531810760498,151.1531810760498,151.1531810760498,151.1531810760498,151.1531810760498,154.46699595451355,1,3.4517934322357178,None,,,,,,,,,,,,,,,,,,117,1,2025-02-25_15h07.57.762,comp,2024.2.4,59.62798473725214,2025-02-25 15h08.07.977453 -0500,
23,23,0,filler_random,None,None,None,None,None,None,None,None,None,None,2,1.6145641803741455,None,,,,,0,0,0,0,0,23,23,152,154.4831120967865,,,,,,,,,,,,,,,,,,,,,,,,,,,,,,,,,,,,,,,,,,,,,,,,,,,,,,,,,,,,,,,,,,,,,,,,,,,,,,,,,149.14718736004917,85.88607835320654,196.48774647782392,138.90827962814853,111.00750996414351,193.54770202206277,4.0,4.1,-208,-252,0,-6,262,-284,154.46864676475525,154.46872472763062,154.47185897827148,154.4831120967865,154.62007355690002,154.62007355690002,154.62007355690002,154.62007355690002,154.62007355690002,154.62007355690002,154.62007355690002,156.1037142276764,2,1.6145641803741455,None,,,,,,,,,,,,,,,,,,117,1,2025-02-25_15h07.57.762,comp,2024.2.4,59.62798473725214,2025-02-25 15h08.07.977453 -0500,
24,24,0,critical,dwh,20.0,1.0,upper,141.0,141.0,125.0,200.0,200.0,125.0,2,4.6176042556762695,None,,,,,0,0,0,0,0,24,24,67,156.1195011138916,,,,,,,,,,,,,,,,,,,,,,,,,,,,,,,,,,,,,,,,,,,,,,,,,,,,,,,,,,,,,,,,,,,,,,,,,,,,,,,,,141.0,141.0,125.0,200.0,200.0,125.0,1.0,1.1,-746,264,-480,265,-222,279,156.1053442955017,156.10544991493225,156.10871386528015,156.1195011138916,156.26919746398926,156.26919746398926,156.26919746398926,156.26919746398926,156.26919746398926,156.26919746398926,156.26919746398926,160.75276112556458,2,4.6176042556762695,None,,,,,,,,,,,,,,,,,,117,1,2025-02-25_15h07.57.762,comp,2024.2.4,59.62798473725214,2025-02-25 15h08.07.977453 -0500,
25,25,0,critical,dwh,35.0,1.0,upper,127.0,127.0,125.0,200.0,200.0,125.0,2,1.4122538566589355,None,,,,,0,0,0,0,0,25,25,61,160.77284932136536,,,,,,,,,,,,,,,,,,,,,,,,,,,,,,,,,,,,,,,,,,,,,,,,,,,,,,,,,,,,,,,,,,,,,,,,,,,,,,,,,127.0,127.0,125.0,200.0,200.0,125.0,1.0,1.1,-740,276,-480,261,-222,283,160.75424528121948,160.75432300567627,160.75746178627014,160.77284932136536,160.92049622535706,160.92049622535706,160.92049622535706,160.92049622535706,160.92049622535706,160.92049622535706,160.92049622535706,162.18708157539368,2,1.4122538566589355,None,,,,,,,,,,,,,,,,,,117,1,2025-02-25_15h07.57.762,comp,2024.2.4,59.62798473725214,2025-02-25 15h08.07.977453 -0500,
26,26,0,critical,dwh,35.0,4.0,lower,70.0,70.0,57.0,133.0,133.0,57.0,2,2.9739809036254883,None,,,,,0,0,0,0,0,26,26,64,162.2030267715454,,,,,,,,,,,,,,,,,,,,,,,,,,,,,,,,,,,,,,,,,,,,,,,,,,,,,,,,,,,,,,,,,,,,,,,,,,,,,,,,,70.0,70.0,57.0,133.0,133.0,57.0,4.0,4.2,-198,-4,0,-268,191,-2,162.18873691558838,162.1888177394867,162.1922628879547,162.2030267715454,162.3548264503479,162.3548264503479,162.3548264503479,162.3548264503479,162.3548264503479,162.3548264503479,162.3548264503479,165.19155144691467,2,2.9739809036254883,None,,,,,,,,,,,,,,,,,,117,1,2025-02-25_15h07.57.762,comp,2024.2.4,59.62798473725214,2025-02-25 15h08.07.977453 -0500,
27,27,0,critical,hwd,20.0,2.1,upper,200.0,125.0,125.0,200.0,141.0,141.0,1,13.0924391746521,None,,,,,0,0,0,0,0,27,27,19,165.20679378509521,,,,,,,,,,,,,,,,,,,,,,,,,,,,,,,,,,,,,,,,,,,,,,,,,,,,,,,,,,,,,,,,,,,,,,,,,,,,,,,,,200.0,125.0,125.0,200.0,141.0,141.0,2.1,2.11,-258,254,0,281,266,-267,165.19314312934875,165.1932213306427,165.19645166397095,165.20679378509521,165.35476684570312,165.35476684570312,165.35476684570312,165.35476684570312,165.35476684570312,165.35476684570312,165.35476684570312,178.3097906112671,1,13.0924391746521,None,,,,,,,,,,,,,,,,,,117,1,2025-02-25_15h07.57.762,comp,2024.2.4,59.62798473725214,2025-02-25 15h08.07.977453 -0500,
28,28,0,filler_square,None,None,None,None,None,None,None,None,None,None,1,4.81148624420166,None,,,,,0,0,0,0,0,28,28,198,178.32624626159668,,,,,,,,,,,,,,,,,,,,,,,,,,,,,,,,,,,,,,,,,,,,,,,,,,,,,,,,,,,,,,,,,,,,,,,,,,,,,,,,,145.19686032873545,145.19686032873545,97.32436710426796,61.111687783706174,81.58946661161232,80.46729730764483,1.0,1.3,281,-265,480,-251,647,-267,178.31193375587463,178.3120152950287,178.31533527374268,178.32624626159668,178.47566318511963,178.47566318511963,178.47566318511963,178.47566318511963,178.47566318511963,178.47566318511963,178.47566318511963,183.14391660690308,1,4.81148624420166,None,,,,,,,,,,,,,,,,,,117,1,2025-02-25_15h07.57.762,comp,2024.2.4,59.62798473725214,2025-02-25 15h08.07.977453 -0500,
29,29,0,critical,dwh,35.0,1.0,lower,70.0,70.0,57.0,133.0,133.0,57.0,2,19.305518627166748,None,,,,,0,0,0,0,0,29,29,60,183.16026186943054,,,,,,,,,,,,,,,,,,,,,,,,,,,,,,,,,,,,,,,,,,,,,,,,,,,,,,,,,,,,,,,,,,,,,,,,,,,,,,,,,70.0,70.0,57.0,133.0,133.0,57.0,1.0,1.2,-198,6,0,14,191,-14,183.14536428451538,183.14548468589783,183.14949297904968,183.16026186943054,183.30695414543152,183.30695414543152,183.30695414543152,183.30695414543152,183.30695414543152,183.30695414543152,183.30695414543152,202.46880435943604,2,19.305518627166748,None,,,,,,,,,,,,,,,,,,117,1,2025-02-25_15h07.57.762,comp,2024.2.4,59.62798473725214,2025-02-25 15h08.07.977453 -0500,
30,30,0,critical,dhw,35.0,3.0,upper,127.0,127.0,200.0,125.0,125.0,200.0,2,1.5319623947143555,None,,,,,0,0,0,0,0,30,30,51,202.48523116111755,,,,,,,,,,,,,,,,,,,,,,,,,,,,,,,,,,,,,,,,,,,,,,,,,,,,,,,,,,,,,,,,,,,,,,,,,,,,,,,,,127.0,127.0,200.0,125.0,125.0,200.0,3.0,3.2,-222,-270,0,16,258,261,202.47059869766235,202.4707314968109,202.4740228652954,202.48523116111755,202.63191986083984,202.63191986083984,202.63191986083984,202.63191986083984,202.63191986083984,202.63191986083984,202.63191986083984,204.03281950950623,2,1.5319623947143555,None,,,,,,,,,,,,,,,,,,117,1,2025-02-25_15h07.57.762,comp,2024.2.4,59.62798473725214,2025-02-25 15h08.07.977453 -0500,
31,31,0,filler_square,None,None,None,None,None,None,None,None,None,None,2,0.9289834499359131,None,,,,,0,0,0,0,0,31,31,201,204.04891872406006,,,,,,,,,,,,,,,,,,,,,,,,,,,,,,,,,,,,,,,,,,,,,,,,,,,,,,,,,,,,,,,,,,,,,,,,,,,,,,,,,63.26227861766004,129.5177637152861,165.7192489462447,165.7192489462447,73.33519283812643,113.63534631111564,3.0,3.2,-244,-273,0,-5,236,272,204.03455924987793,204.03463459014893,204.0376534461975,204.04891872406006,204.20870637893677,204.20870637893677,204.20870637893677,204.20870637893677,204.20870637893677,204.20870637893677,204.20870637893677,204.9818036556244,2,0.9289834499359131,None,,,,,,,,,,,,,,,,,,117,1,2025-02-25_15h07.57.762,comp,2024.2.4,59.62798473725214,2025-02-25 15h08.07.977453 -0500,
32,32,0,filler_square,None,None,None,None,None,None,None,None,None,None,1,1.2234725952148438,None,,,,,0,0,0,0,0,32,32,207,205.00247073173523,,,,,,,,,,,,,,,,,,,,,,,,,,,,,,,,,,,,,,,,,,,,,,,,,,,,,,,,,,,,,,,,,,,,,,,,,,,,,,,,,171.96625068698035,171.96625068698035,104.28193231380328,88.4083152924045,59.349832384491854,157.8700720954399,2.2,2.22,-226,263,0,-276,219,-255,204.98371481895447,204.98379635810852,204.986980676651,205.00247073173523,205.15750670433044,205.15750670433044,205.15750670433044,205.15750670433044,205.15750670433044,205.15750670433044,205.15750670433044,206.23247861862183,1,1.2234725952148438,None,,,,,,,,,,,,,,,,,,117,1,2025-02-25_15h07.57.762,comp,2024.2.4,59.62798473725214,2025-02-25 15h08.07.977453 -0500,
33,33,0,critical,dwh,20.0,2.1,lower,78.0,78.0,57.0,133.0,133.0,57.0,3,5.568838357925415,None,,,,,0,0,0,0,0,33,33,6,206.24911308288574,,,,,,,,,,,,,,,,,,,,,,,,,,,,,,,,,,,,,,,,,,,,,,,,,,,,,,,,,,,,,,,,,,,,,,,,,,,,,,,,,78.0,78.0,57.0,133.0,133.0,57.0,2.1,2.11,-202,261,0,250,191,-259,206.23410153388977,206.23418068885803,206.23746299743652,206.24911308288574,206.39659547805786,206.39659547805786,206.39659547805786,206.39659547805786,206.39659547805786,206.39659547805786,206.39659547805786,211.83684086799622,3,5.568838357925415,None,,,,,,,,,,,,,,,,,,117,1,2025-02-25_15h07.57.762,comp,2024.2.4,59.62798473725214,2025-02-25 15h08.07.977453 -0500,
34,34,0,filler_square,None,None,None,None,None,None,None,None,None,None,3,1.7166852951049805,None,,,,,0,0,0,0,0,34,34,181,211.85294342041016,,,,,,,,,,,,,,,,,,,,,,,,,,,,,,,,,,,,,,,,,,,,,,,,,,,,,,,,,,,,,,,,,,,,,,,,,,,,,,,,,83.27551428032169,76.91940914173703,102.7099072706843,64.84278544898916,105.13313767948799,105.13313767948799,2.2,2.22,-167,275,0,-261,181,-286,211.8386251926422,211.83870315551758,211.8425862789154,211.85294342041016,212.0019724369049,212.0019724369049,212.0019724369049,212.0019724369049,212.0019724369049,212.0019724369049,212.0019724369049,213.5794801712036,3,1.7166852951049805,None,,,,,,,,,,,,,,,,,,117,1,2025-02-25_15h07.57.762,comp,2024.2.4,59.62798473725214,2025-02-25 15h08.07.977453 -0500,
35,35,0,catch,None,None,None,None,None,None,None,None,None,None,2,1.2083775997161865,None,,,,,0,0,0,0,0,35,35,120,213.60081434249878,,,,,,,,,,,,,,,,,,,,,,,,,,,,,,,,,,,,,,,,,,,,,,,,,,,,,,,,,,,,,,,,,,,,,,,,,,,,,,,,,85,105,170,155,70,120,3.0,3.1,-226,273,0,3,234,-268,213.58158922195435,213.5816707611084,213.58492946624756,213.60081434249878,213.73708701133728,213.73708701133728,213.73708701133728,213.73708701133728,213.73708701133728,213.73708701133728,213.73708701133728,214.82070112228394,2,1.2083775997161865,None,,,,,,,,,,,,,,,,,,117,1,2025-02-25_15h07.57.762,comp,2024.2.4,59.62798473725214,2025-02-25 15h08.07.977453 -0500,
36,36,0,filler_square,None,None,None,None,None,None,None,None,None,None,1,1.139404296875,None,,,,,0,0,0,0,0,36,36,177,214.8385362625122,,,,,,,,,,,,,,,,,,,,,,,,,,,,,,,,,,,,,,,,,,,,,,,,,,,,,,,,,,,,,,,,,,,,,,,,,,,,,,,,,123.76504559609796,123.76504559609796,115.69562192015212,117.86436217496774,68.37273488467041,70.69256596075893,1.0,1.2,-217,-5,0,7,190,-12,214.8224859237671,214.8225657939911,214.8256754875183,214.8385362625122,214.9858374595642,214.9858374595642,214.9858374595642,214.9858374595642,214.9858374595642,214.9858374595642,214.9858374595642,215.99035835266113,1,1.139404296875,None,,,,,,,,,,,,,,,,,,117,1,2025-02-25_15h07.57.762,comp,2024.2.4,59.62798473725214,2025-02-25 15h08.07.977453 -0500,
37,37,0,critical,whd,20.0,3.0,lower,57.0,133.0,133.0,57.0,78.0,78.0,1,6.050953149795532,None,,,,,0,0,0,0,0,37,37,92,216.00646424293518,,,,,,,,,,,,,,,,,,,,,,,,,,,,,,,,,,,,,,,,,,,,,,,,,,,,,,,,,,,,,,,,,,,,,,,,,,,,,,,,,57.0,133.0,133.0,57.0,78.0,78.0,3.0,3.2,-191,-282,0,19,164,261,215.9920289516449,215.99210667610168,215.99591970443726,216.00646424293518,216.16010856628418,216.16010856628418,216.16010856628418,216.16010856628418,216.16010856628418,216.16010856628418,216.16010856628418,222.0722358226776,1,6.050953149795532,None,,,,,,,,,,,,,,,,,,117,1,2025-02-25_15h07.57.762,comp,2024.2.4,59.62798473725214,2025-02-25 15h08.07.977453 -0500,
38,38,0,filler_square,None,None,None,None,None,None,None,None,None,None,3,4.360836505889893,None,,,,,0,0,0,0,0,38,38,202,222.08840918540955,,,,,,,,,,,,,,,,,,,,,,,,,,,,,,,,,,,,,,,,,,,,,,,,,,,,,,,,,,,,,,,,,,,,,,,,,,,,,,,,,76.89362688136293,58.56085747372885,81.06896351430531,63.75477067683369,82.53497547650491,82.53497547650491,3.0,3.2,-157,-280,0,-17,169,271,222.07426595687866,222.0743441581726,222.07804250717163,222.08840918540955,222.2394073009491,222.2394073009491,222.2394073009491,222.2394073009491,222.2394073009491,222.2394073009491,222.2394073009491,226.46639251708984,3,4.360836505889893,None,,,,,,,,,,,,,,,,,,117,1,2025-02-25_15h07.57.762,comp,2024.2.4,59.62798473725214,2025-02-25 15h08.07.977453 -0500,
39,39,0,critical,dhw,20.0,4.0,lower,78.0,78.0,133.0,57.0,57.0,133.0,3,2.6506783962249756,None,,,,,0,0,0,0,0,39,39,58,226.48648738861084,,,,,,,,,,,,,,,,,,,,,,,,,,,,,,,,,,,,,,,,,,,,,,,,,,,,,,,,,,,,,,,,,,,,,,,,,,,,,,,,,78.0,78.0,133.0,57.0,57.0,133.0,4.0,4.1,-164,-261,0,8,191,-279,226.46799325942993,226.46808385849,226.47130370140076,226.48648738861084,226.6225335597992,226.6225335597992,226.6225335597992,226.6225335597992,226.6225335597992,226.6225335597992,226.6225335597992,229.14142560958862,3,2.6506783962249756,None,,,,,,,,,,,,,,,,,,117,1,2025-02-25_15h07.57.762,comp,2024.2.4,59.62798473725214,2025-02-25 15h08.07.977453 -0500,
40,40,0,filler_random,None,None,None,None,None,None,None,None,None,None,3,1.1719610691070557,None,,,,,0,0,0,0,0,40,40,162,229.15731573104858,,,,,,,,,,,,,,,,,,,,,,,,,,,,,,,,,,,,,,,,,,,,,,,,,,,,,,,,,,,,,,,,,,,,,,,,,,,,,,,,,87.11926914572787,73.8807986169171,102.40000280447211,66.28529925187054,149.3524074586612,163.18177115104945,3.0,3.2,-166,-255,0,0,211,276,229.14315700531006,229.143239736557,229.1465606689453,229.15731573104858,229.30875873565674,229.30875873565674,229.30875873565674,229.30875873565674,229.30875873565674,229.30875873565674,229.30875873565674,230.34069204330444,3,1.1719610691070557,None,,,,,,,,,,,,,,,,,,117,1,2025-02-25_15h07.57.762,comp,2024.2.4,59.62798473725214,2025-02-25 15h08.07.977453 -0500,
41,41,0,critical,whd,20.0,2.1,upper,125.0,200.0,200.0,125.0,141.0,141.0,3,3.7166128158569336,None,,,,,0,0,0,0,0,41,41,15,230.35745000839233,,,,,,,,,,,,,,,,,,,,,,,,,,,,,,,,,,,,,,,,,,,,,,,,,,,,,,,,,,,,,,,,,,,,,,,,,,,,,,,,,125.0,200.0,200.0,125.0,141.0,141.0,2.1,2.12,-258,-267,0,-272,229,285,230.34222173690796,230.34230041503906,230.34568524360657,230.35745000839233,230.5071873664856,230.5071873664856,230.5071873664856,230.5071873664856,230.5071873664856,230.5071873664856,230.5071873664856,234.07680583000183,3,3.7166128158569336,None,,,,,,,,,,,,,,,,,,117,1,2025-02-25_15h07.57.762,comp,2024.2.4,59.62798473725214,2025-02-25 15h08.07.977453 -0500,
42,42,0,filler_square,None,None,None,None,None,None,None,None,None,None,1,1.926241397857666,None,,,,,0,0,0,0,0,42,42,190,234.09176993370056,,,,,,,,,,,,,,,,,,,,,,,,,,,,,,,,,,,,,,,,,,,,,,,,,,,,,,,,,,,,,,,,,,,,,,,,,,,,,,,,,96.15258987915294,96.15258987915294,88.41255800192356,64.867941036297,83.57508823769845,60.890910622382414,4.0,4.1,-177,-259,0,8,159,-265,234.07858753204346,234.0786669254303,234.0818793773651,234.09176993370056,234.24400901794434,234.24400901794434,234.24400901794434,234.24400901794434,234.24400901794434,234.24400901794434,234.24400901794434,236.02704119682312,1,1.926241397857666,None,,,,,,,,,,,,,,,,,,117,1,2025-02-25_15h07.57.762,comp,2024.2.4,59.62798473725214,2025-02-25 15h08.07.977453 -0500,
43,43,0,critical,hwd,35.0,3.0,upper,200.0,125.0,125.0,200.0,127.0,127.0,2,1.782728910446167,None,,,,,0,0,0,0,0,43,43,99,236.04267764091492,,,,,,,,,,,,,,,,,,,,,,,,,,,,,,,,,,,,,,,,,,,,,,,,,,,,,,,,,,,,,,,,,,,,,,,,,,,,,,,,,200.0,125.0,125.0,200.0,127.0,127.0,3.0,3.1,-258,274,0,5,260,-264,236.02853918075562,236.02861785888672,236.03203582763672,236.04267764091492,236.19226384162903,236.19226384162903,236.19226384162903,236.19226384162903,236.19226384162903,236.19226384162903,236.19226384162903,237.84288358688354,2,1.782728910446167,None,,,,,,,,,,,,,,,,,,117,1,2025-02-25_15h07.57.762,comp,2024.2.4,59.62798473725214,2025-02-25 15h08.07.977453 -0500,
44,44,0,critical,whd,35.0,2.1,upper,125.0,200.0,200.0,125.0,127.0,127.0,1,2.6468286514282227,None,,,,,0,0,0,0,0,44,44,37,237.85907196998596,,,,,,,,,,,,,,,,,,,,,,,,,,,,,,,,,,,,,,,,,,,,,,,,,,,,,,,,,,,,,,,,,,,,,,,,,,,,,,,,,125.0,200.0,200.0,125.0,127.0,127.0,2.1,2.11,-258,251,0,264,222,-279,237.8444628715515,237.84453964233398,237.84779238700867,237.85907196998596,238.0076470375061,238.0076470375061,238.0076470375061,238.0076470375061,238.0076470375061,238.0076470375061,238.0076470375061,240.511803150177,1,2.6468286514282227,None,,,,,,,,,,,,,,,,,,117,1,2025-02-25_15h07.57.762,comp,2024.2.4,59.62798473725214,2025-02-25 15h08.07.977453 -0500,
45,45,0,critical,hdw,20.0,3.0,upper,200.0,125.0,141.0,141.0,125.0,200.0,3,3.2991020679473877,None,,,,,0,0,0,0,0,45,45,117,240.52734375,,,,,,,,,,,,,,,,,,,,,,,,,,,,,,,,,,,,,,,,,,,,,,,,,,,,,,,,,,,,,,,,,,,,,,,,,,,,,,,,,200.0,125.0,141.0,141.0,125.0,200.0,3.0,3.1,-229,261,0,19,266,-260,240.51321625709534,240.51329493522644,240.51660537719727,240.52734375,240.67672276496887,240.67672276496887,240.67672276496887,240.67672276496887,240.67672276496887,240.67672276496887,240.67672276496887,243.83174419403076,3,3.2991020679473877,None,,,,,,,,,,,,,,,,,,117,1,2025-02-25_15h07.57.762,comp,2024.2.4,59.62798473725214,2025-02-25 15h08.07.977453 -0500,
46,46,0,critical,hwd,35.0,1.0,upper,200.0,125.0,125.0,200.0,127.0,127.0,1,7.96681809425354,None,,,,,0,0,0,0,0,46,46,97,243.85047817230225,,,,,,,,,,,,,,,,,,,,,,,,,,,,,,,,,,,,,,,,,,,,,,,,,,,,,,,,,,,,,,,,,,,,,,,,,,,,,,,,,200.0,125.0,125.0,200.0,127.0,127.0,1.0,1.3,222,-287,480,-285,740,-288,243.83333349227905,243.83344769477844,243.83678245544434,243.85047817230225,243.99605751037598,243.99605751037598,243.99605751037598,243.99605751037598,243.99605751037598,243.99605751037598,243.99605751037598,251.83166646957397,1,7.96681809425354,None,,,,,,,,,,,,,,,,,,117,1,2025-02-25_15h07.57.762,comp,2024.2.4,59.62798473725214,2025-02-25 15h08.07.977453 -0500,
47,47,0,filler_random,None,None,None,None,None,None,None,None,None,None,1,1.5465362071990967,None,,,,,0,0,0,0,0,47,47,164,251.8471224308014,,,,,,,,,,,,,,,,,,,,,,,,,,,,,,,,,,,,,,,,,,,,,,,,,,,,,,,,,,,,,,,,,,,,,,,,,,,,,,,,,132.92157252510043,173.13250813114573,111.89582046611068,118.77485762923862,183.75914029289487,119.16853418892497,2.1,2.12,-242,-251,0,-250,215,281,251.83349776268005,251.83357691764832,251.8368742465973,251.8471224308014,251.99634552001953,251.99634552001953,251.99634552001953,251.99634552001953,251.99634552001953,251.99634552001953,251.99634552001953,253.40005040168762,1,1.5465362071990967,None,,,,,,,,,,,,,,,,,,117,1,2025-02-25_15h07.57.762,comp,2024.2.4,59.62798473725214,2025-02-25 15h08.07.977453 -0500,
48,48,0,filler_square,None,None,None,None,None,None,None,None,None,None,2,2.2258734703063965,None,,,,,0,0,0,0,0,48,48,209,253.41603922843933,,,,,,,,,,,,,,,,,,,,,,,,,,,,,,,,,,,,,,,,,,,,,,,,,,,,,,,,,,,,,,,,,,,,,,,,,,,,,,,,,64.6117451901945,93.73121196244901,113.48143047819975,113.48143047819975,88.9901169001683,111.19388491533743,2.1,2.11,-200,276,0,270,208,-258,253.40188002586365,253.40198802947998,253.4052369594574,253.41603922843933,253.5632197856903,253.5632197856903,253.5632197856903,253.5632197856903,253.5632197856903,253.5632197856903,253.5632197856903,255.6488072872162,2,2.2258734703063965,None,,,,,,,,,,,,,,,,,,117,1,2025-02-25_15h07.57.762,comp,2024.2.4,59.62798473725214,2025-02-25 15h08.07.977453 -0500,
49,49,0,filler_square,None,None,None,None,None,None,None,None,None,None,2,1.06414794921875,None,,,,,0,0,0,0,0,49,49,199,255.66546177864075,,,,,,,,,,,,,,,,,,,,,,,,,,,,,,,,,,,,,,,,,,,,,,,,,,,,,,,,,,,,,,,,,,,,,,,,,,,,,,,,,116.18645889607131,119.33416463328172,190.26280059787095,190.26280059787095,190.25785825611456,61.67838974227834,2.1,2.11,-251,273,0,253,222,-254,255.650616645813,255.6506974697113,255.65378594398499,255.66546177864075,255.81663465499878,255.81663465499878,255.81663465499878,255.81663465499878,255.81663465499878,255.81663465499878,255.81663465499878,256.7392339706421,2,1.06414794921875,None,,,,,,,,,,,,,,,,,,117,1,2025-02-25_15h07.57.762,comp,2024.2.4,59.62798473725214,2025-02-25 15h08.07.977453 -0500,
50,50,0,critical,hdw,35.0,1.0,upper,200.0,125.0,127.0,127.0,125.0,200.0,3,4.935075759887695,None,,,,,0,0,0,0,0,50,50,109,256.75424790382385,,,,,,,,,,,,,,,,,,,,,,,,,,,,,,,,,,,,,,,,,,,,,,,,,,,,,,,,,,,,,,,,,,,,,,,,,,,,,,,,,200.0,125.0,127.0,127.0,125.0,200.0,1.0,1.1,-702,270,-480,267,-220,266,256.7407557964325,256.74083399772644,256.74363112449646,256.75424790382385,256.9009816646576,256.9009816646576,256.9009816646576,256.9009816646576,256.9009816646576,256.9009816646576,256.9009816646576,261.7043344974518,3,4.935075759887695,None,,,,,,,,,,,,,,,,,,117,1,2025-02-25_15h07.57.762,comp,2024.2.4,59.62798473725214,2025-02-25 15h08.07.977453 -0500,
51,51,0,filler_random,None,None,None,None,None,None,None,None,None,None,1,1.2577157020568848,None,,,,,0,0,0,0,0,51,51,157,261.7202010154724,,,,,,,,,,,,,,,,,,,,,,,,,,,,,,,,,,,,,,,,,,,,,,,,,,,,,,,,,,,,,,,,,,,,,,,,,,,,,,,,,174.54458923849447,189.7274559436778,145.5298785524334,57.5289241745342,150.84705160609195,109.29013276667857,4.0,4.2,-220,16,0,-273,179,14,261.7060399055481,261.706120967865,261.7090563774109,261.7202010154724,261.86750411987305,261.86750411987305,261.86750411987305,261.86750411987305,261.86750411987305,261.86750411987305,261.86750411987305,262.9854176044464,1,1.2577157020568848,None,,,,,,,,,,,,,,,,,,117,1,2025-02-25_15h07.57.762,comp,2024.2.4,59.62798473725214,2025-02-25 15h08.07.977453 -0500,
52,52,0,critical,whd,35.0,4.0,lower,57.0,133.0,133.0,57.0,70.0,70.0,1,3.503728151321411,None,,,,,0,0,0,0,0,52,52,88,263.00173115730286,,,,,,,,,,,,,,,,,,,,,,,,,,,,,,,,,,,,,,,,,,,,,,,,,,,,,,,,,,,,,,,,,,,,,,,,,,,,,,,,,57.0,133.0,133.0,57.0,70.0,70.0,4.0,4.1,-191,-262,0,16,160,-258,262.98694372177124,262.9870216846466,262.99033188819885,263.00173115730286,263.1509299278259,263.1509299278259,263.1509299278259,263.1509299278259,263.1509299278259,263.1509299278259,263.1509299278259,266.51968240737915,1,3.503728151321411,None,,,,,,,,,,,,,,,,,,117,1,2025-02-25_15h07.57.762,comp,2024.2.4,59.62798473725214,2025-02-25 15h08.07.977453 -0500,
53,53,0,catch,None,None,None,None,None,None,None,None,None,None,1,1.0487682819366455,None,,,,,0,0,0,0,0,53,53,126,266.53676772117615,,,,,,,,,,,,,,,,,,,,,,,,,,,,,,,,,,,,,,,,,,,,,,,,,,,,,,,,,,,,,,,,,,,,,,,,,,,,,,,,,172,153,91,99,78,112,2.1,2.12,-222,-250,0,-263,202,252,266.52187156677246,266.5219509601593,266.5255877971649,266.53676772117615,266.6854555606842,266.6854555606842,266.6854555606842,266.6854555606842,266.6854555606842,266.6854555606842,266.6854555606842,267.60322761535645,1,1.0487682819366455,None,,,,,,,,,,,,,,,,,,117,1,2025-02-25_15h07.57.762,comp,2024.2.4,59.62798473725214,2025-02-25 15h08.07.977453 -0500,
54,54,0,critical,dhw,20.0,2.1,upper,141.0,141.0,200.0,125.0,125.0,200.0,3,3.222809314727783,None,,,,,0,0,0,0,0,54,54,27,267.61864042282104,,,,,,,,,,,,,,,,,,,,,,,,,,,,,,,,,,,,,,,,,,,,,,,,,,,,,,,,,,,,,,,,,,,,,,,,,,,,,,,,,141.0,141.0,200.0,125.0,125.0,200.0,2.1,2.12,-229,-278,0,-255,258,259,267.6047451496124,267.6048228740692,267.60823154449463,267.61864042282104,267.7685685157776,267.7685685157776,267.7685685157776,267.7685685157776,267.7685685157776,267.7685685157776,267.7685685157776,270.854789018631,3,3.222809314727783,None,,,,,,,,,,,,,,,,,,117,1,2025-02-25_15h07.57.762,comp,2024.2.4,59.62798473725214,2025-02-25 15h08.07.977453 -0500,
55,55,0,critical,whd,20.0,2.1,lower,57.0,133.0,133.0,57.0,78.0,78.0,2,3.915055990219116,None,,,,,0,0,0,0,0,55,55,38,270.8707001209259,,,,,,,,,,,,,,,,,,,,,,,,,,,,,,,,,,,,,,,,,,,,,,,,,,,,,,,,,,,,,,,,,,,,,,,,,,,,,,,,,57.0,133.0,133.0,57.0,78.0,78.0,2.1,2.12,-191,-268,0,-265,164,275,270.8563234806061,270.8564341068268,270.85970640182495,270.8707001209259,271.0091006755829,271.0091006755829,271.0091006755829,271.0091006755829,271.0091006755829,271.0091006755829,271.0091006755829,274.78870606422424,2,3.915055990219116,None,,,,,,,,,,,,,,,,,,117,1,2025-02-25_15h07.57.762,comp,2024.2.4,59.62798473725214,2025-02-25 15h08.07.977453 -0500,
56,56,0,critical,wdh,35.0,3.0,lower,57.0,133.0,70.0,70.0,133.0,57.0,3,2.6773006916046143,None,,,,,0,0,0,0,0,56,56,74,274.80473256111145,,,,,,,,,,,,,,,,,,,,,,,,,,,,,,,,,,,,,,,,,,,,,,,,,,,,,,,,,,,,,,,,,,,,,,,,,,,,,,,,,57.0,133.0,70.0,70.0,133.0,57.0,3.0,3.1,-198,268,0,13,160,-287,274.79017972946167,274.79025650024414,274.79306721687317,274.80473256111145,274.95596051216125,274.95596051216125,274.95596051216125,274.95596051216125,274.95596051216125,274.95596051216125,274.95596051216125,277.4902000427246,3,2.6773006916046143,None,,,,,,,,,,,,,,,,,,117,1,2025-02-25_15h07.57.762,comp,2024.2.4,59.62798473725214,2025-02-25 15h08.07.977453 -0500,
57,57,0,critical,dwh,20.0,1.0,lower,78.0,78.0,57.0,133.0,133.0,57.0,3,9.870720863342285,None,,,,,0,0,0,0,0,57,57,66,277.50686526298523,,,,,,,,,,,,,,,,,,,,,,,,,,,,,,,,,,,,,,,,,,,,,,,,,,,,,,,,,,,,,,,,,,,,,,,,,,,,,,,,,78.0,78.0,57.0,133.0,133.0,57.0,1.0,1.2,-202,-17,0,7,191,6,277.49162793159485,277.4917049407959,277.49493885040283,277.50686526298523,277.66577672958374,277.66577672958374,277.66577672958374,277.66577672958374,277.66577672958374,277.66577672958374,277.66577672958374,287.3931791782379,3,9.870720863342285,None,,,,,,,,,,,,,,,,,,117,1,2025-02-25_15h07.57.762,comp,2024.2.4,59.62798473725214,2025-02-25 15h08.07.977453 -0500,
58,58,0,critical,hwd,35.0,4.0,upper,200.0,125.0,125.0,200.0,127.0,127.0,2,1.687885046005249,None,,,,,0,0,0,0,0,58,58,101,287.40951895713806,,,,,,,,,,,,,,,,,,,,,,,,,,,,,,,,,,,,,,,,,,,,,,,,,,,,,,,,,,,,,,,,,,,,,,,,,,,,,,,,,200.0,125.0,125.0,200.0,127.0,127.0,4.0,4.2,-258,13,0,-281,260,-15,287.3947103023529,287.3947880268097,287.39874958992004,287.40951895713806,287.5608150959015,287.5608150959015,287.5608150959015,287.5608150959015,287.5608150959015,287.5608150959015,287.5608150959015,289.1099729537964,2,1.687885046005249,None,,,,,,,,,,,,,,,,,,117,1,2025-02-25_15h07.57.762,comp,2024.2.4,59.62798473725214,2025-02-25 15h08.07.977453 -0500,
59,59,0,filler_random,None,None,None,None,None,None,None,None,None,None,2,8.368892908096313,None,,,,,0,0,0,0,0,59,59,169,289.1285319328308,,,,,,,,,,,,,,,,,,,,,,,,,,,,,,,,,,,,,,,,,,,,,,,,,,,,,,,,,,,,,,,,,,,,,,,,,,,,,,,,,98.2364712210387,176.53279591677588,119.91179487109581,140.53898086500897,183.34162363317688,115.45549820535119,2.1,2.12,-255,-276,0,-283,224,253,289.11164712905884,289.1117253303528,289.1151056289673,289.1285319328308,289.2773530483246,289.2773530483246,289.2773530483246,289.2773530483246,289.2773530483246,289.2773530483246,289.2773530483246,297.512460231781,2,8.368892908096313,None,,,,,,,,,,,,,,,,,,117,1,2025-02-25_15h07.57.762,comp,2024.2.4,59.62798473725214,2025-02-25 15h08.07.977453 -0500,
60,60,0,filler_random,None,None,None,None,None,None,None,None,None,None,3,6.3116655349731445,None,,,,,0,0,0,0,0,60,60,163,297.530499458313,,,,,,,,,,,,,,,,,,,,,,,,,,,,,,,,,,,,,,,,,,,,,,,,,,,,,,,,,,,,,,,,,,,,,,,,,,,,,,,,,176.25251688708383,114.82558801190973,160.338074741571,58.061852804495075,110.54734016798024,191.3610894615013,3.0,3.2,-182,-288,0,-10,221,270,297.5141570568085,297.5142331123352,297.51718306541443,297.530499458313,297.6844549179077,297.6844549179077,297.6844549179077,297.6844549179077,297.6844549179077,297.6844549179077,297.6844549179077,303.8501145839691,3,6.3116655349731445,None,,,,,,,,,,,,,,,,,,117,1,2025-02-25_15h07.57.762,comp,2024.2.4,59.62798473725214,2025-02-25 15h08.07.977453 -0500,
61,61,0,critical,hwd,35.0,4.0,lower,133.0,57.0,57.0,133.0,70.0,70.0,2,2.8634986877441406,None,,,,,0,0,0,0,0,61,61,100,303.8660933971405,,,,,,,,,,,,,,,,,,,,,,,,,,,,,,,,,,,,,,,,,,,,,,,,,,,,,,,,,,,,,,,,,,,,,,,,,,,,,,,,,133.0,57.0,57.0,133.0,70.0,70.0,4.0,4.1,-191,-275,0,10,198,-267,303.85175013542175,303.85183119773865,303.8552598953247,303.8660933971405,304.00320386886597,304.00320386886597,304.00320386886597,304.00320386886597,304.00320386886597,304.00320386886597,304.00320386886597,306.73363614082336,2,2.8634986877441406,None,,,,,,,,,,,,,,,,,,117,1,2025-02-25_15h07.57.762,comp,2024.2.4,59.62798473725214,2025-02-25 15h08.07.977453 -0500,
62,62,0,critical,hdw,20.0,4.0,upper,200.0,125.0,141.0,141.0,125.0,200.0,3,1.6834509372711182,None,,,,,0,0,0,0,0,62,62,119,306.7500193119049,,,,,,,,,,,,,,,,,,,,,,,,,,,,,,,,,,,,,,,,,,,,,,,,,,,,,,,,,,,,,,,,,,,,,,,,,,,,,,,,,200.0,125.0,141.0,141.0,125.0,200.0,4.0,4.2,-229,-19,0,-267,266,19,306.73511004447937,306.73519110679626,306.73842000961304,306.7500193119049,306.8988194465637,306.8988194465637,306.8988194465637,306.8988194465637,306.8988194465637,306.8988194465637,306.8988194465637,308.45002913475037,3,1.6834509372711182,None,,,,,,,,,,,,,,,,,,117,1,2025-02-25_15h07.57.762,comp,2024.2.4,59.62798473725214,2025-02-25 15h08.07.977453 -0500,
63,63,0,critical,hdw,20.0,2.1,upper,200.0,125.0,141.0,141.0,125.0,200.0,3,1.824047327041626,None,,,,,0,0,0,0,0,63,63,47,308.46531414985657,,,,,,,,,,,,,,,,,,,,,,,,,,,,,,,,,,,,,,,,,,,,,,,,,,,,,,,,,,,,,,,,,,,,,,,,,,,,,,,,,200.0,125.0,141.0,141.0,125.0,200.0,2.1,2.11,-229,260,0,261,266,-280,308.45156598091125,308.45164155960083,308.4550096988678,308.46531414985657,308.6138460636139,308.6138460636139,308.6138460636139,308.6138460636139,308.6138460636139,308.6138460636139,308.6138460636139,310.2992424964905,3,1.824047327041626,None,,,,,,,,,,,,,,,,,,117,1,2025-02-25_15h07.57.762,comp,2024.2.4,59.62798473725214,2025-02-25 15h08.07.977453 -0500,
64,64,0,filler_random,None,None,None,None,None,None,None,None,None,None,2,1.6379330158233643,None,,,,,0,0,0,0,0,64,64,136,310.3157093524933,,,,,,,,,,,,,,,,,,,,,,,,,,,,,,,,,,,,,,,,,,,,,,,,,,,,,,,,,,,,,,,,,,,,,,,,,,,,,,,,,118.02907072992024,140.66183211018034,183.2507202129248,162.6757719877213,107.40821718277066,199.3780141793938,1.0,1.3,232,-268,480,-279,757,-285,310.300981760025,310.3010609149933,310.3040590286255,310.3157093524933,310.4726667404175,310.4726667404175,310.4726667404175,310.4726667404175,310.4726667404175,310.4726667404175,310.4726667404175,311.967458486557,2,1.6379330158233643,None,,,,,,,,,,,,,,,,,,117,1,2025-02-25_15h07.57.762,comp,2024.2.4,59.62798473725214,2025-02-25 15h08.07.977453 -0500,
65,65,0,catch,None,None,None,None,None,None,None,None,None,None,3,1.3772833347320557,None,,,,,0,0,0,0,0,65,65,123,311.9844779968262,,,,,,,,,,,,,,,,,,,,,,,,,,,,,,,,,,,,,,,,,,,,,,,,,,,,,,,,,,,,,,,,,,,,,,,,,,,,,,,,,80,110,133,57,159,166,3.0,3.1,-180,251,0,17,208,-262,311.9693043231964,311.96940302848816,311.97338604927063,311.9844779968262,312.13279390335083,312.13279390335083,312.13279390335083,312.13279390335083,312.13279390335083,312.13279390335083,312.13279390335083,313.36666107177734,3,1.3772833347320557,None,,,,,,,,,,,,,,,,,,117,1,2025-02-25_15h07.57.762,comp,2024.2.4,59.62798473725214,2025-02-25 15h08.07.977453 -0500,
66,66,0,critical,hwd,20.0,4.0,lower,133.0,57.0,57.0,133.0,78.0,78.0,2,2.522670030593872,None,,,,,0,0,0,0,0,66,66,106,313.38278245925903,,,,,,,,,,,,,,,,,,,,,,,,,,,,,,,,,,,,,,,,,,,,,,,,,,,,,,,,,,,,,,,,,,,,,,,,,,,,,,,,,133.0,57.0,57.0,133.0,78.0,78.0,4.0,4.2,-191,-19,0,-286,202,-15,313.3680987358093,313.36817693710327,313.3711562156677,313.38278245925903,313.5349955558777,313.5349955558777,313.5349955558777,313.5349955558777,313.5349955558777,313.5349955558777,313.5349955558777,315.92059421539307,2,2.522670030593872,None,,,,,,,,,,,,,,,,,,117,1,2025-02-25_15h07.57.762,comp,2024.2.4,59.62798473725214,2025-02-25 15h08.07.977453 -0500,
67,67,0,filler_random,None,None,None,None,None,None,None,None,None,None,2,1.6005685329437256,None,,,,,0,0,0,0,0,67,67,142,315.9369807243347,,,,,,,,,,,,,,,,,,,,,,,,,,,,,,,,,,,,,,,,,,,,,,,,,,,,,,,,,,,,,,,,,,,,,,,,,,,,,,,,,63.33680518956651,194.27899502041265,144.34640051181933,72.10933389497431,135.86384416309386,63.003286674102206,2.1,2.11,-229,260,0,261,164,-283,315.9223563671112,315.9224588871002,315.92552042007446,315.9369807243347,316.08122515678406,316.08122515678406,316.08122515678406,316.08122515678406,316.08122515678406,316.08122515678406,316.08122515678406,317.5410192012787,2,1.6005685329437256,None,,,,,,,,,,,,,,,,,,117,1,2025-02-25_15h07.57.762,comp,2024.2.4,59.62798473725214,2025-02-25 15h08.07.977453 -0500,
68,68,0,filler_random,None,None,None,None,None,None,None,None,None,None,2,0.7686135768890381,None,,,,,0,0,0,0,0,68,68,141,317.5612840652466,,,,,,,,,,,,,,,,,,,,,,,,,,,,,,,,,,,,,,,,,,,,,,,,,,,,,,,,,,,,,,,,,,,,,,,,,,,,,,,,,69.34774966395318,95.52046279598305,144.5954769396489,158.00761813277683,131.46769327491796,63.90926550051695,3.0,3.1,-223,288,0,16,207,-268,317.5427715778351,317.54285168647766,317.54569578170776,317.5612840652466,317.7042565345764,317.7042565345764,317.7042565345764,317.7042565345764,317.7042565345764,317.7042565345764,317.7042565345764,318.33563590049744,2,0.7686135768890381,None,,,,,,,,,,,,,,,,,,117,1,2025-02-25_15h07.57.762,comp,2024.2.4,59.62798473725214,2025-02-25 15h08.07.977453 -0500,
69,69,0,filler_random,None,None,None,None,None,None,None,None,None,None,1,1.2153887748718262,None,,,,,0,0,0,0,0,69,69,160,318.35399103164673,,,,,,,,,,,,,,,,,,,,,,,,,,,,,,,,,,,,,,,,,,,,,,,,,,,,,,,,,,,,,,,,,,,,,,,,,,,,,,,,,151.88425217554757,178.5640087479558,119.70359529606675,142.9589662304164,117.38148280039478,130.38827051401896,2.1,2.11,-257,276,0,274,233,-265,318.33742332458496,318.33755922317505,318.34077072143555,318.35399103164673,318.50306725502014,318.50306725502014,318.50306725502014,318.50306725502014,318.50306725502014,318.50306725502014,318.50306725502014,319.5842356681824,1,1.2153887748718262,None,,,,,,,,,,,,,,,,,,117,1,2025-02-25_15h07.57.762,comp,2024.2.4,59.62798473725214,2025-02-25 15h08.07.977453 -0500,
70,70,0,filler_square,None,None,None,None,None,None,None,None,None,None,2,1.3548097610473633,None,,,,,0,0,0,0,0,70,70,191,319.59894037246704,,,,,,,,,,,,,,,,,,,,,,,,,,,,,,,,,,,,,,,,,,,,,,,,,,,,,,,,,,,,,,,,,,,,,,,,,,,,,,,,,63.87598333611619,75.39227595749057,76.65804041847267,76.65804041847267,67.42346788658323,64.34877682727713,2.1,2.11,-172,261,0,289,167,-270,319.5862078666687,319.58628726005554,319.589412689209,319.59894037246704,319.7539119720459,319.7539119720459,319.7539119720459,319.7539119720459,319.7539119720459,319.7539119720459,319.7539119720459,320.9638066291809,2,1.3548097610473633,None,,,,,,,,,,,,,,,,,,117,1,2025-02-25_15h07.57.762,comp,2024.2.4,59.62798473725214,2025-02-25 15h08.07.977453 -0500,
71,71,0,critical,hwd,20.0,2.1,upper,200.0,125.0,125.0,200.0,141.0,141.0,2,6.088845252990723,None,,,,,0,0,0,0,0,71,71,43,320.98452591896057,,,,,,,,,,,,,,,,,,,,,,,,,,,,,,,,,,,,,,,,,,,,,,,,,,,,,,,,,,,,,,,,,,,,,,,,,,,,,,,,,200.0,125.0,125.0,200.0,141.0,141.0,2.1,2.11,-258,276,0,262,266,-268,320.9653980731964,320.9654836654663,320.9687707424164,320.98452591896057,321.1255955696106,321.1255955696106,321.1255955696106,321.1255955696106,321.1255955696106,321.1255955696106,321.1255955696106,327.088586807251,2,6.088845252990723,None,,,,,,,,,,,,,,,,,,117,1,2025-02-25_15h07.57.762,comp,2024.2.4,59.62798473725214,2025-02-25 15h08.07.977453 -0500,
72,72,0,filler_square,None,None,None,None,None,None,None,None,None,None,2,4.801364183425903,None,,,,,0,0,0,0,0,72,72,178,327.10408425331116,,,,,,,,,,,,,,,,,,,,,,,,,,,,,,,,,,,,,,,,,,,,,,,,,,,,,,,,,,,,,,,,,,,,,,,,,,,,,,,,,65.15679969024436,64.49784906661641,68.94777073678392,68.94777073678392,64.45376757903865,66.21806000997583,1.0,1.2,-163,13,0,-11,164,-12,327.0904486179352,327.0905282497406,327.0937554836273,327.10408425331116,327.25364232063293,327.25364232063293,327.25364232063293,327.25364232063293,327.25364232063293,327.25364232063293,327.25364232063293,331.92373728752136,2,4.801364183425903,None,,,,,,,,,,,,,,,,,,117,1,2025-02-25_15h07.57.762,comp,2024.2.4,59.62798473725214,2025-02-25 15h08.07.977453 -0500,
73,73,0,filler_random,None,None,None,None,None,None,None,None,None,None,1,0.9335157871246338,None,,,,,0,0,0,0,0,73,73,158,331.9399254322052,,,,,,,,,,,,,,,,,,,,,,,,,,,,,,,,,,,,,,,,,,,,,,,,,,,,,,,,,,,,,,,,,,,,,,,,,,,,,,,,,163.15246463604,178.32246549195253,144.97653579970387,58.02840615863904,150.67219407631225,104.25849459903563,2.2,2.21,-214,-288,0,265,177,267,331.9255554676056,331.92563486099243,331.92965149879456,331.9399254322052,332.08871722221375,332.08871722221375,332.08871722221375,332.08871722221375,332.08871722221375,332.08871722221375,332.08871722221375,332.88950419425964,1,0.9335157871246338,None,,,,,,,,,,,,,,,,,,117,1,2025-02-25_15h07.57.762,comp,2024.2.4,59.62798473725214,2025-02-25 15h08.07.977453 -0500,
74,74,0,filler_square,None,None,None,None,None,None,None,None,None,None,1,1.1677513122558594,None,,,,,0,0,0,0,0,74,74,171,332.9056510925293,,,,,,,,,,,,,,,,,,,,,,,,,,,,,,,,,,,,,,,,,,,,,,,,,,,,,,,,,,,,,,,,,,,,,,,,,,,,,,,,,93.11891856460643,93.11891856460643,59.875411273568105,63.19645316023624,63.39026437798809,61.24445502582329,1.0,1.2,-174,0,0,6,158,15,332.8912317752838,332.89130878448486,332.894323348999,332.9056510925293,333.04110956192017,333.04110956192017,333.04110956192017,333.04110956192017,333.04110956192017,333.04110956192017,333.04110956192017,334.09445309638977,1,1.1677513122558594,None,,,,,,,,,,,,,,,,,,117,1,2025-02-25_15h07.57.762,comp,2024.2.4,59.62798473725214,2025-02-25 15h08.07.977453 -0500,
75,75,0,critical,wdh,35.0,1.0,lower,57.0,133.0,70.0,70.0,133.0,57.0,1,1.950526237487793,None,,,,,0,0,0,0,0,75,75,72,334.1148462295532,,,,,,,,,,,,,,,,,,,,,,,,,,,,,,,,,,,,,,,,,,,,,,,,,,,,,,,,,,,,,,,,,,,,,,,,,,,,,,,,,57.0,133.0,70.0,70.0,133.0,57.0,1.0,1.1,-678,257,-480,265,-320,274,334.0960638523102,334.09614419937134,334.09943103790283,334.1148462295532,334.2593927383423,334.2593927383423,334.2593927383423,334.2593927383423,334.2593927383423,334.2593927383423,334.2593927383423,336.0786781311035,1,1.950526237487793,None,,,,,,,,,,,,,,,,,,117,1,2025-02-25_15h07.57.762,comp,2024.2.4,59.62798473725214,2025-02-25 15h08.07.977453 -0500,
76,76,0,filler_square,None,None,None,None,None,None,None,None,None,None,1,0.7712347507476807,None,,,,,0,0,0,0,0,76,76,170,336.0950539112091,,,,,,,,,,,,,,,,,,,,,,,,,,,,,,,,,,,,,,,,,,,,,,,,,,,,,,,,,,,,,,,,,,,,,,,,,,,,,,,,,192.15320773678386,192.15320773678386,114.98087066352046,58.60222702985453,124.34759136216212,57.224064877539355,1.0,1.2,-221,7,0,-12,154,-9,336.0804386138916,336.0805745124817,336.0837981700897,336.0950539112091,336.24034786224365,336.24034786224365,336.24034786224365,336.24034786224365,336.24034786224365,336.24034786224365,336.24034786224365,336.8762083053589,1,0.7712347507476807,None,,,,,,,,,,,,,,,,,,117,1,2025-02-25_15h07.57.762,comp,2024.2.4,59.62798473725214,2025-02-25 15h08.07.977453 -0500,
77,77,0,critical,dhw,35.0,2.1,upper,127.0,127.0,200.0,125.0,125.0,200.0,3,3.9526116847991943,None,,,,,0,0,0,0,0,77,77,1,336.897047996521,,,,,,,,,,,,,,,,,,,,,,,,,,,,,,,,,,,,,,,,,,,,,,,,,,,,,,,,,,,,,,,,,,,,,,,,,,,,,,,,,127.0,127.0,200.0,125.0,125.0,200.0,2.1,2.12,-222,-261,0,-275,258,262,336.87782406806946,336.8779056072235,336.8811876773834,336.897047996521,337.0414810180664,337.0414810180664,337.0414810180664,337.0414810180664,337.0414810180664,337.0414810180664,337.0414810180664,340.8560583591461,3,3.9526116847991943,None,,,,,,,,,,,,,,,,,,117,1,2025-02-25_15h07.57.762,comp,2024.2.4,59.62798473725214,2025-02-25 15h08.07.977453 -0500,
78,78,0,critical,hdw,35.0,3.0,upper,200.0,125.0,127.0,127.0,125.0,200.0,3,1.4960269927978516,None,,,,,0,0,0,0,0,78,78,111,340.87352108955383,,,,,,,,,,,,,,,,,,,,,,,,,,,,,,,,,,,,,,,,,,,,,,,,,,,,,,,,,,,,,,,,,,,,,,,,,,,,,,,,,200.0,125.0,127.0,127.0,125.0,200.0,3.0,3.1,-222,259,0,2,260,-263,340.85749864578247,340.8575768470764,340.86035418510437,340.87352108955383,341.01047134399414,341.01047134399414,341.01047134399414,341.01047134399414,341.01047134399414,341.01047134399414,341.01047134399414,342.38397121429443,3,1.4960269927978516,None,,,,,,,,,,,,,,,,,,117,1,2025-02-25_15h07.57.762,comp,2024.2.4,59.62798473725214,2025-02-25 15h08.07.977453 -0500,
79,79,0,critical,dwh,20.0,4.0,lower,78.0,78.0,57.0,133.0,133.0,57.0,2,2.5489487648010254,None,,,,,0,0,0,0,0,79,79,70,342.40524435043335,,,,,,,,,,,,,,,,,,,,,,,,,,,,,,,,,,,,,,,,,,,,,,,,,,,,,,,,,,,,,,,,,,,,,,,,,,,,,,,,,78.0,78.0,57.0,133.0,133.0,57.0,4.0,4.1,-202,-265,0,1,191,-280,342.38586711883545,342.38600039482117,342.38950085639954,342.40524435043335,342.54850578308105,342.54850578308105,342.54850578308105,342.54850578308105,342.54850578308105,342.54850578308105,342.54850578308105,344.9582612514496,2,2.5489487648010254,None,,,,,,,,,,,,,,,,,,117,1,2025-02-25_15h07.57.762,comp,2024.2.4,59.62798473725214,2025-02-25 15h08.07.977453 -0500,
80,80,0,critical,hdw,35.0,2.1,upper,200.0,125.0,127.0,127.0,125.0,200.0,3,2.8184850215911865,None,,,,,0,0,0,0,0,80,80,45,344.97546553611755,,,,,,,,,,,,,,,,,,,,,,,,,,,,,,,,,,,,,,,,,,,,,,,,,,,,,,,,,,,,,,,,,,,,,,,,,,,,,,,,,200.0,125.0,127.0,127.0,125.0,200.0,2.1,2.11,-222,289,0,251,260,-285,344.9597325325012,344.9598104953766,344.96260046958923,344.97546553611755,345.1112253665924,345.1112253665924,345.1112253665924,345.1112253665924,345.1112253665924,345.1112253665924,345.1112253665924,347.8116829395294,3,2.8184850215911865,None,,,,,,,,,,,,,,,,,,117,1,2025-02-25_15h07.57.762,comp,2024.2.4,59.62798473725214,2025-02-25 15h08.07.977453 -0500,
81,81,0,critical,whd,35.0,1.0,lower,57.0,133.0,133.0,57.0,70.0,70.0,1,6.266918897628784,None,,,,,0,0,0,0,0,81,81,84,347.8305027484894,,,,,,,,,,,,,,,,,,,,,,,,,,,,,,,,,,,,,,,,,,,,,,,,,,,,,,,,,,,,,,,,,,,,,,,,,,,,,,,,,57.0,133.0,133.0,57.0,70.0,70.0,1.0,1.1,-671,262,-480,260,-320,288,347.8131380081177,347.8132150173187,347.81631898880005,347.8305027484894,347.97863841056824,347.97863841056824,347.97863841056824,347.97863841056824,347.97863841056824,347.97863841056824,347.97863841056824,354.1138017177582,1,6.266918897628784,None,,,,,,,,,,,,,,,,,,117,1,2025-02-25_15h07.57.762,comp,2024.2.4,59.62798473725214,2025-02-25 15h08.07.977453 -0500,
82,82,0,filler_random,None,None,None,None,None,None,None,None,None,None,3,2.6642255783081055,None,,,,,0,0,0,0,0,82,82,140,354.12940740585327,,,,,,,,,,,,,,,,,,,,,,,,,,,,,,,,,,,,,,,,,,,,,,,,,,,,,,,,,,,,,,,,,,,,,,,,,,,,,,,,,98.29545949202205,158.00693205443753,168.8223008859589,65.67262354653627,140.35325453865963,126.60510820618387,1.0,1.2,-208,9,0,10,192,0,354.11547470092773,354.1155548095703,354.11900424957275,354.12940740585327,354.28705167770386,354.28705167770386,354.28705167770386,354.28705167770386,354.28705167770386,354.28705167770386,354.28705167770386,356.7986605167389,3,2.6642255783081055,None,,,,,,,,,,,,,,,,,,117,1,2025-02-25_15h07.57.762,comp,2024.2.4,59.62798473725214,2025-02-25 15h08.07.977453 -0500,
83,83,0,critical,wdh,20.0,2.1,upper,125.0,200.0,141.0,141.0,200.0,125.0,1,1.5444433689117432,None,,,,,0,0,0,0,0,83,83,35,356.8174993991852,,,,,,,,,,,,,,,,,,,,,,,,,,,,,,,,,,,,,,,,,,,,,,,,,,,,,,,,,,,,,,,,,,,,,,,,,,,,,,,,,125.0,200.0,141.0,141.0,200.0,125.0,2.1,2.12,-266,-259,0,-260,229,283,356.80018377304077,356.80026173591614,356.8035271167755,356.8174993991852,356.9655041694641,356.9655041694641,356.9655041694641,356.9655041694641,356.9655041694641,356.9655041694641,356.9655041694641,358.3799057006836,1,1.5444433689117432,None,,,,,,,,,,,,,,,,,,117,1,2025-02-25_15h07.57.762,comp,2024.2.4,59.62798473725214,2025-02-25 15h08.07.977453 -0500,
84,84,0,filler_square,None,None,None,None,None,None,None,None,None,None,1,0.7982194423675537,None,,,,,0,0,0,0,0,84,84,206,358.3955795764923,,,,,,,,,,,,,,,,,,,,,,,,,,,,,,,,,,,,,,,,,,,,,,,,,,,,,,,,,,,,,,,,,,,,,,,,,,,,,,,,,136.47698324935243,136.47698324935243,77.9843218009305,89.83292028352089,76.53938983457377,101.23054014041573,3.0,3.2,-209,-278,0,-15,192,254,358.3816695213318,358.3817491531372,358.3845520019531,358.3955795764923,358.5506045818329,358.5506045818329,358.5506045818329,358.5506045818329,358.5506045818329,358.5506045818329,358.5506045818329,359.19969487190247,1,0.7982194423675537,None,,,,,,,,,,,,,,,,,,117,1,2025-02-25_15h07.57.762,comp,2024.2.4,59.62798473725214,2025-02-25 15h08.07.977453 -0500,
85,85,0,filler_random,None,None,None,None,None,None,None,None,None,None,2,1.2177248001098633,None,,,,,0,0,0,0,0,85,85,165,359.215847492218,,,,,,,,,,,,,,,,,,,,,,,,,,,,,,,,,,,,,,,,,,,,,,,,,,,,,,,,,,,,,,,,,,,,,,,,,,,,,,,,,118.33232546346869,60.875356876811544,180.76542086849162,130.22604859983096,79.58978703098757,146.25101129870038,2.1,2.12,-192,-266,0,-277,234,251,359.20149302482605,359.2015714645386,359.20496582984924,359.215847492218,359.3695213794708,359.3695213794708,359.3695213794708,359.3695213794708,359.3695213794708,359.3695213794708,359.3695213794708,360.4498269557953,2,1.2177248001098633,None,,,,,,,,,,,,,,,,,,117,1,2025-02-25_15h07.57.762,comp,2024.2.4,59.62798473725214,2025-02-25 15h08.07.977453 -0500,
86,86,0,filler_random,None,None,None,None,None,None,None,None,None,None,2,1.2782373428344727,None,,,,,0,0,0,0,0,86,86,138,360.4677095413208,,,,,,,,,,,,,,,,,,,,,,,,,,,,,,,,,,,,,,,,,,,,,,,,,,,,,,,,,,,,,,,,,,,,,,,,,,,,,,,,,134.06089372046185,87.19303950124761,143.1895528285366,126.4331480228032,78.41500017616451,68.87754568520884,2.1,2.11,-203,263,0,266,194,-278,360.4516143798828,360.4517388343811,360.455037355423,360.4677095413208,360.615042924881,360.615042924881,360.615042924881,360.615042924881,360.615042924881,360.615042924881,360.615042924881,361.7517921924591,2,1.2782373428344727,None,,,,,,,,,,,,,,,,,,117,1,2025-02-25_15h07.57.762,comp,2024.2.4,59.62798473725214,2025-02-25 15h08.07.977453 -0500,
87,87,0,filler_square,None,None,None,None,None,None,None,None,None,None,3,1.4162991046905518,None,,,,,0,0,0,0,0,87,87,176,361.76911306381226,,,,,,,,,,,,,,,,,,,,,,,,,,,,,,,,,,,,,,,,,,,,,,,,,,,,,,,,,,,,,,,,,,,,,,,,,,,,,,,,,62.169305873448096,126.27309345274084,95.45349692613497,105.8677671714419,133.01937143124394,133.01937143124394,1.0,1.3,268,-272,480,-262,695,-271,361.7538523674011,361.75393629074097,361.7573630809784,361.76911306381226,361.918972492218,361.918972492218,361.918972492218,361.918972492218,361.918972492218,361.918972492218,361.918972492218,363.20001435279846,3,1.4162991046905518,None,,,,,,,,,,,,,,,,,,117,1,2025-02-25_15h07.57.762,comp,2024.2.4,59.62798473725214,2025-02-25 15h08.07.977453 -0500,
88,88,0,filler_random,None,None,None,None,None,None,None,None,None,None,1,1.3133063316345215,None,,,,,0,0,0,0,0,88,88,144,363.216402053833,,,,,,,,,,,,,,,,,,,,,,,,,,,,,,,,,,,,,,,,,,,,,,,,,,,,,,,,,,,,,,,,,,,,,,,,,,,,,,,,,165.88057212393412,195.09964411935533,108.79769259360657,146.51690585277737,132.1349487712884,113.91600299871001,4.0,4.2,-267,2,0,-288,226,-3,363.2016785144806,363.2017548084259,363.20516085624695,363.216402053833,363.36749482154846,363.36749482154846,363.36749482154846,363.36749482154846,363.36749482154846,363.36749482154846,363.36749482154846,364.53488969802856,1,1.3133063316345215,None,,,,,,,,,,,,,,,,,,117,1,2025-02-25_15h07.57.762,comp,2024.2.4,59.62798473725214,2025-02-25 15h08.07.977453 -0500,
89,89,0,filler_random,None,None,None,None,None,None,None,None,None,None,1,1.2270588874816895,None,,,,,0,0,0,0,0,89,89,166,364.55079770088196,,,,,,,,,,,,,,,,,,,,,,,,,,,,,,,,,,,,,,,,,,,,,,,,,,,,,,,,,,,,,,,,,,,,,,,,,,,,,,,,,148.1041498365367,129.59349188531567,188.58436049647338,75.63239997871608,139.12457461332457,62.29692338902259,2.2,2.22,-199,263,0,-276,165,-265,364.5365550518036,364.5366334915161,364.5399308204651,364.55079770088196,364.6997699737549,364.6997699737549,364.6997699737549,364.6997699737549,364.6997699737549,364.6997699737549,364.6997699737549,365.7828345298767,1,1.2270588874816895,None,,,,,,,,,,,,,,,,,,117,1,2025-02-25_15h07.57.762,comp,2024.2.4,59.62798473725214,2025-02-25 15h08.07.977453 -0500,
90,90,0,critical,dwh,20.0,2.1,lower,78.0,78.0,57.0,133.0,133.0,57.0,2,2.443021774291992,None,,,,,0,0,0,0,0,90,90,30,365.7991027832031,,,,,,,,,,,,,,,,,,,,,,,,,,,,,,,,,,,,,,,,,,,,,,,,,,,,,,,,,,,,,,,,,,,,,,,,,,,,,,,,,78.0,78.0,57.0,133.0,133.0,57.0,2.1,2.12,-202,-275,0,-275,191,290,365.78426361083984,365.7843418121338,365.7871422767639,365.7991027832031,365.953736782074,365.953736782074,365.953736782074,365.953736782074,365.953736782074,365.953736782074,365.953736782074,368.25041699409485,2,2.443021774291992,None,,,,,,,,,,,,,,,,,,117,1,2025-02-25_15h07.57.762,comp,2024.2.4,59.62798473725214,2025-02-25 15h08.07.977453 -0500,
91,91,0,critical,whd,35.0,1.0,upper,125.0,200.0,200.0,125.0,127.0,127.0,2,0.0702214241027832,None,,,,,0,0,0,0,0,91,91,85,368.2673008441925,,,,,,,,,,,,,,,,,,,,,,,,,,,,,,,,,,,,,,,,,,,,,,,,,,,,,,,,,,,,,,,,,,,,,,,,,,,,,,,,,125.0,200.0,200.0,125.0,127.0,127.0,1.0,1.3,222,-264,480,-287,702,-272,368.2520008087158,368.2520799636841,368.2553222179413,368.2673008441925,,,,,,,,368.35020327568054,2,0.0702214241027832,None,,,,,,,,,,,,,,,,,,117,1,2025-02-25_15h07.57.762,comp,2024.2.4,59.62798473725214,2025-02-25 15h08.07.977453 -0500,
92,92,0,filler_square,None,None,None,None,None,None,None,None,None,None,2,1.291266918182373,None,,,,,0,0,0,0,0,92,92,203,368.3662950992584,,,,,,,,,,,,,,,,,,,,,,,,,,,,,,,,,,,,,,,,,,,,,,,,,,,,,,,,,,,,,,,,,,,,,,,,,,,,,,,,,102.17610811123082,128.49592961480317,147.61866824868912,147.61866824868912,84.4032188071857,89.68918527368106,2.2,2.21,-234,-269,0,261,215,269,368.35201621055603,368.3520932197571,368.35495495796204,368.3662950992584,368.52082896232605,368.52082896232605,368.52082896232605,368.52082896232605,368.52082896232605,368.52082896232605,368.52082896232605,369.66958117485046,2,1.291266918182373,None,,,,,,,,,,,,,,,,,,117,1,2025-02-25_15h07.57.762,comp,2024.2.4,59.62798473725214,2025-02-25 15h08.07.977453 -0500,
93,93,0,catch,None,None,None,None,None,None,None,None,None,None,3,1.7478694915771484,None,,,,,0,0,0,0,0,93,93,127,369.686243057251,,,,,,,,,,,,,,,,,,,,,,,,,,,,,,,,,,,,,,,,,,,,,,,,,,,,,,,,,,,,,,,,,,,,,,,,,,,,,,,,,130,60,90,100,188,137,3.0,3.2,-176,-286,0,11,214,283,369.6715199947357,369.6716012954712,369.67550468444824,369.686243057251,369.83397579193115,369.83397579193115,369.83397579193115,369.83397579193115,369.83397579193115,369.83397579193115,369.83397579193115,371.4520001411438,3,1.7478694915771484,None,,,,,,,,,,,,,,,,,,117,1,2025-02-25_15h07.57.762,comp,2024.2.4,59.62798473725214,2025-02-25 15h08.07.977453 -0500,
94,94,0,critical,wdh,20.0,2.1,lower,57.0,133.0,78.0,78.0,133.0,57.0,1,4.546694278717041,None,,,,,0,0,0,0,0,94,94,10,371.4714665412903,,,,,,,,,,,,,,,,,,,,,,,,,,,,,,,,,,,,,,,,,,,,,,,,,,,,,,,,,,,,,,,,,,,,,,,,,,,,,,,,,57.0,133.0,78.0,78.0,133.0,57.0,2.1,2.11,-202,273,0,256,164,-271,371.4536135196686,371.4536952972412,371.45702958106995,371.4714665412903,371.6194181442261,371.6194181442261,371.6194181442261,371.6194181442261,371.6194181442261,371.6194181442261,371.6194181442261,376.0238687992096,1,4.546694278717041,None,,,,,,,,,,,,,,,,,,117,1,2025-02-25_15h07.57.762,comp,2024.2.4,59.62798473725214,2025-02-25 15h08.07.977453 -0500,
95,95,0,critical,wdh,35.0,4.0,lower,57.0,133.0,70.0,70.0,133.0,57.0,1,1.7452619075775146,None,,,,,0,0,0,0,0,95,95,76,376.04018235206604,,,,,,,,,,,,,,,,,,,,,,,,,,,,,,,,,,,,,,,,,,,,,,,,,,,,,,,,,,,,,,,,,,,,,,,,,,,,,,,,,57.0,133.0,70.0,70.0,133.0,57.0,4.0,4.1,-198,-282,0,11,160,-252,376.025514125824,376.0255947113037,376.0293366909027,376.04018235206604,376.18801522254944,376.18801522254944,376.18801522254944,376.18801522254944,376.18801522254944,376.18801522254944,376.18801522254944,377.7893421649933,1,1.7452619075775146,None,,,,,,,,,,,,,,,,,,117,1,2025-02-25_15h07.57.762,comp,2024.2.4,59.62798473725214,2025-02-25 15h08.07.977453 -0500,
96,96,0,filler_random,None,None,None,None,None,None,None,None,None,None,2,1.6283652782440186,None,,,,,0,0,0,0,0,96,96,133,377.8054404258728,,,,,,,,,,,,,,,,,,,,,,,,,,,,,,,,,,,,,,,,,,,,,,,,,,,,,,,,,,,,,,,,,,,,,,,,,,,,,,,,,148.85624891350164,75.78212276151149,161.05720071854972,133.87526211314804,197.29677445488355,81.85585412553392,3.0,3.1,-201,256,0,19,204,-281,377.7910771369934,377.79116106033325,377.7945694923401,377.8054404258728,377.9574775695801,377.9574775695801,377.9574775695801,377.9574775695801,377.9574775695801,377.9574775695801,377.9574775695801,379.43796372413635,2,1.6283652782440186,None,,,,,,,,,,,,,,,,,,117,1,2025-02-25_15h07.57.762,comp,2024.2.4,59.62798473725214,2025-02-25 15h08.07.977453 -0500,
97,97,0,critical,hdw,20.0,2.1,lower,133.0,57.0,78.0,78.0,57.0,133.0,3,2.180685520172119,None,,,,,0,0,0,0,0,97,97,46,379.4535160064697,,,,,,,,,,,,,,,,,,,,,,,,,,,,,,,,,,,,,,,,,,,,,,,,,,,,,,,,,,,,,,,,,,,,,,,,,,,,,,,,,133.0,57.0,78.0,78.0,57.0,133.0,2.1,2.12,-164,-287,0,-264,202,275,379.43949341773987,379.4395716190338,379.44260692596436,379.4535160064697,379.6052839756012,379.6052839756012,379.6052839756012,379.6052839756012,379.6052839756012,379.6052839756012,379.6052839756012,381.64078402519226,3,2.180685520172119,None,,,,,,,,,,,,,,,,,,117,1,2025-02-25_15h07.57.762,comp,2024.2.4,59.62798473725214,2025-02-25 15h08.07.977453 -0500,
98,98,0,filler_random,None,None,None,None,None,None,None,None,None,None,1,1.8734374046325684,None,,,,,0,0,0,0,0,98,98,131,381.65677785873413,,,,,,,,,,,,,,,,,,,,,,,,,,,,,,,,,,,,,,,,,,,,,,,,,,,,,,,,,,,,,,,,,,,,,,,,,,,,,,,,,166.83541262358003,102.89429982356322,123.6351140349595,102.74805847655846,166.02219953669442,63.11966852016028,2.2,2.21,-199,-255,0,283,179,272,381.6424994468689,381.64258337020874,381.6458966732025,381.65677785873413,381.80474281311035,381.80474281311035,381.80474281311035,381.80474281311035,381.80474281311035,381.80474281311035,381.80474281311035,383.54076862335205,1,1.8734374046325684,None,,,,,,,,,,,,,,,,,,117,1,2025-02-25_15h07.57.762,comp,2024.2.4,59.62798473725214,2025-02-25 15h08.07.977453 -0500,
99,99,0,filler_random,None,None,None,None,None,None,None,None,None,None,2,1.084620475769043,None,,,,,0,0,0,0,0,99,99,159,383.55708169937134,,,,,,,,,,,,,,,,,,,,,,,,,,,,,,,,,,,,,,,,,,,,,,,,,,,,,,,,,,,,,,,,,,,,,,,,,,,,,,,,,86.3771403044846,96.36696109983683,199.43663866552933,154.73428787123132,76.185350689812,86.8178953131175,4.0,4.1,-222,-285,0,-1,217,-256,383.54265093803406,383.5427916049957,383.5461173057556,383.55708169937134,383.7096817493439,383.7096817493439,383.7096817493439,383.7096817493439,383.7096817493439,383.7096817493439,383.7096817493439,384.65556931495667,2,1.084620475769043,None,,,,,,,,,,,,,,,,,,117,1,2025-02-25_15h07.57.762,comp,2024.2.4,59.62798473725214,2025-02-25 15h08.07.977453 -0500,
100,100,0,critical,dhw,20.0,2.1,lower,78.0,78.0,133.0,57.0,57.0,133.0,3,7.082814931869507,None,,,,,0,0,0,0,0,100,100,2,384.6714768409729,,,,,,,,,,,,,,,,,,,,,,,,,,,,,,,,,,,,,,,,,,,,,,,,,,,,,,,,,,,,,,,,,,,,,,,,,,,,,,,,,78.0,78.0,133.0,57.0,57.0,133.0,2.1,2.12,-164,-258,0,-265,191,269,384.6570110321045,384.6570882797241,384.66000390052795,384.6714768409729,384.82374000549316,384.82374000549316,384.82374000549316,384.82374000549316,384.82374000549316,384.82374000549316,384.82374000549316,391.75925040245056,3,7.082814931869507,None,,,,,,,,,,,,,,,,,,117,1,2025-02-25_15h07.57.762,comp,2024.2.4,59.62798473725214,2025-02-25 15h08.07.977453 -0500,
101,101,0,critical,hdw,20.0,1.0,upper,200.0,125.0,141.0,141.0,125.0,200.0,1,2.0660104751586914,None,,,,,0,0,0,0,0,101,101,115,391.77543687820435,,,,,,,,,,,,,,,,,,,,,,,,,,,,,,,,,,,,,,,,,,,,,,,,,,,,,,,,,,,,,,,,,,,,,,,,,,,,,,,,,200.0,125.0,141.0,141.0,125.0,200.0,1.0,1.3,251,-251,480,-255,746,-276,391.7609896659851,391.7611002922058,391.76449394226074,391.77543687820435,391.92689085006714,391.92689085006714,391.92689085006714,391.92689085006714,391.92689085006714,391.92689085006714,391.92689085006714,393.85952615737915,1,2.0660104751586914,None,,,,,,,,,,,,,,,,,,117,1,2025-02-25_15h07.57.762,comp,2024.2.4,59.62798473725214,2025-02-25 15h08.07.977453 -0500,
102,102,0,filler_square,None,None,None,None,None,None,None,None,None,None,3,1.662351131439209,None,,,,,0,0,0,0,0,102,102,182,393.8761031627655,,,,,,,,,,,,,,,,,,,,,,,,,,,,,,,,,,,,,,,,,,,,,,,,,,,,,,,,,,,,,,,,,,,,,,,,,,,,,,,,,78.94444012577127,73.0083344329023,68.72535723378303,65.45153492142036,89.59580094042187,89.59580094042187,2.1,2.11,-165,279,0,254,174,-288,393.86139726638794,393.8615348339081,393.8647999763489,393.8761031627655,394.0265164375305,394.0265164375305,394.0265164375305,394.0265164375305,394.0265164375305,394.0265164375305,394.0265164375305,395.54473090171814,3,1.662351131439209,None,,,,,,,,,,,,,,,,,,117,1,2025-02-25_15h07.57.762,comp,2024.2.4,59.62798473725214,2025-02-25 15h08.07.977453 -0500,
103,103,0,critical,hwd,20.0,2.1,lower,133.0,57.0,57.0,133.0,78.0,78.0,2,4.64098334312439,None,,,,,0,0,0,0,0,103,103,18,395.56130146980286,,,,,,,,,,,,,,,,,,,,,,,,,,,,,,,,,,,,,,,,,,,,,,,,,,,,,,,,,,,,,,,,,,,,,,,,,,,,,,,,,133.0,57.0,57.0,133.0,78.0,78.0,2.1,2.12,-191,-270,0,-261,202,286,395.5462918281555,395.5463945865631,395.54967999458313,395.56130146980286,395.7070758342743,395.7070758342743,395.7070758342743,395.7070758342743,395.7070758342743,395.7070758342743,395.7070758342743,400.2103478908539,2,4.64098334312439,None,,,,,,,,,,,,,,,,,,117,1,2025-02-25_15h07.57.762,comp,2024.2.4,59.62798473725214,2025-02-25 15h08.07.977453 -0500,
104,104,0,critical,dhw,20.0,3.0,upper,141.0,141.0,200.0,125.0,125.0,200.0,3,7.142746210098267,None,,,,,0,0,0,0,0,104,104,57,400.226854801178,,,,,,,,,,,,,,,,,,,,,,,,,,,,,,,,,,,,,,,,,,,,,,,,,,,,,,,,,,,,,,,,,,,,,,,,,,,,,,,,,141.0,141.0,200.0,125.0,125.0,200.0,3.0,3.1,-229,269,0,-19,258,-267,400.21194529533386,400.21202301979065,400.2151429653168,400.226854801178,400.3825843334198,400.3825843334198,400.3825843334198,400.3825843334198,400.3825843334198,400.3825843334198,400.3825843334198,407.3885579109192,3,7.142746210098267,None,,,,,,,,,,,,,,,,,,117,1,2025-02-25_15h07.57.762,comp,2024.2.4,59.62798473725214,2025-02-25 15h08.07.977453 -0500,
105,105,0,critical,hwd,20.0,3.0,lower,133.0,57.0,57.0,133.0,78.0,78.0,2,3.186445713043213,None,,,,,0,0,0,0,0,105,105,104,407.40768933296204,,,,,,,,,,,,,,,,,,,,,,,,,,,,,,,,,,,,,,,,,,,,,,,,,,,,,,,,,,,,,,,,,,,,,,,,,,,,,,,,,133.0,57.0,57.0,133.0,78.0,78.0,3.0,3.2,-191,-251,0,1,202,255,407.3901295661926,407.3902096748352,407.393492937088,407.40768933296204,407.5474920272827,407.5474920272827,407.5474920272827,407.5474920272827,407.5474920272827,407.5474920272827,407.5474920272827,410.60332703590393,2,3.186445713043213,None,,,,,,,,,,,,,,,,,,117,1,2025-02-25_15h07.57.762,comp,2024.2.4,59.62798473725214,2025-02-25 15h08.07.977453 -0500,
106,106,0,critical,dhw,35.0,2.1,lower,70.0,70.0,133.0,57.0,57.0,133.0,3,2.1459290981292725,None,,,,,0,0,0,0,0,106,106,0,410.6237599849701,,,,,,,,,,,,,,,,,,,,,,,,,,,,,,,,,,,,,,,,,,,,,,,,,,,,,,,,,,,,,,,,,,,,,,,,,,,,,,,,,70.0,70.0,133.0,57.0,57.0,133.0,2.1,2.12,-160,-286,0,-282,191,286,410.60489678382874,410.6049757003784,410.60823917388916,410.6237599849701,410.7652916908264,410.7652916908264,410.7652916908264,410.7652916908264,410.7652916908264,410.7652916908264,410.7652916908264,412.7841987609863,3,2.1459290981292725,None,,,,,,,,,,,,,,,,,,117,1,2025-02-25_15h07.57.762,comp,2024.2.4,59.62798473725214,2025-02-25 15h08.07.977453 -0500,
107,107,0,filler_square,None,None,None,None,None,None,None,None,None,None,1,1.6499950885772705,None,,,,,0,0,0,0,0,107,107,208,412.79960775375366,,,,,,,,,,,,,,,,,,,,,,,,,,,,,,,,,,,,,,,,,,,,,,,,,,,,,,,,,,,,,,,,,,,,,,,,,,,,,,,,,106.5978830117323,106.5978830117323,84.54872294223986,84.20518250728618,63.85633125613656,68.29599144025153,4.0,4.1,-191,-286,0,15,172,-253,412.78604769706726,412.7861273288727,412.7890980243683,412.79960775375366,412.9478876590729,412.9478876590729,412.9478876590729,412.9478876590729,412.9478876590729,412.9478876590729,412.9478876590729,414.4524462223053,1,1.6499950885772705,None,,,,,,,,,,,,,,,,,,117,1,2025-02-25_15h07.57.762,comp,2024.2.4,59.62798473725214,2025-02-25 15h08.07.977453 -0500,
108,108,0,catch,None,None,None,None,None,None,None,None,None,None,2,1.1695456504821777,None,,,,,0,0,0,0,0,108,108,129,414.47194242477417,,,,,,,,,,,,,,,,,,,,,,,,,,,,,,,,,,,,,,,,,,,,,,,,,,,,,,,,,,,,,,,,,,,,,,,,,,,,,,,,,65,125,138,187,82,108,3.0,3.1,-252,276,0,-1,244,-251,414.45439100265503,414.454473733902,414.4573359489441,414.47194242477417,414.6147553920746,414.6147553920746,414.6147553920746,414.6147553920746,414.6147553920746,414.6147553920746,414.6147553920746,415.6530508995056,2,1.1695456504821777,None,,,,,,,,,,,,,,,,,,117,1,2025-02-25_15h07.57.762,comp,2024.2.4,59.62798473725214,2025-02-25 15h08.07.977453 -0500,
109,109,0,filler_square,None,None,None,None,None,None,None,None,None,None,3,1.0123050212860107,None,,,,,0,0,0,0,0,109,109,185,415.66920375823975,,,,,,,,,,,,,,,,,,,,,,,,,,,,,,,,,,,,,,,,,,,,,,,,,,,,,,,,,,,,,,,,,,,,,,,,,,,,,,,,,159.35440776512007,105.9779471092472,84.80358731177635,81.30009091837498,162.14557029273027,162.14557029273027,4.0,4.2,-190,12,0,-272,218,16,415.65498638153076,415.65507078170776,415.65833020210266,415.66920375823975,415.81586742401123,415.81586742401123,415.81586742401123,415.81586742401123,415.81586742401123,415.81586742401123,415.81586742401123,416.6943144798279,3,1.0123050212860107,None,,,,,,,,,,,,,,,,,,117,1,2025-02-25_15h07.57.762,comp,2024.2.4,59.62798473725214,2025-02-25 15h08.07.977453 -0500,
110,110,0,critical,wdh,20.0,3.0,upper,125.0,200.0,141.0,141.0,200.0,125.0,1,2.6271321773529053,None,,,,,0,0,0,0,0,110,110,81,416.71071910858154,,,,,,,,,,,,,,,,,,,,,,,,,,,,,,,,,,,,,,,,,,,,,,,,,,,,,,,,,,,,,,,,,,,,,,,,,,,,,,,,,125.0,200.0,141.0,141.0,200.0,125.0,3.0,3.1,-266,273,0,-14,229,-272,416.6958873271942,416.6959638595581,416.6991755962372,416.71071910858154,416.8505485057831,416.8505485057831,416.8505485057831,416.8505485057831,416.8505485057831,416.8505485057831,416.8505485057831,419.34116077423096,1,2.6271321773529053,None,,,,,,,,,,,,,,,,,,117,1,2025-02-25_15h07.57.762,comp,2024.2.4,59.62798473725214,2025-02-25 15h08.07.977453 -0500,
111,111,0,critical,wdh,20.0,1.0,lower,57.0,133.0,78.0,78.0,133.0,57.0,1,1.9078831672668457,None,,,,,0,0,0,0,0,111,111,78,419.3578178882599,,,,,,,,,,,,,,,,,,,,,,,,,,,,,,,,,,,,,,,,,,,,,,,,,,,,,,,,,,,,,,,,,,,,,,,,,,,,,,,,,57.0,133.0,78.0,78.0,133.0,57.0,1.0,1.1,-682,276,-480,262,-316,252,419.3428122997284,419.3428921699524,419.3460829257965,419.3578178882599,419.5015935897827,419.5015935897827,419.5015935897827,419.5015935897827,419.5015935897827,419.5015935897827,419.5015935897827,421.27242517471313,1,1.9078831672668457,None,,,,,,,,,,,,,,,,,,117,1,2025-02-25_15h07.57.762,comp,2024.2.4,59.62798473725214,2025-02-25 15h08.07.977453 -0500,
112,112,0,critical,whd,20.0,4.0,upper,125.0,200.0,200.0,125.0,141.0,141.0,1,5.2606730461120605,None,,,,,0,0,0,0,0,112,112,95,421.292813539505,,,,,,,,,,,,,,,,,,,,,,,,,,,,,,,,,,,,,,,,,,,,,,,,,,,,,,,,,,,,,,,,,,,,,,,,,,,,,,,,,125.0,200.0,200.0,125.0,141.0,141.0,4.0,4.2,-258,-19,0,-280,229,11,421.2738559246063,421.27393531799316,421.27702808380127,421.292813539505,421.4343988895416,421.4343988895416,421.4343988895416,421.4343988895416,421.4343988895416,421.4343988895416,421.4343988895416,426.5696666240692,1,5.2606730461120605,None,,,,,,,,,,,,,,,,,,117,1,2025-02-25_15h07.57.762,comp,2024.2.4,59.62798473725214,2025-02-25 15h08.07.977453 -0500,
113,113,0,filler_square,None,None,None,None,None,None,None,None,None,None,1,1.66050124168396,None,,,,,0,0,0,0,0,113,113,194,426.5891070365906,,,,,,,,,,,,,,,,,,,,,,,,,,,,,,,,,,,,,,,,,,,,,,,,,,,,,,,,,,,,,,,,,,,,,,,,,,,,,,,,,160.2316806677008,160.2316806677008,64.4203481206847,81.30450594460847,133.45140309159777,83.60182331118665,2.1,2.12,-217,-270,0,-271,178,279,426.571400642395,426.5714852809906,426.57456493377686,426.5891070365906,426.73764395713806,426.73764395713806,426.73764395713806,426.73764395713806,426.73764395713806,426.73764395713806,426.73764395713806,428.2550253868103,1,1.66050124168396,None,,,,,,,,,,,,,,,,,,117,1,2025-02-25_15h07.57.762,comp,2024.2.4,59.62798473725214,2025-02-25 15h08.07.977453 -0500,
114,114,0,filler_square,None,None,None,None,None,None,None,None,None,None,1,1.0802767276763916,None,,,,,0,0,0,0,0,114,114,179,428.2732675075531,,,,,,,,,,,,,,,,,,,,,,,,,,,,,,,,,,,,,,,,,,,,,,,,,,,,,,,,,,,,,,,,,,,,,,,,,,,,,,,,,176.1528852089943,176.1528852089943,62.01011378239982,160.11924584037376,124.24429382555014,158.70658385858007,2.1,2.12,-264,-288,0,-260,255,279,428.25685453414917,428.25698494911194,428.25990200042725,428.2732675075531,428.41640400886536,428.41640400886536,428.41640400886536,428.41640400886536,428.41640400886536,428.41640400886536,428.41640400886536,429.37079405784607,1,1.0802767276763916,None,,,,,,,,,,,,,,,,,,117,1,2025-02-25_15h07.57.762,comp,2024.2.4,59.62798473725214,2025-02-25 15h08.07.977453 -0500,
115,115,0,critical,dwh,35.0,2.1,upper,127.0,127.0,125.0,200.0,200.0,125.0,2,1.5757043361663818,None,,,,,0,0,0,0,0,115,115,29,429.38603377342224,,,,,,,,,,,,,,,,,,,,,,,,,,,,,,,,,,,,,,,,,,,,,,,,,,,,,,,,,,,,,,,,,,,,,,,,,,,,,,,,,127.0,127.0,125.0,200.0,200.0,125.0,2.1,2.11,-260,281,0,250,258,-254,429.37230014801025,429.37240052223206,429.3757526874542,429.38603377342224,429.5386526584625,429.5386526584625,429.5386526584625,429.5386526584625,429.5386526584625,429.5386526584625,429.5386526584625,430.9638195037842,2,1.5757043361663818,None,,,,,,,,,,,,,,,,,,117,1,2025-02-25_15h07.57.762,comp,2024.2.4,59.62798473725214,2025-02-25 15h08.07.977453 -0500,
116,116,0,critical,wdh,20.0,3.0,lower,57.0,133.0,78.0,78.0,133.0,57.0,1,2.0784084796905518,None,,,,,0,0,0,0,0,116,116,80,430.9791295528412,,,,,,,,,,,,,,,,,,,,,,,,,,,,,,,,,,,,,,,,,,,,,,,,,,,,,,,,,,,,,,,,,,,,,,,,,,,,,,,,,57.0,133.0,78.0,78.0,133.0,57.0,3.0,3.2,-202,-252,0,9,164,254,430.96527910232544,430.9653582572937,430.9681522846222,430.9791295528412,431.12199449539185,431.12199449539185,431.12199449539185,431.12199449539185,431.12199449539185,431.12199449539185,431.12199449539185,433.0737898349762,1,2.0784084796905518,None,,,,,,,,,,,,,,,,,,117,1,2025-02-25_15h07.57.762,comp,2024.2.4,59.62798473725214,2025-02-25 15h08.07.977453 -0500,
117,117,0,filler_square,None,None,None,None,None,None,None,None,None,None,3,1.718207836151123,None,,,,,0,0,0,0,0,117,117,174,433.09141087532043,,,,,,,,,,,,,,,,,,,,,,,,,,,,,,,,,,,,,,,,,,,,,,,,,,,,,,,,,,,,,,,,,,,,,,,,,,,,,,,,,106.5133636387528,88.97532522917325,113.78008509409662,75.54319525971948,116.86119789683615,116.86119789683615,4.0,4.2,-178,-3,0,-266,192,-10,433.0756230354309,433.07570242881775,433.078590631485,433.09141087532043,433.23921036720276,433.23921036720276,433.23921036720276,433.23921036720276,433.23921036720276,433.23921036720276,433.23921036720276,434.82504987716675,3,1.718207836151123,None,,,,,,,,,,,,,,,,,,117,1,2025-02-25_15h07.57.762,comp,2024.2.4,59.62798473725214,2025-02-25 15h08.07.977453 -0500,
118,118,0,critical,hwd,35.0,3.0,lower,133.0,57.0,57.0,133.0,70.0,70.0,2,1.9608583450317383,None,,,,,0,0,0,0,0,118,118,98,434.841046333313,,,,,,,,,,,,,,,,,,,,,,,,,,,,,,,,,,,,,,,,,,,,,,,,,,,,,,,,,,,,,,,,,,,,,,,,,,,,,,,,,133.0,57.0,57.0,133.0,70.0,70.0,3.0,3.2,-191,-278,0,9,198,257,434.8267982006073,434.8268759250641,434.8299341201782,434.841046333313,434.9892008304596,434.9892008304596,434.9892008304596,434.9892008304596,434.9892008304596,434.9892008304596,434.9892008304596,436.80891036987305,2,1.9608583450317383,None,,,,,,,,,,,,,,,,,,117,1,2025-02-25_15h07.57.762,comp,2024.2.4,59.62798473725214,2025-02-25 15h08.07.977453 -0500,
119,119,0,filler_square,None,None,None,None,None,None,None,None,None,None,3,1.3578028678894043,None,,,,,0,0,0,0,0,119,119,186,436.8288378715515,,,,,,,,,,,,,,,,,,,,,,,,,,,,,,,,,,,,,,,,,,,,,,,,,,,,,,,,,,,,,,,,,,,,,,,,,,,,,,,,,93.71016226437291,75.99533784666524,98.1089242861591,82.88288298861481,99.88126946042067,99.88126946042067,2.1,2.11,-175,252,0,280,187,-258,436.81112599372864,436.8112585544586,436.81418228149414,436.8288378715515,436.97387886047363,436.97387886047363,436.97387886047363,436.97387886047363,436.97387886047363,436.97387886047363,436.97387886047363,438.19283390045166,3,1.3578028678894043,None,,,,,,,,,,,,,,,,,,117,1,2025-02-25_15h07.57.762,comp,2024.2.4,59.62798473725214,2025-02-25 15h08.07.977453 -0500,
120,120,0,critical,dhw,35.0,2.1,lower,70.0,70.0,133.0,57.0,57.0,133.0,3,6.71966814994812,None,,,,,0,0,0,0,0,120,120,24,438.20984959602356,,,,,,,,,,,,,,,,,,,,,,,,,,,,,,,,,,,,,,,,,,,,,,,,,,,,,,,,,,,,,,,,,,,,,,,,,,,,,,,,,70.0,70.0,133.0,57.0,57.0,133.0,2.1,2.12,-160,-256,0,-282,191,284,438.1945641040802,438.1946449279785,438.19854974746704,438.20984959602356,438.36051750183105,438.36051750183105,438.36051750183105,438.36051750183105,438.36051750183105,438.36051750183105,438.36051750183105,444.9454777240753,3,6.71966814994812,None,,,,,,,,,,,,,,,,,,117,1,2025-02-25_15h07.57.762,comp,2024.2.4,59.62798473725214,2025-02-25 15h08.07.977453 -0500,
121,121,0,filler_square,None,None,None,None,None,None,None,None,None,None,2,1.2566862106323242,None,,,,,0,0,0,0,0,121,121,183,444.9612901210785,,,,,,,,,,,,,,,,,,,,,,,,,,,,,,,,,,,,,,,,,,,,,,,,,,,,,,,,,,,,,,,,,,,,,,,,,,,,,,,,,84.20387697359902,97.11466727696842,159.1576739035858,159.1576739035858,115.21674592272075,118.91869922356352,2.2,2.22,-224,269,0,-274,235,-268,444.9474847316742,444.94756388664246,444.95092034339905,444.9612901210785,445.1086072921753,445.1086072921753,445.1086072921753,445.1086072921753,445.1086072921753,445.1086072921753,445.1086072921753,446.2263379096985,2,1.2566862106323242,None,,,,,,,,,,,,,,,,,,117,1,2025-02-25_15h07.57.762,comp,2024.2.4,59.62798473725214,2025-02-25 15h08.07.977453 -0500,
122,122,0,critical,whd,35.0,2.1,lower,57.0,133.0,133.0,57.0,70.0,70.0,1,6.378117084503174,None,,,,,0,0,0,0,0,122,122,12,446.2406253814697,,,,,,,,,,,,,,,,,,,,,,,,,,,,,,,,,,,,,,,,,,,,,,,,,,,,,,,,,,,,,,,,,,,,,,,,,,,,,,,,,57.0,133.0,133.0,57.0,70.0,70.0,2.1,2.11,-191,273,0,270,160,-257,446.2279574871063,446.22803592681885,446.23123359680176,446.2406253814697,446.3924551010132,446.3924551010132,446.3924551010132,446.3924551010132,446.3924551010132,446.3924551010132,446.3924551010132,452.62930178642273,1,6.378117084503174,None,,,,,,,,,,,,,,,,,,117,1,2025-02-25_15h07.57.762,comp,2024.2.4,59.62798473725214,2025-02-25 15h08.07.977453 -0500,
123,123,0,filler_random,None,None,None,None,None,None,None,None,None,None,2,1.5959703922271729,None,,,,,0,0,0,0,0,123,123,151,452.64577054977417,,,,,,,,,,,,,,,,,,,,,,,,,,,,,,,,,,,,,,,,,,,,,,,,,,,,,,,,,,,,,,,,,,,,,,,,,,,,,,,,,91.44941455513643,174.99630743681269,183.13512437632588,140.77508951288553,103.3494998394658,176.1015234253132,3.0,3.1,-254,275,0,0,254,-278,452.6310148239136,452.6311264038086,452.6349365711212,452.64577054977417,452.79724073410034,452.79724073410034,452.79724073410034,452.79724073410034,452.79724073410034,452.79724073410034,452.79724073410034,454.2452747821808,2,1.5959703922271729,None,,,,,,,,,,,,,,,,,,117,1,2025-02-25_15h07.57.762,comp,2024.2.4,59.62798473725214,2025-02-25 15h08.07.977453 -0500,
124,124,0,critical,dwh,20.0,4.0,upper,141.0,141.0,125.0,200.0,200.0,125.0,2,3.172682285308838,None,,,,,0,0,0,0,0,124,124,71,454.2617075443268,,,,,,,,,,,,,,,,,,,,,,,,,,,,,,,,,,,,,,,,,,,,,,,,,,,,,,,,,,,,,,,,,,,,,,,,,,,,,,,,,141.0,141.0,125.0,200.0,200.0,125.0,4.0,4.2,-266,10,0,-266,258,7,454.24681854248047,454.24689841270447,454.2508933544159,454.2617075443268,454.41323947906494,454.41323947906494,454.41323947906494,454.41323947906494,454.41323947906494,454.41323947906494,454.41323947906494,457.45572662353516,2,3.172682285308838,None,,,,,,,,,,,,,,,,,,117,1,2025-02-25_15h07.57.762,comp,2024.2.4,59.62798473725214,2025-02-25 15h08.07.977453 -0500,
125,125,0,filler_random,None,None,None,None,None,None,None,None,None,None,2,1.1602351665496826,None,,,,,0,0,0,0,0,125,125,156,457.47345089912415,,,,,,,,,,,,,,,,,,,,,,,,,,,,,,,,,,,,,,,,,,,,,,,,,,,,,,,,,,,,,,,,,,,,,,,,,,,,,,,,,78.35861379356962,102.72411143466019,196.04508111625867,159.72445858594585,113.29668587116157,133.62472283827574,4.0,4.2,-227,17,0,-271,243,6,457.4575021266937,457.45762300491333,457.46078300476074,457.47345089912415,457.61406421661377,457.61406421661377,457.61406421661377,457.61406421661377,457.61406421661377,457.61406421661377,457.61406421661377,458.6479902267456,2,1.1602351665496826,None,,,,,,,,,,,,,,,,,,117,1,2025-02-25_15h07.57.762,comp,2024.2.4,59.62798473725214,2025-02-25 15h08.07.977453 -0500,
126,126,0,critical,hwd,20.0,2.1,lower,133.0,57.0,57.0,133.0,78.0,78.0,2,4.058776140213013,None,,,,,0,0,0,0,0,126,126,42,458.663209438324,,,,,,,,,,,,,,,,,,,,,,,,,,,,,,,,,,,,,,,,,,,,,,,,,,,,,,,,,,,,,,,,,,,,,,,,,,,,,,,,,133.0,57.0,57.0,133.0,78.0,78.0,2.1,2.11,-191,265,0,260,202,-269,458.6494686603546,458.6495451927185,458.65282917022705,458.663209438324,458.81438875198364,458.81438875198364,458.81438875198364,458.81438875198364,458.81438875198364,458.81438875198364,458.81438875198364,462.73161029815674,2,4.058776140213013,None,,,,,,,,,,,,,,,,,,117,1,2025-02-25_15h07.57.762,comp,2024.2.4,59.62798473725214,2025-02-25 15h08.07.977453 -0500,
127,127,0,catch,None,None,None,None,None,None,None,None,None,None,1,1.4534878730773926,None,,,,,0,0,0,0,0,127,127,124,462.74827432632446,,,,,,,,,,,,,,,,,,,,,,,,,,,,,,,,,,,,,,,,,,,,,,,,,,,,,,,,,,,,,,,,,,,,,,,,,,,,,,,,,182,143,78,112,76,114,2.1,2.12,-224,-268,0,-284,209,278,462.73342657089233,462.7335066795349,462.7367527484894,462.74827432632446,462.8938925266266,462.8938925266266,462.8938925266266,462.8938925266266,462.8938925266266,462.8938925266266,462.8938925266266,464.21941447257996,1,1.4534878730773926,None,,,,,,,,,,,,,,,,,,117,1,2025-02-25_15h07.57.762,comp,2024.2.4,59.62798473725214,2025-02-25 15h08.07.977453 -0500,
128,128,0,critical,whd,35.0,2.1,upper,125.0,200.0,200.0,125.0,127.0,127.0,2,3.3835132122039795,None,,,,,0,0,0,0,0,128,128,13,464.2341077327728,,,,,,,,,,,,,,,,,,,,,,,,,,,,,,,,,,,,,,,,,,,,,,,,,,,,,,,,,,,,,,,,,,,,,,,,,,,,,,,,,125.0,200.0,200.0,125.0,127.0,127.0,2.1,2.11,-258,281,0,274,222,-280,464.22096371650696,464.22104144096375,464.2238521575928,464.2341077327728,464.38201689720154,464.38201689720154,464.38201689720154,464.38201689720154,464.38201689720154,464.38201689720154,464.38201689720154,467.635803937912,2,3.3835132122039795,None,,,,,,,,,,,,,,,,,,117,1,2025-02-25_15h07.57.762,comp,2024.2.4,59.62798473725214,2025-02-25 15h08.07.977453 -0500,
129,129,0,filler_random,None,None,None,None,None,None,None,None,None,None,3,4.425689458847046,None,,,,,0,0,0,0,0,129,129,145,467.65598034858704,,,,,,,,,,,,,,,,,,,,,,,,,,,,,,,,,,,,,,,,,,,,,,,,,,,,,,,,,,,,,,,,,,,,,,,,,,,,,,,,,60.24054070220537,122.78127702090825,186.48086357153923,116.01488973961759,158.11534443238162,152.35819651268662,1.0,1.3,265,-266,480,-283,710,-254,467.63747787475586,467.6375849246979,467.64063119888306,467.65598034858704,467.8001616001129,467.8001616001129,467.8001616001129,467.8001616001129,467.8001616001129,467.8001616001129,467.8001616001129,472.0841574668884,3,4.425689458847046,None,,,,,,,,,,,,,,,,,,117,1,2025-02-25_15h07.57.762,comp,2024.2.4,59.62798473725214,2025-02-25 15h08.07.977453 -0500,
130,130,0,filler_random,None,None,None,None,None,None,None,None,None,None,1,1.421560525894165,None,,,,,0,0,0,0,0,130,130,161,472.1001799106598,,,,,,,,,,,,,,,,,,,,,,,,,,,,,,,,,,,,,,,,,,,,,,,,,,,,,,,,,,,,,,,,,,,,,,,,,,,,,,,,,153.00455080837128,198.0631901086503,148.18852827931684,99.15542905814225,154.36472478504476,96.66362218820586,4.0,4.2,-245,13,0,-286,194,18,472.08583641052246,472.08597111701965,472.08929681777954,472.1001799106598,472.25457096099854,472.25457096099854,472.25457096099854,472.25457096099854,472.25457096099854,472.25457096099854,472.25457096099854,473.5244343280792,1,1.421560525894165,None,,,,,,,,,,,,,,,,,,117,1,2025-02-25_15h07.57.762,comp,2024.2.4,59.62798473725214,2025-02-25 15h08.07.977453 -0500,
131,131,0,critical,wdh,35.0,4.0,upper,125.0,200.0,127.0,127.0,200.0,125.0,3,3.09067964553833,None,,,,,0,0,0,0,0,131,131,77,473.54365134239197,,,,,,,,,,,,,,,,,,,,,,,,,,,,,,,,,,,,,,,,,,,,,,,,,,,,,,,,,,,,,,,,,,,,,,,,,,,,,,,,,125.0,200.0,127.0,127.0,200.0,125.0,4.0,4.2,-260,-12,0,-290,222,-6,473.5258963108063,473.5259747505188,473.5288140773773,473.54365134239197,473.6866946220398,473.6866946220398,473.6866946220398,473.6866946220398,473.6866946220398,473.6866946220398,473.6866946220398,476.65245962142944,3,3.09067964553833,None,,,,,,,,,,,,,,,,,,117,1,2025-02-25_15h07.57.762,comp,2024.2.4,59.62798473725214,2025-02-25 15h08.07.977453 -0500,
132,132,0,critical,hwd,20.0,4.0,upper,200.0,125.0,125.0,200.0,141.0,141.0,1,2.6539146900177,None,,,,,0,0,0,0,0,132,132,107,476.66767930984497,,,,,,,,,,,,,,,,,,,,,,,,,,,,,,,,,,,,,,,,,,,,,,,,,,,,,,,,,,,,,,,,,,,,,,,,,,,,,,,,,200.0,125.0,125.0,200.0,141.0,141.0,4.0,4.2,-258,-2,0,-273,266,-12,476.6539828777313,476.65406227111816,476.65743136405945,476.66767930984497,476.8194537162781,476.8194537162781,476.8194537162781,476.8194537162781,476.8194537162781,476.8194537162781,476.8194537162781,479.33601570129395,1,2.6539146900177,None,,,,,,,,,,,,,,,,,,117,1,2025-02-25_15h07.57.762,comp,2024.2.4,59.62798473725214,2025-02-25 15h08.07.977453 -0500,
133,133,0,critical,hdw,35.0,4.0,lower,133.0,57.0,70.0,70.0,57.0,133.0,3,2.4503986835479736,None,,,,,0,0,0,0,0,133,133,112,479.35130405426025,,,,,,,,,,,,,,,,,,,,,,,,,,,,,,,,,,,,,,,,,,,,,,,,,,,,,,,,,,,,,,,,,,,,,,,,,,,,,,,,,133.0,57.0,70.0,70.0,57.0,133.0,4.0,4.1,-160,-283,0,-1,198,-288,479.33746552467346,479.3375418186188,479.34052062034607,479.35130405426025,479.50575256347656,479.50575256347656,479.50575256347656,479.50575256347656,479.50575256347656,479.50575256347656,479.50575256347656,481.80677556991577,3,2.4503986835479736,None,,,,,,,,,,,,,,,,,,117,1,2025-02-25_15h07.57.762,comp,2024.2.4,59.62798473725214,2025-02-25 15h08.07.977453 -0500,
134,134,0,filler_square,None,None,None,None,None,None,None,None,None,None,3,3.0728819370269775,None,,,,,0,0,0,0,0,134,134,205,481.82534670829773,,,,,,,,,,,,,,,,,,,,,,,,,,,,,,,,,,,,,,,,,,,,,,,,,,,,,,,,,,,,,,,,,,,,,,,,,,,,,,,,,58.798258247372665,58.443076345822945,59.373008242718264,57.872450825321245,61.74557507702359,61.74557507702359,4.0,4.1,-154,-278,0,-17,156,-281,481.808465719223,481.80854535102844,481.81144309043884,481.82534670829773,481.9685788154602,481.9685788154602,481.9685788154602,481.9685788154602,481.9685788154602,481.9685788154602,481.9685788154602,484.90780544281006,3,3.0728819370269775,None,,,,,,,,,,,,,,,,,,117,1,2025-02-25_15h07.57.762,comp,2024.2.4,59.62798473725214,2025-02-25 15h08.07.977453 -0500,
135,135,0,critical,dwh,35.0,2.1,lower,70.0,70.0,57.0,133.0,133.0,57.0,2,5.038305282592773,None,,,,,0,0,0,0,0,135,135,28,484.9234025478363,,,,,,,,,,,,,,,,,,,,,,,,,,,,,,,,,,,,,,,,,,,,,,,,,,,,,,,,,,,,,,,,,,,,,,,,,,,,,,,,,70.0,70.0,57.0,133.0,133.0,57.0,2.1,2.11,-198,271,0,255,191,-265,484.90941405296326,484.9094948768616,484.9126100540161,484.9234025478363,485.0721538066864,485.0721538066864,485.0721538066864,485.0721538066864,485.0721538066864,485.0721538066864,485.0721538066864,489.9796373844147,2,5.038305282592773,None,,,,,,,,,,,,,,,,,,117,1,2025-02-25_15h07.57.762,comp,2024.2.4,59.62798473725214,2025-02-25 15h08.07.977453 -0500,
136,136,0,filler_random,None,None,None,None,None,None,None,None,None,None,1,2.4471559524536133,None,,,,,0,0,0,0,0,136,136,139,489.994500875473,,,,,,,,,,,,,,,,,,,,,,,,,,,,,,,,,,,,,,,,,,,,,,,,,,,,,,,,,,,,,,,,,,,,,,,,,,,,,,,,,98.13493597487565,96.35560551340787,86.3644587664875,71.19760237975939,68.30240055644904,159.00377717137314,4.0,4.1,-180,-272,0,1,211,-272,489.9812500476837,489.98132705688477,489.9841351509094,489.994500875473,490.1393566131592,490.1393566131592,490.1393566131592,490.1393566131592,490.1393566131592,490.1393566131592,490.1393566131592,492.45607018470764,1,2.4471559524536133,None,,,,,,,,,,,,,,,,,,117,1,2025-02-25_15h07.57.762,comp,2024.2.4,59.62798473725214,2025-02-25 15h08.07.977453 -0500,
137,137,0,critical,dwh,35.0,3.0,upper,127.0,127.0,125.0,200.0,200.0,125.0,3,2.0261926651000977,None,,,,,0,0,0,0,0,137,137,63,492.4721999168396,,,,,,,,,,,,,,,,,,,,,,,,,,,,,,,,,,,,,,,,,,,,,,,,,,,,,,,,,,,,,,,,,,,,,,,,,,,,,,,,,127.0,127.0,125.0,200.0,200.0,125.0,3.0,3.2,-260,-284,0,1,258,253,492.457612991333,492.45768904685974,492.46084904670715,492.4721999168396,492.6213490962982,492.6213490962982,492.6213490962982,492.6213490962982,492.6213490962982,492.6213490962982,492.6213490962982,494.5065543651581,3,2.0261926651000977,None,,,,,,,,,,,,,,,,,,117,1,2025-02-25_15h07.57.762,comp,2024.2.4,59.62798473725214,2025-02-25 15h08.07.977453 -0500,
138,138,0,filler_random,None,None,None,None,None,None,None,None,None,None,2,1.6612703800201416,None,,,,,0,0,0,0,0,138,138,135,494.52448296546936,,,,,,,,,,,,,,,,,,,,,,,,,,,,,,,,,,,,,,,,,,,,,,,,,,,,,,,,,,,,,,,,,,,,,,,,,,,,,,,,,123.61129787643965,165.42705031721698,192.89617362903454,147.4268714684827,109.71506275816077,129.68296415362437,1.0,1.1,-732,267,-480,273,-245,264,494.50821113586426,494.5082919597626,494.51121759414673,494.52448296546936,494.6817409992218,494.6817409992218,494.6817409992218,494.6817409992218,494.6817409992218,494.6817409992218,494.6817409992218,496.1889169216156,2,1.6612703800201416,None,,,,,,,,,,,,,,,,,,117,1,2025-02-25_15h07.57.762,comp,2024.2.4,59.62798473725214,2025-02-25 15h08.07.977453 -0500,
139,139,0,filler_random,None,None,None,None,None,None,None,None,None,None,3,1.5480551719665527,None,,,,,0,0,0,0,0,139,139,154,496.20570373535156,,,,,,,,,,,,,,,,,,,,,,,,,,,,,,,,,,,,,,,,,,,,,,,,,,,,,,,,,,,,,,,,,,,,,,,,,,,,,,,,,170.58345982921531,87.44123756204883,140.62132094002817,101.16110153096812,167.97984135526912,180.26763473682433,4.0,4.1,-190,-265,0,6,237,-261,496.1907887458801,496.1908881664276,496.19402837753296,496.20570373535156,496.3460874557495,496.3460874557495,496.3460874557495,496.3460874557495,496.3460874557495,496.3460874557495,496.3460874557495,497.7667245864868,3,1.5480551719665527,None,,,,,,,,,,,,,,,,,,117,1,2025-02-25_15h07.57.762,comp,2024.2.4,59.62798473725214,2025-02-25 15h08.07.977453 -0500,
