thisN,thisTrialN,thisRepN,effect,order,distance,config,diag,h_1,w_1,h_2,w_2,h_3,w_3,rect_choice.keys,rect_choice.rt,rect_choice.duration,instructions_loop.thisRepN,instructions_loop.thisTrialN,instructions_loop.thisN,instructions_loop.thisIndex,blocks.thisRepN,blocks.thisTrialN,blocks.thisN,blocks.thisIndex,trials.thisRepN,trials.thisTrialN,trials.thisN,trials.thisIndex,thisRow.t,notes,consent.started,agree_button.started,decline_button.started,consent_img.started,mouse.started,consent.stopped,agree_button.numClicks,agree_button.timesOn,agree_button.timesOff,decline_button.numClicks,decline_button.timesOn,decline_button.timesOff,mouse.x,mouse.y,mouse.leftButton,mouse.midButton,mouse.rightButton,mouse.time,mouse.clicked_name,exp_params.started,exp_params.stopped,welcome.started,welcome_text.started,welcome.stopped,instructions_1.started,instructions_1_text_1.started,instructions_1_text_2.started,key_resp.started,instructions_1.stopped,instructions_loop.key_resp.keys,instructions_loop.key_resp.rt,instructions_loop.key_resp.duration,instructions_2.started,instructions_2_text_1.started,instructions_2_text_2.started,key_resp_2.started,instructions_2.stopped,instructions_loop.key_resp_2.keys,instructions_loop.key_resp_2.rt,instructions_loop.key_resp_2.duration,instructions_3.started,instructions_3_text_1.started,r1_instr3.started,r2_instr3.started,r3_instr3.started,r1_instr3_label.started,r2_instr3_label.started,r3_instr3_label.started,instructions_3_text_3.started,instructions_3_text_4.started,key_resp_3.started,instructions_3.stopped,instructions_loop.key_resp_3.keys,instructions_loop.key_resp_3.rt,instructions_loop.key_resp_3.duration,instructions_4.started,instructions_4_text_1.started,instructions_4_text_3.started,instructions_4_text_2.started,key_resp_4.started,instructions_4.stopped,instructions_loop.key_resp_4.keys,instructions_loop.key_resp_4.rt,instructions_loop.key_resp_4.duration,instructions_5.started,instructions_5_text_1.started,instructions_5_text_2.started,key_resp_5.started,instructions_5.stopped,instructions_loop.key_resp_5.keys,instructions_loop.key_resp_5.rt,instructions_loop.key_resp_5.duration,start_exp.started,start_exp_text.started,key_resp_6.started,start_exp.stopped,key_resp_6.keys,key_resp_6.rt,key_resp_6.duration,h_1_tmp,w_1_tmp,h_2_tmp,w_2_tmp,h_3_tmp,w_3_tmp,config_tmp,config_tmp_1,r_1_x,r_1_y,r_2_x,r_2_y,r_3_x,r_3_y,pre_trial.started,pre_trial.stopped,choice_trial.started,rect_choice.started,r_1.started,r_2.started,r_3.started,r_1_label.started,r_2_label.started,r_3_label.started,prompt.started,choice_trial.stopped,trials.rect_choice.keys,trials.rect_choice.rt,trials.rect_choice.duration,end_block.started,end_block_text.started,end_block.stopped,end.started,end_text.started,key_resp_7.started,end.stopped,key_resp_7.keys,key_resp_7.rt,key_resp_7.duration,debriefing.started,debrief_form.started,end_debrief.started,debriefing.stopped,end_debrief.keys,end_debrief.rt,end_debrief.duration,participant,computer,date,expName,psychopyVersion,frameRate,expStart,
,,,,,,,,,,,,,,,,,,,,,,,,,,,,,,,0.020833969116210938,0.04219388961791992,0.04219388961791992,0.04219388961791992,0.0206449031829834,12.50002932548523,1,[12.45484447479248],[12.45486831665039],0,,,[-82.0],[-495.0],[1],[0],[0],[12.47871994972229],['agree_button'],,,,,,,,,,,,,,,,,,,,,,,,,,,,,,,,,,,,,,,,,,,,,,,,,,,,,,,,,,,,,,,,,,,,,,,,,,,,,,,,,,,,,,,,,,,,,,,,,,,,,,,,,,,118,1,2025-02-25_16h33.08.626,comp,2024.2.4,58.70050914872237,2025-02-25 16h34.24.564667 -0500,
,,,,,,,,,,,,,,,,,,,,,,,,,,,,,,,,,,,,,,,,,,,,,,,,,,12.500629901885986,12.500699520111084,,,,,,,,,,,,,,,,,,,,,,,,,,,,,,,,,,,,,,,,,,,,,,,,,,,,,,,,,,,,,,,,,,,,,,,,,,,,,,,,,,,,,,,,,,,,,,,,,,,,,,,,,118,1,2025-02-25_16h33.08.626,comp,2024.2.4,58.70050914872237,2025-02-25 16h34.24.564667 -0500,
,,,,,,,,,,,,,,,,,,,,,,,,,,,,,,,,,,,,,,,,,,,,,,,,,,,,12.500744581222534,12.518043994903564,14.516694068908691,,,,,,,,,,,,,,,,,,,,,,,,,,,,,,,,,,,,,,,,,,,,,,,,,,,,,,,,,,,,,,,,,,,,,,,,,,,,,,,,,,,,,,,,,,,,,,,,,,,,,,118,1,2025-02-25_16h33.08.626,comp,2024.2.4,58.70050914872237,2025-02-25 16h34.24.564667 -0500,
0,0,0,,,,,,,,,,,,,,,0,0,0,0,,,,,,,,,14.532941818237305,,,,,,,,,,,,,,,,,,,,,,,,,,14.51770567893982,14.532941818237305,14.532941818237305,16.000418186187744,18.352185249328613,space,2.3310635089874268,None,18.352368593215942,18.367419004440308,18.367419004440308,19.851405382156372,21.38864779472351,space,1.5285532474517822,None,21.38879632949829,21.42436933517456,21.42436933517456,21.42436933517456,21.42436933517456,21.42436933517456,21.42436933517456,21.42436933517456,21.42436933517456,21.42436933517456,22.903120756149292,29.71845293045044,space,6.8043670654296875,None,29.718616485595703,29.7411892414093,29.7411892414093,29.7411892414093,31.2219295501709,36.141234397888184,space,4.910407304763794,None,36.141433000564575,36.15736985206604,36.15736985206604,37.64213037490845,38.35853171348572,space,0.7064204216003418,None,38.358726978302,38.37476944923401,38.37476944923401,39.958959102630615,space,1.5732805728912354,None,,,,,,,,,,,,,,,,,,,,,,,,,,,,,,,,,,,,,,,,,,,,,,,118,1,2025-02-25_16h33.08.626,comp,2024.2.4,58.70050914872237,2025-02-25 16h34.24.564667 -0500,
0,0,0,filler_square,None,None,None,None,None,None,None,None,None,None,3,2.4704084396362305,None,,,,,0,0,0,0,0,0,0,190,40.037073850631714,,,,,,,,,,,,,,,,,,,,,,,,,,,,,,,,,,,,,,,,,,,,,,,,,,,,,,,,,,,,,,,,,,,,,,,,,,,,,,,,,99.45908594426066,137.44181666255218,94.05528575162683,110.87862629280468,159.31502053710108,159.31502053710108,2.2,2.21,-220,-268,0,286,231,281,40.02033185958862,40.02036428451538,40.021668910980225,40.037073850631714,40.182241678237915,40.182241678237915,40.182241678237915,40.182241678237915,40.182241678237915,40.182241678237915,40.182241678237915,42.510443925857544,3,2.4704084396362305,None,,,,,,,,,,,,,,,,,,118,1,2025-02-25_16h33.08.626,comp,2024.2.4,58.70050914872237,2025-02-25 16h34.24.564667 -0500,
1,1,0,filler_random,None,None,None,None,None,None,None,None,None,None,2,2.084185838699341,None,,,,,0,0,0,0,0,1,1,161,42.52738118171692,,,,,,,,,,,,,,,,,,,,,,,,,,,,,,,,,,,,,,,,,,,,,,,,,,,,,,,,,,,,,,,,,,,,,,,,,,,,,,,,,192.65657091011977,107.72591380197633,182.09542019945934,144.78991444485973,135.42268483743464,73.79355047572393,3.0,3.1,-222,254,0,-20,205,-272,42.51225972175598,42.51240158081055,42.51649618148804,42.52738118171692,42.68081021308899,42.68081021308899,42.68081021308899,42.68081021308899,42.68081021308899,42.68081021308899,42.68081021308899,44.62582778930664,2,2.084185838699341,None,,,,,,,,,,,,,,,,,,118,1,2025-02-25_16h33.08.626,comp,2024.2.4,58.70050914872237,2025-02-25 16h34.24.564667 -0500,
2,2,0,critical,hwd,20.0,2.1,lower,133.0,57.0,57.0,133.0,78.0,78.0,1,4.237812519073486,None,,,,,0,0,0,0,0,2,2,42,44.64609980583191,,,,,,,,,,,,,,,,,,,,,,,,,,,,,,,,,,,,,,,,,,,,,,,,,,,,,,,,,,,,,,,,,,,,,,,,,,,,,,,,,133.0,57.0,57.0,133.0,78.0,78.0,2.1,2.11,-191,277,0,252,202,-288,44.627400159835815,44.62747883796692,44.63093829154968,44.64609980583191,44.79464244842529,44.79464244842529,44.79464244842529,44.79464244842529,44.79464244842529,44.79464244842529,44.79464244842529,48.895360469818115,1,4.237812519073486,None,,,,,,,,,,,,,,,,,,118,1,2025-02-25_16h33.08.626,comp,2024.2.4,58.70050914872237,2025-02-25 16h34.24.564667 -0500,
3,3,0,filler_square,None,None,None,None,None,None,None,None,None,None,3,1.573129653930664,None,,,,,0,0,0,0,0,3,3,196,48.91247582435608,,,,,,,,,,,,,,,,,,,,,,,,,,,,,,,,,,,,,,,,,,,,,,,,,,,,,,,,,,,,,,,,,,,,,,,,,,,,,,,,,108.32393286991527,163.4503984915239,156.9929392820447,78.63690581879119,194.24000207179768,194.24000207179768,2.1,2.12,-217,-272,0,-272,232,254,48.897188901901245,48.89726448059082,48.90161490440369,48.91247582435608,49.06424808502197,49.06424808502197,49.06424808502197,49.06424808502197,49.06424808502197,49.06424808502197,49.06424808502197,50.48968982696533,3,1.573129653930664,None,,,,,,,,,,,,,,,,,,118,1,2025-02-25_16h33.08.626,comp,2024.2.4,58.70050914872237,2025-02-25 16h34.24.564667 -0500,
4,4,0,filler_random,None,None,None,None,None,None,None,None,None,None,2,1.4228489398956299,None,,,,,0,0,0,0,0,4,4,160,50.508819818496704,,,,,,,,,,,,,,,,,,,,,,,,,,,,,,,,,,,,,,,,,,,,,,,,,,,,,,,,,,,,,,,,,,,,,,,,,,,,,,,,,171.81278018891518,180.36417348127756,193.52738486883115,195.40296355890428,116.16810805546152,131.4203496913994,2.1,2.12,-284,-265,0,-253,259,267,50.49157238006592,50.491650342941284,50.49547481536865,50.508819818496704,50.649192571640015,50.649192571640015,50.649192571640015,50.649192571640015,50.649192571640015,50.649192571640015,50.649192571640015,51.94459676742554,2,1.4228489398956299,None,,,,,,,,,,,,,,,,,,118,1,2025-02-25_16h33.08.626,comp,2024.2.4,58.70050914872237,2025-02-25 16h34.24.564667 -0500,
5,5,0,critical,whd,20.0,1.0,upper,125.0,200.0,200.0,125.0,141.0,141.0,1,2.8192379474639893,None,,,,,0,0,0,0,0,5,5,91,51.96036911010742,,,,,,,,,,,,,,,,,,,,,,,,,,,,,,,,,,,,,,,,,,,,,,,,,,,,,,,,,,,,,,,,,,,,,,,,,,,,,,,,,125.0,200.0,200.0,125.0,141.0,141.0,1.0,1.1,-738,265,-480,266,-251,284,51.946131229400635,51.94620656967163,51.94974732398987,51.96036911010742,52.11367225646973,52.11367225646973,52.11367225646973,52.11367225646973,52.11367225646973,52.11367225646973,52.11367225646973,54.79701089859009,1,2.8192379474639893,None,,,,,,,,,,,,,,,,,,118,1,2025-02-25_16h33.08.626,comp,2024.2.4,58.70050914872237,2025-02-25 16h34.24.564667 -0500,
6,6,0,filler_square,None,None,None,None,None,None,None,None,None,None,3,1.718165397644043,None,,,,,0,0,0,0,0,6,6,193,54.81359839439392,,,,,,,,,,,,,,,,,,,,,,,,,,,,,,,,,,,,,,,,,,,,,,,,,,,,,,,,,,,,,,,,,,,,,,,,,,,,,,,,,123.60505393067892,63.3611213608243,90.0476081728357,75.7258073617983,128.65114402894227,128.65114402894227,3.0,3.2,-166,-261,0,-13,198,261,54.79896020889282,54.799036264419556,54.80274486541748,54.81359839439392,54.96274280548096,54.96274280548096,54.96274280548096,54.96274280548096,54.96274280548096,54.96274280548096,54.96274280548096,56.54819703102112,3,1.718165397644043,None,,,,,,,,,,,,,,,,,,118,1,2025-02-25_16h33.08.626,comp,2024.2.4,58.70050914872237,2025-02-25 16h34.24.564667 -0500,
7,7,0,filler_random,None,None,None,None,None,None,None,None,None,None,2,1.9955058097839355,None,,,,,0,0,0,0,0,7,7,150,56.563058853149414,,,,,,,,,,,,,,,,,,,,,,,,,,,,,,,,,,,,,,,,,,,,,,,,,,,,,,,,,,,,,,,,,,,,,,,,,,,,,,,,,60.83631701686195,152.0199738261466,116.34089634775106,153.70526738407148,120.79419541968187,63.20668683460137,4.0,4.1,-249,-268,0,-17,204,-279,56.550021171569824,56.55009937286377,56.55377674102783,56.563058853149414,56.71386528015137,56.71386528015137,56.71386528015137,56.71386528015137,56.71386528015137,56.71386528015137,56.71386528015137,58.56437563896179,2,1.9955058097839355,None,,,,,,,,,,,,,,,,,,118,1,2025-02-25_16h33.08.626,comp,2024.2.4,58.70050914872237,2025-02-25 16h34.24.564667 -0500,
8,8,0,filler_random,None,None,None,None,None,None,None,None,None,None,3,3.827792167663574,None,,,,,0,0,0,0,0,8,8,132,58.58477783203125,,,,,,,,,,,,,,,,,,,,,,,,,,,,,,,,,,,,,,,,,,,,,,,,,,,,,,,,,,,,,,,,,,,,,,,,,,,,,,,,,181.2352521621669,129.71068288293185,199.71373972486623,134.10621116814644,169.39555738897835,162.2274511496355,2.2,2.21,-228,-259,0,275,244,272,58.566171169281006,58.566248655319214,58.56963133811951,58.58477783203125,58.73221135139465,58.73221135139465,58.73221135139465,58.73221135139465,58.73221135139465,58.73221135139465,58.73221135139465,62.41752576828003,3,3.827792167663574,None,,,,,,,,,,,,,,,,,,118,1,2025-02-25_16h33.08.626,comp,2024.2.4,58.70050914872237,2025-02-25 16h34.24.564667 -0500,
9,9,0,critical,wdh,35.0,2.1,upper,125.0,200.0,127.0,127.0,200.0,125.0,1,1.6173574924468994,None,,,,,0,0,0,0,0,9,9,33,62.43422198295593,,,,,,,,,,,,,,,,,,,,,,,,,,,,,,,,,,,,,,,,,,,,,,,,,,,,,,,,,,,,,,,,,,,,,,,,,,,,,,,,,125.0,200.0,127.0,127.0,200.0,125.0,2.1,2.12,-260,-252,0,-264,222,255,62.419167280197144,62.41924428939819,62.42308497428894,62.43422198295593,62.5830500125885,62.5830500125885,62.5830500125885,62.5830500125885,62.5830500125885,62.5830500125885,62.5830500125885,64.06802463531494,1,1.6173574924468994,None,,,,,,,,,,,,,,,,,,118,1,2025-02-25_16h33.08.626,comp,2024.2.4,58.70050914872237,2025-02-25 16h34.24.564667 -0500,
10,10,0,critical,hwd,20.0,2.1,upper,200.0,125.0,125.0,200.0,141.0,141.0,1,3.7672901153564453,None,,,,,0,0,0,0,0,10,10,19,64.08432698249817,,,,,,,,,,,,,,,,,,,,,,,,,,,,,,,,,,,,,,,,,,,,,,,,,,,,,,,,,,,,,,,,,,,,,,,,,,,,,,,,,200.0,125.0,125.0,200.0,141.0,141.0,2.1,2.11,-258,278,0,261,266,-252,64.06975150108337,64.06988763809204,64.07389879226685,64.08432698249817,64.23294043540955,64.23294043540955,64.23294043540955,64.23294043540955,64.23294043540955,64.23294043540955,64.23294043540955,67.86893892288208,1,3.7672901153564453,None,,,,,,,,,,,,,,,,,,118,1,2025-02-25_16h33.08.626,comp,2024.2.4,58.70050914872237,2025-02-25 16h34.24.564667 -0500,
11,11,0,critical,hdw,35.0,2.1,lower,133.0,57.0,70.0,70.0,57.0,133.0,2,4.479169607162476,None,,,,,0,0,0,0,0,11,11,44,67.88500738143921,,,,,,,,,,,,,,,,,,,,,,,,,,,,,,,,,,,,,,,,,,,,,,,,,,,,,,,,,,,,,,,,,,,,,,,,,,,,,,,,,133.0,57.0,70.0,70.0,57.0,133.0,2.1,2.12,-160,-256,0,-274,198,286,67.87049198150635,67.87056732177734,67.87433743476868,67.88500738143921,68.03841733932495,68.03841733932495,68.03841733932495,68.03841733932495,68.03841733932495,68.03841733932495,68.03841733932495,72.36853790283203,2,4.479169607162476,None,,,,,,,,,,,,,,,,,,118,1,2025-02-25_16h33.08.626,comp,2024.2.4,58.70050914872237,2025-02-25 16h34.24.564667 -0500,
12,12,0,critical,hwd,35.0,3.0,upper,200.0,125.0,125.0,200.0,127.0,127.0,2,1.998673915863037,None,,,,,0,0,0,0,0,12,12,99,72.38896107673645,,,,,,,,,,,,,,,,,,,,,,,,,,,,,,,,,,,,,,,,,,,,,,,,,,,,,,,,,,,,,,,,,,,,,,,,,,,,,,,,,200.0,125.0,125.0,200.0,127.0,127.0,3.0,3.2,-258,-251,0,-18,260,285,72.370121717453,72.37019968032837,72.37371754646301,72.38896107673645,72.53627395629883,72.53627395629883,72.53627395629883,72.53627395629883,72.53627395629883,72.53627395629883,72.53627395629883,74.40327048301697,2,1.998673915863037,None,,,,,,,,,,,,,,,,,,118,1,2025-02-25_16h33.08.626,comp,2024.2.4,58.70050914872237,2025-02-25 16h34.24.564667 -0500,
13,13,0,critical,dwh,20.0,4.0,lower,78.0,78.0,57.0,133.0,133.0,57.0,3,3.8725571632385254,None,,,,,0,0,0,0,0,13,13,70,74.41907095909119,,,,,,,,,,,,,,,,,,,,,,,,,,,,,,,,,,,,,,,,,,,,,,,,,,,,,,,,,,,,,,,,,,,,,,,,,,,,,,,,,78.0,78.0,57.0,133.0,133.0,57.0,4.0,4.2,-202,3,0,-277,191,1,74.40480208396912,74.40487790107727,74.40871667861938,74.41907095909119,74.57499194145203,74.57499194145203,74.57499194145203,74.57499194145203,74.57499194145203,74.57499194145203,74.57499194145203,78.30718088150024,3,3.8725571632385254,None,,,,,,,,,,,,,,,,,,118,1,2025-02-25_16h33.08.626,comp,2024.2.4,58.70050914872237,2025-02-25 16h34.24.564667 -0500,
14,14,0,critical,hwd,35.0,1.0,lower,133.0,57.0,57.0,133.0,70.0,70.0,2,4.32016134262085,None,,,,,0,0,0,0,0,14,14,96,78.32367300987244,,,,,,,,,,,,,,,,,,,,,,,,,,,,,,,,,,,,,,,,,,,,,,,,,,,,,,,,,,,,,,,,,,,,,,,,,,,,,,,,,133.0,57.0,57.0,133.0,70.0,70.0,1.0,1.3,289,-278,480,-285,678,-289,78.3088788986206,78.30897235870361,78.31287550926208,78.32367300987244,78.46761012077332,78.46761012077332,78.46761012077332,78.46761012077332,78.46761012077332,78.46761012077332,78.46761012077332,82.64684247970581,2,4.32016134262085,None,,,,,,,,,,,,,,,,,,118,1,2025-02-25_16h33.08.626,comp,2024.2.4,58.70050914872237,2025-02-25 16h34.24.564667 -0500,
15,15,0,filler_random,None,None,None,None,None,None,None,None,None,None,2,1.7513058185577393,None,,,,,0,0,0,0,0,15,15,141,82.66851949691772,,,,,,,,,,,,,,,,,,,,,,,,,,,,,,,,,,,,,,,,,,,,,,,,,,,,,,,,,,,,,,,,,,,,,,,,,,,,,,,,,180.01513171280942,136.67283440233263,193.699852546011,197.40849450905816,142.1375690965399,143.46515542059993,1.0,1.2,-263,-2,0,-2,266,4,82.64877271652222,82.64885115623474,82.6526391506195,82.66851949691772,82.81104063987732,82.81104063987732,82.81104063987732,82.81104063987732,82.81104063987732,82.81104063987732,82.81104063987732,84.42481660842896,2,1.7513058185577393,None,,,,,,,,,,,,,,,,,,118,1,2025-02-25_16h33.08.626,comp,2024.2.4,58.70050914872237,2025-02-25 16h34.24.564667 -0500,
16,16,0,filler_random,None,None,None,None,None,None,None,None,None,None,3,1.6496551036834717,None,,,,,0,0,0,0,0,16,16,146,84.44207286834717,,,,,,,,,,,,,,,,,,,,,,,,,,,,,,,,,,,,,,,,,,,,,,,,,,,,,,,,,,,,,,,,,,,,,,,,,,,,,,,,,88.18921820212196,177.37679681894,171.99956706211654,112.6694637128521,110.53211479718524,176.57888951974434,2.1,2.11,-241,282,0,277,241,-264,84.4269962310791,84.42707800865173,84.43108034133911,84.44207286834717,84.59096336364746,84.59096336364746,84.59096336364746,84.59096336364746,84.59096336364746,84.59096336364746,84.59096336364746,86.10653185844421,3,1.6496551036834717,None,,,,,,,,,,,,,,,,,,118,1,2025-02-25_16h33.08.626,comp,2024.2.4,58.70050914872237,2025-02-25 16h34.24.564667 -0500,
17,17,0,filler_square,None,None,None,None,None,None,None,None,None,None,1,2.753070592880249,None,,,,,0,0,0,0,0,17,17,180,86.12265419960022,,,,,,,,,,,,,,,,,,,,,,,,,,,,,,,,,,,,,,,,,,,,,,,,,,,,,,,,,,,,,,,,,,,,,,,,,,,,,,,,,103.19220357861943,103.19220357861943,60.439618408304206,67.36256632548063,63.51040192349727,83.60423425515245,1.0,1.1,-661,255,-480,266,-309,267,86.10844349861145,86.10852122306824,86.11195969581604,86.12265419960022,86.27510166168213,86.27510166168213,86.27510166168213,86.27510166168213,86.27510166168213,86.27510166168213,86.27510166168213,88.89008092880249,1,2.753070592880249,None,,,,,,,,,,,,,,,,,,118,1,2025-02-25_16h33.08.626,comp,2024.2.4,58.70050914872237,2025-02-25 16h34.24.564667 -0500,
18,18,0,critical,dwh,35.0,3.0,lower,70.0,70.0,57.0,133.0,133.0,57.0,3,5.288503170013428,None,,,,,0,0,0,0,0,18,18,62,88.90716075897217,,,,,,,,,,,,,,,,,,,,,,,,,,,,,,,,,,,,,,,,,,,,,,,,,,,,,,,,,,,,,,,,,,,,,,,,,,,,,,,,,70.0,70.0,57.0,133.0,133.0,57.0,3.0,3.1,-198,254,0,-17,191,-267,88.8917920589447,88.89187479019165,88.89562201499939,88.90716075897217,89.0613317489624,89.0613317489624,89.0613317489624,89.0613317489624,89.0613317489624,89.0613317489624,89.0613317489624,94.20874238014221,3,5.288503170013428,None,,,,,,,,,,,,,,,,,,118,1,2025-02-25_16h33.08.626,comp,2024.2.4,58.70050914872237,2025-02-25 16h34.24.564667 -0500,
19,19,0,critical,dhw,35.0,2.1,lower,70.0,70.0,133.0,57.0,57.0,133.0,3,2.5869014263153076,None,,,,,0,0,0,0,0,19,19,0,94.23313641548157,,,,,,,,,,,,,,,,,,,,,,,,,,,,,,,,,,,,,,,,,,,,,,,,,,,,,,,,,,,,,,,,,,,,,,,,,,,,,,,,,70.0,70.0,133.0,57.0,57.0,133.0,2.1,2.11,-160,258,0,278,191,-265,94.21042013168335,94.21054816246033,94.21418404579163,94.23313641548157,94.37602734565735,94.37602734565735,94.37602734565735,94.37602734565735,94.37602734565735,94.37602734565735,94.37602734565735,96.8244047164917,3,2.5869014263153076,None,,,,,,,,,,,,,,,,,,118,1,2025-02-25_16h33.08.626,comp,2024.2.4,58.70050914872237,2025-02-25 16h34.24.564667 -0500,
20,20,0,critical,hdw,20.0,2.1,lower,133.0,57.0,78.0,78.0,57.0,133.0,1,6.4908037185668945,None,,,,,0,0,0,0,0,20,20,22,96.84088659286499,,,,,,,,,,,,,,,,,,,,,,,,,,,,,,,,,,,,,,,,,,,,,,,,,,,,,,,,,,,,,,,,,,,,,,,,,,,,,,,,,133.0,57.0,78.0,78.0,57.0,133.0,2.1,2.11,-164,258,0,263,202,-286,96.82591557502747,96.82598900794983,96.829270362854,96.84088659286499,96.97968363761902,96.97968363761902,96.97968363761902,96.97968363761902,96.97968363761902,96.97968363761902,96.97968363761902,103.34478640556335,1,6.4908037185668945,None,,,,,,,,,,,,,,,,,,118,1,2025-02-25_16h33.08.626,comp,2024.2.4,58.70050914872237,2025-02-25 16h34.24.564667 -0500,
21,21,0,critical,whd,20.0,4.0,upper,125.0,200.0,200.0,125.0,141.0,141.0,2,3.185992956161499,None,,,,,0,0,0,0,0,21,21,95,103.36174392700195,,,,,,,,,,,,,,,,,,,,,,,,,,,,,,,,,,,,,,,,,,,,,,,,,,,,,,,,,,,,,,,,,,,,,,,,,,,,,,,,,125.0,200.0,200.0,125.0,141.0,141.0,4.0,4.1,-258,-280,0,1,229,-282,103.34646654129028,103.3465883731842,103.35029888153076,103.36174392700195,103.5166528224945,103.5166528224945,103.5166528224945,103.5166528224945,103.5166528224945,103.5166528224945,103.5166528224945,106.56340432167053,2,3.185992956161499,None,,,,,,,,,,,,,,,,,,118,1,2025-02-25_16h33.08.626,comp,2024.2.4,58.70050914872237,2025-02-25 16h34.24.564667 -0500,
22,22,0,critical,whd,35.0,4.0,upper,125.0,200.0,200.0,125.0,127.0,127.0,1,5.258551120758057,None,,,,,0,0,0,0,0,22,22,89,106.57905101776123,,,,,,,,,,,,,,,,,,,,,,,,,,,,,,,,,,,,,,,,,,,,,,,,,,,,,,,,,,,,,,,,,,,,,,,,,,,,,,,,,125.0,200.0,200.0,125.0,127.0,127.0,4.0,4.2,-258,4,0,-277,222,-18,106.56501293182373,106.5650897026062,106.56867384910583,106.57905101776123,106.73127770423889,106.73127770423889,106.73127770423889,106.73127770423889,106.73127770423889,106.73127770423889,106.73127770423889,111.8489191532135,1,5.258551120758057,None,,,,,,,,,,,,,,,,,,118,1,2025-02-25_16h33.08.626,comp,2024.2.4,58.70050914872237,2025-02-25 16h34.24.564667 -0500,
23,23,0,filler_random,None,None,None,None,None,None,None,None,None,None,3,2.6418981552124023,None,,,,,0,0,0,0,0,23,23,131,111.8667778968811,,,,,,,,,,,,,,,,,,,,,,,,,,,,,,,,,,,,,,,,,,,,,,,,,,,,,,,,,,,,,,,,,,,,,,,,,,,,,,,,,141.79854546184055,109.7481844571775,107.25625953593249,63.97178780966025,139.52799234114977,99.60377601499044,3.0,3.1,-183,256,0,19,178,-268,111.85066843032837,111.85074734687805,111.85431289672852,111.8667778968811,112.01211380958557,112.01211380958557,112.01211380958557,112.01211380958557,112.01211380958557,112.01211380958557,112.01211380958557,114.51625514030457,3,2.6418981552124023,None,,,,,,,,,,,,,,,,,,118,1,2025-02-25_16h33.08.626,comp,2024.2.4,58.70050914872237,2025-02-25 16h34.24.564667 -0500,
24,24,0,filler_random,None,None,None,None,None,None,None,None,None,None,2,2.630964756011963,None,,,,,0,0,0,0,0,24,24,130,114.53314757347107,,,,,,,,,,,,,,,,,,,,,,,,,,,,,,,,,,,,,,,,,,,,,,,,,,,,,,,,,,,,,,,,,,,,,,,,,,,,,,,,,62.39900357170022,184.6575153881825,82.62521582907866,179.07527417472608,101.07707833981436,65.688252776078,2.2,2.22,-278,276,0,-277,218,-285,114.51799988746643,114.51807594299316,114.52175760269165,114.53314757347107,114.68295335769653,114.68295335769653,114.68295335769653,114.68295335769653,114.68295335769653,114.68295335769653,114.68295335769653,117.1827781200409,2,2.630964756011963,None,,,,,,,,,,,,,,,,,,118,1,2025-02-25_16h33.08.626,comp,2024.2.4,58.70050914872237,2025-02-25 16h34.24.564667 -0500,
25,25,0,critical,dwh,35.0,1.0,upper,127.0,127.0,125.0,200.0,200.0,125.0,3,1.8615684509277344,None,,,,,0,0,0,0,0,25,25,61,117.1990237236023,,,,,,,,,,,,,,,,,,,,,,,,,,,,,,,,,,,,,,,,,,,,,,,,,,,,,,,,,,,,,,,,,,,,,,,,,,,,,,,,,127.0,127.0,125.0,200.0,200.0,125.0,1.0,1.2,-260,2,0,-2,258,-8,117.18440914154053,117.18449091911316,117.18851780891418,117.1990237236023,117.34917640686035,117.34917640686035,117.34917640686035,117.34917640686035,117.34917640686035,117.34917640686035,117.34917640686035,119.06770420074463,3,1.8615684509277344,None,,,,,,,,,,,,,,,,,,118,1,2025-02-25_16h33.08.626,comp,2024.2.4,58.70050914872237,2025-02-25 16h34.24.564667 -0500,
26,26,0,catch,None,None,None,None,None,None,None,None,None,None,1,1.7348947525024414,None,,,,,0,0,0,0,0,26,26,125,119.08485507965088,,,,,,,,,,,,,,,,,,,,,,,,,,,,,,,,,,,,,,,,,,,,,,,,,,,,,,,,,,,,,,,,,,,,,,,,,,,,,,,,,193,132,103,87,133,57,2.2,2.22,-206,276,0,-268,168,-281,119.06965851783752,119.06973385810852,119.07347416877747,119.08485507965088,119.2332410812378,119.2332410812378,119.2332410812378,119.2332410812378,119.2332410812378,119.2332410812378,119.2332410812378,120.83387923240662,1,1.7348947525024414,None,,,,,,,,,,,,,,,,,,118,1,2025-02-25_16h33.08.626,comp,2024.2.4,58.70050914872237,2025-02-25 16h34.24.564667 -0500,
27,27,0,critical,hdw,35.0,4.0,upper,200.0,125.0,127.0,127.0,125.0,200.0,3,2.3502869606018066,None,,,,,0,0,0,0,0,27,27,113,120.85343480110168,,,,,,,,,,,,,,,,,,,,,,,,,,,,,,,,,,,,,,,,,,,,,,,,,,,,,,,,,,,,,,,,,,,,,,,,,,,,,,,,,200.0,125.0,127.0,127.0,125.0,200.0,4.0,4.1,-222,-266,0,8,260,-256,120.83546209335327,120.83554816246033,120.83921909332275,120.85343480110168,121.00126028060913,121.00126028060913,121.00126028060913,121.00126028060913,121.00126028060913,121.00126028060913,121.00126028060913,123.21865797042847,3,2.3502869606018066,None,,,,,,,,,,,,,,,,,,118,1,2025-02-25_16h33.08.626,comp,2024.2.4,58.70050914872237,2025-02-25 16h34.24.564667 -0500,
28,28,0,critical,dwh,35.0,2.1,upper,127.0,127.0,125.0,200.0,200.0,125.0,2,2.0969913005828857,None,,,,,0,0,0,0,0,28,28,29,123.23516011238098,,,,,,,,,,,,,,,,,,,,,,,,,,,,,,,,,,,,,,,,,,,,,,,,,,,,,,,,,,,,,,,,,,,,,,,,,,,,,,,,,127.0,127.0,125.0,200.0,200.0,125.0,2.1,2.12,-260,-285,0,-253,258,269,123.22026896476746,123.22037243843079,123.22475719451904,123.23516011238098,123.38649392127991,123.38649392127991,123.38649392127991,123.38649392127991,123.38649392127991,123.38649392127991,123.38649392127991,125.33498525619507,2,2.0969913005828857,None,,,,,,,,,,,,,,,,,,118,1,2025-02-25_16h33.08.626,comp,2024.2.4,58.70050914872237,2025-02-25 16h34.24.564667 -0500,
29,29,0,filler_square,None,None,None,None,None,None,None,None,None,None,1,2.246919870376587,None,,,,,0,0,0,0,0,29,29,184,125.35675358772278,,,,,,,,,,,,,,,,,,,,,,,,,,,,,,,,,,,,,,,,,,,,,,,,,,,,,,,,,,,,,,,,,,,,,,,,,,,,,,,,,163.00050071451517,163.00050071451517,159.25483600664307,162.04741326251124,114.97137022972116,127.0920879843515,1.0,1.3,221,-257,480,-280,721,-259,125.33700489997864,125.3370795249939,125.34094476699829,125.35675358772278,125.49356126785278,125.49356126785278,125.49356126785278,125.49356126785278,125.49356126785278,125.49356126785278,125.49356126785278,127.62023401260376,1,2.246919870376587,None,,,,,,,,,,,,,,,,,,118,1,2025-02-25_16h33.08.626,comp,2024.2.4,58.70050914872237,2025-02-25 16h34.24.564667 -0500,
30,30,0,critical,hdw,20.0,3.0,upper,200.0,125.0,141.0,141.0,125.0,200.0,3,1.5670955181121826,None,,,,,0,0,0,0,0,30,30,117,127.63665962219238,,,,,,,,,,,,,,,,,,,,,,,,,,,,,,,,,,,,,,,,,,,,,,,,,,,,,,,,,,,,,,,,,,,,,,,,,,,,,,,,,200.0,125.0,141.0,141.0,125.0,200.0,3.0,3.1,-229,250,0,5,266,-254,127.62179899215698,127.62187576293945,127.62623977661133,127.63665962219238,127.78660035133362,127.78660035133362,127.78660035133362,127.78660035133362,127.78660035133362,127.78660035133362,127.78660035133362,129.21996402740479,3,1.5670955181121826,None,,,,,,,,,,,,,,,,,,118,1,2025-02-25_16h33.08.626,comp,2024.2.4,58.70050914872237,2025-02-25 16h34.24.564667 -0500,
31,31,0,critical,hdw,20.0,1.0,upper,200.0,125.0,141.0,141.0,125.0,200.0,1,1.9001438617706299,None,,,,,0,0,0,0,0,31,31,115,129.23977875709534,,,,,,,,,,,,,,,,,,,,,,,,,,,,,,,,,,,,,,,,,,,,,,,,,,,,,,,,,,,,,,,,,,,,,,,,,,,,,,,,,200.0,125.0,141.0,141.0,125.0,200.0,1.0,1.2,-229,-18,0,-18,266,-11,129.22149395942688,129.2215702533722,129.22514533996582,129.23977875709534,129.3878309726715,129.3878309726715,129.3878309726715,129.3878309726715,129.3878309726715,129.3878309726715,129.3878309726715,131.15451049804688,1,1.9001438617706299,None,,,,,,,,,,,,,,,,,,118,1,2025-02-25_16h33.08.626,comp,2024.2.4,58.70050914872237,2025-02-25 16h34.24.564667 -0500,
32,32,0,critical,hdw,35.0,3.0,upper,200.0,125.0,127.0,127.0,125.0,200.0,1,1.5701045989990234,None,,,,,0,0,0,0,0,32,32,111,131.17011070251465,,,,,,,,,,,,,,,,,,,,,,,,,,,,,,,,,,,,,,,,,,,,,,,,,,,,,,,,,,,,,,,,,,,,,,,,,,,,,,,,,200.0,125.0,127.0,127.0,125.0,200.0,3.0,3.2,-222,-253,0,7,260,286,131.15602707862854,131.15610027313232,131.15977597236633,131.17011070251465,131.32363724708557,131.32363724708557,131.32363724708557,131.32363724708557,131.32363724708557,131.32363724708557,131.32363724708557,132.74521279335022,1,1.5701045989990234,None,,,,,,,,,,,,,,,,,,118,1,2025-02-25_16h33.08.626,comp,2024.2.4,58.70050914872237,2025-02-25 16h34.24.564667 -0500,
33,33,0,critical,hwd,20.0,1.0,lower,133.0,57.0,57.0,133.0,78.0,78.0,1,2.0658693313598633,None,,,,,0,0,0,0,0,33,33,102,132.7639856338501,,,,,,,,,,,,,,,,,,,,,,,,,,,,,,,,,,,,,,,,,,,,,,,,,,,,,,,,,,,,,,,,,,,,,,,,,,,,,,,,,133.0,57.0,57.0,133.0,78.0,78.0,1.0,1.3,289,-279,480,-273,682,-273,132.74669861793518,132.74677562713623,132.75003337860107,132.7639856338501,132.90705609321594,132.90705609321594,132.90705609321594,132.90705609321594,132.90705609321594,132.90705609321594,132.90705609321594,134.84016513824463,1,2.0658693313598633,None,,,,,,,,,,,,,,,,,,118,1,2025-02-25_16h33.08.626,comp,2024.2.4,58.70050914872237,2025-02-25 16h34.24.564667 -0500,
34,34,0,catch,None,None,None,None,None,None,None,None,None,None,2,1.1301589012145996,None,,,,,0,0,0,0,0,34,34,129,134.85799956321716,,,,,,,,,,,,,,,,,,,,,,,,,,,,,,,,,,,,,,,,,,,,,,,,,,,,,,,,,,,,,,,,,,,,,,,,,,,,,,,,,85,105,138,187,130,60,4.0,4.1,-242,-278,0,-5,220,-251,134.84235978126526,134.84244060516357,134.84639859199524,134.85799956321716,135.00598549842834,135.00598549842834,135.00598549842834,135.00598549842834,135.00598549842834,135.00598549842834,135.00598549842834,136.00643920898438,2,1.1301589012145996,None,,,,,,,,,,,,,,,,,,118,1,2025-02-25_16h33.08.626,comp,2024.2.4,58.70050914872237,2025-02-25 16h34.24.564667 -0500,
35,35,0,critical,dhw,20.0,1.0,upper,141.0,141.0,200.0,125.0,125.0,200.0,3,2.1816651821136475,None,,,,,0,0,0,0,0,35,35,55,136.0228192806244,,,,,,,,,,,,,,,,,,,,,,,,,,,,,,,,,,,,,,,,,,,,,,,,,,,,,,,,,,,,,,,,,,,,,,,,,,,,,,,,,141.0,141.0,200.0,125.0,125.0,200.0,1.0,1.1,-709,285,-480,263,-222,258,136.00802397727966,136.00809836387634,136.01243329048157,136.0228192806244,136.17504930496216,136.17504930496216,136.17504930496216,136.17504930496216,136.17504930496216,136.17504930496216,136.17504930496216,138.2068476676941,3,2.1816651821136475,None,,,,,,,,,,,,,,,,,,118,1,2025-02-25_16h33.08.626,comp,2024.2.4,58.70050914872237,2025-02-25 16h34.24.564667 -0500,
36,36,0,catch,None,None,None,None,None,None,None,None,None,None,3,1.1548330783843994,None,,,,,0,0,0,0,0,36,36,127,138.22487688064575,,,,,,,,,,,,,,,,,,,,,,,,,,,,,,,,,,,,,,,,,,,,,,,,,,,,,,,,,,,,,,,,,,,,,,,,,,,,,,,,,120,70,93,97,163,162,2.1,2.12,-180,-259,0,-285,226,262,138.2091348171234,138.20921635627747,138.21363306045532,138.22487688064575,138.3727946281433,138.3727946281433,138.3727946281433,138.3727946281433,138.3727946281433,138.3727946281433,138.3727946281433,139.38980174064636,3,1.1548330783843994,None,,,,,,,,,,,,,,,,,,118,1,2025-02-25_16h33.08.626,comp,2024.2.4,58.70050914872237,2025-02-25 16h34.24.564667 -0500,
37,37,0,critical,whd,35.0,2.1,lower,57.0,133.0,133.0,57.0,70.0,70.0,2,1.124692440032959,None,,,,,0,0,0,0,0,37,37,36,139.4070439338684,,,,,,,,,,,,,,,,,,,,,,,,,,,,,,,,,,,,,,,,,,,,,,,,,,,,,,,,,,,,,,,,,,,,,,,,,,,,,,,,,57.0,133.0,133.0,57.0,70.0,70.0,2.1,2.12,-191,-258,0,-250,160,288,139.3914885520935,139.3915991783142,139.39525198936462,139.4070439338684,139.5571472644806,139.5571472644806,139.5571472644806,139.5571472644806,139.5571472644806,139.5571472644806,139.5571472644806,140.5411627292633,2,1.124692440032959,None,,,,,,,,,,,,,,,,,,118,1,2025-02-25_16h33.08.626,comp,2024.2.4,58.70050914872237,2025-02-25 16h34.24.564667 -0500,
38,38,0,critical,whd,20.0,2.1,upper,125.0,200.0,200.0,125.0,141.0,141.0,3,1.3655681610107422,None,,,,,0,0,0,0,0,38,38,15,140.55813097953796,,,,,,,,,,,,,,,,,,,,,,,,,,,,,,,,,,,,,,,,,,,,,,,,,,,,,,,,,,,,,,,,,,,,,,,,,,,,,,,,,125.0,200.0,200.0,125.0,141.0,141.0,2.1,2.12,-258,-261,0,-269,229,280,140.54287886619568,140.54299139976501,140.54721522331238,140.55813097953796,140.70590043067932,140.70590043067932,140.70590043067932,140.70590043067932,140.70590043067932,140.70590043067932,140.70590043067932,141.94048476219177,3,1.3655681610107422,None,,,,,,,,,,,,,,,,,,118,1,2025-02-25_16h33.08.626,comp,2024.2.4,58.70050914872237,2025-02-25 16h34.24.564667 -0500,
39,39,0,critical,dhw,35.0,3.0,upper,127.0,127.0,200.0,125.0,125.0,200.0,3,1.9263854026794434,None,,,,,0,0,0,0,0,39,39,51,141.95738124847412,,,,,,,,,,,,,,,,,,,,,,,,,,,,,,,,,,,,,,,,,,,,,,,,,,,,,,,,,,,,,,,,,,,,,,,,,,,,,,,,,127.0,127.0,200.0,125.0,125.0,200.0,3.0,3.1,-222,287,0,-5,258,-279,141.94206953048706,141.9421455860138,141.9459159374237,141.95738124847412,142.10769271850586,142.10769271850586,142.10769271850586,142.10769271850586,142.10769271850586,142.10769271850586,142.10769271850586,143.90116691589355,3,1.9263854026794434,None,,,,,,,,,,,,,,,,,,118,1,2025-02-25_16h33.08.626,comp,2024.2.4,58.70050914872237,2025-02-25 16h34.24.564667 -0500,
40,40,0,critical,dhw,35.0,1.0,lower,70.0,70.0,133.0,57.0,57.0,133.0,2,3.351327419281006,None,,,,,0,0,0,0,0,40,40,48,143.91739130020142,,,,,,,,,,,,,,,,,,,,,,,,,,,,,,,,,,,,,,,,,,,,,,,,,,,,,,,,,,,,,,,,,,,,,,,,,,,,,,,,,70.0,70.0,133.0,57.0,57.0,133.0,1.0,1.3,320,-267,480,-289,671,-277,143.90270733833313,143.90277981758118,143.90603280067444,143.91739130020142,144.05957174301147,144.05957174301147,144.05957174301147,144.05957174301147,144.05957174301147,144.05957174301147,144.05957174301147,147.2765679359436,2,3.351327419281006,None,,,,,,,,,,,,,,,,,,118,1,2025-02-25_16h33.08.626,comp,2024.2.4,58.70050914872237,2025-02-25 16h34.24.564667 -0500,
41,41,0,filler_random,None,None,None,None,None,None,None,None,None,None,2,1.4715006351470947,None,,,,,0,0,0,0,0,41,41,162,147.29386115074158,,,,,,,,,,,,,,,,,,,,,,,,,,,,,,,,,,,,,,,,,,,,,,,,,,,,,,,,,,,,,,,,,,,,,,,,,,,,,,,,,134.51588423032882,108.69482962283975,195.65554504229738,132.38629258689394,191.22690485242634,82.56377517864705,4.0,4.1,-217,-263,0,7,203,-271,147.2784128189087,147.27849197387695,147.2828814983368,147.29386115074158,147.4415044784546,147.4415044784546,147.4415044784546,147.4415044784546,147.4415044784546,147.4415044784546,147.4415044784546,148.77687740325928,2,1.4715006351470947,None,,,,,,,,,,,,,,,,,,118,1,2025-02-25_16h33.08.626,comp,2024.2.4,58.70050914872237,2025-02-25 16h34.24.564667 -0500,
42,42,0,critical,dhw,35.0,3.0,lower,70.0,70.0,133.0,57.0,57.0,133.0,2,1.948089599609375,None,,,,,0,0,0,0,0,42,42,50,148.79240226745605,,,,,,,,,,,,,,,,,,,,,,,,,,,,,,,,,,,,,,,,,,,,,,,,,,,,,,,,,,,,,,,,,,,,,,,,,,,,,,,,,70.0,70.0,133.0,57.0,57.0,133.0,3.0,3.2,-160,-279,0,4,191,252,148.77860307693481,148.77868056297302,148.7823359966278,148.79240226745605,148.94227075576782,148.94227075576782,148.94227075576782,148.94227075576782,148.94227075576782,148.94227075576782,148.94227075576782,150.76009440422058,2,1.948089599609375,None,,,,,,,,,,,,,,,,,,118,1,2025-02-25_16h33.08.626,comp,2024.2.4,58.70050914872237,2025-02-25 16h34.24.564667 -0500,
43,43,0,critical,wdh,35.0,4.0,upper,125.0,200.0,127.0,127.0,200.0,125.0,3,4.979025602340698,None,,,,,0,0,0,0,0,43,43,77,150.7766547203064,,,,,,,,,,,,,,,,,,,,,,,,,,,,,,,,,,,,,,,,,,,,,,,,,,,,,,,,,,,,,,,,,,,,,,,,,,,,,,,,,125.0,200.0,127.0,127.0,200.0,125.0,4.0,4.2,-260,-18,0,-290,222,18,150.76168775558472,150.76176691055298,150.7653238773346,150.7766547203064,150.93038702011108,150.93038702011108,150.93038702011108,150.93038702011108,150.93038702011108,150.93038702011108,150.93038702011108,155.76937556266785,3,4.979025602340698,None,,,,,,,,,,,,,,,,,,118,1,2025-02-25_16h33.08.626,comp,2024.2.4,58.70050914872237,2025-02-25 16h34.24.564667 -0500,
44,44,0,critical,dhw,20.0,1.0,lower,78.0,78.0,133.0,57.0,57.0,133.0,2,1.7850580215454102,None,,,,,0,0,0,0,0,44,44,54,155.78702044487,,,,,,,,,,,,,,,,,,,,,,,,,,,,,,,,,,,,,,,,,,,,,,,,,,,,,,,,,,,,,,,,,,,,,,,,,,,,,,,,,78.0,78.0,133.0,57.0,57.0,133.0,1.0,1.1,-644,270,-480,271,-289,263,155.77082538604736,155.77090120315552,155.77412962913513,155.78702044487,155.93182396888733,155.93182396888733,155.93182396888733,155.93182396888733,155.93182396888733,155.93182396888733,155.93182396888733,157.58062410354614,2,1.7850580215454102,None,,,,,,,,,,,,,,,,,,118,1,2025-02-25_16h33.08.626,comp,2024.2.4,58.70050914872237,2025-02-25 16h34.24.564667 -0500,
45,45,0,critical,whd,35.0,4.0,lower,57.0,133.0,133.0,57.0,70.0,70.0,1,1.959862470626831,None,,,,,0,0,0,0,0,45,45,88,157.59781861305237,,,,,,,,,,,,,,,,,,,,,,,,,,,,,,,,,,,,,,,,,,,,,,,,,,,,,,,,,,,,,,,,,,,,,,,,,,,,,,,,,57.0,133.0,133.0,57.0,70.0,70.0,4.0,4.1,-191,-258,0,-10,160,-278,157.58214259147644,157.58221793174744,157.5860252380371,157.59781861305237,157.75212407112122,157.75212407112122,157.75212407112122,157.75212407112122,157.75212407112122,157.75212407112122,157.75212407112122,159.56032276153564,1,1.959862470626831,None,,,,,,,,,,,,,,,,,,118,1,2025-02-25_16h33.08.626,comp,2024.2.4,58.70050914872237,2025-02-25 16h34.24.564667 -0500,
46,46,0,critical,dwh,35.0,1.0,lower,70.0,70.0,57.0,133.0,133.0,57.0,3,4.299032211303711,None,,,,,0,0,0,0,0,46,46,60,159.57733392715454,,,,,,,,,,,,,,,,,,,,,,,,,,,,,,,,,,,,,,,,,,,,,,,,,,,,,,,,,,,,,,,,,,,,,,,,,,,,,,,,,70.0,70.0,57.0,133.0,133.0,57.0,1.0,1.2,-198,-3,0,7,191,-16,159.56183099746704,159.5619077682495,159.56517672538757,159.57733392715454,159.71440291404724,159.71440291404724,159.71440291404724,159.71440291404724,159.71440291404724,159.71440291404724,159.71440291404724,163.8831582069397,3,4.299032211303711,None,,,,,,,,,,,,,,,,,,118,1,2025-02-25_16h33.08.626,comp,2024.2.4,58.70050914872237,2025-02-25 16h34.24.564667 -0500,
47,47,0,filler_square,None,None,None,None,None,None,None,None,None,None,1,4.255375862121582,None,,,,,0,0,0,0,0,47,47,185,163.9004065990448,,,,,,,,,,,,,,,,,,,,,,,,,,,,,,,,,,,,,,,,,,,,,,,,,,,,,,,,,,,,,,,,,,,,,,,,,,,,,,,,,70.3413124269444,70.3413124269444,69.32322341140006,66.75297671011073,59.79895812153225,60.07784324347155,3.0,3.1,-165,282,0,4,159,-270,163.88534021377563,163.88542199134827,163.88958621025085,163.9004065990448,164.04865503311157,164.04865503311157,164.04865503311157,164.04865503311157,164.04865503311157,164.04865503311157,164.04865503311157,168.1680896282196,1,4.255375862121582,None,,,,,,,,,,,,,,,,,,118,1,2025-02-25_16h33.08.626,comp,2024.2.4,58.70050914872237,2025-02-25 16h34.24.564667 -0500,
48,48,0,critical,dwh,20.0,2.1,lower,78.0,78.0,57.0,133.0,133.0,57.0,2,3.825934886932373,None,,,,,0,0,0,0,0,48,48,30,168.1864893436432,,,,,,,,,,,,,,,,,,,,,,,,,,,,,,,,,,,,,,,,,,,,,,,,,,,,,,,,,,,,,,,,,,,,,,,,,,,,,,,,,78.0,78.0,57.0,133.0,133.0,57.0,2.1,2.11,-202,264,0,259,191,-257,168.16980528831482,168.16988253593445,168.1731448173523,168.1864893436432,168.3326711654663,168.3326711654663,168.3326711654663,168.3326711654663,168.3326711654663,168.3326711654663,168.3326711654663,172.0216588973999,2,3.825934886932373,None,,,,,,,,,,,,,,,,,,118,1,2025-02-25_16h33.08.626,comp,2024.2.4,58.70050914872237,2025-02-25 16h34.24.564667 -0500,
49,49,0,filler_random,None,None,None,None,None,None,None,None,None,None,3,1.284630298614502,None,,,,,0,0,0,0,0,49,49,139,172.04089260101318,,,,,,,,,,,,,,,,,,,,,,,,,,,,,,,,,,,,,,,,,,,,,,,,,,,,,,,,,,,,,,,,,,,,,,,,,,,,,,,,,73.90667741822676,195.0839403638686,80.61600643705154,66.31000185263781,153.3033120400242,177.22064779569797,4.0,4.1,-227,-283,0,-15,218,-252,172.02370691299438,172.02379059791565,172.02755618095398,172.04089260101318,172.18415808677673,172.18415808677673,172.18415808677673,172.18415808677673,172.18415808677673,172.18415808677673,172.18415808677673,173.33551740646362,3,1.284630298614502,None,,,,,,,,,,,,,,,,,,118,1,2025-02-25_16h33.08.626,comp,2024.2.4,58.70050914872237,2025-02-25 16h34.24.564667 -0500,
50,50,0,filler_random,None,None,None,None,None,None,None,None,None,None,2,1.5541527271270752,None,,,,,0,0,0,0,0,50,50,147,173.35391426086426,,,,,,,,,,,,,,,,,,,,,,,,,,,,,,,,,,,,,,,,,,,,,,,,,,,,,,,,,,,,,,,,,,,,,,,,,,,,,,,,,155.33453294852046,193.37622152260926,158.07955280204698,187.07737895217429,128.50198135988887,170.3121073199627,3.0,3.1,-286,281,0,-2,275,-276,173.33721160888672,173.33733296394348,173.3408555984497,173.35391426086426,173.50111389160156,173.50111389160156,173.50111389160156,173.50111389160156,173.50111389160156,173.50111389160156,173.50111389160156,174.9224066734314,2,1.5541527271270752,None,,,,,,,,,,,,,,,,,,118,1,2025-02-25_16h33.08.626,comp,2024.2.4,58.70050914872237,2025-02-25 16h34.24.564667 -0500,
51,51,0,critical,hdw,35.0,1.0,upper,200.0,125.0,127.0,127.0,125.0,200.0,3,2.4012069702148438,None,,,,,0,0,0,0,0,51,51,109,174.93852019309998,,,,,,,,,,,,,,,,,,,,,,,,,,,,,,,,,,,,,,,,,,,,,,,,,,,,,,,,,,,,,,,,,,,,,,,,,,,,,,,,,200.0,125.0,127.0,127.0,125.0,200.0,1.0,1.3,258,-260,480,-278,740,-254,174.92400240898132,174.92408108711243,174.92767882347107,174.93852019309998,175.08069777488708,175.08069777488708,175.08069777488708,175.08069777488708,175.08069777488708,175.08069777488708,175.08069777488708,177.35511422157288,3,2.4012069702148438,None,,,,,,,,,,,,,,,,,,118,1,2025-02-25_16h33.08.626,comp,2024.2.4,58.70050914872237,2025-02-25 16h34.24.564667 -0500,
52,52,0,critical,hwd,35.0,4.0,upper,200.0,125.0,125.0,200.0,127.0,127.0,2,1.1452455520629883,None,,,,,0,0,0,0,0,52,52,101,177.370685338974,,,,,,,,,,,,,,,,,,,,,,,,,,,,,,,,,,,,,,,,,,,,,,,,,,,,,,,,,,,,,,,,,,,,,,,,,,,,,,,,,200.0,125.0,125.0,200.0,127.0,127.0,4.0,4.2,-258,-2,0,-278,260,13,177.3567876815796,177.35686874389648,177.36038827896118,177.370685338974,177.51893973350525,177.51893973350525,177.51893973350525,177.51893973350525,177.51893973350525,177.51893973350525,177.51893973350525,178.51992106437683,2,1.1452455520629883,None,,,,,,,,,,,,,,,,,,118,1,2025-02-25_16h33.08.626,comp,2024.2.4,58.70050914872237,2025-02-25 16h34.24.564667 -0500,
53,53,0,filler_random,None,None,None,None,None,None,None,None,None,None,3,1.4875359535217285,None,,,,,0,0,0,0,0,53,53,144,178.54015445709229,,,,,,,,,,,,,,,,,,,,,,,,,,,,,,,,,,,,,,,,,,,,,,,,,,,,,,,,,,,,,,,,,,,,,,,,,,,,,,,,,116.77670322099634,188.42862359246865,57.886306436050596,131.38726026503386,121.5830602693299,183.4281469779109,2.2,2.22,-256,273,0,-290,253,-273,178.52158617973328,178.52166152000427,178.52508974075317,178.54015445709229,178.6867105960846,178.6867105960846,178.6867105960846,178.6867105960846,178.6867105960846,178.6867105960846,178.6867105960846,180.04053568840027,3,1.4875359535217285,None,,,,,,,,,,,,,,,,,,118,1,2025-02-25_16h33.08.626,comp,2024.2.4,58.70050914872237,2025-02-25 16h34.24.564667 -0500,
54,54,0,critical,wdh,20.0,2.1,upper,125.0,200.0,141.0,141.0,200.0,125.0,1,1.4988269805908203,None,,,,,0,0,0,0,0,54,54,11,180.0571744441986,,,,,,,,,,,,,,,,,,,,,,,,,,,,,,,,,,,,,,,,,,,,,,,,,,,,,,,,,,,,,,,,,,,,,,,,,,,,,,,,,125.0,200.0,141.0,141.0,200.0,125.0,2.1,2.12,-266,-279,0,-256,229,250,180.0424609184265,180.0426149368286,180.04633140563965,180.0571744441986,180.20753955841064,180.20753955841064,180.20753955841064,180.20753955841064,180.20753955841064,180.20753955841064,180.20753955841064,181.57303261756897,1,1.4988269805908203,None,,,,,,,,,,,,,,,,,,118,1,2025-02-25_16h33.08.626,comp,2024.2.4,58.70050914872237,2025-02-25 16h34.24.564667 -0500,
55,55,0,critical,hwd,35.0,4.0,lower,133.0,57.0,57.0,133.0,70.0,70.0,2,1.1744213104248047,None,,,,,0,0,0,0,0,55,55,100,181.58962225914001,,,,,,,,,,,,,,,,,,,,,,,,,,,,,,,,,,,,,,,,,,,,,,,,,,,,,,,,,,,,,,,,,,,,,,,,,,,,,,,,,133.0,57.0,57.0,133.0,70.0,70.0,4.0,4.2,-191,18,0,-286,198,11,181.57472825050354,181.5748052597046,181.5784740447998,181.58962225914001,181.73710131645203,181.73710131645203,181.73710131645203,181.73710131645203,181.73710131645203,181.73710131645203,181.73710131645203,182.76710200309753,2,1.1744213104248047,None,,,,,,,,,,,,,,,,,,118,1,2025-02-25_16h33.08.626,comp,2024.2.4,58.70050914872237,2025-02-25 16h34.24.564667 -0500,
56,56,0,critical,wdh,35.0,2.1,upper,125.0,200.0,127.0,127.0,200.0,125.0,1,2.2685160636901855,None,,,,,0,0,0,0,0,56,56,9,182.78345608711243,,,,,,,,,,,,,,,,,,,,,,,,,,,,,,,,,,,,,,,,,,,,,,,,,,,,,,,,,,,,,,,,,,,,,,,,,,,,,,,,,125.0,200.0,127.0,127.0,200.0,125.0,2.1,2.11,-260,269,0,283,222,-279,182.76880145072937,182.76889777183533,182.77265000343323,182.78345608711243,182.9357476234436,182.9357476234436,182.9357476234436,182.9357476234436,182.9357476234436,182.9357476234436,182.9357476234436,185.07101917266846,1,2.2685160636901855,None,,,,,,,,,,,,,,,,,,118,1,2025-02-25_16h33.08.626,comp,2024.2.4,58.70050914872237,2025-02-25 16h34.24.564667 -0500,
57,57,0,critical,hdw,20.0,4.0,lower,133.0,57.0,78.0,78.0,57.0,133.0,1,1.7141168117523193,None,,,,,0,0,0,0,0,57,57,118,185.0897467136383,,,,,,,,,,,,,,,,,,,,,,,,,,,,,,,,,,,,,,,,,,,,,,,,,,,,,,,,,,,,,,,,,,,,,,,,,,,,,,,,,133.0,57.0,78.0,78.0,57.0,133.0,4.0,4.1,-164,-271,0,18,202,-289,185.07260942459106,185.07269096374512,185.07643604278564,185.0897467136383,185.23909878730774,185.23909878730774,185.23909878730774,185.23909878730774,185.23909878730774,185.23909878730774,185.23909878730774,186.80902910232544,1,1.7141168117523193,None,,,,,,,,,,,,,,,,,,118,1,2025-02-25_16h33.08.626,comp,2024.2.4,58.70050914872237,2025-02-25 16h34.24.564667 -0500,
58,58,0,critical,hdw,35.0,3.0,lower,133.0,57.0,70.0,70.0,57.0,133.0,1,1.5254504680633545,None,,,,,0,0,0,0,0,58,58,110,186.83050727844238,,,,,,,,,,,,,,,,,,,,,,,,,,,,,,,,,,,,,,,,,,,,,,,,,,,,,,,,,,,,,,,,,,,,,,,,,,,,,,,,,133.0,57.0,70.0,70.0,57.0,133.0,3.0,3.2,-160,-257,0,16,198,263,186.8106336593628,186.81073665618896,186.81459736824036,186.83050727844238,186.97299146652222,186.97299146652222,186.97299146652222,186.97299146652222,186.97299146652222,186.97299146652222,186.97299146652222,188.37367367744446,1,1.5254504680633545,None,,,,,,,,,,,,,,,,,,118,1,2025-02-25_16h33.08.626,comp,2024.2.4,58.70050914872237,2025-02-25 16h34.24.564667 -0500,
59,59,0,filler_square,None,None,None,None,None,None,None,None,None,None,3,1.0054831504821777,None,,,,,0,0,0,0,0,59,59,191,188.3904585838318,,,,,,,,,,,,,,,,,,,,,,,,,,,,,,,,,,,,,,,,,,,,,,,,,,,,,,,,,,,,,,,,,,,,,,,,,,,,,,,,,153.20580413601056,91.30929142728431,186.8886454797624,61.703257954444695,191.37391181073778,191.37391181073778,3.0,3.2,-173,-271,0,-8,223,283,188.37574410438538,188.3758203983307,188.37998938560486,188.3904585838318,188.53954768180847,188.53954768180847,188.53954768180847,188.53954768180847,188.53954768180847,188.53954768180847,188.53954768180847,189.40623259544373,3,1.0054831504821777,None,,,,,,,,,,,,,,,,,,118,1,2025-02-25_16h33.08.626,comp,2024.2.4,58.70050914872237,2025-02-25 16h34.24.564667 -0500,
60,60,0,critical,dwh,35.0,2.1,lower,70.0,70.0,57.0,133.0,133.0,57.0,2,1.7722671031951904,None,,,,,0,0,0,0,0,60,60,4,189.42340850830078,,,,,,,,,,,,,,,,,,,,,,,,,,,,,,,,,,,,,,,,,,,,,,,,,,,,,,,,,,,,,,,,,,,,,,,,,,,,,,,,,70.0,70.0,57.0,133.0,133.0,57.0,2.1,2.12,-198,-255,0,-267,191,254,189.40779185295105,189.40786790847778,189.41223669052124,189.42340850830078,189.57411408424377,189.57411408424377,189.57411408424377,189.57411408424377,189.57411408424377,189.57411408424377,189.57411408424377,191.20669960975647,2,1.7722671031951904,None,,,,,,,,,,,,,,,,,,118,1,2025-02-25_16h33.08.626,comp,2024.2.4,58.70050914872237,2025-02-25 16h34.24.564667 -0500,
61,61,0,filler_square,None,None,None,None,None,None,None,None,None,None,3,2.107405424118042,None,,,,,0,0,0,0,0,61,61,175,191.22450399398804,,,,,,,,,,,,,,,,,,,,,,,,,,,,,,,,,,,,,,,,,,,,,,,,,,,,,,,,,,,,,,,,,,,,,,,,,,,,,,,,,64.04993281351365,80.12503241065406,88.86427591900393,69.73674027748291,91.35258994075576,91.35258994075576,3.0,3.1,-171,287,0,13,177,-274,191.20850801467896,191.2085840702057,191.21296048164368,191.22450399398804,191.37306356430054,191.37306356430054,191.37306356430054,191.37306356430054,191.37306356430054,191.37306356430054,191.37306356430054,193.34882259368896,3,2.107405424118042,None,,,,,,,,,,,,,,,,,,118,1,2025-02-25_16h33.08.626,comp,2024.2.4,58.70050914872237,2025-02-25 16h34.24.564667 -0500,
62,62,0,filler_square,None,None,None,None,None,None,None,None,None,None,2,1.5573241710662842,None,,,,,0,0,0,0,0,62,62,182,193.36680006980896,,,,,,,,,,,,,,,,,,,,,,,,,,,,,,,,,,,,,,,,,,,,,,,,,,,,,,,,,,,,,,,,,,,,,,,,,,,,,,,,,101.78255468395574,101.63815354042984,108.36629036081715,108.36629036081715,87.44048880987917,67.6508845454228,4.0,4.2,-201,-6,0,-281,184,-17,193.3506784439087,193.3507559299469,193.35401511192322,193.36680006980896,193.50909423828125,193.50909423828125,193.50909423828125,193.50909423828125,193.50909423828125,193.50909423828125,193.50909423828125,194.94090580940247,2,1.5573241710662842,None,,,,,,,,,,,,,,,,,,118,1,2025-02-25_16h33.08.626,comp,2024.2.4,58.70050914872237,2025-02-25 16h34.24.564667 -0500,
63,63,0,critical,hwd,20.0,2.1,upper,200.0,125.0,125.0,200.0,141.0,141.0,1,1.5751335620880127,None,,,,,0,0,0,0,0,63,63,43,194.9568407535553,,,,,,,,,,,,,,,,,,,,,,,,,,,,,,,,,,,,,,,,,,,,,,,,,,,,,,,,,,,,,,,,,,,,,,,,,,,,,,,,,200.0,125.0,125.0,200.0,141.0,141.0,2.1,2.11,-258,277,0,251,266,-269,194.94259548187256,194.9426703453064,194.94652462005615,194.9568407535553,195.1084234714508,195.1084234714508,195.1084234714508,195.1084234714508,195.1084234714508,195.1084234714508,195.1084234714508,196.54198336601257,1,1.5751335620880127,None,,,,,,,,,,,,,,,,,,118,1,2025-02-25_16h33.08.626,comp,2024.2.4,58.70050914872237,2025-02-25 16h34.24.564667 -0500,
64,64,0,critical,wdh,35.0,2.1,lower,57.0,133.0,70.0,70.0,133.0,57.0,2,1.9884755611419678,None,,,,,0,0,0,0,0,64,64,8,196.55925130844116,,,,,,,,,,,,,,,,,,,,,,,,,,,,,,,,,,,,,,,,,,,,,,,,,,,,,,,,,,,,,,,,,,,,,,,,,,,,,,,,,57.0,133.0,70.0,70.0,133.0,57.0,2.1,2.11,-198,260,0,268,160,-284,196.54360342025757,196.543683052063,196.54735207557678,196.55925130844116,196.71390676498413,196.71390676498413,196.71390676498413,196.71390676498413,196.71390676498413,196.71390676498413,196.71390676498413,198.55876278877258,2,1.9884755611419678,None,,,,,,,,,,,,,,,,,,118,1,2025-02-25_16h33.08.626,comp,2024.2.4,58.70050914872237,2025-02-25 16h34.24.564667 -0500,
65,65,0,critical,wdh,35.0,1.0,upper,125.0,200.0,127.0,127.0,200.0,125.0,3,1.996781587600708,None,,,,,0,0,0,0,0,65,65,73,198.57556533813477,,,,,,,,,,,,,,,,,,,,,,,,,,,,,,,,,,,,,,,,,,,,,,,,,,,,,,,,,,,,,,,,,,,,,,,,,,,,,,,,,125.0,200.0,127.0,127.0,200.0,125.0,1.0,1.3,220,-290,480,-288,702,-251,198.560373544693,198.56044936180115,198.56432032585144,198.57556533813477,198.72962546348572,198.72962546348572,198.72962546348572,198.72962546348572,198.72962546348572,198.72962546348572,198.72962546348572,200.57902097702026,3,1.996781587600708,None,,,,,,,,,,,,,,,,,,118,1,2025-02-25_16h33.08.626,comp,2024.2.4,58.70050914872237,2025-02-25 16h34.24.564667 -0500,
66,66,0,filler_random,None,None,None,None,None,None,None,None,None,None,1,1.0089530944824219,None,,,,,0,0,0,0,0,66,66,142,200.59557723999023,,,,,,,,,,,,,,,,,,,,,,,,,,,,,,,,,,,,,,,,,,,,,,,,,,,,,,,,,,,,,,,,,,,,,,,,,,,,,,,,,163.97081479039014,162.61584157757017,145.11520650244358,103.55227914574292,73.38182543141374,89.80990607254043,1.0,1.2,-229,1,0,3,193,15,200.58084654808044,200.58100485801697,200.5845754146576,200.59557723999023,200.74298763275146,200.74298763275146,200.74298763275146,200.74298763275146,200.74298763275146,200.74298763275146,200.74298763275146,201.6120035648346,1,1.0089530944824219,None,,,,,,,,,,,,,,,,,,118,1,2025-02-25_16h33.08.626,comp,2024.2.4,58.70050914872237,2025-02-25 16h34.24.564667 -0500,
67,67,0,critical,hdw,20.0,2.1,lower,133.0,57.0,78.0,78.0,57.0,133.0,1,2.7589361667633057,None,,,,,0,0,0,0,0,67,67,46,201.62896394729614,,,,,,,,,,,,,,,,,,,,,,,,,,,,,,,,,,,,,,,,,,,,,,,,,,,,,,,,,,,,,,,,,,,,,,,,,,,,,,,,,133.0,57.0,78.0,78.0,57.0,133.0,2.1,2.12,-164,-263,0,-282,202,270,201.61376953125,201.6139006614685,201.61779928207397,201.62896394729614,201.77539253234863,201.77539253234863,201.77539253234863,201.77539253234863,201.77539253234863,201.77539253234863,201.77539253234863,204.39888191223145,1,2.7589361667633057,None,,,,,,,,,,,,,,,,,,118,1,2025-02-25_16h33.08.626,comp,2024.2.4,58.70050914872237,2025-02-25 16h34.24.564667 -0500,
68,68,0,critical,hdw,35.0,2.1,upper,200.0,125.0,127.0,127.0,125.0,200.0,3,1.320404291152954,None,,,,,0,0,0,0,0,68,68,45,204.41971349716187,,,,,,,,,,,,,,,,,,,,,,,,,,,,,,,,,,,,,,,,,,,,,,,,,,,,,,,,,,,,,,,,,,,,,,,,,,,,,,,,,200.0,125.0,127.0,127.0,125.0,200.0,2.1,2.12,-222,-285,0,-281,260,267,204.40044713020325,204.4005265235901,204.4038589000702,204.41971349716187,204.56261539459229,204.56261539459229,204.56261539459229,204.56261539459229,204.56261539459229,204.56261539459229,204.56261539459229,205.74556255340576,3,1.320404291152954,None,,,,,,,,,,,,,,,,,,118,1,2025-02-25_16h33.08.626,comp,2024.2.4,58.70050914872237,2025-02-25 16h34.24.564667 -0500,
69,69,0,catch,None,None,None,None,None,None,None,None,None,None,1,1.186751365661621,None,,,,,0,0,0,0,0,69,69,122,205.76200819015503,,,,,,,,,,,,,,,,,,,,,,,,,,,,,,,,,,,,,,,,,,,,,,,,,,,,,,,,,,,,,,,,,,,,,,,,,,,,,,,,,152,173,78,112,81,109,1.0,1.1,-718,261,-480,252,-274,277,205.74767541885376,205.7477583885193,205.75134992599487,205.76200819015503,205.91113710403442,205.91113710403442,205.91113710403442,205.91113710403442,205.91113710403442,205.91113710403442,205.91113710403442,206.96684789657593,1,1.186751365661621,None,,,,,,,,,,,,,,,,,,118,1,2025-02-25_16h33.08.626,comp,2024.2.4,58.70050914872237,2025-02-25 16h34.24.564667 -0500,
70,70,0,critical,dwh,20.0,3.0,lower,78.0,78.0,57.0,133.0,133.0,57.0,3,1.8602557182312012,None,,,,,0,0,0,0,0,70,70,68,206.98357462882996,,,,,,,,,,,,,,,,,,,,,,,,,,,,,,,,,,,,,,,,,,,,,,,,,,,,,,,,,,,,,,,,,,,,,,,,,,,,,,,,,78.0,78.0,57.0,133.0,133.0,57.0,3.0,3.1,-202,285,0,-17,191,-267,206.96852016448975,206.96859216690063,206.97225999832153,206.98357462882996,207.12879943847656,207.12879943847656,207.12879943847656,207.12879943847656,207.12879943847656,207.12879943847656,207.12879943847656,208.8616669178009,3,1.8602557182312012,None,,,,,,,,,,,,,,,,,,118,1,2025-02-25_16h33.08.626,comp,2024.2.4,58.70050914872237,2025-02-25 16h34.24.564667 -0500,
71,71,0,filler_square,None,None,None,None,None,None,None,None,None,None,1,1.2944681644439697,None,,,,,0,0,0,0,0,71,71,187,208.87816643714905,,,,,,,,,,,,,,,,,,,,,,,,,,,,,,,,,,,,,,,,,,,,,,,,,,,,,,,,,,,,,,,,,,,,,,,,,,,,,,,,,155.93626551328856,155.93626551328856,140.7370227580775,98.2493671208123,150.83653251510526,79.24663898148361,2.2,2.21,-223,-254,0,285,185,257,208.86351370811462,208.86359214782715,208.86698865890503,208.87816643714905,209.0290286540985,209.0290286540985,209.0290286540985,209.0290286540985,209.0290286540985,209.0290286540985,209.0290286540985,210.18085360527039,1,1.2944681644439697,None,,,,,,,,,,,,,,,,,,118,1,2025-02-25_16h33.08.626,comp,2024.2.4,58.70050914872237,2025-02-25 16h34.24.564667 -0500,
72,72,0,critical,hwd,35.0,2.1,lower,133.0,57.0,57.0,133.0,70.0,70.0,1,2.926682233810425,None,,,,,0,0,0,0,0,72,72,16,210.19765377044678,,,,,,,,,,,,,,,,,,,,,,,,,,,,,,,,,,,,,,,,,,,,,,,,,,,,,,,,,,,,,,,,,,,,,,,,,,,,,,,,,133.0,57.0,57.0,133.0,70.0,70.0,2.1,2.12,-191,-261,0,-288,198,275,210.18269443511963,210.1827974319458,210.18687176704407,210.19765377044678,210.3463191986084,210.3463191986084,210.3463191986084,210.3463191986084,210.3463191986084,210.3463191986084,210.3463191986084,213.12883043289185,1,2.926682233810425,None,,,,,,,,,,,,,,,,,,118,1,2025-02-25_16h33.08.626,comp,2024.2.4,58.70050914872237,2025-02-25 16h34.24.564667 -0500,
73,73,0,filler_random,None,None,None,None,None,None,None,None,None,None,2,4.30627965927124,None,,,,,0,0,0,0,0,73,73,164,213.14604878425598,,,,,,,,,,,,,,,,,,,,,,,,,,,,,,,,,,,,,,,,,,,,,,,,,,,,,,,,,,,,,,,,,,,,,,,,,,,,,,,,,128.28455434742645,90.99597981240672,115.5141700599463,180.43199837494512,73.60245976459139,77.54666336071324,2.1,2.11,-232,251,0,273,225,-274,213.1306655406952,213.13077354431152,213.13430619239807,213.14604878425598,213.30003452301025,213.30003452301025,213.30003452301025,213.30003452301025,213.30003452301025,213.30003452301025,213.30003452301025,217.45557260513306,2,4.30627965927124,None,,,,,,,,,,,,,,,,,,118,1,2025-02-25_16h33.08.626,comp,2024.2.4,58.70050914872237,2025-02-25 16h34.24.564667 -0500,
74,74,0,critical,dwh,20.0,2.1,upper,141.0,141.0,125.0,200.0,200.0,125.0,2,2.394155263900757,None,,,,,0,0,0,0,0,74,74,31,217.4737286567688,,,,,,,,,,,,,,,,,,,,,,,,,,,,,,,,,,,,,,,,,,,,,,,,,,,,,,,,,,,,,,,,,,,,,,,,,,,,,,,,,141.0,141.0,125.0,200.0,200.0,125.0,2.1,2.12,-266,-251,0,-280,258,279,217.45709681510925,217.4571738243103,217.4604847431183,217.4737286567688,217.6159324645996,217.6159324645996,217.6159324645996,217.6159324645996,217.6159324645996,217.6159324645996,217.6159324645996,219.88213729858398,2,2.394155263900757,None,,,,,,,,,,,,,,,,,,118,1,2025-02-25_16h33.08.626,comp,2024.2.4,58.70050914872237,2025-02-25 16h34.24.564667 -0500,
75,75,0,filler_square,None,None,None,None,None,None,None,None,None,None,2,2.4168550968170166,None,,,,,0,0,0,0,0,75,75,205,219.89899563789368,,,,,,,,,,,,,,,,,,,,,,,,,,,,,,,,,,,,,,,,,,,,,,,,,,,,,,,,,,,,,,,,,,,,,,,,,,,,,,,,,141.63227796548202,96.79742253775032,173.89485349441125,173.89485349441125,101.92158682907666,148.82119516389952,2.2,2.22,-231,264,0,-278,257,-255,219.88434529304504,219.884428024292,219.88842630386353,219.89899563789368,220.05052375793457,220.05052375793457,220.05052375793457,220.05052375793457,220.05052375793457,220.05052375793457,220.05052375793457,222.33246445655823,2,2.4168550968170166,None,,,,,,,,,,,,,,,,,,118,1,2025-02-25_16h33.08.626,comp,2024.2.4,58.70050914872237,2025-02-25 16h34.24.564667 -0500,
76,76,0,filler_square,None,None,None,None,None,None,None,None,None,None,3,4.50849461555481,None,,,,,0,0,0,0,0,76,76,198,222.35393381118774,,,,,,,,,,,,,,,,,,,,,,,,,,,,,,,,,,,,,,,,,,,,,,,,,,,,,,,,,,,,,,,,,,,,,,,,,,,,,,,,,92.43365987246456,60.38373691874441,74.94813119348441,76.77595803405436,92.57910853104715,92.57910853104715,1.0,1.2,-165,0,0,5,181,-10,222.3342707157135,222.33436799049377,222.3384494781494,222.35393381118774,222.4884603023529,222.4884603023529,222.4884603023529,222.4884603023529,222.4884603023529,222.4884603023529,222.4884603023529,226.86615347862244,3,4.50849461555481,None,,,,,,,,,,,,,,,,,,118,1,2025-02-25_16h33.08.626,comp,2024.2.4,58.70050914872237,2025-02-25 16h34.24.564667 -0500,
77,77,0,filler_square,None,None,None,None,None,None,None,None,None,None,1,1.2423841953277588,None,,,,,0,0,0,0,0,77,77,177,226.88198161125183,,,,,,,,,,,,,,,,,,,,,,,,,,,,,,,,,,,,,,,,,,,,,,,,,,,,,,,,,,,,,,,,,,,,,,,,,,,,,,,,,187.69604261033763,187.69604261033763,177.78655865099057,158.4825407455237,157.59458388412168,150.14919617140342,1.0,1.1,-749,283,-480,277,-230,267,226.86801838874817,226.86812043190002,226.87162494659424,226.88198161125183,227.03422212600708,227.03422212600708,227.03422212600708,227.03422212600708,227.03422212600708,227.03422212600708,227.03422212600708,228.13601803779602,1,1.2423841953277588,None,,,,,,,,,,,,,,,,,,118,1,2025-02-25_16h33.08.626,comp,2024.2.4,58.70050914872237,2025-02-25 16h34.24.564667 -0500,
78,78,0,critical,hwd,35.0,2.1,lower,133.0,57.0,57.0,133.0,70.0,70.0,1,2.0030934810638428,None,,,,,0,0,0,0,0,78,78,40,228.15286445617676,,,,,,,,,,,,,,,,,,,,,,,,,,,,,,,,,,,,,,,,,,,,,,,,,,,,,,,,,,,,,,,,,,,,,,,,,,,,,,,,,133.0,57.0,57.0,133.0,70.0,70.0,2.1,2.12,-191,-271,0,-277,198,254,228.13773155212402,228.13783502578735,228.14181447029114,228.15286445617676,228.3017439842224,228.3017439842224,228.3017439842224,228.3017439842224,228.3017439842224,228.3017439842224,228.3017439842224,230.17366075515747,1,2.0030934810638428,None,,,,,,,,,,,,,,,,,,118,1,2025-02-25_16h33.08.626,comp,2024.2.4,58.70050914872237,2025-02-25 16h34.24.564667 -0500,
79,79,0,filler_random,None,None,None,None,None,None,None,None,None,None,1,1.9219028949737549,None,,,,,0,0,0,0,0,79,79,165,230.19477820396423,,,,,,,,,,,,,,,,,,,,,,,,,,,,,,,,,,,,,,,,,,,,,,,,,,,,,,,,,,,,,,,,,,,,,,,,,,,,,,,,,162.02890404514574,92.77848620168555,57.531991248966904,143.9682984443625,127.20344542903061,62.92119830323217,2.1,2.11,-214,277,0,251,199,-288,230.17545771598816,230.17558765411377,230.17940497398376,230.19477820396423,230.33538341522217,230.33538341522217,230.33538341522217,230.33538341522217,230.33538341522217,230.33538341522217,230.33538341522217,232.1203510761261,1,1.9219028949737549,None,,,,,,,,,,,,,,,,,,118,1,2025-02-25_16h33.08.626,comp,2024.2.4,58.70050914872237,2025-02-25 16h34.24.564667 -0500,
80,80,0,filler_random,None,None,None,None,None,None,None,None,None,None,2,1.371598720550537,None,,,,,0,0,0,0,0,80,80,163,232.1374752521515,,,,,,,,,,,,,,,,,,,,,,,,,,,,,,,,,,,,,,,,,,,,,,,,,,,,,,,,,,,,,,,,,,,,,,,,,,,,,,,,,70.91369081378679,66.45837639541398,187.78900497752826,67.72046488613093,122.54557564151938,69.31122995876926,1.0,1.2,-163,-13,0,-4,165,3,232.122168302536,232.12230825424194,232.12642550468445,232.1374752521515,232.28600001335144,232.28600001335144,232.28600001335144,232.28600001335144,232.28600001335144,232.28600001335144,232.28600001335144,233.5247917175293,2,1.371598720550537,None,,,,,,,,,,,,,,,,,,118,1,2025-02-25_16h33.08.626,comp,2024.2.4,58.70050914872237,2025-02-25 16h34.24.564667 -0500,
81,81,0,filler_random,None,None,None,None,None,None,None,None,None,None,2,3.1103248596191406,None,,,,,0,0,0,0,0,81,81,169,233.54182147979736,,,,,,,,,,,,,,,,,,,,,,,,,,,,,,,,,,,,,,,,,,,,,,,,,,,,,,,,,,,,,,,,,,,,,,,,,,,,,,,,,186.2602981226737,93.42725575925745,175.45575866995813,133.65134517446128,118.73184931203949,162.27243931172254,3.0,3.2,-210,-264,0,16,244,256,233.5266604423523,233.52677726745605,233.5304079055786,233.54182147979736,233.68644404411316,233.68644404411316,233.68644404411316,233.68644404411316,233.68644404411316,233.68644404411316,233.68644404411316,236.65470790863037,2,3.1103248596191406,None,,,,,,,,,,,,,,,,,,118,1,2025-02-25_16h33.08.626,comp,2024.2.4,58.70050914872237,2025-02-25 16h34.24.564667 -0500,
82,82,0,critical,dwh,20.0,1.0,lower,78.0,78.0,57.0,133.0,133.0,57.0,3,2.260242223739624,None,,,,,0,0,0,0,0,82,82,66,236.67252111434937,,,,,,,,,,,,,,,,,,,,,,,,,,,,,,,,,,,,,,,,,,,,,,,,,,,,,,,,,,,,,,,,,,,,,,,,,,,,,,,,,78.0,78.0,57.0,133.0,133.0,57.0,1.0,1.1,-682,282,-480,251,-289,279,236.6562535762787,236.65638184547424,236.6598837375641,236.67252111434937,236.82135367393494,236.82135367393494,236.82135367393494,236.82135367393494,236.82135367393494,236.82135367393494,236.82135367393494,238.94105982780457,3,2.260242223739624,None,,,,,,,,,,,,,,,,,,118,1,2025-02-25_16h33.08.626,comp,2024.2.4,58.70050914872237,2025-02-25 16h34.24.564667 -0500,
83,83,0,filler_random,None,None,None,None,None,None,None,None,None,None,2,1.29945969581604,None,,,,,0,0,0,0,0,83,83,145,238.96189713478088,,,,,,,,,,,,,,,,,,,,,,,,,,,,,,,,,,,,,,,,,,,,,,,,,,,,,,,,,,,,,,,,,,,,,,,,,,,,,,,,,86.6630551914997,109.74893625781203,135.08526967371068,143.88512305927134,163.65325289398356,99.88032893506137,2.1,2.12,-223,-267,0,-288,218,252,238.9429852962494,238.9430637359619,238.94636058807373,238.96189713478088,239.10384511947632,239.10384511947632,239.10384511947632,239.10384511947632,239.10384511947632,239.10384511947632,239.10384511947632,240.27335858345032,2,1.29945969581604,None,,,,,,,,,,,,,,,,,,118,1,2025-02-25_16h33.08.626,comp,2024.2.4,58.70050914872237,2025-02-25 16h34.24.564667 -0500,
84,84,0,critical,dwh,35.0,2.1,upper,127.0,127.0,125.0,200.0,200.0,125.0,2,4.30657434463501,None,,,,,0,0,0,0,0,84,84,5,240.28958749771118,,,,,,,,,,,,,,,,,,,,,,,,,,,,,,,,,,,,,,,,,,,,,,,,,,,,,,,,,,,,,,,,,,,,,,,,,,,,,,,,,127.0,127.0,125.0,200.0,200.0,125.0,2.1,2.12,-260,-274,0,-272,258,264,240.27495121955872,240.27502751350403,240.27864265441895,240.28958749771118,240.43892002105713,240.43892002105713,240.43892002105713,240.43892002105713,240.43892002105713,240.43892002105713,240.43892002105713,244.60696053504944,2,4.30657434463501,None,,,,,,,,,,,,,,,,,,118,1,2025-02-25_16h33.08.626,comp,2024.2.4,58.70050914872237,2025-02-25 16h34.24.564667 -0500,
85,85,0,filler_random,None,None,None,None,None,None,None,None,None,None,3,1.0447392463684082,None,,,,,0,0,0,0,0,85,85,155,244.6239776611328,,,,,,,,,,,,,,,,,,,,,,,,,,,,,,,,,,,,,,,,,,,,,,,,,,,,,,,,,,,,,,,,,,,,,,,,,,,,,,,,,186.4828602575195,89.84931240385016,167.41475264553918,61.455269508719866,170.53426933220044,169.22383690035517,1.0,1.3,308,-288,480,-280,691,-265,244.6087691783905,244.6088981628418,244.61293268203735,244.6239776611328,244.77313542366028,244.77313542366028,244.77313542366028,244.77313542366028,244.77313542366028,244.77313542366028,244.77313542366028,245.67391777038574,3,1.0447392463684082,None,,,,,,,,,,,,,,,,,,118,1,2025-02-25_16h33.08.626,comp,2024.2.4,58.70050914872237,2025-02-25 16h34.24.564667 -0500,
86,86,0,critical,wdh,20.0,1.0,lower,57.0,133.0,78.0,78.0,133.0,57.0,3,1.8016688823699951,None,,,,,0,0,0,0,0,86,86,78,245.69040489196777,,,,,,,,,,,,,,,,,,,,,,,,,,,,,,,,,,,,,,,,,,,,,,,,,,,,,,,,,,,,,,,,,,,,,,,,,,,,,,,,,57.0,133.0,78.0,78.0,133.0,57.0,1.0,1.2,-202,4,0,12,164,20,245.67552065849304,245.67559695243835,245.6794102191925,245.69040489196777,245.84034276008606,245.84034276008606,245.84034276008606,245.84034276008606,245.84034276008606,245.84034276008606,245.84034276008606,247.5076129436493,3,1.8016688823699951,None,,,,,,,,,,,,,,,,,,118,1,2025-02-25_16h33.08.626,comp,2024.2.4,58.70050914872237,2025-02-25 16h34.24.564667 -0500,
87,87,0,critical,dhw,20.0,4.0,lower,78.0,78.0,133.0,57.0,57.0,133.0,3,1.751901388168335,None,,,,,0,0,0,0,0,87,87,58,247.52402257919312,,,,,,,,,,,,,,,,,,,,,,,,,,,,,,,,,,,,,,,,,,,,,,,,,,,,,,,,,,,,,,,,,,,,,,,,,,,,,,,,,78.0,78.0,133.0,57.0,57.0,133.0,4.0,4.1,-164,-255,0,-6,191,-252,247.5093216896057,247.50945568084717,247.51340985298157,247.52402257919312,247.68099999427795,247.68099999427795,247.68099999427795,247.68099999427795,247.68099999427795,247.68099999427795,247.68099999427795,249.29273176193237,3,1.751901388168335,None,,,,,,,,,,,,,,,,,,118,1,2025-02-25_16h33.08.626,comp,2024.2.4,58.70050914872237,2025-02-25 16h34.24.564667 -0500,
88,88,0,critical,dhw,20.0,2.1,lower,78.0,78.0,133.0,57.0,57.0,133.0,2,3.280219316482544,None,,,,,0,0,0,0,0,88,88,2,249.30840826034546,,,,,,,,,,,,,,,,,,,,,,,,,,,,,,,,,,,,,,,,,,,,,,,,,,,,,,,,,,,,,,,,,,,,,,,,,,,,,,,,,78.0,78.0,133.0,57.0,57.0,133.0,2.1,2.12,-164,-278,0,-277,191,288,249.29435110092163,249.29442930221558,249.29812097549438,249.30840826034546,249.45507168769836,249.45507168769836,249.45507168769836,249.45507168769836,249.45507168769836,249.45507168769836,249.45507168769836,252.5936975479126,2,3.280219316482544,None,,,,,,,,,,,,,,,,,,118,1,2025-02-25_16h33.08.626,comp,2024.2.4,58.70050914872237,2025-02-25 16h34.24.564667 -0500,
89,89,0,critical,hdw,35.0,2.1,lower,133.0,57.0,70.0,70.0,57.0,133.0,1,1.9458158016204834,None,,,,,0,0,0,0,0,89,89,20,252.61058688163757,,,,,,,,,,,,,,,,,,,,,,,,,,,,,,,,,,,,,,,,,,,,,,,,,,,,,,,,,,,,,,,,,,,,,,,,,,,,,,,,,133.0,57.0,70.0,70.0,57.0,133.0,2.1,2.12,-160,-260,0,-265,198,261,252.5954864025116,252.595618724823,252.59969186782837,252.61058688163757,252.7593858242035,252.7593858242035,252.7593858242035,252.7593858242035,252.7593858242035,252.7593858242035,252.7593858242035,254.5601089000702,1,1.9458158016204834,None,,,,,,,,,,,,,,,,,,118,1,2025-02-25_16h33.08.626,comp,2024.2.4,58.70050914872237,2025-02-25 16h34.24.564667 -0500,
90,90,0,filler_square,None,None,None,None,None,None,None,None,None,None,3,1.595668077468872,None,,,,,0,0,0,0,0,90,90,202,254.5767343044281,,,,,,,,,,,,,,,,,,,,,,,,,,,,,,,,,,,,,,,,,,,,,,,,,,,,,,,,,,,,,,,,,,,,,,,,,,,,,,,,,64.21646857704445,64.21646857704445,62.83124348784292,60.589771792730275,58.054005029715526,62.12012324529693,3.0,3.2,-158,-274,0,10,157,256,254.56203389167786,254.5621144771576,254.56590127944946,254.5767343044281,254.72453331947327,254.72453331947327,254.72453331947327,254.72453331947327,254.72453331947327,254.72453331947327,254.72453331947327,256.1762099266052,3,1.595668077468872,None,,,,,,,,,,,,,,,,,,118,1,2025-02-25_16h33.08.626,comp,2024.2.4,58.70050914872237,2025-02-25 16h34.24.564667 -0500,
91,91,0,filler_square,None,None,None,None,None,None,None,None,None,None,1,1.5242042541503906,None,,,,,0,0,0,0,0,91,91,173,256.19308280944824,,,,,,,,,,,,,,,,,,,,,,,,,,,,,,,,,,,,,,,,,,,,,,,,,,,,,,,,,,,,,,,,,,,,,,,,,,,,,,,,,159.31869442021048,159.31869442021048,67.88910070544583,123.78652084656582,135.0272748373947,138.95437980091324,3.0,3.2,-238,-289,0,9,227,281,256.1783244609833,256.1784043312073,256.1821827888489,256.19308280944824,256.3462619781494,256.3462619781494,256.3462619781494,256.3462619781494,256.3462619781494,256.3462619781494,256.3462619781494,257.73309350013733,1,1.5242042541503906,None,,,,,,,,,,,,,,,,,,118,1,2025-02-25_16h33.08.626,comp,2024.2.4,58.70050914872237,2025-02-25 16h34.24.564667 -0500,
92,92,0,critical,dwh,35.0,3.0,upper,127.0,127.0,125.0,200.0,200.0,125.0,3,3.134922981262207,None,,,,,0,0,0,0,0,92,92,63,257.74936270713806,,,,,,,,,,,,,,,,,,,,,,,,,,,,,,,,,,,,,,,,,,,,,,,,,,,,,,,,,,,,,,,,,,,,,,,,,,,,,,,,,127.0,127.0,125.0,200.0,200.0,125.0,3.0,3.1,-260,257,0,-12,258,-262,257.73468804359436,257.7347662448883,257.73806834220886,257.74936270713806,257.89425778388977,257.89425778388977,257.89425778388977,257.89425778388977,257.89425778388977,257.89425778388977,257.89425778388977,260.8883080482483,3,3.134922981262207,None,,,,,,,,,,,,,,,,,,118,1,2025-02-25_16h33.08.626,comp,2024.2.4,58.70050914872237,2025-02-25 16h34.24.564667 -0500,
93,93,0,filler_square,None,None,None,None,None,None,None,None,None,None,2,1.21746826171875,None,,,,,0,0,0,0,0,93,93,195,260.9073784351349,,,,,,,,,,,,,,,,,,,,,,,,,,,,,,,,,,,,,,,,,,,,,,,,,,,,,,,,,,,,,,,,,,,,,,,,,,,,,,,,,87.64946023733408,113.92449245967242,120.97662004223426,120.97662004223426,97.51933329668134,95.58899194752713,1.0,1.2,-213,1,0,0,204,4,260.8902237415314,260.89033126831055,260.89401626586914,260.9073784351349,261.04589891433716,261.04589891433716,261.04589891433716,261.04589891433716,261.04589891433716,261.04589891433716,261.04589891433716,262.129487991333,2,1.21746826171875,None,,,,,,,,,,,,,,,,,,118,1,2025-02-25_16h33.08.626,comp,2024.2.4,58.70050914872237,2025-02-25 16h34.24.564667 -0500,
94,94,0,filler_square,None,None,None,None,None,None,None,None,None,None,2,0.9687526226043701,None,,,,,0,0,0,0,0,94,94,186,262.1472761631012,,,,,,,,,,,,,,,,,,,,,,,,,,,,,,,,,,,,,,,,,,,,,,,,,,,,,,,,,,,,,,,,,,,,,,,,,,,,,,,,,61.06668931430961,92.27240340674956,114.19525358378971,114.19525358378971,106.30759722708575,73.66427934553401,3.0,3.1,-199,284,0,-4,190,-254,262.1312611103058,262.1313693523407,262.1356954574585,262.1472761631012,262.2953839302063,262.2953839302063,262.2953839302063,262.2953839302063,262.2953839302063,262.2953839302063,262.2953839302063,263.1294641494751,2,0.9687526226043701,None,,,,,,,,,,,,,,,,,,118,1,2025-02-25_16h33.08.626,comp,2024.2.4,58.70050914872237,2025-02-25 16h34.24.564667 -0500,
95,95,0,filler_random,None,None,None,None,None,None,None,None,None,None,3,0.9628546237945557,None,,,,,0,0,0,0,0,95,95,133,263.1460030078888,,,,,,,,,,,,,,,,,,,,,,,,,,,,,,,,,,,,,,,,,,,,,,,,,,,,,,,,,,,,,,,,,,,,,,,,,,,,,,,,,136.10134134614708,70.1497214824574,81.4419148392628,145.7162347822639,130.9189354261759,155.98190001887355,1.0,1.2,-204,-4,0,-16,247,3,263.1311197280884,263.13119769096375,263.13557410240173,263.1460030078888,263.29275465011597,263.29275465011597,263.29275465011597,263.29275465011597,263.29275465011597,263.29275465011597,263.29275465011597,264.1145529747009,3,0.9628546237945557,None,,,,,,,,,,,,,,,,,,118,1,2025-02-25_16h33.08.626,comp,2024.2.4,58.70050914872237,2025-02-25 16h34.24.564667 -0500,
96,96,0,critical,dwh,20.0,2.1,lower,78.0,78.0,57.0,133.0,133.0,57.0,1,2.544612169265747,None,,,,,0,0,0,0,0,96,96,6,264.131769657135,,,,,,,,,,,,,,,,,,,,,,,,,,,,,,,,,,,,,,,,,,,,,,,,,,,,,,,,,,,,,,,,,,,,,,,,,,,,,,,,,78.0,78.0,57.0,133.0,133.0,57.0,2.1,2.12,-202,-276,0,-287,191,262,264.1163351535797,264.11642146110535,264.1206097602844,264.131769657135,264.271591424942,264.271591424942,264.271591424942,264.271591424942,264.271591424942,264.271591424942,264.271591424942,266.67919063568115,1,2.544612169265747,None,,,,,,,,,,,,,,,,,,118,1,2025-02-25_16h33.08.626,comp,2024.2.4,58.70050914872237,2025-02-25 16h34.24.564667 -0500,
97,97,0,catch,None,None,None,None,None,None,None,None,None,None,3,0.9952492713928223,None,,,,,0,0,0,0,0,97,97,121,266.6970953941345,,,,,,,,,,,,,,,,,,,,,,,,,,,,,,,,,,,,,,,,,,,,,,,,,,,,,,,,,,,,,,,,,,,,,,,,,,,,,,,,,128,62,77,113,182,143,4.0,4.2,-184,17,0,-270,224,19,266.6811501979828,266.6812307834625,266.68473744392395,266.6970953941345,266.84713792800903,266.84713792800903,266.84713792800903,266.84713792800903,266.84713792800903,266.84713792800903,266.84713792800903,267.69447350502014,3,0.9952492713928223,None,,,,,,,,,,,,,,,,,,118,1,2025-02-25_16h33.08.626,comp,2024.2.4,58.70050914872237,2025-02-25 16h34.24.564667 -0500,
98,98,0,filler_square,None,None,None,None,None,None,None,None,None,None,1,1.2788376808166504,None,,,,,0,0,0,0,0,98,98,174,267.7124195098877,,,,,,,,,,,,,,,,,,,,,,,,,,,,,,,,,,,,,,,,,,,,,,,,,,,,,,,,,,,,,,,,,,,,,,,,,,,,,,,,,176.60563746089844,176.60563746089844,165.80225469952074,95.37773376440265,158.18715807971262,164.4827498906435,1.0,1.3,248,-266,480,-268,706,-283,267.69651341438293,267.69658875465393,267.70030903816223,267.7124195098877,267.8518340587616,267.8518340587616,267.8518340587616,267.8518340587616,267.8518340587616,267.8518340587616,267.8518340587616,268.9969365596771,1,1.2788376808166504,None,,,,,,,,,,,,,,,,,,118,1,2025-02-25_16h33.08.626,comp,2024.2.4,58.70050914872237,2025-02-25 16h34.24.564667 -0500,
99,99,0,filler_random,None,None,None,None,None,None,None,None,None,None,1,1.4211480617523193,None,,,,,0,0,0,0,0,99,99,156,269.01552510261536,,,,,,,,,,,,,,,,,,,,,,,,,,,,,,,,,,,,,,,,,,,,,,,,,,,,,,,,,,,,,,,,,,,,,,,,,,,,,,,,,182.04169153905283,74.21620444381662,62.16018593580594,142.15952405130085,145.93980634915295,112.2261416654841,3.0,3.2,-204,-253,0,-7,223,287,268.9987142086029,268.99879217147827,269.00230288505554,269.01552510261536,269.16538882255554,269.16538882255554,269.16538882255554,269.16538882255554,269.16538882255554,269.16538882255554,269.16538882255554,270.4481613636017,1,1.4211480617523193,None,,,,,,,,,,,,,,,,,,118,1,2025-02-25_16h33.08.626,comp,2024.2.4,58.70050914872237,2025-02-25 16h34.24.564667 -0500,
100,100,0,filler_square,None,None,None,None,None,None,None,None,None,None,3,1.76173734664917,None,,,,,0,0,0,0,0,100,100,192,270.46618700027466,,,,,,,,,,,,,,,,,,,,,,,,,,,,,,,,,,,,,,,,,,,,,,,,,,,,,,,,,,,,,,,,,,,,,,,,,,,,,,,,,60.707102718668324,60.01575820592752,75.80437325587023,75.80437325587023,67.98475330323032,64.91994105767188,4.0,4.2,-164,1,0,-251,166,-5,270.4502577781677,270.45037293434143,270.4543704986572,270.46618700027466,270.6137719154358,270.6137719154358,270.6137719154358,270.6137719154358,270.6137719154358,270.6137719154358,270.6137719154358,272.24091148376465,3,1.76173734664917,None,,,,,,,,,,,,,,,,,,118,1,2025-02-25_16h33.08.626,comp,2024.2.4,58.70050914872237,2025-02-25 16h34.24.564667 -0500,
101,101,0,filler_square,None,None,None,None,None,None,None,None,None,None,3,2.112291097640991,None,,,,,0,0,0,0,0,101,101,176,272.26185178756714,,,,,,,,,,,,,,,,,,,,,,,,,,,,,,,,,,,,,,,,,,,,,,,,,,,,,,,,,,,,,,,,,,,,,,,,,,,,,,,,,61.966142459169596,159.01643954030197,68.23467114134156,144.22227367647514,198.38308945527936,198.38308945527936,1.0,1.1,-728,286,-480,257,-213,290,272.24292254447937,272.2429986000061,272.246768951416,272.26185178756714,272.3988399505615,272.3988399505615,272.3988399505615,272.3988399505615,272.3988399505615,272.3988399505615,272.3988399505615,274.38173270225525,3,2.112291097640991,None,,,,,,,,,,,,,,,,,,118,1,2025-02-25_16h33.08.626,comp,2024.2.4,58.70050914872237,2025-02-25 16h34.24.564667 -0500,
102,102,0,critical,whd,20.0,1.0,lower,57.0,133.0,133.0,57.0,78.0,78.0,1,1.6168818473815918,None,,,,,0,0,0,0,0,102,102,90,274.4031181335449,,,,,,,,,,,,,,,,,,,,,,,,,,,,,,,,,,,,,,,,,,,,,,,,,,,,,,,,,,,,,,,,,,,,,,,,,,,,,,,,,57.0,133.0,133.0,57.0,78.0,78.0,1.0,1.1,-671,280,-480,271,-316,283,274.3833110332489,274.3833894729614,274.3871741294861,274.4031181335449,274.5385172367096,274.5385172367096,274.5385172367096,274.5385172367096,274.5385172367096,274.5385172367096,274.5385172367096,276.0329728126526,1,1.6168818473815918,None,,,,,,,,,,,,,,,,,,118,1,2025-02-25_16h33.08.626,comp,2024.2.4,58.70050914872237,2025-02-25 16h34.24.564667 -0500,
103,103,0,critical,whd,35.0,3.0,lower,57.0,133.0,133.0,57.0,70.0,70.0,2,1.5762076377868652,None,,,,,0,0,0,0,0,103,103,86,276.0522496700287,,,,,,,,,,,,,,,,,,,,,,,,,,,,,,,,,,,,,,,,,,,,,,,,,,,,,,,,,,,,,,,,,,,,,,,,,,,,,,,,,57.0,133.0,133.0,57.0,70.0,70.0,3.0,3.2,-191,-283,0,-5,160,281,276.0345129966736,276.0345847606659,276.0384097099304,276.0522496700287,276.19908714294434,276.19908714294434,276.19908714294434,276.19908714294434,276.19908714294434,276.19908714294434,276.19908714294434,277.63721323013306,2,1.5762076377868652,None,,,,,,,,,,,,,,,,,,118,1,2025-02-25_16h33.08.626,comp,2024.2.4,58.70050914872237,2025-02-25 16h34.24.564667 -0500,
104,104,0,filler_random,None,None,None,None,None,None,None,None,None,None,1,1.7815184593200684,None,,,,,0,0,0,0,0,104,104,168,277.6544187068939,,,,,,,,,,,,,,,,,,,,,,,,,,,,,,,,,,,,,,,,,,,,,,,,,,,,,,,,,,,,,,,,,,,,,,,,,,,,,,,,,130.01802208111428,133.45215354654164,89.5014346582591,112.65445044563278,119.99510061778247,147.7058484062336,2.1,2.12,-219,-274,0,-286,226,271,277.63913440704346,277.6392548084259,277.64295744895935,277.6544187068939,277.8018774986267,277.8018774986267,277.8018774986267,277.8018774986267,277.8018774986267,277.8018774986267,277.8018774986267,279.44996094703674,1,1.7815184593200684,None,,,,,,,,,,,,,,,,,,118,1,2025-02-25_16h33.08.626,comp,2024.2.4,58.70050914872237,2025-02-25 16h34.24.564667 -0500,
105,105,0,critical,wdh,20.0,4.0,upper,125.0,200.0,141.0,141.0,200.0,125.0,1,1.817748785018921,None,,,,,0,0,0,0,0,105,105,83,279.4665005207062,,,,,,,,,,,,,,,,,,,,,,,,,,,,,,,,,,,,,,,,,,,,,,,,,,,,,,,,,,,,,,,,,,,,,,,,,,,,,,,,,125.0,200.0,141.0,141.0,200.0,125.0,4.0,4.2,-266,3,0,-274,229,16,279.4515428543091,279.4516203403473,279.4551753997803,279.4665005207062,279.6043698787689,279.6043698787689,279.6043698787689,279.6043698787689,279.6043698787689,279.6043698787689,279.6043698787689,281.3015298843384,1,1.817748785018921,None,,,,,,,,,,,,,,,,,,118,1,2025-02-25_16h33.08.626,comp,2024.2.4,58.70050914872237,2025-02-25 16h34.24.564667 -0500,
106,106,0,critical,dwh,20.0,3.0,upper,141.0,141.0,125.0,200.0,200.0,125.0,2,2.8149349689483643,None,,,,,0,0,0,0,0,106,106,69,281.3177704811096,,,,,,,,,,,,,,,,,,,,,,,,,,,,,,,,,,,,,,,,,,,,,,,,,,,,,,,,,,,,,,,,,,,,,,,,,,,,,,,,,141.0,141.0,125.0,200.0,200.0,125.0,3.0,3.2,-266,-251,0,-8,258,281,281.3030836582184,281.3031578063965,281.30671739578247,281.3177704811096,281.4738099575043,281.4738099575043,281.4738099575043,281.4738099575043,281.4738099575043,281.4738099575043,281.4738099575043,284.1359374523163,2,2.8149349689483643,None,,,,,,,,,,,,,,,,,,118,1,2025-02-25_16h33.08.626,comp,2024.2.4,58.70050914872237,2025-02-25 16h34.24.564667 -0500,
107,107,0,filler_random,None,None,None,None,None,None,None,None,None,None,1,1.051311731338501,None,,,,,0,0,0,0,0,107,107,166,284.1526565551758,,,,,,,,,,,,,,,,,,,,,,,,,,,,,,,,,,,,,,,,,,,,,,,,,,,,,,,,,,,,,,,,,,,,,,,,,,,,,,,,,186.90064601341876,181.24809973674292,76.40255150535529,136.5694416655781,89.04432364890963,109.34831616713382,1.0,1.1,-735,270,-480,271,-261,260,284.137802362442,284.1379225254059,284.14174461364746,284.1526565551758,284.30300307273865,284.30300307273865,284.30300307273865,284.30300307273865,284.30300307273865,284.30300307273865,284.30300307273865,285.218816280365,1,1.051311731338501,None,,,,,,,,,,,,,,,,,,118,1,2025-02-25_16h33.08.626,comp,2024.2.4,58.70050914872237,2025-02-25 16h34.24.564667 -0500,
108,108,0,filler_random,None,None,None,None,None,None,None,None,None,None,1,5.7578346729278564,None,,,,,0,0,0,0,0,108,108,157,285.23812437057495,,,,,,,,,,,,,,,,,,,,,,,,,,,,,,,,,,,,,,,,,,,,,,,,,,,,,,,,,,,,,,,,,,,,,,,,,,,,,,,,,136.13052852159524,143.70301315917928,127.37381550162478,74.49754652124923,182.74605922843983,94.18805240035462,2.2,2.21,-205,-289,0,271,180,261,285.2204682826996,285.2205410003662,285.223965883255,285.23812437057495,285.38609552383423,285.38609552383423,285.38609552383423,285.38609552383423,285.38609552383423,285.38609552383423,285.38609552383423,291.0070786476135,1,5.7578346729278564,None,,,,,,,,,,,,,,,,,,118,1,2025-02-25_16h33.08.626,comp,2024.2.4,58.70050914872237,2025-02-25 16h34.24.564667 -0500,
109,109,0,catch,None,None,None,None,None,None,None,None,None,None,2,0.9960920810699463,None,,,,,0,0,0,0,0,109,109,120,291.0238802433014,,,,,,,,,,,,,,,,,,,,,,,,,,,,,,,,,,,,,,,,,,,,,,,,,,,,,,,,,,,,,,,,,,,,,,,,,,,,,,,,,109,81,135,190,112,78,3.0,3.1,-232,276,0,-17,230,-261,291.0097415447235,291.00982189178467,291.01310181617737,291.0238802433014,291.17139744758606,291.17139744758606,291.17139744758606,291.17139744758606,291.17139744758606,291.17139744758606,291.17139744758606,292.0222067832947,2,0.9960920810699463,None,,,,,,,,,,,,,,,,,,118,1,2025-02-25_16h33.08.626,comp,2024.2.4,58.70050914872237,2025-02-25 16h34.24.564667 -0500,
110,110,0,filler_square,None,None,None,None,None,None,None,None,None,None,1,1.557295560836792,None,,,,,0,0,0,0,0,110,110,188,292.039186000824,,,,,,,,,,,,,,,,,,,,,,,,,,,,,,,,,,,,,,,,,,,,,,,,,,,,,,,,,,,,,,,,,,,,,,,,,,,,,,,,,191.29554837614535,191.29554837614535,182.44053303194596,159.70060661008552,143.3673032512658,189.22106029800887,3.0,3.2,-271,-265,0,17,270,267,292.0240774154663,292.0241537094116,292.02808141708374,292.039186000824,292.1898376941681,292.1898376941681,292.1898376941681,292.1898376941681,292.1898376941681,292.1898376941681,292.1898376941681,293.6134226322174,1,1.557295560836792,None,,,,,,,,,,,,,,,,,,118,1,2025-02-25_16h33.08.626,comp,2024.2.4,58.70050914872237,2025-02-25 16h34.24.564667 -0500,
111,111,0,filler_square,None,None,None,None,None,None,None,None,None,None,1,3.541562080383301,None,,,,,0,0,0,0,0,111,111,197,293.63052558898926,,,,,,,,,,,,,,,,,,,,,,,,,,,,,,,,,,,,,,,,,,,,,,,,,,,,,,,,,,,,,,,,,,,,,,,,,,,,,,,,,89.02869253696988,89.02869253696988,73.41534182373245,58.23857736995317,64.08908618247992,88.89881527283613,2.2,2.22,-170,258,0,-266,170,-265,293.6153395175934,293.6154725551605,293.6190941333771,293.63052558898926,293.7718949317932,293.7718949317932,293.7718949317932,293.7718949317932,293.7718949317932,293.7718949317932,293.7718949317932,297.1929178237915,1,3.541562080383301,None,,,,,,,,,,,,,,,,,,118,1,2025-02-25_16h33.08.626,comp,2024.2.4,58.70050914872237,2025-02-25 16h34.24.564667 -0500,
112,112,0,critical,dhw,35.0,2.1,lower,70.0,70.0,133.0,57.0,57.0,133.0,2,5.056352615356445,None,,,,,0,0,0,0,0,112,112,24,297.21233081817627,,,,,,,,,,,,,,,,,,,,,,,,,,,,,,,,,,,,,,,,,,,,,,,,,,,,,,,,,,,,,,,,,,,,,,,,,,,,,,,,,70.0,70.0,133.0,57.0,57.0,133.0,2.1,2.12,-160,-250,0,-285,191,258,297.19457387924194,297.19470405578613,297.19864559173584,297.21233081817627,297.356906414032,297.356906414032,297.356906414032,297.356906414032,297.356906414032,297.356906414032,297.356906414032,302.27618765830994,2,5.056352615356445,None,,,,,,,,,,,,,,,,,,118,1,2025-02-25_16h33.08.626,comp,2024.2.4,58.70050914872237,2025-02-25 16h34.24.564667 -0500,
113,113,0,catch,None,None,None,None,None,None,None,None,None,None,2,0.9543018341064453,None,,,,,0,0,0,0,0,113,113,123,302.2981126308441,,,,,,,,,,,,,,,,,,,,,,,,,,,,,,,,,,,,,,,,,,,,,,,,,,,,,,,,,,,,,,,,,,,,,,,,,,,,,,,,,116,74,183,142,132,58,4.0,4.2,-204,4,0,-252,196,-13,302.2782289981842,302.278342962265,302.28213453292847,302.2981126308441,302.42837858200073,302.42837858200073,302.42837858200073,302.42837858200073,302.42837858200073,302.42837858200073,302.42837858200073,303.25964617729187,2,0.9543018341064453,None,,,,,,,,,,,,,,,,,,118,1,2025-02-25_16h33.08.626,comp,2024.2.4,58.70050914872237,2025-02-25 16h34.24.564667 -0500,
114,114,0,critical,wdh,20.0,3.0,upper,125.0,200.0,141.0,141.0,200.0,125.0,1,1.2404570579528809,None,,,,,0,0,0,0,0,114,114,81,303.27626037597656,,,,,,,,,,,,,,,,,,,,,,,,,,,,,,,,,,,,,,,,,,,,,,,,,,,,,,,,,,,,,,,,,,,,,,,,,,,,,,,,,125.0,200.0,141.0,141.0,200.0,125.0,3.0,3.1,-266,255,0,-6,229,-274,303.26130652427673,303.26143646240234,303.26524448394775,303.27626037597656,303.42895245552063,303.42895245552063,303.42895245552063,303.42895245552063,303.42895245552063,303.42895245552063,303.42895245552063,304.5275950431824,1,1.2404570579528809,None,,,,,,,,,,,,,,,,,,118,1,2025-02-25_16h33.08.626,comp,2024.2.4,58.70050914872237,2025-02-25 16h34.24.564667 -0500,
115,115,0,critical,hdw,35.0,1.0,lower,133.0,57.0,70.0,70.0,57.0,133.0,3,2.8193323612213135,None,,,,,0,0,0,0,0,115,115,108,304.54454588890076,,,,,,,,,,,,,,,,,,,,,,,,,,,,,,,,,,,,,,,,,,,,,,,,,,,,,,,,,,,,,,,,,,,,,,,,,,,,,,,,,133.0,57.0,70.0,70.0,57.0,133.0,1.0,1.3,320,-283,480,-276,678,-252,304.5292558670044,304.5293562412262,304.53284668922424,304.54454588890076,304.6931300163269,304.6931300163269,304.6931300163269,304.6931300163269,304.6931300163269,304.6931300163269,304.6931300163269,307.3748426437378,3,2.8193323612213135,None,,,,,,,,,,,,,,,,,,118,1,2025-02-25_16h33.08.626,comp,2024.2.4,58.70050914872237,2025-02-25 16h34.24.564667 -0500,
116,116,0,critical,dwh,35.0,4.0,lower,70.0,70.0,57.0,133.0,133.0,57.0,2,3.9252400398254395,None,,,,,0,0,0,0,0,116,116,64,307.391640663147,,,,,,,,,,,,,,,,,,,,,,,,,,,,,,,,,,,,,,,,,,,,,,,,,,,,,,,,,,,,,,,,,,,,,,,,,,,,,,,,,70.0,70.0,57.0,133.0,133.0,57.0,4.0,4.1,-198,-283,0,-14,191,-266,307.3764662742615,307.37654972076416,307.3802499771118,307.391640663147,307.54206705093384,307.54206705093384,307.54206705093384,307.54206705093384,307.54206705093384,307.54206705093384,307.54206705093384,311.328049659729,2,3.9252400398254395,None,,,,,,,,,,,,,,,,,,118,1,2025-02-25_16h33.08.626,comp,2024.2.4,58.70050914872237,2025-02-25 16h34.24.564667 -0500,
117,117,0,critical,dhw,35.0,4.0,lower,70.0,70.0,133.0,57.0,57.0,133.0,3,1.4240965843200684,None,,,,,0,0,0,0,0,117,117,52,311.34800124168396,,,,,,,,,,,,,,,,,,,,,,,,,,,,,,,,,,,,,,,,,,,,,,,,,,,,,,,,,,,,,,,,,,,,,,,,,,,,,,,,,70.0,70.0,133.0,57.0,57.0,133.0,4.0,4.1,-160,-280,0,-6,191,-276,311.32962226867676,311.3297007083893,311.3333652019501,311.34800124168396,311.49492597579956,311.49492597579956,311.49492597579956,311.49492597579956,311.49492597579956,311.49492597579956,311.49492597579956,312.7843441963196,3,1.4240965843200684,None,,,,,,,,,,,,,,,,,,118,1,2025-02-25_16h33.08.626,comp,2024.2.4,58.70050914872237,2025-02-25 16h34.24.564667 -0500,
118,118,0,critical,whd,35.0,2.1,upper,125.0,200.0,200.0,125.0,127.0,127.0,2,4.199539422988892,None,,,,,0,0,0,0,0,118,118,37,312.80534625053406,,,,,,,,,,,,,,,,,,,,,,,,,,,,,,,,,,,,,,,,,,,,,,,,,,,,,,,,,,,,,,,,,,,,,,,,,,,,,,,,,125.0,200.0,200.0,125.0,127.0,127.0,2.1,2.11,-258,255,0,287,222,-262,312.78589630126953,312.7859716415405,312.7896022796631,312.80534625053406,312.9453926086426,312.9453926086426,312.9453926086426,312.9453926086426,312.9453926086426,312.9453926086426,312.9453926086426,317.0130820274353,2,4.199539422988892,None,,,,,,,,,,,,,,,,,,118,1,2025-02-25_16h33.08.626,comp,2024.2.4,58.70050914872237,2025-02-25 16h34.24.564667 -0500,
119,119,0,filler_square,None,None,None,None,None,None,None,None,None,None,3,1.1180264949798584,None,,,,,0,0,0,0,0,119,119,204,317.02996277809143,,,,,,,,,,,,,,,,,,,,,,,,,,,,,,,,,,,,,,,,,,,,,,,,,,,,,,,,,,,,,,,,,,,,,,,,,,,,,,,,,138.7108357204934,151.23336638112204,154.4470759058616,163.62896102433967,170.13861327670043,170.13861327670043,4.0,4.1,-253,-269,0,5,263,-252,317.01490020751953,317.0149772167206,317.0187404155731,317.02996277809143,317.17861008644104,317.17861008644104,317.17861008644104,317.17861008644104,317.17861008644104,317.17861008644104,317.17861008644104,318.16697573661804,3,1.1180264949798584,None,,,,,,,,,,,,,,,,,,118,1,2025-02-25_16h33.08.626,comp,2024.2.4,58.70050914872237,2025-02-25 16h34.24.564667 -0500,
120,120,0,critical,whd,35.0,3.0,upper,125.0,200.0,200.0,125.0,127.0,127.0,2,1.6979131698608398,None,,,,,0,0,0,0,0,120,120,87,318.1861855983734,,,,,,,,,,,,,,,,,,,,,,,,,,,,,,,,,,,,,,,,,,,,,,,,,,,,,,,,,,,,,,,,,,,,,,,,,,,,,,,,,125.0,200.0,200.0,125.0,127.0,127.0,3.0,3.1,-258,256,0,11,222,-272,318.1685793399811,318.16871070861816,318.17263627052307,318.1861855983734,318.3299677371979,318.3299677371979,318.3299677371979,318.3299677371979,318.3299677371979,318.3299677371979,318.3299677371979,319.898574590683,2,1.6979131698608398,None,,,,,,,,,,,,,,,,,,118,1,2025-02-25_16h33.08.626,comp,2024.2.4,58.70050914872237,2025-02-25 16h34.24.564667 -0500,
121,121,0,filler_square,None,None,None,None,None,None,None,None,None,None,2,1.2092700004577637,None,,,,,0,0,0,0,0,121,121,203,319.91538977622986,,,,,,,,,,,,,,,,,,,,,,,,,,,,,,,,,,,,,,,,,,,,,,,,,,,,,,,,,,,,,,,,,,,,,,,,,,,,,,,,,176.82440074390576,142.7068149174907,182.14988413929217,182.14988413929217,63.38164305289786,91.65493564360784,2.1,2.11,-258,290,0,270,233,-290,319.90074396133423,319.900826215744,319.9050009250641,319.91538977622986,320.06417179107666,320.06417179107666,320.06417179107666,320.06417179107666,320.06417179107666,320.06417179107666,320.06417179107666,321.1299023628235,2,1.2092700004577637,None,,,,,,,,,,,,,,,,,,118,1,2025-02-25_16h33.08.626,comp,2024.2.4,58.70050914872237,2025-02-25 16h34.24.564667 -0500,
122,122,0,critical,hwd,35.0,2.1,upper,200.0,125.0,125.0,200.0,127.0,127.0,1,1.1653528213500977,None,,,,,0,0,0,0,0,122,122,17,321.1506316661835,,,,,,,,,,,,,,,,,,,,,,,,,,,,,,,,,,,,,,,,,,,,,,,,,,,,,,,,,,,,,,,,,,,,,,,,,,,,,,,,,200.0,125.0,125.0,200.0,127.0,127.0,2.1,2.11,-258,272,0,264,260,-272,321.1314973831177,321.13157176971436,321.13512086868286,321.1506316661835,321.2979793548584,321.2979793548584,321.2979793548584,321.2979793548584,321.2979793548584,321.2979793548584,321.2979793548584,322.33005023002625,1,1.1653528213500977,None,,,,,,,,,,,,,,,,,,118,1,2025-02-25_16h33.08.626,comp,2024.2.4,58.70050914872237,2025-02-25 16h34.24.564667 -0500,
123,123,0,filler_square,None,None,None,None,None,None,None,None,None,None,2,1.0173001289367676,None,,,,,0,0,0,0,0,123,123,170,322.34663701057434,,,,,,,,,,,,,,,,,,,,,,,,,,,,,,,,,,,,,,,,,,,,,,,,,,,,,,,,,,,,,,,,,,,,,,,,,,,,,,,,,154.24063139159966,99.15202800065222,177.12747303372345,177.12747303372345,165.98779946801528,96.10231403629763,2.1,2.12,-234,-269,0,-257,233,262,322.3318283557892,322.3319003582001,322.3353314399719,322.34663701057434,322.49479126930237,322.49479126930237,322.49479126930237,322.49479126930237,322.49479126930237,322.49479126930237,322.49479126930237,323.36756896972656,2,1.0173001289367676,None,,,,,,,,,,,,,,,,,,118,1,2025-02-25_16h33.08.626,comp,2024.2.4,58.70050914872237,2025-02-25 16h34.24.564667 -0500,
124,124,0,filler_random,None,None,None,None,None,None,None,None,None,None,1,2.372896432876587,None,,,,,0,0,0,0,0,124,124,149,323.38403034210205,,,,,,,,,,,,,,,,,,,,,,,,,,,,,,,,,,,,,,,,,,,,,,,,,,,,,,,,,,,,,,,,,,,,,,,,,,,,,,,,,168.29559202817023,130.49563185936088,86.36644745884152,182.94787929784684,129.58613062815255,114.56004916381698,2.1,2.11,-253,285,0,270,245,-253,323.36954283714294,323.3696229457855,323.37316393852234,323.38403034210205,323.53522658348083,323.53522658348083,323.53522658348083,323.53522658348083,323.53522658348083,323.53522658348083,323.53522658348083,325.7679662704468,1,2.372896432876587,None,,,,,,,,,,,,,,,,,,118,1,2025-02-25_16h33.08.626,comp,2024.2.4,58.70050914872237,2025-02-25 16h34.24.564667 -0500,
125,125,0,critical,wdh,20.0,4.0,lower,57.0,133.0,78.0,78.0,133.0,57.0,3,3.8759188652038574,None,,,,,0,0,0,0,0,125,125,82,325.7847158908844,,,,,,,,,,,,,,,,,,,,,,,,,,,,,,,,,,,,,,,,,,,,,,,,,,,,,,,,,,,,,,,,,,,,,,,,,,,,,,,,,57.0,133.0,78.0,78.0,133.0,57.0,4.0,4.1,-202,-282,0,-7,164,-288,325.76966547966003,325.7697422504425,325.7738130092621,325.7847158908844,325.9421741962433,325.9421741962433,325.9421741962433,325.9421741962433,325.9421741962433,325.9421741962433,325.9421741962433,329.6671075820923,3,3.8759188652038574,None,,,,,,,,,,,,,,,,,,118,1,2025-02-25_16h33.08.626,comp,2024.2.4,58.70050914872237,2025-02-25 16h34.24.564667 -0500,
126,126,0,critical,wdh,35.0,3.0,upper,125.0,200.0,127.0,127.0,200.0,125.0,1,2.312394857406616,None,,,,,0,0,0,0,0,126,126,75,329.6840400695801,,,,,,,,,,,,,,,,,,,,,,,,,,,,,,,,,,,,,,,,,,,,,,,,,,,,,,,,,,,,,,,,,,,,,,,,,,,,,,,,,125.0,200.0,127.0,127.0,200.0,125.0,3.0,3.2,-260,-251,0,-6,222,266,329.6685948371887,329.6686692237854,329.67297101020813,329.6840400695801,329.8310966491699,329.8310966491699,329.8310966491699,329.8310966491699,329.8310966491699,329.8310966491699,329.8310966491699,332.00159192085266,1,2.312394857406616,None,,,,,,,,,,,,,,,,,,118,1,2025-02-25_16h33.08.626,comp,2024.2.4,58.70050914872237,2025-02-25 16h34.24.564667 -0500,
127,127,0,critical,whd,35.0,2.1,upper,125.0,200.0,200.0,125.0,127.0,127.0,2,2.9302737712860107,None,,,,,0,0,0,0,0,127,127,13,332.0183162689209,,,,,,,,,,,,,,,,,,,,,,,,,,,,,,,,,,,,,,,,,,,,,,,,,,,,,,,,,,,,,,,,,,,,,,,,,,,,,,,,,125.0,200.0,200.0,125.0,127.0,127.0,2.1,2.12,-258,-271,0,-274,222,269,332.00312423706055,332.0032014846802,332.0072720050812,332.0183162689209,332.1671464443207,332.1671464443207,332.1671464443207,332.1671464443207,332.1671464443207,332.1671464443207,332.1671464443207,334.9523584842682,2,2.9302737712860107,None,,,,,,,,,,,,,,,,,,118,1,2025-02-25_16h33.08.626,comp,2024.2.4,58.70050914872237,2025-02-25 16h34.24.564667 -0500,
128,128,0,critical,hwd,20.0,4.0,lower,133.0,57.0,57.0,133.0,78.0,78.0,1,2.9313604831695557,None,,,,,0,0,0,0,0,128,128,106,334.9693510532379,,,,,,,,,,,,,,,,,,,,,,,,,,,,,,,,,,,,,,,,,,,,,,,,,,,,,,,,,,,,,,,,,,,,,,,,,,,,,,,,,133.0,57.0,57.0,133.0,78.0,78.0,4.0,4.1,-191,-264,0,5,202,-252,334.9539089202881,334.9539866447449,334.9583361148834,334.9693510532379,335.116902589798,335.116902589798,335.116902589798,335.116902589798,335.116902589798,335.116902589798,335.116902589798,337.9032278060913,1,2.9313604831695557,None,,,,,,,,,,,,,,,,,,118,1,2025-02-25_16h33.08.626,comp,2024.2.4,58.70050914872237,2025-02-25 16h34.24.564667 -0500,
129,129,0,filler_square,None,None,None,None,None,None,None,None,None,None,3,0.9563627243041992,None,,,,,0,0,0,0,0,129,129,199,337.9204132556915,,,,,,,,,,,,,,,,,,,,,,,,,,,,,,,,,,,,,,,,,,,,,,,,,,,,,,,,,,,,,,,,,,,,,,,,,,,,,,,,,62.2249476845097,84.93276633363678,97.8998236865722,80.60839331658865,122.91153588703571,122.91153588703571,1.0,1.1,-659,290,-480,260,-282,268,337.90509057044983,337.90516567230225,337.90953278541565,337.9204132556915,338.0665090084076,338.0665090084076,338.0665090084076,338.0665090084076,338.0665090084076,338.0665090084076,338.0665090084076,338.8865559101105,3,0.9563627243041992,None,,,,,,,,,,,,,,,,,,118,1,2025-02-25_16h33.08.626,comp,2024.2.4,58.70050914872237,2025-02-25 16h34.24.564667 -0500,
130,130,0,critical,whd,20.0,3.0,lower,57.0,133.0,133.0,57.0,78.0,78.0,1,1.0706825256347656,None,,,,,0,0,0,0,0,130,130,92,338.90145230293274,,,,,,,,,,,,,,,,,,,,,,,,,,,,,,,,,,,,,,,,,,,,,,,,,,,,,,,,,,,,,,,,,,,,,,,,,,,,,,,,,57.0,133.0,133.0,57.0,78.0,78.0,3.0,3.2,-191,-285,0,1,164,284,338.8881003856659,338.8881793022156,338.89182114601135,338.90145230293274,339.05182671546936,339.05182671546936,339.05182671546936,339.05182671546936,339.05182671546936,339.05182671546936,339.05182671546936,339.98720955848694,1,1.0706825256347656,None,,,,,,,,,,,,,,,,,,118,1,2025-02-25_16h33.08.626,comp,2024.2.4,58.70050914872237,2025-02-25 16h34.24.564667 -0500,
131,131,0,critical,wdh,20.0,2.1,upper,125.0,200.0,141.0,141.0,200.0,125.0,3,1.8971593379974365,None,,,,,0,0,0,0,0,131,131,35,340.0036118030548,,,,,,,,,,,,,,,,,,,,,,,,,,,,,,,,,,,,,,,,,,,,,,,,,,,,,,,,,,,,,,,,,,,,,,,,,,,,,,,,,125.0,200.0,141.0,141.0,200.0,125.0,2.1,2.11,-266,255,0,275,229,-276,339.9888048171997,339.9888815879822,339.9932293891907,340.0036118030548,340.1536703109741,340.1536703109741,340.1536703109741,340.1536703109741,340.1536703109741,340.1536703109741,340.1536703109741,341.90331172943115,3,1.8971593379974365,None,,,,,,,,,,,,,,,,,,118,1,2025-02-25_16h33.08.626,comp,2024.2.4,58.70050914872237,2025-02-25 16h34.24.564667 -0500,
132,132,0,filler_random,None,None,None,None,None,None,None,None,None,None,3,0.9549117088317871,None,,,,,0,0,0,0,0,132,132,143,341.9211721420288,,,,,,,,,,,,,,,,,,,,,,,,,,,,,,,,,,,,,,,,,,,,,,,,,,,,,,,,,,,,,,,,,,,,,,,,,,,,,,,,,84.76044362557187,99.07392332962172,63.701572490434486,72.9713710990408,142.20384318055508,181.85580537834437,4.0,4.2,-182,-15,0,-268,223,14,341.9050874710083,341.9051651954651,341.9087815284729,341.9211721420288,342.0731828212738,342.0731828212738,342.0731828212738,342.0731828212738,342.0731828212738,342.0731828212738,342.0731828212738,342.888224363327,3,0.9549117088317871,None,,,,,,,,,,,,,,,,,,118,1,2025-02-25_16h33.08.626,comp,2024.2.4,58.70050914872237,2025-02-25 16h34.24.564667 -0500,
133,133,0,critical,wdh,35.0,3.0,lower,57.0,133.0,70.0,70.0,133.0,57.0,1,1.9515595436096191,None,,,,,0,0,0,0,0,133,133,74,342.90994668006897,,,,,,,,,,,,,,,,,,,,,,,,,,,,,,,,,,,,,,,,,,,,,,,,,,,,,,,,,,,,,,,,,,,,,,,,,,,,,,,,,57.0,133.0,70.0,70.0,133.0,57.0,3.0,3.1,-198,286,0,-15,160,-284,342.8898956775665,342.8899755477905,342.89383482933044,342.90994668006897,343.0582082271576,343.0582082271576,343.0582082271576,343.0582082271576,343.0582082271576,343.0582082271576,343.0582082271576,344.8719198703766,1,1.9515595436096191,None,,,,,,,,,,,,,,,,,,118,1,2025-02-25_16h33.08.626,comp,2024.2.4,58.70050914872237,2025-02-25 16h34.24.564667 -0500,
134,134,0,filler_random,None,None,None,None,None,None,None,None,None,None,2,1.0996677875518799,None,,,,,0,0,0,0,0,134,134,134,344.88897371292114,,,,,,,,,,,,,,,,,,,,,,,,,,,,,,,,,,,,,,,,,,,,,,,,,,,,,,,,,,,,,,,,,,,,,,,,,,,,,,,,,66.24973552758838,193.65238752035825,138.92312726395429,176.70691913059994,196.2260302037479,100.66587983046327,2.1,2.12,-281,-270,0,-260,235,273,344.8736515045166,344.873731136322,344.87806272506714,344.88897371292114,345.04176139831543,345.04176139831543,345.04176139831543,345.04176139831543,345.04176139831543,345.04176139831543,345.04176139831543,346.0058448314667,2,1.0996677875518799,None,,,,,,,,,,,,,,,,,,118,1,2025-02-25_16h33.08.626,comp,2024.2.4,58.70050914872237,2025-02-25 16h34.24.564667 -0500,
135,135,0,critical,hwd,35.0,3.0,lower,133.0,57.0,57.0,133.0,70.0,70.0,1,2.742922306060791,None,,,,,0,0,0,0,0,135,135,98,346.02235555648804,,,,,,,,,,,,,,,,,,,,,,,,,,,,,,,,,,,,,,,,,,,,,,,,,,,,,,,,,,,,,,,,,,,,,,,,,,,,,,,,,133.0,57.0,57.0,133.0,70.0,70.0,3.0,3.2,-191,-268,0,-11,198,277,346.0074212551117,346.0075194835663,346.0119185447693,346.02235555648804,346.1711709499359,346.1711709499359,346.1711709499359,346.1711709499359,346.1711709499359,346.1711709499359,346.1711709499359,348.77337288856506,1,2.742922306060791,None,,,,,,,,,,,,,,,,,,118,1,2025-02-25_16h33.08.626,comp,2024.2.4,58.70050914872237,2025-02-25 16h34.24.564667 -0500,
136,136,0,critical,dhw,20.0,3.0,upper,141.0,141.0,200.0,125.0,125.0,200.0,3,3.8137335777282715,None,,,,,0,0,0,0,0,136,136,57,348.79045057296753,,,,,,,,,,,,,,,,,,,,,,,,,,,,,,,,,,,,,,,,,,,,,,,,,,,,,,,,,,,,,,,,,,,,,,,,,,,,,,,,,141.0,141.0,200.0,125.0,125.0,200.0,3.0,3.1,-229,268,0,18,258,-261,348.7749490737915,348.7750222682953,348.77936577796936,348.79045057296753,348.94062542915344,348.94062542915344,348.94062542915344,348.94062542915344,348.94062542915344,348.94062542915344,348.94062542915344,352.6092026233673,3,3.8137335777282715,None,,,,,,,,,,,,,,,,,,118,1,2025-02-25_16h33.08.626,comp,2024.2.4,58.70050914872237,2025-02-25 16h34.24.564667 -0500,
137,137,0,filler_square,None,None,None,None,None,None,None,None,None,None,2,0.944293737411499,None,,,,,0,0,0,0,0,137,137,171,352.6277437210083,,,,,,,,,,,,,,,,,,,,,,,,,,,,,,,,,,,,,,,,,,,,,,,,,,,,,,,,,,,,,,,,,,,,,,,,,,,,,,,,,159.06275730277474,105.18908930141464,178.77335158767602,178.77335158767602,161.46903254591138,124.94415097706936,2.1,2.11,-238,267,0,284,248,-273,352.6112012863159,352.61129999160767,352.6153540611267,352.6277437210083,352.7741451263428,352.7741451263428,352.7741451263428,352.7741451263428,352.7741451263428,352.7741451263428,352.7741451263428,353.57433223724365,2,0.944293737411499,None,,,,,,,,,,,,,,,,,,118,1,2025-02-25_16h33.08.626,comp,2024.2.4,58.70050914872237,2025-02-25 16h34.24.564667 -0500,
138,138,0,critical,dwh,20.0,4.0,upper,141.0,141.0,125.0,200.0,200.0,125.0,3,6.446613311767578,None,,,,,0,0,0,0,0,138,138,71,353.59109449386597,,,,,,,,,,,,,,,,,,,,,,,,,,,,,,,,,,,,,,,,,,,,,,,,,,,,,,,,,,,,,,,,,,,,,,,,,,,,,,,,,141.0,141.0,125.0,200.0,200.0,125.0,4.0,4.1,-266,-268,0,1,258,-287,353.5759024620056,353.5759770870209,353.58038806915283,353.59109449386597,353.7411551475525,353.7411551475525,353.7411551475525,353.7411551475525,353.7411551475525,353.7411551475525,353.7411551475525,360.04180359840393,3,6.446613311767578,None,,,,,,,,,,,,,,,,,,118,1,2025-02-25_16h33.08.626,comp,2024.2.4,58.70050914872237,2025-02-25 16h34.24.564667 -0500,
139,139,0,filler_random,None,None,None,None,None,None,None,None,None,None,2,1.2816455364227295,None,,,,,0,0,0,0,0,139,139,151,360.0590262413025,,,,,,,,,,,,,,,,,,,,,,,,,,,,,,,,,,,,,,,,,,,,,,,,,,,,,,,,,,,,,,,,,,,,,,,,,,,,,,,,,82.07726074997406,89.60245589903951,169.5468723722641,99.86633374713757,146.2713320755734,83.37203662774026,2.2,2.22,-191,250,0,-289,188,-278,360.0435245037079,360.0436043739319,360.0471308231354,360.0590262413025,360.2197320461273,360.2197320461273,360.2197320461273,360.2197320461273,360.2197320461273,360.2197320461273,360.2197320461273,361.34292125701904,2,1.2816455364227295,None,,,,,,,,,,,,,,,,,,118,1,2025-02-25_16h33.08.626,comp,2024.2.4,58.70050914872237,2025-02-25 16h34.24.564667 -0500,
