thisN,thisTrialN,thisRepN,effect,order,distance,config,diag,h_1,w_1,h_2,w_2,h_3,w_3,rect_choice.keys,rect_choice.rt,rect_choice.duration,instructions_loop.thisRepN,instructions_loop.thisTrialN,instructions_loop.thisN,instructions_loop.thisIndex,blocks.thisRepN,blocks.thisTrialN,blocks.thisN,blocks.thisIndex,trials.thisRepN,trials.thisTrialN,trials.thisN,trials.thisIndex,thisRow.t,notes,consent.started,agree_button.started,decline_button.started,consent_img.started,mouse.started,consent.stopped,agree_button.numClicks,agree_button.timesOn,agree_button.timesOff,decline_button.numClicks,decline_button.timesOn,decline_button.timesOff,mouse.x,mouse.y,mouse.leftButton,mouse.midButton,mouse.rightButton,mouse.time,mouse.clicked_name,exp_params.started,exp_params.stopped,welcome.started,welcome_text.started,welcome.stopped,instructions_1.started,instructions_1_text_1.started,instructions_1_text_2.started,key_resp.started,instructions_1.stopped,instructions_loop.key_resp.keys,instructions_loop.key_resp.rt,instructions_loop.key_resp.duration,instructions_2.started,instructions_2_text_1.started,instructions_2_text_2.started,key_resp_2.started,instructions_2.stopped,instructions_loop.key_resp_2.keys,instructions_loop.key_resp_2.rt,instructions_loop.key_resp_2.duration,instructions_3.started,instructions_3_text_1.started,r1_instr3.started,r2_instr3.started,r3_instr3.started,r1_instr3_label.started,r2_instr3_label.started,r3_instr3_label.started,instructions_3_text_3.started,instructions_3_text_4.started,key_resp_3.started,instructions_3.stopped,instructions_loop.key_resp_3.keys,instructions_loop.key_resp_3.rt,instructions_loop.key_resp_3.duration,instructions_4.started,instructions_4_text_1.started,instructions_4_text_3.started,instructions_4_text_2.started,key_resp_4.started,instructions_4.stopped,instructions_loop.key_resp_4.keys,instructions_loop.key_resp_4.rt,instructions_loop.key_resp_4.duration,instructions_5.started,instructions_5_text_1.started,instructions_5_text_2.started,key_resp_5.started,instructions_5.stopped,instructions_loop.key_resp_5.keys,instructions_loop.key_resp_5.rt,instructions_loop.key_resp_5.duration,start_exp.started,start_exp_text.started,key_resp_6.started,start_exp.stopped,key_resp_6.keys,key_resp_6.rt,key_resp_6.duration,h_1_tmp,w_1_tmp,h_2_tmp,w_2_tmp,h_3_tmp,w_3_tmp,config_tmp,config_tmp_1,r_1_x,r_1_y,r_2_x,r_2_y,r_3_x,r_3_y,pre_trial.started,pre_trial.stopped,choice_trial.started,rect_choice.started,r_1.started,r_2.started,r_3.started,r_1_label.started,r_2_label.started,r_3_label.started,prompt.started,choice_trial.stopped,trials.rect_choice.keys,trials.rect_choice.rt,trials.rect_choice.duration,end_block.started,end_block_text.started,end_block.stopped,end.started,end_text.started,key_resp_7.started,end.stopped,key_resp_7.keys,key_resp_7.rt,key_resp_7.duration,debriefing.started,debrief_form.started,end_debrief.started,debriefing.stopped,end_debrief.keys,end_debrief.rt,end_debrief.duration,participant,computer,date,expName,psychopyVersion,frameRate,expStart,
,,,,,,,,,,,,,,,,,,,,,,,,,,,,,,,0.015293598175048828,0.0318911075592041,0.0318911075592041,0.0318911075592041,0.015094757080078125,4.364766597747803,1,[4.330497980117798],[4.330517768859863],0,,,"[-125.0, -83.0]","[-497.0, -493.0]","[1, 1]","[0, 0]","[0, 0]","[3.8325541019439697, 4.349053859710693]","[None, 'agree_button']",,,,,,,,,,,,,,,,,,,,,,,,,,,,,,,,,,,,,,,,,,,,,,,,,,,,,,,,,,,,,,,,,,,,,,,,,,,,,,,,,,,,,,,,,,,,,,,,,,,,,,,,,,,119,2,2025-02-25_16h33.13.214,comp,2024.2.4,53.6525475437894,2025-02-25 16h34.12.934828 -0500,
,,,,,,,,,,,,,,,,,,,,,,,,,,,,,,,,,,,,,,,,,,,,,,,,,,4.365368366241455,4.365436792373657,,,,,,,,,,,,,,,,,,,,,,,,,,,,,,,,,,,,,,,,,,,,,,,,,,,,,,,,,,,,,,,,,,,,,,,,,,,,,,,,,,,,,,,,,,,,,,,,,,,,,,,,,119,2,2025-02-25_16h33.13.214,comp,2024.2.4,53.6525475437894,2025-02-25 16h34.12.934828 -0500,
,,,,,,,,,,,,,,,,,,,,,,,,,,,,,,,,,,,,,,,,,,,,,,,,,,,,4.365480422973633,4.381565809249878,6.369118690490723,,,,,,,,,,,,,,,,,,,,,,,,,,,,,,,,,,,,,,,,,,,,,,,,,,,,,,,,,,,,,,,,,,,,,,,,,,,,,,,,,,,,,,,,,,,,,,,,,,,,,,119,2,2025-02-25_16h33.13.214,comp,2024.2.4,53.6525475437894,2025-02-25 16h34.12.934828 -0500,
0,0,0,,,,,,,,,,,,,,,0,0,0,0,,,,,,,,,6.384259223937988,,,,,,,,,,,,,,,,,,,,,,,,,,6.370011806488037,6.384259223937988,6.384259223937988,7.869415760040283,9.937358379364014,space,2.057403326034546,None,9.937505006790161,9.958639860153198,9.958639860153198,11.437065839767456,14.49005937576294,space,3.042451858520508,None,14.490208625793457,14.519790410995483,14.519790410995483,14.519790410995483,14.519790410995483,14.519790410995483,14.519790410995483,14.519790410995483,14.519790410995483,14.519790410995483,15.989997625350952,20.143343687057495,space,4.136999130249023,None,20.143499851226807,20.1603262424469,20.1603262424469,20.1603262424469,21.656841278076172,25.92695450782776,space,4.2627081871032715,None,25.927109003067017,25.9448504447937,25.9448504447937,27.43012809753418,27.858121156692505,space,0.4169449806213379,None,27.858370065689087,27.873347997665405,27.873347997665405,28.511234760284424,space,0.6298394203186035,None,,,,,,,,,,,,,,,,,,,,,,,,,,,,,,,,,,,,,,,,,,,,,,,119,2,2025-02-25_16h33.13.214,comp,2024.2.4,53.6525475437894,2025-02-25 16h34.12.934828 -0500,
0,0,0,critical,whd,35.0,1.0,lower,57.0,133.0,133.0,57.0,70.0,70.0,1,4.399894952774048,None,,,,,0,0,0,0,0,0,0,84,28.583741426467896,,,,,,,,,,,,,,,,,,,,,,,,,,,,,,,,,,,,,,,,,,,,,,,,,,,,,,,,,,,,,,,,,,,,,,,,,,,,,,,,,57.0,133.0,133.0,57.0,70.0,70.0,1.0,1.1,-671,255,-480,283,-320,251,28.567057609558105,28.567091703414917,28.568360090255737,28.583741426467896,28.73507857322693,28.73507857322693,28.73507857322693,28.73507857322693,28.73507857322693,28.73507857322693,28.73507857322693,32.99594330787659,1,4.399894952774048,None,,,,,,,,,,,,,,,,,,119,2,2025-02-25_16h33.13.214,comp,2024.2.4,53.6525475437894,2025-02-25 16h34.12.934828 -0500,
1,1,0,filler_square,None,None,None,None,None,None,None,None,None,None,3,2.634798765182495,None,,,,,0,0,0,0,0,1,1,181,33.01214790344238,,,,,,,,,,,,,,,,,,,,,,,,,,,,,,,,,,,,,,,,,,,,,,,,,,,,,,,,,,,,,,,,,,,,,,,,,,,,,,,,,70.45411024053504,57.31800354609835,66.31524932613206,65.76936806231942,74.54304456633001,74.54304456633001,1.0,1.2,-158,1,0,2,166,4,32.997817277908325,32.99790048599243,33.0018789768219,33.01214790344238,33.16215181350708,33.16215181350708,33.16215181350708,33.16215181350708,33.16215181350708,33.16215181350708,33.16215181350708,35.663553953170776,3,2.634798765182495,None,,,,,,,,,,,,,,,,,,119,2,2025-02-25_16h33.13.214,comp,2024.2.4,53.6525475437894,2025-02-25 16h34.12.934828 -0500,
2,2,0,critical,wdh,35.0,4.0,upper,125.0,200.0,127.0,127.0,200.0,125.0,1,2.280388832092285,None,,,,,0,0,0,0,0,2,2,77,35.67916393280029,,,,,,,,,,,,,,,,,,,,,,,,,,,,,,,,,,,,,,,,,,,,,,,,,,,,,,,,,,,,,,,,,,,,,,,,,,,,,,,,,125.0,200.0,127.0,127.0,200.0,125.0,4.0,4.1,-260,-275,0,-16,222,-251,35.66514301300049,35.66522240638733,35.66875886917114,35.67916393280029,35.83906602859497,35.83906602859497,35.83906602859497,35.83906602859497,35.83906602859497,35.83906602859497,35.83906602859497,37.96820116043091,1,2.280388832092285,None,,,,,,,,,,,,,,,,,,119,2,2025-02-25_16h33.13.214,comp,2024.2.4,53.6525475437894,2025-02-25 16h34.12.934828 -0500,
3,3,0,filler_random,None,None,None,None,None,None,None,None,None,None,3,2.2264046669006348,None,,,,,0,0,0,0,0,3,3,137,37.988505363464355,,,,,,,,,,,,,,,,,,,,,,,,,,,,,,,,,,,,,,,,,,,,,,,,,,,,,,,,,,,,,,,,,,,,,,,,,,,,,,,,,191.77055749568737,74.25442396381074,168.37288328634384,81.93783819983399,146.16112094618734,126.61487079896418,2.1,2.11,-174,251,0,258,200,-267,37.96989345550537,37.969969511032104,37.97292709350586,37.988505363464355,38.130253314971924,38.130253314971924,38.130253314971924,38.130253314971924,38.130253314971924,38.130253314971924,38.130253314971924,40.23259902000427,3,2.2264046669006348,None,,,,,,,,,,,,,,,,,,119,2,2025-02-25_16h33.13.214,comp,2024.2.4,53.6525475437894,2025-02-25 16h34.12.934828 -0500,
4,4,0,critical,hwd,35.0,2.1,upper,200.0,125.0,125.0,200.0,127.0,127.0,2,2.356518507003784,None,,,,,0,0,0,0,0,4,4,41,40.25034713745117,,,,,,,,,,,,,,,,,,,,,,,,,,,,,,,,,,,,,,,,,,,,,,,,,,,,,,,,,,,,,,,,,,,,,,,,,,,,,,,,,200.0,125.0,125.0,200.0,127.0,127.0,2.1,2.12,-258,-261,0,-285,260,288,40.23417544364929,40.2342472076416,40.23765683174133,40.25034713745117,40.39990496635437,40.39990496635437,40.39990496635437,40.39990496635437,40.39990496635437,40.39990496635437,40.39990496635437,42.617286920547485,2,2.356518507003784,None,,,,,,,,,,,,,,,,,,119,2,2025-02-25_16h33.13.214,comp,2024.2.4,53.6525475437894,2025-02-25 16h34.12.934828 -0500,
5,5,0,critical,wdh,20.0,2.1,upper,125.0,200.0,141.0,141.0,200.0,125.0,3,5.3489601612091064,None,,,,,0,0,0,0,0,5,5,11,42.63408422470093,,,,,,,,,,,,,,,,,,,,,,,,,,,,,,,,,,,,,,,,,,,,,,,,,,,,,,,,,,,,,,,,,,,,,,,,,,,,,,,,,125.0,200.0,141.0,141.0,200.0,125.0,2.1,2.12,-266,-263,0,-272,229,267,42.61920714378357,42.619287729263306,42.62321162223816,42.63408422470093,42.78672742843628,42.78672742843628,42.78672742843628,42.78672742843628,42.78672742843628,42.78672742843628,42.78672742843628,48.009024143218994,3,5.3489601612091064,None,,,,,,,,,,,,,,,,,,119,2,2025-02-25_16h33.13.214,comp,2024.2.4,53.6525475437894,2025-02-25 16h34.12.934828 -0500,
6,6,0,filler_square,None,None,None,None,None,None,None,None,None,None,2,2.5505435466766357,None,,,,,0,0,0,0,0,6,6,180,48.026514530181885,,,,,,,,,,,,,,,,,,,,,,,,,,,,,,,,,,,,,,,,,,,,,,,,,,,,,,,,,,,,,,,,,,,,,,,,,,,,,,,,,59.353872219936896,100.99935891122652,106.36235354436849,106.36235354436849,82.19346140155417,79.82578570666415,2.1,2.11,-200,261,0,284,189,-257,48.01084041595459,48.01091456413269,48.013888120651245,48.026514530181885,48.16739583015442,48.16739583015442,48.16739583015442,48.16739583015442,48.16739583015442,48.16739583015442,48.16739583015442,50.58319044113159,2,2.5505435466766357,None,,,,,,,,,,,,,,,,,,119,2,2025-02-25_16h33.13.214,comp,2024.2.4,53.6525475437894,2025-02-25 16h34.12.934828 -0500,
7,7,0,critical,wdh,20.0,1.0,upper,125.0,200.0,141.0,141.0,200.0,125.0,1,1.5434770584106445,None,,,,,0,0,0,0,0,7,7,79,50.600188970565796,,,,,,,,,,,,,,,,,,,,,,,,,,,,,,,,,,,,,,,,,,,,,,,,,,,,,,,,,,,,,,,,,,,,,,,,,,,,,,,,,125.0,200.0,141.0,141.0,200.0,125.0,1.0,1.3,214,-286,480,-253,709,-278,50.58482599258423,50.58491110801697,50.58837819099426,50.600188970565796,50.73799133300781,50.73799133300781,50.73799133300781,50.73799133300781,50.73799133300781,50.73799133300781,50.73799133300781,52.1533579826355,1,1.5434770584106445,None,,,,,,,,,,,,,,,,,,119,2,2025-02-25_16h33.13.214,comp,2024.2.4,53.6525475437894,2025-02-25 16h34.12.934828 -0500,
8,8,0,filler_square,None,None,None,None,None,None,None,None,None,None,2,3.965284824371338,None,,,,,0,0,0,0,0,8,8,178,52.16961097717285,,,,,,,,,,,,,,,,,,,,,,,,,,,,,,,,,,,,,,,,,,,,,,,,,,,,,,,,,,,,,,,,,,,,,,,,,,,,,,,,,60.989210654686104,60.989210654686104,58.46353227659726,59.631175063566744,58.163906431416414,58.53086947955205,4.0,4.1,-156,-256,0,10,155,-263,52.155200242996216,52.15527701377869,52.15842795372009,52.16961097717285,52.314040422439575,52.314040422439575,52.314040422439575,52.314040422439575,52.314040422439575,52.314040422439575,52.314040422439575,56.15200662612915,2,3.965284824371338,None,,,,,,,,,,,,,,,,,,119,2,2025-02-25_16h33.13.214,comp,2024.2.4,53.6525475437894,2025-02-25 16h34.12.934828 -0500,
9,9,0,critical,hdw,20.0,2.1,upper,200.0,125.0,141.0,141.0,125.0,200.0,1,None,None,,,,,0,0,0,0,0,9,9,23,56.172290086746216,,,,,,,,,,,,,,,,,,,,,,,,,,,,,,,,,,,,,,,,,,,,,,,,,,,,,,,,,,,,,,,,,,,,,,,,,,,,,,,,,200.0,125.0,141.0,141.0,125.0,200.0,2.1,2.11,-229,272,0,286,266,-283,56.1536705493927,56.1537446975708,56.15703773498535,56.172290086746216,56.32004928588867,56.32004928588867,56.32004928588867,56.32004928588867,56.32004928588867,56.32004928588867,56.32004928588867,56.321685552597046,1,None,None,,,,,,,,,,,,,,,,,,119,2,2025-02-25_16h33.13.214,comp,2024.2.4,53.6525475437894,2025-02-25 16h34.12.934828 -0500,
10,10,0,filler_square,None,None,None,None,None,None,None,None,None,None,2,3.19002366065979,None,,,,,0,0,0,0,0,10,10,171,56.337722063064575,,,,,,,,,,,,,,,,,,,,,,,,,,,,,,,,,,,,,,,,,,,,,,,,,,,,,,,,,,,,,,,,,,,,,,,,,,,,,,,,,68.8874434947385,70.89779119538056,74.43255985380479,74.43255985380479,64.62884085495043,67.1763474863826,1.0,1.2,-169,14,0,-10,167,14,56.323686599731445,56.32379674911499,56.327165603637695,56.337722063064575,56.483145236968994,56.483145236968994,56.483145236968994,56.483145236968994,56.483145236968994,56.483145236968994,56.483145236968994,59.535789489746094,2,3.19002366065979,None,,,,,,,,,,,,,,,,,,119,2,2025-02-25_16h33.13.214,comp,2024.2.4,53.6525475437894,2025-02-25 16h34.12.934828 -0500,
11,11,0,filler_square,None,None,None,None,None,None,None,None,None,None,2,1.398397445678711,None,,,,,0,0,0,0,0,11,11,182,59.552555561065674,,,,,,,,,,,,,,,,,,,,,,,,,,,,,,,,,,,,,,,,,,,,,,,,,,,,,,,,,,,,,,,,,,,,,,,,,,,,,,,,,60.65343743139303,85.9437843053934,156.75429753400329,156.75429753400329,81.46461757894838,133.9392724781695,4.0,4.2,-217,-18,0,-271,241,13,59.537599086761475,59.537677526474,59.54096722602844,59.552555561065674,59.70294499397278,59.70294499397278,59.70294499397278,59.70294499397278,59.70294499397278,59.70294499397278,59.70294499397278,60.95406651496887,2,1.398397445678711,None,,,,,,,,,,,,,,,,,,119,2,2025-02-25_16h33.13.214,comp,2024.2.4,53.6525475437894,2025-02-25 16h34.12.934828 -0500,
12,12,0,critical,whd,20.0,2.1,upper,125.0,200.0,200.0,125.0,141.0,141.0,1,1.8704440593719482,None,,,,,0,0,0,0,0,12,12,39,60.96892476081848,,,,,,,,,,,,,,,,,,,,,,,,,,,,,,,,,,,,,,,,,,,,,,,,,,,,,,,,,,,,,,,,,,,,,,,,,,,,,,,,,125.0,200.0,200.0,125.0,141.0,141.0,2.1,2.12,-258,-269,0,-278,229,258,60.95566725730896,60.955750703811646,60.959328413009644,60.96892476081848,61.11261463165283,61.11261463165283,61.11261463165283,61.11261463165283,61.11261463165283,61.11261463165283,61.11261463165283,62.84320020675659,1,1.8704440593719482,None,,,,,,,,,,,,,,,,,,119,2,2025-02-25_16h33.13.214,comp,2024.2.4,53.6525475437894,2025-02-25 16h34.12.934828 -0500,
13,13,0,filler_square,None,None,None,None,None,None,None,None,None,None,2,1.1954624652862549,None,,,,,0,0,0,0,0,13,13,205,62.85950970649719,,,,,,,,,,,,,,,,,,,,,,,,,,,,,,,,,,,,,,,,,,,,,,,,,,,,,,,,,,,,,,,,,,,,,,,,,,,,,,,,,71.2415421619396,62.905118949908086,179.9012564848575,179.9012564848575,156.05525119809857,134.8152227339499,2.2,2.21,-217,-281,0,273,253,285,62.84510254859924,62.84518122673035,62.8481023311615,62.85950970649719,63.006494760513306,63.006494760513306,63.006494760513306,63.006494760513306,63.006494760513306,63.006494760513306,63.006494760513306,64.07163596153259,2,1.1954624652862549,None,,,,,,,,,,,,,,,,,,119,2,2025-02-25_16h33.13.214,comp,2024.2.4,53.6525475437894,2025-02-25 16h34.12.934828 -0500,
14,14,0,filler_random,None,None,None,None,None,None,None,None,None,None,1,1.5763750076293945,None,,,,,0,0,0,0,0,14,14,167,64.0875837802887,,,,,,,,,,,,,,,,,,,,,,,,,,,,,,,,,,,,,,,,,,,,,,,,,,,,,,,,,,,,,,,,,,,,,,,,,,,,,,,,,180.21828795132632,100.5188136158756,69.75538107861675,95.36303735704394,115.08836093996558,61.52845411462649,1.0,1.3,286,-256,480,-254,654,-266,64.0734293460846,64.07351016998291,64.07713723182678,64.0875837802887,64.23972630500793,64.23972630500793,64.23972630500793,64.23972630500793,64.23972630500793,64.23972630500793,64.23972630500793,65.6731367111206,1,1.5763750076293945,None,,,,,,,,,,,,,,,,,,119,2,2025-02-25_16h33.13.214,comp,2024.2.4,53.6525475437894,2025-02-25 16h34.12.934828 -0500,
15,15,0,critical,hdw,20.0,4.0,lower,133.0,57.0,78.0,78.0,57.0,133.0,2,2.4347283840179443,None,,,,,0,0,0,0,0,15,15,118,65.69305467605591,,,,,,,,,,,,,,,,,,,,,,,,,,,,,,,,,,,,,,,,,,,,,,,,,,,,,,,,,,,,,,,,,,,,,,,,,,,,,,,,,133.0,57.0,78.0,78.0,57.0,133.0,4.0,4.2,-164,-7,0,-274,202,17,65.67542505264282,65.67554974555969,65.6808352470398,65.69305467605591,65.83998942375183,65.83998942375183,65.83998942375183,65.83998942375183,65.83998942375183,65.83998942375183,65.83998942375183,68.14664793014526,2,2.4347283840179443,None,,,,,,,,,,,,,,,,,,119,2,2025-02-25_16h33.13.214,comp,2024.2.4,53.6525475437894,2025-02-25 16h34.12.934828 -0500,
16,16,0,filler_random,None,None,None,None,None,None,None,None,None,None,3,1.3311474323272705,None,,,,,0,0,0,0,0,16,16,158,68.16379904747009,,,,,,,,,,,,,,,,,,,,,,,,,,,,,,,,,,,,,,,,,,,,,,,,,,,,,,,,,,,,,,,,,,,,,,,,,,,,,,,,,193.00225815378244,99.99319669760024,142.0859984900385,189.5946986054268,198.446709053174,186.9670199728636,2.2,2.22,-241,272,0,-250,284,-275,68.14831781387329,68.14839386940002,68.15135836601257,68.16379904747009,68.30737590789795,68.30737590789795,68.30737590789795,68.30737590789795,68.30737590789795,68.30737590789795,68.30737590789795,69.51001024246216,3,1.3311474323272705,None,,,,,,,,,,,,,,,,,,119,2,2025-02-25_16h33.13.214,comp,2024.2.4,53.6525475437894,2025-02-25 16h34.12.934828 -0500,
17,17,0,critical,dhw,20.0,3.0,upper,141.0,141.0,200.0,125.0,125.0,200.0,3,1.976712703704834,None,,,,,0,0,0,0,0,17,17,57,69.52639698982239,,,,,,,,,,,,,,,,,,,,,,,,,,,,,,,,,,,,,,,,,,,,,,,,,,,,,,,,,,,,,,,,,,,,,,,,,,,,,,,,,141.0,141.0,200.0,125.0,125.0,200.0,3.0,3.1,-229,257,0,-9,258,-264,69.51156973838806,69.511647939682,69.5151789188385,69.52639698982239,69.67333889007568,69.67333889007568,69.67333889007568,69.67333889007568,69.67333889007568,69.67333889007568,69.67333889007568,71.50628161430359,3,1.976712703704834,None,,,,,,,,,,,,,,,,,,119,2,2025-02-25_16h33.13.214,comp,2024.2.4,53.6525475437894,2025-02-25 16h34.12.934828 -0500,
18,18,0,critical,wdh,35.0,3.0,upper,125.0,200.0,127.0,127.0,200.0,125.0,1,1.2208783626556396,None,,,,,0,0,0,0,0,18,18,75,71.52221298217773,,,,,,,,,,,,,,,,,,,,,,,,,,,,,,,,,,,,,,,,,,,,,,,,,,,,,,,,,,,,,,,,,,,,,,,,,,,,,,,,,125.0,200.0,127.0,127.0,200.0,125.0,3.0,3.2,-260,-255,0,-17,222,282,71.50793218612671,71.50806379318237,71.5114951133728,71.52221298217773,71.67406272888184,71.67406272888184,71.67406272888184,71.67406272888184,71.67406272888184,71.67406272888184,71.67406272888184,72.76247000694275,1,1.2208783626556396,None,,,,,,,,,,,,,,,,,,119,2,2025-02-25_16h33.13.214,comp,2024.2.4,53.6525475437894,2025-02-25 16h34.12.934828 -0500,
19,19,0,filler_random,None,None,None,None,None,None,None,None,None,None,1,1.6428697109222412,None,,,,,0,0,0,0,0,19,19,147,72.78048396110535,,,,,,,,,,,,,,,,,,,,,,,,,,,,,,,,,,,,,,,,,,,,,,,,,,,,,,,,,,,,,,,,,,,,,,,,,,,,,,,,,168.67553994123764,116.21584765098525,134.36571249972823,124.19294858247376,89.15094654786876,87.02652127573607,1.0,1.3,264,-277,480,-256,682,-259,72.76433730125427,72.7644407749176,72.76771712303162,72.78048396110535,72.92858171463013,72.92858171463013,72.92858171463013,72.92858171463013,72.92858171463013,72.92858171463013,72.92858171463013,74.44480681419373,1,1.6428697109222412,None,,,,,,,,,,,,,,,,,,119,2,2025-02-25_16h33.13.214,comp,2024.2.4,53.6525475437894,2025-02-25 16h34.12.934828 -0500,
20,20,0,critical,dhw,35.0,2.1,upper,127.0,127.0,200.0,125.0,125.0,200.0,3,1.2642953395843506,None,,,,,0,0,0,0,0,20,20,25,74.46270275115967,,,,,,,,,,,,,,,,,,,,,,,,,,,,,,,,,,,,,,,,,,,,,,,,,,,,,,,,,,,,,,,,,,,,,,,,,,,,,,,,,127.0,127.0,200.0,125.0,125.0,200.0,2.1,2.11,-222,260,0,283,258,-257,74.44665265083313,74.44677829742432,74.44997215270996,74.46270275115967,74.60815501213074,74.60815501213074,74.60815501213074,74.60815501213074,74.60815501213074,74.60815501213074,74.60815501213074,75.74500060081482,3,1.2642953395843506,None,,,,,,,,,,,,,,,,,,119,2,2025-02-25_16h33.13.214,comp,2024.2.4,53.6525475437894,2025-02-25 16h34.12.934828 -0500,
21,21,0,catch,None,None,None,None,None,None,None,None,None,None,2,0.9979734420776367,None,,,,,0,0,0,0,0,21,21,120,75.76136589050293,,,,,,,,,,,,,,,,,,,,,,,,,,,,,,,,,,,,,,,,,,,,,,,,,,,,,,,,,,,,,,,,,,,,,,,,,,,,,,,,,91,99,163,162,125,65,1.0,1.3,254,-278,480,-286,690,-260,75.74712777137756,75.74720168113708,75.75097870826721,75.76136589050293,75.91465139389038,75.91465139389038,75.91465139389038,75.91465139389038,75.91465139389038,75.91465139389038,75.91465139389038,76.76229453086853,2,0.9979734420776367,None,,,,,,,,,,,,,,,,,,119,2,2025-02-25_16h33.13.214,comp,2024.2.4,53.6525475437894,2025-02-25 16h34.12.934828 -0500,
22,22,0,filler_random,None,None,None,None,None,None,None,None,None,None,3,1.217987060546875,None,,,,,0,0,0,0,0,22,22,153,76.78121399879456,,,,,,,,,,,,,,,,,,,,,,,,,,,,,,,,,,,,,,,,,,,,,,,,,,,,,,,,,,,,,,,,,,,,,,,,,,,,,,,,,149.58016014979313,120.50833871430532,113.75670943888986,107.26114439434431,163.39366930034237,120.09832118430424,1.0,1.3,270,-277,480,-259,690,-273,76.76417398452759,76.76428532600403,76.7676453590393,76.78121399879456,76.92849135398865,76.92849135398865,76.92849135398865,76.92849135398865,76.92849135398865,76.92849135398865,76.92849135398865,78.00842547416687,3,1.217987060546875,None,,,,,,,,,,,,,,,,,,119,2,2025-02-25_16h33.13.214,comp,2024.2.4,53.6525475437894,2025-02-25 16h34.12.934828 -0500,
23,23,0,filler_random,None,None,None,None,None,None,None,None,None,None,1,0.9984099864959717,None,,,,,0,0,0,0,0,23,23,162,78.02506756782532,,,,,,,,,,,,,,,,,,,,,,,,,,,,,,,,,,,,,,,,,,,,,,,,,,,,,,,,,,,,,,,,,,,,,,,,,,,,,,,,,134.87319370347478,150.50249415361858,70.62861660486065,116.75738677302857,97.3165972423514,62.167096680655334,2.1,2.12,-230,-256,0,-256,185,273,78.01008462905884,78.01016044616699,78.01354098320007,78.02506756782532,78.17480516433716,78.17480516433716,78.17480516433716,78.17480516433716,78.17480516433716,78.17480516433716,78.17480516433716,79.02892971038818,1,0.9984099864959717,None,,,,,,,,,,,,,,,,,,119,2,2025-02-25_16h33.13.214,comp,2024.2.4,53.6525475437894,2025-02-25 16h34.12.934828 -0500,
24,24,0,critical,wdh,20.0,3.0,lower,57.0,133.0,78.0,78.0,133.0,57.0,1,1.5876920223236084,None,,,,,0,0,0,0,0,24,24,80,79.04508543014526,,,,,,,,,,,,,,,,,,,,,,,,,,,,,,,,,,,,,,,,,,,,,,,,,,,,,,,,,,,,,,,,,,,,,,,,,,,,,,,,,57.0,133.0,78.0,78.0,133.0,57.0,3.0,3.2,-202,-255,0,16,164,279,79.03061604499817,79.03075933456421,79.03429126739502,79.04508543014526,79.19199252128601,79.19199252128601,79.19199252128601,79.19199252128601,79.19199252128601,79.19199252128601,79.19199252128601,80.64372372627258,1,1.5876920223236084,None,,,,,,,,,,,,,,,,,,119,2,2025-02-25_16h33.13.214,comp,2024.2.4,53.6525475437894,2025-02-25 16h34.12.934828 -0500,
25,25,0,filler_square,None,None,None,None,None,None,None,None,None,None,3,0.9393777847290039,None,,,,,0,0,0,0,0,25,25,194,80.65996289253235,,,,,,,,,,,,,,,,,,,,,,,,,,,,,,,,,,,,,,,,,,,,,,,,,,,,,,,,,,,,,,,,,,,,,,,,,,,,,,,,,68.10739362555526,76.55349076291581,58.49197433463519,57.958335476123736,84.44998844248488,84.44998844248488,2.2,2.22,-163,264,0,-269,167,-262,80.64550256729126,80.645578622818,80.64874744415283,80.65996289253235,80.80850529670715,80.80850529670715,80.80850529670715,80.80850529670715,80.80850529670715,80.80850529670715,80.80850529670715,81.60311031341553,3,0.9393777847290039,None,,,,,,,,,,,,,,,,,,119,2,2025-02-25_16h33.13.214,comp,2024.2.4,53.6525475437894,2025-02-25 16h34.12.934828 -0500,
26,26,0,filler_square,None,None,None,None,None,None,None,None,None,None,2,1.0903651714324951,None,,,,,0,0,0,0,0,26,26,183,81.62085103988647,,,,,,,,,,,,,,,,,,,,,,,,,,,,,,,,,,,,,,,,,,,,,,,,,,,,,,,,,,,,,,,,,,,,,,,,,,,,,,,,,99.53555423509454,89.46223038830294,113.9092236528183,113.9092236528183,74.39379487470853,91.84107973103926,2.2,2.21,-198,-278,0,258,199,271,81.60488843917847,81.6049644947052,81.6078839302063,81.62085103988647,81.76129078865051,81.76129078865051,81.76129078865051,81.76129078865051,81.76129078865051,81.76129078865051,81.76129078865051,82.71322846412659,2,1.0903651714324951,None,,,,,,,,,,,,,,,,,,119,2,2025-02-25_16h33.13.214,comp,2024.2.4,53.6525475437894,2025-02-25 16h34.12.934828 -0500,
27,27,0,critical,hdw,20.0,2.1,lower,133.0,57.0,78.0,78.0,57.0,133.0,3,1.1895489692687988,None,,,,,0,0,0,0,0,27,27,22,82.72953653335571,,,,,,,,,,,,,,,,,,,,,,,,,,,,,,,,,,,,,,,,,,,,,,,,,,,,,,,,,,,,,,,,,,,,,,,,,,,,,,,,,133.0,57.0,78.0,78.0,57.0,133.0,2.1,2.11,-164,287,0,263,202,-283,82.71491408348083,82.71499156951904,82.71884894371033,82.72953653335571,82.88098430633545,82.88098430633545,82.88098430633545,82.88098430633545,82.88098430633545,82.88098430633545,82.88098430633545,83.92787528038025,3,1.1895489692687988,None,,,,,,,,,,,,,,,,,,119,2,2025-02-25_16h33.13.214,comp,2024.2.4,53.6525475437894,2025-02-25 16h34.12.934828 -0500,
28,28,0,filler_random,None,None,None,None,None,None,None,None,None,None,3,1.550313949584961,None,,,,,0,0,0,0,0,28,28,160,83.94471502304077,,,,,,,,,,,,,,,,,,,,,,,,,,,,,,,,,,,,,,,,,,,,,,,,,,,,,,,,,,,,,,,,,,,,,,,,,,,,,,,,,122.07796532406267,114.37081209878863,69.1821041776326,111.88557123209121,163.81570614487754,109.77315365165579,1.0,1.1,-689,275,-480,280,-273,254,83.92971634864807,83.9298529624939,83.9332811832428,83.94471502304077,84.09404301643372,84.09404301643372,84.09404301643372,84.09404301643372,84.09404301643372,84.09404301643372,84.09404301643372,85.51324439048767,3,1.550313949584961,None,,,,,,,,,,,,,,,,,,119,2,2025-02-25_16h33.13.214,comp,2024.2.4,53.6525475437894,2025-02-25 16h34.12.934828 -0500,
29,29,0,filler_random,None,None,None,None,None,None,None,None,None,None,1,1.0198585987091064,None,,,,,0,0,0,0,0,29,29,169,85.5311508178711,,,,,,,,,,,,,,,,,,,,,,,,,,,,,,,,,,,,,,,,,,,,,,,,,,,,,,,,,,,,,,,,,,,,,,,,,,,,,,,,,195.64604190695968,120.77553065768151,86.84186570555144,84.39166597959024,71.04545652576863,99.71520219296752,4.0,4.2,-199,-14,0,-263,188,10,85.51507449150085,85.51519465446472,85.51850008964539,85.5311508178711,85.68789935112,85.68789935112,85.68789935112,85.68789935112,85.68789935112,85.68789935112,85.68789935112,86.56118369102478,1,1.0198585987091064,None,,,,,,,,,,,,,,,,,,119,2,2025-02-25_16h33.13.214,comp,2024.2.4,53.6525475437894,2025-02-25 16h34.12.934828 -0500,
30,30,0,critical,dwh,20.0,1.0,lower,78.0,78.0,57.0,133.0,133.0,57.0,2,2.253774642944336,None,,,,,0,0,0,0,0,30,30,66,86.57715010643005,,,,,,,,,,,,,,,,,,,,,,,,,,,,,,,,,,,,,,,,,,,,,,,,,,,,,,,,,,,,,,,,,,,,,,,,,,,,,,,,,78.0,78.0,57.0,133.0,133.0,57.0,1.0,1.1,-682,253,-480,289,-289,289,86.56270122528076,86.56277775764465,86.56580996513367,86.57715010643005,86.73499417304993,86.73499417304993,86.73499417304993,86.73499417304993,86.73499417304993,86.73499417304993,86.73499417304993,88.84551239013672,2,2.253774642944336,None,,,,,,,,,,,,,,,,,,119,2,2025-02-25_16h33.13.214,comp,2024.2.4,53.6525475437894,2025-02-25 16h34.12.934828 -0500,
31,31,0,critical,whd,35.0,4.0,upper,125.0,200.0,200.0,125.0,127.0,127.0,1,1.5781469345092773,None,,,,,0,0,0,0,0,31,31,89,88.86163830757141,,,,,,,,,,,,,,,,,,,,,,,,,,,,,,,,,,,,,,,,,,,,,,,,,,,,,,,,,,,,,,,,,,,,,,,,,,,,,,,,,125.0,200.0,200.0,125.0,127.0,127.0,4.0,4.2,-258,-1,0,-281,222,7,88.8470709323883,88.8471508026123,88.8503201007843,88.86163830757141,89.00889945030212,89.00889945030212,89.00889945030212,89.00889945030212,89.00889945030212,89.00889945030212,89.00889945030212,90.44708609580994,1,1.5781469345092773,None,,,,,,,,,,,,,,,,,,119,2,2025-02-25_16h33.13.214,comp,2024.2.4,53.6525475437894,2025-02-25 16h34.12.934828 -0500,
32,32,0,critical,dhw,20.0,4.0,lower,78.0,78.0,133.0,57.0,57.0,133.0,3,1.7441620826721191,None,,,,,0,0,0,0,0,32,32,58,90.46345496177673,,,,,,,,,,,,,,,,,,,,,,,,,,,,,,,,,,,,,,,,,,,,,,,,,,,,,,,,,,,,,,,,,,,,,,,,,,,,,,,,,78.0,78.0,133.0,57.0,57.0,133.0,4.0,4.2,-164,-14,0,-289,191,11,90.44860172271729,90.44867777824402,90.45216917991638,90.46345496177673,90.60139226913452,90.60139226913452,90.60139226913452,90.60139226913452,90.60139226913452,90.60139226913452,90.60139226913452,92.21291708946228,3,1.7441620826721191,None,,,,,,,,,,,,,,,,,,119,2,2025-02-25_16h33.13.214,comp,2024.2.4,53.6525475437894,2025-02-25 16h34.12.934828 -0500,
33,33,0,critical,hdw,35.0,2.1,upper,200.0,125.0,127.0,127.0,125.0,200.0,1,3.255911350250244,None,,,,,0,0,0,0,0,33,33,21,92.23207831382751,,,,,,,,,,,,,,,,,,,,,,,,,,,,,,,,,,,,,,,,,,,,,,,,,,,,,,,,,,,,,,,,,,,,,,,,,,,,,,,,,200.0,125.0,127.0,127.0,125.0,200.0,2.1,2.12,-222,-254,0,-259,260,280,92.21445679664612,92.21453166007996,92.21776533126831,92.23207831382751,92.38012790679932,92.38012790679932,92.38012790679932,92.38012790679932,92.38012790679932,92.38012790679932,92.38012790679932,95.49873852729797,1,3.255911350250244,None,,,,,,,,,,,,,,,,,,119,2,2025-02-25_16h33.13.214,comp,2024.2.4,53.6525475437894,2025-02-25 16h34.12.934828 -0500,
34,34,0,critical,dwh,35.0,1.0,lower,70.0,70.0,57.0,133.0,133.0,57.0,2,4.044311761856079,None,,,,,0,0,0,0,0,34,34,60,95.51484847068787,,,,,,,,,,,,,,,,,,,,,,,,,,,,,,,,,,,,,,,,,,,,,,,,,,,,,,,,,,,,,,,,,,,,,,,,,,,,,,,,,70.0,70.0,57.0,133.0,133.0,57.0,1.0,1.3,282,-265,480,-263,671,-275,95.50025606155396,95.50035429000854,95.50396776199341,95.51484847068787,95.67147707939148,95.67147707939148,95.67147707939148,95.67147707939148,95.67147707939148,95.67147707939148,95.67147707939148,99.5741217136383,2,4.044311761856079,None,,,,,,,,,,,,,,,,,,119,2,2025-02-25_16h33.13.214,comp,2024.2.4,53.6525475437894,2025-02-25 16h34.12.934828 -0500,
35,35,0,critical,wdh,35.0,2.1,upper,125.0,200.0,127.0,127.0,200.0,125.0,3,2.084822654724121,None,,,,,0,0,0,0,0,35,35,9,99.59499478340149,,,,,,,,,,,,,,,,,,,,,,,,,,,,,,,,,,,,,,,,,,,,,,,,,,,,,,,,,,,,,,,,,,,,,,,,,,,,,,,,,125.0,200.0,127.0,127.0,200.0,125.0,2.1,2.11,-260,264,0,278,222,-271,99.57576441764832,99.57586431503296,99.57924103736877,99.59499478340149,99.73374915122986,99.73374915122986,99.73374915122986,99.73374915122986,99.73374915122986,99.73374915122986,99.73374915122986,101.68641710281372,3,2.084822654724121,None,,,,,,,,,,,,,,,,,,119,2,2025-02-25_16h33.13.214,comp,2024.2.4,53.6525475437894,2025-02-25 16h34.12.934828 -0500,
36,36,0,filler_random,None,None,None,None,None,None,None,None,None,None,2,0.9999868869781494,None,,,,,0,0,0,0,0,36,36,156,101.70315289497375,,,,,,,,,,,,,,,,,,,,,,,,,,,,,,,,,,,,,,,,,,,,,,,,,,,,,,,,,,,,,,,,,,,,,,,,,,,,,,,,,118.03166242233968,90.21090118704929,170.09451988884624,100.78396090440356,192.45234154244912,67.80881616707352,4.0,4.1,-191,-258,0,-3,180,-272,101.68814373016357,101.68822145462036,101.6917655467987,101.70315289497375,101.85726165771484,101.85726165771484,101.85726165771484,101.85726165771484,101.85726165771484,101.85726165771484,101.85726165771484,102.71862149238586,2,0.9999868869781494,None,,,,,,,,,,,,,,,,,,119,2,2025-02-25_16h33.13.214,comp,2024.2.4,53.6525475437894,2025-02-25 16h34.12.934828 -0500,
37,37,0,critical,dwh,20.0,2.1,upper,141.0,141.0,125.0,200.0,200.0,125.0,3,0.9917826652526855,None,,,,,0,0,0,0,0,37,37,7,102.73572874069214,,,,,,,,,,,,,,,,,,,,,,,,,,,,,,,,,,,,,,,,,,,,,,,,,,,,,,,,,,,,,,,,,,,,,,,,,,,,,,,,,141.0,141.0,125.0,200.0,200.0,125.0,2.1,2.12,-266,-251,0,-285,258,276,102.72036743164062,102.72050356864929,102.7245864868164,102.73572874069214,102.88392233848572,102.88392233848572,102.88392233848572,102.88392233848572,102.88392233848572,102.88392233848572,102.88392233848572,103.73469161987305,3,0.9917826652526855,None,,,,,,,,,,,,,,,,,,119,2,2025-02-25_16h33.13.214,comp,2024.2.4,53.6525475437894,2025-02-25 16h34.12.934828 -0500,
38,38,0,filler_square,None,None,None,None,None,None,None,None,None,None,2,1.0088109970092773,None,,,,,0,0,0,0,0,38,38,186,103.75079798698425,,,,,,,,,,,,,,,,,,,,,,,,,,,,,,,,,,,,,,,,,,,,,,,,,,,,,,,,,,,,,,,,,,,,,,,,,,,,,,,,,117.28845679421617,162.95592309430907,197.61672074587793,197.61672074587793,109.3462785643961,64.64681491130195,2.1,2.12,-276,-262,0,-263,227,255,103.73655700683594,103.73663330078125,103.74008274078369,103.75079798698425,103.90037751197815,103.90037751197815,103.90037751197815,103.90037751197815,103.90037751197815,103.90037751197815,103.90037751197815,104.76793599128723,2,1.0088109970092773,None,,,,,,,,,,,,,,,,,,119,2,2025-02-25_16h33.13.214,comp,2024.2.4,53.6525475437894,2025-02-25 16h34.12.934828 -0500,
39,39,0,filler_square,None,None,None,None,None,None,None,None,None,None,3,1.5987322330474854,None,,,,,0,0,0,0,0,39,39,196,104.78419041633606,,,,,,,,,,,,,,,,,,,,,,,,,,,,,,,,,,,,,,,,,,,,,,,,,,,,,,,,,,,,,,,,,,,,,,,,,,,,,,,,,114.25132815767051,69.82771014304019,118.85791554314696,137.21532763820107,141.22837829689462,141.22837829689462,2.2,2.22,-200,259,0,-279,235,-254,104.76976990699768,104.76984572410583,104.77339339256287,104.78419041633606,104.93311333656311,104.93311333656311,104.93311333656311,104.93311333656311,104.93311333656311,104.93311333656311,104.93311333656311,106.4024772644043,3,1.5987322330474854,None,,,,,,,,,,,,,,,,,,119,2,2025-02-25_16h33.13.214,comp,2024.2.4,53.6525475437894,2025-02-25 16h34.12.934828 -0500,
40,40,0,filler_random,None,None,None,None,None,None,None,None,None,None,2,2.1472392082214355,None,,,,,0,0,0,0,0,40,40,133,106.42043590545654,,,,,,,,,,,,,,,,,,,,,,,,,,,,,,,,,,,,,,,,,,,,,,,,,,,,,,,,,,,,,,,,,,,,,,,,,,,,,,,,,124.7212725895393,141.34625597712215,167.22534044301113,96.85581368809889,196.92241993249795,59.787248940144366,1.0,1.1,-695,268,-480,280,-306,264,106.40417575836182,106.40425133705139,106.40760970115662,106.42043590545654,106.56874346733093,106.56874346733093,106.56874346733093,106.56874346733093,106.56874346733093,106.56874346733093,106.56874346733093,108.57454037666321,2,2.1472392082214355,None,,,,,,,,,,,,,,,,,,119,2,2025-02-25_16h33.13.214,comp,2024.2.4,53.6525475437894,2025-02-25 16h34.12.934828 -0500,
41,41,0,filler_random,None,None,None,None,None,None,None,None,None,None,1,5.481596231460571,None,,,,,0,0,0,0,0,41,41,163,108.5899384021759,,,,,,,,,,,,,,,,,,,,,,,,,,,,,,,,,,,,,,,,,,,,,,,,,,,,,,,,,,,,,,,,,,,,,,,,,,,,,,,,,173.07128955571346,125.69701031771447,124.19733702860036,114.77438068188263,141.1985497531011,135.64874599129274,2.1,2.11,-216,287,0,263,221,-259,108.57623028755188,108.57633805274963,108.57926940917969,108.5899384021759,108.7390365600586,108.7390365600586,108.7390365600586,108.7390365600586,108.7390365600586,108.7390365600586,108.7390365600586,114.0759482383728,1,5.481596231460571,None,,,,,,,,,,,,,,,,,,119,2,2025-02-25_16h33.13.214,comp,2024.2.4,53.6525475437894,2025-02-25 16h34.12.934828 -0500,
42,42,0,critical,hdw,35.0,4.0,upper,200.0,125.0,127.0,127.0,125.0,200.0,1,1.7714142799377441,None,,,,,0,0,0,0,0,42,42,113,114.09208226203918,,,,,,,,,,,,,,,,,,,,,,,,,,,,,,,,,,,,,,,,,,,,,,,,,,,,,,,,,,,,,,,,,,,,,,,,,,,,,,,,,200.0,125.0,127.0,127.0,125.0,200.0,4.0,4.1,-222,-262,0,10,260,-287,114.07741713523865,114.07749509811401,114.08048987388611,114.09208226203918,114.24043893814087,114.24043893814087,114.24043893814087,114.24043893814087,114.24043893814087,114.24043893814087,114.24043893814087,115.87239122390747,1,1.7714142799377441,None,,,,,,,,,,,,,,,,,,119,2,2025-02-25_16h33.13.214,comp,2024.2.4,53.6525475437894,2025-02-25 16h34.12.934828 -0500,
43,43,0,filler_square,None,None,None,None,None,None,None,None,None,None,2,1.7979059219360352,None,,,,,0,0,0,0,0,43,43,209,115.88914489746094,,,,,,,,,,,,,,,,,,,,,,,,,,,,,,,,,,,,,,,,,,,,,,,,,,,,,,,,,,,,,,,,,,,,,,,,,,,,,,,,,79.88508160649148,131.76324128721626,137.92101762639885,137.92101762639885,73.23394383510396,107.2012909020252,1.0,1.1,-711,278,-480,253,-261,288,115.87451076507568,115.87459421157837,115.87827157974243,115.88914489746094,116.03647112846375,116.03647112846375,116.03647112846375,116.03647112846375,116.03647112846375,116.03647112846375,116.03647112846375,117.70516347885132,2,1.7979059219360352,None,,,,,,,,,,,,,,,,,,119,2,2025-02-25_16h33.13.214,comp,2024.2.4,53.6525475437894,2025-02-25 16h34.12.934828 -0500,
44,44,0,critical,whd,20.0,1.0,lower,57.0,133.0,133.0,57.0,78.0,78.0,1,2.1660821437835693,None,,,,,0,0,0,0,0,44,44,90,117.7214047908783,,,,,,,,,,,,,,,,,,,,,,,,,,,,,,,,,,,,,,,,,,,,,,,,,,,,,,,,,,,,,,,,,,,,,,,,,,,,,,,,,57.0,133.0,133.0,57.0,78.0,78.0,1.0,1.2,-191,10,0,8,164,15,117.7067003250122,117.70677208900452,117.7100613117218,117.7214047908783,117.87653541564941,117.87653541564941,117.87653541564941,117.87653541564941,117.87653541564941,117.87653541564941,117.87653541564941,119.89557909965515,1,2.1660821437835693,None,,,,,,,,,,,,,,,,,,119,2,2025-02-25_16h33.13.214,comp,2024.2.4,53.6525475437894,2025-02-25 16h34.12.934828 -0500,
45,45,0,critical,hwd,20.0,2.1,lower,133.0,57.0,57.0,133.0,78.0,78.0,2,1.7480413913726807,None,,,,,0,0,0,0,0,45,45,42,119.91485857963562,,,,,,,,,,,,,,,,,,,,,,,,,,,,,,,,,,,,,,,,,,,,,,,,,,,,,,,,,,,,,,,,,,,,,,,,,,,,,,,,,133.0,57.0,57.0,133.0,78.0,78.0,2.1,2.11,-191,259,0,289,202,-279,119.89717936515808,119.89728832244873,119.90075421333313,119.91485857963562,120.05613112449646,120.05613112449646,120.05613112449646,120.05613112449646,120.05613112449646,120.05613112449646,120.05613112449646,121.67743015289307,2,1.7480413913726807,None,,,,,,,,,,,,,,,,,,119,2,2025-02-25_16h33.13.214,comp,2024.2.4,53.6525475437894,2025-02-25 16h34.12.934828 -0500,
46,46,0,critical,whd,20.0,2.1,lower,57.0,133.0,133.0,57.0,78.0,78.0,3,1.1048352718353271,None,,,,,0,0,0,0,0,46,46,38,121.6946029663086,,,,,,,,,,,,,,,,,,,,,,,,,,,,,,,,,,,,,,,,,,,,,,,,,,,,,,,,,,,,,,,,,,,,,,,,,,,,,,,,,57.0,133.0,133.0,57.0,78.0,78.0,2.1,2.11,-191,284,0,256,164,-283,121.67897295951843,121.67904782295227,121.68200016021729,121.6946029663086,121.84007620811462,121.84007620811462,121.84007620811462,121.84007620811462,121.84007620811462,121.84007620811462,121.84007620811462,122.80218696594238,3,1.1048352718353271,None,,,,,,,,,,,,,,,,,,119,2,2025-02-25_16h33.13.214,comp,2024.2.4,53.6525475437894,2025-02-25 16h34.12.934828 -0500,
47,47,0,filler_square,None,None,None,None,None,None,None,None,None,None,1,1.2365312576293945,None,,,,,0,0,0,0,0,47,47,184,122.81868505477905,,,,,,,,,,,,,,,,,,,,,,,,,,,,,,,,,,,,,,,,,,,,,,,,,,,,,,,,,,,,,,,,,,,,,,,,,,,,,,,,,138.5837393540221,138.5837393540221,72.90676658142966,92.6847335804323,74.75427279030006,122.1237424454068,2.1,2.12,-212,-273,0,-271,203,262,122.8040246963501,122.80410480499268,122.80710577964783,122.81868505477905,122.95570468902588,122.95570468902588,122.95570468902588,122.95570468902588,122.95570468902588,122.95570468902588,122.95570468902588,124.07334733009338,1,1.2365312576293945,None,,,,,,,,,,,,,,,,,,119,2,2025-02-25_16h33.13.214,comp,2024.2.4,53.6525475437894,2025-02-25 16h34.12.934828 -0500,
48,48,0,critical,wdh,35.0,2.1,lower,57.0,133.0,70.0,70.0,133.0,57.0,1,1.6114683151245117,None,,,,,0,0,0,0,0,48,48,8,124.0918493270874,,,,,,,,,,,,,,,,,,,,,,,,,,,,,,,,,,,,,,,,,,,,,,,,,,,,,,,,,,,,,,,,,,,,,,,,,,,,,,,,,57.0,133.0,70.0,70.0,133.0,57.0,2.1,2.11,-198,287,0,278,160,-258,124.0749306678772,124.07500553131104,124.07834434509277,124.0918493270874,124.22870016098022,124.22870016098022,124.22870016098022,124.22870016098022,124.22870016098022,124.22870016098022,124.22870016098022,125.70671558380127,1,1.6114683151245117,None,,,,,,,,,,,,,,,,,,119,2,2025-02-25_16h33.13.214,comp,2024.2.4,53.6525475437894,2025-02-25 16h34.12.934828 -0500,
49,49,0,critical,hdw,35.0,3.0,lower,133.0,57.0,70.0,70.0,57.0,133.0,3,0.949554443359375,None,,,,,0,0,0,0,0,49,49,110,125.72221088409424,,,,,,,,,,,,,,,,,,,,,,,,,,,,,,,,,,,,,,,,,,,,,,,,,,,,,,,,,,,,,,,,,,,,,,,,,,,,,,,,,133.0,57.0,70.0,70.0,57.0,133.0,3.0,3.2,-160,-268,0,4,198,280,125.70820689201355,125.70828318595886,125.7114143371582,125.72221088409424,125.87947845458984,125.87947845458984,125.87947845458984,125.87947845458984,125.87947845458984,125.87947845458984,125.87947845458984,126.67851376533508,3,0.949554443359375,None,,,,,,,,,,,,,,,,,,119,2,2025-02-25_16h33.13.214,comp,2024.2.4,53.6525475437894,2025-02-25 16h34.12.934828 -0500,
50,50,0,critical,dwh,20.0,4.0,lower,78.0,78.0,57.0,133.0,133.0,57.0,2,0.9315991401672363,None,,,,,0,0,0,0,0,50,50,70,126.69929242134094,,,,,,,,,,,,,,,,,,,,,,,,,,,,,,,,,,,,,,,,,,,,,,,,,,,,,,,,,,,,,,,,,,,,,,,,,,,,,,,,,78.0,78.0,57.0,133.0,133.0,57.0,4.0,4.1,-202,-253,0,10,191,-253,126.68014287948608,126.68021893501282,126.68359875679016,126.69929242134094,126.84212946891785,126.84212946891785,126.84212946891785,126.84212946891785,126.84212946891785,126.84212946891785,126.84212946891785,127.64182305335999,2,0.9315991401672363,None,,,,,,,,,,,,,,,,,,119,2,2025-02-25_16h33.13.214,comp,2024.2.4,53.6525475437894,2025-02-25 16h34.12.934828 -0500,
51,51,0,filler_square,None,None,None,None,None,None,None,None,None,None,1,0.8446846008300781,None,,,,,0,0,0,0,0,51,51,174,127.65864253044128,,,,,,,,,,,,,,,,,,,,,,,,,,,,,,,,,,,,,,,,,,,,,,,,,,,,,,,,,,,,,,,,,,,,,,,,,,,,,,,,,184.395158508044,184.395158508044,183.0853308574941,89.19381937884847,154.67833886592132,120.47430774235013,2.2,2.21,-233,-252,0,267,201,262,127.64368271827698,127.64376091957092,127.64722156524658,127.65864253044128,127.80759716033936,127.80759716033936,127.80759716033936,127.80759716033936,127.80759716033936,127.80759716033936,127.80759716033936,128.50780129432678,1,0.8446846008300781,None,,,,,,,,,,,,,,,,,,119,2,2025-02-25_16h33.13.214,comp,2024.2.4,53.6525475437894,2025-02-25 16h34.12.934828 -0500,
52,52,0,critical,hwd,35.0,4.0,lower,133.0,57.0,57.0,133.0,70.0,70.0,2,0.9358580112457275,None,,,,,0,0,0,0,0,52,52,100,128.52709460258484,,,,,,,,,,,,,,,,,,,,,,,,,,,,,,,,,,,,,,,,,,,,,,,,,,,,,,,,,,,,,,,,,,,,,,,,,,,,,,,,,133.0,57.0,57.0,133.0,70.0,70.0,4.0,4.1,-191,-251,0,11,198,-258,128.5092442035675,128.5093400478363,128.51244497299194,128.52709460258484,128.67538189888,128.67538189888,128.67538189888,128.67538189888,128.67538189888,128.67538189888,128.67538189888,129.4786422252655,2,0.9358580112457275,None,,,,,,,,,,,,,,,,,,119,2,2025-02-25_16h33.13.214,comp,2024.2.4,53.6525475437894,2025-02-25 16h34.12.934828 -0500,
53,53,0,critical,dwh,20.0,3.0,upper,141.0,141.0,125.0,200.0,200.0,125.0,3,1.1054604053497314,None,,,,,0,0,0,0,0,53,53,69,129.49354147911072,,,,,,,,,,,,,,,,,,,,,,,,,,,,,,,,,,,,,,,,,,,,,,,,,,,,,,,,,,,,,,,,,,,,,,,,,,,,,,,,,141.0,141.0,125.0,200.0,200.0,125.0,3.0,3.1,-266,285,0,14,258,-265,129.48016905784607,129.48024487495422,129.48335027694702,129.49354147911072,129.64243268966675,129.64243268966675,129.64243268966675,129.64243268966675,129.64243268966675,129.64243268966675,129.64243268966675,130.60942673683167,3,1.1054604053497314,None,,,,,,,,,,,,,,,,,,119,2,2025-02-25_16h33.13.214,comp,2024.2.4,53.6525475437894,2025-02-25 16h34.12.934828 -0500,
54,54,0,critical,whd,20.0,3.0,upper,125.0,200.0,200.0,125.0,141.0,141.0,1,1.0698902606964111,None,,,,,0,0,0,0,0,54,54,93,130.62520694732666,,,,,,,,,,,,,,,,,,,,,,,,,,,,,,,,,,,,,,,,,,,,,,,,,,,,,,,,,,,,,,,,,,,,,,,,,,,,,,,,,125.0,200.0,200.0,125.0,141.0,141.0,3.0,3.1,-258,256,0,-5,229,-272,130.6109607219696,130.6110382080078,130.61451816558838,130.62520694732666,130.77898049354553,130.77898049354553,130.77898049354553,130.77898049354553,130.77898049354553,130.77898049354553,130.77898049354553,131.7172336578369,1,1.0698902606964111,None,,,,,,,,,,,,,,,,,,119,2,2025-02-25_16h33.13.214,comp,2024.2.4,53.6525475437894,2025-02-25 16h34.12.934828 -0500,
55,55,0,catch,None,None,None,None,None,None,None,None,None,None,1,0.8708202838897705,None,,,,,0,0,0,0,0,55,55,126,131.73635268211365,,,,,,,,,,,,,,,,,,,,,,,,,,,,,,,,,,,,,,,,,,,,,,,,,,,,,,,,,,,,,,,,,,,,,,,,,,,,,,,,,137,188,116,74,85,105,2.2,2.21,-227,-280,0,286,186,271,131.71915793418884,131.7192370891571,131.72223258018494,131.73635268211365,131.87566256523132,131.87566256523132,131.87566256523132,131.87566256523132,131.87566256523132,131.87566256523132,131.87566256523132,132.6092541217804,1,0.8708202838897705,None,,,,,,,,,,,,,,,,,,119,2,2025-02-25_16h33.13.214,comp,2024.2.4,53.6525475437894,2025-02-25 16h34.12.934828 -0500,
56,56,0,critical,wdh,35.0,4.0,lower,57.0,133.0,70.0,70.0,133.0,57.0,2,0.942007303237915,None,,,,,0,0,0,0,0,56,56,76,132.62568736076355,,,,,,,,,,,,,,,,,,,,,,,,,,,,,,,,,,,,,,,,,,,,,,,,,,,,,,,,,,,,,,,,,,,,,,,,,,,,,,,,,57.0,133.0,70.0,70.0,133.0,57.0,4.0,4.2,-198,-10,0,-256,160,19,132.61089515686035,132.61097884178162,132.61480951309204,132.62568736076355,132.77699398994446,132.77699398994446,132.77699398994446,132.77699398994446,132.77699398994446,132.77699398994446,132.77699398994446,133.57428216934204,2,0.942007303237915,None,,,,,,,,,,,,,,,,,,119,2,2025-02-25_16h33.13.214,comp,2024.2.4,53.6525475437894,2025-02-25 16h34.12.934828 -0500,
57,57,0,critical,dwh,35.0,2.1,lower,70.0,70.0,57.0,133.0,133.0,57.0,2,0.8812382221221924,None,,,,,0,0,0,0,0,57,57,4,133.59044885635376,,,,,,,,,,,,,,,,,,,,,,,,,,,,,,,,,,,,,,,,,,,,,,,,,,,,,,,,,,,,,,,,,,,,,,,,,,,,,,,,,70.0,70.0,57.0,133.0,133.0,57.0,2.1,2.11,-198,286,0,255,191,-281,133.57584643363953,133.57592272758484,133.5789031982422,133.59044885635376,133.72932505607605,133.72932505607605,133.72932505607605,133.72932505607605,133.72932505607605,133.72932505607605,133.72932505607605,134.47725200653076,2,0.8812382221221924,None,,,,,,,,,,,,,,,,,,119,2,2025-02-25_16h33.13.214,comp,2024.2.4,53.6525475437894,2025-02-25 16h34.12.934828 -0500,
58,58,0,critical,hwd,20.0,2.1,upper,200.0,125.0,125.0,200.0,141.0,141.0,2,0.8488357067108154,None,,,,,0,0,0,0,0,58,58,43,134.49424076080322,,,,,,,,,,,,,,,,,,,,,,,,,,,,,,,,,,,,,,,,,,,,,,,,,,,,,,,,,,,,,,,,,,,,,,,,,,,,,,,,,200.0,125.0,125.0,200.0,141.0,141.0,2.1,2.11,-258,262,0,273,266,-287,134.47893404960632,134.4790120124817,134.4831998348236,134.49424076080322,134.65478444099426,134.65478444099426,134.65478444099426,134.65478444099426,134.65478444099426,134.65478444099426,134.65478444099426,135.3594560623169,2,0.8488357067108154,None,,,,,,,,,,,,,,,,,,119,2,2025-02-25_16h33.13.214,comp,2024.2.4,53.6525475437894,2025-02-25 16h34.12.934828 -0500,
59,59,0,catch,None,None,None,None,None,None,None,None,None,None,1,1.26416015625,None,,,,,0,0,0,0,0,59,59,122,135.37521886825562,,,,,,,,,,,,,,,,,,,,,,,,,,,,,,,,,,,,,,,,,,,,,,,,,,,,,,,,,,,,,,,,,,,,,,,,,,,,,,,,,130,195,67,123,129,61,2.2,2.21,-255,-264,0,284,188,288,135.36136865615845,135.36144495010376,135.36472749710083,135.37521886825562,135.52342462539673,135.52342462539673,135.52342462539673,135.52342462539673,135.52342462539673,135.52342462539673,135.52342462539673,136.64365577697754,1,1.26416015625,None,,,,,,,,,,,,,,,,,,119,2,2025-02-25_16h33.13.214,comp,2024.2.4,53.6525475437894,2025-02-25 16h34.12.934828 -0500,
60,60,0,catch,None,None,None,None,None,None,None,None,None,None,3,0.8009326457977295,None,,,,,0,0,0,0,0,60,60,128,136.6621253490448,,,,,,,,,,,,,,,,,,,,,,,,,,,,,,,,,,,,,,,,,,,,,,,,,,,,,,,,,,,,,,,,,,,,,,,,,,,,,,,,,131,59,129,61,182,143,3.0,3.1,-156,257,0,-19,198,-277,136.64560055732727,136.64568281173706,136.64887022972107,136.6621253490448,136.8201401233673,136.8201401233673,136.8201401233673,136.8201401233673,136.8201401233673,136.8201401233673,136.8201401233673,137.47917413711548,3,0.8009326457977295,None,,,,,,,,,,,,,,,,,,119,2,2025-02-25_16h33.13.214,comp,2024.2.4,53.6525475437894,2025-02-25 16h34.12.934828 -0500,
61,61,0,critical,dhw,35.0,4.0,lower,70.0,70.0,133.0,57.0,57.0,133.0,2,0.9057133197784424,None,,,,,0,0,0,0,0,61,61,52,137.49445271492004,,,,,,,,,,,,,,,,,,,,,,,,,,,,,,,,,,,,,,,,,,,,,,,,,,,,,,,,,,,,,,,,,,,,,,,,,,,,,,,,,70.0,70.0,133.0,57.0,57.0,133.0,4.0,4.2,-160,-8,0,-285,191,0,137.48068141937256,137.48075652122498,137.48418068885803,137.49445271492004,137.64454889297485,137.64454889297485,137.64454889297485,137.64454889297485,137.64454889297485,137.64454889297485,137.64454889297485,138.42116904258728,2,0.9057133197784424,None,,,,,,,,,,,,,,,,,,119,2,2025-02-25_16h33.13.214,comp,2024.2.4,53.6525475437894,2025-02-25 16h34.12.934828 -0500,
62,62,0,critical,dhw,20.0,2.1,upper,141.0,141.0,200.0,125.0,125.0,200.0,3,1.2488791942596436,None,,,,,0,0,0,0,0,62,62,3,138.43880915641785,,,,,,,,,,,,,,,,,,,,,,,,,,,,,,,,,,,,,,,,,,,,,,,,,,,,,,,,,,,,,,,,,,,,,,,,,,,,,,,,,141.0,141.0,200.0,125.0,125.0,200.0,2.1,2.12,-229,-261,0,-286,258,263,138.42281913757324,138.42295145988464,138.4262659549713,138.43880915641785,138.57989525794983,138.57989525794983,138.57989525794983,138.57989525794983,138.57989525794983,138.57989525794983,138.57989525794983,139.6943323612213,3,1.2488791942596436,None,,,,,,,,,,,,,,,,,,119,2,2025-02-25_16h33.13.214,comp,2024.2.4,53.6525475437894,2025-02-25 16h34.12.934828 -0500,
63,63,0,critical,dhw,20.0,3.0,lower,78.0,78.0,133.0,57.0,57.0,133.0,3,1.0016138553619385,None,,,,,0,0,0,0,0,63,63,56,139.71004605293274,,,,,,,,,,,,,,,,,,,,,,,,,,,,,,,,,,,,,,,,,,,,,,,,,,,,,,,,,,,,,,,,,,,,,,,,,,,,,,,,,78.0,78.0,133.0,57.0,57.0,133.0,3.0,3.2,-164,-251,0,-14,191,281,139.69579672813416,139.69587206840515,139.6990876197815,139.71004605293274,139.86103081703186,139.86103081703186,139.86103081703186,139.86103081703186,139.86103081703186,139.86103081703186,139.86103081703186,140.71736311912537,3,1.0016138553619385,None,,,,,,,,,,,,,,,,,,119,2,2025-02-25_16h33.13.214,comp,2024.2.4,53.6525475437894,2025-02-25 16h34.12.934828 -0500,
64,64,0,filler_square,None,None,None,None,None,None,None,None,None,None,3,1.0093579292297363,None,,,,,0,0,0,0,0,64,64,185,140.73380517959595,,,,,,,,,,,,,,,,,,,,,,,,,,,,,,,,,,,,,,,,,,,,,,,,,,,,,,,,,,,,,,,,,,,,,,,,,,,,,,,,,61.09431233085971,66.28878511426782,60.53781682291361,91.39461386076222,99.88455403145413,99.88455403145413,2.1,2.11,-175,262,0,280,192,-283,140.71913123130798,140.71920824050903,140.72220921516418,140.73380517959595,140.87832236289978,140.87832236289978,140.87832236289978,140.87832236289978,140.87832236289978,140.87832236289978,140.87832236289978,141.74664521217346,3,1.0093579292297363,None,,,,,,,,,,,,,,,,,,119,2,2025-02-25_16h33.13.214,comp,2024.2.4,53.6525475437894,2025-02-25 16h34.12.934828 -0500,
65,65,0,critical,whd,35.0,3.0,upper,125.0,200.0,200.0,125.0,127.0,127.0,1,1.0283150672912598,None,,,,,0,0,0,0,0,65,65,87,141.7627341747284,,,,,,,,,,,,,,,,,,,,,,,,,,,,,,,,,,,,,,,,,,,,,,,,,,,,,,,,,,,,,,,,,,,,,,,,,,,,,,,,,125.0,200.0,200.0,125.0,127.0,127.0,3.0,3.2,-258,-255,0,5,222,285,141.74823117256165,141.7483422756195,141.7519850730896,141.7627341747284,141.91320157051086,141.91320157051086,141.91320157051086,141.91320157051086,141.91320157051086,141.91320157051086,141.91320157051086,142.80193305015564,1,1.0283150672912598,None,,,,,,,,,,,,,,,,,,119,2,2025-02-25_16h33.13.214,comp,2024.2.4,53.6525475437894,2025-02-25 16h34.12.934828 -0500,
66,66,0,critical,dwh,35.0,1.0,upper,127.0,127.0,125.0,200.0,200.0,125.0,2,1.1809606552124023,None,,,,,0,0,0,0,0,66,66,61,142.81803154945374,,,,,,,,,,,,,,,,,,,,,,,,,,,,,,,,,,,,,,,,,,,,,,,,,,,,,,,,,,,,,,,,,,,,,,,,,,,,,,,,,127.0,127.0,125.0,200.0,200.0,125.0,1.0,1.3,220,-264,480,-266,738,-259,142.8034405708313,142.80351519584656,142.8064568042755,142.81803154945374,142.96416234970093,142.96416234970093,142.96416234970093,142.96416234970093,142.96416234970093,142.96416234970093,142.96416234970093,144.01279163360596,2,1.1809606552124023,None,,,,,,,,,,,,,,,,,,119,2,2025-02-25_16h33.13.214,comp,2024.2.4,53.6525475437894,2025-02-25 16h34.12.934828 -0500,
67,67,0,critical,dwh,20.0,1.0,upper,141.0,141.0,125.0,200.0,200.0,125.0,2,1.8896708488464355,None,,,,,0,0,0,0,0,67,67,67,144.02924251556396,,,,,,,,,,,,,,,,,,,,,,,,,,,,,,,,,,,,,,,,,,,,,,,,,,,,,,,,,,,,,,,,,,,,,,,,,,,,,,,,,141.0,141.0,125.0,200.0,200.0,125.0,1.0,1.1,-746,282,-480,270,-222,266,144.01433634757996,144.0144169330597,144.01760745048523,144.02924251556396,144.1810646057129,144.1810646057129,144.1810646057129,144.1810646057129,144.1810646057129,144.1810646057129,144.1810646057129,145.92918515205383,2,1.8896708488464355,None,,,,,,,,,,,,,,,,,,119,2,2025-02-25_16h33.13.214,comp,2024.2.4,53.6525475437894,2025-02-25 16h34.12.934828 -0500,
68,68,0,filler_square,None,None,None,None,None,None,None,None,None,None,1,0.8771083354949951,None,,,,,0,0,0,0,0,68,68,200,145.94639325141907,,,,,,,,,,,,,,,,,,,,,,,,,,,,,,,,,,,,,,,,,,,,,,,,,,,,,,,,,,,,,,,,,,,,,,,,,,,,,,,,,151.47430066224,154.7859963432901,99.88530043164405,82.02750045920754,187.7383202946238,187.7383202946238,1.0,1.3,266,-276,480,-285,711,-289,145.9311239719391,145.9312014579773,145.9344711303711,145.94639325141907,146.10137963294983,146.10137963294983,146.10137963294983,146.10137963294983,146.10137963294983,146.10137963294983,146.10137963294983,146.83314871788025,1,0.8771083354949951,None,,,,,,,,,,,,,,,,,,119,2,2025-02-25_16h33.13.214,comp,2024.2.4,53.6525475437894,2025-02-25 16h34.12.934828 -0500,
69,69,0,critical,wdh,20.0,3.0,upper,125.0,200.0,141.0,141.0,200.0,125.0,1,1.3756520748138428,None,,,,,0,0,0,0,0,69,69,81,146.84879446029663,,,,,,,,,,,,,,,,,,,,,,,,,,,,,,,,,,,,,,,,,,,,,,,,,,,,,,,,,,,,,,,,,,,,,,,,,,,,,,,,,125.0,200.0,141.0,141.0,200.0,125.0,3.0,3.2,-266,-254,0,-8,229,259,146.83477330207825,146.83485174179077,146.83817267417908,146.84879446029663,146.99853944778442,146.99853944778442,146.99853944778442,146.99853944778442,146.99853944778442,146.99853944778442,146.99853944778442,148.23447799682617,1,1.3756520748138428,None,,,,,,,,,,,,,,,,,,119,2,2025-02-25_16h33.13.214,comp,2024.2.4,53.6525475437894,2025-02-25 16h34.12.934828 -0500,
70,70,0,filler_random,None,None,None,None,None,None,None,None,None,None,1,0.8044676780700684,None,,,,,0,0,0,0,0,70,70,154,148.2506251335144,,,,,,,,,,,,,,,,,,,,,,,,,,,,,,,,,,,,,,,,,,,,,,,,,,,,,,,,,,,,,,,,,,,,,,,,,,,,,,,,,146.3695740804908,181.5421207879554,185.02565416083868,69.0599177592435,86.84509472444401,186.30237326093362,3.0,3.2,-221,-281,0,-11,224,278,148.23625540733337,148.2363781929016,148.23952531814575,148.2506251335144,148.39420795440674,148.39420795440674,148.39420795440674,148.39420795440674,148.39420795440674,148.39420795440674,148.39420795440674,149.06544637680054,1,0.8044676780700684,None,,,,,,,,,,,,,,,,,,119,2,2025-02-25_16h33.13.214,comp,2024.2.4,53.6525475437894,2025-02-25 16h34.12.934828 -0500,
71,71,0,filler_random,None,None,None,None,None,None,None,None,None,None,2,1.0683379173278809,None,,,,,0,0,0,0,0,71,71,143,149.08274507522583,,,,,,,,,,,,,,,,,,,,,,,,,,,,,,,,,,,,,,,,,,,,,,,,,,,,,,,,,,,,,,,,,,,,,,,,,,,,,,,,,185.64981792854718,72.58095201872423,74.71234249321694,161.53531613381313,115.55586006156216,114.97980071237171,3.0,3.2,-213,-284,0,13,234,288,149.06719326972961,149.06727051734924,149.071026802063,149.08274507522583,149.22907972335815,149.22907972335815,149.22907972335815,149.22907972335815,149.22907972335815,149.22907972335815,149.22907972335815,150.16906237602234,2,1.0683379173278809,None,,,,,,,,,,,,,,,,,,119,2,2025-02-25_16h33.13.214,comp,2024.2.4,53.6525475437894,2025-02-25 16h34.12.934828 -0500,
72,72,0,filler_square,None,None,None,None,None,None,None,None,None,None,3,0.7775595188140869,None,,,,,0,0,0,0,0,72,72,191,150.18944215774536,,,,,,,,,,,,,,,,,,,,,,,,,,,,,,,,,,,,,,,,,,,,,,,,,,,,,,,,,,,,,,,,,,,,,,,,,,,,,,,,,128.28115194258035,105.22859543843111,65.43836446661784,153.84415278454583,165.0958723319679,165.0958723319679,3.0,3.2,-226,-255,0,14,255,260,150.1711745262146,150.17125272750854,150.17423820495605,150.18944215774536,150.33948230743408,150.33948230743408,150.33948230743408,150.33948230743408,150.33948230743408,150.33948230743408,150.33948230743408,150.9816188812256,3,0.7775595188140869,None,,,,,,,,,,,,,,,,,,119,2,2025-02-25_16h33.13.214,comp,2024.2.4,53.6525475437894,2025-02-25 16h34.12.934828 -0500,
73,73,0,critical,hwd,20.0,1.0,upper,200.0,125.0,125.0,200.0,141.0,141.0,1,1.5459246635437012,None,,,,,0,0,0,0,0,73,73,103,150.9974238872528,,,,,,,,,,,,,,,,,,,,,,,,,,,,,,,,,,,,,,,,,,,,,,,,,,,,,,,,,,,,,,,,,,,,,,,,,,,,,,,,,200.0,125.0,125.0,200.0,141.0,141.0,1.0,1.2,-258,-1,0,8,266,17,150.98323035240173,150.98334002494812,150.98687076568604,150.9974238872528,151.1490340232849,151.1490340232849,151.1490340232849,151.1490340232849,151.1490340232849,151.1490340232849,151.1490340232849,152.55171513557434,1,1.5459246635437012,None,,,,,,,,,,,,,,,,,,119,2,2025-02-25_16h33.13.214,comp,2024.2.4,53.6525475437894,2025-02-25 16h34.12.934828 -0500,
74,74,0,filler_square,None,None,None,None,None,None,None,None,None,None,2,0.9545276165008545,None,,,,,0,0,0,0,0,74,74,173,152.57309341430664,,,,,,,,,,,,,,,,,,,,,,,,,,,,,,,,,,,,,,,,,,,,,,,,,,,,,,,,,,,,,,,,,,,,,,,,,,,,,,,,,75.76362956128017,57.99554731115774,77.93092381732092,77.93092381732092,70.1460503775869,58.112269981521244,2.1,2.12,-164,-263,0,-286,164,269,152.55366230010986,152.5537395477295,152.55743741989136,152.57309341430664,152.71967816352844,152.71967816352844,152.71967816352844,152.71967816352844,152.71967816352844,152.71967816352844,152.71967816352844,153.5340394973755,2,0.9545276165008545,None,,,,,,,,,,,,,,,,,,119,2,2025-02-25_16h33.13.214,comp,2024.2.4,53.6525475437894,2025-02-25 16h34.12.934828 -0500,
75,75,0,filler_random,None,None,None,None,None,None,None,None,None,None,3,1.728853464126587,None,,,,,0,0,0,0,0,75,75,138,153.55074000358582,,,,,,,,,,,,,,,,,,,,,,,,,,,,,,,,,,,,,,,,,,,,,,,,,,,,,,,,,,,,,,,,,,,,,,,,,,,,,,,,,90.1027991149418,164.94073804059167,148.71227169815347,144.24769605059686,164.3397774488184,156.29764452328413,2.2,2.22,-251,282,0,-265,246,-273,153.53576564788818,153.53584265708923,153.5400035381317,153.55074000358582,153.71135187149048,153.71135187149048,153.71135187149048,153.71135187149048,153.71135187149048,153.71135187149048,153.71135187149048,155.28196620941162,3,1.728853464126587,None,,,,,,,,,,,,,,,,,,119,2,2025-02-25_16h33.13.214,comp,2024.2.4,53.6525475437894,2025-02-25 16h34.12.934828 -0500,
76,76,0,critical,hwd,20.0,3.0,lower,133.0,57.0,57.0,133.0,78.0,78.0,2,1.340946912765503,None,,,,,0,0,0,0,0,76,76,104,155.29814839363098,,,,,,,,,,,,,,,,,,,,,,,,,,,,,,,,,,,,,,,,,,,,,,,,,,,,,,,,,,,,,,,,,,,,,,,,,,,,,,,,,133.0,57.0,57.0,133.0,78.0,78.0,3.0,3.1,-191,266,0,17,202,-274,155.28363704681396,155.28371167182922,155.28715300559998,155.29814839363098,155.45464372634888,155.45464372634888,155.45464372634888,155.45464372634888,155.45464372634888,155.45464372634888,155.45464372634888,156.65213179588318,2,1.340946912765503,None,,,,,,,,,,,,,,,,,,119,2,2025-02-25_16h33.13.214,comp,2024.2.4,53.6525475437894,2025-02-25 16h34.12.934828 -0500,
77,77,0,critical,dhw,35.0,3.0,upper,127.0,127.0,200.0,125.0,125.0,200.0,3,1.1226820945739746,None,,,,,0,0,0,0,0,77,77,51,156.6682813167572,,,,,,,,,,,,,,,,,,,,,,,,,,,,,,,,,,,,,,,,,,,,,,,,,,,,,,,,,,,,,,,,,,,,,,,,,,,,,,,,,127.0,127.0,200.0,125.0,125.0,200.0,3.0,3.1,-222,252,0,9,258,-250,156.65376138687134,156.65389275550842,156.65798425674438,156.6682813167572,156.81806063652039,156.81806063652039,156.81806063652039,156.81806063652039,156.81806063652039,156.81806063652039,156.81806063652039,157.80098628997803,3,1.1226820945739746,None,,,,,,,,,,,,,,,,,,119,2,2025-02-25_16h33.13.214,comp,2024.2.4,53.6525475437894,2025-02-25 16h34.12.934828 -0500,
78,78,0,critical,hwd,35.0,2.1,lower,133.0,57.0,57.0,133.0,70.0,70.0,2,0.9896724224090576,None,,,,,0,0,0,0,0,78,78,40,157.81769609451294,,,,,,,,,,,,,,,,,,,,,,,,,,,,,,,,,,,,,,,,,,,,,,,,,,,,,,,,,,,,,,,,,,,,,,,,,,,,,,,,,133.0,57.0,57.0,133.0,70.0,70.0,2.1,2.12,-191,-273,0,-251,198,268,157.80250477790833,157.80258440971375,157.80607414245605,157.81769609451294,157.96454286575317,157.96454286575317,157.96454286575317,157.96454286575317,157.96454286575317,157.96454286575317,157.96454286575317,158.82097101211548,2,0.9896724224090576,None,,,,,,,,,,,,,,,,,,119,2,2025-02-25_16h33.13.214,comp,2024.2.4,53.6525475437894,2025-02-25 16h34.12.934828 -0500,
79,79,0,filler_random,None,None,None,None,None,None,None,None,None,None,2,0.7506942749023438,None,,,,,0,0,0,0,0,79,79,148,158.84032607078552,,,,,,,,,,,,,,,,,,,,,,,,,,,,,,,,,,,,,,,,,,,,,,,,,,,,,,,,,,,,,,,,,,,,,,,,,,,,,,,,,57.5283016610544,93.48575449842065,147.64165290886203,124.38874968862045,196.00984379763057,67.27284414739054,1.0,1.2,-205,-16,0,-16,192,0,158.82260918617249,158.82268810272217,158.82603216171265,158.84032607078552,158.98628115653992,158.98628115653992,158.98628115653992,158.98628115653992,158.98628115653992,158.98628115653992,158.98628115653992,159.6013960838318,2,0.7506942749023438,None,,,,,,,,,,,,,,,,,,119,2,2025-02-25_16h33.13.214,comp,2024.2.4,53.6525475437894,2025-02-25 16h34.12.934828 -0500,
80,80,0,filler_random,None,None,None,None,None,None,None,None,None,None,1,0.7494843006134033,None,,,,,0,0,0,0,0,80,80,131,159.61769700050354,,,,,,,,,,,,,,,,,,,,,,,,,,,,,,,,,,,,,,,,,,,,,,,,,,,,,,,,,,,,,,,,,,,,,,,,,,,,,,,,,152.01522006457887,134.86624114984846,185.8803382695796,59.720221672752245,91.94944579964579,73.18055386844905,4.0,4.2,-193,6,0,-288,162,1,159.60313653945923,159.6032359600067,159.60674381256104,159.61769700050354,159.76515102386475,159.76515102386475,159.76515102386475,159.76515102386475,159.76515102386475,159.76515102386475,159.76515102386475,160.3697166442871,1,0.7494843006134033,None,,,,,,,,,,,,,,,,,,119,2,2025-02-25_16h33.13.214,comp,2024.2.4,53.6525475437894,2025-02-25 16h34.12.934828 -0500,
81,81,0,critical,whd,20.0,2.1,lower,57.0,133.0,133.0,57.0,78.0,78.0,2,0.7679123878479004,None,,,,,0,0,0,0,0,81,81,14,160.3839340209961,,,,,,,,,,,,,,,,,,,,,,,,,,,,,,,,,,,,,,,,,,,,,,,,,,,,,,,,,,,,,,,,,,,,,,,,,,,,,,,,,57.0,133.0,133.0,57.0,78.0,78.0,2.1,2.12,-191,-261,0,-255,164,289,160.37121105194092,160.37128853797913,160.37459683418274,160.3839340209961,160.53484582901,160.53484582901,160.53484582901,160.53484582901,160.53484582901,160.53484582901,160.53484582901,161.15907168388367,2,0.7679123878479004,None,,,,,,,,,,,,,,,,,,119,2,2025-02-25_16h33.13.214,comp,2024.2.4,53.6525475437894,2025-02-25 16h34.12.934828 -0500,
82,82,0,filler_random,None,None,None,None,None,None,None,None,None,None,2,0.742687463760376,None,,,,,0,0,0,0,0,82,82,134,161.1762683391571,,,,,,,,,,,,,,,,,,,,,,,,,,,,,,,,,,,,,,,,,,,,,,,,,,,,,,,,,,,,,,,,,,,,,,,,,,,,,,,,,114.46056584279806,76.20157433855677,184.42728453205592,182.3787198855654,195.52509617358018,143.6233072445247,2.1,2.11,-225,271,0,253,259,-283,161.16099882125854,161.16111421585083,161.1645634174347,161.1762683391571,161.32210540771484,161.32210540771484,161.32210540771484,161.32210540771484,161.32210540771484,161.32210540771484,161.32210540771484,161.93278408050537,2,0.742687463760376,None,,,,,,,,,,,,,,,,,,119,2,2025-02-25_16h33.13.214,comp,2024.2.4,53.6525475437894,2025-02-25 16h34.12.934828 -0500,
83,83,0,filler_random,None,None,None,None,None,None,None,None,None,None,2,0.578070878982544,None,,,,,0,0,0,0,0,83,83,155,161.94904947280884,,,,,,,,,,,,,,,,,,,,,,,,,,,,,,,,,,,,,,,,,,,,,,,,,,,,,,,,,,,,,,,,,,,,,,,,,,,,,,,,,126.52430973291654,137.8733380536508,124.80021602569191,191.0499781287386,199.10118912985743,111.35754768091027,2.1,2.11,-260,269,0,262,247,-280,161.93462300300598,161.93473291397095,161.93805861473083,161.94904947280884,162.10475134849548,162.10475134849548,162.10475134849548,162.10475134849548,162.10475134849548,162.10475134849548,162.10475134849548,162.5408296585083,2,0.578070878982544,None,,,,,,,,,,,,,,,,,,119,2,2025-02-25_16h33.13.214,comp,2024.2.4,53.6525475437894,2025-02-25 16h34.12.934828 -0500,
84,84,0,filler_square,None,None,None,None,None,None,None,None,None,None,2,0.9630744457244873,None,,,,,0,0,0,0,0,84,84,206,162.55590105056763,,,,,,,,,,,,,,,,,,,,,,,,,,,,,,,,,,,,,,,,,,,,,,,,,,,,,,,,,,,,,,,,,,,,,,,,,,,,,,,,,70.55788522358763,70.30968034622816,72.79031951514956,72.79031951514956,58.45497161569635,59.90279007072047,2.2,2.22,-168,270,0,-262,162,-282,162.5426731109619,162.54275107383728,162.54566073417664,162.55590105056763,162.7026584148407,162.7026584148407,162.7026584148407,162.7026584148407,162.7026584148407,162.7026584148407,162.7026584148407,163.53539872169495,2,0.9630744457244873,None,,,,,,,,,,,,,,,,,,119,2,2025-02-25_16h33.13.214,comp,2024.2.4,53.6525475437894,2025-02-25 16h34.12.934828 -0500,
85,85,0,catch,None,None,None,None,None,None,None,None,None,None,1,0.7992916107177734,None,,,,,0,0,0,0,0,85,85,127,163.55213451385498,,,,,,,,,,,,,,,,,,,,,,,,,,,,,,,,,,,,,,,,,,,,,,,,,,,,,,,,,,,,,,,,,,,,,,,,,,,,,,,,,159,166,130,60,67,123,1.0,1.1,-689,258,-480,272,-292,287,163.53753304481506,163.53760814666748,163.54093718528748,163.55213451385498,163.6924843788147,163.6924843788147,163.6924843788147,163.6924843788147,163.6924843788147,163.6924843788147,163.6924843788147,164.35438060760498,1,0.7992916107177734,None,,,,,,,,,,,,,,,,,,119,2,2025-02-25_16h33.13.214,comp,2024.2.4,53.6525475437894,2025-02-25 16h34.12.934828 -0500,
86,86,0,critical,dhw,35.0,2.1,upper,127.0,127.0,200.0,125.0,125.0,200.0,3,0.7089014053344727,None,,,,,0,0,0,0,0,86,86,1,164.37139868736267,,,,,,,,,,,,,,,,,,,,,,,,,,,,,,,,,,,,,,,,,,,,,,,,,,,,,,,,,,,,,,,,,,,,,,,,,,,,,,,,,127.0,127.0,200.0,125.0,125.0,200.0,2.1,2.12,-222,-264,0,-288,258,281,164.35608506202698,164.3562216758728,164.35981011390686,164.37139868736267,164.52291750907898,164.52291750907898,164.52291750907898,164.52291750907898,164.52291750907898,164.52291750907898,164.52291750907898,165.08578419685364,3,0.7089014053344727,None,,,,,,,,,,,,,,,,,,119,2,2025-02-25_16h33.13.214,comp,2024.2.4,53.6525475437894,2025-02-25 16h34.12.934828 -0500,
87,87,0,critical,hdw,35.0,2.1,lower,133.0,57.0,70.0,70.0,57.0,133.0,2,1.0250725746154785,None,,,,,0,0,0,0,0,87,87,44,165.10199403762817,,,,,,,,,,,,,,,,,,,,,,,,,,,,,,,,,,,,,,,,,,,,,,,,,,,,,,,,,,,,,,,,,,,,,,,,,,,,,,,,,133.0,57.0,70.0,70.0,57.0,133.0,2.1,2.11,-160,271,0,257,198,-288,165.08732414245605,165.087415933609,165.09085726737976,165.10199403762817,165.25517058372498,165.25517058372498,165.25517058372498,165.25517058372498,165.25517058372498,165.25517058372498,165.25517058372498,166.13979649543762,2,1.0250725746154785,None,,,,,,,,,,,,,,,,,,119,2,2025-02-25_16h33.13.214,comp,2024.2.4,53.6525475437894,2025-02-25 16h34.12.934828 -0500,
88,88,0,filler_square,None,None,None,None,None,None,None,None,None,None,3,0.7380669116973877,None,,,,,0,0,0,0,0,88,88,199,166.15791583061218,,,,,,,,,,,,,,,,,,,,,,,,,,,,,,,,,,,,,,,,,,,,,,,,,,,,,,,,,,,,,,,,,,,,,,,,,,,,,,,,,59.32339559906971,73.71800549197367,58.63516136910239,58.48624076478377,78.76050630308654,78.76050630308654,2.2,2.21,-162,-267,0,271,165,250,166.14157915115356,166.14165592193604,166.144681930542,166.15791583061218,166.3114664554596,166.3114664554596,166.3114664554596,166.3114664554596,166.3114664554596,166.3114664554596,166.3114664554596,166.9061553478241,3,0.7380669116973877,None,,,,,,,,,,,,,,,,,,119,2,2025-02-25_16h33.13.214,comp,2024.2.4,53.6525475437894,2025-02-25 16h34.12.934828 -0500,
89,89,0,filler_square,None,None,None,None,None,None,None,None,None,None,1,1.3561584949493408,None,,,,,0,0,0,0,0,89,89,175,166.92284440994263,,,,,,,,,,,,,,,,,,,,,,,,,,,,,,,,,,,,,,,,,,,,,,,,,,,,,,,,,,,,,,,,,,,,,,,,,,,,,,,,,147.52763697853172,147.52763697853172,86.93600779076353,77.31920574248662,136.70615973286954,128.5672589792349,1.0,1.1,-688,267,-480,282,-281,259,166.90834164619446,166.90842747688293,166.9120433330536,166.92284440994263,167.06937408447266,167.06937408447266,167.06937408447266,167.06937408447266,167.06937408447266,167.06937408447266,167.06937408447266,168.28892540931702,1,1.3561584949493408,None,,,,,,,,,,,,,,,,,,119,2,2025-02-25_16h33.13.214,comp,2024.2.4,53.6525475437894,2025-02-25 16h34.12.934828 -0500,
90,90,0,critical,dwh,35.0,3.0,upper,127.0,127.0,125.0,200.0,200.0,125.0,3,0.9651596546173096,None,,,,,0,0,0,0,0,90,90,63,168.30591940879822,,,,,,,,,,,,,,,,,,,,,,,,,,,,,,,,,,,,,,,,,,,,,,,,,,,,,,,,,,,,,,,,,,,,,,,,,,,,,,,,,127.0,127.0,125.0,200.0,200.0,125.0,3.0,3.2,-260,-273,0,11,258,284,168.2904782295227,168.29055547714233,168.29438662528992,168.30591940879822,168.4569456577301,168.4569456577301,168.4569456577301,168.4569456577301,168.4569456577301,168.4569456577301,168.4569456577301,169.287917137146,3,0.9651596546173096,None,,,,,,,,,,,,,,,,,,119,2,2025-02-25_16h33.13.214,comp,2024.2.4,53.6525475437894,2025-02-25 16h34.12.934828 -0500,
91,91,0,critical,hdw,20.0,4.0,upper,200.0,125.0,141.0,141.0,125.0,200.0,3,1.4082131385803223,None,,,,,0,0,0,0,0,91,91,119,169.30313396453857,,,,,,,,,,,,,,,,,,,,,,,,,,,,,,,,,,,,,,,,,,,,,,,,,,,,,,,,,,,,,,,,,,,,,,,,,,,,,,,,,200.0,125.0,141.0,141.0,125.0,200.0,4.0,4.1,-229,-280,0,6,266,-270,169.28936386108398,169.28943729400635,169.2928729057312,169.30313396453857,169.45241689682007,169.45241689682007,169.45241689682007,169.45241689682007,169.45241689682007,169.45241689682007,169.45241689682007,170.71998000144958,3,1.4082131385803223,None,,,,,,,,,,,,,,,,,,119,2,2025-02-25_16h33.13.214,comp,2024.2.4,53.6525475437894,2025-02-25 16h34.12.934828 -0500,
92,92,0,critical,dhw,20.0,2.1,lower,78.0,78.0,133.0,57.0,57.0,133.0,1,1.3904237747192383,None,,,,,0,0,0,0,0,92,92,2,170.73652291297913,,,,,,,,,,,,,,,,,,,,,,,,,,,,,,,,,,,,,,,,,,,,,,,,,,,,,,,,,,,,,,,,,,,,,,,,,,,,,,,,,78.0,78.0,133.0,57.0,57.0,133.0,2.1,2.11,-164,268,0,267,191,-251,170.72151112556458,170.7215895652771,170.72464156150818,170.73652291297913,170.8748321533203,170.8748321533203,170.8748321533203,170.8748321533203,170.8748321533203,170.8748321533203,170.8748321533203,172.13983249664307,1,1.3904237747192383,None,,,,,,,,,,,,,,,,,,119,2,2025-02-25_16h33.13.214,comp,2024.2.4,53.6525475437894,2025-02-25 16h34.12.934828 -0500,
93,93,0,filler_random,None,None,None,None,None,None,None,None,None,None,1,0.8132061958312988,None,,,,,0,0,0,0,0,93,93,152,172.16182041168213,,,,,,,,,,,,,,,,,,,,,,,,,,,,,,,,,,,,,,,,,,,,,,,,,,,,,,,,,,,,,,,,,,,,,,,,,,,,,,,,,90.27277283766358,154.16043917876942,59.90202486626404,103.51217171862491,125.84005671029819,161.28803970868813,3.0,3.1,-225,283,0,18,228,-278,172.14174580574036,172.14182424545288,172.14519548416138,172.16182041168213,172.30563116073608,172.30563116073608,172.30563116073608,172.30563116073608,172.30563116073608,172.30563116073608,172.30563116073608,172.9904453754425,1,0.8132061958312988,None,,,,,,,,,,,,,,,,,,119,2,2025-02-25_16h33.13.214,comp,2024.2.4,53.6525475437894,2025-02-25 16h34.12.934828 -0500,
94,94,0,critical,dwh,35.0,3.0,lower,70.0,70.0,57.0,133.0,133.0,57.0,2,1.144911527633667,None,,,,,0,0,0,0,0,94,94,62,173.0065896511078,,,,,,,,,,,,,,,,,,,,,,,,,,,,,,,,,,,,,,,,,,,,,,,,,,,,,,,,,,,,,,,,,,,,,,,,,,,,,,,,,70.0,70.0,57.0,133.0,133.0,57.0,3.0,3.2,-198,-290,0,-10,191,255,172.99193787574768,172.99201440811157,172.99525237083435,173.0065896511078,173.1554262638092,173.1554262638092,173.1554262638092,173.1554262638092,173.1554262638092,173.1554262638092,173.1554262638092,174.1550669670105,2,1.144911527633667,None,,,,,,,,,,,,,,,,,,119,2,2025-02-25_16h33.13.214,comp,2024.2.4,53.6525475437894,2025-02-25 16h34.12.934828 -0500,
95,95,0,filler_square,None,None,None,None,None,None,None,None,None,None,1,2.3875370025634766,None,,,,,0,0,0,0,0,95,95,207,174.1717643737793,,,,,,,,,,,,,,,,,,,,,,,,,,,,,,,,,,,,,,,,,,,,,,,,,,,,,,,,,,,,,,,,,,,,,,,,,,,,,,,,,115.9030816522232,115.9030816522232,61.42296688136183,97.71861569605937,65.22090124636951,112.60241798049468,2.2,2.21,-203,-251,0,266,201,288,174.15690803527832,174.1569881439209,174.16015720367432,174.1717643737793,174.32506823539734,174.32506823539734,174.32506823539734,174.32506823539734,174.32506823539734,174.32506823539734,174.32506823539734,176.5626096725464,1,2.3875370025634766,None,,,,,,,,,,,,,,,,,,119,2,2025-02-25_16h33.13.214,comp,2024.2.4,53.6525475437894,2025-02-25 16h34.12.934828 -0500,
96,96,0,critical,hdw,35.0,4.0,lower,133.0,57.0,70.0,70.0,57.0,133.0,3,1.218703031539917,None,,,,,0,0,0,0,0,96,96,112,176.58089113235474,,,,,,,,,,,,,,,,,,,,,,,,,,,,,,,,,,,,,,,,,,,,,,,,,,,,,,,,,,,,,,,,,,,,,,,,,,,,,,,,,133.0,57.0,70.0,70.0,57.0,133.0,4.0,4.1,-160,-250,0,8,198,-256,176.56415629386902,176.56423544883728,176.5677134990692,176.58089113235474,176.7234241962433,176.7234241962433,176.7234241962433,176.7234241962433,176.7234241962433,176.7234241962433,176.7234241962433,177.80628538131714,3,1.218703031539917,None,,,,,,,,,,,,,,,,,,119,2,2025-02-25_16h33.13.214,comp,2024.2.4,53.6525475437894,2025-02-25 16h34.12.934828 -0500,
97,97,0,filler_square,None,None,None,None,None,None,None,None,None,None,3,0.9973981380462646,None,,,,,0,0,0,0,0,97,97,170,177.8256676197052,,,,,,,,,,,,,,,,,,,,,,,,,,,,,,,,,,,,,,,,,,,,,,,,,,,,,,,,,,,,,,,,,,,,,,,,,,,,,,,,,123.10200563600401,132.98177056930996,73.27819402227257,85.70542186793928,152.24836131296274,152.24836131296274,2.1,2.12,-205,-281,0,-289,215,260,177.80817341804504,177.80833506584167,177.8116524219513,177.8256676197052,177.97338891029358,177.97338891029358,177.97338891029358,177.97338891029358,177.97338891029358,177.97338891029358,177.97338891029358,178.8407907485962,3,0.9973981380462646,None,,,,,,,,,,,,,,,,,,119,2,2025-02-25_16h33.13.214,comp,2024.2.4,53.6525475437894,2025-02-25 16h34.12.934828 -0500,
98,98,0,catch,None,None,None,None,None,None,None,None,None,None,1,0.9661979675292969,None,,,,,0,0,0,0,0,98,98,121,178.85677361488342,,,,,,,,,,,,,,,,,,,,,,,,,,,,,,,,,,,,,,,,,,,,,,,,,,,,,,,,,,,,,,,,,,,,,,,,,,,,,,,,,198,127,133,57,102,88,2.2,2.21,-188,-276,0,270,168,252,178.84286737442017,178.84294319152832,178.84648752212524,178.85677361488342,179.0079357624054,179.0079357624054,179.0079357624054,179.0079357624054,179.0079357624054,179.0079357624054,179.0079357624054,179.82554054260254,1,0.9661979675292969,None,,,,,,,,,,,,,,,,,,119,2,2025-02-25_16h33.13.214,comp,2024.2.4,53.6525475437894,2025-02-25 16h34.12.934828 -0500,
99,99,0,catch,None,None,None,None,None,None,None,None,None,None,3,0.8294930458068848,None,,,,,0,0,0,0,0,99,99,123,179.84224009513855,,,,,,,,,,,,,,,,,,,,,,,,,,,,,,,,,,,,,,,,,,,,,,,,,,,,,,,,,,,,,,,,,,,,,,,,,,,,,,,,,112,78,89,101,166,159,2.1,2.12,-186,-261,0,-265,226,276,179.8276970386505,179.82777428627014,179.83134508132935,179.84224009513855,179.99182605743408,179.99182605743408,179.99182605743408,179.99182605743408,179.99182605743408,179.99182605743408,179.99182605743408,180.67886900901794,3,0.8294930458068848,None,,,,,,,,,,,,,,,,,,119,2,2025-02-25_16h33.13.214,comp,2024.2.4,53.6525475437894,2025-02-25 16h34.12.934828 -0500,
100,100,0,critical,wdh,20.0,2.1,lower,57.0,133.0,78.0,78.0,133.0,57.0,1,1.7099075317382812,None,,,,,0,0,0,0,0,100,100,10,180.69704794883728,,,,,,,,,,,,,,,,,,,,,,,,,,,,,,,,,,,,,,,,,,,,,,,,,,,,,,,,,,,,,,,,,,,,,,,,,,,,,,,,,57.0,133.0,78.0,78.0,133.0,57.0,2.1,2.11,-202,265,0,254,164,-269,180.68046975135803,180.68054699897766,180.6838788986206,180.69704794883728,180.84257650375366,180.84257650375366,180.84257650375366,180.84257650375366,180.84257650375366,180.84257650375366,180.84257650375366,182.42531895637512,1,1.7099075317382812,None,,,,,,,,,,,,,,,,,,119,2,2025-02-25_16h33.13.214,comp,2024.2.4,53.6525475437894,2025-02-25 16h34.12.934828 -0500,
101,101,0,critical,dwh,20.0,3.0,lower,78.0,78.0,57.0,133.0,133.0,57.0,3,0.9191267490386963,None,,,,,0,0,0,0,0,101,101,68,182.4405505657196,,,,,,,,,,,,,,,,,,,,,,,,,,,,,,,,,,,,,,,,,,,,,,,,,,,,,,,,,,,,,,,,,,,,,,,,,,,,,,,,,78.0,78.0,57.0,133.0,133.0,57.0,3.0,3.2,-202,-257,0,3,191,272,182.42678570747375,182.4268615245819,182.43028092384338,182.4405505657196,182.59273290634155,182.59273290634155,182.59273290634155,182.59273290634155,182.59273290634155,182.59273290634155,182.59273290634155,183.36789774894714,3,0.9191267490386963,None,,,,,,,,,,,,,,,,,,119,2,2025-02-25_16h33.13.214,comp,2024.2.4,53.6525475437894,2025-02-25 16h34.12.934828 -0500,
102,102,0,critical,hwd,20.0,2.1,lower,133.0,57.0,57.0,133.0,78.0,78.0,1,0.7676167488098145,None,,,,,0,0,0,0,0,102,102,18,183.38400721549988,,,,,,,,,,,,,,,,,,,,,,,,,,,,,,,,,,,,,,,,,,,,,,,,,,,,,,,,,,,,,,,,,,,,,,,,,,,,,,,,,133.0,57.0,57.0,133.0,78.0,78.0,2.1,2.11,-191,253,0,268,202,-278,183.36943650245667,183.3695113658905,183.3725197315216,183.38400721549988,183.52855324745178,183.52855324745178,183.52855324745178,183.52855324745178,183.52855324745178,183.52855324745178,183.52855324745178,184.15943789482117,1,0.7676167488098145,None,,,,,,,,,,,,,,,,,,119,2,2025-02-25_16h33.13.214,comp,2024.2.4,53.6525475437894,2025-02-25 16h34.12.934828 -0500,
103,103,0,critical,whd,35.0,3.0,lower,57.0,133.0,133.0,57.0,70.0,70.0,1,0.7832424640655518,None,,,,,0,0,0,0,0,103,103,86,184.1760859489441,,,,,,,,,,,,,,,,,,,,,,,,,,,,,,,,,,,,,,,,,,,,,,,,,,,,,,,,,,,,,,,,,,,,,,,,,,,,,,,,,57.0,133.0,133.0,57.0,70.0,70.0,3.0,3.1,-191,265,0,13,160,-253,184.1609754562378,184.16105127334595,184.16528964042664,184.1760859489441,184.32421493530273,184.32421493530273,184.32421493530273,184.32421493530273,184.32421493530273,184.32421493530273,184.32421493530273,184.96274328231812,1,0.7832424640655518,None,,,,,,,,,,,,,,,,,,119,2,2025-02-25_16h33.13.214,comp,2024.2.4,53.6525475437894,2025-02-25 16h34.12.934828 -0500,
104,104,0,filler_square,None,None,None,None,None,None,None,None,None,None,3,1.162093162536621,None,,,,,0,0,0,0,0,104,104,208,184.98135471343994,,,,,,,,,,,,,,,,,,,,,,,,,,,,,,,,,,,,,,,,,,,,,,,,,,,,,,,,,,,,,,,,,,,,,,,,,,,,,,,,,78.32061258898874,71.64396610042287,125.65873161665115,118.27452096262705,170.1395044425161,170.1395044425161,2.1,2.11,-191,284,0,255,240,-284,184.9647090435028,184.9647879600525,184.96773838996887,184.98135471343994,185.12687706947327,185.12687706947327,185.12687706947327,185.12687706947327,185.12687706947327,185.12687706947327,185.12687706947327,186.14884757995605,3,1.162093162536621,None,,,,,,,,,,,,,,,,,,119,2,2025-02-25_16h33.13.214,comp,2024.2.4,53.6525475437894,2025-02-25 16h34.12.934828 -0500,
105,105,0,critical,dhw,20.0,1.0,upper,141.0,141.0,200.0,125.0,125.0,200.0,3,1.6486451625823975,None,,,,,0,0,0,0,0,105,105,55,186.16642570495605,,,,,,,,,,,,,,,,,,,,,,,,,,,,,,,,,,,,,,,,,,,,,,,,,,,,,,,,,,,,,,,,,,,,,,,,,,,,,,,,,141.0,141.0,200.0,125.0,125.0,200.0,1.0,1.3,251,-277,480,-255,738,-266,186.1503405570984,186.15042114257812,186.15340900421143,186.16642570495605,186.31016039848328,186.31016039848328,186.31016039848328,186.31016039848328,186.31016039848328,186.31016039848328,186.31016039848328,187.8262584209442,3,1.6486451625823975,None,,,,,,,,,,,,,,,,,,119,2,2025-02-25_16h33.13.214,comp,2024.2.4,53.6525475437894,2025-02-25 16h34.12.934828 -0500,
106,106,0,critical,hwd,35.0,3.0,upper,200.0,125.0,125.0,200.0,127.0,127.0,1,0.8857967853546143,None,,,,,0,0,0,0,0,106,106,99,187.84224796295166,,,,,,,,,,,,,,,,,,,,,,,,,,,,,,,,,,,,,,,,,,,,,,,,,,,,,,,,,,,,,,,,,,,,,,,,,,,,,,,,,200.0,125.0,125.0,200.0,127.0,127.0,3.0,3.1,-258,259,0,-12,260,-259,187.82774662971497,187.82782125473022,187.83093070983887,187.84224796295166,187.99959254264832,187.99959254264832,187.99959254264832,187.99959254264832,187.99959254264832,187.99959254264832,187.99959254264832,188.73314762115479,1,0.8857967853546143,None,,,,,,,,,,,,,,,,,,119,2,2025-02-25_16h33.13.214,comp,2024.2.4,53.6525475437894,2025-02-25 16h34.12.934828 -0500,
107,107,0,critical,dwh,35.0,2.1,lower,70.0,70.0,57.0,133.0,133.0,57.0,2,1.4903414249420166,None,,,,,0,0,0,0,0,107,107,28,188.74919843673706,,,,,,,,,,,,,,,,,,,,,,,,,,,,,,,,,,,,,,,,,,,,,,,,,,,,,,,,,,,,,,,,,,,,,,,,,,,,,,,,,70.0,70.0,57.0,133.0,133.0,57.0,2.1,2.11,-198,263,0,269,191,-257,188.73471879959106,188.73479557037354,188.73772192001343,188.74919843673706,188.894109249115,188.894109249115,188.894109249115,188.894109249115,188.894109249115,188.894109249115,188.894109249115,190.25513911247253,2,1.4903414249420166,None,,,,,,,,,,,,,,,,,,119,2,2025-02-25_16h33.13.214,comp,2024.2.4,53.6525475437894,2025-02-25 16h34.12.934828 -0500,
108,108,0,filler_random,None,None,None,None,None,None,None,None,None,None,2,1.281191110610962,None,,,,,0,0,0,0,0,108,108,144,190.27178287506104,,,,,,,,,,,,,,,,,,,,,,,,,,,,,,,,,,,,,,,,,,,,,,,,,,,,,,,,,,,,,,,,,,,,,,,,,,,,,,,,,157.58425286285325,98.32536503604277,164.04018426325513,176.85320735346482,79.76344788135661,178.33353283797413,4.0,4.2,-234,-7,0,-277,274,-4,190.2569227218628,190.25699639320374,190.260249376297,190.27178287506104,190.41164779663086,190.41164779663086,190.41164779663086,190.41164779663086,190.41164779663086,190.41164779663086,190.41164779663086,191.5610477924347,2,1.281191110610962,None,,,,,,,,,,,,,,,,,,119,2,2025-02-25_16h33.13.214,comp,2024.2.4,53.6525475437894,2025-02-25 16h34.12.934828 -0500,
109,109,0,filler_square,None,None,None,None,None,None,None,None,None,None,2,0.748159646987915,None,,,,,0,0,0,0,0,109,109,197,191.57889914512634,,,,,,,,,,,,,,,,,,,,,,,,,,,,,,,,,,,,,,,,,,,,,,,,,,,,,,,,,,,,,,,,,,,,,,,,,,,,,,,,,83.31226898232262,121.31034552540241,187.75130588774877,187.75130588774877,98.34212392619244,150.8644640404683,2.1,2.12,-251,-260,0,-258,265,287,191.5628261566162,191.5629017353058,191.565833568573,191.57889914512634,191.72897696495056,191.72897696495056,191.72897696495056,191.72897696495056,191.72897696495056,191.72897696495056,191.72897696495056,192.33622336387634,2,0.748159646987915,None,,,,,,,,,,,,,,,,,,119,2,2025-02-25_16h33.13.214,comp,2024.2.4,53.6525475437894,2025-02-25 16h34.12.934828 -0500,
110,110,0,critical,dwh,35.0,2.1,upper,127.0,127.0,125.0,200.0,200.0,125.0,2,0.8636775016784668,None,,,,,0,0,0,0,0,110,110,29,192.35147404670715,,,,,,,,,,,,,,,,,,,,,,,,,,,,,,,,,,,,,,,,,,,,,,,,,,,,,,,,,,,,,,,,,,,,,,,,,,,,,,,,,127.0,127.0,125.0,200.0,200.0,125.0,2.1,2.11,-260,251,0,276,258,-272,192.33775782585144,192.33783388137817,192.34081053733826,192.35147404670715,192.49517464637756,192.49517464637756,192.49517464637756,192.49517464637756,192.49517464637756,192.49517464637756,192.49517464637756,193.233544588089,2,0.8636775016784668,None,,,,,,,,,,,,,,,,,,119,2,2025-02-25_16h33.13.214,comp,2024.2.4,53.6525475437894,2025-02-25 16h34.12.934828 -0500,
111,111,0,critical,hwd,20.0,2.1,upper,200.0,125.0,125.0,200.0,141.0,141.0,2,0.7795331478118896,None,,,,,0,0,0,0,0,111,111,19,193.25155901908875,,,,,,,,,,,,,,,,,,,,,,,,,,,,,,,,,,,,,,,,,,,,,,,,,,,,,,,,,,,,,,,,,,,,,,,,,,,,,,,,,200.0,125.0,125.0,200.0,141.0,141.0,2.1,2.11,-258,271,0,287,266,-277,193.23527717590332,193.23543310165405,193.238844871521,193.25155901908875,193.39857578277588,193.39857578277588,193.39857578277588,193.39857578277588,193.39857578277588,193.39857578277588,193.39857578277588,194.04659247398376,2,0.7795331478118896,None,,,,,,,,,,,,,,,,,,119,2,2025-02-25_16h33.13.214,comp,2024.2.4,53.6525475437894,2025-02-25 16h34.12.934828 -0500,
112,112,0,critical,dhw,35.0,2.1,lower,70.0,70.0,133.0,57.0,57.0,133.0,3,1.3137013912200928,None,,,,,0,0,0,0,0,112,112,0,194.0620641708374,,,,,,,,,,,,,,,,,,,,,,,,,,,,,,,,,,,,,,,,,,,,,,,,,,,,,,,,,,,,,,,,,,,,,,,,,,,,,,,,,70.0,70.0,133.0,57.0,57.0,133.0,2.1,2.12,-160,-277,0,-274,191,281,194.04817938804626,194.0482611656189,194.0518138408661,194.0620641708374,194.21192336082458,194.21192336082458,194.21192336082458,194.21192336082458,194.21192336082458,194.21192336082458,194.21192336082458,195.3829309940338,3,1.3137013912200928,None,,,,,,,,,,,,,,,,,,119,2,2025-02-25_16h33.13.214,comp,2024.2.4,53.6525475437894,2025-02-25 16h34.12.934828 -0500,
113,113,0,critical,whd,20.0,4.0,lower,57.0,133.0,133.0,57.0,78.0,78.0,1,1.4486918449401855,None,,,,,0,0,0,0,0,113,113,94,195.3983871936798,,,,,,,,,,,,,,,,,,,,,,,,,,,,,,,,,,,,,,,,,,,,,,,,,,,,,,,,,,,,,,,,,,,,,,,,,,,,,,,,,57.0,133.0,133.0,57.0,78.0,78.0,4.0,4.1,-191,-254,0,12,164,-273,195.38447856903076,195.3845603466034,195.38767218589783,195.3983871936798,195.5491099357605,195.5491099357605,195.5491099357605,195.5491099357605,195.5491099357605,195.5491099357605,195.5491099357605,196.86321187019348,1,1.4486918449401855,None,,,,,,,,,,,,,,,,,,119,2,2025-02-25_16h33.13.214,comp,2024.2.4,53.6525475437894,2025-02-25 16h34.12.934828 -0500,
114,114,0,filler_random,None,None,None,None,None,None,None,None,None,None,3,1.3202359676361084,None,,,,,0,0,0,0,0,114,114,151,196.87893652915955,,,,,,,,,,,,,,,,,,,,,,,,,,,,,,,,,,,,,,,,,,,,,,,,,,,,,,,,,,,,,,,,,,,,,,,,,,,,,,,,,131.86460734220765,183.42575669047818,173.76132706111343,73.72663949493574,85.61773624300237,121.3233994700653,2.1,2.11,-225,284,0,262,194,-279,196.86493682861328,196.86506295204163,196.86854577064514,196.87893652915955,197.03698873519897,197.03698873519897,197.03698873519897,197.03698873519897,197.03698873519897,197.03698873519897,197.03698873519897,198.21367764472961,3,1.3202359676361084,None,,,,,,,,,,,,,,,,,,119,2,2025-02-25_16h33.13.214,comp,2024.2.4,53.6525475437894,2025-02-25 16h34.12.934828 -0500,
115,115,0,filler_square,None,None,None,None,None,None,None,None,None,None,3,1.3461010456085205,None,,,,,0,0,0,0,0,115,115,190,198.22967100143433,,,,,,,,,,,,,,,,,,,,,,,,,,,,,,,,,,,,,,,,,,,,,,,,,,,,,,,,,,,,,,,,,,,,,,,,,,,,,,,,,173.10623240514303,77.19588425624458,95.01292060017605,159.5474561501365,195.75624941247958,195.75624941247958,4.0,4.1,-214,-271,0,-2,274,-280,198.21553230285645,198.21564650535583,198.21928119659424,198.22967100143433,198.38007307052612,198.38007307052612,198.38007307052612,198.38007307052612,198.38007307052612,198.38007307052612,198.38007307052612,199.58272171020508,3,1.3461010456085205,None,,,,,,,,,,,,,,,,,,119,2,2025-02-25_16h33.13.214,comp,2024.2.4,53.6525475437894,2025-02-25 16h34.12.934828 -0500,
116,116,0,filler_square,None,None,None,None,None,None,None,None,None,None,3,1.4111692905426025,None,,,,,0,0,0,0,0,116,116,177,199.60388112068176,,,,,,,,,,,,,,,,,,,,,,,,,,,,,,,,,,,,,,,,,,,,,,,,,,,,,,,,,,,,,,,,,,,,,,,,,,,,,,,,,110.55267930492028,106.30478796348424,111.5736949180768,111.64696350973044,124.33865126918484,124.33865126918484,4.0,4.1,-205,-251,0,3,214,-253,199.58482956886292,199.58491110801697,199.58834981918335,199.60388112068176,199.74843525886536,199.74843525886536,199.74843525886536,199.74843525886536,199.74843525886536,199.74843525886536,199.74843525886536,201.03048825263977,3,1.4111692905426025,None,,,,,,,,,,,,,,,,,,119,2,2025-02-25_16h33.13.214,comp,2024.2.4,53.6525475437894,2025-02-25 16h34.12.934828 -0500,
117,117,0,filler_square,None,None,None,None,None,None,None,None,None,None,1,0.960515022277832,None,,,,,0,0,0,0,0,117,117,192,201.0546474456787,,,,,,,,,,,,,,,,,,,,,,,,,,,,,,,,,,,,,,,,,,,,,,,,,,,,,,,,,,,,,,,,,,,,,,,,,,,,,,,,,138.03289691472008,138.03289691472008,132.59249378942428,65.98684974633272,116.86249478523024,76.44527511746612,3.0,3.2,-198,-261,0,14,167,278,201.03228974342346,201.03240847587585,201.03549361228943,201.0546474456787,201.1987817287445,201.1987817287445,201.1987817287445,201.1987817287445,201.1987817287445,201.1987817287445,201.1987817287445,202.03039383888245,1,0.960515022277832,None,,,,,,,,,,,,,,,,,,119,2,2025-02-25_16h33.13.214,comp,2024.2.4,53.6525475437894,2025-02-25 16h34.12.934828 -0500,
118,118,0,critical,hwd,35.0,4.0,upper,200.0,125.0,125.0,200.0,127.0,127.0,2,1.3606467247009277,None,,,,,0,0,0,0,0,118,118,101,202.04639053344727,,,,,,,,,,,,,,,,,,,,,,,,,,,,,,,,,,,,,,,,,,,,,,,,,,,,,,,,,,,,,,,,,,,,,,,,,,,,,,,,,200.0,125.0,125.0,200.0,127.0,127.0,4.0,4.2,-258,-6,0,-267,260,-2,202.03186678886414,202.0319423675537,202.03526091575623,202.04639053344727,202.2001919746399,202.2001919746399,202.2001919746399,202.2001919746399,202.2001919746399,202.2001919746399,202.2001919746399,203.41946053504944,2,1.3606467247009277,None,,,,,,,,,,,,,,,,,,119,2,2025-02-25_16h33.13.214,comp,2024.2.4,53.6525475437894,2025-02-25 16h34.12.934828 -0500,
119,119,0,critical,wdh,35.0,1.0,lower,57.0,133.0,70.0,70.0,133.0,57.0,1,0.8346333503723145,None,,,,,0,0,0,0,0,119,119,72,203.43714880943298,,,,,,,,,,,,,,,,,,,,,,,,,,,,,,,,,,,,,,,,,,,,,,,,,,,,,,,,,,,,,,,,,,,,,,,,,,,,,,,,,57.0,133.0,70.0,70.0,133.0,57.0,1.0,1.1,-678,252,-480,274,-320,265,203.4210660457611,203.4211437702179,203.42414259910583,203.43714880943298,203.58318281173706,203.58318281173706,203.58318281173706,203.58318281173706,203.58318281173706,203.58318281173706,203.58318281173706,204.2746045589447,1,0.8346333503723145,None,,,,,,,,,,,,,,,,,,119,2,2025-02-25_16h33.13.214,comp,2024.2.4,53.6525475437894,2025-02-25 16h34.12.934828 -0500,
120,120,0,critical,hwd,20.0,4.0,upper,200.0,125.0,125.0,200.0,141.0,141.0,2,0.8047657012939453,None,,,,,0,0,0,0,0,120,120,107,204.29075503349304,,,,,,,,,,,,,,,,,,,,,,,,,,,,,,,,,,,,,,,,,,,,,,,,,,,,,,,,,,,,,,,,,,,,,,,,,,,,,,,,,200.0,125.0,125.0,200.0,141.0,141.0,4.0,4.1,-258,-258,0,11,266,-288,204.27611422538757,204.2761902809143,204.2791621685028,204.29075503349304,204.4345908164978,204.4345908164978,204.4345908164978,204.4345908164978,204.4345908164978,204.4345908164978,204.4345908164978,205.09997487068176,2,0.8047657012939453,None,,,,,,,,,,,,,,,,,,119,2,2025-02-25_16h33.13.214,comp,2024.2.4,53.6525475437894,2025-02-25 16h34.12.934828 -0500,
121,121,0,filler_random,None,None,None,None,None,None,None,None,None,None,1,0.7038955688476562,None,,,,,0,0,0,0,0,121,121,161,205.11920261383057,,,,,,,,,,,,,,,,,,,,,,,,,,,,,,,,,,,,,,,,,,,,,,,,,,,,,,,,,,,,,,,,,,,,,,,,,,,,,,,,,142.26867990846586,192.23560785314683,143.47050878133336,132.06016768294535,181.81095191077674,185.23705986877047,3.0,3.2,-258,-278,0,5,255,283,205.10179233551025,205.1019163131714,205.10547947883606,205.11920261383057,205.26827120780945,205.26827120780945,205.26827120780945,205.26827120780945,205.26827120780945,205.26827120780945,205.26827120780945,205.83843970298767,1,0.7038955688476562,None,,,,,,,,,,,,,,,,,,119,2,2025-02-25_16h33.13.214,comp,2024.2.4,53.6525475437894,2025-02-25 16h34.12.934828 -0500,
122,122,0,filler_square,None,None,None,None,None,None,None,None,None,None,2,0.6578185558319092,None,,,,,0,0,0,0,0,122,122,176,205.85364508628845,,,,,,,,,,,,,,,,,,,,,,,,,,,,,,,,,,,,,,,,,,,,,,,,,,,,,,,,,,,,,,,,,,,,,,,,,,,,,,,,,80.75588681607029,94.75631819990531,100.13157388068106,100.13157388068106,76.29290311343446,89.30791060864209,2.1,2.11,-193,268,0,260,191,-284,205.84039092063904,205.84046578407288,205.8434181213379,205.85364508628845,205.99615049362183,205.99615049362183,205.99615049362183,205.99615049362183,205.99615049362183,205.99615049362183,205.99615049362183,206.51519989967346,2,0.6578185558319092,None,,,,,,,,,,,,,,,,,,119,2,2025-02-25_16h33.13.214,comp,2024.2.4,53.6525475437894,2025-02-25 16h34.12.934828 -0500,
123,123,0,filler_random,None,None,None,None,None,None,None,None,None,None,3,0.7858030796051025,None,,,,,0,0,0,0,0,123,123,142,206.53336834907532,,,,,,,,,,,,,,,,,,,,,,,,,,,,,,,,,,,,,,,,,,,,,,,,,,,,,,,,,,,,,,,,,,,,,,,,,,,,,,,,,84.72063622342515,193.78553200863587,62.169399622750326,146.77292658661605,110.5776931806626,151.62639541419566,2.2,2.21,-266,-283,0,278,245,264,206.51706504821777,206.51719737052917,206.52056455612183,206.53336834907532,206.68377113342285,206.68377113342285,206.68377113342285,206.68377113342285,206.68377113342285,206.68377113342285,206.68377113342285,207.33821058273315,3,0.7858030796051025,None,,,,,,,,,,,,,,,,,,119,2,2025-02-25_16h33.13.214,comp,2024.2.4,53.6525475437894,2025-02-25 16h34.12.934828 -0500,
124,124,0,critical,wdh,35.0,2.1,upper,125.0,200.0,127.0,127.0,200.0,125.0,1,0.6144120693206787,None,,,,,0,0,0,0,0,124,124,33,207.35337328910828,,,,,,,,,,,,,,,,,,,,,,,,,,,,,,,,,,,,,,,,,,,,,,,,,,,,,,,,,,,,,,,,,,,,,,,,,,,,,,,,,125.0,200.0,127.0,127.0,200.0,125.0,2.1,2.11,-260,270,0,252,222,-277,207.3397581577301,207.33983302116394,207.34310126304626,207.35337328910828,207.50078129768372,207.50078129768372,207.50078129768372,207.50078129768372,207.50078129768372,207.50078129768372,207.50078129768372,207.97065591812134,1,0.6144120693206787,None,,,,,,,,,,,,,,,,,,119,2,2025-02-25_16h33.13.214,comp,2024.2.4,53.6525475437894,2025-02-25 16h34.12.934828 -0500,
125,125,0,critical,wdh,20.0,4.0,upper,125.0,200.0,141.0,141.0,200.0,125.0,2,0.5886023044586182,None,,,,,0,0,0,0,0,125,125,83,207.98697638511658,,,,,,,,,,,,,,,,,,,,,,,,,,,,,,,,,,,,,,,,,,,,,,,,,,,,,,,,,,,,,,,,,,,,,,,,,,,,,,,,,125.0,200.0,141.0,141.0,200.0,125.0,4.0,4.1,-266,-257,0,3,229,-262,207.9722740650177,207.97238540649414,207.97546863555908,207.98697638511658,208.1386468410492,208.1386468410492,208.1386468410492,208.1386468410492,208.1386468410492,208.1386468410492,208.1386468410492,208.58039903640747,2,0.5886023044586182,None,,,,,,,,,,,,,,,,,,119,2,2025-02-25_16h33.13.214,comp,2024.2.4,53.6525475437894,2025-02-25 16h34.12.934828 -0500,
126,126,0,catch,None,None,None,None,None,None,None,None,None,None,3,0.6903009414672852,None,,,,,0,0,0,0,0,126,126,129,208.59681272506714,,,,,,,,,,,,,,,,,,,,,,,,,,,,,,,,,,,,,,,,,,,,,,,,,,,,,,,,,,,,,,,,,,,,,,,,,,,,,,,,,84,106,114,76,188,137,3.0,3.2,-187,-278,0,0,202,265,208.58226013183594,208.58237075805664,208.58539724349976,208.59681272506714,208.733469247818,208.733469247818,208.733469247818,208.733469247818,208.733469247818,208.733469247818,208.733469247818,209.307763338089,3,0.6903009414672852,None,,,,,,,,,,,,,,,,,,119,2,2025-02-25_16h33.13.214,comp,2024.2.4,53.6525475437894,2025-02-25 16h34.12.934828 -0500,
127,127,0,filler_random,None,None,None,None,None,None,None,None,None,None,1,0.6073040962219238,None,,,,,0,0,0,0,0,127,127,146,209.32799649238586,,,,,,,,,,,,,,,,,,,,,,,,,,,,,,,,,,,,,,,,,,,,,,,,,,,,,,,,,,,,,,,,,,,,,,,,,,,,,,,,,169.54490089247298,149.3474541485062,132.11904609811813,95.96702828413922,69.56085337406199,171.26931307391163,2.2,2.22,-219,268,0,-286,230,-274,209.3095359802246,209.30961394309998,209.31267309188843,209.32799649238586,209.4633927345276,209.4633927345276,209.4633927345276,209.4633927345276,209.4633927345276,209.4633927345276,209.4633927345276,209.9527177810669,1,0.6073040962219238,None,,,,,,,,,,,,,,,,,,119,2,2025-02-25_16h33.13.214,comp,2024.2.4,53.6525475437894,2025-02-25 16h34.12.934828 -0500,
128,128,0,critical,dwh,35.0,4.0,upper,127.0,127.0,125.0,200.0,200.0,125.0,2,0.6077449321746826,None,,,,,0,0,0,0,0,128,128,65,209.96823406219482,,,,,,,,,,,,,,,,,,,,,,,,,,,,,,,,,,,,,,,,,,,,,,,,,,,,,,,,,,,,,,,,,,,,,,,,,,,,,,,,,127.0,127.0,125.0,200.0,200.0,125.0,4.0,4.1,-260,-258,0,-19,258,-282,209.95438051223755,209.95446252822876,209.95777010917664,209.96823406219482,210.11936926841736,210.11936926841736,210.11936926841736,210.11936926841736,210.11936926841736,210.11936926841736,210.11936926841736,210.5815510749817,2,0.6077449321746826,None,,,,,,,,,,,,,,,,,,119,2,2025-02-25_16h33.13.214,comp,2024.2.4,53.6525475437894,2025-02-25 16h34.12.934828 -0500,
129,129,0,critical,hwd,20.0,1.0,lower,133.0,57.0,57.0,133.0,78.0,78.0,3,0.8966138362884521,None,,,,,0,0,0,0,0,129,129,102,210.59890508651733,,,,,,,,,,,,,,,,,,,,,,,,,,,,,,,,,,,,,,,,,,,,,,,,,,,,,,,,,,,,,,,,,,,,,,,,,,,,,,,,,133.0,57.0,57.0,133.0,78.0,78.0,1.0,1.1,-671,263,-480,256,-278,278,210.58303046226501,210.58310866355896,210.58602023124695,210.59890508651733,210.74977111816406,210.74977111816406,210.74977111816406,210.74977111816406,210.74977111816406,210.74977111816406,210.74977111816406,211.50034928321838,3,0.8966138362884521,None,,,,,,,,,,,,,,,,,,119,2,2025-02-25_16h33.13.214,comp,2024.2.4,53.6525475437894,2025-02-25 16h34.12.934828 -0500,
130,130,0,filler_square,None,None,None,None,None,None,None,None,None,None,2,0.7666671276092529,None,,,,,0,0,0,0,0,130,130,202,211.52078938484192,,,,,,,,,,,,,,,,,,,,,,,,,,,,,,,,,,,,,,,,,,,,,,,,,,,,,,,,,,,,,,,,,,,,,,,,,,,,,,,,,76.9373811997935,79.68711632260381,150.51088174740278,150.51088174740278,105.82536856654687,104.46751906023749,1.0,1.1,-691,278,-480,278,-257,252,211.5021095275879,211.5021846294403,211.5053505897522,211.52078938484192,211.66761565208435,211.66761565208435,211.66761565208435,211.66761565208435,211.66761565208435,211.66761565208435,211.66761565208435,212.29027915000916,2,0.7666671276092529,None,,,,,,,,,,,,,,,,,,119,2,2025-02-25_16h33.13.214,comp,2024.2.4,53.6525475437894,2025-02-25 16h34.12.934828 -0500,
131,131,0,critical,dhw,35.0,2.1,lower,70.0,70.0,133.0,57.0,57.0,133.0,2,0.8617722988128662,None,,,,,0,0,0,0,0,131,131,24,212.3062515258789,,,,,,,,,,,,,,,,,,,,,,,,,,,,,,,,,,,,,,,,,,,,,,,,,,,,,,,,,,,,,,,,,,,,,,,,,,,,,,,,,70.0,70.0,133.0,57.0,57.0,133.0,2.1,2.11,-160,262,0,273,191,-258,212.2919156551361,212.2919909954071,212.29546999931335,212.3062515258789,212.4504017829895,212.4504017829895,212.4504017829895,212.4504017829895,212.4504017829895,212.4504017829895,212.4504017829895,213.17265486717224,2,0.8617722988128662,None,,,,,,,,,,,,,,,,,,119,2,2025-02-25_16h33.13.214,comp,2024.2.4,53.6525475437894,2025-02-25 16h34.12.934828 -0500,
132,132,0,critical,hdw,20.0,1.0,lower,133.0,57.0,78.0,78.0,57.0,133.0,2,1.0357444286346436,None,,,,,0,0,0,0,0,132,132,114,213.1887023448944,,,,,,,,,,,,,,,,,,,,,,,,,,,,,,,,,,,,,,,,,,,,,,,,,,,,,,,,,,,,,,,,,,,,,,,,,,,,,,,,,133.0,57.0,78.0,78.0,57.0,133.0,1.0,1.3,316,-273,480,-286,682,-258,213.17424368858337,213.1743414402008,213.1772494316101,213.1887023448944,213.33504128456116,213.33504128456116,213.33504128456116,213.33504128456116,213.33504128456116,213.33504128456116,213.33504128456116,214.2291657924652,2,1.0357444286346436,None,,,,,,,,,,,,,,,,,,119,2,2025-02-25_16h33.13.214,comp,2024.2.4,53.6525475437894,2025-02-25 16h34.12.934828 -0500,
133,133,0,filler_random,None,None,None,None,None,None,None,None,None,None,3,0.7928974628448486,None,,,,,0,0,0,0,0,133,133,130,214.24625086784363,,,,,,,,,,,,,,,,,,,,,,,,,,,,,,,,,,,,,,,,,,,,,,,,,,,,,,,,,,,,,,,,,,,,,,,,,,,,,,,,,84.26780461794792,123.55951106394588,146.91781151489903,70.57051855498408,118.46010203776684,196.1652414916882,2.2,2.21,-193,-259,0,278,229,278,214.2309591770172,214.2310700416565,214.23447012901306,214.24625086784363,214.38749814033508,214.38749814033508,214.38749814033508,214.38749814033508,214.38749814033508,214.38749814033508,214.38749814033508,215.04993724822998,3,0.7928974628448486,None,,,,,,,,,,,,,,,,,,119,2,2025-02-25_16h33.13.214,comp,2024.2.4,53.6525475437894,2025-02-25 16h34.12.934828 -0500,
134,134,0,filler_random,None,None,None,None,None,None,None,None,None,None,2,0.9019789695739746,None,,,,,0,0,0,0,0,134,134,165,215.06586718559265,,,,,,,,,,,,,,,,,,,,,,,,,,,,,,,,,,,,,,,,,,,,,,,,,,,,,,,,,,,,,,,,,,,,,,,,,,,,,,,,,143.9680064334106,173.55221950046234,175.9594295652173,185.83458799277943,119.64211246495631,135.4825325774978,1.0,1.1,-756,272,-480,251,-223,254,215.05185079574585,215.05192637443542,215.05524921417236,215.06586718559265,215.2183759212494,215.2183759212494,215.2183759212494,215.2183759212494,215.2183759212494,215.2183759212494,215.2183759212494,215.97498750686646,2,0.9019789695739746,None,,,,,,,,,,,,,,,,,,119,2,2025-02-25_16h33.13.214,comp,2024.2.4,53.6525475437894,2025-02-25 16h34.12.934828 -0500,
135,135,0,critical,hdw,20.0,1.0,upper,200.0,125.0,141.0,141.0,125.0,200.0,1,0.816382646560669,None,,,,,0,0,0,0,0,135,135,115,215.99127674102783,,,,,,,,,,,,,,,,,,,,,,,,,,,,,,,,,,,,,,,,,,,,,,,,,,,,,,,,,,,,,,,,,,,,,,,,,,,,,,,,,200.0,125.0,141.0,141.0,125.0,200.0,1.0,1.2,-229,-9,0,12,266,-13,215.9768249988556,215.97690296173096,215.97985315322876,215.99127674102783,216.13637924194336,216.13637924194336,216.13637924194336,216.13637924194336,216.13637924194336,216.13637924194336,216.13637924194336,216.8203248977661,1,0.816382646560669,None,,,,,,,,,,,,,,,,,,119,2,2025-02-25_16h33.13.214,comp,2024.2.4,53.6525475437894,2025-02-25 16h34.12.934828 -0500,
136,136,0,critical,hdw,35.0,1.0,upper,200.0,125.0,127.0,127.0,125.0,200.0,3,0.7183780670166016,None,,,,,0,0,0,0,0,136,136,109,216.8407051563263,,,,,,,,,,,,,,,,,,,,,,,,,,,,,,,,,,,,,,,,,,,,,,,,,,,,,,,,,,,,,,,,,,,,,,,,,,,,,,,,,200.0,125.0,127.0,127.0,125.0,200.0,1.0,1.1,-702,284,-480,287,-220,285,216.82186079025269,216.8219404220581,216.8249650001526,216.8407051563263,216.9862756729126,216.9862756729126,216.9862756729126,216.9862756729126,216.9862756729126,216.9862756729126,216.9862756729126,217.57310104370117,3,0.7183780670166016,None,,,,,,,,,,,,,,,,,,119,2,2025-02-25_16h33.13.214,comp,2024.2.4,53.6525475437894,2025-02-25 16h34.12.934828 -0500,
137,137,0,critical,hwd,35.0,1.0,lower,133.0,57.0,57.0,133.0,70.0,70.0,2,0.7427036762237549,None,,,,,0,0,0,0,0,137,137,96,217.5927016735077,,,,,,,,,,,,,,,,,,,,,,,,,,,,,,,,,,,,,,,,,,,,,,,,,,,,,,,,,,,,,,,,,,,,,,,,,,,,,,,,,133.0,57.0,57.0,133.0,70.0,70.0,1.0,1.2,-191,-13,0,-12,198,6,217.5746786594391,217.57476258277893,217.57785654067993,217.5927016735077,217.7364046573639,217.7364046573639,217.7364046573639,217.7364046573639,217.7364046573639,217.7364046573639,217.7364046573639,218.35451745986938,2,0.7427036762237549,None,,,,,,,,,,,,,,,,,,119,2,2025-02-25_16h33.13.214,comp,2024.2.4,53.6525475437894,2025-02-25 16h34.12.934828 -0500,
138,138,0,critical,dwh,20.0,2.1,lower,78.0,78.0,57.0,133.0,133.0,57.0,2,0.8753912448883057,None,,,,,0,0,0,0,0,138,138,30,218.37222957611084,,,,,,,,,,,,,,,,,,,,,,,,,,,,,,,,,,,,,,,,,,,,,,,,,,,,,,,,,,,,,,,,,,,,,,,,,,,,,,,,,78.0,78.0,57.0,133.0,133.0,57.0,2.1,2.11,-202,275,0,271,191,-277,218.35605335235596,218.35612869262695,218.35947275161743,218.37222957611084,218.5213873386383,218.5213873386383,218.5213873386383,218.5213873386383,218.5213873386383,218.5213873386383,218.5213873386383,219.25873637199402,2,0.8753912448883057,None,,,,,,,,,,,,,,,,,,119,2,2025-02-25_16h33.13.214,comp,2024.2.4,53.6525475437894,2025-02-25 16h34.12.934828 -0500,
139,139,0,critical,hdw,35.0,2.1,lower,133.0,57.0,70.0,70.0,57.0,133.0,1,0.9484314918518066,None,,,,,0,0,0,0,0,139,139,20,219.2746729850769,,,,,,,,,,,,,,,,,,,,,,,,,,,,,,,,,,,,,,,,,,,,,,,,,,,,,,,,,,,,,,,,,,,,,,,,,,,,,,,,,133.0,57.0,70.0,70.0,57.0,133.0,2.1,2.11,-160,273,0,256,198,-250,219.26034283638,219.26044464111328,219.26395440101624,219.2746729850769,219.42387318611145,219.42387318611145,219.42387318611145,219.42387318611145,219.42387318611145,219.42387318611145,219.42387318611145,220.23400831222534,1,0.9484314918518066,None,,,,,,,,,,,,,,,,,,119,2,2025-02-25_16h33.13.214,comp,2024.2.4,53.6525475437894,2025-02-25 16h34.12.934828 -0500,
