thisN,thisTrialN,thisRepN,effect,order,distance,config,diag,h_1,w_1,h_2,w_2,h_3,w_3,rect_choice.keys,rect_choice.rt,rect_choice.duration,instructions_loop.thisRepN,instructions_loop.thisTrialN,instructions_loop.thisN,instructions_loop.thisIndex,blocks.thisRepN,blocks.thisTrialN,blocks.thisN,blocks.thisIndex,trials.thisRepN,trials.thisTrialN,trials.thisN,trials.thisIndex,thisRow.t,notes,consent.started,agree_button.started,decline_button.started,consent_img.started,mouse.started,consent.stopped,agree_button.numClicks,agree_button.timesOn,agree_button.timesOff,decline_button.numClicks,decline_button.timesOn,decline_button.timesOff,mouse.x,mouse.y,mouse.leftButton,mouse.midButton,mouse.rightButton,mouse.time,mouse.clicked_name,exp_params.started,exp_params.stopped,welcome.started,welcome_text.started,welcome.stopped,instructions_1.started,instructions_1_text_1.started,instructions_1_text_2.started,key_resp.started,instructions_1.stopped,instructions_loop.key_resp.keys,instructions_loop.key_resp.rt,instructions_loop.key_resp.duration,instructions_2.started,instructions_2_text_1.started,instructions_2_text_2.started,key_resp_2.started,instructions_2.stopped,instructions_loop.key_resp_2.keys,instructions_loop.key_resp_2.rt,instructions_loop.key_resp_2.duration,instructions_3.started,instructions_3_text_1.started,r1_instr3.started,r2_instr3.started,r3_instr3.started,r1_instr3_label.started,r2_instr3_label.started,r3_instr3_label.started,instructions_3_text_3.started,instructions_3_text_4.started,key_resp_3.started,instructions_3.stopped,instructions_loop.key_resp_3.keys,instructions_loop.key_resp_3.rt,instructions_loop.key_resp_3.duration,instructions_4.started,instructions_4_text_1.started,instructions_4_text_3.started,instructions_4_text_2.started,key_resp_4.started,instructions_4.stopped,instructions_loop.key_resp_4.keys,instructions_loop.key_resp_4.rt,instructions_loop.key_resp_4.duration,instructions_5.started,instructions_5_text_1.started,instructions_5_text_2.started,key_resp_5.started,instructions_5.stopped,instructions_loop.key_resp_5.keys,instructions_loop.key_resp_5.rt,instructions_loop.key_resp_5.duration,start_exp.started,start_exp_text.started,key_resp_6.started,start_exp.stopped,key_resp_6.keys,key_resp_6.rt,key_resp_6.duration,h_1_tmp,w_1_tmp,h_2_tmp,w_2_tmp,h_3_tmp,w_3_tmp,config_tmp,config_tmp_1,r_1_x,r_1_y,r_2_x,r_2_y,r_3_x,r_3_y,pre_trial.started,pre_trial.stopped,choice_trial.started,rect_choice.started,r_1.started,r_2.started,r_3.started,r_1_label.started,r_2_label.started,r_3_label.started,prompt.started,choice_trial.stopped,trials.rect_choice.keys,trials.rect_choice.rt,trials.rect_choice.duration,end_block.started,end_block_text.started,end_block.stopped,end.started,end_text.started,key_resp_7.started,end.stopped,key_resp_7.keys,key_resp_7.rt,key_resp_7.duration,debriefing.started,debrief_form.started,end_debrief.started,debriefing.stopped,end_debrief.keys,end_debrief.rt,end_debrief.duration,participant,computer,date,expName,psychopyVersion,frameRate,expStart,
,,,,,,,,,,,,,,,,,,,,,,,,,,,,,,,0.014896631240844727,0.038732290267944336,0.038732290267944336,0.038732290267944336,0.014660358428955078,37.916033029556274,1,[37.87478232383728],[37.8748037815094],0,,,[-102.0],[-500.0],[1],[0],[0],[37.90069580078125],['agree_button'],,,,,,,,,,,,,,,,,,,,,,,,,,,,,,,,,,,,,,,,,,,,,,,,,,,,,,,,,,,,,,,,,,,,,,,,,,,,,,,,,,,,,,,,,,,,,,,,,,,,,,,,,,,11,2,2025-02-18_13h05.42.217,comp,2024.2.4,None,2025-02-18 13h06.04.720222 -0500,
,,,,,,,,,,,,,,,,,,,,,,,,,,,,,,,,,,,,,,,,,,,,,,,,,,37.91650891304016,37.91657066345215,,,,,,,,,,,,,,,,,,,,,,,,,,,,,,,,,,,,,,,,,,,,,,,,,,,,,,,,,,,,,,,,,,,,,,,,,,,,,,,,,,,,,,,,,,,,,,,,,,,,,,,,,11,2,2025-02-18_13h05.42.217,comp,2024.2.4,None,2025-02-18 13h06.04.720222 -0500,
,,,,,,,,,,,,,,,,,,,,,,,,,,,,,,,,,,,,,,,,,,,,,,,,,,,,37.91661190986633,37.931872844696045,39.91999697685242,,,,,,,,,,,,,,,,,,,,,,,,,,,,,,,,,,,,,,,,,,,,,,,,,,,,,,,,,,,,,,,,,,,,,,,,,,,,,,,,,,,,,,,,,,,,,,,,,,,,,,11,2,2025-02-18_13h05.42.217,comp,2024.2.4,None,2025-02-18 13h06.04.720222 -0500,
0,0,0,,,,,,,,,,,,,,,0,0,0,0,,,,,,,,,39.93806219100952,,,,,,,,,,,,,,,,,,,,,,,,,,39.92086887359619,39.93806219100952,39.93806219100952,41.420432806015015,42.973618268966675,space,1.534867763519287,None,42.973814964294434,42.99000310897827,42.99000310897827,44.48513746261597,48.690868854522705,space,4.197818040847778,None,48.69102692604065,48.72115659713745,48.72115659713745,48.72115659713745,48.72115659713745,48.72115659713745,48.72115659713745,48.72115659713745,48.72115659713745,48.72115659713745,50.191174268722534,56.915842056274414,space,6.7152063846588135,None,56.91601896286011,56.93343210220337,56.93343210220337,56.93343210220337,58.42639088630676,62.46089744567871,space,4.032333850860596,None,62.461069107055664,62.4762077331543,62.4762077331543,63.97639751434326,65.06266212463379,space,1.075634241104126,None,65.06291174888611,65.07794141769409,65.07794141769409,65.94596266746521,space,0.8523111343383789,None,,,,,,,,,,,,,,,,,,,,,,,,,,,,,,,,,,,,,,,,,,,,,,,11,2,2025-02-18_13h05.42.217,comp,2024.2.4,None,2025-02-18 13h06.04.720222 -0500,
0,0,0,filler_random,None,None,None,None,None,None,None,None,None,None,2,5.636798143386841,None,,,,,0,0,0,0,0,0,0,150,66.02264618873596,,,,,,,,,,,,,,,,,,,,,,,,,,,,,,,,,,,,,,,,,,,,,,,,,,,,,,,,,,,,,,,,,,,,,,,,,,,,,,,,,118.46088276374003,115.21214221001881,192.66057669483126,73.85358455451856,93.31259648266101,109.8700684312679,4.0,4.2,-191,15,0,-256,188,10,66.00603723526001,66.00608611106873,66.00783109664917,66.02264618873596,66.17079067230225,66.17079067230225,66.17079067230225,66.17079067230225,66.17079067230225,66.17079067230225,66.17079067230225,71.66759157180786,2,5.636798143386841,None,,,,,,,,,,,,,,,,,,11,2,2025-02-18_13h05.42.217,comp,2024.2.4,None,2025-02-18 13h06.04.720222 -0500,
1,1,0,filler_random,None,None,None,None,None,None,None,None,None,None,2,3.4302191734313965,None,,,,,0,0,0,0,0,1,1,145,71.68421268463135,,,,,,,,,,,,,,,,,,,,,,,,,,,,,,,,,,,,,,,,,,,,,,,,,,,,,,,,,,,,,,,,,,,,,,,,,,,,,,,,,83.4592064827103,74.45077159303008,169.38077720354596,92.98908220995091,124.89129217834586,91.67410681572579,1.0,1.2,-180,-5,0,10,188,-8,71.66951179504395,71.669597864151,71.67258310317993,71.68421268463135,71.83080339431763,71.83080339431763,71.83080339431763,71.83080339431763,71.83080339431763,71.83080339431763,71.83080339431763,75.13133597373962,2,3.4302191734313965,None,,,,,,,,,,,,,,,,,,11,2,2025-02-18_13h05.42.217,comp,2024.2.4,None,2025-02-18 13h06.04.720222 -0500,
2,2,0,critical,wdh,20.0,2.1,upper,125.0,200.0,141.0,141.0,200.0,125.0,1,4.99887490272522,None,,,,,0,0,0,0,0,2,2,35,75.14747023582458,,,,,,,,,,,,,,,,,,,,,,,,,,,,,,,,,,,,,,,,,,,,,,,,,,,,,,,,,,,,,,,,,,,,,,,,,,,,,,,,,125.0,200.0,141.0,141.0,200.0,125.0,2.1,2.12,-266,-289,0,-266,229,270,75.1329255104065,75.13300681114197,75.13617491722107,75.14747023582458,75.28771901130676,75.28771901130676,75.28771901130676,75.28771901130676,75.28771901130676,75.28771901130676,75.28771901130676,80.16090559959412,1,4.99887490272522,None,,,,,,,,,,,,,,,,,,11,2,2025-02-18_13h05.42.217,comp,2024.2.4,None,2025-02-18 13h06.04.720222 -0500,
3,3,0,filler_square,None,None,None,None,None,None,None,None,None,None,1,2.1935620307922363,None,,,,,0,0,0,0,0,3,3,206,80.17686057090759,,,,,,,,,,,,,,,,,,,,,,,,,,,,,,,,,,,,,,,,,,,,,,,,,,,,,,,,,,,,,,,,,,,,,,,,,,,,,,,,,181.84645262286955,181.84645262286955,114.25260264584784,110.1190545772273,65.08610451475263,120.46102241719234,4.0,4.1,-242,-280,0,8,211,-253,80.16270184516907,80.16282606124878,80.16580271720886,80.17686057090759,80.31548404693604,80.31548404693604,80.31548404693604,80.31548404693604,80.31548404693604,80.31548404693604,80.31548404693604,82.38487958908081,1,2.1935620307922363,None,,,,,,,,,,,,,,,,,,11,2,2025-02-18_13h05.42.217,comp,2024.2.4,None,2025-02-18 13h06.04.720222 -0500,
4,4,0,critical,whd,35.0,1.0,upper,125.0,200.0,200.0,125.0,127.0,127.0,1,3.585225820541382,None,,,,,0,0,0,0,0,4,4,85,82.40103077888489,,,,,,,,,,,,,,,,,,,,,,,,,,,,,,,,,,,,,,,,,,,,,,,,,,,,,,,,,,,,,,,,,,,,,,,,,,,,,,,,,125.0,200.0,200.0,125.0,127.0,127.0,1.0,1.1,-738,265,-480,262,-258,269,82.38647484779358,82.38655519485474,82.39077067375183,82.40103077888489,82.55103707313538,82.55103707313538,82.55103707313538,82.55103707313538,82.55103707313538,82.55103707313538,82.55103707313538,86.00229382514954,1,3.585225820541382,None,,,,,,,,,,,,,,,,,,11,2,2025-02-18_13h05.42.217,comp,2024.2.4,None,2025-02-18 13h06.04.720222 -0500,
5,5,0,critical,hdw,20.0,3.0,lower,133.0,57.0,78.0,78.0,57.0,133.0,3,2.856506586074829,None,,,,,0,0,0,0,0,5,5,116,86.01772665977478,,,,,,,,,,,,,,,,,,,,,,,,,,,,,,,,,,,,,,,,,,,,,,,,,,,,,,,,,,,,,,,,,,,,,,,,,,,,,,,,,133.0,57.0,78.0,78.0,57.0,133.0,3.0,3.1,-164,262,0,2,202,-262,86.00379681587219,86.00387477874756,86.00727152824402,86.01772665977478,86.16814422607422,86.16814422607422,86.16814422607422,86.16814422607422,86.16814422607422,86.16814422607422,86.16814422607422,88.8848524093628,3,2.856506586074829,None,,,,,,,,,,,,,,,,,,11,2,2025-02-18_13h05.42.217,comp,2024.2.4,None,2025-02-18 13h06.04.720222 -0500,
6,6,0,filler_random,None,None,None,None,None,None,None,None,None,None,3,1.9085755348205566,None,,,,,0,0,0,0,0,6,6,163,88.90213537216187,,,,,,,,,,,,,,,,,,,,,,,,,,,,,,,,,,,,,,,,,,,,,,,,,,,,,,,,,,,,,,,,,,,,,,,,,,,,,,,,,78.8064551675659,136.68677531474248,199.05410710904272,111.52793770965212,182.27341453168196,122.39848896576987,2.1,2.11,-220,263,0,278,213,-282,88.88683199882507,88.88691401481628,88.89020156860352,88.90213537216187,89.05545258522034,89.05545258522034,89.05545258522034,89.05545258522034,89.05545258522034,89.05545258522034,89.05545258522034,90.81987142562866,3,1.9085755348205566,None,,,,,,,,,,,,,,,,,,11,2,2025-02-18_13h05.42.217,comp,2024.2.4,None,2025-02-18 13h06.04.720222 -0500,
7,7,0,filler_square,None,None,None,None,None,None,None,None,None,None,1,1.9012494087219238,None,,,,,0,0,0,0,0,7,7,191,90.8381335735321,,,,,,,,,,,,,,,,,,,,,,,,,,,,,,,,,,,,,,,,,,,,,,,,,,,,,,,,,,,,,,,,,,,,,,,,,,,,,,,,,102.08162065600939,102.08162065600939,70.60963030253019,86.55266479199747,88.9752142503794,67.00335384090907,1.0,1.1,-670,264,-480,269,-307,275,90.82176852226257,90.82185959815979,90.82485270500183,90.8381335735321,90.98884081840515,90.98884081840515,90.98884081840515,90.98884081840515,90.98884081840515,90.98884081840515,90.98884081840515,92.74520063400269,1,1.9012494087219238,None,,,,,,,,,,,,,,,,,,11,2,2025-02-18_13h05.42.217,comp,2024.2.4,None,2025-02-18 13h06.04.720222 -0500,
8,8,0,critical,hdw,20.0,4.0,upper,200.0,125.0,141.0,141.0,125.0,200.0,3,1.935957908630371,None,,,,,0,0,0,0,0,8,8,119,92.76328682899475,,,,,,,,,,,,,,,,,,,,,,,,,,,,,,,,,,,,,,,,,,,,,,,,,,,,,,,,,,,,,,,,,,,,,,,,,,,,,,,,,200.0,125.0,141.0,141.0,125.0,200.0,4.0,4.1,-229,-273,0,-16,266,-267,92.74687075614929,92.74700784683228,92.75042963027954,92.76328682899475,92.90353441238403,92.90353441238403,92.90353441238403,92.90353441238403,92.90353441238403,92.90353441238403,92.90353441238403,94.70361757278442,3,1.935957908630371,None,,,,,,,,,,,,,,,,,,11,2,2025-02-18_13h05.42.217,comp,2024.2.4,None,2025-02-18 13h06.04.720222 -0500,
9,9,0,critical,whd,35.0,2.1,upper,125.0,200.0,200.0,125.0,127.0,127.0,1,4.8501341342926025,None,,,,,0,0,0,0,0,9,9,13,94.72026991844177,,,,,,,,,,,,,,,,,,,,,,,,,,,,,,,,,,,,,,,,,,,,,,,,,,,,,,,,,,,,,,,,,,,,,,,,,,,,,,,,,125.0,200.0,200.0,125.0,127.0,127.0,2.1,2.11,-258,271,0,258,222,-285,94.70535349845886,94.705491065979,94.70882153511047,94.72026991844177,94.8700361251831,94.8700361251831,94.8700361251831,94.8700361251831,94.8700361251831,94.8700361251831,94.8700361251831,99.5738377571106,1,4.8501341342926025,None,,,,,,,,,,,,,,,,,,11,2,2025-02-18_13h05.42.217,comp,2024.2.4,None,2025-02-18 13h06.04.720222 -0500,
10,10,0,critical,hdw,35.0,2.1,upper,200.0,125.0,127.0,127.0,125.0,200.0,3,5.0411717891693115,None,,,,,0,0,0,0,0,10,10,21,99.59411334991455,,,,,,,,,,,,,,,,,,,,,,,,,,,,,,,,,,,,,,,,,,,,,,,,,,,,,,,,,,,,,,,,,,,,,,,,,,,,,,,,,200.0,125.0,127.0,127.0,125.0,200.0,2.1,2.12,-222,-261,0,-255,260,263,99.57533049583435,99.57542634010315,99.5783953666687,99.59411334991455,99.74066638946533,99.74066638946533,99.74066638946533,99.74066638946533,99.74066638946533,99.74066638946533,99.74066638946533,104.64185905456543,3,5.0411717891693115,None,,,,,,,,,,,,,,,,,,11,2,2025-02-18_13h05.42.217,comp,2024.2.4,None,2025-02-18 13h06.04.720222 -0500,
11,11,0,critical,dhw,20.0,4.0,upper,141.0,141.0,200.0,125.0,125.0,200.0,3,3.520585298538208,None,,,,,0,0,0,0,0,11,11,59,104.65782761573792,,,,,,,,,,,,,,,,,,,,,,,,,,,,,,,,,,,,,,,,,,,,,,,,,,,,,,,,,,,,,,,,,,,,,,,,,,,,,,,,,141.0,141.0,200.0,125.0,125.0,200.0,4.0,4.2,-229,-3,0,-264,258,-9,104.6434576511383,104.64354062080383,104.64708399772644,104.65782761573792,104.80800914764404,104.80800914764404,104.80800914764404,104.80800914764404,104.80800914764404,104.80800914764404,104.80800914764404,108.1921603679657,3,3.520585298538208,None,,,,,,,,,,,,,,,,,,11,2,2025-02-18_13h05.42.217,comp,2024.2.4,None,2025-02-18 13h06.04.720222 -0500,
12,12,0,critical,whd,20.0,2.1,upper,125.0,200.0,200.0,125.0,141.0,141.0,1,9.482910871505737,None,,,,,0,0,0,0,0,12,12,39,108.20821833610535,,,,,,,,,,,,,,,,,,,,,,,,,,,,,,,,,,,,,,,,,,,,,,,,,,,,,,,,,,,,,,,,,,,,,,,,,,,,,,,,,125.0,200.0,200.0,125.0,141.0,141.0,2.1,2.12,-258,-256,0,-277,229,271,108.1935966014862,108.19367408752441,108.19670104980469,108.20821833610535,108.36099004745483,108.36099004745483,108.36099004745483,108.36099004745483,108.36099004745483,108.36099004745483,108.36099004745483,117.69709944725037,1,9.482910871505737,None,,,,,,,,,,,,,,,,,,11,2,2025-02-18_13h05.42.217,comp,2024.2.4,None,2025-02-18 13h06.04.720222 -0500,
13,13,0,filler_random,None,None,None,None,None,None,None,None,None,None,3,1.665395736694336,None,,,,,0,0,0,0,0,13,13,164,117.71317768096924,,,,,,,,,,,,,,,,,,,,,,,,,,,,,,,,,,,,,,,,,,,,,,,,,,,,,,,,,,,,,,,,,,,,,,,,,,,,,,,,,159.93791924392733,95.99277355719597,105.95781063571187,184.95048419146877,139.1423536428013,174.13941389711465,2.1,2.12,-236,-262,0,-262,276,257,117.6990327835083,117.69916486740112,117.70243954658508,117.71317768096924,117.86268734931946,117.86268734931946,117.86268734931946,117.86268734931946,117.86268734931946,117.86268734931946,117.86268734931946,119.38172006607056,3,1.665395736694336,None,,,,,,,,,,,,,,,,,,11,2,2025-02-18_13h05.42.217,comp,2024.2.4,None,2025-02-18 13h06.04.720222 -0500,
14,14,0,critical,dwh,20.0,2.1,upper,141.0,141.0,125.0,200.0,200.0,125.0,2,3.0761771202087402,None,,,,,0,0,0,0,0,14,14,31,119.39894080162048,,,,,,,,,,,,,,,,,,,,,,,,,,,,,,,,,,,,,,,,,,,,,,,,,,,,,,,,,,,,,,,,,,,,,,,,,,,,,,,,,141.0,141.0,125.0,200.0,200.0,125.0,2.1,2.12,-266,-275,0,-270,258,261,119.38339114189148,119.38347578048706,119.38729858398438,119.39894080162048,119.54573225975037,119.54573225975037,119.54573225975037,119.54573225975037,119.54573225975037,119.54573225975037,119.54573225975037,122.48129796981812,2,3.0761771202087402,None,,,,,,,,,,,,,,,,,,11,2,2025-02-18_13h05.42.217,comp,2024.2.4,None,2025-02-18 13h06.04.720222 -0500,
15,15,0,filler_random,None,None,None,None,None,None,None,None,None,None,2,1.8415205478668213,None,,,,,0,0,0,0,0,15,15,130,122.49680685997009,,,,,,,,,,,,,,,,,,,,,,,,,,,,,,,,,,,,,,,,,,,,,,,,,,,,,,,,,,,,,,,,,,,,,,,,,,,,,,,,,63.95794841303692,64.86585541152964,158.19052954876668,163.03907091624575,124.51806658115093,197.37117219975997,2.1,2.12,-210,-250,0,-280,276,269,122.48293995857239,122.48302030563354,122.48608565330505,122.49680685997009,122.64486789703369,122.64486789703369,122.64486789703369,122.64486789703369,122.64486789703369,122.64486789703369,122.64486789703369,124.35513854026794,2,1.8415205478668213,None,,,,,,,,,,,,,,,,,,11,2,2025-02-18_13h05.42.217,comp,2024.2.4,None,2025-02-18 13h06.04.720222 -0500,
16,16,0,critical,hdw,20.0,4.0,lower,133.0,57.0,78.0,78.0,57.0,133.0,3,5.372081518173218,None,,,,,0,0,0,0,0,16,16,118,124.3743052482605,,,,,,,,,,,,,,,,,,,,,,,,,,,,,,,,,,,,,,,,,,,,,,,,,,,,,,,,,,,,,,,,,,,,,,,,,,,,,,,,,133.0,57.0,78.0,78.0,57.0,133.0,4.0,4.1,-164,-282,0,15,202,-285,124.35657691955566,124.35665392875671,124.35960006713867,124.3743052482605,124.51616430282593,124.51616430282593,124.51616430282593,124.51616430282593,124.51616430282593,124.51616430282593,124.51616430282593,129.76363158226013,3,5.372081518173218,None,,,,,,,,,,,,,,,,,,11,2,2025-02-18_13h05.42.217,comp,2024.2.4,None,2025-02-18 13h06.04.720222 -0500,
17,17,0,critical,wdh,35.0,2.1,upper,125.0,200.0,127.0,127.0,200.0,125.0,1,2.0692806243896484,None,,,,,0,0,0,0,0,17,17,33,129.7811541557312,,,,,,,,,,,,,,,,,,,,,,,,,,,,,,,,,,,,,,,,,,,,,,,,,,,,,,,,,,,,,,,,,,,,,,,,,,,,,,,,,125.0,200.0,127.0,127.0,200.0,125.0,2.1,2.12,-260,-285,0,-284,222,272,129.7651858329773,129.76526403427124,129.7685763835907,129.7811541557312,129.91762471199036,129.91762471199036,129.91762471199036,129.91762471199036,129.91762471199036,129.91762471199036,129.91762471199036,131.8666067123413,1,2.0692806243896484,None,,,,,,,,,,,,,,,,,,11,2,2025-02-18_13h05.42.217,comp,2024.2.4,None,2025-02-18 13h06.04.720222 -0500,
18,18,0,critical,dwh,35.0,1.0,upper,127.0,127.0,125.0,200.0,200.0,125.0,2,2.624847650527954,None,,,,,0,0,0,0,0,18,18,61,131.88214421272278,,,,,,,,,,,,,,,,,,,,,,,,,,,,,,,,,,,,,,,,,,,,,,,,,,,,,,,,,,,,,,,,,,,,,,,,,,,,,,,,,127.0,127.0,125.0,200.0,200.0,125.0,1.0,1.3,220,-268,480,-279,738,-252,131.8681561946869,131.86823344230652,131.87167263031006,131.88214421272278,132.03219771385193,132.03219771385193,132.03219771385193,132.03219771385193,132.03219771385193,132.03219771385193,132.03219771385193,134.52068519592285,2,2.624847650527954,None,,,,,,,,,,,,,,,,,,11,2,2025-02-18_13h05.42.217,comp,2024.2.4,None,2025-02-18 13h06.04.720222 -0500,
19,19,0,filler_square,None,None,None,None,None,None,None,None,None,None,3,1.4504289627075195,None,,,,,0,0,0,0,0,19,19,209,134.53621768951416,,,,,,,,,,,,,,,,,,,,,,,,,,,,,,,,,,,,,,,,,,,,,,,,,,,,,,,,,,,,,,,,,,,,,,,,,,,,,,,,,119.47507559896651,98.28818401791096,147.90468939263317,147.77799916335317,164.22919085429956,164.22919085429956,1.0,1.2,-219,20,0,-1,252,15,134.52264523506165,134.52273106575012,134.5263910293579,134.53621768951416,134.68479537963867,134.68479537963867,134.68479537963867,134.68479537963867,134.68479537963867,134.68479537963867,134.68479537963867,135.9911913871765,3,1.4504289627075195,None,,,,,,,,,,,,,,,,,,11,2,2025-02-18_13h05.42.217,comp,2024.2.4,None,2025-02-18 13h06.04.720222 -0500,
20,20,0,filler_random,None,None,None,None,None,None,None,None,None,None,3,1.8013486862182617,None,,,,,0,0,0,0,0,20,20,132,136.00916695594788,,,,,,,,,,,,,,,,,,,,,,,,,,,,,,,,,,,,,,,,,,,,,,,,,,,,,,,,,,,,,,,,,,,,,,,,,,,,,,,,,92.28277630958048,193.54151481035527,119.13984824757127,119.79193850218303,194.39421522693766,111.2528176778738,2.1,2.11,-253,266,0,259,212,-261,135.99298405647278,135.9930658340454,135.99605059623718,136.00916695594788,136.15183568000793,136.15183568000793,136.15183568000793,136.15183568000793,136.15183568000793,136.15183568000793,136.15183568000793,137.81439590454102,3,1.8013486862182617,None,,,,,,,,,,,,,,,,,,11,2,2025-02-18_13h05.42.217,comp,2024.2.4,None,2025-02-18 13h06.04.720222 -0500,
21,21,0,filler_square,None,None,None,None,None,None,None,None,None,None,1,1.5354540348052979,None,,,,,0,0,0,0,0,21,21,184,137.83498191833496,,,,,,,,,,,,,,,,,,,,,,,,,,,,,,,,,,,,,,,,,,,,,,,,,,,,,,,,,,,,,,,,,,,,,,,,,,,,,,,,,194.8946855556129,194.8946855556129,153.69267334080465,189.34886038898944,180.94488778462926,169.09716851950128,2.1,2.11,-288,281,0,273,275,-271,137.81624817848206,137.8163275718689,137.81933879852295,137.83498191833496,137.97529673576355,137.97529673576355,137.97529673576355,137.97529673576355,137.97529673576355,137.97529673576355,137.97529673576355,139.38733386993408,1,1.5354540348052979,None,,,,,,,,,,,,,,,,,,11,2,2025-02-18_13h05.42.217,comp,2024.2.4,None,2025-02-18 13h06.04.720222 -0500,
22,22,0,critical,whd,20.0,2.1,upper,125.0,200.0,200.0,125.0,141.0,141.0,1,3.4544782638549805,None,,,,,0,0,0,0,0,22,22,15,139.40392589569092,,,,,,,,,,,,,,,,,,,,,,,,,,,,,,,,,,,,,,,,,,,,,,,,,,,,,,,,,,,,,,,,,,,,,,,,,,,,,,,,,125.0,200.0,200.0,125.0,141.0,141.0,2.1,2.11,-258,270,0,253,229,-288,139.38908100128174,139.3891863822937,139.3926649093628,139.40392589569092,139.55719685554504,139.55719685554504,139.55719685554504,139.55719685554504,139.55719685554504,139.55719685554504,139.55719685554504,142.87092638015747,1,3.4544782638549805,None,,,,,,,,,,,,,,,,,,11,2,2025-02-18_13h05.42.217,comp,2024.2.4,None,2025-02-18 13h06.04.720222 -0500,
23,23,0,critical,dwh,35.0,2.1,upper,127.0,127.0,125.0,200.0,200.0,125.0,3,5.489532709121704,None,,,,,0,0,0,0,0,23,23,5,142.88888263702393,,,,,,,,,,,,,,,,,,,,,,,,,,,,,,,,,,,,,,,,,,,,,,,,,,,,,,,,,,,,,,,,,,,,,,,,,,,,,,,,,127.0,127.0,125.0,200.0,200.0,125.0,2.1,2.11,-260,262,0,273,258,-252,142.8724672794342,142.87254881858826,142.87578296661377,142.88888263702393,143.036691904068,143.036691904068,143.036691904068,143.036691904068,143.036691904068,143.036691904068,143.036691904068,148.39085793495178,3,5.489532709121704,None,,,,,,,,,,,,,,,,,,11,2,2025-02-18_13h05.42.217,comp,2024.2.4,None,2025-02-18 13h06.04.720222 -0500,
24,24,0,filler_square,None,None,None,None,None,None,None,None,None,None,1,1.3809452056884766,None,,,,,0,0,0,0,0,24,24,185,148.40571689605713,,,,,,,,,,,,,,,,,,,,,,,,,,,,,,,,,,,,,,,,,,,,,,,,,,,,,,,,,,,,,,,,,,,,,,,,,,,,,,,,,106.90638763351481,106.90638763351481,75.52500690483295,103.81872215135219,57.517403201286385,105.59056928326092,4.0,4.1,-201,-268,0,-3,201,-253,148.39280033111572,148.3928825855255,148.395925283432,148.40571689605713,148.56046557426453,148.56046557426453,148.56046557426453,148.56046557426453,148.56046557426453,148.56046557426453,148.56046557426453,149.8067855834961,1,1.3809452056884766,None,,,,,,,,,,,,,,,,,,11,2,2025-02-18_13h05.42.217,comp,2024.2.4,None,2025-02-18 13h06.04.720222 -0500,
25,25,0,catch,None,None,None,None,None,None,None,None,None,None,2,0.8815140724182129,None,,,,,0,0,0,0,0,25,25,120,149.82535600662231,,,,,,,,,,,,,,,,,,,,,,,,,,,,,,,,,,,,,,,,,,,,,,,,,,,,,,,,,,,,,,,,,,,,,,,,,,,,,,,,,88,102,139,186,104,86,1.0,1.1,-720,271,-480,268,-248,255,149.80883836746216,149.80897068977356,149.8128502368927,149.82535600662231,149.9723289012909,149.9723289012909,149.9723289012909,149.9723289012909,149.9723289012909,149.9723289012909,149.9723289012909,150.70948362350464,2,0.8815140724182129,None,,,,,,,,,,,,,,,,,,11,2,2025-02-18_13h05.42.217,comp,2024.2.4,None,2025-02-18 13h06.04.720222 -0500,
26,26,0,catch,None,None,None,None,None,None,None,None,None,None,2,0.796271562576294,None,,,,,0,0,0,0,0,26,26,122,150.72611808776855,,,,,,,,,,,,,,,,,,,,,,,,,,,,,,,,,,,,,,,,,,,,,,,,,,,,,,,,,,,,,,,,,,,,,,,,,,,,,,,,,112,78,155,170,75,115,1.0,1.2,-220,-11,0,20,238,-2,150.71182584762573,150.71191120147705,150.71536231040955,150.72611808776855,150.87700486183167,150.87700486183167,150.87700486183167,150.87700486183167,150.87700486183167,150.87700486183167,150.87700486183167,151.53854608535767,2,0.796271562576294,None,,,,,,,,,,,,,,,,,,11,2,2025-02-18_13h05.42.217,comp,2024.2.4,None,2025-02-18 13h06.04.720222 -0500,
27,27,0,critical,dwh,35.0,3.0,lower,70.0,70.0,57.0,133.0,133.0,57.0,2,1.5195872783660889,None,,,,,0,0,0,0,0,27,27,62,151.55481433868408,,,,,,,,,,,,,,,,,,,,,,,,,,,,,,,,,,,,,,,,,,,,,,,,,,,,,,,,,,,,,,,,,,,,,,,,,,,,,,,,,70.0,70.0,57.0,133.0,133.0,57.0,3.0,3.1,-198,285,0,-4,191,-272,151.5401210784912,151.5402021408081,151.54351091384888,151.55481433868408,151.69289350509644,151.69289350509644,151.69289350509644,151.69289350509644,151.69289350509644,151.69289350509644,151.69289350509644,153.09136581420898,2,1.5195872783660889,None,,,,,,,,,,,,,,,,,,11,2,2025-02-18_13h05.42.217,comp,2024.2.4,None,2025-02-18 13h06.04.720222 -0500,
28,28,0,critical,whd,20.0,2.1,lower,57.0,133.0,133.0,57.0,78.0,78.0,1,4.351689100265503,None,,,,,0,0,0,0,0,28,28,14,153.10667848587036,,,,,,,,,,,,,,,,,,,,,,,,,,,,,,,,,,,,,,,,,,,,,,,,,,,,,,,,,,,,,,,,,,,,,,,,,,,,,,,,,57.0,133.0,133.0,57.0,78.0,78.0,2.1,2.11,-191,274,0,261,164,-255,153.09296321868896,153.09308314323425,153.0963966846466,153.10667848587036,153.26207423210144,153.26207423210144,153.26207423210144,153.26207423210144,153.26207423210144,153.26207423210144,153.26207423210144,157.47472548484802,1,4.351689100265503,None,,,,,,,,,,,,,,,,,,11,2,2025-02-18_13h05.42.217,comp,2024.2.4,None,2025-02-18 13h06.04.720222 -0500,
29,29,0,critical,whd,35.0,3.0,lower,57.0,133.0,133.0,57.0,70.0,70.0,1,3.8169333934783936,None,,,,,0,0,0,0,0,29,29,86,157.49093770980835,,,,,,,,,,,,,,,,,,,,,,,,,,,,,,,,,,,,,,,,,,,,,,,,,,,,,,,,,,,,,,,,,,,,,,,,,,,,,,,,,57.0,133.0,133.0,57.0,70.0,70.0,3.0,3.1,-191,279,0,2,160,-260,157.4763548374176,157.47643494606018,157.48058676719666,157.49093770980835,157.6401391029358,157.6401391029358,157.6401391029358,157.6401391029358,157.6401391029358,157.6401391029358,157.6401391029358,161.3114459514618,1,3.8169333934783936,None,,,,,,,,,,,,,,,,,,11,2,2025-02-18_13h05.42.217,comp,2024.2.4,None,2025-02-18 13h06.04.720222 -0500,
30,30,0,critical,hdw,35.0,3.0,upper,200.0,125.0,127.0,127.0,125.0,200.0,3,5.5070576667785645,None,,,,,0,0,0,0,0,30,30,111,161.32736039161682,,,,,,,,,,,,,,,,,,,,,,,,,,,,,,,,,,,,,,,,,,,,,,,,,,,,,,,,,,,,,,,,,,,,,,,,,,,,,,,,,200.0,125.0,127.0,127.0,125.0,200.0,3.0,3.1,-222,258,0,-6,260,-262,161.3131184577942,161.31320071220398,161.31618928909302,161.32736039161682,161.47298121452332,161.47298121452332,161.47298121452332,161.47298121452332,161.47298121452332,161.47298121452332,161.47298121452332,166.84949111938477,3,5.5070576667785645,None,,,,,,,,,,,,,,,,,,11,2,2025-02-18_13h05.42.217,comp,2024.2.4,None,2025-02-18 13h06.04.720222 -0500,
31,31,0,filler_random,None,None,None,None,None,None,None,None,None,None,1,2.9494032859802246,None,,,,,0,0,0,0,0,31,31,148,166.86925339698792,,,,,,,,,,,,,,,,,,,,,,,,,,,,,,,,,,,,,,,,,,,,,,,,,,,,,,,,,,,,,,,,,,,,,,,,,,,,,,,,,148.46283324593946,102.47932087174934,104.54889038639391,128.7784111660285,194.4421073262439,84.98489387661328,2.1,2.12,-212,-277,0,-250,203,257,166.8512568473816,166.851336479187,166.85430812835693,166.86925339698792,167.01111483573914,167.01111483573914,167.01111483573914,167.01111483573914,167.01111483573914,167.01111483573914,167.01111483573914,169.82808566093445,1,2.9494032859802246,None,,,,,,,,,,,,,,,,,,11,2,2025-02-18_13h05.42.217,comp,2024.2.4,None,2025-02-18 13h06.04.720222 -0500,
32,32,0,critical,hwd,35.0,2.1,upper,200.0,125.0,125.0,200.0,127.0,127.0,2,6.293997049331665,None,,,,,0,0,0,0,0,32,32,41,169.84442472457886,,,,,,,,,,,,,,,,,,,,,,,,,,,,,,,,,,,,,,,,,,,,,,,,,,,,,,,,,,,,,,,,,,,,,,,,,,,,,,,,,200.0,125.0,125.0,200.0,127.0,127.0,2.1,2.11,-258,258,0,276,260,-287,169.8296661376953,169.82981252670288,169.83328223228455,169.84442472457886,169.99464392662048,169.99464392662048,169.99464392662048,169.99464392662048,169.99464392662048,169.99464392662048,169.99464392662048,176.14741802215576,2,6.293997049331665,None,,,,,,,,,,,,,,,,,,11,2,2025-02-18_13h05.42.217,comp,2024.2.4,None,2025-02-18 13h06.04.720222 -0500,
33,33,0,filler_square,None,None,None,None,None,None,None,None,None,None,2,1.0465996265411377,None,,,,,0,0,0,0,0,33,33,195,176.16370296478271,,,,,,,,,,,,,,,,,,,,,,,,,,,,,,,,,,,,,,,,,,,,,,,,,,,,,,,,,,,,,,,,,,,,,,,,,,,,,,,,,80.31549655992487,92.94679236164895,174.73813029017097,174.73813029017097,110.92234056780441,148.70332923686829,2.2,2.21,-230,-250,0,254,258,268,176.14927768707275,176.14936113357544,176.15280485153198,176.16370296478271,176.31805419921875,176.31805419921875,176.31805419921875,176.31805419921875,176.31805419921875,176.31805419921875,176.31805419921875,177.2143852710724,2,1.0465996265411377,None,,,,,,,,,,,,,,,,,,11,2,2025-02-18_13h05.42.217,comp,2024.2.4,None,2025-02-18 13h06.04.720222 -0500,
34,34,0,critical,wdh,20.0,4.0,lower,57.0,133.0,78.0,78.0,133.0,57.0,3,7.261206388473511,None,,,,,0,0,0,0,0,34,34,82,177.22998690605164,,,,,,,,,,,,,,,,,,,,,,,,,,,,,,,,,,,,,,,,,,,,,,,,,,,,,,,,,,,,,,,,,,,,,,,,,,,,,,,,,57.0,133.0,78.0,78.0,133.0,57.0,4.0,4.2,-202,6,0,-253,164,-14,177.21614980697632,177.2162308692932,177.21999645233154,177.22998690605164,177.37982320785522,177.37982320785522,177.37982320785522,177.37982320785522,177.37982320785522,177.37982320785522,177.37982320785522,184.4992711544037,3,7.261206388473511,None,,,,,,,,,,,,,,,,,,11,2,2025-02-18_13h05.42.217,comp,2024.2.4,None,2025-02-18 13h06.04.720222 -0500,
35,35,0,filler_square,None,None,None,None,None,None,None,None,None,None,1,0.8704433441162109,None,,,,,0,0,0,0,0,35,35,204,184.5159556865692,,,,,,,,,,,,,,,,,,,,,,,,,,,,,,,,,,,,,,,,,,,,,,,,,,,,,,,,,,,,,,,,,,,,,,,,,,,,,,,,,142.05729055829386,142.05729055829386,132.86092346140097,89.17044283003038,97.35928366935971,107.67982355921421,2.2,2.22,-212,261,0,-275,194,-258,184.50104331970215,184.50112581253052,184.5043671131134,184.5159556865692,184.66820979118347,184.66820979118347,184.66820979118347,184.66820979118347,184.66820979118347,184.66820979118347,184.66820979118347,185.40041089057922,1,0.8704433441162109,None,,,,,,,,,,,,,,,,,,11,2,2025-02-18_13h05.42.217,comp,2024.2.4,None,2025-02-18 13h06.04.720222 -0500,
36,36,0,critical,hdw,35.0,3.0,lower,133.0,57.0,70.0,70.0,57.0,133.0,3,1.417922019958496,None,,,,,0,0,0,0,0,36,36,110,185.4165313243866,,,,,,,,,,,,,,,,,,,,,,,,,,,,,,,,,,,,,,,,,,,,,,,,,,,,,,,,,,,,,,,,,,,,,,,,,,,,,,,,,133.0,57.0,70.0,70.0,57.0,133.0,3.0,3.2,-160,-257,0,-6,198,251,185.40197110176086,185.4020528793335,185.40620398521423,185.4165313243866,185.56936883926392,185.56936883926392,185.56936883926392,185.56936883926392,185.56936883926392,185.56936883926392,185.56936883926392,186.8514347076416,3,1.417922019958496,None,,,,,,,,,,,,,,,,,,11,2,2025-02-18_13h05.42.217,comp,2024.2.4,None,2025-02-18 13h06.04.720222 -0500,
37,37,0,filler_square,None,None,None,None,None,None,None,None,None,None,3,1.3343188762664795,None,,,,,0,0,0,0,0,37,37,208,186.86813712120056,,,,,,,,,,,,,,,,,,,,,,,,,,,,,,,,,,,,,,,,,,,,,,,,,,,,,,,,,,,,,,,,,,,,,,,,,,,,,,,,,78.86245401524988,152.6181821695019,93.48206957464306,162.9684978382406,188.62751944681048,188.62751944681048,1.0,1.3,226,-284,480,-262,752,-254,186.85345697402954,186.85353708267212,186.85742902755737,186.86813712120056,187.01684617996216,187.01684617996216,187.01684617996216,187.01684617996216,187.01684617996216,187.01684617996216,187.01684617996216,188.2189862728119,3,1.3343188762664795,None,,,,,,,,,,,,,,,,,,11,2,2025-02-18_13h05.42.217,comp,2024.2.4,None,2025-02-18 13h06.04.720222 -0500,
38,38,0,filler_random,None,None,None,None,None,None,None,None,None,None,2,1.9100494384765625,None,,,,,0,0,0,0,0,38,38,143,188.23683071136475,,,,,,,,,,,,,,,,,,,,,,,,,,,,,,,,,,,,,,,,,,,,,,,,,,,,,,,,,,,,,,,,,,,,,,,,,,,,,,,,,86.1809829867795,153.87739577970416,92.15279958275022,168.69022077081405,186.84047325993203,85.1698987372659,3.0,3.2,-257,-278,0,10,223,286,188.22084379196167,188.2209391593933,188.22417879104614,188.23683071136475,188.38495874404907,188.38495874404907,188.38495874404907,188.38495874404907,188.38495874404907,188.38495874404907,188.38495874404907,190.15093660354614,2,1.9100494384765625,None,,,,,,,,,,,,,,,,,,11,2,2025-02-18_13h05.42.217,comp,2024.2.4,None,2025-02-18 13h06.04.720222 -0500,
39,39,0,filler_random,None,None,None,None,None,None,None,None,None,None,1,3.4513278007507324,None,,,,,0,0,0,0,0,39,39,152,190.1676378250122,,,,,,,,,,,,,,,,,,,,,,,,,,,,,,,,,,,,,,,,,,,,,,,,,,,,,,,,,,,,,,,,,,,,,,,,,,,,,,,,,149.49225121154427,138.4410593901058,173.68754230715302,105.13548439852408,88.23320692000031,99.51596208599179,3.0,3.2,-218,-265,0,-15,198,281,190.15264511108398,190.15272784233093,190.15600872039795,190.1676378250122,190.32042002677917,190.32042002677917,190.32042002677917,190.32042002677917,190.32042002677917,190.32042002677917,190.32042002677917,193.6261546611786,1,3.4513278007507324,None,,,,,,,,,,,,,,,,,,11,2,2025-02-18_13h05.42.217,comp,2024.2.4,None,2025-02-18 13h06.04.720222 -0500,
40,40,0,critical,wdh,35.0,3.0,lower,57.0,133.0,70.0,70.0,133.0,57.0,3,2.725654125213623,None,,,,,0,0,0,0,0,40,40,74,193.6448495388031,,,,,,,,,,,,,,,,,,,,,,,,,,,,,,,,,,,,,,,,,,,,,,,,,,,,,,,,,,,,,,,,,,,,,,,,,,,,,,,,,57.0,133.0,70.0,70.0,133.0,57.0,3.0,3.1,-198,280,0,8,160,-258,193.62761306762695,193.62769150733948,193.6305868625641,193.6448495388031,193.7867248058319,193.7867248058319,193.7867248058319,193.7867248058319,193.7867248058319,193.7867248058319,193.7867248058319,196.3864996433258,3,2.725654125213623,None,,,,,,,,,,,,,,,,,,11,2,2025-02-18_13h05.42.217,comp,2024.2.4,None,2025-02-18 13h06.04.720222 -0500,
41,41,0,filler_square,None,None,None,None,None,None,None,None,None,None,3,1.1285972595214844,None,,,,,0,0,0,0,0,41,41,180,196.4022719860077,,,,,,,,,,,,,,,,,,,,,,,,,,,,,,,,,,,,,,,,,,,,,,,,,,,,,,,,,,,,,,,,,,,,,,,,,,,,,,,,,106.43646201053055,75.77052208969558,104.33308726233948,87.76529847968911,132.92880188164577,132.92880188164577,1.0,1.2,-178,18,0,9,206,15,196.38828659057617,196.3883671760559,196.39168572425842,196.4022719860077,196.5529146194458,196.5529146194458,196.5529146194458,196.5529146194458,196.5529146194458,196.5529146194458,196.5529146194458,197.54046058654785,3,1.1285972595214844,None,,,,,,,,,,,,,,,,,,11,2,2025-02-18_13h05.42.217,comp,2024.2.4,None,2025-02-18 13h06.04.720222 -0500,
42,42,0,critical,hdw,35.0,2.1,lower,133.0,57.0,70.0,70.0,57.0,133.0,3,2.1558961868286133,None,,,,,0,0,0,0,0,42,42,44,197.55917763710022,,,,,,,,,,,,,,,,,,,,,,,,,,,,,,,,,,,,,,,,,,,,,,,,,,,,,,,,,,,,,,,,,,,,,,,,,,,,,,,,,133.0,57.0,70.0,70.0,57.0,133.0,2.1,2.11,-160,258,0,252,198,-278,197.5420961380005,197.54218792915344,197.5456771850586,197.55917763710022,197.70414113998413,197.70414113998413,197.70414113998413,197.70414113998413,197.70414113998413,197.70414113998413,197.70414113998413,199.7236590385437,3,2.1558961868286133,None,,,,,,,,,,,,,,,,,,11,2,2025-02-18_13h05.42.217,comp,2024.2.4,None,2025-02-18 13h06.04.720222 -0500,
43,43,0,filler_square,None,None,None,None,None,None,None,None,None,None,2,2.0523335933685303,None,,,,,0,0,0,0,0,43,43,205,199.74212551116943,,,,,,,,,,,,,,,,,,,,,,,,,,,,,,,,,,,,,,,,,,,,,,,,,,,,,,,,,,,,,,,,,,,,,,,,,,,,,,,,,62.54997287321383,78.81473819141453,121.89622155971367,121.89622155971367,101.50627808681514,80.95119410493112,2.1,2.12,-196,-278,0,-252,197,258,199.72552180290222,199.72560620307922,199.72883105278015,199.74212551116943,199.8886845111847,199.8886845111847,199.8886845111847,199.8886845111847,199.8886845111847,199.8886845111847,199.8886845111847,201.8041877746582,2,2.0523335933685303,None,,,,,,,,,,,,,,,,,,11,2,2025-02-18_13h05.42.217,comp,2024.2.4,None,2025-02-18 13h06.04.720222 -0500,
44,44,0,critical,whd,35.0,3.0,upper,125.0,200.0,200.0,125.0,127.0,127.0,1,4.766098260879517,None,,,,,0,0,0,0,0,44,44,87,201.82064294815063,,,,,,,,,,,,,,,,,,,,,,,,,,,,,,,,,,,,,,,,,,,,,,,,,,,,,,,,,,,,,,,,,,,,,,,,,,,,,,,,,125.0,200.0,200.0,125.0,127.0,127.0,3.0,3.1,-258,274,0,6,222,-286,201.8057029247284,201.8058123588562,201.8089587688446,201.82064294815063,201.96133518218994,201.96133518218994,201.96133518218994,201.96133518218994,201.96133518218994,201.96133518218994,201.96133518218994,206.59020709991455,1,4.766098260879517,None,,,,,,,,,,,,,,,,,,11,2,2025-02-18_13h05.42.217,comp,2024.2.4,None,2025-02-18 13h06.04.720222 -0500,
45,45,0,critical,dwh,20.0,1.0,lower,78.0,78.0,57.0,133.0,133.0,57.0,3,11.466694116592407,None,,,,,0,0,0,0,0,45,45,66,206.60803866386414,,,,,,,,,,,,,,,,,,,,,,,,,,,,,,,,,,,,,,,,,,,,,,,,,,,,,,,,,,,,,,,,,,,,,,,,,,,,,,,,,78.0,78.0,57.0,133.0,133.0,57.0,1.0,1.3,278,-283,480,-281,671,-276,206.5917239189148,206.59183073043823,206.59497809410095,206.60803866386414,206.7563374042511,206.7563374042511,206.7563374042511,206.7563374042511,206.7563374042511,206.7563374042511,206.7563374042511,218.0794026851654,3,11.466694116592407,None,,,,,,,,,,,,,,,,,,11,2,2025-02-18_13h05.42.217,comp,2024.2.4,None,2025-02-18 13h06.04.720222 -0500,
46,46,0,critical,dhw,35.0,1.0,upper,127.0,127.0,200.0,125.0,125.0,200.0,3,4.683159351348877,None,,,,,0,0,0,0,0,46,46,49,218.0956015586853,,,,,,,,,,,,,,,,,,,,,,,,,,,,,,,,,,,,,,,,,,,,,,,,,,,,,,,,,,,,,,,,,,,,,,,,,,,,,,,,,127.0,127.0,200.0,125.0,125.0,200.0,1.0,1.1,-702,258,-480,256,-222,283,218.08100652694702,218.08108592033386,218.08485436439514,218.0956015586853,218.24524521827698,218.24524521827698,218.24524521827698,218.24524521827698,218.24524521827698,218.24524521827698,218.24524521827698,222.79411673545837,3,4.683159351348877,None,,,,,,,,,,,,,,,,,,11,2,2025-02-18_13h05.42.217,comp,2024.2.4,None,2025-02-18 13h06.04.720222 -0500,
47,47,0,critical,whd,35.0,2.1,upper,125.0,200.0,200.0,125.0,127.0,127.0,1,1.8564274311065674,None,,,,,0,0,0,0,0,47,47,37,222.8099820613861,,,,,,,,,,,,,,,,,,,,,,,,,,,,,,,,,,,,,,,,,,,,,,,,,,,,,,,,,,,,,,,,,,,,,,,,,,,,,,,,,125.0,200.0,200.0,125.0,127.0,127.0,2.1,2.11,-258,274,0,258,222,-264,222.79559993743896,222.79567790031433,222.79889965057373,222.8099820613861,222.9589912891388,222.9589912891388,222.9589912891388,222.9589912891388,222.9589912891388,222.9589912891388,222.9589912891388,224.68080925941467,1,1.8564274311065674,None,,,,,,,,,,,,,,,,,,11,2,2025-02-18_13h05.42.217,comp,2024.2.4,None,2025-02-18 13h06.04.720222 -0500,
48,48,0,critical,dwh,35.0,1.0,lower,70.0,70.0,57.0,133.0,133.0,57.0,2,1.921400547027588,None,,,,,0,0,0,0,0,48,48,60,224.69710063934326,,,,,,,,,,,,,,,,,,,,,,,,,,,,,,,,,,,,,,,,,,,,,,,,,,,,,,,,,,,,,,,,,,,,,,,,,,,,,,,,,70.0,70.0,57.0,133.0,133.0,57.0,1.0,1.1,-678,273,-480,258,-289,259,224.68235683441162,224.682434797287,224.6858687400818,224.69710063934326,224.84656763076782,224.84656763076782,224.84656763076782,224.84656763076782,224.84656763076782,224.84656763076782,224.84656763076782,226.63196539878845,2,1.921400547027588,None,,,,,,,,,,,,,,,,,,11,2,2025-02-18_13h05.42.217,comp,2024.2.4,None,2025-02-18 13h06.04.720222 -0500,
49,49,0,filler_square,None,None,None,None,None,None,None,None,None,None,3,2.4910402297973633,None,,,,,0,0,0,0,0,49,49,182,226.64832210540771,,,,,,,,,,,,,,,,,,,,,,,,,,,,,,,,,,,,,,,,,,,,,,,,,,,,,,,,,,,,,,,,,,,,,,,,,,,,,,,,,66.68109926639761,58.26476716909185,60.23370641690673,66.4584293509936,69.3423734260905,69.3423734260905,1.0,1.2,-158,4,0,16,164,-9,226.63409614562988,226.6341791152954,226.63793540000916,226.64832210540771,226.79462814331055,226.79462814331055,226.79462814331055,226.79462814331055,226.79462814331055,226.79462814331055,226.79462814331055,229.14769339561462,3,2.4910402297973633,None,,,,,,,,,,,,,,,,,,11,2,2025-02-18_13h05.42.217,comp,2024.2.4,None,2025-02-18 13h06.04.720222 -0500,
50,50,0,critical,hwd,20.0,2.1,upper,200.0,125.0,125.0,200.0,141.0,141.0,1,7.027799367904663,None,,,,,0,0,0,0,0,50,50,19,229.16722083091736,,,,,,,,,,,,,,,,,,,,,,,,,,,,,,,,,,,,,,,,,,,,,,,,,,,,,,,,,,,,,,,,,,,,,,,,,,,,,,,,,200.0,125.0,125.0,200.0,141.0,141.0,2.1,2.11,-258,290,0,278,266,-276,229.14938139915466,229.14945936203003,229.15297150611877,229.16722083091736,229.3121178150177,229.3121178150177,229.3121178150177,229.3121178150177,229.3121178150177,229.3121178150177,229.3121178150177,236.2013018131256,1,7.027799367904663,None,,,,,,,,,,,,,,,,,,11,2,2025-02-18_13h05.42.217,comp,2024.2.4,None,2025-02-18 13h06.04.720222 -0500,
51,51,0,critical,hwd,35.0,2.1,lower,133.0,57.0,57.0,133.0,70.0,70.0,2,2.0518410205841064,None,,,,,0,0,0,0,0,51,51,40,236.22263717651367,,,,,,,,,,,,,,,,,,,,,,,,,,,,,,,,,,,,,,,,,,,,,,,,,,,,,,,,,,,,,,,,,,,,,,,,,,,,,,,,,133.0,57.0,57.0,133.0,70.0,70.0,2.1,2.11,-191,267,0,269,198,-253,236.20302510261536,236.20311045646667,236.2069170475006,236.22263717651367,236.3690104484558,236.3690104484558,236.3690104484558,236.3690104484558,236.3690104484558,236.3690104484558,236.3690104484558,238.2835738658905,2,2.0518410205841064,None,,,,,,,,,,,,,,,,,,11,2,2025-02-18_13h05.42.217,comp,2024.2.4,None,2025-02-18 13h06.04.720222 -0500,
52,52,0,filler_random,None,None,None,None,None,None,None,None,None,None,2,1.5113906860351562,None,,,,,0,0,0,0,0,52,52,155,238.2999849319458,,,,,,,,,,,,,,,,,,,,,,,,,,,,,,,,,,,,,,,,,,,,,,,,,,,,,,,,,,,,,,,,,,,,,,,,,,,,,,,,,84.78907516887882,88.37855287274805,127.30833509077716,150.1302120092147,133.53586468882395,128.83699697873072,3.0,3.1,-215,266,0,17,235,-277,238.28547382354736,238.28559041023254,238.28905820846558,238.2999849319458,238.45699644088745,238.45699644088745,238.45699644088745,238.45699644088745,238.45699644088745,238.45699644088745,238.45699644088745,239.8180911540985,2,1.5113906860351562,None,,,,,,,,,,,,,,,,,,11,2,2025-02-18_13h05.42.217,comp,2024.2.4,None,2025-02-18 13h06.04.720222 -0500,
53,53,0,filler_random,None,None,None,None,None,None,None,None,None,None,1,1.7793676853179932,None,,,,,0,0,0,0,0,53,53,149,239.83911800384521,,,,,,,,,,,,,,,,,,,,,,,,,,,,,,,,,,,,,,,,,,,,,,,,,,,,,,,,,,,,,,,,,,,,,,,,,,,,,,,,,123.83229430621097,151.9804501565232,142.1731889443442,107.60557751850382,191.042276209622,98.4478514663733,2.1,2.11,-226,273,0,274,199,-266,239.8199667930603,239.82010626792908,239.8234269618988,239.83911800384521,239.98452496528625,239.98452496528625,239.98452496528625,239.98452496528625,239.98452496528625,239.98452496528625,239.98452496528625,241.6339282989502,1,1.7793676853179932,None,,,,,,,,,,,,,,,,,,11,2,2025-02-18_13h05.42.217,comp,2024.2.4,None,2025-02-18 13h06.04.720222 -0500,
54,54,0,filler_square,None,None,None,None,None,None,None,None,None,None,2,1.8400001525878906,None,,,,,0,0,0,0,0,54,54,183,241.65045261383057,,,,,,,,,,,,,,,,,,,,,,,,,,,,,,,,,,,,,,,,,,,,,,,,,,,,,,,,,,,,,,,,,,,,,,,,,,,,,,,,,69.36824756168421,69.87827734343794,73.36676542799002,73.36676542799002,66.38496441157677,57.509243675216126,4.0,4.2,-168,-13,0,-260,161,0,241.6357123851776,241.63583517074585,241.63913798332214,241.65045261383057,241.79919528961182,241.79919528961182,241.79919528961182,241.79919528961182,241.79919528961182,241.79919528961182,241.79919528961182,243.50009608268738,2,1.8400001525878906,None,,,,,,,,,,,,,,,,,,11,2,2025-02-18_13h05.42.217,comp,2024.2.4,None,2025-02-18 13h06.04.720222 -0500,
55,55,0,critical,whd,20.0,3.0,lower,57.0,133.0,133.0,57.0,78.0,78.0,2,3.2232935428619385,None,,,,,0,0,0,0,0,55,55,92,243.51528191566467,,,,,,,,,,,,,,,,,,,,,,,,,,,,,,,,,,,,,,,,,,,,,,,,,,,,,,,,,,,,,,,,,,,,,,,,,,,,,,,,,57.0,133.0,133.0,57.0,78.0,78.0,3.0,3.2,-191,-282,0,7,164,255,243.50153374671936,243.50161337852478,243.5045292377472,243.51528191566467,243.66702485084534,243.66702485084534,243.66702485084534,243.66702485084534,243.66702485084534,243.66702485084534,243.66702485084534,246.74310040473938,2,3.2232935428619385,None,,,,,,,,,,,,,,,,,,11,2,2025-02-18_13h05.42.217,comp,2024.2.4,None,2025-02-18 13h06.04.720222 -0500,
56,56,0,critical,hdw,20.0,2.1,lower,133.0,57.0,78.0,78.0,57.0,133.0,3,3.0200631618499756,None,,,,,0,0,0,0,0,56,56,22,246.76085686683655,,,,,,,,,,,,,,,,,,,,,,,,,,,,,,,,,,,,,,,,,,,,,,,,,,,,,,,,,,,,,,,,,,,,,,,,,,,,,,,,,133.0,57.0,78.0,78.0,57.0,133.0,2.1,2.12,-164,-276,0,-281,202,280,246.74462223052979,246.7447052001953,246.74766159057617,246.76085686683655,246.90216279029846,246.90216279029846,246.90216279029846,246.90216279029846,246.90216279029846,246.90216279029846,246.90216279029846,249.7875461578369,3,3.0200631618499756,None,,,,,,,,,,,,,,,,,,11,2,2025-02-18_13h05.42.217,comp,2024.2.4,None,2025-02-18 13h06.04.720222 -0500,
57,57,0,critical,hdw,35.0,2.1,upper,200.0,125.0,127.0,127.0,125.0,200.0,1,1.077547311782837,None,,,,,0,0,0,0,0,57,57,45,249.80552172660828,,,,,,,,,,,,,,,,,,,,,,,,,,,,,,,,,,,,,,,,,,,,,,,,,,,,,,,,,,,,,,,,,,,,,,,,,,,,,,,,,200.0,125.0,127.0,127.0,125.0,200.0,2.1,2.11,-222,287,0,274,260,-271,249.78904008865356,249.7891194820404,249.79236698150635,249.80552172660828,249.95386481285095,249.95386481285095,249.95386481285095,249.95386481285095,249.95386481285095,249.95386481285095,249.95386481285095,250.88823437690735,1,1.077547311782837,None,,,,,,,,,,,,,,,,,,11,2,2025-02-18_13h05.42.217,comp,2024.2.4,None,2025-02-18 13h06.04.720222 -0500,
58,58,0,critical,hwd,35.0,1.0,lower,133.0,57.0,57.0,133.0,70.0,70.0,1,1.8748676776885986,None,,,,,0,0,0,0,0,58,58,96,250.90422821044922,,,,,,,,,,,,,,,,,,,,,,,,,,,,,,,,,,,,,,,,,,,,,,,,,,,,,,,,,,,,,,,,,,,,,,,,,,,,,,,,,133.0,57.0,57.0,133.0,70.0,70.0,1.0,1.2,-191,-18,0,20,198,10,250.8898274898529,250.88990569114685,250.8933973312378,250.90422821044922,251.05509233474731,251.05509233474731,251.05509233474731,251.05509233474731,251.05509233474731,251.05509233474731,251.05509233474731,252.7884283065796,1,1.8748676776885986,None,,,,,,,,,,,,,,,,,,11,2,2025-02-18_13h05.42.217,comp,2024.2.4,None,2025-02-18 13h06.04.720222 -0500,
59,59,0,catch,None,None,None,None,None,None,None,None,None,None,2,0.8767304420471191,None,,,,,0,0,0,0,0,59,59,123,252.8062036037445,,,,,,,,,,,,,,,,,,,,,,,,,,,,,,,,,,,,,,,,,,,,,,,,,,,,,,,,,,,,,,,,,,,,,,,,,,,,,,,,,77,113,161,164,80,110,4.0,4.1,-234,-273,0,0,233,-284,252.79033160209656,252.79041481018066,252.793621301651,252.8062036037445,252.95901703834534,252.95901703834534,252.95901703834534,252.95901703834534,252.95901703834534,252.95901703834534,252.95901703834534,253.68893337249756,2,0.8767304420471191,None,,,,,,,,,,,,,,,,,,11,2,2025-02-18_13h05.42.217,comp,2024.2.4,None,2025-02-18 13h06.04.720222 -0500,
60,60,0,critical,wdh,20.0,3.0,lower,57.0,133.0,78.0,78.0,133.0,57.0,3,1.8115057945251465,None,,,,,0,0,0,0,0,60,60,80,253.70493865013123,,,,,,,,,,,,,,,,,,,,,,,,,,,,,,,,,,,,,,,,,,,,,,,,,,,,,,,,,,,,,,,,,,,,,,,,,,,,,,,,,57.0,133.0,78.0,78.0,133.0,57.0,3.0,3.1,-202,283,0,-17,164,-270,253.69043588638306,253.69051599502563,253.69381141662598,253.70493865013123,253.85392594337463,253.85392594337463,253.85392594337463,253.85392594337463,253.85392594337463,253.85392594337463,253.85392594337463,255.5213348865509,3,1.8115057945251465,None,,,,,,,,,,,,,,,,,,11,2,2025-02-18_13h05.42.217,comp,2024.2.4,None,2025-02-18 13h06.04.720222 -0500,
61,61,0,filler_random,None,None,None,None,None,None,None,None,None,None,2,0.7750363349914551,None,,,,,0,0,0,0,0,61,61,151,255.54172205924988,,,,,,,,,,,,,,,,,,,,,,,,,,,,,,,,,,,,,,,,,,,,,,,,,,,,,,,,,,,,,,,,,,,,,,,,,,,,,,,,,79.47138523211886,125.54868059339218,197.79386902595039,169.5851860631255,60.30865797671486,110.67241181637735,3.0,3.1,-244,276,0,15,236,-268,255.52303194999695,255.52310919761658,255.5263421535492,255.54172205924988,255.68906378746033,255.68906378746033,255.68906378746033,255.68906378746033,255.68906378746033,255.68906378746033,255.68906378746033,256.32164478302,2,0.7750363349914551,None,,,,,,,,,,,,,,,,,,11,2,2025-02-18_13h05.42.217,comp,2024.2.4,None,2025-02-18 13h06.04.720222 -0500,
62,62,0,critical,hwd,20.0,3.0,upper,200.0,125.0,125.0,200.0,141.0,141.0,2,1.1456546783447266,None,,,,,0,0,0,0,0,62,62,105,256.33764028549194,,,,,,,,,,,,,,,,,,,,,,,,,,,,,,,,,,,,,,,,,,,,,,,,,,,,,,,,,,,,,,,,,,,,,,,,,,,,,,,,,200.0,125.0,125.0,200.0,141.0,141.0,3.0,3.1,-258,289,0,8,266,-272,256.3231887817383,256.32326674461365,256.3264539241791,256.33764028549194,256.4946358203888,256.4946358203888,256.4946358203888,256.4946358203888,256.4946358203888,256.4946358203888,256.4946358203888,257.48876333236694,2,1.1456546783447266,None,,,,,,,,,,,,,,,,,,11,2,2025-02-18_13h05.42.217,comp,2024.2.4,None,2025-02-18 13h06.04.720222 -0500,
63,63,0,critical,wdh,20.0,2.1,lower,57.0,133.0,78.0,78.0,133.0,57.0,1,2.893232822418213,None,,,,,0,0,0,0,0,63,63,10,257.5094139575958,,,,,,,,,,,,,,,,,,,,,,,,,,,,,,,,,,,,,,,,,,,,,,,,,,,,,,,,,,,,,,,,,,,,,,,,,,,,,,,,,57.0,133.0,78.0,78.0,133.0,57.0,2.1,2.11,-202,271,0,284,164,-258,257.4903106689453,257.4903919696808,257.49366879463196,257.5094139575958,257.6566905975342,257.6566905975342,257.6566905975342,257.6566905975342,257.6566905975342,257.6566905975342,257.6566905975342,260.4196140766144,1,2.893232822418213,None,,,,,,,,,,,,,,,,,,11,2,2025-02-18_13h05.42.217,comp,2024.2.4,None,2025-02-18 13h06.04.720222 -0500,
64,64,0,critical,whd,35.0,1.0,lower,57.0,133.0,133.0,57.0,70.0,70.0,1,3.9911537170410156,None,,,,,0,0,0,0,0,64,64,84,260.43588423728943,,,,,,,,,,,,,,,,,,,,,,,,,,,,,,,,,,,,,,,,,,,,,,,,,,,,,,,,,,,,,,,,,,,,,,,,,,,,,,,,,57.0,133.0,133.0,57.0,70.0,70.0,1.0,1.2,-191,-1,0,7,160,-12,260.42118215560913,260.4212603569031,260.42460584640503,260.43588423728943,260.594331741333,260.594331741333,260.594331741333,260.594331741333,260.594331741333,260.594331741333,260.594331741333,264.4292776584625,1,3.9911537170410156,None,,,,,,,,,,,,,,,,,,11,2,2025-02-18_13h05.42.217,comp,2024.2.4,None,2025-02-18 13h06.04.720222 -0500,
65,65,0,filler_random,None,None,None,None,None,None,None,None,None,None,3,3.5885400772094727,None,,,,,0,0,0,0,0,65,65,167,264.4459710121155,,,,,,,,,,,,,,,,,,,,,,,,,,,,,,,,,,,,,,,,,,,,,,,,,,,,,,,,,,,,,,,,,,,,,,,,,,,,,,,,,188.67858257487717,103.11431831132441,164.32454555204663,90.82599929457311,146.98899355307844,108.39093805377208,3.0,3.1,-193,250,0,-19,196,-271,264.43116450309753,264.43124985694885,264.4343190193176,264.4459710121155,264.5936198234558,264.5936198234558,264.5936198234558,264.5936198234558,264.5936198234558,264.5936198234558,264.5936198234558,268.0470118522644,3,3.5885400772094727,None,,,,,,,,,,,,,,,,,,11,2,2025-02-18_13h05.42.217,comp,2024.2.4,None,2025-02-18 13h06.04.720222 -0500,
66,66,0,filler_square,None,None,None,None,None,None,None,None,None,None,1,1.6235098838806152,None,,,,,0,0,0,0,0,66,66,190,268.06782579421997,,,,,,,,,,,,,,,,,,,,,,,,,,,,,,,,,,,,,,,,,,,,,,,,,,,,,,,,,,,,,,,,,,,,,,,,,,,,,,,,,168.16833980298247,168.16833980298247,70.77385526448892,90.0715044949008,167.7901879314263,106.88334553292177,3.0,3.2,-225,-275,0,-19,194,271,268.04901790618896,268.0491063594818,268.0522310733795,268.06782579421997,268.20984077453613,268.20984077453613,268.20984077453613,268.20984077453613,268.20984077453613,268.20984077453613,268.20984077453613,269.6996829509735,1,1.6235098838806152,None,,,,,,,,,,,,,,,,,,11,2,2025-02-18_13h05.42.217,comp,2024.2.4,None,2025-02-18 13h06.04.720222 -0500,
67,67,0,critical,hwd,20.0,2.1,lower,133.0,57.0,57.0,133.0,78.0,78.0,2,2.9597673416137695,None,,,,,0,0,0,0,0,67,67,18,269.71499943733215,,,,,,,,,,,,,,,,,,,,,,,,,,,,,,,,,,,,,,,,,,,,,,,,,,,,,,,,,,,,,,,,,,,,,,,,,,,,,,,,,133.0,57.0,57.0,133.0,78.0,78.0,2.1,2.12,-191,-271,0,-267,202,282,269.70121574401855,269.70129346847534,269.70420479774475,269.71499943733215,269.8604323863983,269.8604323863983,269.8604323863983,269.8604323863983,269.8604323863983,269.8604323863983,269.8604323863983,272.6791489124298,2,2.9597673416137695,None,,,,,,,,,,,,,,,,,,11,2,2025-02-18_13h05.42.217,comp,2024.2.4,None,2025-02-18 13h06.04.720222 -0500,
68,68,0,critical,hdw,35.0,4.0,upper,200.0,125.0,127.0,127.0,125.0,200.0,3,3.5148708820343018,None,,,,,0,0,0,0,0,68,68,113,272.6957769393921,,,,,,,,,,,,,,,,,,,,,,,,,,,,,,,,,,,,,,,,,,,,,,,,,,,,,,,,,,,,,,,,,,,,,,,,,,,,,,,,,200.0,125.0,127.0,127.0,125.0,200.0,4.0,4.1,-222,-262,0,-14,260,-262,272.68088960647583,272.68102264404297,272.68500876426697,272.6957769393921,272.8446617126465,272.8446617126465,272.8446617126465,272.8446617126465,272.8446617126465,272.8446617126465,272.8446617126465,276.2288820743561,3,3.5148708820343018,None,,,,,,,,,,,,,,,,,,11,2,2025-02-18_13h05.42.217,comp,2024.2.4,None,2025-02-18 13h06.04.720222 -0500,
69,69,0,filler_random,None,None,None,None,None,None,None,None,None,None,2,1.4230995178222656,None,,,,,0,0,0,0,0,69,69,146,276.245108127594,,,,,,,,,,,,,,,,,,,,,,,,,,,,,,,,,,,,,,,,,,,,,,,,,,,,,,,,,,,,,,,,,,,,,,,,,,,,,,,,,102.28887828024169,107.46491958323577,195.9747371289806,170.14182859699943,98.6279839510592,138.32361755961853,2.1,2.12,-235,-289,0,-253,250,280,276.23060870170593,276.2306888103485,276.23480010032654,276.245108127594,276.39834332466125,276.39834332466125,276.39834332466125,276.39834332466125,276.39834332466125,276.39834332466125,276.39834332466125,277.67410922050476,2,1.4230995178222656,None,,,,,,,,,,,,,,,,,,11,2,2025-02-18_13h05.42.217,comp,2024.2.4,None,2025-02-18 13h06.04.720222 -0500,
70,70,0,filler_random,None,None,None,None,None,None,None,None,None,None,2,1.1109955310821533,None,,,,,0,0,0,0,0,70,70,139,277.6925127506256,,,,,,,,,,,,,,,,,,,,,,,,,,,,,,,,,,,,,,,,,,,,,,,,,,,,,,,,,,,,,,,,,,,,,,,,,,,,,,,,,194.14279680440865,143.33904692690868,176.06052207583727,149.50361847168094,138.13739987511684,109.54287593513203,2.2,2.22,-242,262,0,-286,226,-256,277.6758325099945,277.67591738700867,277.6788983345032,277.6925127506256,277.8302655220032,277.8302655220032,277.8302655220032,277.8302655220032,277.8302655220032,277.8302655220032,277.8302655220032,278.81646847724915,2,1.1109955310821533,None,,,,,,,,,,,,,,,,,,11,2,2025-02-18_13h05.42.217,comp,2024.2.4,None,2025-02-18 13h06.04.720222 -0500,
71,71,0,filler_square,None,None,None,None,None,None,None,None,None,None,1,1.2738769054412842,None,,,,,0,0,0,0,0,71,71,196,278.8325924873352,,,,,,,,,,,,,,,,,,,,,,,,,,,,,,,,,,,,,,,,,,,,,,,,,,,,,,,,,,,,,,,,,,,,,,,,,,,,,,,,,103.24237285071987,103.24237285071987,86.72450126995794,67.92633245851414,87.05793080268404,60.195070051373065,4.0,4.1,-182,-287,0,-17,160,-287,278.8186385631561,278.8187258243561,278.8219406604767,278.8325924873352,278.9794135093689,278.9794135093689,278.9794135093689,278.9794135093689,278.9794135093689,278.9794135093689,278.9794135093689,280.1170964241028,1,1.2738769054412842,None,,,,,,,,,,,,,,,,,,11,2,2025-02-18_13h05.42.217,comp,2024.2.4,None,2025-02-18 13h06.04.720222 -0500,
72,72,0,catch,None,None,None,None,None,None,None,None,None,None,2,0.9324684143066406,None,,,,,0,0,0,0,0,72,72,126,280.1340956687927,,,,,,,,,,,,,,,,,,,,,,,,,,,,,,,,,,,,,,,,,,,,,,,,,,,,,,,,,,,,,,,,,,,,,,,,,,,,,,,,,70,120,132,193,107,83,2.2,2.22,-252,280,0,-267,234,-276,280.11950159072876,280.1195845603943,280.1230294704437,280.1340956687927,280.2802782058716,280.2802782058716,280.2802782058716,280.2802782058716,280.2802782058716,280.2802782058716,280.2802782058716,281.0791015625,2,0.9324684143066406,None,,,,,,,,,,,,,,,,,,11,2,2025-02-18_13h05.42.217,comp,2024.2.4,None,2025-02-18 13h06.04.720222 -0500,
73,73,0,filler_random,None,None,None,None,None,None,None,None,None,None,1,1.1718783378601074,None,,,,,0,0,0,0,0,73,73,144,281.0949068069458,,,,,,,,,,,,,,,,,,,,,,,,,,,,,,,,,,,,,,,,,,,,,,,,,,,,,,,,,,,,,,,,,,,,,,,,,,,,,,,,,185.66604734307168,199.87691105552284,90.55861840727879,190.38957691971578,67.06446586617403,85.5249788813345,2.2,2.21,-291,-287,0,260,234,278,281.0808742046356,281.0809543132782,281.08419489860535,281.0949068069458,281.2380676269531,281.2380676269531,281.2380676269531,281.2380676269531,281.2380676269531,281.2380676269531,281.2380676269531,282.28096628189087,1,1.1718783378601074,None,,,,,,,,,,,,,,,,,,11,2,2025-02-18_13h05.42.217,comp,2024.2.4,None,2025-02-18 13h06.04.720222 -0500,
74,74,0,critical,dhw,35.0,2.1,upper,127.0,127.0,200.0,125.0,125.0,200.0,3,2.1786105632781982,None,,,,,0,0,0,0,0,74,74,25,282.2965395450592,,,,,,,,,,,,,,,,,,,,,,,,,,,,,,,,,,,,,,,,,,,,,,,,,,,,,,,,,,,,,,,,,,,,,,,,,,,,,,,,,127.0,127.0,200.0,125.0,125.0,200.0,2.1,2.12,-222,-282,0,-285,258,275,282.28250455856323,282.282586812973,282.2861440181732,282.2965395450592,282.44815969467163,282.44815969467163,282.44815969467163,282.44815969467163,282.44815969467163,282.44815969467163,282.44815969467163,284.4827744960785,3,2.1786105632781982,None,,,,,,,,,,,,,,,,,,11,2,2025-02-18_13h05.42.217,comp,2024.2.4,None,2025-02-18 13h06.04.720222 -0500,
75,75,0,filler_square,None,None,None,None,None,None,None,None,None,None,1,0.871563196182251,None,,,,,0,0,0,0,0,75,75,200,284.4995696544647,,,,,,,,,,,,,,,,,,,,,,,,,,,,,,,,,,,,,,,,,,,,,,,,,,,,,,,,,,,,,,,,,,,,,,,,,,,,,,,,,181.697042499305,181.697042499305,65.3601695358334,80.47074674340476,175.6950682090169,77.31310122507756,4.0,4.1,-227,-289,0,15,175,-263,284.48484349250793,284.4849317073822,284.48862195014954,284.4995696544647,284.6371111869812,284.6371111869812,284.6371111869812,284.6371111869812,284.6371111869812,284.6371111869812,284.6371111869812,285.3843116760254,1,0.871563196182251,None,,,,,,,,,,,,,,,,,,11,2,2025-02-18_13h05.42.217,comp,2024.2.4,None,2025-02-18 13h06.04.720222 -0500,
76,76,0,critical,wdh,35.0,1.0,lower,57.0,133.0,70.0,70.0,133.0,57.0,1,2.034773826599121,None,,,,,0,0,0,0,0,76,76,72,285.40001368522644,,,,,,,,,,,,,,,,,,,,,,,,,,,,,,,,,,,,,,,,,,,,,,,,,,,,,,,,,,,,,,,,,,,,,,,,,,,,,,,,,57.0,133.0,70.0,70.0,133.0,57.0,1.0,1.2,-198,9,0,9,160,1,285.3858971595764,285.386029958725,285.3895399570465,285.40001368522644,285.5491373538971,285.5491373538971,285.5491373538971,285.5491373538971,285.5491373538971,285.5491373538971,285.5491373538971,287.45087480545044,1,2.034773826599121,None,,,,,,,,,,,,,,,,,,11,2,2025-02-18_13h05.42.217,comp,2024.2.4,None,2025-02-18 13h06.04.720222 -0500,
77,77,0,filler_square,None,None,None,None,None,None,None,None,None,None,3,2.4315383434295654,None,,,,,0,0,0,0,0,77,77,189,287.46698927879333,,,,,,,,,,,,,,,,,,,,,,,,,,,,,,,,,,,,,,,,,,,,,,,,,,,,,,,,,,,,,,,,,,,,,,,,,,,,,,,,,71.2969146686621,64.65714300109457,60.48955204894532,68.8932328315044,74.78208259489224,74.78208259489224,2.1,2.11,-163,269,0,273,168,-281,287.4529519081116,287.45308566093445,287.4566192626953,287.46698927879333,287.62144136428833,287.62144136428833,287.62144136428833,287.62144136428833,287.62144136428833,287.62144136428833,287.62144136428833,289.90058040618896,3,2.4315383434295654,None,,,,,,,,,,,,,,,,,,11,2,2025-02-18_13h05.42.217,comp,2024.2.4,None,2025-02-18 13h06.04.720222 -0500,
78,78,0,critical,dhw,35.0,2.1,lower,70.0,70.0,133.0,57.0,57.0,133.0,2,3.4302148818969727,None,,,,,0,0,0,0,0,78,78,0,289.91716837882996,,,,,,,,,,,,,,,,,,,,,,,,,,,,,,,,,,,,,,,,,,,,,,,,,,,,,,,,,,,,,,,,,,,,,,,,,,,,,,,,,70.0,70.0,133.0,57.0,57.0,133.0,2.1,2.12,-160,-261,0,-282,191,285,289.902179479599,289.90226435661316,289.90636467933655,289.91716837882996,290.068621635437,290.068621635437,290.068621635437,290.068621635437,290.068621635437,290.068621635437,290.068621635437,293.3559527397156,2,3.4302148818969727,None,,,,,,,,,,,,,,,,,,11,2,2025-02-18_13h05.42.217,comp,2024.2.4,None,2025-02-18 13h06.04.720222 -0500,
79,79,0,critical,hwd,35.0,4.0,upper,200.0,125.0,125.0,200.0,127.0,127.0,2,5.362625360488892,None,,,,,0,0,0,0,0,79,79,101,293.3760883808136,,,,,,,,,,,,,,,,,,,,,,,,,,,,,,,,,,,,,,,,,,,,,,,,,,,,,,,,,,,,,,,,,,,,,,,,,,,,,,,,,200.0,125.0,125.0,200.0,127.0,127.0,4.0,4.2,-258,2,0,-271,260,14,293.3574957847595,293.357577085495,293.3606014251709,293.3760883808136,293.5181550979614,293.5181550979614,293.5181550979614,293.5181550979614,293.5181550979614,293.5181550979614,293.5181550979614,298.7520110607147,2,5.362625360488892,None,,,,,,,,,,,,,,,,,,11,2,2025-02-18_13h05.42.217,comp,2024.2.4,None,2025-02-18 13h06.04.720222 -0500,
80,80,0,critical,dhw,20.0,2.1,lower,78.0,78.0,133.0,57.0,57.0,133.0,3,4.13564133644104,None,,,,,0,0,0,0,0,80,80,2,298.7711970806122,,,,,,,,,,,,,,,,,,,,,,,,,,,,,,,,,,,,,,,,,,,,,,,,,,,,,,,,,,,,,,,,,,,,,,,,,,,,,,,,,78.0,78.0,133.0,57.0,57.0,133.0,2.1,2.11,-164,259,0,271,191,-272,298.7535707950592,298.75365018844604,298.75706005096436,298.7711970806122,298.9065065383911,298.9065065383911,298.9065065383911,298.9065065383911,298.9065065383911,298.9065065383911,298.9065065383911,302.9103355407715,3,4.13564133644104,None,,,,,,,,,,,,,,,,,,11,2,2025-02-18_13h05.42.217,comp,2024.2.4,None,2025-02-18 13h06.04.720222 -0500,
81,81,0,filler_random,None,None,None,None,None,None,None,None,None,None,2,1.367750644683838,None,,,,,0,0,0,0,0,81,81,157,302.9308726787567,,,,,,,,,,,,,,,,,,,,,,,,,,,,,,,,,,,,,,,,,,,,,,,,,,,,,,,,,,,,,,,,,,,,,,,,,,,,,,,,,101.61851068133849,85.79363337184205,172.4326845364805,175.85393574548243,90.73710904809651,102.27833634111869,2.1,2.12,-227,-274,0,-275,235,288,302.91207456588745,302.9121558666229,302.9151313304901,302.9308726787567,303.0706012248993,303.0706012248993,303.0706012248993,303.0706012248993,303.0706012248993,303.0706012248993,303.0706012248993,304.3125596046448,2,1.367750644683838,None,,,,,,,,,,,,,,,,,,11,2,2025-02-18_13h05.42.217,comp,2024.2.4,None,2025-02-18 13h06.04.720222 -0500,
82,82,0,filler_random,None,None,None,None,None,None,None,None,None,None,1,1.461479663848877,None,,,,,0,0,0,0,0,82,82,169,304.33313369750977,,,,,,,,,,,,,,,,,,,,,,,,,,,,,,,,,,,,,,,,,,,,,,,,,,,,,,,,,,,,,,,,,,,,,,,,,,,,,,,,,139.54090768894162,141.66397427006933,168.97937405881862,61.704802225771815,86.09992154261052,123.69701441289381,1.0,1.2,-198,12,0,-15,189,-7,304.3142852783203,304.3143677711487,304.31782150268555,304.33313369750977,304.4719259738922,304.4719259738922,304.4719259738922,304.4719259738922,304.4719259738922,304.4719259738922,304.4719259738922,305.8075695037842,1,1.461479663848877,None,,,,,,,,,,,,,,,,,,11,2,2025-02-18_13h05.42.217,comp,2024.2.4,None,2025-02-18 13h06.04.720222 -0500,
83,83,0,critical,hwd,20.0,2.1,upper,200.0,125.0,125.0,200.0,141.0,141.0,2,3.2196218967437744,None,,,,,0,0,0,0,0,83,83,43,305.82356119155884,,,,,,,,,,,,,,,,,,,,,,,,,,,,,,,,,,,,,,,,,,,,,,,,,,,,,,,,,,,,,,,,,,,,,,,,,,,,,,,,,200.0,125.0,125.0,200.0,141.0,141.0,2.1,2.12,-258,-280,0,-286,266,267,305.8093512058258,305.80943512916565,305.81247901916504,305.82356119155884,305.96983575820923,305.96983575820923,305.96983575820923,305.96983575820923,305.96983575820923,305.96983575820923,305.96983575820923,309.0512013435364,2,3.2196218967437744,None,,,,,,,,,,,,,,,,,,11,2,2025-02-18_13h05.42.217,comp,2024.2.4,None,2025-02-18 13h06.04.720222 -0500,
84,84,0,filler_square,None,None,None,None,None,None,None,None,None,None,3,1.8313603401184082,None,,,,,0,0,0,0,0,84,84,181,309.06905913352966,,,,,,,,,,,,,,,,,,,,,,,,,,,,,,,,,,,,,,,,,,,,,,,,,,,,,,,,,,,,,,,,,,,,,,,,,,,,,,,,,72.80436094930344,100.23572548706647,81.48223055365423,83.6527122120742,111.07138170963337,111.07138170963337,2.1,2.12,-188,-286,0,-253,193,264,309.0529308319092,309.0530116558075,309.05593037605286,309.06905913352966,309.2063820362091,309.2063820362091,309.2063820362091,309.2063820362091,309.2063820362091,309.2063820362091,309.2063820362091,310.9029142856598,3,1.8313603401184082,None,,,,,,,,,,,,,,,,,,11,2,2025-02-18_13h05.42.217,comp,2024.2.4,None,2025-02-18 13h06.04.720222 -0500,
85,85,0,catch,None,None,None,None,None,None,None,None,None,None,3,0.8736674785614014,None,,,,,0,0,0,0,0,85,85,125,310.9208791255951,,,,,,,,,,,,,,,,,,,,,,,,,,,,,,,,,,,,,,,,,,,,,,,,,,,,,,,,,,,,,,,,,,,,,,,,,,,,,,,,,129,61,104,86,174,151,2.1,2.12,-170,-287,0,-254,214,276,310.9048683643341,310.90494871139526,310.9078919887543,310.9208791255951,311.0696084499359,311.0696084499359,311.0696084499359,311.0696084499359,311.0696084499359,311.0696084499359,311.0696084499359,311.8073751926422,3,0.8736674785614014,None,,,,,,,,,,,,,,,,,,11,2,2025-02-18_13h05.42.217,comp,2024.2.4,None,2025-02-18 13h06.04.720222 -0500,
86,86,0,critical,dwh,35.0,2.1,upper,127.0,127.0,125.0,200.0,200.0,125.0,2,2.6333389282226562,None,,,,,0,0,0,0,0,86,86,29,311.8252000808716,,,,,,,,,,,,,,,,,,,,,,,,,,,,,,,,,,,,,,,,,,,,,,,,,,,,,,,,,,,,,,,,,,,,,,,,,,,,,,,,,127.0,127.0,125.0,200.0,200.0,125.0,2.1,2.12,-260,-278,0,-265,258,267,311.8089165687561,311.8089973926544,311.8122069835663,311.8252000808716,311.9733920097351,311.9733920097351,311.9733920097351,311.9733920097351,311.9733920097351,311.9733920097351,311.9733920097351,314.47307443618774,2,2.6333389282226562,None,,,,,,,,,,,,,,,,,,11,2,2025-02-18_13h05.42.217,comp,2024.2.4,None,2025-02-18 13h06.04.720222 -0500,
87,87,0,critical,wdh,20.0,1.0,lower,57.0,133.0,78.0,78.0,133.0,57.0,1,5.801735162734985,None,,,,,0,0,0,0,0,87,87,78,314.48915576934814,,,,,,,,,,,,,,,,,,,,,,,,,,,,,,,,,,,,,,,,,,,,,,,,,,,,,,,,,,,,,,,,,,,,,,,,,,,,,,,,,57.0,133.0,78.0,78.0,133.0,57.0,1.0,1.3,278,-267,480,-275,644,-251,314.4745683670044,314.474645614624,314.47780895233154,314.48915576934814,314.6297903060913,314.6297903060913,314.6297903060913,314.6297903060913,314.6297903060913,314.6297903060913,314.6297903060913,320.29551696777344,1,5.801735162734985,None,,,,,,,,,,,,,,,,,,11,2,2025-02-18_13h05.42.217,comp,2024.2.4,None,2025-02-18 13h06.04.720222 -0500,
88,88,0,critical,hdw,20.0,1.0,lower,133.0,57.0,78.0,78.0,57.0,133.0,3,2.216535806655884,None,,,,,0,0,0,0,0,88,88,114,320.3140215873718,,,,,,,,,,,,,,,,,,,,,,,,,,,,,,,,,,,,,,,,,,,,,,,,,,,,,,,,,,,,,,,,,,,,,,,,,,,,,,,,,133.0,57.0,78.0,78.0,57.0,133.0,1.0,1.3,316,-271,480,-251,682,-276,320.29728078842163,320.29736375808716,320.3003160953522,320.3140215873718,320.45873379707336,320.45873379707336,320.45873379707336,320.45873379707336,320.45873379707336,320.45873379707336,320.45873379707336,322.5446801185608,3,2.216535806655884,None,,,,,,,,,,,,,,,,,,11,2,2025-02-18_13h05.42.217,comp,2024.2.4,None,2025-02-18 13h06.04.720222 -0500,
89,89,0,filler_random,None,None,None,None,None,None,None,None,None,None,1,3.961937665939331,None,,,,,0,0,0,0,0,89,89,154,322.5606803894043,,,,,,,,,,,,,,,,,,,,,,,,,,,,,,,,,,,,,,,,,,,,,,,,,,,,,,,,,,,,,,,,,,,,,,,,,,,,,,,,,159.0995512696435,198.78945625412314,161.57636981222015,173.75185838340502,113.57483884862215,84.3510930551565,3.0,3.1,-282,269,0,-15,225,-290,322.5464081764221,322.546523809433,322.5497627258301,322.5606803894043,322.7080144882202,322.7080144882202,322.7080144882202,322.7080144882202,322.7080144882202,322.7080144882202,322.7080144882202,326.534588098526,1,3.961937665939331,None,,,,,,,,,,,,,,,,,,11,2,2025-02-18_13h05.42.217,comp,2024.2.4,None,2025-02-18 13h06.04.720222 -0500,
90,90,0,filler_square,None,None,None,None,None,None,None,None,None,None,1,1.3045766353607178,None,,,,,0,0,0,0,0,90,90,179,326.55434918403625,,,,,,,,,,,,,,,,,,,,,,,,,,,,,,,,,,,,,,,,,,,,,,,,,,,,,,,,,,,,,,,,,,,,,,,,,,,,,,,,,107.67844992936955,107.67844992936955,87.81438718331746,80.67292198598503,89.8715656682426,70.77391762937364,3.0,3.1,-190,273,0,5,172,-281,326.5363688468933,326.5364480018616,326.5393896102905,326.55434918403625,326.6953821182251,326.6953821182251,326.6953821182251,326.6953821182251,326.6953821182251,326.6953821182251,326.6953821182251,327.86591386795044,1,1.3045766353607178,None,,,,,,,,,,,,,,,,,,11,2,2025-02-18_13h05.42.217,comp,2024.2.4,None,2025-02-18 13h06.04.720222 -0500,
91,91,0,critical,wdh,20.0,2.1,upper,125.0,200.0,141.0,141.0,200.0,125.0,1,2.156665802001953,None,,,,,0,0,0,0,0,91,91,11,327.88622784614563,,,,,,,,,,,,,,,,,,,,,,,,,,,,,,,,,,,,,,,,,,,,,,,,,,,,,,,,,,,,,,,,,,,,,,,,,,,,,,,,,125.0,200.0,141.0,141.0,200.0,125.0,2.1,2.12,-266,-250,0,-277,229,282,327.86749029159546,327.86757016181946,327.870543718338,327.88622784614563,328.02939438819885,328.02939438819885,328.02939438819885,328.02939438819885,328.02939438819885,328.02939438819885,328.02939438819885,330.06172132492065,1,2.156665802001953,None,,,,,,,,,,,,,,,,,,11,2,2025-02-18_13h05.42.217,comp,2024.2.4,None,2025-02-18 13h06.04.720222 -0500,
92,92,0,filler_square,None,None,None,None,None,None,None,None,None,None,1,1.900357723236084,None,,,,,0,0,0,0,0,92,92,187,330.0781407356262,,,,,,,,,,,,,,,,,,,,,,,,,,,,,,,,,,,,,,,,,,,,,,,,,,,,,,,,,,,,,,,,,,,,,,,,,,,,,,,,,150.27621981579358,150.27621981579358,120.44437171873545,134.31404705012122,95.14544611808192,83.08770664881709,2.2,2.22,-238,289,0,-286,205,-266,330.06349515914917,330.06357312202454,330.0666015148163,330.0781407356262,330.23147225379944,330.23147225379944,330.23147225379944,330.23147225379944,330.23147225379944,330.23147225379944,330.23147225379944,331.99573373794556,1,1.900357723236084,None,,,,,,,,,,,,,,,,,,11,2,2025-02-18_13h05.42.217,comp,2024.2.4,None,2025-02-18 13h06.04.720222 -0500,
93,93,0,filler_random,None,None,None,None,None,None,None,None,None,None,3,3.747699022293091,None,,,,,0,0,0,0,0,93,93,135,332.0152339935303,,,,,,,,,,,,,,,,,,,,,,,,,,,,,,,,,,,,,,,,,,,,,,,,,,,,,,,,,,,,,,,,,,,,,,,,,,,,,,,,,168.79479647490956,77.97618687789657,188.8821348336761,104.9741228317319,130.60988232160733,163.55304698160782,1.0,1.1,-667,262,-480,279,-250,258,331.99741649627686,331.9974946975708,332.00059247016907,332.0152339935303,332.1629629135132,332.1629629135132,332.1629629135132,332.1629629135132,332.1629629135132,332.1629629135132,332.1629629135132,335.76583886146545,3,3.747699022293091,None,,,,,,,,,,,,,,,,,,11,2,2025-02-18_13h05.42.217,comp,2024.2.4,None,2025-02-18 13h06.04.720222 -0500,
94,94,0,critical,hwd,20.0,1.0,lower,133.0,57.0,57.0,133.0,78.0,78.0,2,2.8848633766174316,None,,,,,0,0,0,0,0,94,94,102,335.78250193595886,,,,,,,,,,,,,,,,,,,,,,,,,,,,,,,,,,,,,,,,,,,,,,,,,,,,,,,,,,,,,,,,,,,,,,,,,,,,,,,,,133.0,57.0,57.0,133.0,78.0,78.0,1.0,1.2,-191,-10,0,4,202,4,335.7676100730896,335.7676954269409,335.77164244651794,335.78250193595886,335.9316580295563,335.9316580295563,335.9316580295563,335.9316580295563,335.9316580295563,335.9316580295563,335.9316580295563,338.67493772506714,2,2.8848633766174316,None,,,,,,,,,,,,,,,,,,11,2,2025-02-18_13h05.42.217,comp,2024.2.4,None,2025-02-18 13h06.04.720222 -0500,
95,95,0,catch,None,None,None,None,None,None,None,None,None,None,3,0.9226171970367432,None,,,,,0,0,0,0,0,95,95,127,338.6959533691406,,,,,,,,,,,,,,,,,,,,,,,,,,,,,,,,,,,,,,,,,,,,,,,,,,,,,,,,,,,,,,,,,,,,,,,,,,,,,,,,,63,127,97,93,159,166,1.0,1.2,-206,-7,0,4,226,-6,338.6770122051239,338.6771206855774,338.6803638935089,338.6959533691406,338.83698201179504,338.83698201179504,338.83698201179504,338.83698201179504,338.83698201179504,338.83698201179504,338.83698201179504,339.6340217590332,3,0.9226171970367432,None,,,,,,,,,,,,,,,,,,11,2,2025-02-18_13h05.42.217,comp,2024.2.4,None,2025-02-18 13h06.04.720222 -0500,
96,96,0,critical,hdw,20.0,2.1,upper,200.0,125.0,141.0,141.0,125.0,200.0,3,2.536585807800293,None,,,,,0,0,0,0,0,96,96,47,339.6498818397522,,,,,,,,,,,,,,,,,,,,,,,,,,,,,,,,,,,,,,,,,,,,,,,,,,,,,,,,,,,,,,,,,,,,,,,,,,,,,,,,,200.0,125.0,141.0,141.0,125.0,200.0,2.1,2.11,-229,263,0,270,266,-254,339.63566994667053,339.635803937912,339.6393129825592,339.6498818397522,339.80038475990295,339.80038475990295,339.80038475990295,339.80038475990295,339.80038475990295,339.80038475990295,339.80038475990295,342.19850635528564,3,2.536585807800293,None,,,,,,,,,,,,,,,,,,11,2,2025-02-18_13h05.42.217,comp,2024.2.4,None,2025-02-18 13h06.04.720222 -0500,
97,97,0,filler_square,None,None,None,None,None,None,None,None,None,None,1,2.180663824081421,None,,,,,0,0,0,0,0,97,97,186,342.2142815589905,,,,,,,,,,,,,,,,,,,,,,,,,,,,,,,,,,,,,,,,,,,,,,,,,,,,,,,,,,,,,,,,,,,,,,,,,,,,,,,,,72.90688104977305,72.90688104977305,71.29330987290679,68.35667645028951,67.58827382647686,64.49821889763,1.0,1.2,-167,-15,0,-14,162,-7,342.20031547546387,342.20039653778076,342.2036483287811,342.2142815589905,342.3566744327545,342.3566744327545,342.3566744327545,342.3566744327545,342.3566744327545,342.3566744327545,342.3566744327545,344.3989622592926,1,2.180663824081421,None,,,,,,,,,,,,,,,,,,11,2,2025-02-18_13h05.42.217,comp,2024.2.4,None,2025-02-18 13h06.04.720222 -0500,
98,98,0,critical,dwh,35.0,4.0,upper,127.0,127.0,125.0,200.0,200.0,125.0,2,1.3993003368377686,None,,,,,0,0,0,0,0,98,98,65,344.41923332214355,,,,,,,,,,,,,,,,,,,,,,,,,,,,,,,,,,,,,,,,,,,,,,,,,,,,,,,,,,,,,,,,,,,,,,,,,,,,,,,,,127.0,127.0,125.0,200.0,200.0,125.0,4.0,4.2,-260,-15,0,-270,258,-19,344.40044593811035,344.40052342414856,344.4036228656769,344.41923332214355,344.5563497543335,344.5563497543335,344.5563497543335,344.5563497543335,344.5563497543335,344.5563497543335,344.5563497543335,345.83470487594604,2,1.3993003368377686,None,,,,,,,,,,,,,,,,,,11,2,2025-02-18_13h05.42.217,comp,2024.2.4,None,2025-02-18 13h06.04.720222 -0500,
99,99,0,critical,hwd,35.0,3.0,lower,133.0,57.0,57.0,133.0,70.0,70.0,2,1.5327365398406982,None,,,,,0,0,0,0,0,99,99,98,345.8538963794708,,,,,,,,,,,,,,,,,,,,,,,,,,,,,,,,,,,,,,,,,,,,,,,,,,,,,,,,,,,,,,,,,,,,,,,,,,,,,,,,,133.0,57.0,57.0,133.0,70.0,70.0,3.0,3.2,-191,-267,0,3,198,257,345.83625626564026,345.83633518218994,345.8394248485565,345.8538963794708,345.99761605262756,345.99761605262756,345.99761605262756,345.99761605262756,345.99761605262756,345.99761605262756,345.99761605262756,347.40113067626953,2,1.5327365398406982,None,,,,,,,,,,,,,,,,,,11,2,2025-02-18_13h05.42.217,comp,2024.2.4,None,2025-02-18 13h06.04.720222 -0500,
100,100,0,filler_square,None,None,None,None,None,None,None,None,None,None,1,0.8011114597320557,None,,,,,0,0,0,0,0,100,100,198,347.4174268245697,,,,,,,,,,,,,,,,,,,,,,,,,,,,,,,,,,,,,,,,,,,,,,,,,,,,,,,,,,,,,,,,,,,,,,,,,,,,,,,,,137.10511813506324,137.10511813506324,62.21499093879298,62.679536418929644,88.9606885644052,115.37229373258589,4.0,4.1,-196,-284,0,-9,185,-282,347.40296816825867,347.40304732322693,347.40713691711426,347.4174268245697,347.5676095485687,347.5676095485687,347.5676095485687,347.5676095485687,347.5676095485687,347.5676095485687,347.5676095485687,348.23760747909546,1,0.8011114597320557,None,,,,,,,,,,,,,,,,,,11,2,2025-02-18_13h05.42.217,comp,2024.2.4,None,2025-02-18 13h06.04.720222 -0500,
101,101,0,critical,dwh,20.0,3.0,lower,78.0,78.0,57.0,133.0,133.0,57.0,2,0.9801509380340576,None,,,,,0,0,0,0,0,101,101,68,348.25477838516235,,,,,,,,,,,,,,,,,,,,,,,,,,,,,,,,,,,,,,,,,,,,,,,,,,,,,,,,,,,,,,,,,,,,,,,,,,,,,,,,,78.0,78.0,57.0,133.0,133.0,57.0,3.0,3.1,-202,261,0,-14,191,-258,348.23912048339844,348.2391982078552,348.24221444129944,348.25477838516235,348.4011769294739,348.4011769294739,348.4011769294739,348.4011769294739,348.4011769294739,348.4011769294739,348.4011769294739,349.24142384529114,2,0.9801509380340576,None,,,,,,,,,,,,,,,,,,11,2,2025-02-18_13h05.42.217,comp,2024.2.4,None,2025-02-18 13h06.04.720222 -0500,
102,102,0,critical,hwd,35.0,4.0,lower,133.0,57.0,57.0,133.0,70.0,70.0,2,1.4141767024993896,None,,,,,0,0,0,0,0,102,102,100,349.26044154167175,,,,,,,,,,,,,,,,,,,,,,,,,,,,,,,,,,,,,,,,,,,,,,,,,,,,,,,,,,,,,,,,,,,,,,,,,,,,,,,,,133.0,57.0,57.0,133.0,70.0,70.0,4.0,4.2,-191,-11,0,-286,198,3,349.2429292201996,349.2430114746094,349.24599528312683,349.26044154167175,349.40236353874207,349.40236353874207,349.40236353874207,349.40236353874207,349.40236353874207,349.40236353874207,349.40236353874207,350.69017577171326,2,1.4141767024993896,None,,,,,,,,,,,,,,,,,,11,2,2025-02-18_13h05.42.217,comp,2024.2.4,None,2025-02-18 13h06.04.720222 -0500,
103,103,0,critical,dwh,20.0,2.1,lower,78.0,78.0,57.0,133.0,133.0,57.0,2,1.3440303802490234,None,,,,,0,0,0,0,0,103,103,30,350.7065439224243,,,,,,,,,,,,,,,,,,,,,,,,,,,,,,,,,,,,,,,,,,,,,,,,,,,,,,,,,,,,,,,,,,,,,,,,,,,,,,,,,78.0,78.0,57.0,133.0,133.0,57.0,2.1,2.11,-202,257,0,268,191,-254,350.6918408870697,350.69194984436035,350.6952962875366,350.7065439224243,350.852294921875,350.852294921875,350.852294921875,350.852294921875,350.852294921875,350.852294921875,350.852294921875,352.0683708190918,2,1.3440303802490234,None,,,,,,,,,,,,,,,,,,11,2,2025-02-18_13h05.42.217,comp,2024.2.4,None,2025-02-18 13h06.04.720222 -0500,
104,104,0,filler_square,None,None,None,None,None,None,None,None,None,None,2,1.350050449371338,None,,,,,0,0,0,0,0,104,104,192,352.08448910713196,,,,,,,,,,,,,,,,,,,,,,,,,,,,,,,,,,,,,,,,,,,,,,,,,,,,,,,,,,,,,,,,,,,,,,,,,,,,,,,,,73.26885202416203,74.59816854452879,153.55044370052505,153.55044370052505,79.99475554254288,122.4306434408338,2.1,2.12,-210,-286,0,-266,234,270,352.0701651573181,352.07024455070496,352.07352113723755,352.08448910713196,352.2389786243439,352.2389786243439,352.2389786243439,352.2389786243439,352.2389786243439,352.2389786243439,352.2389786243439,353.4383933544159,2,1.350050449371338,None,,,,,,,,,,,,,,,,,,11,2,2025-02-18_13h05.42.217,comp,2024.2.4,None,2025-02-18 13h06.04.720222 -0500,
105,105,0,critical,dwh,35.0,4.0,lower,70.0,70.0,57.0,133.0,133.0,57.0,3,1.6208155155181885,None,,,,,0,0,0,0,0,105,105,64,353.4548149108887,,,,,,,,,,,,,,,,,,,,,,,,,,,,,,,,,,,,,,,,,,,,,,,,,,,,,,,,,,,,,,,,,,,,,,,,,,,,,,,,,70.0,70.0,57.0,133.0,133.0,57.0,4.0,4.1,-198,-261,0,10,191,-284,353.44003462791443,353.44011664390564,353.4440190792084,353.4548149108887,353.6048312187195,353.6048312187195,353.6048312187195,353.6048312187195,353.6048312187195,353.6048312187195,353.6048312187195,355.0868787765503,3,1.6208155155181885,None,,,,,,,,,,,,,,,,,,11,2,2025-02-18_13h05.42.217,comp,2024.2.4,None,2025-02-18 13h06.04.720222 -0500,
106,106,0,filler_square,None,None,None,None,None,None,None,None,None,None,2,1.2349011898040771,None,,,,,0,0,0,0,0,106,106,171,355.1043517589569,,,,,,,,,,,,,,,,,,,,,,,,,,,,,,,,,,,,,,,,,,,,,,,,,,,,,,,,,,,,,,,,,,,,,,,,,,,,,,,,,110.45154982536894,63.03919195839428,114.27346468018041,114.27346468018041,69.59188136781363,96.52538347470113,4.0,4.2,-185,-19,0,-258,201,-13,355.0886814594269,355.0887885093689,355.0928885936737,355.1043517589569,355.25629591941833,355.25629591941833,355.25629591941833,355.25629591941833,355.25629591941833,355.25629591941833,355.25629591941833,356.34272861480713,2,1.2349011898040771,None,,,,,,,,,,,,,,,,,,11,2,2025-02-18_13h05.42.217,comp,2024.2.4,None,2025-02-18 13h06.04.720222 -0500,
107,107,0,critical,hdw,20.0,2.1,upper,200.0,125.0,141.0,141.0,125.0,200.0,3,2.428149700164795,None,,,,,0,0,0,0,0,107,107,23,356.358847618103,,,,,,,,,,,,,,,,,,,,,,,,,,,,,,,,,,,,,,,,,,,,,,,,,,,,,,,,,,,,,,,,,,,,,,,,,,,,,,,,,200.0,125.0,141.0,141.0,125.0,200.0,2.1,2.11,-229,273,0,273,266,-267,356.344318151474,356.34439635276794,356.34733486175537,356.358847618103,356.50683307647705,356.50683307647705,356.50683307647705,356.50683307647705,356.50683307647705,356.50683307647705,356.50683307647705,358.80449962615967,3,2.428149700164795,None,,,,,,,,,,,,,,,,,,11,2,2025-02-18_13h05.42.217,comp,2024.2.4,None,2025-02-18 13h06.04.720222 -0500,
108,108,0,filler_random,None,None,None,None,None,None,None,None,None,None,3,1.9261727333068848,None,,,,,0,0,0,0,0,108,108,140,358.82061076164246,,,,,,,,,,,,,,,,,,,,,,,,,,,,,,,,,,,,,,,,,,,,,,,,,,,,,,,,,,,,,,,,,,,,,,,,,,,,,,,,,148.11984743941883,129.6642403538175,138.7897234355293,85.11847548940139,183.1358295888801,149.96755124789257,2.2,2.22,-203,262,0,-255,214,-286,358.80619740486145,358.80627632141113,358.81034088134766,358.82061076164246,358.9722487926483,358.9722487926483,358.9722487926483,358.9722487926483,358.9722487926483,358.9722487926483,358.9722487926483,360.7578206062317,3,1.9261727333068848,None,,,,,,,,,,,,,,,,,,11,2,2025-02-18_13h05.42.217,comp,2024.2.4,None,2025-02-18 13h06.04.720222 -0500,
109,109,0,filler_random,None,None,None,None,None,None,None,None,None,None,1,1.3330559730529785,None,,,,,0,0,0,0,0,109,109,161,360.7735769748688,,,,,,,,,,,,,,,,,,,,,,,,,,,,,,,,,,,,,,,,,,,,,,,,,,,,,,,,,,,,,,,,,,,,,,,,,,,,,,,,,159.63963727028747,139.98551817135427,159.10365082758787,102.86866490308881,191.69528119226896,83.85881354732246,2.1,2.11,-217,283,0,250,189,-269,360.7596459388733,360.75979137420654,360.7627923488617,360.7735769748688,360.9261362552643,360.9261362552643,360.9261362552643,360.9261362552643,360.9261362552643,360.9261362552643,360.9261362552643,362.12189984321594,1,1.3330559730529785,None,,,,,,,,,,,,,,,,,,11,2,2025-02-18_13h05.42.217,comp,2024.2.4,None,2025-02-18 13h06.04.720222 -0500,
110,110,0,filler_square,None,None,None,None,None,None,None,None,None,None,3,0.829127311706543,None,,,,,0,0,0,0,0,110,110,201,362.14203453063965,,,,,,,,,,,,,,,,,,,,,,,,,,,,,,,,,,,,,,,,,,,,,,,,,,,,,,,,,,,,,,,,,,,,,,,,,,,,,,,,,74.53420347514033,111.39769529127884,61.727786179328355,72.57416249762488,130.53040062374356,130.53040062374356,4.0,4.1,-188,-256,0,15,198,-268,362.1238968372345,362.12397837638855,362.1273205280304,362.14203453063965,362.2896132469177,362.2896132469177,362.2896132469177,362.2896132469177,362.2896132469177,362.2896132469177,362.2896132469177,362.97963070869446,3,0.829127311706543,None,,,,,,,,,,,,,,,,,,11,2,2025-02-18_13h05.42.217,comp,2024.2.4,None,2025-02-18 13h06.04.720222 -0500,
111,111,0,filler_random,None,None,None,None,None,None,None,None,None,None,3,0.7239580154418945,None,,,,,0,0,0,0,0,111,111,141,362.998601436615,,,,,,,,,,,,,,,,,,,,,,,,,,,,,,,,,,,,,,,,,,,,,,,,,,,,,,,,,,,,,,,,,,,,,,,,,,,,,,,,,100.52347418453758,130.517327081797,144.87080774886994,65.56470456182305,179.52117936171737,143.3655963780172,1.0,1.1,-674,258,-480,257,-280,267,362.9815938472748,362.9816780090332,362.9850583076477,362.998601436615,363.13927698135376,363.13927698135376,363.13927698135376,363.13927698135376,363.13927698135376,363.13927698135376,363.13927698135376,363.73393964767456,3,0.7239580154418945,None,,,,,,,,,,,,,,,,,,11,2,2025-02-18_13h05.42.217,comp,2024.2.4,None,2025-02-18 13h06.04.720222 -0500,
112,112,0,critical,wdh,35.0,2.1,lower,57.0,133.0,70.0,70.0,133.0,57.0,3,2.3415119647979736,None,,,,,0,0,0,0,0,112,112,32,363.7492673397064,,,,,,,,,,,,,,,,,,,,,,,,,,,,,,,,,,,,,,,,,,,,,,,,,,,,,,,,,,,,,,,,,,,,,,,,,,,,,,,,,57.0,133.0,70.0,70.0,133.0,57.0,2.1,2.12,-198,-279,0,-255,160,261,363.7354164123535,363.7354941368103,363.7384717464447,363.7492673397064,363.8938150405884,363.8938150405884,363.8938150405884,363.8938150405884,363.8938150405884,363.8938150405884,363.8938150405884,366.1062870025635,3,2.3415119647979736,None,,,,,,,,,,,,,,,,,,11,2,2025-02-18_13h05.42.217,comp,2024.2.4,None,2025-02-18 13h06.04.720222 -0500,
113,113,0,catch,None,None,None,None,None,None,None,None,None,None,1,1.3399741649627686,None,,,,,0,0,0,0,0,113,113,129,366.12729263305664,,,,,,,,,,,,,,,,,,,,,,,,,,,,,,,,,,,,,,,,,,,,,,,,,,,,,,,,,,,,,,,,,,,,,,,,,,,,,,,,,149,176,62,128,92,98,2.1,2.12,-248,-270,0,-262,209,279,366.1083779335022,366.10845851898193,366.11187410354614,366.12729263305664,366.2736802101135,366.2736802101135,366.2736802101135,366.2736802101135,366.2736802101135,366.2736802101135,366.2736802101135,367.4762279987335,1,1.3399741649627686,None,,,,,,,,,,,,,,,,,,11,2,2025-02-18_13h05.42.217,comp,2024.2.4,None,2025-02-18 13h06.04.720222 -0500,
114,114,0,filler_random,None,None,None,None,None,None,None,None,None,None,1,0.7819712162017822,None,,,,,0,0,0,0,0,114,114,134,367.4927234649658,,,,,,,,,,,,,,,,,,,,,,,,,,,,,,,,,,,,,,,,,,,,,,,,,,,,,,,,,,,,,,,,,,,,,,,,,,,,,,,,,194.3362401837581,170.45859185936652,69.25977483607736,186.55210470909782,133.2965663829931,73.5821198986912,4.0,4.2,-275,6,0,-283,226,13,367.4780445098877,367.47812509536743,367.4819664955139,367.4927234649658,367.6489429473877,367.6489429473877,367.6489429473877,367.6489429473877,367.6489429473877,367.6489429473877,367.6489429473877,368.29031777381897,1,0.7819712162017822,None,,,,,,,,,,,,,,,,,,11,2,2025-02-18_13h05.42.217,comp,2024.2.4,None,2025-02-18 13h06.04.720222 -0500,
115,115,0,critical,wdh,35.0,4.0,lower,57.0,133.0,70.0,70.0,133.0,57.0,3,1.8421564102172852,None,,,,,0,0,0,0,0,115,115,76,368.30651354789734,,,,,,,,,,,,,,,,,,,,,,,,,,,,,,,,,,,,,,,,,,,,,,,,,,,,,,,,,,,,,,,,,,,,,,,,,,,,,,,,,57.0,133.0,70.0,70.0,133.0,57.0,4.0,4.2,-198,10,0,-269,160,-14,368.2918903827667,368.29197120666504,368.29524421691895,368.30651354789734,368.46007657051086,368.46007657051086,368.46007657051086,368.46007657051086,368.46007657051086,368.46007657051086,368.46007657051086,370.1596167087555,3,1.8421564102172852,None,,,,,,,,,,,,,,,,,,11,2,2025-02-18_13h05.42.217,comp,2024.2.4,None,2025-02-18 13h06.04.720222 -0500,
116,116,0,filler_random,None,None,None,None,None,None,None,None,None,None,2,1.130882740020752,None,,,,,0,0,0,0,0,116,116,136,370.17593693733215,,,,,,,,,,,,,,,,,,,,,,,,,,,,,,,,,,,,,,,,,,,,,,,,,,,,,,,,,,,,,,,,,,,,,,,,,,,,,,,,,95.73827829827496,74.79166471239856,146.40241834652716,95.55743293862338,193.31383651400648,84.52358825997231,2.1,2.11,-181,255,0,274,186,-271,370.161504983902,370.16161155700684,370.16501665115356,370.17593693733215,370.32359981536865,370.32359981536865,370.32359981536865,370.32359981536865,370.32359981536865,370.32359981536865,370.32359981536865,371.3140251636505,2,1.130882740020752,None,,,,,,,,,,,,,,,,,,11,2,2025-02-18_13h05.42.217,comp,2024.2.4,None,2025-02-18 13h06.04.720222 -0500,
117,117,0,critical,dwh,20.0,4.0,lower,78.0,78.0,57.0,133.0,133.0,57.0,2,2.505263566970825,None,,,,,0,0,0,0,0,117,117,70,371.3292233943939,,,,,,,,,,,,,,,,,,,,,,,,,,,,,,,,,,,,,,,,,,,,,,,,,,,,,,,,,,,,,,,,,,,,,,,,,,,,,,,,,78.0,78.0,57.0,133.0,133.0,57.0,4.0,4.1,-202,-258,0,10,191,-280,371.3154754638672,371.3155527114868,371.31849241256714,371.3292233943939,371.47539019584656,371.47539019584656,371.47539019584656,371.47539019584656,371.47539019584656,371.47539019584656,371.47539019584656,373.8492736816406,2,2.505263566970825,None,,,,,,,,,,,,,,,,,,11,2,2025-02-18_13h05.42.217,comp,2024.2.4,None,2025-02-18 13h06.04.720222 -0500,
118,118,0,filler_square,None,None,None,None,None,None,None,None,None,None,2,0.8634548187255859,None,,,,,0,0,0,0,0,118,118,203,373.86720871925354,,,,,,,,,,,,,,,,,,,,,,,,,,,,,,,,,,,,,,,,,,,,,,,,,,,,,,,,,,,,,,,,,,,,,,,,,,,,,,,,,60.204528596922735,81.96778123888024,127.01589325366785,127.01589325366785,75.2788039343071,92.47524292296409,4.0,4.1,-200,-266,0,-2,206,-258,373.85111474990845,373.8511974811554,373.85413432121277,373.86720871925354,374.0061237812042,374.0061237812042,374.0061237812042,374.0061237812042,374.0061237812042,374.0061237812042,374.0061237812042,374.7446563243866,2,0.8634548187255859,None,,,,,,,,,,,,,,,,,,11,2,2025-02-18_13h05.42.217,comp,2024.2.4,None,2025-02-18 13h06.04.720222 -0500,
119,119,0,filler_random,None,None,None,None,None,None,None,None,None,None,3,0.9778592586517334,None,,,,,0,0,0,0,0,119,119,156,374.76139998435974,,,,,,,,,,,,,,,,,,,,,,,,,,,,,,,,,,,,,,,,,,,,,,,,,,,,,,,,,,,,,,,,,,,,,,,,,,,,,,,,,67.24362587939322,111.45011825231634,106.83688311695576,135.627980823516,118.33854383618186,192.56156278455805,2.2,2.22,-220,267,0,-286,260,-270,374.7465925216675,374.74667739868164,374.7502236366272,374.76139998435974,374.90930438041687,374.90930438041687,374.90930438041687,374.90930438041687,374.90930438041687,374.90930438041687,374.90930438041687,375.7432041168213,3,0.9778592586517334,None,,,,,,,,,,,,,,,,,,11,2,2025-02-18_13h05.42.217,comp,2024.2.4,None,2025-02-18 13h06.04.720222 -0500,
120,120,0,filler_random,None,None,None,None,None,None,None,None,None,None,2,1.4517810344696045,None,,,,,0,0,0,0,0,120,120,131,375.75945591926575,,,,,,,,,,,,,,,,,,,,,,,,,,,,,,,,,,,,,,,,,,,,,,,,,,,,,,,,,,,,,,,,,,,,,,,,,,,,,,,,,189.2223082743049,90.24080203216815,167.03683183754566,117.55230826130541,77.92106844682681,90.28702259883721,2.2,2.22,-200,267,0,-262,200,-270,375.7450578212738,375.7451753616333,375.7486729621887,375.75945591926575,375.9100284576416,375.9100284576416,375.9100284576416,375.9100284576416,375.9100284576416,375.9100284576416,375.9100284576416,377.2144148349762,2,1.4517810344696045,None,,,,,,,,,,,,,,,,,,11,2,2025-02-18_13h05.42.217,comp,2024.2.4,None,2025-02-18 13h06.04.720222 -0500,
121,121,0,critical,hdw,20.0,1.0,upper,200.0,125.0,141.0,141.0,125.0,200.0,3,1.5615620613098145,None,,,,,0,0,0,0,0,121,121,115,377.23305439949036,,,,,,,,,,,,,,,,,,,,,,,,,,,,,,,,,,,,,,,,,,,,,,,,,,,,,,,,,,,,,,,,,,,,,,,,,,,,,,,,,200.0,125.0,141.0,141.0,125.0,200.0,1.0,1.1,-709,285,-480,281,-214,269,377.21637320518494,377.21645617485046,377.2194199562073,377.23305439949036,377.376834154129,377.376834154129,377.376834154129,377.376834154129,377.376834154129,377.376834154129,377.376834154129,378.8145136833191,3,1.5615620613098145,None,,,,,,,,,,,,,,,,,,11,2,2025-02-18_13h05.42.217,comp,2024.2.4,None,2025-02-18 13h06.04.720222 -0500,
122,122,0,filler_square,None,None,None,None,None,None,None,None,None,None,3,1.7360212802886963,None,,,,,0,0,0,0,0,122,122,197,378.83527970314026,,,,,,,,,,,,,,,,,,,,,,,,,,,,,,,,,,,,,,,,,,,,,,,,,,,,,,,,,,,,,,,,,,,,,,,,,,,,,,,,,76.9058425513169,81.93748759159661,59.74011115638503,75.066624061515,82.35513087369895,82.35513087369895,2.1,2.11,-175,288,0,280,175,-275,378.8163995742798,378.81652665138245,378.819983959198,378.83527970314026,378.9775884151459,378.9775884151459,378.9775884151459,378.9775884151459,378.9775884151459,378.9775884151459,378.9775884151459,380.5783381462097,3,1.7360212802886963,None,,,,,,,,,,,,,,,,,,11,2,2025-02-18_13h05.42.217,comp,2024.2.4,None,2025-02-18 13h06.04.720222 -0500,
123,123,0,filler_square,None,None,None,None,None,None,None,None,None,None,3,0.8876700401306152,None,,,,,0,0,0,0,0,123,123,175,380.5950593948364,,,,,,,,,,,,,,,,,,,,,,,,,,,,,,,,,,,,,,,,,,,,,,,,,,,,,,,,,,,,,,,,,,,,,,,,,,,,,,,,,130.30411786126518,130.94939303508488,63.026010587056106,107.87606901684453,167.06751201547274,167.06751201547274,1.0,1.1,-695,268,-480,261,-247,281,380.5801205635071,380.58020067214966,380.58428382873535,380.5950593948364,380.7443690299988,380.7443690299988,380.7443690299988,380.7443690299988,380.7443690299988,380.7443690299988,380.7443690299988,381.49261236190796,3,0.8876700401306152,None,,,,,,,,,,,,,,,,,,11,2,2025-02-18_13h05.42.217,comp,2024.2.4,None,2025-02-18 13h06.04.720222 -0500,
124,124,0,filler_square,None,None,None,None,None,None,None,None,None,None,3,1.2048585414886475,None,,,,,0,0,0,0,0,124,124,194,381.50967955589294,,,,,,,,,,,,,,,,,,,,,,,,,,,,,,,,,,,,,,,,,,,,,,,,,,,,,,,,,,,,,,,,,,,,,,,,,,,,,,,,,69.17154836485516,65.31032828912481,61.68920245533889,60.4696849013757,70.16757936053996,70.16757936053996,4.0,4.1,-159,-257,0,0,161,-262,381.49446082115173,381.4945421218872,381.4975469112396,381.50967955589294,381.64500164985657,381.64500164985657,381.64500164985657,381.64500164985657,381.64500164985657,381.64500164985657,381.64500164985657,382.72991728782654,3,1.2048585414886475,None,,,,,,,,,,,,,,,,,,11,2,2025-02-18_13h05.42.217,comp,2024.2.4,None,2025-02-18 13h06.04.720222 -0500,
125,125,0,critical,whd,35.0,2.1,lower,57.0,133.0,133.0,57.0,70.0,70.0,2,2.552783250808716,None,,,,,0,0,0,0,0,125,125,36,382.7458143234253,,,,,,,,,,,,,,,,,,,,,,,,,,,,,,,,,,,,,,,,,,,,,,,,,,,,,,,,,,,,,,,,,,,,,,,,,,,,,,,,,57.0,133.0,133.0,57.0,70.0,70.0,2.1,2.12,-191,-288,0,-283,160,275,382.73143792152405,382.7315146923065,382.7355408668518,382.7458143234253,382.893093585968,382.893093585968,382.893093585968,382.893093585968,382.893093585968,382.893093585968,382.893093585968,385.31210803985596,2,2.552783250808716,None,,,,,,,,,,,,,,,,,,11,2,2025-02-18_13h05.42.217,comp,2024.2.4,None,2025-02-18 13h06.04.720222 -0500,
126,126,0,filler_random,None,None,None,None,None,None,None,None,None,None,2,0.7785329818725586,None,,,,,0,0,0,0,0,126,126,160,385.32862734794617,,,,,,,,,,,,,,,,,,,,,,,,,,,,,,,,,,,,,,,,,,,,,,,,,,,,,,,,,,,,,,,,,,,,,,,,,,,,,,,,,88.03551316992386,70.80004625230522,168.11881579143954,142.77883734871324,95.52828693325938,93.46811564831049,3.0,3.1,-203,266,0,17,214,-290,385.31399631500244,385.3141360282898,385.3174090385437,385.32862734794617,385.4673547744751,385.4673547744751,385.4673547744751,385.4673547744751,385.4673547744751,385.4673547744751,385.4673547744751,386.1133315563202,2,0.7785329818725586,None,,,,,,,,,,,,,,,,,,11,2,2025-02-18_13h05.42.217,comp,2024.2.4,None,2025-02-18 13h06.04.720222 -0500,
127,127,0,critical,hwd,35.0,1.0,upper,200.0,125.0,125.0,200.0,127.0,127.0,2,1.6859285831451416,None,,,,,0,0,0,0,0,127,127,97,386.13302278518677,,,,,,,,,,,,,,,,,,,,,,,,,,,,,,,,,,,,,,,,,,,,,,,,,,,,,,,,,,,,,,,,,,,,,,,,,,,,,,,,,200.0,125.0,125.0,200.0,127.0,127.0,1.0,1.1,-738,283,-480,279,-220,253,386.11483669281006,386.1149146556854,386.11794805526733,386.13302278518677,386.2807743549347,386.2807743549347,386.2807743549347,386.2807743549347,386.2807743549347,386.2807743549347,386.2807743549347,387.8354709148407,2,1.6859285831451416,None,,,,,,,,,,,,,,,,,,11,2,2025-02-18_13h05.42.217,comp,2024.2.4,None,2025-02-18 13h06.04.720222 -0500,
128,128,0,critical,whd,35.0,2.1,lower,57.0,133.0,133.0,57.0,70.0,70.0,2,2.159574270248413,None,,,,,0,0,0,0,0,128,128,12,387.85116624832153,,,,,,,,,,,,,,,,,,,,,,,,,,,,,,,,,,,,,,,,,,,,,,,,,,,,,,,,,,,,,,,,,,,,,,,,,,,,,,,,,57.0,133.0,133.0,57.0,70.0,70.0,2.1,2.12,-191,-279,0,-258,160,263,387.8370463848114,387.8371253013611,387.8400764465332,387.85116624832153,387.9948539733887,387.9948539733887,387.9948539733887,387.9948539733887,387.9948539733887,387.9948539733887,387.9948539733887,390.0162761211395,2,2.159574270248413,None,,,,,,,,,,,,,,,,,,11,2,2025-02-18_13h05.42.217,comp,2024.2.4,None,2025-02-18 13h06.04.720222 -0500,
129,129,0,filler_random,None,None,None,None,None,None,None,None,None,None,3,0.9577653408050537,None,,,,,0,0,0,0,0,129,129,159,390.0373911857605,,,,,,,,,,,,,,,,,,,,,,,,,,,,,,,,,,,,,,,,,,,,,,,,,,,,,,,,,,,,,,,,,,,,,,,,,,,,,,,,,84.11740548553877,117.44685754740861,75.51722478826389,191.87323768649003,177.23676322336803,165.1447739848798,4.0,4.1,-251,-259,0,-13,275,-269,390.0181121826172,390.0182259082794,390.0215096473694,390.0373911857605,390.18098425865173,390.18098425865173,390.18098425865173,390.18098425865173,390.18098425865173,390.18098425865173,390.18098425865173,390.9973394870758,3,0.9577653408050537,None,,,,,,,,,,,,,,,,,,11,2,2025-02-18_13h05.42.217,comp,2024.2.4,None,2025-02-18 13h06.04.720222 -0500,
130,130,0,filler_square,None,None,None,None,None,None,None,None,None,None,3,0.8253791332244873,None,,,,,0,0,0,0,0,130,130,193,391.0172290802002,,,,,,,,,,,,,,,,,,,,,,,,,,,,,,,,,,,,,,,,,,,,,,,,,,,,,,,,,,,,,,,,,,,,,,,,,,,,,,,,,94.63228301914678,115.08939654893582,98.1049929552596,73.11765540489077,149.3873217578279,149.3873217578279,4.0,4.1,-190,-278,0,1,207,-256,390.99900698661804,390.9990839958191,391.00218749046326,391.0172290802002,391.16469621658325,391.16469621658325,391.16469621658325,391.16469621658325,391.16469621658325,391.16469621658325,391.16469621658325,391.8542459011078,3,0.8253791332244873,None,,,,,,,,,,,,,,,,,,11,2,2025-02-18_13h05.42.217,comp,2024.2.4,None,2025-02-18 13h06.04.720222 -0500,
131,131,0,filler_random,None,None,None,None,None,None,None,None,None,None,2,0.9811766147613525,None,,,,,0,0,0,0,0,131,131,166,391.86941957473755,,,,,,,,,,,,,,,,,,,,,,,,,,,,,,,,,,,,,,,,,,,,,,,,,,,,,,,,,,,,,,,,,,,,,,,,,,,,,,,,,91.95094301824307,73.72301111801121,113.75309705184286,107.06961062759999,162.2624255650087,62.485366766187596,1.0,1.3,294,-260,480,-263,661,-278,391.8559572696686,391.85603857040405,391.85910511016846,391.86941957473755,392.01508593559265,392.01508593559265,392.01508593559265,392.01508593559265,392.01508593559265,392.01508593559265,392.01508593559265,392.86515712738037,2,0.9811766147613525,None,,,,,,,,,,,,,,,,,,11,2,2025-02-18_13h05.42.217,comp,2024.2.4,None,2025-02-18 13h06.04.720222 -0500,
132,132,0,critical,whd,20.0,4.0,upper,125.0,200.0,200.0,125.0,141.0,141.0,1,3.4180145263671875,None,,,,,0,0,0,0,0,132,132,95,392.8806049823761,,,,,,,,,,,,,,,,,,,,,,,,,,,,,,,,,,,,,,,,,,,,,,,,,,,,,,,,,,,,,,,,,,,,,,,,,,,,,,,,,125.0,200.0,200.0,125.0,141.0,141.0,4.0,4.2,-258,5,0,-289,229,18,392.86682534217834,392.86690878868103,392.8703646659851,392.8806049823761,393.0324158668518,393.0324158668518,393.0324158668518,393.0324158668518,393.0324158668518,393.0324158668518,393.0324158668518,396.3193950653076,1,3.4180145263671875,None,,,,,,,,,,,,,,,,,,11,2,2025-02-18_13h05.42.217,comp,2024.2.4,None,2025-02-18 13h06.04.720222 -0500,
133,133,0,critical,hwd,35.0,3.0,upper,200.0,125.0,125.0,200.0,127.0,127.0,2,1.2917046546936035,None,,,,,0,0,0,0,0,133,133,99,396.3351845741272,,,,,,,,,,,,,,,,,,,,,,,,,,,,,,,,,,,,,,,,,,,,,,,,,,,,,,,,,,,,,,,,,,,,,,,,,,,,,,,,,200.0,125.0,125.0,200.0,127.0,127.0,3.0,3.2,-258,-256,0,-15,260,253,396.321013212204,396.3210895061493,396.3247113227844,396.3351845741272,396.4833221435547,396.4833221435547,396.4833221435547,396.4833221435547,396.4833221435547,396.4833221435547,396.4833221435547,397.6308379173279,2,1.2917046546936035,None,,,,,,,,,,,,,,,,,,11,2,2025-02-18_13h05.42.217,comp,2024.2.4,None,2025-02-18 13h06.04.720222 -0500,
134,134,0,critical,wdh,20.0,4.0,upper,125.0,200.0,141.0,141.0,200.0,125.0,1,1.6039950847625732,None,,,,,0,0,0,0,0,134,134,83,397.6467707157135,,,,,,,,,,,,,,,,,,,,,,,,,,,,,,,,,,,,,,,,,,,,,,,,,,,,,,,,,,,,,,,,,,,,,,,,,,,,,,,,,125.0,200.0,141.0,141.0,200.0,125.0,4.0,4.2,-266,-9,0,-286,229,10,397.6318380832672,397.63188791275024,397.63381147384644,397.6467707157135,397.7869966030121,397.7869966030121,397.7869966030121,397.7869966030121,397.7869966030121,397.7869966030121,397.7869966030121,399.2690122127533,1,1.6039950847625732,None,,,,,,,,,,,,,,,,,,11,2,2025-02-18_13h05.42.217,comp,2024.2.4,None,2025-02-18 13h06.04.720222 -0500,
135,135,0,filler_square,None,None,None,None,None,None,None,None,None,None,3,0.9322400093078613,None,,,,,0,0,0,0,0,135,135,207,399.2865571975708,,,,,,,,,,,,,,,,,,,,,,,,,,,,,,,,,,,,,,,,,,,,,,,,,,,,,,,,,,,,,,,,,,,,,,,,,,,,,,,,,71.24421679970706,86.8269471891096,66.33129377779197,87.1581132827125,108.21767868444601,108.21767868444601,2.2,2.21,-183,-277,0,273,194,257,399.2710485458374,399.2711308002472,399.27414441108704,399.2865571975708,399.4341185092926,399.4341185092926,399.4341185092926,399.4341185092926,399.4341185092926,399.4341185092926,399.4341185092926,400.2365651130676,3,0.9322400093078613,None,,,,,,,,,,,,,,,,,,11,2,2025-02-18_13h05.42.217,comp,2024.2.4,None,2025-02-18 13h06.04.720222 -0500,
136,136,0,critical,whd,35.0,4.0,upper,125.0,200.0,200.0,125.0,127.0,127.0,1,1.52724027633667,None,,,,,0,0,0,0,0,136,136,89,400.2517583370209,,,,,,,,,,,,,,,,,,,,,,,,,,,,,,,,,,,,,,,,,,,,,,,,,,,,,,,,,,,,,,,,,,,,,,,,,,,,,,,,,125.0,200.0,200.0,125.0,127.0,127.0,4.0,4.2,-258,18,0,-276,222,-8,400.23829412460327,400.23838686943054,400.2414484024048,400.2517583370209,400.40130615234375,400.40130615234375,400.40130615234375,400.40130615234375,400.40130615234375,400.40130615234375,400.40130615234375,401.7838718891144,1,1.52724027633667,None,,,,,,,,,,,,,,,,,,11,2,2025-02-18_13h05.42.217,comp,2024.2.4,None,2025-02-18 13h06.04.720222 -0500,
137,137,0,critical,hdw,20.0,3.0,upper,200.0,125.0,141.0,141.0,125.0,200.0,3,2.531322956085205,None,,,,,0,0,0,0,0,137,137,117,401.7996618747711,,,,,,,,,,,,,,,,,,,,,,,,,,,,,,,,,,,,,,,,,,,,,,,,,,,,,,,,,,,,,,,,,,,,,,,,,,,,,,,,,200.0,125.0,141.0,141.0,125.0,200.0,3.0,3.1,-229,287,0,13,266,-282,401.78535532951355,401.7854354381561,401.7885341644287,401.7996618747711,401.95021867752075,401.95021867752075,401.95021867752075,401.95021867752075,401.95021867752075,401.95021867752075,401.95021867752075,404.33580017089844,3,2.531322956085205,None,,,,,,,,,,,,,,,,,,11,2,2025-02-18_13h05.42.217,comp,2024.2.4,None,2025-02-18 13h06.04.720222 -0500,
138,138,0,filler_random,None,None,None,None,None,None,None,None,None,None,3,1.3472857475280762,None,,,,,0,0,0,0,0,138,138,158,404.3517236709595,,,,,,,,,,,,,,,,,,,,,,,,,,,,,,,,,,,,,,,,,,,,,,,,,,,,,,,,,,,,,,,,,,,,,,,,,,,,,,,,,101.16557243868183,135.891621469551,112.68809679863858,159.145537007966,183.00410343584625,142.20731103368868,3.0,3.2,-244,-267,0,3,247,277,404.3374946117401,404.33757615089417,404.3409848213196,404.3517236709595,404.5013744831085,404.5013744831085,404.5013744831085,404.5013744831085,404.5013744831085,404.5013744831085,404.5013744831085,405.7019567489624,3,1.3472857475280762,None,,,,,,,,,,,,,,,,,,11,2,2025-02-18_13h05.42.217,comp,2024.2.4,None,2025-02-18 13h06.04.720222 -0500,
139,139,0,critical,dhw,20.0,3.0,lower,78.0,78.0,133.0,57.0,57.0,133.0,3,1.5264849662780762,None,,,,,0,0,0,0,0,139,139,56,405.71782994270325,,,,,,,,,,,,,,,,,,,,,,,,,,,,,,,,,,,,,,,,,,,,,,,,,,,,,,,,,,,,,,,,,,,,,,,,,,,,,,,,,78.0,78.0,133.0,57.0,57.0,133.0,3.0,3.1,-164,290,0,16,191,-286,405.703453540802,405.70353269577026,405.7067697048187,405.71782994270325,405.872766494751,405.872766494751,405.872766494751,405.872766494751,405.872766494751,405.872766494751,405.872766494751,407.2546203136444,3,1.5264849662780762,None,,,,,,,,,,,,,,,,,,11,2,2025-02-18_13h05.42.217,comp,2024.2.4,None,2025-02-18 13h06.04.720222 -0500,
140,140,0,critical,dhw,35.0,2.1,upper,127.0,127.0,200.0,125.0,125.0,200.0,3,1.5620951652526855,None,,,,,0,0,0,0,0,140,140,1,407.2724874019623,,,,,,,,,,,,,,,,,,,,,,,,,,,,,,,,,,,,,,,,,,,,,,,,,,,,,,,,,,,,,,,,,,,,,,,,,,,,,,,,,127.0,127.0,200.0,125.0,125.0,200.0,2.1,2.11,-222,289,0,256,258,-269,407.25627398490906,407.2563807964325,407.2594850063324,407.2724874019623,407.42367935180664,407.42367935180664,407.42367935180664,407.42367935180664,407.42367935180664,407.42367935180664,407.42367935180664,408.8379249572754,3,1.5620951652526855,None,,,,,,,,,,,,,,,,,,11,2,2025-02-18_13h05.42.217,comp,2024.2.4,None,2025-02-18 13h06.04.720222 -0500,
141,141,0,filler_random,None,None,None,None,None,None,None,None,None,None,1,1.1647710800170898,None,,,,,0,0,0,0,0,141,141,142,408.8544497489929,,,,,,,,,,,,,,,,,,,,,,,,,,,,,,,,,,,,,,,,,,,,,,,,,,,,,,,,,,,,,,,,,,,,,,,,,,,,,,,,,169.12559061305132,196.4055194313781,182.16737741661638,147.7888765409407,125.1243260676647,137.7376367650544,1.0,1.3,212,-270,480,-264,719,-280,408.839791059494,408.8399279117584,408.8435204029083,408.8544497489929,409.00677466392517,409.00677466392517,409.00677466392517,409.00677466392517,409.00677466392517,409.00677466392517,409.00677466392517,410.0282344818115,1,1.1647710800170898,None,,,,,,,,,,,,,,,,,,11,2,2025-02-18_13h05.42.217,comp,2024.2.4,None,2025-02-18 13h06.04.720222 -0500,
