thisN,thisTrialN,thisRepN,effect,order,distance,config,diag,h_1,w_1,h_2,w_2,h_3,w_3,rect_choice.keys,rect_choice.rt,rect_choice.duration,instructions_loop.thisRepN,instructions_loop.thisTrialN,instructions_loop.thisN,instructions_loop.thisIndex,blocks.thisRepN,blocks.thisTrialN,blocks.thisN,blocks.thisIndex,trials.thisRepN,trials.thisTrialN,trials.thisN,trials.thisIndex,thisRow.t,notes,consent.started,agree_button.started,decline_button.started,consent_img.started,mouse.started,consent.stopped,agree_button.numClicks,agree_button.timesOn,agree_button.timesOff,decline_button.numClicks,decline_button.timesOn,decline_button.timesOff,mouse.x,mouse.y,mouse.leftButton,mouse.midButton,mouse.rightButton,mouse.time,mouse.clicked_name,exp_params.started,exp_params.stopped,welcome.started,welcome_text.started,welcome.stopped,instructions_1.started,instructions_1_text_1.started,instructions_1_text_2.started,key_resp.started,instructions_1.stopped,instructions_loop.key_resp.keys,instructions_loop.key_resp.rt,instructions_loop.key_resp.duration,instructions_2.started,instructions_2_text_1.started,instructions_2_text_2.started,key_resp_2.started,instructions_2.stopped,instructions_loop.key_resp_2.keys,instructions_loop.key_resp_2.rt,instructions_loop.key_resp_2.duration,instructions_3.started,instructions_3_text_1.started,r1_instr3.started,r2_instr3.started,r3_instr3.started,r1_instr3_label.started,r2_instr3_label.started,r3_instr3_label.started,instructions_3_text_3.started,instructions_3_text_4.started,key_resp_3.started,instructions_3.stopped,instructions_loop.key_resp_3.keys,instructions_loop.key_resp_3.rt,instructions_loop.key_resp_3.duration,instructions_4.started,instructions_4_text_1.started,instructions_4_text_3.started,instructions_4_text_2.started,key_resp_4.started,instructions_4.stopped,instructions_loop.key_resp_4.keys,instructions_loop.key_resp_4.rt,instructions_loop.key_resp_4.duration,instructions_5.started,instructions_5_text_1.started,instructions_5_text_2.started,key_resp_5.started,instructions_5.stopped,instructions_loop.key_resp_5.keys,instructions_loop.key_resp_5.rt,instructions_loop.key_resp_5.duration,start_exp.started,start_exp_text.started,key_resp_6.started,start_exp.stopped,key_resp_6.keys,key_resp_6.rt,key_resp_6.duration,h_1_tmp,w_1_tmp,h_2_tmp,w_2_tmp,h_3_tmp,w_3_tmp,config_tmp,config_tmp_1,r_1_x,r_1_y,r_2_x,r_2_y,r_3_x,r_3_y,pre_trial.started,pre_trial.stopped,choice_trial.started,rect_choice.started,r_1.started,r_2.started,r_3.started,r_1_label.started,r_2_label.started,r_3_label.started,prompt.started,choice_trial.stopped,trials.rect_choice.keys,trials.rect_choice.rt,trials.rect_choice.duration,end_block.started,end_block_text.started,end_block.stopped,end.started,end_text.started,key_resp_7.started,end.stopped,key_resp_7.keys,key_resp_7.rt,key_resp_7.duration,debriefing.started,debrief_form.started,end_debrief.started,debriefing.stopped,end_debrief.keys,end_debrief.rt,end_debrief.duration,participant,computer,date,expName,psychopyVersion,frameRate,expStart,
,,,,,,,,,,,,,,,,,,,,,,,,,,,,,,,0.01493978500366211,0.041420936584472656,0.041420936584472656,0.041420936584472656,0.014494657516479492,49.1574342250824,1,[49.11480951309204],[49.11482095718384],0,,,[-79.0],[-492.0],[1],[0],[0],[49.14190983772278],['agree_button'],,,,,,,,,,,,,,,,,,,,,,,,,,,,,,,,,,,,,,,,,,,,,,,,,,,,,,,,,,,,,,,,,,,,,,,,,,,,,,,,,,,,,,,,,,,,,,,,,,,,,,,,,,,120,3,2025-02-25_16h33.18.488,comp,2024.2.4,60.04119838928326,2025-02-25 16h34.14.705073 -0500,
,,,,,,,,,,,,,,,,,,,,,,,,,,,,,,,,,,,,,,,,,,,,,,,,,,49.1577045917511,49.15773916244507,,,,,,,,,,,,,,,,,,,,,,,,,,,,,,,,,,,,,,,,,,,,,,,,,,,,,,,,,,,,,,,,,,,,,,,,,,,,,,,,,,,,,,,,,,,,,,,,,,,,,,,,,120,3,2025-02-25_16h33.18.488,comp,2024.2.4,60.04119838928326,2025-02-25 16h34.14.705073 -0500,
,,,,,,,,,,,,,,,,,,,,,,,,,,,,,,,,,,,,,,,,,,,,,,,,,,,,49.15776205062866,49.17098903656006,51.165995836257935,,,,,,,,,,,,,,,,,,,,,,,,,,,,,,,,,,,,,,,,,,,,,,,,,,,,,,,,,,,,,,,,,,,,,,,,,,,,,,,,,,,,,,,,,,,,,,,,,,,,,,120,3,2025-02-25_16h33.18.488,comp,2024.2.4,60.04119838928326,2025-02-25 16h34.14.705073 -0500,
0,0,0,,,,,,,,,,,,,,,0,0,0,0,,,,,,,,,51.18274426460266,,,,,,,,,,,,,,,,,,,,,,,,,,51.16653800010681,51.18274426460266,51.18274426460266,52.66647148132324,55.684102058410645,space,3.0043468475341797,None,55.684184551239014,55.69954299926758,55.69954299926758,57.19973921775818,61.433818101882935,space,4.224224328994751,None,61.43389844894409,61.45635795593262,61.45635795593262,61.45635795593262,61.45635795593262,61.45635795593262,61.45635795593262,61.45635795593262,61.45635795593262,61.45635795593262,62.932987689971924,68.41764068603516,space,5.474866151809692,None,68.41772675514221,68.43307328224182,68.43307328224182,68.43307328224182,69.93268132209778,74.1835823059082,space,4.24298620223999,None,74.18366503715515,74.1994981765747,74.1994981765747,75.6991605758667,76.36692643165588,space,0.6603555679321289,None,76.36705088615417,76.38271141052246,76.38271141052246,77.50010800361633,space,1.1046106815338135,None,,,,,,,,,,,,,,,,,,,,,,,,,,,,,,,,,,,,,,,,,,,,,,,120,3,2025-02-25_16h33.18.488,comp,2024.2.4,60.04119838928326,2025-02-25 16h34.14.705073 -0500,
0,0,0,critical,whd,20.0,4.0,upper,125.0,200.0,200.0,125.0,141.0,141.0,2,4.089983940124512,None,,,,,0,0,0,0,0,0,0,95,77.55933356285095,,,,,,,,,,,,,,,,,,,,,,,,,,,,,,,,,,,,,,,,,,,,,,,,,,,,,,,,,,,,,,,,,,,,,,,,,,,,,,,,,125.0,200.0,200.0,125.0,141.0,141.0,4.0,4.2,-258,-13,0,-263,229,-17,77.54568219184875,77.545729637146,77.54774332046509,77.55933356285095,77.70557522773743,77.70557522773743,77.70557522773743,77.70557522773743,77.70557522773743,77.70557522773743,77.70557522773743,81.65074062347412,2,4.089983940124512,None,,,,,,,,,,,,,,,,,,120,3,2025-02-25_16h33.18.488,comp,2024.2.4,60.04119838928326,2025-02-25 16h34.14.705073 -0500,
1,1,0,critical,dwh,35.0,4.0,lower,70.0,70.0,57.0,133.0,133.0,57.0,2,8.783226251602173,None,,,,,0,0,0,0,0,1,1,64,81.66595220565796,,,,,,,,,,,,,,,,,,,,,,,,,,,,,,,,,,,,,,,,,,,,,,,,,,,,,,,,,,,,,,,,,,,,,,,,,,,,,,,,,70.0,70.0,57.0,133.0,133.0,57.0,4.0,4.1,-198,-253,0,-14,191,-277,81.65155291557312,81.65159368515015,81.65412068367004,81.66595220565796,81.81569647789001,81.81569647789001,81.81569647789001,81.81569647789001,81.81569647789001,81.81569647789001,81.81569647789001,90.45043778419495,2,8.783226251602173,None,,,,,,,,,,,,,,,,,,120,3,2025-02-25_16h33.18.488,comp,2024.2.4,60.04119838928326,2025-02-25 16h34.14.705073 -0500,
2,2,0,filler_square,None,None,None,None,None,None,None,None,None,None,1,1.4525959491729736,None,,,,,0,0,0,0,0,2,2,208,90.46590948104858,,,,,,,,,,,,,,,,,,,,,,,,,,,,,,,,,,,,,,,,,,,,,,,,,,,,,,,,,,,,,,,,,,,,,,,,,,,,,,,,,102.5857446340057,102.5857446340057,82.61752112715848,59.80815934515179,79.79218347007682,57.15420853412322,2.1,2.12,-177,-262,0,-263,154,280,90.45150876045227,90.4515483379364,90.45389223098755,90.46590948104858,90.61604928970337,90.61604928970337,90.61604928970337,90.61604928970337,90.61604928970337,90.61604928970337,90.61604928970337,91.93353390693665,1,1.4525959491729736,None,,,,,,,,,,,,,,,,,,120,3,2025-02-25_16h33.18.488,comp,2024.2.4,60.04119838928326,2025-02-25 16h34.14.705073 -0500,
3,3,0,critical,hdw,35.0,2.1,lower,133.0,57.0,70.0,70.0,57.0,133.0,3,1.5054521560668945,None,,,,,0,0,0,0,0,3,3,44,91.94902539253235,,,,,,,,,,,,,,,,,,,,,,,,,,,,,,,,,,,,,,,,,,,,,,,,,,,,,,,,,,,,,,,,,,,,,,,,,,,,,,,,,133.0,57.0,70.0,70.0,57.0,133.0,2.1,2.11,-160,267,0,263,198,-282,91.93437194824219,91.93441224098206,91.93687343597412,91.94902539253235,92.09910798072815,92.09910798072815,92.09910798072815,92.09910798072815,92.09910798072815,92.09910798072815,92.09910798072815,93.4668800830841,3,1.5054521560668945,None,,,,,,,,,,,,,,,,,,120,3,2025-02-25_16h33.18.488,comp,2024.2.4,60.04119838928326,2025-02-25 16h34.14.705073 -0500,
4,4,0,filler_square,None,None,None,None,None,None,None,None,None,None,2,1.1670069694519043,None,,,,,0,0,0,0,0,4,4,196,93.48240065574646,,,,,,,,,,,,,,,,,,,,,,,,,,,,,,,,,,,,,,,,,,,,,,,,,,,,,,,,,,,,,,,,,,,,,,,,,,,,,,,,,103.4109765909655,90.91933905664715,189.90209432106354,189.90209432106354,156.19693841123123,183.63697861078404,4.0,4.2,-236,-1,0,-289,283,18,93.46783518791199,93.46787667274475,93.47050714492798,93.48240065574646,93.63302850723267,93.63302850723267,93.63302850723267,93.63302850723267,93.63302850723267,93.63302850723267,93.63302850723267,94.6678295135498,2,1.1670069694519043,None,,,,,,,,,,,,,,,,,,120,3,2025-02-25_16h33.18.488,comp,2024.2.4,60.04119838928326,2025-02-25 16h34.14.705073 -0500,
5,5,0,filler_square,None,None,None,None,None,None,None,None,None,None,3,0.9336798191070557,None,,,,,0,0,0,0,0,5,5,174,94.68249988555908,,,,,,,,,,,,,,,,,,,,,,,,,,,,,,,,,,,,,,,,,,,,,,,,,,,,,,,,,,,,,,,,,,,,,,,,,,,,,,,,,97.53275952079106,94.1253135720405,164.25528448998773,98.55632402848954,177.65998393057214,177.65998393057214,1.0,1.2,-192,-17,0,-10,234,5,94.6687605381012,94.66879940032959,94.67070388793945,94.68249988555908,94.83262300491333,94.83262300491333,94.83262300491333,94.83262300491333,94.83262300491333,94.83262300491333,94.83262300491333,95.63375234603882,3,0.9336798191070557,None,,,,,,,,,,,,,,,,,,120,3,2025-02-25_16h33.18.488,comp,2024.2.4,60.04119838928326,2025-02-25 16h34.14.705073 -0500,
6,6,0,critical,dwh,35.0,1.0,lower,70.0,70.0,57.0,133.0,133.0,57.0,3,2.7101831436157227,None,,,,,0,0,0,0,0,6,6,60,95.64910387992859,,,,,,,,,,,,,,,,,,,,,,,,,,,,,,,,,,,,,,,,,,,,,,,,,,,,,,,,,,,,,,,,,,,,,,,,,,,,,,,,,70.0,70.0,57.0,133.0,133.0,57.0,1.0,1.3,282,-274,480,-287,671,-260,95.63461661338806,95.63465857505798,95.63716292381287,95.64910387992859,95.79901218414307,95.79901218414307,95.79901218414307,95.79901218414307,95.79901218414307,95.79901218414307,95.79901218414307,98.36681127548218,3,2.7101831436157227,None,,,,,,,,,,,,,,,,,,120,3,2025-02-25_16h33.18.488,comp,2024.2.4,60.04119838928326,2025-02-25 16h34.14.705073 -0500,
7,7,0,critical,dhw,35.0,4.0,upper,127.0,127.0,200.0,125.0,125.0,200.0,3,4.208700656890869,None,,,,,0,0,0,0,0,7,7,53,98.38265442848206,,,,,,,,,,,,,,,,,,,,,,,,,,,,,,,,,,,,,,,,,,,,,,,,,,,,,,,,,,,,,,,,,,,,,,,,,,,,,,,,,127.0,127.0,200.0,125.0,125.0,200.0,4.0,4.1,-222,-268,0,-19,258,-259,98.36761999130249,98.36766266822815,98.37020778656006,98.38265442848206,98.53266906738281,98.53266906738281,98.53266906738281,98.53266906738281,98.53266906738281,98.53266906738281,98.53266906738281,102.60028004646301,3,4.208700656890869,None,,,,,,,,,,,,,,,,,,120,3,2025-02-25_16h33.18.488,comp,2024.2.4,60.04119838928326,2025-02-25 16h34.14.705073 -0500,
8,8,0,critical,dhw,20.0,2.1,upper,141.0,141.0,200.0,125.0,125.0,200.0,2,4.127574682235718,None,,,,,0,0,0,0,0,8,8,27,102.61581659317017,,,,,,,,,,,,,,,,,,,,,,,,,,,,,,,,,,,,,,,,,,,,,,,,,,,,,,,,,,,,,,,,,,,,,,,,,,,,,,,,,141.0,141.0,200.0,125.0,125.0,200.0,2.1,2.12,-229,-253,0,-289,258,287,102.60107398033142,102.60111498832703,102.60322213172913,102.61581659317017,102.76596021652222,102.76596021652222,102.76596021652222,102.76596021652222,102.76596021652222,102.76596021652222,102.76596021652222,106.75033473968506,2,4.127574682235718,None,,,,,,,,,,,,,,,,,,120,3,2025-02-25_16h33.18.488,comp,2024.2.4,60.04119838928326,2025-02-25 16h34.14.705073 -0500,
9,9,0,filler_square,None,None,None,None,None,None,None,None,None,None,2,7.06660270690918,None,,,,,0,0,0,0,0,9,9,184,106.76580834388733,,,,,,,,,,,,,,,,,,,,,,,,,,,,,,,,,,,,,,,,,,,,,,,,,,,,,,,,,,,,,,,,,,,,,,,,,,,,,,,,,76.71749242205597,78.0634806188073,79.7043696632871,79.7043696632871,78.94239660778742,66.50732690012691,1.0,1.3,305,-282,480,-260,649,-255,106.75130152702332,106.75134372711182,106.75351071357727,106.76580834388733,106.9160737991333,106.9160737991333,106.9160737991333,106.9160737991333,106.9160737991333,106.9160737991333,106.9160737991333,113.83364510536194,2,7.06660270690918,None,,,,,,,,,,,,,,,,,,120,3,2025-02-25_16h33.18.488,comp,2024.2.4,60.04119838928326,2025-02-25 16h34.14.705073 -0500,
10,10,0,filler_random,None,None,None,None,None,None,None,None,None,None,1,1.2619750499725342,None,,,,,0,0,0,0,0,10,10,131,113.84914469718933,,,,,,,,,,,,,,,,,,,,,,,,,,,,,,,,,,,,,,,,,,,,,,,,,,,,,,,,,,,,,,,,,,,,,,,,,,,,,,,,,192.34341077278637,195.23527691978066,95.00771958704829,108.56751321462843,132.238638900721,164.46787212599452,2.2,2.22,-248,276,0,-265,233,-265,113.83459138870239,113.83463501930237,113.83712077140808,113.84914469718933,113.9992504119873,113.9992504119873,113.9992504119873,113.9992504119873,113.9992504119873,113.9992504119873,113.9992504119873,115.11702799797058,1,1.2619750499725342,None,,,,,,,,,,,,,,,,,,120,3,2025-02-25_16h33.18.488,comp,2024.2.4,60.04119838928326,2025-02-25 16h34.14.705073 -0500,
11,11,0,critical,dwh,35.0,2.1,lower,70.0,70.0,57.0,133.0,133.0,57.0,2,3.4105923175811768,None,,,,,0,0,0,0,0,11,11,4,115.13243389129639,,,,,,,,,,,,,,,,,,,,,,,,,,,,,,,,,,,,,,,,,,,,,,,,,,,,,,,,,,,,,,,,,,,,,,,,,,,,,,,,,70.0,70.0,57.0,133.0,133.0,57.0,2.1,2.12,-198,-285,0,-279,191,262,115.11782741546631,115.11787033081055,115.12000441551208,115.13243389129639,115.28232145309448,115.28232145309448,115.28232145309448,115.28232145309448,115.28232145309448,115.28232145309448,115.28232145309448,118.54995894432068,2,3.4105923175811768,None,,,,,,,,,,,,,,,,,,120,3,2025-02-25_16h33.18.488,comp,2024.2.4,60.04119838928326,2025-02-25 16h34.14.705073 -0500,
12,12,0,critical,wdh,20.0,2.1,upper,125.0,200.0,141.0,141.0,200.0,125.0,3,3.945269823074341,None,,,,,0,0,0,0,0,12,12,35,118.56584024429321,,,,,,,,,,,,,,,,,,,,,,,,,,,,,,,,,,,,,,,,,,,,,,,,,,,,,,,,,,,,,,,,,,,,,,,,,,,,,,,,,125.0,200.0,141.0,141.0,200.0,125.0,2.1,2.11,-266,268,0,266,229,-255,118.55080342292786,118.55084705352783,118.55312013626099,118.56584024429321,118.71575903892517,118.71575903892517,118.71575903892517,118.71575903892517,118.71575903892517,118.71575903892517,118.71575903892517,122.51698565483093,3,3.945269823074341,None,,,,,,,,,,,,,,,,,,120,3,2025-02-25_16h33.18.488,comp,2024.2.4,60.04119838928326,2025-02-25 16h34.14.705073 -0500,
13,13,0,critical,hwd,20.0,2.1,upper,200.0,125.0,125.0,200.0,141.0,141.0,1,3.532235622406006,None,,,,,0,0,0,0,0,13,13,43,122.5324022769928,,,,,,,,,,,,,,,,,,,,,,,,,,,,,,,,,,,,,,,,,,,,,,,,,,,,,,,,,,,,,,,,,,,,,,,,,,,,,,,,,200.0,125.0,125.0,200.0,141.0,141.0,2.1,2.12,-258,-270,0,-253,266,273,122.51779651641846,122.5178370475769,122.52002692222595,122.5324022769928,122.68238639831543,122.68238639831543,122.68238639831543,122.68238639831543,122.68238639831543,122.68238639831543,122.68238639831543,126.06691026687622,1,3.532235622406006,None,,,,,,,,,,,,,,,,,,120,3,2025-02-25_16h33.18.488,comp,2024.2.4,60.04119838928326,2025-02-25 16h34.14.705073 -0500,
14,14,0,critical,dhw,20.0,2.1,lower,78.0,78.0,133.0,57.0,57.0,133.0,2,2.1499013900756836,None,,,,,0,0,0,0,0,14,14,26,126.08237838745117,,,,,,,,,,,,,,,,,,,,,,,,,,,,,,,,,,,,,,,,,,,,,,,,,,,,,,,,,,,,,,,,,,,,,,,,,,,,,,,,,78.0,78.0,133.0,57.0,57.0,133.0,2.1,2.12,-164,-260,0,-268,191,283,126.06770467758179,126.0677444934845,126.06993412971497,126.08237838745117,126.23219537734985,126.23219537734985,126.23219537734985,126.23219537734985,126.23219537734985,126.23219537734985,126.23219537734985,128.24992537498474,2,2.1499013900756836,None,,,,,,,,,,,,,,,,,,120,3,2025-02-25_16h33.18.488,comp,2024.2.4,60.04119838928326,2025-02-25 16h34.14.705073 -0500,
15,15,0,filler_square,None,None,None,None,None,None,None,None,None,None,1,1.95042085647583,None,,,,,0,0,0,0,0,15,15,193,128.26538848876953,,,,,,,,,,,,,,,,,,,,,,,,,,,,,,,,,,,,,,,,,,,,,,,,,,,,,,,,,,,,,,,,,,,,,,,,,,,,,,,,,110.17731944715521,110.17731944715521,83.96355174026962,97.48320719713024,85.13324231064674,69.38379099071821,4.0,4.2,-200,16,0,-272,179,-3,128.250910282135,128.2509524822235,128.25331830978394,128.26538848876953,128.4155113697052,128.4155113697052,128.4155113697052,128.4155113697052,128.4155113697052,128.4155113697052,128.4155113697052,130.23334097862244,1,1.95042085647583,None,,,,,,,,,,,,,,,,,,120,3,2025-02-25_16h33.18.488,comp,2024.2.4,60.04119838928326,2025-02-25 16h34.14.705073 -0500,
16,16,0,filler_square,None,None,None,None,None,None,None,None,None,None,1,0.8160157203674316,None,,,,,0,0,0,0,0,16,16,200,130.24887228012085,,,,,,,,,,,,,,,,,,,,,,,,,,,,,,,,,,,,,,,,,,,,,,,,,,,,,,,,,,,,,,,,,,,,,,,,,,,,,,,,,130.9296847988109,130.9296847988109,77.36154513008967,77.15468769764783,64.25002494565062,76.49228760791671,1.0,1.3,280,-284,480,-280,653,-289,130.23427867889404,130.23431849479675,130.23672366142273,130.24887228012085,130.39900541305542,130.39900541305542,130.39900541305542,130.39900541305542,130.39900541305542,130.39900541305542,130.39900541305542,131.06672549247742,1,0.8160157203674316,None,,,,,,,,,,,,,,,,,,120,3,2025-02-25_16h33.18.488,comp,2024.2.4,60.04119838928326,2025-02-25 16h34.14.705073 -0500,
17,17,0,critical,whd,35.0,1.0,lower,57.0,133.0,133.0,57.0,70.0,70.0,2,2.1667003631591797,None,,,,,0,0,0,0,0,17,17,84,131.0822238922119,,,,,,,,,,,,,,,,,,,,,,,,,,,,,,,,,,,,,,,,,,,,,,,,,,,,,,,,,,,,,,,,,,,,,,,,,,,,,,,,,57.0,133.0,133.0,57.0,70.0,70.0,1.0,1.3,289,-265,480,-255,640,-281,131.06748819351196,131.06752967834473,131.06954383850098,131.0822238922119,131.2320852279663,131.2320852279663,131.2320852279663,131.2320852279663,131.2320852279663,131.2320852279663,131.2320852279663,133.26660227775574,2,2.1667003631591797,None,,,,,,,,,,,,,,,,,,120,3,2025-02-25_16h33.18.488,comp,2024.2.4,60.04119838928326,2025-02-25 16h34.14.705073 -0500,
18,18,0,filler_random,None,None,None,None,None,None,None,None,None,None,3,1.036118507385254,None,,,,,0,0,0,0,0,18,18,145,133.28208875656128,,,,,,,,,,,,,,,,,,,,,,,,,,,,,,,,,,,,,,,,,,,,,,,,,,,,,,,,,,,,,,,,,,,,,,,,,,,,,,,,,199.18835447279002,63.92840441110831,70.80974119697005,127.68607864790629,163.5681206621354,183.16364483609323,3.0,3.1,-192,256,0,2,251,-257,133.26751708984375,133.26755809783936,133.2701506614685,133.28208875656128,133.43235874176025,133.43235874176025,133.43235874176025,133.43235874176025,133.43235874176025,133.43235874176025,133.43235874176025,134.33341240882874,3,1.036118507385254,None,,,,,,,,,,,,,,,,,,120,3,2025-02-25_16h33.18.488,comp,2024.2.4,60.04119838928326,2025-02-25 16h34.14.705073 -0500,
19,19,0,critical,wdh,20.0,2.1,lower,57.0,133.0,78.0,78.0,133.0,57.0,1,3.3534531593322754,None,,,,,0,0,0,0,0,19,19,10,134.3488130569458,,,,,,,,,,,,,,,,,,,,,,,,,,,,,,,,,,,,,,,,,,,,,,,,,,,,,,,,,,,,,,,,,,,,,,,,,,,,,,,,,57.0,133.0,78.0,78.0,133.0,57.0,2.1,2.12,-202,-266,0,-254,164,260,134.33421540260315,134.33425378799438,134.33667540550232,134.3488130569458,134.4989755153656,134.4989755153656,134.4989755153656,134.4989755153656,134.4989755153656,134.4989755153656,134.4989755153656,137.71646070480347,1,3.3534531593322754,None,,,,,,,,,,,,,,,,,,120,3,2025-02-25_16h33.18.488,comp,2024.2.4,60.04119838928326,2025-02-25 16h34.14.705073 -0500,
20,20,0,filler_random,None,None,None,None,None,None,None,None,None,None,3,6.4270477294921875,None,,,,,0,0,0,0,0,20,20,134,137.73194909095764,,,,,,,,,,,,,,,,,,,,,,,,,,,,,,,,,,,,,,,,,,,,,,,,,,,,,,,,,,,,,,,,,,,,,,,,,,,,,,,,,80.32400087396505,175.7825148586647,130.77376156687123,130.79641383026689,132.81826805783743,155.52756616140204,1.0,1.2,-249,-1,0,6,239,-17,137.71736478805542,137.71740698814392,137.7199034690857,137.73194909095764,137.8822751045227,137.8822751045227,137.8822751045227,137.8822751045227,137.8822751045227,137.8822751045227,137.8822751045227,144.16660118103027,3,6.4270477294921875,None,,,,,,,,,,,,,,,,,,120,3,2025-02-25_16h33.18.488,comp,2024.2.4,60.04119838928326,2025-02-25 16h34.14.705073 -0500,
21,21,0,critical,dhw,20.0,3.0,upper,141.0,141.0,200.0,125.0,125.0,200.0,3,1.200394868850708,None,,,,,0,0,0,0,0,21,21,57,144.18224573135376,,,,,,,,,,,,,,,,,,,,,,,,,,,,,,,,,,,,,,,,,,,,,,,,,,,,,,,,,,,,,,,,,,,,,,,,,,,,,,,,,141.0,141.0,200.0,125.0,125.0,200.0,3.0,3.2,-229,-257,0,-2,258,267,144.16741394996643,144.16745805740356,144.17021989822388,144.18224573135376,144.33225750923157,144.33225750923157,144.33225750923157,144.33225750923157,144.33225750923157,144.33225750923157,144.33225750923157,145.39991092681885,3,1.200394868850708,None,,,,,,,,,,,,,,,,,,120,3,2025-02-25_16h33.18.488,comp,2024.2.4,60.04119838928326,2025-02-25 16h34.14.705073 -0500,
22,22,0,filler_random,None,None,None,None,None,None,None,None,None,None,1,0.9437844753265381,None,,,,,0,0,0,0,0,22,22,136,145.41529059410095,,,,,,,,,,,,,,,,,,,,,,,,,,,,,,,,,,,,,,,,,,,,,,,,,,,,,,,,,,,,,,,,,,,,,,,,,,,,,,,,,183.01318769529536,168.57191726666196,172.65572829105685,122.46911790833057,89.57333932283572,133.30403840709494,2.1,2.12,-242,-261,0,-275,224,287,145.40086197853088,145.4009039402008,145.40298295021057,145.41529059410095,145.56568121910095,145.56568121910095,145.56568121910095,145.56568121910095,145.56568121910095,145.56568121910095,145.56568121910095,146.36667323112488,1,0.9437844753265381,None,,,,,,,,,,,,,,,,,,120,3,2025-02-25_16h33.18.488,comp,2024.2.4,60.04119838928326,2025-02-25 16h34.14.705073 -0500,
23,23,0,critical,whd,20.0,2.1,lower,57.0,133.0,133.0,57.0,78.0,78.0,2,3.5520312786102295,None,,,,,0,0,0,0,0,23,23,38,146.3821985721588,,,,,,,,,,,,,,,,,,,,,,,,,,,,,,,,,,,,,,,,,,,,,,,,,,,,,,,,,,,,,,,,,,,,,,,,,,,,,,,,,57.0,133.0,133.0,57.0,78.0,78.0,2.1,2.11,-191,281,0,261,164,-285,146.3674759864807,146.36751675605774,146.37017941474915,146.3821985721588,146.53197932243347,146.53197932243347,146.53197932243347,146.53197932243347,146.53197932243347,146.53197932243347,146.53197932243347,149.94972777366638,2,3.5520312786102295,None,,,,,,,,,,,,,,,,,,120,3,2025-02-25_16h33.18.488,comp,2024.2.4,60.04119838928326,2025-02-25 16h34.14.705073 -0500,
24,24,0,filler_square,None,None,None,None,None,None,None,None,None,None,3,2.3689165115356445,None,,,,,0,0,0,0,0,24,24,177,149.96527242660522,,,,,,,,,,,,,,,,,,,,,,,,,,,,,,,,,,,,,,,,,,,,,,,,,,,,,,,,,,,,,,,,,,,,,,,,,,,,,,,,,132.93210665304258,99.4467992982012,118.04573931917704,102.34243015230345,134.14040863976,134.14040863976,3.0,3.2,-197,-268,0,-15,214,270,149.95070838928223,149.95075058937073,149.95331287384033,149.96527242660522,150.1155116558075,150.1155116558075,150.1155116558075,150.1155116558075,150.1155116558075,150.1155116558075,150.1155116558075,152.34987211227417,3,2.3689165115356445,None,,,,,,,,,,,,,,,,,,120,3,2025-02-25_16h33.18.488,comp,2024.2.4,60.04119838928326,2025-02-25 16h34.14.705073 -0500,
25,25,0,catch,None,None,None,None,None,None,None,None,None,None,3,0.8173835277557373,None,,,,,0,0,0,0,0,25,25,125,152.36531949043274,,,,,,,,,,,,,,,,,,,,,,,,,,,,,,,,,,,,,,,,,,,,,,,,,,,,,,,,,,,,,,,,,,,,,,,,,,,,,,,,,59,131,124,66,160,165,2.2,2.21,-194,-275,0,269,212,268,152.35093474388123,152.35099601745605,152.35314297676086,152.36531949043274,152.51541757583618,152.51541757583618,152.51541757583618,152.51541757583618,152.51541757583618,152.51541757583618,152.51541757583618,153.19985055923462,3,0.8173835277557373,None,,,,,,,,,,,,,,,,,,120,3,2025-02-25_16h33.18.488,comp,2024.2.4,60.04119838928326,2025-02-25 16h34.14.705073 -0500,
26,26,0,filler_square,None,None,None,None,None,None,None,None,None,None,3,1.0169024467468262,None,,,,,0,0,0,0,0,26,26,188,153.21525287628174,,,,,,,,,,,,,,,,,,,,,,,,,,,,,,,,,,,,,,,,,,,,,,,,,,,,,,,,,,,,,,,,,,,,,,,,,,,,,,,,,109.5034881712516,111.28755363368754,57.360221214766334,84.93444094202319,121.83021379705816,121.83021379705816,3.0,3.1,-194,256,0,-14,199,-258,153.20079040527344,153.20083117485046,153.20338320732117,153.21525287628174,153.36544728279114,153.36544728279114,153.36544728279114,153.36544728279114,153.36544728279114,153.36544728279114,153.36544728279114,154.2498161792755,3,1.0169024467468262,None,,,,,,,,,,,,,,,,,,120,3,2025-02-25_16h33.18.488,comp,2024.2.4,60.04119838928326,2025-02-25 16h34.14.705073 -0500,
27,27,0,critical,whd,20.0,2.1,upper,125.0,200.0,200.0,125.0,141.0,141.0,2,2.742133378982544,None,,,,,0,0,0,0,0,27,27,15,154.2651960849762,,,,,,,,,,,,,,,,,,,,,,,,,,,,,,,,,,,,,,,,,,,,,,,,,,,,,,,,,,,,,,,,,,,,,,,,,,,,,,,,,125.0,200.0,200.0,125.0,141.0,141.0,2.1,2.12,-258,-280,0,-284,229,282,154.2506275177002,154.25066757202148,154.2532548904419,154.2651960849762,154.41555380821228,154.41555380821228,154.41555380821228,154.41555380821228,154.41555380821228,154.41555380821228,154.41555380821228,157.01660776138306,2,2.742133378982544,None,,,,,,,,,,,,,,,,,,120,3,2025-02-25_16h33.18.488,comp,2024.2.4,60.04119838928326,2025-02-25 16h34.14.705073 -0500,
28,28,0,critical,dwh,35.0,1.0,upper,127.0,127.0,125.0,200.0,200.0,125.0,3,2.0857291221618652,None,,,,,0,0,0,0,0,28,28,61,157.03224802017212,,,,,,,,,,,,,,,,,,,,,,,,,,,,,,,,,,,,,,,,,,,,,,,,,,,,,,,,,,,,,,,,,,,,,,,,,,,,,,,,,127.0,127.0,125.0,200.0,200.0,125.0,1.0,1.1,-740,258,-480,288,-222,284,157.0174207687378,157.0174629688263,157.01991391181946,157.03224802017212,157.18219089508057,157.18219089508057,157.18219089508057,157.18219089508057,157.18219089508057,157.18219089508057,157.18219089508057,159.13337683677673,3,2.0857291221618652,None,,,,,,,,,,,,,,,,,,120,3,2025-02-25_16h33.18.488,comp,2024.2.4,60.04119838928326,2025-02-25 16h34.14.705073 -0500,
29,29,0,critical,dhw,35.0,1.0,upper,127.0,127.0,200.0,125.0,125.0,200.0,3,3.0103156566619873,None,,,,,0,0,0,0,0,29,29,49,159.14856147766113,,,,,,,,,,,,,,,,,,,,,,,,,,,,,,,,,,,,,,,,,,,,,,,,,,,,,,,,,,,,,,,,,,,,,,,,,,,,,,,,,127.0,127.0,200.0,125.0,125.0,200.0,1.0,1.1,-702,255,-480,273,-222,275,159.13418889045715,159.13423037528992,159.13659930229187,159.14856147766113,159.29884791374207,159.29884791374207,159.29884791374207,159.29884791374207,159.29884791374207,159.29884791374207,159.29884791374207,162.1666202545166,3,3.0103156566619873,None,,,,,,,,,,,,,,,,,,120,3,2025-02-25_16h33.18.488,comp,2024.2.4,60.04119838928326,2025-02-25 16h34.14.705073 -0500,
30,30,0,critical,hwd,35.0,2.1,upper,200.0,125.0,125.0,200.0,127.0,127.0,1,2.0088324546813965,None,,,,,0,0,0,0,0,30,30,17,162.18207550048828,,,,,,,,,,,,,,,,,,,,,,,,,,,,,,,,,,,,,,,,,,,,,,,,,,,,,,,,,,,,,,,,,,,,,,,,,,,,,,,,,200.0,125.0,125.0,200.0,127.0,127.0,2.1,2.12,-258,-272,0,-275,260,277,162.16742658615112,162.16746854782104,162.16991686820984,162.18207550048828,162.33214139938354,162.33214139938354,162.33214139938354,162.33214139938354,162.33214139938354,162.33214139938354,162.33214139938354,164.199933052063,1,2.0088324546813965,None,,,,,,,,,,,,,,,,,,120,3,2025-02-25_16h33.18.488,comp,2024.2.4,60.04119838928326,2025-02-25 16h34.14.705073 -0500,
31,31,0,critical,whd,35.0,2.1,upper,125.0,200.0,200.0,125.0,127.0,127.0,1,5.911381006240845,None,,,,,0,0,0,0,0,31,31,37,164.21551942825317,,,,,,,,,,,,,,,,,,,,,,,,,,,,,,,,,,,,,,,,,,,,,,,,,,,,,,,,,,,,,,,,,,,,,,,,,,,,,,,,,125.0,200.0,200.0,125.0,127.0,127.0,2.1,2.11,-258,270,0,284,222,-265,164.20075011253357,164.20079112052917,164.20293879508972,164.21551942825317,164.36542320251465,164.36542320251465,164.36542320251465,164.36542320251465,164.36542320251465,164.36542320251465,164.36542320251465,170.13328766822815,1,5.911381006240845,None,,,,,,,,,,,,,,,,,,120,3,2025-02-25_16h33.18.488,comp,2024.2.4,60.04119838928326,2025-02-25 16h34.14.705073 -0500,
32,32,0,filler_random,None,None,None,None,None,None,None,None,None,None,3,1.1212522983551025,None,,,,,0,0,0,0,0,32,32,146,170.1487636566162,,,,,,,,,,,,,,,,,,,,,,,,,,,,,,,,,,,,,,,,,,,,,,,,,,,,,,,,,,,,,,,,,,,,,,,,,,,,,,,,,71.14688366389363,103.99053273365217,79.30723523377179,101.11010639425922,158.3427159125847,83.3867601992816,2.2,2.22,-199,279,0,-266,188,-262,170.13422083854675,170.134263753891,170.1366446018219,170.1487636566162,170.29875087738037,170.29875087738037,170.29875087738037,170.29875087738037,170.29875087738037,170.29875087738037,170.29875087738037,171.28300857543945,3,1.1212522983551025,None,,,,,,,,,,,,,,,,,,120,3,2025-02-25_16h33.18.488,comp,2024.2.4,60.04119838928326,2025-02-25 16h34.14.705073 -0500,
33,33,0,filler_square,None,None,None,None,None,None,None,None,None,None,1,3.860333204269409,None,,,,,0,0,0,0,0,33,33,197,171.29845905303955,,,,,,,,,,,,,,,,,,,,,,,,,,,,,,,,,,,,,,,,,,,,,,,,,,,,,,,,,,,,,,,,,,,,,,,,,,,,,,,,,140.96077227574182,135.15671907830404,140.29293201634067,123.39187984754062,144.12507515428328,144.12507515428328,2.1,2.12,-225,-284,0,-265,230,272,171.28418278694153,171.28422665596008,171.28658270835876,171.29845905303955,171.44867372512817,171.44867372512817,171.44867372512817,171.44867372512817,171.44867372512817,171.44867372512817,171.44867372512817,175.16647863388062,1,3.860333204269409,None,,,,,,,,,,,,,,,,,,120,3,2025-02-25_16h33.18.488,comp,2024.2.4,60.04119838928326,2025-02-25 16h34.14.705073 -0500,
34,34,0,filler_square,None,None,None,None,None,None,None,None,None,None,3,1.450148105621338,None,,,,,0,0,0,0,0,34,34,192,175.18210530281067,,,,,,,,,,,,,,,,,,,,,,,,,,,,,,,,,,,,,,,,,,,,,,,,,,,,,,,,,,,,,,,,,,,,,,,,,,,,,,,,,164.77219058019227,159.37764174012239,108.89883152923899,151.10103189844693,197.40328601544346,197.40328601544346,3.0,3.2,-251,-274,0,17,270,267,175.1674461364746,175.16748785972595,175.16989731788635,175.18210530281067,175.33214139938354,175.33214139938354,175.33214139938354,175.33214139938354,175.33214139938354,175.33214139938354,175.33214139938354,176.64998173713684,3,1.450148105621338,None,,,,,,,,,,,,,,,,,,120,3,2025-02-25_16h33.18.488,comp,2024.2.4,60.04119838928326,2025-02-25 16h34.14.705073 -0500,
35,35,0,critical,hwd,35.0,2.1,upper,200.0,125.0,125.0,200.0,127.0,127.0,1,1.8936896324157715,None,,,,,0,0,0,0,0,35,35,41,176.66504859924316,,,,,,,,,,,,,,,,,,,,,,,,,,,,,,,,,,,,,,,,,,,,,,,,,,,,,,,,,,,,,,,,,,,,,,,,,,,,,,,,,200.0,125.0,125.0,200.0,127.0,127.0,2.1,2.12,-258,-265,0,-262,260,272,176.65081977844238,176.65086102485657,176.65325570106506,176.66504859924316,176.8154194355011,176.8154194355011,176.8154194355011,176.8154194355011,176.8154194355011,176.8154194355011,176.8154194355011,178.56649017333984,1,1.8936896324157715,None,,,,,,,,,,,,,,,,,,120,3,2025-02-25_16h33.18.488,comp,2024.2.4,60.04119838928326,2025-02-25 16h34.14.705073 -0500,
36,36,0,filler_random,None,None,None,None,None,None,None,None,None,None,1,2.719916343688965,None,,,,,0,0,0,0,0,36,36,152,178.5820713043213,,,,,,,,,,,,,,,,,,,,,,,,,,,,,,,,,,,,,,,,,,,,,,,,,,,,,,,,,,,,,,,,,,,,,,,,,,,,,,,,,92.79073251247459,135.38204940547078,58.60144556967692,180.86487699186006,115.20966619798472,94.31553652967715,2.1,2.11,-254,276,0,271,234,-262,178.5674798488617,178.5675232410431,178.56995391845703,178.5820713043213,178.73213005065918,178.73213005065918,178.73213005065918,178.73213005065918,178.73213005065918,178.73213005065918,178.73213005065918,181.3164656162262,1,2.719916343688965,None,,,,,,,,,,,,,,,,,,120,3,2025-02-25_16h33.18.488,comp,2024.2.4,60.04119838928326,2025-02-25 16h34.14.705073 -0500,
37,37,0,critical,hdw,20.0,4.0,lower,133.0,57.0,78.0,78.0,57.0,133.0,3,5.794798851013184,None,,,,,0,0,0,0,0,37,37,118,181.33181977272034,,,,,,,,,,,,,,,,,,,,,,,,,,,,,,,,,,,,,,,,,,,,,,,,,,,,,,,,,,,,,,,,,,,,,,,,,,,,,,,,,133.0,57.0,78.0,78.0,57.0,133.0,4.0,4.1,-164,-283,0,19,202,-253,181.31728529930115,181.3173267841339,181.3198893070221,181.33181977272034,181.48229479789734,181.48229479789734,181.48229479789734,181.48229479789734,181.48229479789734,181.48229479789734,181.48229479789734,187.13293147087097,3,5.794798851013184,None,,,,,,,,,,,,,,,,,,120,3,2025-02-25_16h33.18.488,comp,2024.2.4,60.04119838928326,2025-02-25 16h34.14.705073 -0500,
38,38,0,critical,hwd,35.0,2.1,lower,133.0,57.0,57.0,133.0,70.0,70.0,1,4.569183349609375,None,,,,,0,0,0,0,0,38,38,16,187.1486575603485,,,,,,,,,,,,,,,,,,,,,,,,,,,,,,,,,,,,,,,,,,,,,,,,,,,,,,,,,,,,,,,,,,,,,,,,,,,,,,,,,133.0,57.0,57.0,133.0,70.0,70.0,2.1,2.11,-191,273,0,270,198,-274,187.13372564315796,187.13376545906067,187.13643074035645,187.1486575603485,187.29843974113464,187.29843974113464,187.29843974113464,187.29843974113464,187.29843974113464,187.29843974113464,187.29843974113464,191.7328016757965,1,4.569183349609375,None,,,,,,,,,,,,,,,,,,120,3,2025-02-25_16h33.18.488,comp,2024.2.4,60.04119838928326,2025-02-25 16h34.14.705073 -0500,
39,39,0,filler_square,None,None,None,None,None,None,None,None,None,None,3,1.5783543586730957,None,,,,,0,0,0,0,0,39,39,206,191.74831223487854,,,,,,,,,,,,,,,,,,,,,,,,,,,,,,,,,,,,,,,,,,,,,,,,,,,,,,,,,,,,,,,,,,,,,,,,,,,,,,,,,71.00339389278795,78.65202821964937,60.63348211791133,59.40392904321963,83.34910617521993,83.34910617521993,3.0,3.1,-165,272,0,0,167,-270,191.73377227783203,191.7338149547577,191.73635339736938,191.74831223487854,191.898353099823,191.898353099823,191.898353099823,191.898353099823,191.898353099823,191.898353099823,191.898353099823,193.33298349380493,3,1.5783543586730957,None,,,,,,,,,,,,,,,,,,120,3,2025-02-25_16h33.18.488,comp,2024.2.4,60.04119838928326,2025-02-25 16h34.14.705073 -0500,
40,40,0,critical,wdh,35.0,2.1,lower,57.0,133.0,70.0,70.0,133.0,57.0,1,2.346902370452881,None,,,,,0,0,0,0,0,40,40,8,193.34849333763123,,,,,,,,,,,,,,,,,,,,,,,,,,,,,,,,,,,,,,,,,,,,,,,,,,,,,,,,,,,,,,,,,,,,,,,,,,,,,,,,,57.0,133.0,70.0,70.0,133.0,57.0,2.1,2.11,-198,288,0,279,160,-259,193.3337950706482,193.33383679389954,193.33615255355835,193.34849333763123,193.49838542938232,193.49838542938232,193.49838542938232,193.49838542938232,193.49838542938232,193.49838542938232,193.49838542938232,195.69957399368286,1,2.346902370452881,None,,,,,,,,,,,,,,,,,,120,3,2025-02-25_16h33.18.488,comp,2024.2.4,60.04119838928326,2025-02-25 16h34.14.705073 -0500,
41,41,0,critical,whd,20.0,2.1,upper,125.0,200.0,200.0,125.0,141.0,141.0,1,5.307730197906494,None,,,,,0,0,0,0,0,41,41,39,195.7151758670807,,,,,,,,,,,,,,,,,,,,,,,,,,,,,,,,,,,,,,,,,,,,,,,,,,,,,,,,,,,,,,,,,,,,,,,,,,,,,,,,,125.0,200.0,200.0,125.0,141.0,141.0,2.1,2.12,-258,-287,0,-258,229,266,195.70038151741028,195.70042300224304,195.702778339386,195.7151758670807,195.86542057991028,195.86542057991028,195.86542057991028,195.86542057991028,195.86542057991028,195.86542057991028,195.86542057991028,201.03311586380005,1,5.307730197906494,None,,,,,,,,,,,,,,,,,,120,3,2025-02-25_16h33.18.488,comp,2024.2.4,60.04119838928326,2025-02-25 16h34.14.705073 -0500,
42,42,0,filler_square,None,None,None,None,None,None,None,None,None,None,1,6.174405097961426,None,,,,,0,0,0,0,0,42,42,180,201.0485713481903,,,,,,,,,,,,,,,,,,,,,,,,,,,,,,,,,,,,,,,,,,,,,,,,,,,,,,,,,,,,,,,,,,,,,,,,,,,,,,,,,63.360526076795786,63.360526076795786,62.30771473774525,62.99512103580386,59.91070708956965,62.69990748679261,2.1,2.12,-159,-277,0,-268,159,280,201.03421449661255,201.03425884246826,201.03639459609985,201.0485713481903,201.19824600219727,201.19824600219727,201.19824600219727,201.19824600219727,201.19824600219727,201.19824600219727,201.19824600219727,207.2328004837036,1,6.174405097961426,None,,,,,,,,,,,,,,,,,,120,3,2025-02-25_16h33.18.488,comp,2024.2.4,60.04119838928326,2025-02-25 16h34.14.705073 -0500,
43,43,0,filler_random,None,None,None,None,None,None,None,None,None,None,2,2.415820598602295,None,,,,,0,0,0,0,0,43,43,148,207.24851608276367,,,,,,,,,,,,,,,,,,,,,,,,,,,,,,,,,,,,,,,,,,,,,,,,,,,,,,,,,,,,,,,,,,,,,,,,,,,,,,,,,136.91956791218237,92.86016804238216,119.83992810508374,169.90206062711374,86.54764699204092,62.380359001603274,4.0,4.2,-227,-3,0,-275,212,18,207.23369693756104,207.23373746871948,207.23623061180115,207.24851608276367,207.39848256111145,207.39848256111145,207.39848256111145,207.39848256111145,207.39848256111145,207.39848256111145,207.39848256111145,209.6662003993988,2,2.415820598602295,None,,,,,,,,,,,,,,,,,,120,3,2025-02-25_16h33.18.488,comp,2024.2.4,60.04119838928326,2025-02-25 16h34.14.705073 -0500,
44,44,0,filler_square,None,None,None,None,None,None,None,None,None,None,1,2.044667959213257,None,,,,,0,0,0,0,0,44,44,183,209.68177390098572,,,,,,,,,,,,,,,,,,,,,,,,,,,,,,,,,,,,,,,,,,,,,,,,,,,,,,,,,,,,,,,,,,,,,,,,,,,,,,,,,87.13761130126113,78.5403838673691,89.80227899801788,89.80227899801788,63.29829079715872,72.30946551560118,4.0,4.1,-180,-262,0,-9,177,-264,209.66718196868896,209.66722440719604,209.66939330101013,209.68177390098572,209.83165001869202,209.83165001869202,209.83165001869202,209.83165001869202,209.83165001869202,209.83165001869202,209.83165001869202,211.732759475708,1,2.044667959213257,None,,,,,,,,,,,,,,,,,,120,3,2025-02-25_16h33.18.488,comp,2024.2.4,60.04119838928326,2025-02-25 16h34.14.705073 -0500,
45,45,0,critical,wdh,35.0,3.0,lower,57.0,133.0,70.0,70.0,133.0,57.0,3,2.2504782676696777,None,,,,,0,0,0,0,0,45,45,74,211.7484209537506,,,,,,,,,,,,,,,,,,,,,,,,,,,,,,,,,,,,,,,,,,,,,,,,,,,,,,,,,,,,,,,,,,,,,,,,,,,,,,,,,57.0,133.0,70.0,70.0,133.0,57.0,3.0,3.1,-198,251,0,-13,160,-259,211.73356866836548,211.73361134529114,211.73619055747986,211.7484209537506,211.8982446193695,211.8982446193695,211.8982446193695,211.8982446193695,211.8982446193695,211.8982446193695,211.8982446193695,214.01605319976807,3,2.2504782676696777,None,,,,,,,,,,,,,,,,,,120,3,2025-02-25_16h33.18.488,comp,2024.2.4,60.04119838928326,2025-02-25 16h34.14.705073 -0500,
46,46,0,filler_random,None,None,None,None,None,None,None,None,None,None,3,6.000370979309082,None,,,,,0,0,0,0,0,46,46,161,214.03152537345886,,,,,,,,,,,,,,,,,,,,,,,,,,,,,,,,,,,,,,,,,,,,,,,,,,,,,,,,,,,,,,,,,,,,,,,,,,,,,,,,,135.43002291795932,139.52765958098132,62.591910672646215,129.62017061529772,177.96664495920487,90.85266522788123,2.2,2.22,-231,274,0,-278,206,-284,214.0170648097992,214.01710677146912,214.0194957256317,214.03152537345886,214.18178939819336,214.18178939819336,214.18178939819336,214.18178939819336,214.18178939819336,214.18178939819336,214.18178939819336,220.04941630363464,3,6.000370979309082,None,,,,,,,,,,,,,,,,,,120,3,2025-02-25_16h33.18.488,comp,2024.2.4,60.04119838928326,2025-02-25 16h34.14.705073 -0500,
47,47,0,critical,whd,35.0,2.1,lower,57.0,133.0,133.0,57.0,70.0,70.0,2,1.4776630401611328,None,,,,,0,0,0,0,0,47,47,12,220.0647749900818,,,,,,,,,,,,,,,,,,,,,,,,,,,,,,,,,,,,,,,,,,,,,,,,,,,,,,,,,,,,,,,,,,,,,,,,,,,,,,,,,57.0,133.0,133.0,57.0,70.0,70.0,2.1,2.12,-191,-265,0,-282,160,269,220.05022954940796,220.05027151107788,220.05269145965576,220.0647749900818,220.2148723602295,220.2148723602295,220.2148723602295,220.2148723602295,220.2148723602295,220.2148723602295,220.2148723602295,221.54933953285217,2,1.4776630401611328,None,,,,,,,,,,,,,,,,,,120,3,2025-02-25_16h33.18.488,comp,2024.2.4,60.04119838928326,2025-02-25 16h34.14.705073 -0500,
48,48,0,catch,None,None,None,None,None,None,None,None,None,None,3,0.9456064701080322,None,,,,,0,0,0,0,0,48,48,121,221.56503224372864,,,,,,,,,,,,,,,,,,,,,,,,,,,,,,,,,,,,,,,,,,,,,,,,,,,,,,,,,,,,,,,,,,,,,,,,,,,,,,,,,77,113,68,122,199,126,4.0,4.1,-214,-268,0,9,220,-286,221.55034637451172,221.55038690567017,221.55241012573242,221.56503224372864,221.71506690979004,221.71506690979004,221.71506690979004,221.71506690979004,221.71506690979004,221.71506690979004,221.71506690979004,222.51624941825867,3,0.9456064701080322,None,,,,,,,,,,,,,,,,,,120,3,2025-02-25_16h33.18.488,comp,2024.2.4,60.04119838928326,2025-02-25 16h34.14.705073 -0500,
49,49,0,critical,whd,35.0,3.0,upper,125.0,200.0,200.0,125.0,127.0,127.0,1,5.363349914550781,None,,,,,0,0,0,0,0,49,49,87,222.531644821167,,,,,,,,,,,,,,,,,,,,,,,,,,,,,,,,,,,,,,,,,,,,,,,,,,,,,,,,,,,,,,,,,,,,,,,,,,,,,,,,,125.0,200.0,200.0,125.0,127.0,127.0,3.0,3.2,-258,-265,0,-3,222,281,222.51705121994019,222.51709270477295,222.5191855430603,222.531644821167,222.68239974975586,222.68239974975586,222.68239974975586,222.68239974975586,222.68239974975586,222.68239974975586,222.68239974975586,227.89980387687683,1,5.363349914550781,None,,,,,,,,,,,,,,,,,,120,3,2025-02-25_16h33.18.488,comp,2024.2.4,60.04119838928326,2025-02-25 16h34.14.705073 -0500,
50,50,0,critical,whd,20.0,2.1,lower,57.0,133.0,133.0,57.0,78.0,78.0,2,2.891672372817993,None,,,,,0,0,0,0,0,50,50,14,227.91510939598083,,,,,,,,,,,,,,,,,,,,,,,,,,,,,,,,,,,,,,,,,,,,,,,,,,,,,,,,,,,,,,,,,,,,,,,,,,,,,,,,,57.0,133.0,133.0,57.0,78.0,78.0,2.1,2.11,-191,287,0,257,164,-262,227.90060019493103,227.9006416797638,227.90274024009705,227.91510939598083,228.06481742858887,228.06481742858887,228.06481742858887,228.06481742858887,228.06481742858887,228.06481742858887,228.06481742858887,230.81608057022095,2,2.891672372817993,None,,,,,,,,,,,,,,,,,,120,3,2025-02-25_16h33.18.488,comp,2024.2.4,60.04119838928326,2025-02-25 16h34.14.705073 -0500,
51,51,0,filler_square,None,None,None,None,None,None,None,None,None,None,1,1.5105931758880615,None,,,,,0,0,0,0,0,51,51,189,230.83171558380127,,,,,,,,,,,,,,,,,,,,,,,,,,,,,,,,,,,,,,,,,,,,,,,,,,,,,,,,,,,,,,,,,,,,,,,,,,,,,,,,,140.25019083295973,140.25019083295973,90.69120505308996,109.54607962746928,118.53222523174007,93.60982924505677,2.2,2.21,-221,-257,0,274,198,284,230.81704020500183,230.81708312034607,230.8192274570465,230.83171558380127,230.98161053657532,230.98161053657532,230.98161053657532,230.98161053657532,230.98161053657532,230.98161053657532,230.98161053657532,232.3494210243225,1,1.5105931758880615,None,,,,,,,,,,,,,,,,,,120,3,2025-02-25_16h33.18.488,comp,2024.2.4,60.04119838928326,2025-02-25 16h34.14.705073 -0500,
52,52,0,filler_random,None,None,None,None,None,None,None,None,None,None,2,2.5300912857055664,None,,,,,0,0,0,0,0,52,52,138,232.36524486541748,,,,,,,,,,,,,,,,,,,,,,,,,,,,,,,,,,,,,,,,,,,,,,,,,,,,,,,,,,,,,,,,,,,,,,,,,,,,,,,,,130.2669494185849,65.94418419095071,90.92268974482917,198.15680101391763,118.02601657034413,116.7225689828844,4.0,4.1,-228,-286,0,5,253,-251,232.3503246307373,232.3503658771515,232.35248732566833,232.36524486541748,232.51488494873047,232.51488494873047,232.51488494873047,232.51488494873047,232.51488494873047,232.51488494873047,232.51488494873047,234.8996970653534,2,2.5300912857055664,None,,,,,,,,,,,,,,,,,,120,3,2025-02-25_16h33.18.488,comp,2024.2.4,60.04119838928326,2025-02-25 16h34.14.705073 -0500,
53,53,0,critical,hwd,20.0,4.0,upper,200.0,125.0,125.0,200.0,141.0,141.0,2,3.4836103916168213,None,,,,,0,0,0,0,0,53,53,107,234.91498851776123,,,,,,,,,,,,,,,,,,,,,,,,,,,,,,,,,,,,,,,,,,,,,,,,,,,,,,,,,,,,,,,,,,,,,,,,,,,,,,,,,200.0,125.0,125.0,200.0,141.0,141.0,4.0,4.2,-258,-14,0,-277,266,-10,234.90051436424255,234.9005572795868,234.90266370773315,234.91498851776123,235.0650577545166,235.0650577545166,235.0650577545166,235.0650577545166,235.0650577545166,235.0650577545166,235.0650577545166,238.416157245636,2,3.4836103916168213,None,,,,,,,,,,,,,,,,,,120,3,2025-02-25_16h33.18.488,comp,2024.2.4,60.04119838928326,2025-02-25 16h34.14.705073 -0500,
54,54,0,filler_square,None,None,None,None,None,None,None,None,None,None,1,1.1273150444030762,None,,,,,0,0,0,0,0,54,54,173,238.43134927749634,,,,,,,,,,,,,,,,,,,,,,,,,,,,,,,,,,,,,,,,,,,,,,,,,,,,,,,,,,,,,,,,,,,,,,,,,,,,,,,,,101.80491172178576,101.80491172178576,72.53860000019013,66.32847634238641,69.77870342508194,63.41910317954619,3.0,3.1,-180,262,0,-15,161,-265,238.41711616516113,238.41715717315674,238.41951942443848,238.43134927749634,238.58136701583862,238.58136701583862,238.58136701583862,238.58136701583862,238.58136701583862,238.58136701583862,238.58136701583862,239.56761360168457,1,1.1273150444030762,None,,,,,,,,,,,,,,,,,,120,3,2025-02-25_16h33.18.488,comp,2024.2.4,60.04119838928326,2025-02-25 16h34.14.705073 -0500,
55,55,0,filler_random,None,None,None,None,None,None,None,None,None,None,2,1.3677704334259033,None,,,,,0,0,0,0,0,55,55,165,239.58173394203186,,,,,,,,,,,,,,,,,,,,,,,,,,,,,,,,,,,,,,,,,,,,,,,,,,,,,,,,,,,,,,,,,,,,,,,,,,,,,,,,,60.3891654574059,122.47766418665631,84.40083662348691,192.46148278439645,140.17175771443624,82.30777170631168,2.1,2.11,-253,273,0,270,233,-262,239.56847739219666,239.56851887702942,239.57044434547424,239.58173394203186,239.73189449310303,239.73189449310303,239.73189449310303,239.73189449310303,239.73189449310303,239.73189449310303,239.73189449310303,240.96581554412842,2,1.3677704334259033,None,,,,,,,,,,,,,,,,,,120,3,2025-02-25_16h33.18.488,comp,2024.2.4,60.04119838928326,2025-02-25 16h34.14.705073 -0500,
56,56,0,critical,whd,20.0,1.0,upper,125.0,200.0,200.0,125.0,141.0,141.0,1,4.288273096084595,None,,,,,0,0,0,0,0,56,56,91,240.98120832443237,,,,,,,,,,,,,,,,,,,,,,,,,,,,,,,,,,,,,,,,,,,,,,,,,,,,,,,,,,,,,,,,,,,,,,,,,,,,,,,,,125.0,200.0,200.0,125.0,141.0,141.0,1.0,1.1,-738,270,-480,289,-251,287,240.9666121006012,240.96665120124817,240.9686553478241,240.98120832443237,241.1317069530487,241.1317069530487,241.1317069530487,241.1317069530487,241.1317069530487,241.1317069530487,241.1317069530487,245.28270149230957,1,4.288273096084595,None,,,,,,,,,,,,,,,,,,120,3,2025-02-25_16h33.18.488,comp,2024.2.4,60.04119838928326,2025-02-25 16h34.14.705073 -0500,
57,57,0,critical,wdh,20.0,3.0,lower,57.0,133.0,78.0,78.0,133.0,57.0,1,6.74985933303833,None,,,,,0,0,0,0,0,57,57,80,245.297949552536,,,,,,,,,,,,,,,,,,,,,,,,,,,,,,,,,,,,,,,,,,,,,,,,,,,,,,,,,,,,,,,,,,,,,,,,,,,,,,,,,57.0,133.0,78.0,78.0,133.0,57.0,3.0,3.2,-202,-258,0,4,164,278,245.2834815979004,245.28352212905884,245.28597927093506,245.297949552536,245.44808101654053,245.44808101654053,245.44808101654053,245.44808101654053,245.44808101654053,245.44808101654053,245.44808101654053,252.04926323890686,1,6.74985933303833,None,,,,,,,,,,,,,,,,,,120,3,2025-02-25_16h33.18.488,comp,2024.2.4,60.04119838928326,2025-02-25 16h34.14.705073 -0500,
58,58,0,filler_random,None,None,None,None,None,None,None,None,None,None,3,1.5414650440216064,None,,,,,0,0,0,0,0,58,58,159,252.06482315063477,,,,,,,,,,,,,,,,,,,,,,,,,,,,,,,,,,,,,,,,,,,,,,,,,,,,,,,,,,,,,,,,,,,,,,,,,,,,,,,,,147.14951290437835,62.7874028466188,132.36067620622293,67.06273794043089,102.70832609384323,186.84276527405783,3.0,3.1,-161,287,0,-7,223,-269,252.0501732826233,252.05021595954895,252.05222582817078,252.06482315063477,252.2148458957672,252.2148458957672,252.2148458957672,252.2148458957672,252.2148458957672,252.2148458957672,252.2148458957672,253.61598300933838,3,1.5414650440216064,None,,,,,,,,,,,,,,,,,,120,3,2025-02-25_16h33.18.488,comp,2024.2.4,60.04119838928326,2025-02-25 16h34.14.705073 -0500,
59,59,0,critical,dwh,35.0,3.0,lower,70.0,70.0,57.0,133.0,133.0,57.0,3,2.942760467529297,None,,,,,0,0,0,0,0,59,59,62,253.63147020339966,,,,,,,,,,,,,,,,,,,,,,,,,,,,,,,,,,,,,,,,,,,,,,,,,,,,,,,,,,,,,,,,,,,,,,,,,,,,,,,,,70.0,70.0,57.0,133.0,133.0,57.0,3.0,3.1,-198,278,0,-15,191,-287,253.61675238609314,253.61679315567017,253.61907482147217,253.63147020339966,253.7812795639038,253.7812795639038,253.7812795639038,253.7812795639038,253.7812795639038,253.7812795639038,253.7812795639038,256.5823106765747,3,2.942760467529297,None,,,,,,,,,,,,,,,,,,120,3,2025-02-25_16h33.18.488,comp,2024.2.4,60.04119838928326,2025-02-25 16h34.14.705073 -0500,
60,60,0,critical,dwh,20.0,2.1,upper,141.0,141.0,125.0,200.0,200.0,125.0,3,2.6171889305114746,None,,,,,0,0,0,0,0,60,60,31,256.5980749130249,,,,,,,,,,,,,,,,,,,,,,,,,,,,,,,,,,,,,,,,,,,,,,,,,,,,,,,,,,,,,,,,,,,,,,,,,,,,,,,,,141.0,141.0,125.0,200.0,200.0,125.0,2.1,2.11,-266,283,0,261,258,-272,256.5830991268158,256.5831398963928,256.58511328697205,256.5980749130249,256.7482314109802,256.7482314109802,256.7482314109802,256.7482314109802,256.7482314109802,256.7482314109802,256.7482314109802,259.2327256202698,3,2.6171889305114746,None,,,,,,,,,,,,,,,,,,120,3,2025-02-25_16h33.18.488,comp,2024.2.4,60.04119838928326,2025-02-25 16h34.14.705073 -0500,
61,61,0,filler_random,None,None,None,None,None,None,None,None,None,None,3,1.4533321857452393,None,,,,,0,0,0,0,0,61,61,137,259.2480254173279,,,,,,,,,,,,,,,,,,,,,,,,,,,,,,,,,,,,,,,,,,,,,,,,,,,,,,,,,,,,,,,,,,,,,,,,,,,,,,,,,109.27346160035884,58.63105014288307,90.79975192220869,172.86870343218277,158.8608757506076,153.29514854175994,2.1,2.12,-212,-269,0,-289,259,262,259.2336506843567,259.23369240760803,259.236207485199,259.2480254173279,259.3981063365936,259.3981063365936,259.3981063365936,259.3981063365936,259.3981063365936,259.3981063365936,259.3981063365936,260.7158501148224,3,1.4533321857452393,None,,,,,,,,,,,,,,,,,,120,3,2025-02-25_16h33.18.488,comp,2024.2.4,60.04119838928326,2025-02-25 16h34.14.705073 -0500,
62,62,0,critical,wdh,35.0,4.0,upper,125.0,200.0,127.0,127.0,200.0,125.0,3,4.300543308258057,None,,,,,0,0,0,0,0,62,62,77,260.73113775253296,,,,,,,,,,,,,,,,,,,,,,,,,,,,,,,,,,,,,,,,,,,,,,,,,,,,,,,,,,,,,,,,,,,,,,,,,,,,,,,,,125.0,200.0,127.0,127.0,200.0,125.0,4.0,4.2,-260,-2,0,-288,222,-14,260.71665048599243,260.7166917324066,260.71876215934753,260.73113775253296,260.881628036499,260.881628036499,260.881628036499,260.881628036499,260.881628036499,260.881628036499,260.881628036499,265.04933524131775,3,4.300543308258057,None,,,,,,,,,,,,,,,,,,120,3,2025-02-25_16h33.18.488,comp,2024.2.4,60.04119838928326,2025-02-25 16h34.14.705073 -0500,
63,63,0,critical,hwd,20.0,1.0,lower,133.0,57.0,57.0,133.0,78.0,78.0,1,6.004748344421387,None,,,,,0,0,0,0,0,63,63,102,265.06451654434204,,,,,,,,,,,,,,,,,,,,,,,,,,,,,,,,,,,,,,,,,,,,,,,,,,,,,,,,,,,,,,,,,,,,,,,,,,,,,,,,,133.0,57.0,57.0,133.0,78.0,78.0,1.0,1.2,-191,11,0,-13,202,1,265.05011796951294,265.0501594543457,265.052574634552,265.06451654434204,265.2146725654602,265.2146725654602,265.2146725654602,265.2146725654602,265.2146725654602,265.2146725654602,265.2146725654602,271.0822539329529,1,6.004748344421387,None,,,,,,,,,,,,,,,,,,120,3,2025-02-25_16h33.18.488,comp,2024.2.4,60.04119838928326,2025-02-25 16h34.14.705073 -0500,
64,64,0,filler_random,None,None,None,None,None,None,None,None,None,None,2,1.4443387985229492,None,,,,,0,0,0,0,0,64,64,169,271.09770369529724,,,,,,,,,,,,,,,,,,,,,,,,,,,,,,,,,,,,,,,,,,,,,,,,,,,,,,,,,,,,,,,,,,,,,,,,,,,,,,,,,61.80529238093774,79.99878125418367,107.20495206204046,172.89033451312412,141.67729545929365,68.83648332399127,3.0,3.2,-222,-267,0,-14,217,287,271.0831489562988,271.08318853378296,271.08565402030945,271.09770369529724,271.2480978965759,271.2480978965759,271.2480978965759,271.2480978965759,271.2480978965759,271.2480978965759,271.2480978965759,272.5489413738251,2,1.4443387985229492,None,,,,,,,,,,,,,,,,,,120,3,2025-02-25_16h33.18.488,comp,2024.2.4,60.04119838928326,2025-02-25 16h34.14.705073 -0500,
65,65,0,critical,dwh,35.0,2.1,upper,127.0,127.0,125.0,200.0,200.0,125.0,2,3.209388494491577,None,,,,,0,0,0,0,0,65,65,5,272.5649256706238,,,,,,,,,,,,,,,,,,,,,,,,,,,,,,,,,,,,,,,,,,,,,,,,,,,,,,,,,,,,,,,,,,,,,,,,,,,,,,,,,127.0,127.0,125.0,200.0,200.0,125.0,2.1,2.12,-260,-256,0,-280,258,271,272.5497486591339,272.5497899055481,272.5519938468933,272.5649256706238,272.7148151397705,272.7148151397705,272.7148151397705,272.7148151397705,272.7148151397705,272.7148151397705,272.7148151397705,275.7824773788452,2,3.209388494491577,None,,,,,,,,,,,,,,,,,,120,3,2025-02-25_16h33.18.488,comp,2024.2.4,60.04119838928326,2025-02-25 16h34.14.705073 -0500,
66,66,0,filler_square,None,None,None,None,None,None,None,None,None,None,3,1.2001869678497314,None,,,,,0,0,0,0,0,66,66,190,275.7980122566223,,,,,,,,,,,,,,,,,,,,,,,,,,,,,,,,,,,,,,,,,,,,,,,,,,,,,,,,,,,,,,,,,,,,,,,,,,,,,,,,,101.02165350845053,86.21569620382516,81.93805856927287,136.16432611121985,144.40345777096636,144.40345777096636,3.0,3.2,-207,-277,0,-3,236,273,275.78343892097473,275.7834813594818,275.78594946861267,275.7980122566223,275.9479100704193,275.9479100704193,275.9479100704193,275.9479100704193,275.9479100704193,275.9479100704193,275.9479100704193,276.99929118156433,3,1.2001869678497314,None,,,,,,,,,,,,,,,,,,120,3,2025-02-25_16h33.18.488,comp,2024.2.4,60.04119838928326,2025-02-25 16h34.14.705073 -0500,
67,67,0,critical,hwd,20.0,2.1,lower,133.0,57.0,57.0,133.0,78.0,78.0,1,2.6493980884552,None,,,,,0,0,0,0,0,67,67,42,277.01466488838196,,,,,,,,,,,,,,,,,,,,,,,,,,,,,,,,,,,,,,,,,,,,,,,,,,,,,,,,,,,,,,,,,,,,,,,,,,,,,,,,,133.0,57.0,57.0,133.0,78.0,78.0,2.1,2.11,-191,283,0,260,202,-286,277.00012254714966,277.0001652240753,277.00258326530457,277.01466488838196,277.1646611690521,277.1646611690521,277.1646611690521,277.1646611690521,277.1646611690521,277.1646611690521,277.1646611690521,279.66582131385803,1,2.6493980884552,None,,,,,,,,,,,,,,,,,,120,3,2025-02-25_16h33.18.488,comp,2024.2.4,60.04119838928326,2025-02-25 16h34.14.705073 -0500,
68,68,0,catch,None,None,None,None,None,None,None,None,None,None,2,1.3088865280151367,None,,,,,0,0,0,0,0,68,68,120,279.68128991127014,,,,,,,,,,,,,,,,,,,,,,,,,,,,,,,,,,,,,,,,,,,,,,,,,,,,,,,,,,,,,,,,,,,,,,,,,,,,,,,,,84,106,197,128,103,87,4.0,4.1,-213,-287,0,-4,204,-283,279.6668725013733,279.6669158935547,279.6691219806671,279.68128991127014,279.8313810825348,279.8313810825348,279.8313810825348,279.8313810825348,279.8313810825348,279.8313810825348,279.8313810825348,280.9989085197449,2,1.3088865280151367,None,,,,,,,,,,,,,,,,,,120,3,2025-02-25_16h33.18.488,comp,2024.2.4,60.04119838928326,2025-02-25 16h34.14.705073 -0500,
69,69,0,filler_random,None,None,None,None,None,None,None,None,None,None,1,1.7026703357696533,None,,,,,0,0,0,0,0,69,69,140,281.0146949291229,,,,,,,,,,,,,,,,,,,,,,,,,,,,,,,,,,,,,,,,,,,,,,,,,,,,,,,,,,,,,,,,,,,,,,,,,,,,,,,,,65.09343925060642,197.2807022767281,140.37804276107687,66.5134486812034,71.21770790855267,173.64230023659195,2.2,2.21,-228,-274,0,257,216,281,280.99980568885803,280.99984669685364,281.00207328796387,281.0146949291229,281.1647081375122,281.1647081375122,281.1647081375122,281.1647081375122,281.1647081375122,281.1647081375122,281.1647081375122,282.73221707344055,1,1.7026703357696533,None,,,,,,,,,,,,,,,,,,120,3,2025-02-25_16h33.18.488,comp,2024.2.4,60.04119838928326,2025-02-25 16h34.14.705073 -0500,
70,70,0,critical,dwh,20.0,4.0,lower,78.0,78.0,57.0,133.0,133.0,57.0,3,2.05043888092041,None,,,,,0,0,0,0,0,70,70,70,282.7476704120636,,,,,,,,,,,,,,,,,,,,,,,,,,,,,,,,,,,,,,,,,,,,,,,,,,,,,,,,,,,,,,,,,,,,,,,,,,,,,,,,,78.0,78.0,57.0,133.0,133.0,57.0,4.0,4.1,-202,-260,0,0,191,-252,282.73302936553955,282.7330696582794,282.73545575141907,282.7476704120636,282.8978748321533,282.8978748321533,282.8978748321533,282.8978748321533,282.8978748321533,282.8978748321533,282.8978748321533,284.81559324264526,3,2.05043888092041,None,,,,,,,,,,,,,,,,,,120,3,2025-02-25_16h33.18.488,comp,2024.2.4,60.04119838928326,2025-02-25 16h34.14.705073 -0500,
71,71,0,critical,wdh,20.0,2.1,lower,57.0,133.0,78.0,78.0,133.0,57.0,3,3.4003055095672607,None,,,,,0,0,0,0,0,71,71,34,284.83091592788696,,,,,,,,,,,,,,,,,,,,,,,,,,,,,,,,,,,,,,,,,,,,,,,,,,,,,,,,,,,,,,,,,,,,,,,,,,,,,,,,,57.0,133.0,78.0,78.0,133.0,57.0,2.1,2.11,-202,285,0,258,164,-280,284.81640553474426,284.81644582748413,284.8189392089844,284.83091592788696,284.9810824394226,284.9810824394226,284.9810824394226,284.9810824394226,284.9810824394226,284.9810824394226,284.9810824394226,288.2324743270874,3,3.4003055095672607,None,,,,,,,,,,,,,,,,,,120,3,2025-02-25_16h33.18.488,comp,2024.2.4,60.04119838928326,2025-02-25 16h34.14.705073 -0500,
72,72,0,critical,hdw,35.0,3.0,upper,200.0,125.0,127.0,127.0,125.0,200.0,1,2.533734083175659,None,,,,,0,0,0,0,0,72,72,111,288.24789023399353,,,,,,,,,,,,,,,,,,,,,,,,,,,,,,,,,,,,,,,,,,,,,,,,,,,,,,,,,,,,,,,,,,,,,,,,,,,,,,,,,200.0,125.0,127.0,127.0,125.0,200.0,3.0,3.2,-222,-271,0,-1,260,275,288.23325657844543,288.23329734802246,288.23580956459045,288.24789023399353,288.3979535102844,288.3979535102844,288.3979535102844,288.3979535102844,288.3979535102844,288.3979535102844,288.3979535102844,290.79894399642944,1,2.533734083175659,None,,,,,,,,,,,,,,,,,,120,3,2025-02-25_16h33.18.488,comp,2024.2.4,60.04119838928326,2025-02-25 16h34.14.705073 -0500,
73,73,0,filler_random,None,None,None,None,None,None,None,None,None,None,3,18.727465629577637,None,,,,,0,0,0,0,0,73,73,149,290.81432700157166,,,,,,,,,,,,,,,,,,,,,,,,,,,,,,,,,,,,,,,,,,,,,,,,,,,,,,,,,,,,,,,,,,,,,,,,,,,,,,,,,190.7331958236136,58.19877259941434,115.06725901906506,134.2758966509906,79.09398395046074,174.93887190258684,4.0,4.2,-192,-2,0,-279,251,18,290.79985785484314,290.79989862442017,290.8019459247589,290.81432700157166,290.9646167755127,290.9646167755127,290.9646167755127,290.9646167755127,290.9646167755127,290.9646167755127,290.9646167755127,309.5487570762634,3,18.727465629577637,None,,,,,,,,,,,,,,,,,,120,3,2025-02-25_16h33.18.488,comp,2024.2.4,60.04119838928326,2025-02-25 16h34.14.705073 -0500,
74,74,0,filler_square,None,None,None,None,None,None,None,None,None,None,2,1.0005149841308594,None,,,,,0,0,0,0,0,74,74,202,309.5644907951355,,,,,,,,,,,,,,,,,,,,,,,,,,,,,,,,,,,,,,,,,,,,,,,,,,,,,,,,,,,,,,,,,,,,,,,,,,,,,,,,,167.49747014310594,93.94166143087764,176.01209635600824,176.01209635600824,121.41609280325928,98.44253363523299,3.0,3.1,-231,284,0,18,233,-264,309.5497577190399,309.54979944229126,309.5523500442505,309.5644907951355,309.71446919441223,309.71446919441223,309.71446919441223,309.71446919441223,309.71446919441223,309.71446919441223,309.71446919441223,310.5822296142578,2,1.0005149841308594,None,,,,,,,,,,,,,,,,,,120,3,2025-02-25_16h33.18.488,comp,2024.2.4,60.04119838928326,2025-02-25 16h34.14.705073 -0500,
75,75,0,filler_random,None,None,None,None,None,None,None,None,None,None,3,0.8816218376159668,None,,,,,0,0,0,0,0,75,75,135,310.59754633903503,,,,,,,,,,,,,,,,,,,,,,,,,,,,,,,,,,,,,,,,,,,,,,,,,,,,,,,,,,,,,,,,,,,,,,,,,,,,,,,,,95.28275448122128,186.06346734744903,85.30438184679318,138.94383621456046,188.59185425801115,187.1393378906944,3.0,3.1,-259,266,0,-3,259,-264,310.58337473869324,310.5834152698517,310.58580589294434,310.59754633903503,310.74778175354004,310.74778175354004,310.74778175354004,310.74778175354004,310.74778175354004,310.74778175354004,310.74778175354004,311.4824504852295,3,0.8816218376159668,None,,,,,,,,,,,,,,,,,,120,3,2025-02-25_16h33.18.488,comp,2024.2.4,60.04119838928326,2025-02-25 16h34.14.705073 -0500,
76,76,0,critical,dwh,20.0,3.0,lower,78.0,78.0,57.0,133.0,133.0,57.0,3,1.9878523349761963,None,,,,,0,0,0,0,0,76,76,68,311.4977993965149,,,,,,,,,,,,,,,,,,,,,,,,,,,,,,,,,,,,,,,,,,,,,,,,,,,,,,,,,,,,,,,,,,,,,,,,,,,,,,,,,78.0,78.0,57.0,133.0,133.0,57.0,3.0,3.1,-202,252,0,7,191,-254,311.4832479953766,311.48328828811646,311.4853849411011,311.4977993965149,311.64757776260376,311.64757776260376,311.64757776260376,311.64757776260376,311.64757776260376,311.64757776260376,311.64757776260376,313.49876165390015,3,1.9878523349761963,None,,,,,,,,,,,,,,,,,,120,3,2025-02-25_16h33.18.488,comp,2024.2.4,60.04119838928326,2025-02-25 16h34.14.705073 -0500,
77,77,0,critical,hwd,35.0,2.1,lower,133.0,57.0,57.0,133.0,70.0,70.0,1,2.1806304454803467,None,,,,,0,0,0,0,0,77,77,40,313.51406693458557,,,,,,,,,,,,,,,,,,,,,,,,,,,,,,,,,,,,,,,,,,,,,,,,,,,,,,,,,,,,,,,,,,,,,,,,,,,,,,,,,133.0,57.0,57.0,133.0,70.0,70.0,2.1,2.11,-191,271,0,257,198,-263,313.4995639324188,313.4996042251587,313.50212955474854,313.51406693458557,313.6642665863037,313.6642665863037,313.6642665863037,313.6642665863037,313.6642665863037,313.6642665863037,313.6642665863037,315.69887042045593,1,2.1806304454803467,None,,,,,,,,,,,,,,,,,,120,3,2025-02-25_16h33.18.488,comp,2024.2.4,60.04119838928326,2025-02-25 16h34.14.705073 -0500,
78,78,0,catch,None,None,None,None,None,None,None,None,None,None,2,0.8024129867553711,None,,,,,0,0,0,0,0,78,78,126,315.71450567245483,,,,,,,,,,,,,,,,,,,,,,,,,,,,,,,,,,,,,,,,,,,,,,,,,,,,,,,,,,,,,,,,,,,,,,,,,,,,,,,,,127,63,186,139,108,82,2.2,2.21,-197,-250,0,276,206,257,315.6999490261078,315.7000002861023,315.70216631889343,315.71450567245483,315.8644998073578,315.8644998073578,315.8644998073578,315.8644998073578,315.8644998073578,315.8644998073578,315.8644998073578,316.53236746788025,2,0.8024129867553711,None,,,,,,,,,,,,,,,,,,120,3,2025-02-25_16h33.18.488,comp,2024.2.4,60.04119838928326,2025-02-25 16h34.14.705073 -0500,
79,79,0,critical,hdw,20.0,2.1,upper,200.0,125.0,141.0,141.0,125.0,200.0,3,2.4175894260406494,None,,,,,0,0,0,0,0,79,79,47,316.5474429130554,,,,,,,,,,,,,,,,,,,,,,,,,,,,,,,,,,,,,,,,,,,,,,,,,,,,,,,,,,,,,,,,,,,,,,,,,,,,,,,,,200.0,125.0,141.0,141.0,125.0,200.0,2.1,2.11,-229,271,0,288,266,-263,316.53320026397705,316.53324031829834,316.5356833934784,316.5474429130554,316.69776368141174,316.69776368141174,316.69776368141174,316.69776368141174,316.69776368141174,316.69776368141174,316.69776368141174,318.9822733402252,3,2.4175894260406494,None,,,,,,,,,,,,,,,,,,120,3,2025-02-25_16h33.18.488,comp,2024.2.4,60.04119838928326,2025-02-25 16h34.14.705073 -0500,
80,80,0,filler_square,None,None,None,None,None,None,None,None,None,None,3,1.4716322422027588,None,,,,,0,0,0,0,0,80,80,179,318.9974603652954,,,,,,,,,,,,,,,,,,,,,,,,,,,,,,,,,,,,,,,,,,,,,,,,,,,,,,,,,,,,,,,,,,,,,,,,,,,,,,,,,110.81802666600372,120.51956288854882,117.09986890277997,125.40520449505334,137.47118563106528,137.47118563106528,2.2,2.22,-219,278,0,-266,227,-262,318.98322343826294,318.9832649230957,318.98559641838074,318.9974603652954,319.1477074623108,319.1477074623108,319.1477074623108,319.1477074623108,319.1477074623108,319.1477074623108,319.1477074623108,320.48221158981323,3,1.4716322422027588,None,,,,,,,,,,,,,,,,,,120,3,2025-02-25_16h33.18.488,comp,2024.2.4,60.04119838928326,2025-02-25 16h34.14.705073 -0500,
81,81,0,critical,dhw,35.0,3.0,upper,127.0,127.0,200.0,125.0,125.0,200.0,3,1.0763258934020996,None,,,,,0,0,0,0,0,81,81,51,320.4975528717041,,,,,,,,,,,,,,,,,,,,,,,,,,,,,,,,,,,,,,,,,,,,,,,,,,,,,,,,,,,,,,,,,,,,,,,,,,,,,,,,,127.0,127.0,200.0,125.0,125.0,200.0,3.0,3.1,-222,256,0,11,258,-279,320.48300790786743,320.48305010795593,320.4859936237335,320.4975528717041,320.6477003097534,320.6477003097534,320.6477003097534,320.6477003097534,320.6477003097534,320.6477003097534,320.6477003097534,321.58223271369934,3,1.0763258934020996,None,,,,,,,,,,,,,,,,,,120,3,2025-02-25_16h33.18.488,comp,2024.2.4,60.04119838928326,2025-02-25 16h34.14.705073 -0500,
82,82,0,filler_square,None,None,None,None,None,None,None,None,None,None,3,0.8550660610198975,None,,,,,0,0,0,0,0,82,82,194,321.59775137901306,,,,,,,,,,,,,,,,,,,,,,,,,,,,,,,,,,,,,,,,,,,,,,,,,,,,,,,,,,,,,,,,,,,,,,,,,,,,,,,,,157.5202182151999,66.0158176583245,85.26466742085098,135.93574480526067,164.4327403951733,164.4327403951733,2.1,2.11,-197,288,0,285,246,-266,321.58330512046814,321.5833489894867,321.5858504772186,321.59775137901306,321.7476258277893,321.7476258277893,321.7476258277893,321.7476258277893,321.7476258277893,321.7476258277893,321.7476258277893,322.46547174453735,3,0.8550660610198975,None,,,,,,,,,,,,,,,,,,120,3,2025-02-25_16h33.18.488,comp,2024.2.4,60.04119838928326,2025-02-25 16h34.14.705073 -0500,
83,83,0,critical,hdw,35.0,2.1,lower,133.0,57.0,70.0,70.0,57.0,133.0,1,1.7004597187042236,None,,,,,0,0,0,0,0,83,83,20,322.48084115982056,,,,,,,,,,,,,,,,,,,,,,,,,,,,,,,,,,,,,,,,,,,,,,,,,,,,,,,,,,,,,,,,,,,,,,,,,,,,,,,,,133.0,57.0,70.0,70.0,57.0,133.0,2.1,2.12,-160,-258,0,-263,198,272,322.466276884079,322.4663174152374,322.4689199924469,322.48084115982056,322.6313564777374,322.6313564777374,322.6313564777374,322.6313564777374,322.6313564777374,322.6313564777374,322.6313564777374,324.1986503601074,1,1.7004597187042236,None,,,,,,,,,,,,,,,,,,120,3,2025-02-25_16h33.18.488,comp,2024.2.4,60.04119838928326,2025-02-25 16h34.14.705073 -0500,
84,84,0,filler_square,None,None,None,None,None,None,None,None,None,None,3,0.8388283252716064,None,,,,,0,0,0,0,0,84,84,201,324.2140762805939,,,,,,,,,,,,,,,,,,,,,,,,,,,,,,,,,,,,,,,,,,,,,,,,,,,,,,,,,,,,,,,,,,,,,,,,,,,,,,,,,157.62196885936237,82.5855535492673,76.96233455695565,68.81235887516236,176.80116122824586,176.80116122824586,2.2,2.21,-172,-251,0,281,219,286,324.19961285591125,324.19965386390686,324.20215678215027,324.2140762805939,324.3642694950104,324.3642694950104,324.3642694950104,324.3642694950104,324.3642694950104,324.3642694950104,324.3642694950104,325.065411567688,3,0.8388283252716064,None,,,,,,,,,,,,,,,,,,120,3,2025-02-25_16h33.18.488,comp,2024.2.4,60.04119838928326,2025-02-25 16h34.14.705073 -0500,
85,85,0,filler_random,None,None,None,None,None,None,None,None,None,None,3,1.1254348754882812,None,,,,,0,0,0,0,0,85,85,143,325.08073472976685,,,,,,,,,,,,,,,,,,,,,,,,,,,,,,,,,,,,,,,,,,,,,,,,,,,,,,,,,,,,,,,,,,,,,,,,,,,,,,,,,67.57774985574083,98.5581956111194,79.64493888684333,181.6617599267848,162.5906242932919,116.13504067996553,3.0,3.1,-236,282,0,2,245,-288,325.06630778312683,325.066349029541,325.06875371932983,325.08073472976685,325.2310996055603,325.2310996055603,325.2310996055603,325.2310996055603,325.2310996055603,325.2310996055603,325.2310996055603,326.2155017852783,3,1.1254348754882812,None,,,,,,,,,,,,,,,,,,120,3,2025-02-25_16h33.18.488,comp,2024.2.4,60.04119838928326,2025-02-25 16h34.14.705073 -0500,
86,86,0,critical,dhw,20.0,4.0,upper,141.0,141.0,200.0,125.0,125.0,200.0,2,1.4786756038665771,None,,,,,0,0,0,0,0,86,86,59,326.2310793399811,,,,,,,,,,,,,,,,,,,,,,,,,,,,,,,,,,,,,,,,,,,,,,,,,,,,,,,,,,,,,,,,,,,,,,,,,,,,,,,,,141.0,141.0,200.0,125.0,125.0,200.0,4.0,4.2,-229,-9,0,-261,258,-18,326.2163212299347,326.216361284256,326.2187428474426,326.2310793399811,326.38143038749695,326.38143038749695,326.38143038749695,326.38143038749695,326.38143038749695,326.38143038749695,326.38143038749695,327.71558833122253,2,1.4786756038665771,None,,,,,,,,,,,,,,,,,,120,3,2025-02-25_16h33.18.488,comp,2024.2.4,60.04119838928326,2025-02-25 16h34.14.705073 -0500,
87,87,0,critical,wdh,20.0,2.1,upper,125.0,200.0,141.0,141.0,200.0,125.0,3,1.132157325744629,None,,,,,0,0,0,0,0,87,87,11,327.73103165626526,,,,,,,,,,,,,,,,,,,,,,,,,,,,,,,,,,,,,,,,,,,,,,,,,,,,,,,,,,,,,,,,,,,,,,,,,,,,,,,,,125.0,200.0,141.0,141.0,200.0,125.0,2.1,2.12,-266,-279,0,-269,229,252,327.71639609336853,327.71643829345703,327.7188403606415,327.73103165626526,327.8810832500458,327.8810832500458,327.8810832500458,327.8810832500458,327.8810832500458,327.8810832500458,327.8810832500458,328.86559653282166,3,1.132157325744629,None,,,,,,,,,,,,,,,,,,120,3,2025-02-25_16h33.18.488,comp,2024.2.4,60.04119838928326,2025-02-25 16h34.14.705073 -0500,
88,88,0,critical,whd,35.0,2.1,lower,57.0,133.0,133.0,57.0,70.0,70.0,1,1.998793601989746,None,,,,,0,0,0,0,0,88,88,36,328.88094425201416,,,,,,,,,,,,,,,,,,,,,,,,,,,,,,,,,,,,,,,,,,,,,,,,,,,,,,,,,,,,,,,,,,,,,,,,,,,,,,,,,57.0,133.0,133.0,57.0,70.0,70.0,2.1,2.11,-191,257,0,273,160,-289,328.86640787124634,328.8664515018463,328.8688292503357,328.88094425201416,329.0311863422394,329.0311863422394,329.0311863422394,329.0311863422394,329.0311863422394,329.0311863422394,329.0311863422394,330.8821806907654,1,1.998793601989746,None,,,,,,,,,,,,,,,,,,120,3,2025-02-25_16h33.18.488,comp,2024.2.4,60.04119838928326,2025-02-25 16h34.14.705073 -0500,
89,89,0,critical,wdh,20.0,1.0,lower,57.0,133.0,78.0,78.0,133.0,57.0,3,1.524399757385254,None,,,,,0,0,0,0,0,89,89,78,330.8976514339447,,,,,,,,,,,,,,,,,,,,,,,,,,,,,,,,,,,,,,,,,,,,,,,,,,,,,,,,,,,,,,,,,,,,,,,,,,,,,,,,,57.0,133.0,78.0,78.0,133.0,57.0,1.0,1.1,-682,289,-480,270,-316,251,330.8829617500305,330.88301730155945,330.8851070404053,330.8976514339447,331.04788160324097,331.04788160324097,331.04788160324097,331.04788160324097,331.04788160324097,331.04788160324097,331.04788160324097,332.43184757232666,3,1.524399757385254,None,,,,,,,,,,,,,,,,,,120,3,2025-02-25_16h33.18.488,comp,2024.2.4,60.04119838928326,2025-02-25 16h34.14.705073 -0500,
90,90,0,catch,None,None,None,None,None,None,None,None,None,None,3,1.3012340068817139,None,,,,,0,0,0,0,0,90,90,129,332.44764137268066,,,,,,,,,,,,,,,,,,,,,,,,,,,,,,,,,,,,,,,,,,,,,,,,,,,,,,,,,,,,,,,,,,,,,,,,,,,,,,,,,84,106,97,93,171,154,4.0,4.1,-196,-267,0,-2,220,-287,332.4330015182495,332.433043718338,332.4356036186218,332.44764137268066,332.5976402759552,332.5976402759552,332.5976402759552,332.5976402759552,332.5976402759552,332.5976402759552,332.5976402759552,333.7653696537018,3,1.3012340068817139,None,,,,,,,,,,,,,,,,,,120,3,2025-02-25_16h33.18.488,comp,2024.2.4,60.04119838928326,2025-02-25 16h34.14.705073 -0500,
91,91,0,catch,None,None,None,None,None,None,None,None,None,None,2,1.1362357139587402,None,,,,,0,0,0,0,0,91,91,128,333.78077268600464,,,,,,,,,,,,,,,,,,,,,,,,,,,,,,,,,,,,,,,,,,,,,,,,,,,,,,,,,,,,,,,,,,,,,,,,,,,,,,,,,63,127,172,153,63,127,3.0,3.2,-236,-287,0,-19,236,281,333.76645398139954,333.7664966583252,333.76940989494324,333.78077268600464,333.931006193161,333.931006193161,333.931006193161,333.931006193161,333.931006193161,333.931006193161,333.931006193161,334.93189883232117,2,1.1362357139587402,None,,,,,,,,,,,,,,,,,,120,3,2025-02-25_16h33.18.488,comp,2024.2.4,60.04119838928326,2025-02-25 16h34.14.705073 -0500,
92,92,0,critical,hdw,35.0,1.0,lower,133.0,57.0,70.0,70.0,57.0,133.0,3,1.9382579326629639,None,,,,,0,0,0,0,0,92,92,108,334.94726943969727,,,,,,,,,,,,,,,,,,,,,,,,,,,,,,,,,,,,,,,,,,,,,,,,,,,,,,,,,,,,,,,,,,,,,,,,,,,,,,,,,133.0,57.0,70.0,70.0,57.0,133.0,1.0,1.2,-160,-15,0,-12,198,-19,334.9326412677765,334.9326820373535,334.9346206188202,334.94726943969727,335.0975925922394,335.0975925922394,335.0975925922394,335.0975925922394,335.0975925922394,335.0975925922394,335.0975925922394,336.8985893726349,3,1.9382579326629639,None,,,,,,,,,,,,,,,,,,120,3,2025-02-25_16h33.18.488,comp,2024.2.4,60.04119838928326,2025-02-25 16h34.14.705073 -0500,
93,93,0,filler_random,None,None,None,None,None,None,None,None,None,None,1,2.1493451595306396,None,,,,,0,0,0,0,0,93,93,155,336.9139530658722,,,,,,,,,,,,,,,,,,,,,,,,,,,,,,,,,,,,,,,,,,,,,,,,,,,,,,,,,,,,,,,,,,,,,,,,,,,,,,,,,112.6293741211733,186.44332226680325,167.1113482957868,95.62879569778886,58.31901134649769,81.19158499859067,2.2,2.21,-237,-282,0,287,184,254,336.89950251579285,336.8995430469513,336.90203738212585,336.9139530658722,337.0642240047455,337.0642240047455,337.0642240047455,337.0642240047455,337.0642240047455,337.0642240047455,337.0642240047455,339.0654239654541,1,2.1493451595306396,None,,,,,,,,,,,,,,,,,,120,3,2025-02-25_16h33.18.488,comp,2024.2.4,60.04119838928326,2025-02-25 16h34.14.705073 -0500,
94,94,0,critical,whd,20.0,1.0,lower,57.0,133.0,133.0,57.0,78.0,78.0,2,1.5822818279266357,None,,,,,0,0,0,0,0,94,94,90,339.08092761039734,,,,,,,,,,,,,,,,,,,,,,,,,,,,,,,,,,,,,,,,,,,,,,,,,,,,,,,,,,,,,,,,,,,,,,,,,,,,,,,,,57.0,133.0,133.0,57.0,78.0,78.0,1.0,1.1,-671,252,-480,260,-316,278,339.06620836257935,339.06625032424927,339.06856393814087,339.08092761039734,339.2308430671692,339.2308430671692,339.2308430671692,339.2308430671692,339.2308430671692,339.2308430671692,339.2308430671692,340.68180227279663,2,1.5822818279266357,None,,,,,,,,,,,,,,,,,,120,3,2025-02-25_16h33.18.488,comp,2024.2.4,60.04119838928326,2025-02-25 16h34.14.705073 -0500,
95,95,0,critical,hwd,20.0,3.0,upper,200.0,125.0,125.0,200.0,141.0,141.0,1,2.060438394546509,None,,,,,0,0,0,0,0,95,95,105,340.697270154953,,,,,,,,,,,,,,,,,,,,,,,,,,,,,,,,,,,,,,,,,,,,,,,,,,,,,,,,,,,,,,,,,,,,,,,,,,,,,,,,,200.0,125.0,125.0,200.0,141.0,141.0,3.0,3.1,-258,273,0,11,266,-279,340.6825988292694,340.6826403141022,340.6852226257324,340.697270154953,340.8477671146393,340.8477671146393,340.8477671146393,340.8477671146393,340.8477671146393,340.8477671146393,340.8477671146393,342.7653341293335,1,2.060438394546509,None,,,,,,,,,,,,,,,,,,120,3,2025-02-25_16h33.18.488,comp,2024.2.4,60.04119838928326,2025-02-25 16h34.14.705073 -0500,
96,96,0,critical,wdh,35.0,2.1,upper,125.0,200.0,127.0,127.0,200.0,125.0,1,1.5928065776824951,None,,,,,0,0,0,0,0,96,96,33,342.78092527389526,,,,,,,,,,,,,,,,,,,,,,,,,,,,,,,,,,,,,,,,,,,,,,,,,,,,,,,,,,,,,,,,,,,,,,,,,,,,,,,,,125.0,200.0,127.0,127.0,200.0,125.0,2.1,2.12,-260,-290,0,-268,222,284,342.7661180496216,342.76615834236145,342.7687373161316,342.78092527389526,342.9310619831085,342.9310619831085,342.9310619831085,342.9310619831085,342.9310619831085,342.9310619831085,342.9310619831085,344.382123708725,1,1.5928065776824951,None,,,,,,,,,,,,,,,,,,120,3,2025-02-25_16h33.18.488,comp,2024.2.4,60.04119838928326,2025-02-25 16h34.14.705073 -0500,
97,97,0,filler_random,None,None,None,None,None,None,None,None,None,None,2,0.9189720153808594,None,,,,,0,0,0,0,0,97,97,132,344.39773631095886,,,,,,,,,,,,,,,,,,,,,,,,,,,,,,,,,,,,,,,,,,,,,,,,,,,,,,,,,,,,,,,,,,,,,,,,,,,,,,,,,80.18617515666661,177.7987213816149,157.9483691085366,161.40101330251395,63.93962708330022,108.01157586346817,2.1,2.11,-266,269,0,274,231,-270,344.38303565979004,344.3830804824829,344.38520908355713,344.39773631095886,344.5475387573242,344.5475387573242,344.5475387573242,344.5475387573242,344.5475387573242,344.5475387573242,344.5475387573242,345.3318336009979,2,0.9189720153808594,None,,,,,,,,,,,,,,,,,,120,3,2025-02-25_16h33.18.488,comp,2024.2.4,60.04119838928326,2025-02-25 16h34.14.705073 -0500,
98,98,0,critical,wdh,35.0,4.0,lower,57.0,133.0,70.0,70.0,133.0,57.0,3,1.9052600860595703,None,,,,,0,0,0,0,0,98,98,76,345.3473732471466,,,,,,,,,,,,,,,,,,,,,,,,,,,,,,,,,,,,,,,,,,,,,,,,,,,,,,,,,,,,,,,,,,,,,,,,,,,,,,,,,57.0,133.0,70.0,70.0,133.0,57.0,4.0,4.1,-198,-263,0,-3,160,-258,345.3326315879822,345.3326721191406,345.335257768631,345.3473732471466,345.4974567890167,345.4974567890167,345.4974567890167,345.4974567890167,345.4974567890167,345.4974567890167,345.4974567890167,347.2652711868286,3,1.9052600860595703,None,,,,,,,,,,,,,,,,,,120,3,2025-02-25_16h33.18.488,comp,2024.2.4,60.04119838928326,2025-02-25 16h34.14.705073 -0500,
99,99,0,critical,hwd,20.0,2.1,upper,200.0,125.0,125.0,200.0,141.0,141.0,1,1.366966724395752,None,,,,,0,0,0,0,0,99,99,19,347.2806029319763,,,,,,,,,,,,,,,,,,,,,,,,,,,,,,,,,,,,,,,,,,,,,,,,,,,,,,,,,,,,,,,,,,,,,,,,,,,,,,,,,200.0,125.0,125.0,200.0,141.0,141.0,2.1,2.12,-258,-254,0,-280,266,263,347.2660665512085,347.2661085128784,347.2684917449951,347.2806029319763,347.43092608451843,347.43092608451843,347.43092608451843,347.43092608451843,347.43092608451843,347.43092608451843,347.43092608451843,348.6490557193756,1,1.366966724395752,None,,,,,,,,,,,,,,,,,,120,3,2025-02-25_16h33.18.488,comp,2024.2.4,60.04119838928326,2025-02-25 16h34.14.705073 -0500,
100,100,0,filler_square,None,None,None,None,None,None,None,None,None,None,3,0.9991002082824707,None,,,,,0,0,0,0,0,100,100,191,348.66425371170044,,,,,,,,,,,,,,,,,,,,,,,,,,,,,,,,,,,,,,,,,,,,,,,,,,,,,,,,,,,,,,,,,,,,,,,,,,,,,,,,,58.67785781303187,59.25109755089339,58.67435344474021,59.414017682516054,77.28596036662164,77.28596036662164,3.0,3.2,-155,-257,0,11,164,281,348.65003085136414,348.65007305145264,348.6529953479767,348.66425371170044,348.8140275478363,348.8140275478363,348.8140275478363,348.8140275478363,348.8140275478363,348.8140275478363,348.8140275478363,349.681747674942,3,0.9991002082824707,None,,,,,,,,,,,,,,,,,,120,3,2025-02-25_16h33.18.488,comp,2024.2.4,60.04119838928326,2025-02-25 16h34.14.705073 -0500,
101,101,0,filler_random,None,None,None,None,None,None,None,None,None,None,2,1.2515854835510254,None,,,,,0,0,0,0,0,101,101,158,349.6971788406372,,,,,,,,,,,,,,,,,,,,,,,,,,,,,,,,,,,,,,,,,,,,,,,,,,,,,,,,,,,,,,,,,,,,,,,,,,,,,,,,,60.282560789452596,117.09345595190578,92.38673229359108,139.19816429656697,111.54277719585141,62.824644230632465,2.1,2.11,-224,254,0,270,197,-290,349.68276047706604,349.6828022003174,349.6854486465454,349.6971788406372,349.8475546836853,349.8475546836853,349.8475546836853,349.8475546836853,349.8475546836853,349.8475546836853,349.8475546836853,350.96502923965454,2,1.2515854835510254,None,,,,,,,,,,,,,,,,,,120,3,2025-02-25_16h33.18.488,comp,2024.2.4,60.04119838928326,2025-02-25 16h34.14.705073 -0500,
102,102,0,critical,dwh,20.0,1.0,lower,78.0,78.0,57.0,133.0,133.0,57.0,2,3.129058599472046,None,,,,,0,0,0,0,0,102,102,66,350.9804997444153,,,,,,,,,,,,,,,,,,,,,,,,,,,,,,,,,,,,,,,,,,,,,,,,,,,,,,,,,,,,,,,,,,,,,,,,,,,,,,,,,78.0,78.0,57.0,133.0,133.0,57.0,1.0,1.3,278,-286,480,-264,671,-273,350.9657893180847,350.9658296108246,350.9680438041687,350.9804997444153,351.1308023929596,351.1308023929596,351.1308023929596,351.1308023929596,351.1308023929596,351.1308023929596,351.1308023929596,354.1152081489563,2,3.129058599472046,None,,,,,,,,,,,,,,,,,,120,3,2025-02-25_16h33.18.488,comp,2024.2.4,60.04119838928326,2025-02-25 16h34.14.705073 -0500,
103,103,0,filler_random,None,None,None,None,None,None,None,None,None,None,3,0.1163320541381836,None,,,,,0,0,0,0,0,103,103,160,354.1308374404907,,,,,,,,,,,,,,,,,,,,,,,,,,,,,,,,,,,,,,,,,,,,,,,,,,,,,,,,,,,,,,,,,,,,,,,,,,,,,,,,,98.2221651823055,83.69838924098157,107.42205019360419,196.92620759776858,67.49399440649465,135.35849349101926,2.2,2.22,-236,281,0,-274,262,-256,354.116094827652,354.11613488197327,354.11845445632935,354.1308374404907,354.28056359291077,354.28056359291077,354.28056359291077,354.28056359291077,354.28056359291077,354.28056359291077,354.28056359291077,354.2650558948517,3,0.1163320541381836,None,,,,,,,,,,,,,,,,,,120,3,2025-02-25_16h33.18.488,comp,2024.2.4,60.04119838928326,2025-02-25 16h34.14.705073 -0500,
104,104,0,filler_random,None,None,None,None,None,None,None,None,None,None,2,1.1336071491241455,None,,,,,0,0,0,0,0,104,104,142,354.28056359291077,,,,,,,,,,,,,,,,,,,,,,,,,,,,,,,,,,,,,,,,,,,,,,,,,,,,,,,,,,,,,,,,,,,,,,,,,,,,,,,,,199.04536224597737,66.13343216896237,197.1604171105437,128.71891389415578,67.64761046506716,182.95303289048576,2.1,2.11,-193,284,0,264,252,-264,354.26591539382935,354.26595544815063,354.26858711242676,354.28056359291077,354.4308269023895,354.4308269023895,354.4308269023895,354.4308269023895,354.4308269023895,354.4308269023895,354.4308269023895,355.4318127632141,2,1.1336071491241455,None,,,,,,,,,,,,,,,,,,120,3,2025-02-25_16h33.18.488,comp,2024.2.4,60.04119838928326,2025-02-25 16h34.14.705073 -0500,
105,105,0,critical,dhw,35.0,4.0,lower,70.0,70.0,133.0,57.0,57.0,133.0,3,2.005466938018799,None,,,,,0,0,0,0,0,105,105,52,355.4472451210022,,,,,,,,,,,,,,,,,,,,,,,,,,,,,,,,,,,,,,,,,,,,,,,,,,,,,,,,,,,,,,,,,,,,,,,,,,,,,,,,,70.0,70.0,133.0,57.0,57.0,133.0,4.0,4.1,-160,-286,0,18,191,-278,355.43260741233826,355.43264865875244,355.4346799850464,355.4472451210022,355.5974681377411,355.5974681377411,355.5974681377411,355.5974681377411,355.5974681377411,355.5974681377411,355.5974681377411,357.4651298522949,3,2.005466938018799,None,,,,,,,,,,,,,,,,,,120,3,2025-02-25_16h33.18.488,comp,2024.2.4,60.04119838928326,2025-02-25 16h34.14.705073 -0500,
106,106,0,critical,hdw,20.0,3.0,lower,133.0,57.0,78.0,78.0,57.0,133.0,3,1.3250949382781982,None,,,,,0,0,0,0,0,106,106,116,357.4805340766907,,,,,,,,,,,,,,,,,,,,,,,,,,,,,,,,,,,,,,,,,,,,,,,,,,,,,,,,,,,,,,,,,,,,,,,,,,,,,,,,,133.0,57.0,78.0,78.0,57.0,133.0,3.0,3.1,-164,286,0,-12,202,-266,357.4659113883972,357.4659540653229,357.46828985214233,357.4805340766907,357.63056993484497,357.63056993484497,357.63056993484497,357.63056993484497,357.63056993484497,357.63056993484497,357.63056993484497,358.81502985954285,3,1.3250949382781982,None,,,,,,,,,,,,,,,,,,120,3,2025-02-25_16h33.18.488,comp,2024.2.4,60.04119838928326,2025-02-25 16h34.14.705073 -0500,
107,107,0,filler_square,None,None,None,None,None,None,None,None,None,None,3,0.8786275386810303,None,,,,,0,0,0,0,0,107,107,181,358.83078789711,,,,,,,,,,,,,,,,,,,,,,,,,,,,,,,,,,,,,,,,,,,,,,,,,,,,,,,,,,,,,,,,,,,,,,,,,,,,,,,,,179.81714362637518,97.80480412097117,69.84765671551973,159.9979590598649,181.00895962470483,181.00895962470483,2.1,2.11,-225,277,0,263,267,-264,358.815979719162,358.8160228729248,358.8183445930481,358.83078789711,358.98079347610474,358.98079347610474,358.98079347610474,358.98079347610474,358.98079347610474,358.98079347610474,358.98079347610474,359.7152669429779,3,0.8786275386810303,None,,,,,,,,,,,,,,,,,,120,3,2025-02-25_16h33.18.488,comp,2024.2.4,60.04119838928326,2025-02-25 16h34.14.705073 -0500,
108,108,0,critical,dhw,20.0,4.0,lower,78.0,78.0,133.0,57.0,57.0,133.0,3,2.394713878631592,None,,,,,0,0,0,0,0,108,108,58,359.7307987213135,,,,,,,,,,,,,,,,,,,,,,,,,,,,,,,,,,,,,,,,,,,,,,,,,,,,,,,,,,,,,,,,,,,,,,,,,,,,,,,,,78.0,78.0,133.0,57.0,57.0,133.0,4.0,4.2,-164,5,0,-274,191,10,359.71611046791077,359.7161509990692,359.7183372974396,359.7307987213135,359.8811185359955,359.8811185359955,359.8811185359955,359.8811185359955,359.8811185359955,359.8811185359955,359.8811185359955,362.1316683292389,3,2.394713878631592,None,,,,,,,,,,,,,,,,,,120,3,2025-02-25_16h33.18.488,comp,2024.2.4,60.04119838928326,2025-02-25 16h34.14.705073 -0500,
109,109,0,critical,hdw,35.0,1.0,upper,200.0,125.0,127.0,127.0,125.0,200.0,1,1.7850329875946045,None,,,,,0,0,0,0,0,109,109,109,362.1477732658386,,,,,,,,,,,,,,,,,,,,,,,,,,,,,,,,,,,,,,,,,,,,,,,,,,,,,,,,,,,,,,,,,,,,,,,,,,,,,,,,,200.0,125.0,127.0,127.0,125.0,200.0,1.0,1.1,-702,286,-480,273,-220,259,362.13256216049194,362.1326038837433,362.1347918510437,362.1477732658386,362.2974708080292,362.2974708080292,362.2974708080292,362.2974708080292,362.2974708080292,362.2974708080292,362.2974708080292,363.9485356807709,1,1.7850329875946045,None,,,,,,,,,,,,,,,,,,120,3,2025-02-25_16h33.18.488,comp,2024.2.4,60.04119838928326,2025-02-25 16h34.14.705073 -0500,
110,110,0,critical,wdh,35.0,2.1,lower,57.0,133.0,70.0,70.0,133.0,57.0,3,1.393784523010254,None,,,,,0,0,0,0,0,110,110,32,363.9636883735657,,,,,,,,,,,,,,,,,,,,,,,,,,,,,,,,,,,,,,,,,,,,,,,,,,,,,,,,,,,,,,,,,,,,,,,,,,,,,,,,,57.0,133.0,70.0,70.0,133.0,57.0,2.1,2.11,-198,287,0,251,160,-272,363.9493269920349,363.9493670463562,363.95186018943787,363.9636883735657,364.1144587993622,364.1144587993622,364.1144587993622,364.1144587993622,364.1144587993622,364.1144587993622,364.1144587993622,365.3649995326996,3,1.393784523010254,None,,,,,,,,,,,,,,,,,,120,3,2025-02-25_16h33.18.488,comp,2024.2.4,60.04119838928326,2025-02-25 16h34.14.705073 -0500,
111,111,0,filler_square,None,None,None,None,None,None,None,None,None,None,2,1.4554500579833984,None,,,,,0,0,0,0,0,111,111,195,365.3810315132141,,,,,,,,,,,,,,,,,,,,,,,,,,,,,,,,,,,,,,,,,,,,,,,,,,,,,,,,,,,,,,,,,,,,,,,,,,,,,,,,,155.37128468141356,112.704652105024,185.1939925593103,185.1939925593103,134.82906732752127,94.3295788277594,3.0,3.2,-245,-265,0,-8,236,258,365.3659842014313,365.3660292625427,365.36811089515686,365.3810315132141,365.5307648181915,365.5307648181915,365.5307648181915,365.5307648181915,365.5307648181915,365.5307648181915,365.5307648181915,366.8488974571228,2,1.4554500579833984,None,,,,,,,,,,,,,,,,,,120,3,2025-02-25_16h33.18.488,comp,2024.2.4,60.04119838928326,2025-02-25 16h34.14.705073 -0500,
112,112,0,critical,whd,20.0,3.0,upper,125.0,200.0,200.0,125.0,141.0,141.0,1,1.3175857067108154,None,,,,,0,0,0,0,0,112,112,93,366.8638000488281,,,,,,,,,,,,,,,,,,,,,,,,,,,,,,,,,,,,,,,,,,,,,,,,,,,,,,,,,,,,,,,,,,,,,,,,,,,,,,,,,125.0,200.0,200.0,125.0,141.0,141.0,3.0,3.2,-258,-274,0,15,229,275,366.84967374801636,366.84971261024475,366.85192942619324,366.8638000488281,367.0142149925232,367.0142149925232,367.0142149925232,367.0142149925232,367.0142149925232,367.0142149925232,367.0142149925232,368.1985764503479,1,1.3175857067108154,None,,,,,,,,,,,,,,,,,,120,3,2025-02-25_16h33.18.488,comp,2024.2.4,60.04119838928326,2025-02-25 16h34.14.705073 -0500,
113,113,0,critical,hdw,20.0,1.0,upper,200.0,125.0,141.0,141.0,125.0,200.0,1,2.0171713829040527,None,,,,,0,0,0,0,0,113,113,115,368.2138319015503,,,,,,,,,,,,,,,,,,,,,,,,,,,,,,,,,,,,,,,,,,,,,,,,,,,,,,,,,,,,,,,,,,,,,,,,,,,,,,,,,200.0,125.0,141.0,141.0,125.0,200.0,1.0,1.2,-229,-1,0,9,266,11,368.1994185447693,368.1994616985321,368.202894449234,368.2138319015503,368.36421966552734,368.36421966552734,368.36421966552734,368.36421966552734,368.36421966552734,368.36421966552734,368.36421966552734,370.2487111091614,1,2.0171713829040527,None,,,,,,,,,,,,,,,,,,120,3,2025-02-25_16h33.18.488,comp,2024.2.4,60.04119838928326,2025-02-25 16h34.14.705073 -0500,
114,114,0,filler_random,None,None,None,None,None,None,None,None,None,None,2,1.7096292972564697,None,,,,,0,0,0,0,0,114,114,163,370.26389050483704,,,,,,,,,,,,,,,,,,,,,,,,,,,,,,,,,,,,,,,,,,,,,,,,,,,,,,,,,,,,,,,,,,,,,,,,,,,,,,,,,91.840836965893,92.63717305433336,78.09206651155993,144.19471783926537,109.43122874187559,90.82594846236957,1.0,1.3,266,-287,480,-254,694,-262,370.2496597766876,370.2497007846832,370.2522246837616,370.26389050483704,370.4142677783966,370.4142677783966,370.4142677783966,370.4142677783966,370.4142677783966,370.4142677783966,370.4142677783966,371.9816837310791,2,1.7096292972564697,None,,,,,,,,,,,,,,,,,,120,3,2025-02-25_16h33.18.488,comp,2024.2.4,60.04119838928326,2025-02-25 16h34.14.705073 -0500,
115,115,0,critical,hwd,35.0,4.0,lower,133.0,57.0,57.0,133.0,70.0,70.0,2,3.1034014225006104,None,,,,,0,0,0,0,0,115,115,100,371.9972686767578,,,,,,,,,,,,,,,,,,,,,,,,,,,,,,,,,,,,,,,,,,,,,,,,,,,,,,,,,,,,,,,,,,,,,,,,,,,,,,,,,133.0,57.0,57.0,133.0,70.0,70.0,4.0,4.2,-191,7,0,-277,198,-9,371.9824786186218,371.9825208187103,371.9850833415985,371.9972686767578,372.14716386795044,372.14716386795044,372.14716386795044,372.14716386795044,372.14716386795044,372.14716386795044,372.14716386795044,375.1150095462799,2,3.1034014225006104,None,,,,,,,,,,,,,,,,,,120,3,2025-02-25_16h33.18.488,comp,2024.2.4,60.04119838928326,2025-02-25 16h34.14.705073 -0500,
116,116,0,critical,hdw,20.0,1.0,lower,133.0,57.0,78.0,78.0,57.0,133.0,3,2.475440740585327,None,,,,,0,0,0,0,0,116,116,114,375.13041591644287,,,,,,,,,,,,,,,,,,,,,,,,,,,,,,,,,,,,,,,,,,,,,,,,,,,,,,,,,,,,,,,,,,,,,,,,,,,,,,,,,133.0,57.0,78.0,78.0,57.0,133.0,1.0,1.2,-164,-13,0,-4,202,-18,375.1157457828522,375.11578583717346,375.1180694103241,375.13041591644287,375.28089570999146,375.28089570999146,375.28089570999146,375.28089570999146,375.28089570999146,375.28089570999146,375.28089570999146,377.6150312423706,3,2.475440740585327,None,,,,,,,,,,,,,,,,,,120,3,2025-02-25_16h33.18.488,comp,2024.2.4,60.04119838928326,2025-02-25 16h34.14.705073 -0500,
117,117,0,filler_random,None,None,None,None,None,None,None,None,None,None,3,0.8377940654754639,None,,,,,0,0,0,0,0,117,117,156,377.6307415962219,,,,,,,,,,,,,,,,,,,,,,,,,,,,,,,,,,,,,,,,,,,,,,,,,,,,,,,,,,,,,,,,,,,,,,,,,,,,,,,,,113.70358376208274,169.90413929899805,120.52536513567577,104.61455804248533,198.75069211703837,188.3961852723197,2.1,2.12,-233,-288,0,-259,243,269,377.6159312725067,377.6159863471985,377.6192262172699,377.6307415962219,377.78070306777954,377.78070306777954,377.78070306777954,377.78070306777954,377.78070306777954,377.78070306777954,377.78070306777954,378.4817593097687,3,0.8377940654754639,None,,,,,,,,,,,,,,,,,,120,3,2025-02-25_16h33.18.488,comp,2024.2.4,60.04119838928326,2025-02-25 16h34.14.705073 -0500,
118,118,0,critical,dwh,20.0,4.0,upper,141.0,141.0,125.0,200.0,200.0,125.0,2,2.339433431625366,None,,,,,0,0,0,0,0,118,118,71,378.4970328807831,,,,,,,,,,,,,,,,,,,,,,,,,,,,,,,,,,,,,,,,,,,,,,,,,,,,,,,,,,,,,,,,,,,,,,,,,,,,,,,,,141.0,141.0,125.0,200.0,200.0,125.0,4.0,4.2,-266,-9,0,-273,258,-16,378.48255014419556,378.48259258270264,378.4851176738739,378.4970328807831,378.64743733406067,378.64743733406067,378.64743733406067,378.64743733406067,378.64743733406067,378.64743733406067,378.64743733406067,380.8487582206726,2,2.339433431625366,None,,,,,,,,,,,,,,,,,,120,3,2025-02-25_16h33.18.488,comp,2024.2.4,60.04119838928326,2025-02-25 16h34.14.705073 -0500,
119,119,0,filler_square,None,None,None,None,None,None,None,None,None,None,3,0.8847393989562988,None,,,,,0,0,0,0,0,119,119,170,380.8637914657593,,,,,,,,,,,,,,,,,,,,,,,,,,,,,,,,,,,,,,,,,,,,,,,,,,,,,,,,,,,,,,,,,,,,,,,,,,,,,,,,,124.23573837541134,89.8975710696196,73.86816479346597,114.01155054972463,146.59817582057045,146.59817582057045,1.0,1.1,-678,260,-480,288,-254,270,380.84972643852234,380.84976744651794,380.8522412776947,380.8637914657593,381.01402020454407,381.01402020454407,381.01402020454407,381.01402020454407,381.01402020454407,381.01402020454407,381.01402020454407,381.76494812965393,3,0.8847393989562988,None,,,,,,,,,,,,,,,,,,120,3,2025-02-25_16h33.18.488,comp,2024.2.4,60.04119838928326,2025-02-25 16h34.14.705073 -0500,
120,120,0,critical,hwd,20.0,2.1,lower,133.0,57.0,57.0,133.0,78.0,78.0,1,2.209306240081787,None,,,,,0,0,0,0,0,120,120,18,381.7803225517273,,,,,,,,,,,,,,,,,,,,,,,,,,,,,,,,,,,,,,,,,,,,,,,,,,,,,,,,,,,,,,,,,,,,,,,,,,,,,,,,,133.0,57.0,57.0,133.0,78.0,78.0,2.1,2.12,-191,-278,0,-282,202,261,381.76571893692017,381.76576113700867,381.76777720451355,381.7803225517273,381.93054604530334,381.93054604530334,381.93054604530334,381.93054604530334,381.93054604530334,381.93054604530334,381.93054604530334,383.9982204437256,1,2.209306240081787,None,,,,,,,,,,,,,,,,,,120,3,2025-02-25_16h33.18.488,comp,2024.2.4,60.04119838928326,2025-02-25 16h34.14.705073 -0500,
121,121,0,critical,wdh,20.0,1.0,upper,125.0,200.0,141.0,141.0,200.0,125.0,1,1.9503231048583984,None,,,,,0,0,0,0,0,121,121,79,384.01425552368164,,,,,,,,,,,,,,,,,,,,,,,,,,,,,,,,,,,,,,,,,,,,,,,,,,,,,,,,,,,,,,,,,,,,,,,,,,,,,,,,,125.0,200.0,141.0,141.0,200.0,125.0,1.0,1.3,214,-276,480,-265,709,-286,383.99902272224426,383.9990658760071,384.00117325782776,384.01425552368164,384.16414761543274,384.16414761543274,384.16414761543274,384.16414761543274,384.16414761543274,384.16414761543274,384.16414761543274,385.9818935394287,1,1.9503231048583984,None,,,,,,,,,,,,,,,,,,120,3,2025-02-25_16h33.18.488,comp,2024.2.4,60.04119838928326,2025-02-25 16h34.14.705073 -0500,
122,122,0,critical,hwd,35.0,1.0,upper,200.0,125.0,125.0,200.0,127.0,127.0,1,5.000513792037964,None,,,,,0,0,0,0,0,122,122,97,385.9970238208771,,,,,,,,,,,,,,,,,,,,,,,,,,,,,,,,,,,,,,,,,,,,,,,,,,,,,,,,,,,,,,,,,,,,,,,,,,,,,,,,,200.0,125.0,125.0,200.0,127.0,127.0,1.0,1.2,-258,15,0,16,260,-14,385.9826490879059,385.98268818855286,385.98486137390137,385.9970238208771,386.1474289894104,386.1474289894104,386.1474289894104,386.1474289894104,386.1474289894104,386.1474289894104,386.1474289894104,391.0150580406189,1,5.000513792037964,None,,,,,,,,,,,,,,,,,,120,3,2025-02-25_16h33.18.488,comp,2024.2.4,60.04119838928326,2025-02-25 16h34.14.705073 -0500,
123,123,0,filler_random,None,None,None,None,None,None,None,None,None,None,2,1.102283239364624,None,,,,,0,0,0,0,0,123,123,157,391.03034377098083,,,,,,,,,,,,,,,,,,,,,,,,,,,,,,,,,,,,,,,,,,,,,,,,,,,,,,,,,,,,,,,,,,,,,,,,,,,,,,,,,71.49743350763885,193.3372550940645,128.39319895581227,144.44156538970645,64.98739057299174,98.59986681443252,2.1,2.12,-265,-273,0,-288,218,258,391.0159614086151,391.0160183906555,391.01894450187683,391.03034377098083,391.18065094947815,391.18065094947815,391.18065094947815,391.18065094947815,391.18065094947815,391.18065094947815,391.18065094947815,392.1482660770416,2,1.102283239364624,None,,,,,,,,,,,,,,,,,,120,3,2025-02-25_16h33.18.488,comp,2024.2.4,60.04119838928326,2025-02-25 16h34.14.705073 -0500,
124,124,0,filler_square,None,None,None,None,None,None,None,None,None,None,1,3.2503490447998047,None,,,,,0,0,0,0,0,124,124,205,392.16359972953796,,,,,,,,,,,,,,,,,,,,,,,,,,,,,,,,,,,,,,,,,,,,,,,,,,,,,,,,,,,,,,,,,,,,,,,,,,,,,,,,,114.36776879279755,114.36776879279755,74.84901293405596,71.90351347348006,98.06767980978582,103.50361447225066,1.0,1.3,291,-259,480,-255,664,-263,392.1492383480072,392.14927864074707,392.1516580581665,392.16359972953796,392.31386399269104,392.31386399269104,392.31386399269104,392.31386399269104,392.31386399269104,392.31386399269104,392.31386399269104,395.4315483570099,1,3.2503490447998047,None,,,,,,,,,,,,,,,,,,120,3,2025-02-25_16h33.18.488,comp,2024.2.4,60.04119838928326,2025-02-25 16h34.14.705073 -0500,
125,125,0,critical,hwd,20.0,1.0,upper,200.0,125.0,125.0,200.0,141.0,141.0,1,4.621423721313477,None,,,,,0,0,0,0,0,125,125,103,395.4470307826996,,,,,,,,,,,,,,,,,,,,,,,,,,,,,,,,,,,,,,,,,,,,,,,,,,,,,,,,,,,,,,,,,,,,,,,,,,,,,,,,,200.0,125.0,125.0,200.0,141.0,141.0,1.0,1.3,222,-283,480,-255,746,-284,395.4323811531067,395.4324233531952,395.4348814487457,395.4470307826996,395.59735679626465,395.59735679626465,395.59735679626465,395.59735679626465,395.59735679626465,395.59735679626465,395.59735679626465,400.0816993713379,1,4.621423721313477,None,,,,,,,,,,,,,,,,,,120,3,2025-02-25_16h33.18.488,comp,2024.2.4,60.04119838928326,2025-02-25 16h34.14.705073 -0500,
126,126,0,critical,dhw,35.0,2.1,lower,70.0,70.0,133.0,57.0,57.0,133.0,2,2.2282698154449463,None,,,,,0,0,0,0,0,126,126,24,400.09686398506165,,,,,,,,,,,,,,,,,,,,,,,,,,,,,,,,,,,,,,,,,,,,,,,,,,,,,,,,,,,,,,,,,,,,,,,,,,,,,,,,,70.0,70.0,133.0,57.0,57.0,133.0,2.1,2.11,-160,264,0,262,191,-267,400.0826060771942,400.082644701004,400.08510398864746,400.09686398506165,400.2471454143524,400.2471454143524,400.2471454143524,400.2471454143524,400.2471454143524,400.2471454143524,400.2471454143524,402.33145546913147,2,2.2282698154449463,None,,,,,,,,,,,,,,,,,,120,3,2025-02-25_16h33.18.488,comp,2024.2.4,60.04119838928326,2025-02-25 16h34.14.705073 -0500,
127,127,0,critical,dwh,35.0,4.0,upper,127.0,127.0,125.0,200.0,200.0,125.0,3,3.099905014038086,None,,,,,0,0,0,0,0,127,127,65,402.3472785949707,,,,,,,,,,,,,,,,,,,,,,,,,,,,,,,,,,,,,,,,,,,,,,,,,,,,,,,,,,,,,,,,,,,,,,,,,,,,,,,,,127.0,127.0,125.0,200.0,200.0,125.0,4.0,4.1,-260,-255,0,19,258,-289,402.3322355747223,402.33227729797363,402.3347177505493,402.3472785949707,402.497261762619,402.497261762619,402.497261762619,402.497261762619,402.497261762619,402.497261762619,402.497261762619,405.4485430717468,3,3.099905014038086,None,,,,,,,,,,,,,,,,,,120,3,2025-02-25_16h33.18.488,comp,2024.2.4,60.04119838928326,2025-02-25 16h34.14.705073 -0500,
128,128,0,critical,dhw,35.0,2.1,upper,127.0,127.0,200.0,125.0,125.0,200.0,3,5.030309438705444,None,,,,,0,0,0,0,0,128,128,25,405.46379256248474,,,,,,,,,,,,,,,,,,,,,,,,,,,,,,,,,,,,,,,,,,,,,,,,,,,,,,,,,,,,,,,,,,,,,,,,,,,,,,,,,127.0,127.0,200.0,125.0,125.0,200.0,2.1,2.11,-222,284,0,272,258,-254,405.44933915138245,405.44938015937805,405.45184206962585,405.46379256248474,405.6137807369232,405.6137807369232,405.6137807369232,405.6137807369232,405.6137807369232,405.6137807369232,405.6137807369232,410.49839997291565,3,5.030309438705444,None,,,,,,,,,,,,,,,,,,120,3,2025-02-25_16h33.18.488,comp,2024.2.4,60.04119838928326,2025-02-25 16h34.14.705073 -0500,
129,129,0,filler_random,None,None,None,None,None,None,None,None,None,None,3,2.3333024978637695,None,,,,,0,0,0,0,0,129,129,130,410.5137357711792,,,,,,,,,,,,,,,,,,,,,,,,,,,,,,,,,,,,,,,,,,,,,,,,,,,,,,,,,,,,,,,,,,,,,,,,,,,,,,,,,137.98117303896208,106.2370201886882,148.81494365693857,70.21577224260702,158.20218247442105,106.1709923552539,2.1,2.11,-184,290,0,263,184,-271,410.4993305206299,410.4993722438812,410.50146102905273,410.5137357711792,410.66359996795654,410.66359996795654,410.66359996795654,410.66359996795654,410.66359996795654,410.66359996795654,410.66359996795654,412.8649470806122,3,2.3333024978637695,None,,,,,,,,,,,,,,,,,,120,3,2025-02-25_16h33.18.488,comp,2024.2.4,60.04119838928326,2025-02-25 16h34.14.705073 -0500,
130,130,0,filler_random,None,None,None,None,None,None,None,None,None,None,1,1.1560091972351074,None,,,,,0,0,0,0,0,130,130,144,412.88018250465393,,,,,,,,,,,,,,,,,,,,,,,,,,,,,,,,,,,,,,,,,,,,,,,,,,,,,,,,,,,,,,,,,,,,,,,,,,,,,,,,,197.72802595982756,121.23829421579559,174.3942758750989,83.95638054292178,169.37263067606278,61.44314497726804,4.0,4.2,-199,16,0,-268,169,11,412.8659019470215,412.8659429550171,412.86824679374695,412.88018250465393,413.0304045677185,413.0304045677185,413.0304045677185,413.0304045677185,413.0304045677185,413.0304045677185,413.0304045677185,414.0488374233246,1,1.1560091972351074,None,,,,,,,,,,,,,,,,,,120,3,2025-02-25_16h33.18.488,comp,2024.2.4,60.04119838928326,2025-02-25 16h34.14.705073 -0500,
131,131,0,critical,wdh,35.0,3.0,upper,125.0,200.0,127.0,127.0,200.0,125.0,3,1.3009521961212158,None,,,,,0,0,0,0,0,131,131,75,414.06349897384644,,,,,,,,,,,,,,,,,,,,,,,,,,,,,,,,,,,,,,,,,,,,,,,,,,,,,,,,,,,,,,,,,,,,,,,,,,,,,,,,,125.0,200.0,127.0,127.0,200.0,125.0,3.0,3.1,-260,265,0,-9,222,-253,414.0496060848236,414.0496463775635,414.0520570278168,414.06349897384644,414.21380066871643,414.21380066871643,414.21380066871643,414.21380066871643,414.21380066871643,414.21380066871643,414.21380066871643,415.3815486431122,3,1.3009521961212158,None,,,,,,,,,,,,,,,,,,120,3,2025-02-25_16h33.18.488,comp,2024.2.4,60.04119838928326,2025-02-25 16h34.14.705073 -0500,
132,132,0,critical,wdh,35.0,1.0,lower,57.0,133.0,70.0,70.0,133.0,57.0,3,1.3188939094543457,None,,,,,0,0,0,0,0,132,132,72,415.39774560928345,,,,,,,,,,,,,,,,,,,,,,,,,,,,,,,,,,,,,,,,,,,,,,,,,,,,,,,,,,,,,,,,,,,,,,,,,,,,,,,,,57.0,133.0,70.0,70.0,133.0,57.0,1.0,1.3,282,-279,480,-269,640,-285,415.3823492527008,415.38238978385925,415.38484287261963,415.39774560928345,415.54707074165344,415.54707074165344,415.54707074165344,415.54707074165344,415.54707074165344,415.54707074165344,415.54707074165344,416.7316324710846,3,1.3188939094543457,None,,,,,,,,,,,,,,,,,,120,3,2025-02-25_16h33.18.488,comp,2024.2.4,60.04119838928326,2025-02-25 16h34.14.705073 -0500,
133,133,0,critical,dwh,20.0,3.0,upper,141.0,141.0,125.0,200.0,200.0,125.0,3,1.0583117008209229,None,,,,,0,0,0,0,0,133,133,69,416.7468192577362,,,,,,,,,,,,,,,,,,,,,,,,,,,,,,,,,,,,,,,,,,,,,,,,,,,,,,,,,,,,,,,,,,,,,,,,,,,,,,,,,141.0,141.0,125.0,200.0,200.0,125.0,3.0,3.1,-266,259,0,18,258,-272,416.73240971565247,416.7324495315552,416.7348630428314,416.7468192577362,416.89709973335266,416.89709973335266,416.89709973335266,416.89709973335266,416.89709973335266,416.89709973335266,416.89709973335266,417.81505584716797,3,1.0583117008209229,None,,,,,,,,,,,,,,,,,,120,3,2025-02-25_16h33.18.488,comp,2024.2.4,60.04119838928326,2025-02-25 16h34.14.705073 -0500,
134,134,0,filler_square,None,None,None,None,None,None,None,None,None,None,1,1.2324786186218262,None,,,,,0,0,0,0,0,134,134,172,417.83041524887085,,,,,,,,,,,,,,,,,,,,,,,,,,,,,,,,,,,,,,,,,,,,,,,,,,,,,,,,,,,,,,,,,,,,,,,,,,,,,,,,,144.12683900273447,144.12683900273447,130.7494265731282,83.74760722811622,122.27645078503913,140.45082439164133,2.1,2.11,-210,284,0,254,208,-263,417.8160345554352,417.81607699394226,417.81817650794983,417.83041524887085,417.9804241657257,417.9804241657257,417.9804241657257,417.9804241657257,417.9804241657257,417.9804241657257,417.9804241657257,419.06494545936584,1,1.2324786186218262,None,,,,,,,,,,,,,,,,,,120,3,2025-02-25_16h33.18.488,comp,2024.2.4,60.04119838928326,2025-02-25 16h34.14.705073 -0500,
135,135,0,critical,hdw,35.0,2.1,upper,200.0,125.0,127.0,127.0,125.0,200.0,3,1.1666057109832764,None,,,,,0,0,0,0,0,135,135,45,419.0804069042206,,,,,,,,,,,,,,,,,,,,,,,,,,,,,,,,,,,,,,,,,,,,,,,,,,,,,,,,,,,,,,,,,,,,,,,,,,,,,,,,,200.0,125.0,127.0,127.0,125.0,200.0,2.1,2.12,-222,-289,0,-255,260,282,419.0657567977905,419.0657982826233,419.06789231300354,419.0804069042206,419.23045659065247,419.23045659065247,419.23045659065247,419.23045659065247,419.23045659065247,419.23045659065247,419.23045659065247,420.2485044002533,3,1.1666057109832764,None,,,,,,,,,,,,,,,,,,120,3,2025-02-25_16h33.18.488,comp,2024.2.4,60.04119838928326,2025-02-25 16h34.14.705073 -0500,
136,136,0,filler_square,None,None,None,None,None,None,None,None,None,None,3,0.877453088760376,None,,,,,0,0,0,0,0,136,136,178,420.2636604309082,,,,,,,,,,,,,,,,,,,,,,,,,,,,,,,,,,,,,,,,,,,,,,,,,,,,,,,,,,,,,,,,,,,,,,,,,,,,,,,,,59.5684093084265,64.7981155836276,61.75141743053713,68.82592304430281,80.72148307120187,80.72148307120187,2.2,2.21,-163,-257,0,262,171,250,420.24948596954346,420.24952816963196,420.25169944763184,420.2636604309082,420.4138569831848,420.4138569831848,420.4138569831848,420.4138569831848,420.4138569831848,420.4138569831848,420.4138569831848,421.14805841445923,3,0.877453088760376,None,,,,,,,,,,,,,,,,,,120,3,2025-02-25_16h33.18.488,comp,2024.2.4,60.04119838928326,2025-02-25 16h34.14.705073 -0500,
137,137,0,filler_square,None,None,None,None,None,None,None,None,None,None,3,0.8667130470275879,None,,,,,0,0,0,0,0,137,137,209,421.16380977630615,,,,,,,,,,,,,,,,,,,,,,,,,,,,,,,,,,,,,,,,,,,,,,,,,,,,,,,,,,,,,,,,,,,,,,,,,,,,,,,,,101.25201320822367,68.79847589256643,174.64278598000698,118.84454561913702,182.59016679579315,182.59016679579315,3.0,3.1,-190,278,0,-19,247,-251,421.1490113735199,421.149053812027,421.15116477012634,421.16380977630615,421.313809633255,421.313809633255,421.313809633255,421.313809633255,421.313809633255,421.313809633255,421.313809633255,422.04806113243103,3,0.8667130470275879,None,,,,,,,,,,,,,,,,,,120,3,2025-02-25_16h33.18.488,comp,2024.2.4,60.04119838928326,2025-02-25 16h34.14.705073 -0500,
138,138,0,filler_square,None,None,None,None,None,None,None,None,None,None,3,6.230813503265381,None,,,,,0,0,0,0,0,138,138,186,422.06344723701477,,,,,,,,,,,,,,,,,,,,,,,,,,,,,,,,,,,,,,,,,,,,,,,,,,,,,,,,,,,,,,,,,,,,,,,,,,,,,,,,,59.93702465059382,59.21104561722572,62.859456853479486,62.9125774549347,64.41361368974384,64.41361368974384,1.0,1.2,-157,4,0,17,160,-6,422.04902172088623,422.04906463623047,422.051385641098,422.06344723701477,422.21348214149475,422.21348214149475,422.21348214149475,422.21348214149475,422.21348214149475,422.21348214149475,422.21348214149475,428.29794788360596,3,6.230813503265381,None,,,,,,,,,,,,,,,,,,120,3,2025-02-25_16h33.18.488,comp,2024.2.4,60.04119838928326,2025-02-25 16h34.14.705073 -0500,
139,139,0,critical,dwh,20.0,2.1,lower,78.0,78.0,57.0,133.0,133.0,57.0,3,2.0915584564208984,None,,,,,0,0,0,0,0,139,139,6,428.3136305809021,,,,,,,,,,,,,,,,,,,,,,,,,,,,,,,,,,,,,,,,,,,,,,,,,,,,,,,,,,,,,,,,,,,,,,,,,,,,,,,,,78.0,78.0,57.0,133.0,133.0,57.0,2.1,2.12,-202,-288,0,-256,191,288,428.2987368106842,428.29877758026123,428.3010308742523,428.3136305809021,428.4635832309723,428.4635832309723,428.4635832309723,428.4635832309723,428.4635832309723,428.4635832309723,428.4635832309723,430.414710521698,3,2.0915584564208984,None,,,,,,,,,,,,,,,,,,120,3,2025-02-25_16h33.18.488,comp,2024.2.4,60.04119838928326,2025-02-25 16h34.14.705073 -0500,
