thisN,thisTrialN,thisRepN,effect,order,distance,config,diag,h_1,w_1,h_2,w_2,h_3,w_3,rect_choice.keys,rect_choice.rt,rect_choice.duration,instructions_loop.thisRepN,instructions_loop.thisTrialN,instructions_loop.thisN,instructions_loop.thisIndex,blocks.thisRepN,blocks.thisTrialN,blocks.thisN,blocks.thisIndex,trials.thisRepN,trials.thisTrialN,trials.thisN,trials.thisIndex,thisRow.t,notes,consent.started,agree_button.started,decline_button.started,consent_img.started,mouse.started,consent.stopped,agree_button.numClicks,agree_button.timesOn,agree_button.timesOff,decline_button.numClicks,decline_button.timesOn,decline_button.timesOff,mouse.x,mouse.y,mouse.leftButton,mouse.midButton,mouse.rightButton,mouse.time,mouse.clicked_name,exp_params.started,exp_params.stopped,welcome.started,welcome_text.started,welcome.stopped,instructions_1.started,instructions_1_text_1.started,instructions_1_text_2.started,key_resp.started,instructions_1.stopped,instructions_loop.key_resp.keys,instructions_loop.key_resp.rt,instructions_loop.key_resp.duration,instructions_2.started,instructions_2_text_1.started,instructions_2_text_2.started,key_resp_2.started,instructions_2.stopped,instructions_loop.key_resp_2.keys,instructions_loop.key_resp_2.rt,instructions_loop.key_resp_2.duration,instructions_3.started,instructions_3_text_1.started,r1_instr3.started,r2_instr3.started,r3_instr3.started,r1_instr3_label.started,r2_instr3_label.started,r3_instr3_label.started,instructions_3_text_3.started,instructions_3_text_4.started,key_resp_3.started,instructions_3.stopped,instructions_loop.key_resp_3.keys,instructions_loop.key_resp_3.rt,instructions_loop.key_resp_3.duration,instructions_4.started,instructions_4_text_1.started,instructions_4_text_3.started,instructions_4_text_2.started,key_resp_4.started,instructions_4.stopped,instructions_loop.key_resp_4.keys,instructions_loop.key_resp_4.rt,instructions_loop.key_resp_4.duration,instructions_5.started,instructions_5_text_1.started,instructions_5_text_2.started,key_resp_5.started,instructions_5.stopped,instructions_loop.key_resp_5.keys,instructions_loop.key_resp_5.rt,instructions_loop.key_resp_5.duration,start_exp.started,start_exp_text.started,key_resp_6.started,start_exp.stopped,key_resp_6.keys,key_resp_6.rt,key_resp_6.duration,h_1_tmp,w_1_tmp,h_2_tmp,w_2_tmp,h_3_tmp,w_3_tmp,config_tmp,config_tmp_1,r_1_x,r_1_y,r_2_x,r_2_y,r_3_x,r_3_y,pre_trial.started,pre_trial.stopped,choice_trial.started,rect_choice.started,r_1.started,r_2.started,r_3.started,r_1_label.started,r_2_label.started,r_3_label.started,prompt.started,choice_trial.stopped,trials.rect_choice.keys,trials.rect_choice.rt,trials.rect_choice.duration,end_block.started,end_block_text.started,end_block.stopped,end.started,end_text.started,key_resp_7.started,end.stopped,key_resp_7.keys,key_resp_7.rt,key_resp_7.duration,debriefing.started,debrief_form.started,end_debrief.started,debriefing.stopped,end_debrief.keys,end_debrief.rt,end_debrief.duration,participant,computer,date,expName,psychopyVersion,frameRate,expStart,
,,,,,,,,,,,,,,,,,,,,,,,,,,,,,,,0.015114307403564453,0.03544044494628906,0.03544044494628906,0.03544044494628906,0.014898061752319336,5.4136130809783936,1,[5.375574588775635],[5.375595569610596],0,,,[-99.0],[-506.0],[1],[0],[0],[5.39793586730957],['agree_button'],,,,,,,,,,,,,,,,,,,,,,,,,,,,,,,,,,,,,,,,,,,,,,,,,,,,,,,,,,,,,,,,,,,,,,,,,,,,,,,,,,,,,,,,,,,,,,,,,,,,,,,,,,,121,4,2025-02-25_16h33.52.610,comp,2024.2.4,57.934216142225516,2025-02-25 16h34.33.348892 -0500,
,,,,,,,,,,,,,,,,,,,,,,,,,,,,,,,,,,,,,,,,,,,,,,,,,,5.414100408554077,5.414169549942017,,,,,,,,,,,,,,,,,,,,,,,,,,,,,,,,,,,,,,,,,,,,,,,,,,,,,,,,,,,,,,,,,,,,,,,,,,,,,,,,,,,,,,,,,,,,,,,,,,,,,,,,,121,4,2025-02-25_16h33.52.610,comp,2024.2.4,57.934216142225516,2025-02-25 16h34.33.348892 -0500,
,,,,,,,,,,,,,,,,,,,,,,,,,,,,,,,,,,,,,,,,,,,,,,,,,,,,5.414214372634888,5.427628993988037,7.421529769897461,,,,,,,,,,,,,,,,,,,,,,,,,,,,,,,,,,,,,,,,,,,,,,,,,,,,,,,,,,,,,,,,,,,,,,,,,,,,,,,,,,,,,,,,,,,,,,,,,,,,,,121,4,2025-02-25_16h33.52.610,comp,2024.2.4,57.934216142225516,2025-02-25 16h34.33.348892 -0500,
0,0,0,,,,,,,,,,,,,,,0,0,0,0,,,,,,,,,7.4386279582977295,,,,,,,,,,,,,,,,,,,,,,,,,,7.422501802444458,7.4386279582977295,7.4386279582977295,8.922475576400757,9.740710973739624,space,0.8111069202423096,None,9.740858316421509,9.761622905731201,9.761622905731201,11.241042375564575,16.325921297073364,space,5.074511528015137,None,16.3260715007782,16.356895923614502,16.356895923614502,16.356895923614502,16.356895923614502,16.356895923614502,16.356895923614502,16.356895923614502,16.356895923614502,16.356895923614502,17.827706575393677,21.264721393585205,space,3.432051658630371,None,21.264875411987305,21.287155866622925,21.287155866622925,21.287155866622925,22.778825283050537,27.229857683181763,space,4.449005603790283,None,27.230005025863647,27.249831676483154,27.249831676483154,28.72774887084961,29.23078680038452,space,0.49993038177490234,None,29.230986833572388,29.249825954437256,29.249825954437256,30.12983798980713,space,0.8757529258728027,None,,,,,,,,,,,,,,,,,,,,,,,,,,,,,,,,,,,,,,,,,,,,,,,121,4,2025-02-25_16h33.52.610,comp,2024.2.4,57.934216142225516,2025-02-25 16h34.33.348892 -0500,
0,0,0,critical,wdh,20.0,2.1,lower,57.0,133.0,78.0,78.0,133.0,57.0,1,2.87784743309021,None,,,,,0,0,0,0,0,0,0,10,30.20584225654602,,,,,,,,,,,,,,,,,,,,,,,,,,,,,,,,,,,,,,,,,,,,,,,,,,,,,,,,,,,,,,,,,,,,,,,,,,,,,,,,,57.0,133.0,78.0,78.0,133.0,57.0,2.1,2.12,-202,-254,0,-274,164,267,30.189536571502686,30.189570903778076,30.190762758255005,30.20584225654602,30.356106519699097,30.356106519699097,30.356106519699097,30.356106519699097,30.356106519699097,30.356106519699097,30.356106519699097,33.09860944747925,1,2.87784743309021,None,,,,,,,,,,,,,,,,,,121,4,2025-02-25_16h33.52.610,comp,2024.2.4,57.934216142225516,2025-02-25 16h34.33.348892 -0500,
1,1,0,critical,dhw,20.0,2.1,lower,78.0,78.0,133.0,57.0,57.0,133.0,2,4.2056403160095215,None,,,,,0,0,0,0,0,1,1,26,33.11957764625549,,,,,,,,,,,,,,,,,,,,,,,,,,,,,,,,,,,,,,,,,,,,,,,,,,,,,,,,,,,,,,,,,,,,,,,,,,,,,,,,,78.0,78.0,133.0,57.0,57.0,133.0,2.1,2.12,-164,-287,0,-275,191,254,33.100058794021606,33.10013437271118,33.10321521759033,33.11957764625549,33.27229857444763,33.27229857444763,33.27229857444763,33.27229857444763,33.27229857444763,33.27229857444763,33.27229857444763,37.333048820495605,2,4.2056403160095215,None,,,,,,,,,,,,,,,,,,121,4,2025-02-25_16h33.52.610,comp,2024.2.4,57.934216142225516,2025-02-25 16h34.33.348892 -0500,
2,2,0,critical,wdh,35.0,2.1,upper,125.0,200.0,127.0,127.0,200.0,125.0,1,1.5627896785736084,None,,,,,0,0,0,0,0,2,2,9,37.35323166847229,,,,,,,,,,,,,,,,,,,,,,,,,,,,,,,,,,,,,,,,,,,,,,,,,,,,,,,,,,,,,,,,,,,,,,,,,,,,,,,,,125.0,200.0,127.0,127.0,200.0,125.0,2.1,2.12,-260,-285,0,-260,222,252,37.334550619125366,37.33462643623352,37.337437868118286,37.35323166847229,37.50128936767578,37.50128936767578,37.50128936767578,37.50128936767578,37.50128936767578,37.50128936767578,37.50128936767578,38.93488121032715,1,1.5627896785736084,None,,,,,,,,,,,,,,,,,,121,4,2025-02-25_16h33.52.610,comp,2024.2.4,57.934216142225516,2025-02-25 16h34.33.348892 -0500,
3,3,0,critical,dhw,35.0,3.0,upper,127.0,127.0,200.0,125.0,125.0,200.0,3,2.837505578994751,None,,,,,0,0,0,0,0,3,3,51,38.95031237602234,,,,,,,,,,,,,,,,,,,,,,,,,,,,,,,,,,,,,,,,,,,,,,,,,,,,,,,,,,,,,,,,,,,,,,,,,,,,,,,,,127.0,127.0,200.0,125.0,125.0,200.0,3.0,3.2,-222,-284,0,3,258,258,38.93650984764099,38.93658638000488,38.93992590904236,38.95031237602234,39.089919567108154,39.089919567108154,39.089919567108154,39.089919567108154,39.089919567108154,39.089919567108154,39.089919567108154,41.802316665649414,3,2.837505578994751,None,,,,,,,,,,,,,,,,,,121,4,2025-02-25_16h33.52.610,comp,2024.2.4,57.934216142225516,2025-02-25 16h34.33.348892 -0500,
4,4,0,critical,hdw,20.0,2.1,lower,133.0,57.0,78.0,78.0,57.0,133.0,3,2.0659732818603516,None,,,,,0,0,0,0,0,4,4,22,41.818108797073364,,,,,,,,,,,,,,,,,,,,,,,,,,,,,,,,,,,,,,,,,,,,,,,,,,,,,,,,,,,,,,,,,,,,,,,,,,,,,,,,,133.0,57.0,78.0,78.0,57.0,133.0,2.1,2.11,-164,283,0,258,202,-268,41.80380415916443,41.80388140678406,41.80782151222229,41.818108797073364,41.97088146209717,41.97088146209717,41.97088146209717,41.97088146209717,41.97088146209717,41.97088146209717,41.97088146209717,43.89208745956421,3,2.0659732818603516,None,,,,,,,,,,,,,,,,,,121,4,2025-02-25_16h33.52.610,comp,2024.2.4,57.934216142225516,2025-02-25 16h34.33.348892 -0500,
5,5,0,filler_square,None,None,None,None,None,None,None,None,None,None,3,1.9569664001464844,None,,,,,0,0,0,0,0,5,5,198,43.91069054603577,,,,,,,,,,,,,,,,,,,,,,,,,,,,,,,,,,,,,,,,,,,,,,,,,,,,,,,,,,,,,,,,,,,,,,,,,,,,,,,,,78.77986920431752,61.57409447277418,102.32762432403659,89.26796938975993,152.7049079502065,152.7049079502065,1.0,1.1,-651,266,-480,280,-263,275,43.89384078979492,43.893917083740234,43.89667320251465,43.91069054603577,44.0523464679718,44.0523464679718,44.0523464679718,44.0523464679718,44.0523464679718,44.0523464679718,44.0523464679718,45.87802195549011,3,1.9569664001464844,None,,,,,,,,,,,,,,,,,,121,4,2025-02-25_16h33.52.610,comp,2024.2.4,57.934216142225516,2025-02-25 16h34.33.348892 -0500,
6,6,0,critical,dwh,20.0,4.0,upper,141.0,141.0,125.0,200.0,200.0,125.0,2,3.822728157043457,None,,,,,0,0,0,0,0,6,6,71,45.89315938949585,,,,,,,,,,,,,,,,,,,,,,,,,,,,,,,,,,,,,,,,,,,,,,,,,,,,,,,,,,,,,,,,,,,,,,,,,,,,,,,,,141.0,141.0,125.0,200.0,200.0,125.0,4.0,4.2,-266,-1,0,-257,258,-7,45.87950658798218,45.879581689834595,45.88241672515869,45.89315938949585,46.03649830818176,46.03649830818176,46.03649830818176,46.03649830818176,46.03649830818176,46.03649830818176,46.03649830818176,49.720316886901855,2,3.822728157043457,None,,,,,,,,,,,,,,,,,,121,4,2025-02-25_16h33.52.610,comp,2024.2.4,57.934216142225516,2025-02-25 16h34.33.348892 -0500,
7,7,0,critical,dhw,20.0,1.0,lower,78.0,78.0,133.0,57.0,57.0,133.0,3,1.4420239925384521,None,,,,,0,0,0,0,0,7,7,54,49.73792600631714,,,,,,,,,,,,,,,,,,,,,,,,,,,,,,,,,,,,,,,,,,,,,,,,,,,,,,,,,,,,,,,,,,,,,,,,,,,,,,,,,78.0,78.0,133.0,57.0,57.0,133.0,1.0,1.2,-164,-18,0,19,191,1,49.721797704696655,49.72187376022339,49.72486162185669,49.73792600631714,49.88952589035034,49.88952589035034,49.88952589035034,49.88952589035034,49.88952589035034,49.88952589035034,49.88952589035034,51.18830108642578,3,1.4420239925384521,None,,,,,,,,,,,,,,,,,,121,4,2025-02-25_16h33.52.610,comp,2024.2.4,57.934216142225516,2025-02-25 16h34.33.348892 -0500,
8,8,0,critical,wdh,35.0,4.0,lower,57.0,133.0,70.0,70.0,133.0,57.0,3,2.6174347400665283,None,,,,,0,0,0,0,0,8,8,76,51.20271348953247,,,,,,,,,,,,,,,,,,,,,,,,,,,,,,,,,,,,,,,,,,,,,,,,,,,,,,,,,,,,,,,,,,,,,,,,,,,,,,,,,57.0,133.0,70.0,70.0,133.0,57.0,4.0,4.2,-198,17,0,-254,160,12,51.18981146812439,51.18989086151123,51.19297409057617,51.20271348953247,51.355265617370605,51.355265617370605,51.355265617370605,51.355265617370605,51.355265617370605,51.355265617370605,51.355265617370605,53.82726502418518,3,2.6174347400665283,None,,,,,,,,,,,,,,,,,,121,4,2025-02-25_16h33.52.610,comp,2024.2.4,57.934216142225516,2025-02-25 16h34.33.348892 -0500,
9,9,0,filler_square,None,None,None,None,None,None,None,None,None,None,1,1.4786708354949951,None,,,,,0,0,0,0,0,9,9,207,53.84488368034363,,,,,,,,,,,,,,,,,,,,,,,,,,,,,,,,,,,,,,,,,,,,,,,,,,,,,,,,,,,,,,,,,,,,,,,,,,,,,,,,,112.9837982535389,112.9837982535389,83.4819925396427,93.93515548449666,59.91056407732429,109.61484041860939,4.0,4.2,-199,6,0,-287,198,11,53.8289954662323,53.82908630371094,53.83184242248535,53.84488368034363,53.98984241485596,53.98984241485596,53.98984241485596,53.98984241485596,53.98984241485596,53.98984241485596,53.98984241485596,55.334208488464355,1,1.4786708354949951,None,,,,,,,,,,,,,,,,,,121,4,2025-02-25_16h33.52.610,comp,2024.2.4,57.934216142225516,2025-02-25 16h34.33.348892 -0500,
10,10,0,critical,hwd,35.0,2.1,lower,133.0,57.0,57.0,133.0,70.0,70.0,2,1.7175014019012451,None,,,,,0,0,0,0,0,10,10,40,55.35083055496216,,,,,,,,,,,,,,,,,,,,,,,,,,,,,,,,,,,,,,,,,,,,,,,,,,,,,,,,,,,,,,,,,,,,,,,,,,,,,,,,,133.0,57.0,57.0,133.0,70.0,70.0,2.1,2.12,-191,-284,0,-252,198,288,55.33576822280884,55.33584523200989,55.33901047706604,55.35083055496216,55.49048161506653,55.49048161506653,55.49048161506653,55.49048161506653,55.49048161506653,55.49048161506653,55.49048161506653,57.07363486289978,2,1.7175014019012451,None,,,,,,,,,,,,,,,,,,121,4,2025-02-25_16h33.52.610,comp,2024.2.4,57.934216142225516,2025-02-25 16h34.33.348892 -0500,
11,11,0,critical,wdh,20.0,4.0,lower,57.0,133.0,78.0,78.0,133.0,57.0,1,2.481851816177368,None,,,,,0,0,0,0,0,11,11,82,57.08996891975403,,,,,,,,,,,,,,,,,,,,,,,,,,,,,,,,,,,,,,,,,,,,,,,,,,,,,,,,,,,,,,,,,,,,,,,,,,,,,,,,,57.0,133.0,78.0,78.0,133.0,57.0,4.0,4.2,-202,2,0,-265,164,-11,57.075146436691284,57.07522201538086,57.07937002182007,57.08996891975403,57.23972296714783,57.23972296714783,57.23972296714783,57.23972296714783,57.23972296714783,57.23972296714783,57.23972296714783,59.590332984924316,1,2.481851816177368,None,,,,,,,,,,,,,,,,,,121,4,2025-02-25_16h33.52.610,comp,2024.2.4,57.934216142225516,2025-02-25 16h34.33.348892 -0500,
12,12,0,filler_square,None,None,None,None,None,None,None,None,None,None,2,1.19752836227417,None,,,,,0,0,0,0,0,12,12,183,59.606295585632324,,,,,,,,,,,,,,,,,,,,,,,,,,,,,,,,,,,,,,,,,,,,,,,,,,,,,,,,,,,,,,,,,,,,,,,,,,,,,,,,,60.232785219557506,127.72594051540743,152.5006960210158,152.5006960210158,142.2299707061731,117.4407352269607,4.0,4.2,-236,-20,0,-254,231,7,59.59205961227417,59.59213328361511,59.59518265724182,59.606295585632324,59.75828289985657,59.75828289985657,59.75828289985657,59.75828289985657,59.75828289985657,59.75828289985657,59.75828289985657,60.82329487800598,2,1.19752836227417,None,,,,,,,,,,,,,,,,,,121,4,2025-02-25_16h33.52.610,comp,2024.2.4,57.934216142225516,2025-02-25 16h34.33.348892 -0500,
13,13,0,critical,dhw,35.0,2.1,lower,70.0,70.0,133.0,57.0,57.0,133.0,3,1.3176326751708984,None,,,,,0,0,0,0,0,13,13,24,60.83866238594055,,,,,,,,,,,,,,,,,,,,,,,,,,,,,,,,,,,,,,,,,,,,,,,,,,,,,,,,,,,,,,,,,,,,,,,,,,,,,,,,,70.0,70.0,133.0,57.0,57.0,133.0,2.1,2.12,-160,-255,0,-282,191,279,60.824811935424805,60.82488679885864,60.827659130096436,60.83866238594055,60.99392771720886,60.99392771720886,60.99392771720886,60.99392771720886,60.99392771720886,60.99392771720886,60.99392771720886,62.16205811500549,3,1.3176326751708984,None,,,,,,,,,,,,,,,,,,121,4,2025-02-25_16h33.52.610,comp,2024.2.4,57.934216142225516,2025-02-25 16h34.33.348892 -0500,
14,14,0,filler_square,None,None,None,None,None,None,None,None,None,None,1,2.3706107139587402,None,,,,,0,0,0,0,0,14,14,176,62.178436517715454,,,,,,,,,,,,,,,,,,,,,,,,,,,,,,,,,,,,,,,,,,,,,,,,,,,,,,,,,,,,,,,,,,,,,,,,,,,,,,,,,82.71827535592851,82.71827535592851,58.358687549341795,71.63310252258759,61.977095667661416,62.571386871623034,2.1,2.11,-173,276,0,281,163,-257,62.16383767127991,62.16391587257385,62.16768717765808,62.178436517715454,62.32549500465393,62.32549500465393,62.32549500465393,62.32549500465393,62.32549500465393,62.32549500465393,62.32549500465393,64.55737948417664,1,2.3706107139587402,None,,,,,,,,,,,,,,,,,,121,4,2025-02-25_16h33.52.610,comp,2024.2.4,57.934216142225516,2025-02-25 16h34.33.348892 -0500,
15,15,0,critical,dwh,35.0,2.1,upper,127.0,127.0,125.0,200.0,200.0,125.0,2,1.6537134647369385,None,,,,,0,0,0,0,0,15,15,5,64.57387733459473,,,,,,,,,,,,,,,,,,,,,,,,,,,,,,,,,,,,,,,,,,,,,,,,,,,,,,,,,,,,,,,,,,,,,,,,,,,,,,,,,127.0,127.0,125.0,200.0,200.0,125.0,2.1,2.11,-260,271,0,289,258,-289,64.55892896652222,64.55900692939758,64.56227827072144,64.57387733459473,64.70992994308472,64.70992994308472,64.70992994308472,64.70992994308472,64.70992994308472,64.70992994308472,64.70992994308472,66.24294662475586,2,1.6537134647369385,None,,,,,,,,,,,,,,,,,,121,4,2025-02-25_16h33.52.610,comp,2024.2.4,57.934216142225516,2025-02-25 16h34.33.348892 -0500,
16,16,0,filler_random,None,None,None,None,None,None,None,None,None,None,3,1.2488291263580322,None,,,,,0,0,0,0,0,16,16,145,66.25875902175903,,,,,,,,,,,,,,,,,,,,,,,,,,,,,,,,,,,,,,,,,,,,,,,,,,,,,,,,,,,,,,,,,,,,,,,,,,,,,,,,,108.71860175830398,132.26161836684108,120.7118653348295,162.35662547610497,132.31716856542494,174.28051258438805,4.0,4.2,-243,19,0,-255,264,4,66.24477505683899,66.24489092826843,66.24841594696045,66.25875902175903,66.4075653553009,66.4075653553009,66.4075653553009,66.4075653553009,66.4075653553009,66.4075653553009,66.4075653553009,67.51018929481506,3,1.2488291263580322,None,,,,,,,,,,,,,,,,,,121,4,2025-02-25_16h33.52.610,comp,2024.2.4,57.934216142225516,2025-02-25 16h34.33.348892 -0500,
17,17,0,critical,dhw,20.0,2.1,lower,78.0,78.0,133.0,57.0,57.0,133.0,2,2.878030300140381,None,,,,,0,0,0,0,0,17,17,2,67.52590680122375,,,,,,,,,,,,,,,,,,,,,,,,,,,,,,,,,,,,,,,,,,,,,,,,,,,,,,,,,,,,,,,,,,,,,,,,,,,,,,,,,78.0,78.0,133.0,57.0,57.0,133.0,2.1,2.12,-164,-277,0,-279,191,265,67.5118019580841,67.51187705993652,67.5153112411499,67.52590680122375,67.67707633972168,67.67707633972168,67.67707633972168,67.67707633972168,67.67707633972168,67.67707633972168,67.67707633972168,70.41187238693237,2,2.878030300140381,None,,,,,,,,,,,,,,,,,,121,4,2025-02-25_16h33.52.610,comp,2024.2.4,57.934216142225516,2025-02-25 16h34.33.348892 -0500,
18,18,0,critical,hwd,20.0,3.0,upper,200.0,125.0,125.0,200.0,141.0,141.0,2,2.447970151901245,None,,,,,0,0,0,0,0,18,18,105,70.4276967048645,,,,,,,,,,,,,,,,,,,,,,,,,,,,,,,,,,,,,,,,,,,,,,,,,,,,,,,,,,,,,,,,,,,,,,,,,,,,,,,,,200.0,125.0,125.0,200.0,141.0,141.0,3.0,3.2,-258,-256,0,8,266,267,70.41348671913147,70.4135639667511,70.41690707206726,70.4276967048645,70.58317708969116,70.58317708969116,70.58317708969116,70.58317708969116,70.58317708969116,70.58317708969116,70.58317708969116,72.88015675544739,2,2.447970151901245,None,,,,,,,,,,,,,,,,,,121,4,2025-02-25_16h33.52.610,comp,2024.2.4,57.934216142225516,2025-02-25 16h34.33.348892 -0500,
19,19,0,filler_random,None,None,None,None,None,None,None,None,None,None,1,1.0189809799194336,None,,,,,0,0,0,0,0,19,19,166,72.89658188819885,,,,,,,,,,,,,,,,,,,,,,,,,,,,,,,,,,,,,,,,,,,,,,,,,,,,,,,,,,,,,,,,,,,,,,,,,,,,,,,,,197.02981193541086,100.1514284234658,105.4309546941482,165.944105925964,64.16621204528334,90.36668935943669,2.2,2.22,-229,280,0,-282,224,-278,72.88199019432068,72.88207054138184,72.88587188720703,72.89658188819885,73.05109214782715,73.05109214782715,73.05109214782715,73.05109214782715,73.05109214782715,73.05109214782715,73.05109214782715,73.92831325531006,1,1.0189809799194336,None,,,,,,,,,,,,,,,,,,121,4,2025-02-25_16h33.52.610,comp,2024.2.4,57.934216142225516,2025-02-25 16h34.33.348892 -0500,
20,20,0,critical,hwd,20.0,1.0,upper,200.0,125.0,125.0,200.0,141.0,141.0,2,1.7641379833221436,None,,,,,0,0,0,0,0,20,20,103,73.94375038146973,,,,,,,,,,,,,,,,,,,,,,,,,,,,,,,,,,,,,,,,,,,,,,,,,,,,,,,,,,,,,,,,,,,,,,,,,,,,,,,,,200.0,125.0,125.0,200.0,141.0,141.0,1.0,1.3,222,-275,480,-282,746,-261,73.92981576919556,73.92989206314087,73.93282723426819,73.94375038146973,74.09848117828369,74.09848117828369,74.09848117828369,74.09848117828369,74.09848117828369,74.09848117828369,74.09848117828369,75.71153426170349,2,1.7641379833221436,None,,,,,,,,,,,,,,,,,,121,4,2025-02-25_16h33.52.610,comp,2024.2.4,57.934216142225516,2025-02-25 16h34.33.348892 -0500,
21,21,0,filler_random,None,None,None,None,None,None,None,None,None,None,3,1.2675771713256836,None,,,,,0,0,0,0,0,21,21,163,75.72796583175659,,,,,,,,,,,,,,,,,,,,,,,,,,,,,,,,,,,,,,,,,,,,,,,,,,,,,,,,,,,,,,,,,,,,,,,,,,,,,,,,,124.42900739179174,122.86362035318825,92.30858861454522,93.21115256438843,81.88755600122379,145.13986937429658,2.2,2.22,-204,271,0,-282,215,-276,75.71315741539001,75.71323370933533,75.71646976470947,75.72796583175659,75.88210391998291,75.88210391998291,75.88210391998291,75.88210391998291,75.88210391998291,75.88210391998291,75.88210391998291,76.99747776985168,3,1.2675771713256836,None,,,,,,,,,,,,,,,,,,121,4,2025-02-25_16h33.52.610,comp,2024.2.4,57.934216142225516,2025-02-25 16h34.33.348892 -0500,
22,22,0,critical,hwd,20.0,3.0,lower,133.0,57.0,57.0,133.0,78.0,78.0,2,1.9929685592651367,None,,,,,0,0,0,0,0,22,22,104,77.01151967048645,,,,,,,,,,,,,,,,,,,,,,,,,,,,,,,,,,,,,,,,,,,,,,,,,,,,,,,,,,,,,,,,,,,,,,,,,,,,,,,,,133.0,57.0,57.0,133.0,78.0,78.0,3.0,3.1,-191,281,0,5,202,-257,76.99906492233276,76.9991443157196,77.00217604637146,77.01151967048645,77.16227579116821,77.16227579116821,77.16227579116821,77.16227579116821,77.16227579116821,77.16227579116821,77.16227579116821,79.01333236694336,2,1.9929685592651367,None,,,,,,,,,,,,,,,,,,121,4,2025-02-25_16h33.52.610,comp,2024.2.4,57.934216142225516,2025-02-25 16h34.33.348892 -0500,
23,23,0,critical,dwh,20.0,1.0,lower,78.0,78.0,57.0,133.0,133.0,57.0,2,3.4207699298858643,None,,,,,0,0,0,0,0,23,23,66,79.03096723556519,,,,,,,,,,,,,,,,,,,,,,,,,,,,,,,,,,,,,,,,,,,,,,,,,,,,,,,,,,,,,,,,,,,,,,,,,,,,,,,,,78.0,78.0,57.0,133.0,133.0,57.0,1.0,1.2,-202,-17,0,-15,191,4,79.01474499702454,79.01482009887695,79.01791453361511,79.03096723556519,79.17914986610413,79.17914986610413,79.17914986610413,79.17914986610413,79.17914986610413,79.17914986610413,79.17914986610413,82.46832799911499,2,3.4207699298858643,None,,,,,,,,,,,,,,,,,,121,4,2025-02-25_16h33.52.610,comp,2024.2.4,57.934216142225516,2025-02-25 16h34.33.348892 -0500,
24,24,0,filler_random,None,None,None,None,None,None,None,None,None,None,1,1.5719265937805176,None,,,,,0,0,0,0,0,24,24,136,82.48888111114502,,,,,,,,,,,,,,,,,,,,,,,,,,,,,,,,,,,,,,,,,,,,,,,,,,,,,,,,,,,,,,,,,,,,,,,,,,,,,,,,,78.55454403246463,191.66750175755993,122.69036693381852,92.62732379286322,176.50756584231897,60.18660930186835,3.0,3.1,-238,265,0,4,172,-277,82.47031688690186,82.47039866447449,82.47355508804321,82.48888111114502,82.63234972953796,82.63234972953796,82.63234972953796,82.63234972953796,82.63234972953796,82.63234972953796,82.63234972953796,84.06420826911926,1,1.5719265937805176,None,,,,,,,,,,,,,,,,,,121,4,2025-02-25_16h33.52.610,comp,2024.2.4,57.934216142225516,2025-02-25 16h34.33.348892 -0500,
25,25,0,filler_random,None,None,None,None,None,None,None,None,None,None,2,2.0351154804229736,None,,,,,0,0,0,0,0,25,25,147,84.08093166351318,,,,,,,,,,,,,,,,,,,,,,,,,,,,,,,,,,,,,,,,,,,,,,,,,,,,,,,,,,,,,,,,,,,,,,,,,,,,,,,,,105.89211611453963,76.88856548354696,93.66428886378,153.7356794013291,72.39204230592874,179.21719159800932,2.1,2.11,-211,284,0,273,262,-251,84.06601071357727,84.0661244392395,84.06922507286072,84.08093166351318,84.23185420036316,84.23185420036316,84.23185420036316,84.23185420036316,84.23185420036316,84.23185420036316,84.23185420036316,86.11932110786438,2,2.0351154804229736,None,,,,,,,,,,,,,,,,,,121,4,2025-02-25_16h33.52.610,comp,2024.2.4,57.934216142225516,2025-02-25 16h34.33.348892 -0500,
26,26,0,critical,wdh,35.0,2.1,lower,57.0,133.0,70.0,70.0,133.0,57.0,3,3.0517122745513916,None,,,,,0,0,0,0,0,26,26,32,86.13582873344421,,,,,,,,,,,,,,,,,,,,,,,,,,,,,,,,,,,,,,,,,,,,,,,,,,,,,,,,,,,,,,,,,,,,,,,,,,,,,,,,,57.0,133.0,70.0,70.0,133.0,57.0,2.1,2.11,-198,275,0,262,160,-270,86.12099051475525,86.12112188339233,86.12428164482117,86.13582873344421,86.28268766403198,86.28268766403198,86.28268766403198,86.28268766403198,86.28268766403198,86.28268766403198,86.28268766403198,89.20395183563232,3,3.0517122745513916,None,,,,,,,,,,,,,,,,,,121,4,2025-02-25_16h33.52.610,comp,2024.2.4,57.934216142225516,2025-02-25 16h34.33.348892 -0500,
27,27,0,critical,hdw,35.0,1.0,lower,133.0,57.0,70.0,70.0,57.0,133.0,3,1.9051439762115479,None,,,,,0,0,0,0,0,27,27,108,89.21901965141296,,,,,,,,,,,,,,,,,,,,,,,,,,,,,,,,,,,,,,,,,,,,,,,,,,,,,,,,,,,,,,,,,,,,,,,,,,,,,,,,,133.0,57.0,70.0,70.0,57.0,133.0,1.0,1.2,-160,9,0,10,198,-3,89.20556473731995,89.20564079284668,89.20877814292908,89.21901965141296,89.36329412460327,89.36329412460327,89.36329412460327,89.36329412460327,89.36329412460327,89.36329412460327,89.36329412460327,91.13413596153259,3,1.9051439762115479,None,,,,,,,,,,,,,,,,,,121,4,2025-02-25_16h33.52.610,comp,2024.2.4,57.934216142225516,2025-02-25 16h34.33.348892 -0500,
28,28,0,filler_random,None,None,None,None,None,None,None,None,None,None,2,1.0784058570861816,None,,,,,0,0,0,0,0,28,28,168,91.14986276626587,,,,,,,,,,,,,,,,,,,,,,,,,,,,,,,,,,,,,,,,,,,,,,,,,,,,,,,,,,,,,,,,,,,,,,,,,,,,,,,,,156.71336255328174,90.13650645839422,191.5881283103796,128.27213630642075,145.79147186414565,114.49553319215084,2.1,2.12,-205,-251,0,-254,217,262,91.13579773902893,91.1358757019043,91.13914227485657,91.14986276626587,91.29884457588196,91.29884457588196,91.29884457588196,91.29884457588196,91.29884457588196,91.29884457588196,91.29884457588196,92.23510432243347,2,1.0784058570861816,None,,,,,,,,,,,,,,,,,,121,4,2025-02-25_16h33.52.610,comp,2024.2.4,57.934216142225516,2025-02-25 16h34.33.348892 -0500,
29,29,0,critical,whd,35.0,1.0,lower,57.0,133.0,133.0,57.0,70.0,70.0,2,1.648331642150879,None,,,,,0,0,0,0,0,29,29,84,92.2512629032135,,,,,,,,,,,,,,,,,,,,,,,,,,,,,,,,,,,,,,,,,,,,,,,,,,,,,,,,,,,,,,,,,,,,,,,,,,,,,,,,,57.0,133.0,133.0,57.0,70.0,70.0,1.0,1.3,289,-266,480,-259,640,-255,92.23673963546753,92.23684811592102,92.23998951911926,92.2512629032135,92.40146088600159,92.40146088600159,92.40146088600159,92.40146088600159,92.40146088600159,92.40146088600159,92.40146088600159,93.9016466140747,2,1.648331642150879,None,,,,,,,,,,,,,,,,,,121,4,2025-02-25_16h33.52.610,comp,2024.2.4,57.934216142225516,2025-02-25 16h34.33.348892 -0500,
30,30,0,filler_square,None,None,None,None,None,None,None,None,None,None,2,1.605818271636963,None,,,,,0,0,0,0,0,30,30,203,93.91772437095642,,,,,,,,,,,,,,,,,,,,,,,,,,,,,,,,,,,,,,,,,,,,,,,,,,,,,,,,,,,,,,,,,,,,,,,,,,,,,,,,,115.80493637407622,108.06958427020311,108.28178750732138,122.14504751663655,122.57416006996613,122.57416006996613,2.1,2.12,-211,-258,0,-265,218,280,93.903475522995,93.90355372428894,93.90680456161499,93.91772437095642,94.06672143936157,94.06672143936157,94.06672143936157,94.06672143936157,94.06672143936157,94.06672143936157,94.06672143936157,95.53529453277588,2,1.605818271636963,None,,,,,,,,,,,,,,,,,,121,4,2025-02-25_16h33.52.610,comp,2024.2.4,57.934216142225516,2025-02-25 16h34.33.348892 -0500,
31,31,0,filler_random,None,None,None,None,None,None,None,None,None,None,1,1.0992026329040527,None,,,,,0,0,0,0,0,31,31,155,95.5523521900177,,,,,,,,,,,,,,,,,,,,,,,,,,,,,,,,,,,,,,,,,,,,,,,,,,,,,,,,,,,,,,,,,,,,,,,,,,,,,,,,,118.98765540166792,184.10578434433188,111.78253353645428,148.96816429335752,117.25574428457614,120.17716216600118,4.0,4.1,-263,-285,0,-1,231,-276,95.53705263137817,95.53718161582947,95.54033637046814,95.5523521900177,95.71385145187378,95.71385145187378,95.71385145187378,95.71385145187378,95.71385145187378,95.71385145187378,95.71385145187378,96.66922545433044,1,1.0992026329040527,None,,,,,,,,,,,,,,,,,,121,4,2025-02-25_16h33.52.610,comp,2024.2.4,57.934216142225516,2025-02-25 16h34.33.348892 -0500,
32,32,0,critical,whd,20.0,4.0,lower,57.0,133.0,133.0,57.0,78.0,78.0,2,1.270258903503418,None,,,,,0,0,0,0,0,32,32,94,96.68539071083069,,,,,,,,,,,,,,,,,,,,,,,,,,,,,,,,,,,,,,,,,,,,,,,,,,,,,,,,,,,,,,,,,,,,,,,,,,,,,,,,,57.0,133.0,133.0,57.0,78.0,78.0,4.0,4.1,-191,-273,0,16,164,-289,96.67086911201477,96.67094492912292,96.6741271018982,96.68539071083069,96.83497023582458,96.83497023582458,96.83497023582458,96.83497023582458,96.83497023582458,96.83497023582458,96.83497023582458,97.95880222320557,2,1.270258903503418,None,,,,,,,,,,,,,,,,,,121,4,2025-02-25_16h33.52.610,comp,2024.2.4,57.934216142225516,2025-02-25 16h34.33.348892 -0500,
33,33,0,critical,whd,35.0,3.0,lower,57.0,133.0,133.0,57.0,70.0,70.0,1,1.216848611831665,None,,,,,0,0,0,0,0,33,33,86,97.97938394546509,,,,,,,,,,,,,,,,,,,,,,,,,,,,,,,,,,,,,,,,,,,,,,,,,,,,,,,,,,,,,,,,,,,,,,,,,,,,,,,,,57.0,133.0,133.0,57.0,70.0,70.0,3.0,3.2,-191,-287,0,-11,160,275,97.9603521823883,97.96042919158936,97.96370148658752,97.97938394546509,98.12519383430481,98.12519383430481,98.12519383430481,98.12519383430481,98.12519383430481,98.12519383430481,98.12519383430481,99.20371079444885,1,1.216848611831665,None,,,,,,,,,,,,,,,,,,121,4,2025-02-25_16h33.52.610,comp,2024.2.4,57.934216142225516,2025-02-25 16h34.33.348892 -0500,
34,34,0,critical,dhw,35.0,1.0,lower,70.0,70.0,133.0,57.0,57.0,133.0,2,1.3267788887023926,None,,,,,0,0,0,0,0,34,34,48,99.2211275100708,,,,,,,,,,,,,,,,,,,,,,,,,,,,,,,,,,,,,,,,,,,,,,,,,,,,,,,,,,,,,,,,,,,,,,,,,,,,,,,,,70.0,70.0,133.0,57.0,57.0,133.0,1.0,1.1,-640,270,-480,254,-289,276,99.20513868331909,99.20521521568298,99.20827913284302,99.2211275100708,99.3745265007019,99.3745265007019,99.3745265007019,99.3745265007019,99.3745265007019,99.3745265007019,99.3745265007019,100.55284571647644,2,1.3267788887023926,None,,,,,,,,,,,,,,,,,,121,4,2025-02-25_16h33.52.610,comp,2024.2.4,57.934216142225516,2025-02-25 16h34.33.348892 -0500,
35,35,0,critical,whd,35.0,2.1,upper,125.0,200.0,200.0,125.0,127.0,127.0,2,1.9283161163330078,None,,,,,0,0,0,0,0,35,35,37,100.57150268554688,,,,,,,,,,,,,,,,,,,,,,,,,,,,,,,,,,,,,,,,,,,,,,,,,,,,,,,,,,,,,,,,,,,,,,,,,,,,,,,,,125.0,200.0,200.0,125.0,127.0,127.0,2.1,2.11,-258,265,0,265,222,-259,100.5543258190155,100.5544023513794,100.55743885040283,100.57150268554688,100.72558903694153,100.72558903694153,100.72558903694153,100.72558903694153,100.72558903694153,100.72558903694153,100.72558903694153,102.50506114959717,2,1.9283161163330078,None,,,,,,,,,,,,,,,,,,121,4,2025-02-25_16h33.52.610,comp,2024.2.4,57.934216142225516,2025-02-25 16h34.33.348892 -0500,
36,36,0,critical,dhw,35.0,4.0,upper,127.0,127.0,200.0,125.0,125.0,200.0,2,0.8559021949768066,None,,,,,0,0,0,0,0,36,36,53,102.52375864982605,,,,,,,,,,,,,,,,,,,,,,,,,,,,,,,,,,,,,,,,,,,,,,,,,,,,,,,,,,,,,,,,,,,,,,,,,,,,,,,,,127.0,127.0,200.0,125.0,125.0,200.0,4.0,4.1,-222,-271,0,16,258,-282,102.50656938552856,102.50664615631104,102.50970649719238,102.52375864982605,102.67710828781128,102.67710828781128,102.67710828781128,102.67710828781128,102.67710828781128,102.67710828781128,102.67710828781128,103.39183592796326,2,0.8559021949768066,None,,,,,,,,,,,,,,,,,,121,4,2025-02-25_16h33.52.610,comp,2024.2.4,57.934216142225516,2025-02-25 16h34.33.348892 -0500,
37,37,0,critical,dwh,35.0,1.0,upper,127.0,127.0,125.0,200.0,200.0,125.0,2,1.2397265434265137,None,,,,,0,0,0,0,0,37,37,61,103.41191601753235,,,,,,,,,,,,,,,,,,,,,,,,,,,,,,,,,,,,,,,,,,,,,,,,,,,,,,,,,,,,,,,,,,,,,,,,,,,,,,,,,127.0,127.0,125.0,200.0,200.0,125.0,1.0,1.3,220,-257,480,-289,738,-288,103.39344549179077,103.39352488517761,103.39629006385803,103.41191601753235,103.5568151473999,103.5568151473999,103.5568151473999,103.5568151473999,103.5568151473999,103.5568151473999,103.5568151473999,104.66156935691833,2,1.2397265434265137,None,,,,,,,,,,,,,,,,,,121,4,2025-02-25_16h33.52.610,comp,2024.2.4,57.934216142225516,2025-02-25 16h34.33.348892 -0500,
38,38,0,critical,dhw,35.0,3.0,lower,70.0,70.0,133.0,57.0,57.0,133.0,3,1.1108109951019287,None,,,,,0,0,0,0,0,38,38,50,104.67678999900818,,,,,,,,,,,,,,,,,,,,,,,,,,,,,,,,,,,,,,,,,,,,,,,,,,,,,,,,,,,,,,,,,,,,,,,,,,,,,,,,,70.0,70.0,133.0,57.0,57.0,133.0,3.0,3.1,-160,281,0,1,191,-265,104.66309547424316,104.66317391395569,104.6659586429596,104.67678999900818,104.82036685943604,104.82036685943604,104.82036685943604,104.82036685943604,104.82036685943604,104.82036685943604,104.82036685943604,105.80742502212524,3,1.1108109951019287,None,,,,,,,,,,,,,,,,,,121,4,2025-02-25_16h33.52.610,comp,2024.2.4,57.934216142225516,2025-02-25 16h34.33.348892 -0500,
39,39,0,critical,hwd,20.0,1.0,lower,133.0,57.0,57.0,133.0,78.0,78.0,1,2.274726629257202,None,,,,,0,0,0,0,0,39,39,102,105.8250949382782,,,,,,,,,,,,,,,,,,,,,,,,,,,,,,,,,,,,,,,,,,,,,,,,,,,,,,,,,,,,,,,,,,,,,,,,,,,,,,,,,133.0,57.0,57.0,133.0,78.0,78.0,1.0,1.1,-671,269,-480,290,-278,281,105.80904412269592,105.80914402008057,105.81240153312683,105.8250949382782,105.97146368026733,105.97146368026733,105.97146368026733,105.97146368026733,105.97146368026733,105.97146368026733,105.97146368026733,108.1144208908081,1,2.274726629257202,None,,,,,,,,,,,,,,,,,,121,4,2025-02-25_16h33.52.610,comp,2024.2.4,57.934216142225516,2025-02-25 16h34.33.348892 -0500,
40,40,0,filler_square,None,None,None,None,None,None,None,None,None,None,2,0.8209302425384521,None,,,,,0,0,0,0,0,40,40,170,108.1348991394043,,,,,,,,,,,,,,,,,,,,,,,,,,,,,,,,,,,,,,,,,,,,,,,,,,,,,,,,,,,,,,,,,,,,,,,,,,,,,,,,,73.04607074582819,112.07792750916829,194.83829706077228,194.83829706077228,118.66774268555619,190.70727290377386,4.0,4.1,-249,-272,0,-1,289,-261,108.11637377738953,108.11648154258728,108.11962294578552,108.1348991394043,108.27364659309387,108.27364659309387,108.27364659309387,108.27364659309387,108.27364659309387,108.27364659309387,108.27364659309387,108.95950555801392,2,0.8209302425384521,None,,,,,,,,,,,,,,,,,,121,4,2025-02-25_16h33.52.610,comp,2024.2.4,57.934216142225516,2025-02-25 16h34.33.348892 -0500,
41,41,0,catch,None,None,None,None,None,None,None,None,None,None,2,0.9932386875152588,None,,,,,0,0,0,0,0,41,41,122,108.97865772247314,,,,,,,,,,,,,,,,,,,,,,,,,,,,,,,,,,,,,,,,,,,,,,,,,,,,,,,,,,,,,,,,,,,,,,,,,,,,,,,,,98,92,143,182,71,119,2.2,2.22,-233,283,0,-254,246,-273,108.96169567108154,108.96181130409241,108.96510696411133,108.97865772247314,109.13123083114624,109.13123083114624,109.13123083114624,109.13123083114624,109.13123083114624,109.13123083114624,109.13123083114624,109.9771511554718,2,0.9932386875152588,None,,,,,,,,,,,,,,,,,,121,4,2025-02-25_16h33.52.610,comp,2024.2.4,57.934216142225516,2025-02-25 16h34.33.348892 -0500,
42,42,0,filler_square,None,None,None,None,None,None,None,None,None,None,2,0.6640801429748535,None,,,,,0,0,0,0,0,42,42,208,109.99553775787354,,,,,,,,,,,,,,,,,,,,,,,,,,,,,,,,,,,,,,,,,,,,,,,,,,,,,,,,,,,,,,,,,,,,,,,,,,,,,,,,,132.16024446422074,96.94763460157415,181.3170807193755,181.3170807193755,135.39786463617776,128.288886228681,4.0,4.2,-235,-15,0,-259,251,18,109.97919797897339,109.97931265830994,109.98241782188416,109.99553775787354,110.14010453224182,110.14010453224182,110.14010453224182,110.14010453224182,110.14010453224182,110.14010453224182,110.14010453224182,110.67370843887329,2,0.6640801429748535,None,,,,,,,,,,,,,,,,,,121,4,2025-02-25_16h33.52.610,comp,2024.2.4,57.934216142225516,2025-02-25 16h34.33.348892 -0500,
43,43,0,filler_random,None,None,None,None,None,None,None,None,None,None,2,0.745936393737793,None,,,,,0,0,0,0,0,43,43,131,110.68989419937134,,,,,,,,,,,,,,,,,,,,,,,,,,,,,,,,,,,,,,,,,,,,,,,,,,,,,,,,,,,,,,,,,,,,,,,,,,,,,,,,,131.37610656557456,157.9561230073115,68.38431968371083,101.7302493493003,197.00801493689087,76.36227949898597,2.2,2.21,-226,-251,0,285,185,262,110.67540860176086,110.67548680305481,110.67876243591309,110.68989419937134,110.83971953392029,110.83971953392029,110.83971953392029,110.83971953392029,110.83971953392029,110.83971953392029,110.83971953392029,111.44119691848755,2,0.745936393737793,None,,,,,,,,,,,,,,,,,,121,4,2025-02-25_16h33.52.610,comp,2024.2.4,57.934216142225516,2025-02-25 16h34.33.348892 -0500,
44,44,0,filler_random,None,None,None,None,None,None,None,None,None,None,3,1.2300724983215332,None,,,,,0,0,0,0,0,44,44,157,111.46150827407837,,,,,,,,,,,,,,,,,,,,,,,,,,,,,,,,,,,,,,,,,,,,,,,,,,,,,,,,,,,,,,,,,,,,,,,,,,,,,,,,,106.97235463179342,77.80228118914022,83.06267447006867,177.8274581107485,125.01226419381382,168.3593477860843,2.1,2.11,-224,264,0,279,269,-253,111.44289755821228,111.44297385215759,111.44606876373291,111.46150827407837,111.60312175750732,111.60312175750732,111.60312175750732,111.60312175750732,111.60312175750732,111.60312175750732,111.60312175750732,112.70567059516907,3,1.2300724983215332,None,,,,,,,,,,,,,,,,,,121,4,2025-02-25_16h33.52.610,comp,2024.2.4,57.934216142225516,2025-02-25 16h34.33.348892 -0500,
45,45,0,filler_square,None,None,None,None,None,None,None,None,None,None,2,2.3817214965820312,None,,,,,0,0,0,0,0,45,45,185,112.7258985042572,,,,,,,,,,,,,,,,,,,,,,,,,,,,,,,,,,,,,,,,,,,,,,,,,,,,,,,,,,,,,,,,,,,,,,,,,,,,,,,,,58.75427343080228,58.006719329339774,62.75854435068424,62.75854435068424,62.43111111646945,59.15495987600681,3.0,3.2,-156,-270,0,3,157,274,112.70740699768066,112.70748496055603,112.7102837562561,112.7258985042572,112.85788035392761,112.85788035392761,112.85788035392761,112.85788035392761,112.85788035392761,112.85788035392761,112.85788035392761,115.10960650444031,2,2.3817214965820312,None,,,,,,,,,,,,,,,,,,121,4,2025-02-25_16h33.52.610,comp,2024.2.4,57.934216142225516,2025-02-25 16h34.33.348892 -0500,
46,46,0,catch,None,None,None,None,None,None,None,None,None,None,3,1.054492712020874,None,,,,,0,0,0,0,0,46,46,128,115.12610197067261,,,,,,,,,,,,,,,,,,,,,,,,,,,,,,,,,,,,,,,,,,,,,,,,,,,,,,,,,,,,,,,,,,,,,,,,,,,,,,,,,87,103,85,105,184,141,4.0,4.1,-200,-279,0,-4,219,-261,115.11170744895935,115.11178803443909,115.11522698402405,115.12610197067261,115.2834358215332,115.2834358215332,115.2834358215332,115.2834358215332,115.2834358215332,115.2834358215332,115.2834358215332,116.19190049171448,3,1.054492712020874,None,,,,,,,,,,,,,,,,,,121,4,2025-02-25_16h33.52.610,comp,2024.2.4,57.934216142225516,2025-02-25 16h34.33.348892 -0500,
47,47,0,critical,hwd,35.0,2.1,lower,133.0,57.0,57.0,133.0,70.0,70.0,2,2.1253774166107178,None,,,,,0,0,0,0,0,47,47,16,116.2062919139862,,,,,,,,,,,,,,,,,,,,,,,,,,,,,,,,,,,,,,,,,,,,,,,,,,,,,,,,,,,,,,,,,,,,,,,,,,,,,,,,,133.0,57.0,57.0,133.0,70.0,70.0,2.1,2.12,-191,-287,0,-284,198,272,116.19350957870483,116.19358730316162,116.19668745994568,116.2062919139862,116.35686612129211,116.35686612129211,116.35686612129211,116.35686612129211,116.35686612129211,116.35686612129211,116.35686612129211,118.34176993370056,2,2.1253774166107178,None,,,,,,,,,,,,,,,,,,121,4,2025-02-25_16h33.52.610,comp,2024.2.4,57.934216142225516,2025-02-25 16h34.33.348892 -0500,
48,48,0,critical,whd,35.0,4.0,lower,57.0,133.0,133.0,57.0,70.0,70.0,1,1.604001760482788,None,,,,,0,0,0,0,0,48,48,88,118.35962867736816,,,,,,,,,,,,,,,,,,,,,,,,,,,,,,,,,,,,,,,,,,,,,,,,,,,,,,,,,,,,,,,,,,,,,,,,,,,,,,,,,57.0,133.0,133.0,57.0,70.0,70.0,4.0,4.2,-191,-9,0,-252,160,17,118.34336280822754,118.34343791007996,118.34674119949341,118.35962867736816,118.51079440116882,118.51079440116882,118.51079440116882,118.51079440116882,118.51079440116882,118.51079440116882,118.51079440116882,119.97956871986389,1,1.604001760482788,None,,,,,,,,,,,,,,,,,,121,4,2025-02-25_16h33.52.610,comp,2024.2.4,57.934216142225516,2025-02-25 16h34.33.348892 -0500,
49,49,0,filler_random,None,None,None,None,None,None,None,None,None,None,2,1.6778690814971924,None,,,,,0,0,0,0,0,49,49,141,119.99784255027771,,,,,,,,,,,,,,,,,,,,,,,,,,,,,,,,,,,,,,,,,,,,,,,,,,,,,,,,,,,,,,,,,,,,,,,,,,,,,,,,,75.43067398858125,122.12813184633846,151.8138203761007,131.1858756140814,142.00709852385003,95.47485909181177,3.0,3.1,-223,265,0,5,209,-262,119.98141288757324,119.98151516914368,119.98441362380981,119.99784255027771,120.14430975914001,120.14430975914001,120.14430975914001,120.14430975914001,120.14430975914001,120.14430975914001,120.14430975914001,121.69368386268616,2,1.6778690814971924,None,,,,,,,,,,,,,,,,,,121,4,2025-02-25_16h33.52.610,comp,2024.2.4,57.934216142225516,2025-02-25 16h34.33.348892 -0500,
50,50,0,critical,hdw,20.0,2.1,lower,133.0,57.0,78.0,78.0,57.0,133.0,3,1.9028682708740234,None,,,,,0,0,0,0,0,50,50,46,121.70894360542297,,,,,,,,,,,,,,,,,,,,,,,,,,,,,,,,,,,,,,,,,,,,,,,,,,,,,,,,,,,,,,,,,,,,,,,,,,,,,,,,,133.0,57.0,78.0,78.0,57.0,133.0,2.1,2.11,-164,270,0,270,202,-290,121.69519472122192,121.69529581069946,121.69864225387573,121.70894360542297,121.861398935318,121.861398935318,121.861398935318,121.861398935318,121.861398935318,121.861398935318,121.861398935318,123.61504364013672,3,1.9028682708740234,None,,,,,,,,,,,,,,,,,,121,4,2025-02-25_16h33.52.610,comp,2024.2.4,57.934216142225516,2025-02-25 16h34.33.348892 -0500,
51,51,0,filler_random,None,None,None,None,None,None,None,None,None,None,2,2.0397610664367676,None,,,,,0,0,0,0,0,51,51,160,123.6358380317688,,,,,,,,,,,,,,,,,,,,,,,,,,,,,,,,,,,,,,,,,,,,,,,,,,,,,,,,,,,,,,,,,,,,,,,,,,,,,,,,,160.27166658857766,124.8718698878857,199.86975512384691,94.28762123604838,172.60107146926086,91.21588935209269,1.0,1.2,-206,-19,0,-7,189,14,123.61705040931702,123.6171293258667,123.62035274505615,123.6358380317688,123.77863931655884,123.77863931655884,123.77863931655884,123.77863931655884,123.77863931655884,123.77863931655884,123.77863931655884,125.67837715148926,2,2.0397610664367676,None,,,,,,,,,,,,,,,,,,121,4,2025-02-25_16h33.52.610,comp,2024.2.4,57.934216142225516,2025-02-25 16h34.33.348892 -0500,
52,52,0,critical,whd,35.0,2.1,lower,57.0,133.0,133.0,57.0,70.0,70.0,2,1.5910828113555908,None,,,,,0,0,0,0,0,52,52,36,125.69250297546387,,,,,,,,,,,,,,,,,,,,,,,,,,,,,,,,,,,,,,,,,,,,,,,,,,,,,,,,,,,,,,,,,,,,,,,,,,,,,,,,,57.0,133.0,133.0,57.0,70.0,70.0,2.1,2.12,-191,-251,0,-269,160,255,125.67990136146545,125.67997860908508,125.68303275108337,125.69250297546387,125.84536051750183,125.84536051750183,125.84536051750183,125.84536051750183,125.84536051750183,125.84536051750183,125.84536051750183,127.29423713684082,2,1.5910828113555908,None,,,,,,,,,,,,,,,,,,121,4,2025-02-25_16h33.52.610,comp,2024.2.4,57.934216142225516,2025-02-25 16h34.33.348892 -0500,
53,53,0,critical,dhw,20.0,4.0,upper,141.0,141.0,200.0,125.0,125.0,200.0,3,2.2532901763916016,None,,,,,0,0,0,0,0,53,53,59,127.31044840812683,,,,,,,,,,,,,,,,,,,,,,,,,,,,,,,,,,,,,,,,,,,,,,,,,,,,,,,,,,,,,,,,,,,,,,,,,,,,,,,,,141.0,141.0,200.0,125.0,125.0,200.0,4.0,4.2,-229,-13,0,-268,258,13,127.29573225975037,127.2958083152771,127.29864287376404,127.31044840812683,127.4693398475647,127.4693398475647,127.4693398475647,127.4693398475647,127.4693398475647,127.4693398475647,127.4693398475647,129.5806486606598,3,2.2532901763916016,None,,,,,,,,,,,,,,,,,,121,4,2025-02-25_16h33.52.610,comp,2024.2.4,57.934216142225516,2025-02-25 16h34.33.348892 -0500,
54,54,0,filler_square,None,None,None,None,None,None,None,None,None,None,3,2.111353874206543,None,,,,,0,0,0,0,0,54,54,191,129.59645915031433,,,,,,,,,,,,,,,,,,,,,,,,,,,,,,,,,,,,,,,,,,,,,,,,,,,,,,,,,,,,,,,,,,,,,,,,,,,,,,,,,90.86473966386623,99.32042670560205,80.6095466755897,76.66008300185166,103.0414982817685,103.0414982817685,3.0,3.1,-184,280,0,-20,186,-274,129.5827043056488,129.582781791687,129.58616399765015,129.59645915031433,129.7519953250885,129.7519953250885,129.7519953250885,129.7519953250885,129.7519953250885,129.7519953250885,129.7519953250885,131.72269988059998,3,2.111353874206543,None,,,,,,,,,,,,,,,,,,121,4,2025-02-25_16h33.52.610,comp,2024.2.4,57.934216142225516,2025-02-25 16h34.33.348892 -0500,
55,55,0,critical,dwh,35.0,4.0,lower,70.0,70.0,57.0,133.0,133.0,57.0,2,1.1019105911254883,None,,,,,0,0,0,0,0,55,55,64,131.74219036102295,,,,,,,,,,,,,,,,,,,,,,,,,,,,,,,,,,,,,,,,,,,,,,,,,,,,,,,,,,,,,,,,,,,,,,,,,,,,,,,,,70.0,70.0,57.0,133.0,133.0,57.0,4.0,4.1,-198,-254,0,-4,191,-272,131.72416305541992,131.72423648834229,131.7269790172577,131.74219036102295,131.88351106643677,131.88351106643677,131.88351106643677,131.88351106643677,131.88351106643677,131.88351106643677,131.88351106643677,132.85020971298218,2,1.1019105911254883,None,,,,,,,,,,,,,,,,,,121,4,2025-02-25_16h33.52.610,comp,2024.2.4,57.934216142225516,2025-02-25 16h34.33.348892 -0500,
56,56,0,critical,whd,20.0,2.1,lower,57.0,133.0,133.0,57.0,78.0,78.0,3,1.6500558853149414,None,,,,,0,0,0,0,0,56,56,14,132.8657145500183,,,,,,,,,,,,,,,,,,,,,,,,,,,,,,,,,,,,,,,,,,,,,,,,,,,,,,,,,,,,,,,,,,,,,,,,,,,,,,,,,57.0,133.0,133.0,57.0,78.0,78.0,2.1,2.11,-191,273,0,254,164,-288,132.8518476486206,132.85192584991455,132.8550524711609,132.8657145500183,133.01670455932617,133.01670455932617,133.01670455932617,133.01670455932617,133.01670455932617,133.01670455932617,133.01670455932617,134.5318853855133,3,1.6500558853149414,None,,,,,,,,,,,,,,,,,,121,4,2025-02-25_16h33.52.610,comp,2024.2.4,57.934216142225516,2025-02-25 16h34.33.348892 -0500,
57,57,0,filler_random,None,None,None,None,None,None,None,None,None,None,3,1.8290483951568604,None,,,,,0,0,0,0,0,57,57,149,134.5506567955017,,,,,,,,,,,,,,,,,,,,,,,,,,,,,,,,,,,,,,,,,,,,,,,,,,,,,,,,,,,,,,,,,,,,,,,,,,,,,,,,,108.33097558050417,70.99940761332307,81.80087570515207,163.61263690730468,98.64171699177123,134.4389294543748,3.0,3.1,-213,257,0,9,245,-263,134.53356623649597,134.5336401462555,134.53665971755981,134.5506567955017,134.69864058494568,134.69864058494568,134.69864058494568,134.69864058494568,134.69864058494568,134.69864058494568,134.69864058494568,136.39795637130737,3,1.8290483951568604,None,,,,,,,,,,,,,,,,,,121,4,2025-02-25_16h33.52.610,comp,2024.2.4,57.934216142225516,2025-02-25 16h34.33.348892 -0500,
58,58,0,filler_random,None,None,None,None,None,None,None,None,None,None,3,0.962045431137085,None,,,,,0,0,0,0,0,58,58,134,136.41778588294983,,,,,,,,,,,,,,,,,,,,,,,,,,,,,,,,,,,,,,,,,,,,,,,,,,,,,,,,,,,,,,,,,,,,,,,,,,,,,,,,,86.32204437419108,100.43402821750078,64.99957602990992,79.50091569105496,135.47847245238262,160.36671240483145,3.0,3.2,-186,-257,0,11,216,253,136.39976453781128,136.3998897075653,136.4031264781952,136.41778588294983,136.56507968902588,136.56507968902588,136.56507968902588,136.56507968902588,136.56507968902588,136.56507968902588,136.56507968902588,137.39813089370728,3,0.962045431137085,None,,,,,,,,,,,,,,,,,,121,4,2025-02-25_16h33.52.610,comp,2024.2.4,57.934216142225516,2025-02-25 16h34.33.348892 -0500,
59,59,0,critical,dwh,35.0,1.0,lower,70.0,70.0,57.0,133.0,133.0,57.0,2,1.5098955631256104,None,,,,,0,0,0,0,0,59,59,60,137.41438150405884,,,,,,,,,,,,,,,,,,,,,,,,,,,,,,,,,,,,,,,,,,,,,,,,,,,,,,,,,,,,,,,,,,,,,,,,,,,,,,,,,70.0,70.0,57.0,133.0,133.0,57.0,1.0,1.2,-198,11,0,16,191,13,137.39976525306702,137.39984130859375,137.40302753448486,137.41438150405884,137.5668969154358,137.5668969154358,137.5668969154358,137.5668969154358,137.5668969154358,137.5668969154358,137.5668969154358,138.93152332305908,2,1.5098955631256104,None,,,,,,,,,,,,,,,,,,121,4,2025-02-25_16h33.52.610,comp,2024.2.4,57.934216142225516,2025-02-25 16h34.33.348892 -0500,
60,60,0,critical,dwh,20.0,2.1,lower,78.0,78.0,57.0,133.0,133.0,57.0,2,1.5114467144012451,None,,,,,0,0,0,0,0,60,60,6,138.94823217391968,,,,,,,,,,,,,,,,,,,,,,,,,,,,,,,,,,,,,,,,,,,,,,,,,,,,,,,,,,,,,,,,,,,,,,,,,,,,,,,,,78.0,78.0,57.0,133.0,133.0,57.0,2.1,2.12,-202,-278,0,-254,191,284,138.9329981803894,138.9330747127533,138.93605637550354,138.94823217391968,139.09830498695374,139.09830498695374,139.09830498695374,139.09830498695374,139.09830498695374,139.09830498695374,139.09830498695374,140.47140884399414,2,1.5114467144012451,None,,,,,,,,,,,,,,,,,,121,4,2025-02-25_16h33.52.610,comp,2024.2.4,57.934216142225516,2025-02-25 16h34.33.348892 -0500,
61,61,0,filler_random,None,None,None,None,None,None,None,None,None,None,3,2.940988540649414,None,,,,,0,0,0,0,0,61,61,162,140.48746037483215,,,,,,,,,,,,,,,,,,,,,,,,,,,,,,,,,,,,,,,,,,,,,,,,,,,,,,,,,,,,,,,,,,,,,,,,,,,,,,,,,111.45251856303068,82.01069965374415,113.31635798521197,98.35469425792286,104.38251945352638,111.12449659083669,3.0,3.2,-186,-273,0,-5,201,262,140.47309517860413,140.47317171096802,140.4764678478241,140.48746037483215,140.63285160064697,140.63285160064697,140.63285160064697,140.63285160064697,140.63285160064697,140.63285160064697,140.63285160064697,143.43131518363953,3,2.940988540649414,None,,,,,,,,,,,,,,,,,,121,4,2025-02-25_16h33.52.610,comp,2024.2.4,57.934216142225516,2025-02-25 16h34.33.348892 -0500,
62,62,0,filler_random,None,None,None,None,None,None,None,None,None,None,1,1.6993920803070068,None,,,,,0,0,0,0,0,62,62,153,143.44827890396118,,,,,,,,,,,,,,,,,,,,,,,,,,,,,,,,,,,,,,,,,,,,,,,,,,,,,,,,,,,,,,,,,,,,,,,,,,,,,,,,,189.24003648191504,162.84507591783387,67.14118301813322,107.15219583000777,108.08899173158923,141.69282097557974,3.0,3.2,-231,-255,0,11,220,280,143.43299055099487,143.43306732177734,143.43585515022278,143.44827890396118,143.60473918914795,143.60473918914795,143.60473918914795,143.60473918914795,143.60473918914795,143.60473918914795,143.60473918914795,145.1521818637848,1,1.6993920803070068,None,,,,,,,,,,,,,,,,,,121,4,2025-02-25_16h33.52.610,comp,2024.2.4,57.934216142225516,2025-02-25 16h34.33.348892 -0500,
63,63,0,critical,whd,20.0,1.0,lower,57.0,133.0,133.0,57.0,78.0,78.0,2,1.6599056720733643,None,,,,,0,0,0,0,0,63,63,90,145.16784191131592,,,,,,,,,,,,,,,,,,,,,,,,,,,,,,,,,,,,,,,,,,,,,,,,,,,,,,,,,,,,,,,,,,,,,,,,,,,,,,,,,57.0,133.0,133.0,57.0,78.0,78.0,1.0,1.1,-671,273,-480,288,-316,278,145.153724193573,145.15380144119263,145.15704321861267,145.16784191131592,145.32026362419128,145.32026362419128,145.32026362419128,145.32026362419128,145.32026362419128,145.32026362419128,145.32026362419128,146.82981157302856,2,1.6599056720733643,None,,,,,,,,,,,,,,,,,,121,4,2025-02-25_16h33.52.610,comp,2024.2.4,57.934216142225516,2025-02-25 16h34.33.348892 -0500,
64,64,0,filler_square,None,None,None,None,None,None,None,None,None,None,3,1.1157898902893066,None,,,,,0,0,0,0,0,64,64,196,146.8482129573822,,,,,,,,,,,,,,,,,,,,,,,,,,,,,,,,,,,,,,,,,,,,,,,,,,,,,,,,,,,,,,,,,,,,,,,,,,,,,,,,,77.06497148579766,96.6206325022733,110.21285782810816,127.85221715102625,144.44089167822847,144.44089167822847,1.0,1.2,-208,13,0,-15,232,-5,146.83161211013794,146.8316867351532,146.83446097373962,146.8482129573822,146.98482275009155,146.98482275009155,146.98482275009155,146.98482275009155,146.98482275009155,146.98482275009155,146.98482275009155,147.96756720542908,3,1.1157898902893066,None,,,,,,,,,,,,,,,,,,121,4,2025-02-25_16h33.52.610,comp,2024.2.4,57.934216142225516,2025-02-25 16h34.33.348892 -0500,
65,65,0,filler_random,None,None,None,None,None,None,None,None,None,None,1,1.0296928882598877,None,,,,,0,0,0,0,0,65,65,144,147.989985704422,,,,,,,,,,,,,,,,,,,,,,,,,,,,,,,,,,,,,,,,,,,,,,,,,,,,,,,,,,,,,,,,,,,,,,,,,,,,,,,,,195.11317742349024,177.74448776053256,121.58949102559788,196.06206072854434,103.79668906871287,189.2963584419111,2.1,2.12,-283,-282,0,-280,289,281,147.96919703483582,147.96930241584778,147.97227907180786,147.989985704422,148.13576412200928,148.13576412200928,148.13576412200928,148.13576412200928,148.13576412200928,148.13576412200928,148.13576412200928,149.0321295261383,1,1.0296928882598877,None,,,,,,,,,,,,,,,,,,121,4,2025-02-25_16h33.52.610,comp,2024.2.4,57.934216142225516,2025-02-25 16h34.33.348892 -0500,
66,66,0,critical,dhw,20.0,3.0,lower,78.0,78.0,133.0,57.0,57.0,133.0,2,1.12221097946167,None,,,,,0,0,0,0,0,66,66,56,149.04953384399414,,,,,,,,,,,,,,,,,,,,,,,,,,,,,,,,,,,,,,,,,,,,,,,,,,,,,,,,,,,,,,,,,,,,,,,,,,,,,,,,,78.0,78.0,133.0,57.0,57.0,133.0,3.0,3.2,-164,-285,0,-1,191,265,149.03361654281616,149.03369307518005,149.03647446632385,149.04953384399414,149.18651962280273,149.18651962280273,149.18651962280273,149.18651962280273,149.18651962280273,149.18651962280273,149.18651962280273,150.18616724014282,2,1.12221097946167,None,,,,,,,,,,,,,,,,,,121,4,2025-02-25_16h33.52.610,comp,2024.2.4,57.934216142225516,2025-02-25 16h34.33.348892 -0500,
67,67,0,filler_square,None,None,None,None,None,None,None,None,None,None,3,1.7533626556396484,None,,,,,0,0,0,0,0,67,67,192,150.2023229598999,,,,,,,,,,,,,,,,,,,,,,,,,,,,,,,,,,,,,,,,,,,,,,,,,,,,,,,,,,,,,,,,,,,,,,,,,,,,,,,,,60.5945781432504,60.5945781432504,59.3746222637064,59.83855335131574,58.932255656537365,59.19758598485291,4.0,4.1,-156,-286,0,14,156,-264,150.18798923492432,150.18806743621826,150.1920783519745,150.2023229598999,150.35332608222961,150.35332608222961,150.35332608222961,150.35332608222961,150.35332608222961,150.35332608222961,150.35332608222961,151.96931171417236,3,1.7533626556396484,None,,,,,,,,,,,,,,,,,,121,4,2025-02-25_16h33.52.610,comp,2024.2.4,57.934216142225516,2025-02-25 16h34.33.348892 -0500,
68,68,0,critical,dhw,35.0,1.0,upper,127.0,127.0,200.0,125.0,125.0,200.0,3,1.5652153491973877,None,,,,,0,0,0,0,0,68,68,49,151.99055886268616,,,,,,,,,,,,,,,,,,,,,,,,,,,,,,,,,,,,,,,,,,,,,,,,,,,,,,,,,,,,,,,,,,,,,,,,,,,,,,,,,127.0,127.0,200.0,125.0,125.0,200.0,1.0,1.1,-702,259,-480,289,-222,274,151.97077250480652,151.97084641456604,151.97392582893372,151.99055886268616,152.14362478256226,152.14362478256226,152.14362478256226,152.14362478256226,152.14362478256226,152.14362478256226,152.14362478256226,153.55771040916443,3,1.5652153491973877,None,,,,,,,,,,,,,,,,,,121,4,2025-02-25_16h33.52.610,comp,2024.2.4,57.934216142225516,2025-02-25 16h34.33.348892 -0500,
69,69,0,filler_square,None,None,None,None,None,None,None,None,None,None,3,1.6446681022644043,None,,,,,0,0,0,0,0,69,69,201,153.5758900642395,,,,,,,,,,,,,,,,,,,,,,,,,,,,,,,,,,,,,,,,,,,,,,,,,,,,,,,,,,,,,,,,,,,,,,,,,,,,,,,,,60.983920188039136,57.81352584631704,58.224815811349615,75.55103031649531,77.68351792497886,77.68351792497886,2.1,2.11,-163,267,0,287,173,-283,153.55990719795227,153.55998826026917,153.56280827522278,153.5758900642395,153.72309637069702,153.72309637069702,153.72309637069702,153.72309637069702,153.72309637069702,153.72309637069702,153.72309637069702,155.223881483078,3,1.6446681022644043,None,,,,,,,,,,,,,,,,,,121,4,2025-02-25_16h33.52.610,comp,2024.2.4,57.934216142225516,2025-02-25 16h34.33.348892 -0500,
70,70,0,critical,wdh,35.0,4.0,upper,125.0,200.0,127.0,127.0,200.0,125.0,1,1.3154711723327637,None,,,,,0,0,0,0,0,70,70,77,155.24091506004333,,,,,,,,,,,,,,,,,,,,,,,,,,,,,,,,,,,,,,,,,,,,,,,,,,,,,,,,,,,,,,,,,,,,,,,,,,,,,,,,,125.0,200.0,127.0,127.0,200.0,125.0,4.0,4.2,-260,-10,0,-267,222,-5,155.2254295349121,155.22552227973938,155.22927856445312,155.24091506004333,155.387197971344,155.387197971344,155.387197971344,155.387197971344,155.387197971344,155.387197971344,155.387197971344,156.56311178207397,1,1.3154711723327637,None,,,,,,,,,,,,,,,,,,121,4,2025-02-25_16h33.52.610,comp,2024.2.4,57.934216142225516,2025-02-25 16h34.33.348892 -0500,
71,71,0,filler_random,None,None,None,None,None,None,None,None,None,None,3,1.5379977226257324,None,,,,,0,0,0,0,0,71,71,152,156.57832050323486,,,,,,,,,,,,,,,,,,,,,,,,,,,,,,,,,,,,,,,,,,,,,,,,,,,,,,,,,,,,,,,,,,,,,,,,,,,,,,,,,91.31021065421905,175.00109112685897,98.59364925936525,126.12662132151999,75.57357283361272,171.78015746730665,1.0,1.1,-727,283,-480,271,-235,282,156.5647428035736,156.56481909751892,156.56757378578186,156.57832050323486,156.7213478088379,156.7213478088379,156.7213478088379,156.7213478088379,156.7213478088379,156.7213478088379,156.7213478088379,158.12149500846863,3,1.5379977226257324,None,,,,,,,,,,,,,,,,,,121,4,2025-02-25_16h33.52.610,comp,2024.2.4,57.934216142225516,2025-02-25 16h34.33.348892 -0500,
72,72,0,critical,wdh,20.0,2.1,lower,57.0,133.0,78.0,78.0,133.0,57.0,1,2.0087890625,None,,,,,0,0,0,0,0,72,72,34,158.13921761512756,,,,,,,,,,,,,,,,,,,,,,,,,,,,,,,,,,,,,,,,,,,,,,,,,,,,,,,,,,,,,,,,,,,,,,,,,,,,,,,,,57.0,133.0,78.0,78.0,133.0,57.0,2.1,2.12,-202,-287,0,-253,164,252,158.1230115890503,158.12308812141418,158.1260278224945,158.13921761512756,158.2885603904724,158.2885603904724,158.2885603904724,158.2885603904724,158.2885603904724,158.2885603904724,158.2885603904724,160.15892243385315,1,2.0087890625,None,,,,,,,,,,,,,,,,,,121,4,2025-02-25_16h33.52.610,comp,2024.2.4,57.934216142225516,2025-02-25 16h34.33.348892 -0500,
73,73,0,critical,wdh,20.0,3.0,upper,125.0,200.0,141.0,141.0,200.0,125.0,3,2.5145037174224854,None,,,,,0,0,0,0,0,73,73,81,160.17740201950073,,,,,,,,,,,,,,,,,,,,,,,,,,,,,,,,,,,,,,,,,,,,,,,,,,,,,,,,,,,,,,,,,,,,,,,,,,,,,,,,,125.0,200.0,141.0,141.0,200.0,125.0,3.0,3.2,-266,-266,0,11,229,252,160.16052269935608,160.16061091423035,160.16366243362427,160.17740201950073,160.3224904537201,160.3224904537201,160.3224904537201,160.3224904537201,160.3224904537201,160.3224904537201,160.3224904537201,162.70646333694458,3,2.5145037174224854,None,,,,,,,,,,,,,,,,,,121,4,2025-02-25_16h33.52.610,comp,2024.2.4,57.934216142225516,2025-02-25 16h34.33.348892 -0500,
74,74,0,critical,dwh,35.0,3.0,upper,127.0,127.0,125.0,200.0,200.0,125.0,3,0.8738968372344971,None,,,,,0,0,0,0,0,74,74,63,162.72175192832947,,,,,,,,,,,,,,,,,,,,,,,,,,,,,,,,,,,,,,,,,,,,,,,,,,,,,,,,,,,,,,,,,,,,,,,,,,,,,,,,,127.0,127.0,125.0,200.0,200.0,125.0,3.0,3.2,-260,-274,0,13,258,288,162.70795273780823,162.70802879333496,162.71148538589478,162.72175192832947,162.8703076839447,162.8703076839447,162.8703076839447,162.8703076839447,162.8703076839447,162.8703076839447,162.8703076839447,163.60591959953308,3,0.8738968372344971,None,,,,,,,,,,,,,,,,,,121,4,2025-02-25_16h33.52.610,comp,2024.2.4,57.934216142225516,2025-02-25 16h34.33.348892 -0500,
75,75,0,filler_random,None,None,None,None,None,None,None,None,None,None,3,0.836963415145874,None,,,,,0,0,0,0,0,75,75,154,163.62276315689087,,,,,,,,,,,,,,,,,,,,,,,,,,,,,,,,,,,,,,,,,,,,,,,,,,,,,,,,,,,,,,,,,,,,,,,,,,,,,,,,,188.00301526182818,66.14412236454334,189.67095650888217,74.47517791353329,186.92075359325577,122.56980843390494,3.0,3.2,-166,-256,0,3,195,274,163.60772228240967,163.60785174369812,163.61094760894775,163.62276315689087,163.7798171043396,163.7798171043396,163.7798171043396,163.7798171043396,163.7798171043396,163.7798171043396,163.7798171043396,164.47329592704773,3,0.836963415145874,None,,,,,,,,,,,,,,,,,,121,4,2025-02-25_16h33.52.610,comp,2024.2.4,57.934216142225516,2025-02-25 16h34.33.348892 -0500,
76,76,0,critical,hdw,35.0,4.0,upper,200.0,125.0,127.0,127.0,125.0,200.0,1,0.9921591281890869,None,,,,,0,0,0,0,0,76,76,113,164.49267721176147,,,,,,,,,,,,,,,,,,,,,,,,,,,,,,,,,,,,,,,,,,,,,,,,,,,,,,,,,,,,,,,,,,,,,,,,,,,,,,,,,200.0,125.0,127.0,127.0,125.0,200.0,4.0,4.2,-222,16,0,-255,260,-2,164.47472214698792,164.47479891777039,164.47769331932068,164.49267721176147,164.6404411792755,164.6404411792755,164.6404411792755,164.6404411792755,164.6404411792755,164.6404411792755,164.6404411792755,165.48763966560364,1,0.9921591281890869,None,,,,,,,,,,,,,,,,,,121,4,2025-02-25_16h33.52.610,comp,2024.2.4,57.934216142225516,2025-02-25 16h34.33.348892 -0500,
77,77,0,filler_random,None,None,None,None,None,None,None,None,None,None,2,1.6188015937805176,None,,,,,0,0,0,0,0,77,77,169,165.50510263442993,,,,,,,,,,,,,,,,,,,,,,,,,,,,,,,,,,,,,,,,,,,,,,,,,,,,,,,,,,,,,,,,,,,,,,,,,,,,,,,,,96.71747311709785,116.24801287893325,104.96005831275095,164.15767578159515,70.4215305221616,190.38804278119744,1.0,1.3,244,-281,480,-254,753,-253,165.48928093910217,165.48935842514038,165.49211716651917,165.50510263442993,165.66304183006287,165.66304183006287,165.66304183006287,165.66304183006287,165.66304183006287,165.66304183006287,165.66304183006287,167.12831664085388,2,1.6188015937805176,None,,,,,,,,,,,,,,,,,,121,4,2025-02-25_16h33.52.610,comp,2024.2.4,57.934216142225516,2025-02-25 16h34.33.348892 -0500,
78,78,0,critical,hdw,35.0,2.1,upper,200.0,125.0,127.0,127.0,125.0,200.0,3,1.1218490600585938,None,,,,,0,0,0,0,0,78,78,21,167.14616107940674,,,,,,,,,,,,,,,,,,,,,,,,,,,,,,,,,,,,,,,,,,,,,,,,,,,,,,,,,,,,,,,,,,,,,,,,,,,,,,,,,200.0,125.0,127.0,127.0,125.0,200.0,2.1,2.11,-222,274,0,290,260,-273,167.1297903060913,167.12986660003662,167.13265705108643,167.14616107940674,167.29116773605347,167.29116773605347,167.29116773605347,167.29116773605347,167.29116773605347,167.29116773605347,167.29116773605347,168.2758104801178,3,1.1218490600585938,None,,,,,,,,,,,,,,,,,,121,4,2025-02-25_16h33.52.610,comp,2024.2.4,57.934216142225516,2025-02-25 16h34.33.348892 -0500,
79,79,0,critical,dhw,20.0,3.0,upper,141.0,141.0,200.0,125.0,125.0,200.0,3,1.0402851104736328,None,,,,,0,0,0,0,0,79,79,57,168.29155015945435,,,,,,,,,,,,,,,,,,,,,,,,,,,,,,,,,,,,,,,,,,,,,,,,,,,,,,,,,,,,,,,,,,,,,,,,,,,,,,,,,141.0,141.0,200.0,125.0,125.0,200.0,3.0,3.1,-229,260,0,7,258,-277,168.2773241996765,168.27740001678467,168.2807776927948,168.29155015945435,168.44249081611633,168.44249081611633,168.44249081611633,168.44249081611633,168.44249081611633,168.44249081611633,168.44249081611633,169.34656858444214,3,1.0402851104736328,None,,,,,,,,,,,,,,,,,,121,4,2025-02-25_16h33.52.610,comp,2024.2.4,57.934216142225516,2025-02-25 16h34.33.348892 -0500,
80,80,0,filler_square,None,None,None,None,None,None,None,None,None,None,1,0.8400521278381348,None,,,,,0,0,0,0,0,80,80,172,169.3646776676178,,,,,,,,,,,,,,,,,,,,,,,,,,,,,,,,,,,,,,,,,,,,,,,,,,,,,,,,,,,,,,,,,,,,,,,,,,,,,,,,,131.8963216960301,131.8963216960301,71.41839557611367,80.22004733016325,103.63738746589232,86.85395247696279,3.0,3.2,-202,-287,0,20,180,273,169.34831023216248,169.3483862876892,169.35117864608765,169.3646776676178,169.5092990398407,169.5092990398407,169.5092990398407,169.5092990398407,169.5092990398407,169.5092990398407,169.5092990398407,170.21063923835754,1,0.8400521278381348,None,,,,,,,,,,,,,,,,,,121,4,2025-02-25_16h33.52.610,comp,2024.2.4,57.934216142225516,2025-02-25 16h34.33.348892 -0500,
81,81,0,critical,hwd,35.0,1.0,lower,133.0,57.0,57.0,133.0,70.0,70.0,2,1.4976067543029785,None,,,,,0,0,0,0,0,81,81,96,170.2266709804535,,,,,,,,,,,,,,,,,,,,,,,,,,,,,,,,,,,,,,,,,,,,,,,,,,,,,,,,,,,,,,,,,,,,,,,,,,,,,,,,,133.0,57.0,57.0,133.0,70.0,70.0,1.0,1.1,-671,286,-480,254,-282,281,170.2121982574463,170.2123041152954,170.21551489830017,170.2266709804535,170.3762001991272,170.3762001991272,170.3762001991272,170.3762001991272,170.3762001991272,170.3762001991272,170.3762001991272,171.7331748008728,2,1.4976067543029785,None,,,,,,,,,,,,,,,,,,121,4,2025-02-25_16h33.52.610,comp,2024.2.4,57.934216142225516,2025-02-25 16h34.33.348892 -0500,
82,82,0,critical,dhw,35.0,2.1,upper,127.0,127.0,200.0,125.0,125.0,200.0,3,0.8220291137695312,None,,,,,0,0,0,0,0,82,82,25,171.75034356117249,,,,,,,,,,,,,,,,,,,,,,,,,,,,,,,,,,,,,,,,,,,,,,,,,,,,,,,,,,,,,,,,,,,,,,,,,,,,,,,,,127.0,127.0,200.0,125.0,125.0,200.0,2.1,2.12,-222,-281,0,-254,258,252,171.7346694469452,171.7347445487976,171.73755621910095,171.75034356117249,171.8933413028717,171.8933413028717,171.8933413028717,171.8933413028717,171.8933413028717,171.8933413028717,171.8933413028717,172.57907629013062,3,0.8220291137695312,None,,,,,,,,,,,,,,,,,,121,4,2025-02-25_16h33.52.610,comp,2024.2.4,57.934216142225516,2025-02-25 16h34.33.348892 -0500,
83,83,0,critical,whd,20.0,1.0,upper,125.0,200.0,200.0,125.0,141.0,141.0,1,2.0974535942077637,None,,,,,0,0,0,0,0,83,83,91,172.59427046775818,,,,,,,,,,,,,,,,,,,,,,,,,,,,,,,,,,,,,,,,,,,,,,,,,,,,,,,,,,,,,,,,,,,,,,,,,,,,,,,,,125.0,200.0,200.0,125.0,141.0,141.0,1.0,1.1,-738,261,-480,255,-251,251,172.58064532279968,172.5807240009308,172.58370232582092,172.59427046775818,172.7438735961914,172.7438735961914,172.7438735961914,172.7438735961914,172.7438735961914,172.7438735961914,172.7438735961914,174.70656299591064,1,2.0974535942077637,None,,,,,,,,,,,,,,,,,,121,4,2025-02-25_16h33.52.610,comp,2024.2.4,57.934216142225516,2025-02-25 16h34.33.348892 -0500,
84,84,0,filler_random,None,None,None,None,None,None,None,None,None,None,2,1.0256478786468506,None,,,,,0,0,0,0,0,84,84,133,174.7222216129303,,,,,,,,,,,,,,,,,,,,,,,,,,,,,,,,,,,,,,,,,,,,,,,,,,,,,,,,,,,,,,,,,,,,,,,,,,,,,,,,,170.69147562511915,175.09278289421977,138.9861712787402,192.43123638519296,103.41744173327154,159.44302091972804,4.0,4.1,-280,-265,0,12,272,-255,174.70818614959717,174.7083034515381,174.7110538482666,174.7222216129303,174.87375831604004,174.87375831604004,174.87375831604004,174.87375831604004,174.87375831604004,174.87375831604004,174.87375831604004,175.76254391670227,2,1.0256478786468506,None,,,,,,,,,,,,,,,,,,121,4,2025-02-25_16h33.52.610,comp,2024.2.4,57.934216142225516,2025-02-25 16h34.33.348892 -0500,
85,85,0,filler_square,None,None,None,None,None,None,None,None,None,None,3,1.2013747692108154,None,,,,,0,0,0,0,0,85,85,187,175.7783932685852,,,,,,,,,,,,,,,,,,,,,,,,,,,,,,,,,,,,,,,,,,,,,,,,,,,,,,,,,,,,,,,,,,,,,,,,,,,,,,,,,58.81429229306298,58.81429229306298,57.63990475133461,57.884544241517126,57.95635751075695,58.38138416156729,3.0,3.1,-154,279,0,-16,154,-255,175.76473450660706,175.7648618221283,175.76812863349915,175.7783932685852,175.92658829689026,175.92658829689026,175.92658829689026,175.92658829689026,175.92658829689026,175.92658829689026,175.92658829689026,176.99433088302612,3,1.2013747692108154,None,,,,,,,,,,,,,,,,,,121,4,2025-02-25_16h33.52.610,comp,2024.2.4,57.934216142225516,2025-02-25 16h34.33.348892 -0500,
86,86,0,critical,wdh,20.0,2.1,upper,125.0,200.0,141.0,141.0,200.0,125.0,3,2.612335205078125,None,,,,,0,0,0,0,0,86,86,35,177.00811743736267,,,,,,,,,,,,,,,,,,,,,,,,,,,,,,,,,,,,,,,,,,,,,,,,,,,,,,,,,,,,,,,,,,,,,,,,,,,,,,,,,125.0,200.0,141.0,141.0,200.0,125.0,2.1,2.11,-266,253,0,287,229,-272,176.9958460330963,176.99592328071594,176.99898838996887,177.00811743736267,177.16168856620789,177.16168856620789,177.16168856620789,177.16168856620789,177.16168856620789,177.16168856620789,177.16168856620789,179.6284420490265,3,2.612335205078125,None,,,,,,,,,,,,,,,,,,121,4,2025-02-25_16h33.52.610,comp,2024.2.4,57.934216142225516,2025-02-25 16h34.33.348892 -0500,
87,87,0,critical,whd,35.0,2.1,lower,57.0,133.0,133.0,57.0,70.0,70.0,1,2.1278233528137207,None,,,,,0,0,0,0,0,87,87,12,179.6446840763092,,,,,,,,,,,,,,,,,,,,,,,,,,,,,,,,,,,,,,,,,,,,,,,,,,,,,,,,,,,,,,,,,,,,,,,,,,,,,,,,,57.0,133.0,133.0,57.0,70.0,70.0,2.1,2.12,-191,-280,0,-285,160,283,179.6298975944519,179.62997364997864,179.63319563865662,179.6446840763092,179.79534769058228,179.79534769058228,179.79534769058228,179.79534769058228,179.79534769058228,179.79534769058228,179.79534769058228,181.77934670448303,1,2.1278233528137207,None,,,,,,,,,,,,,,,,,,121,4,2025-02-25_16h33.52.610,comp,2024.2.4,57.934216142225516,2025-02-25 16h34.33.348892 -0500,
88,88,0,critical,hwd,20.0,4.0,upper,200.0,125.0,125.0,200.0,141.0,141.0,2,1.3051960468292236,None,,,,,0,0,0,0,0,88,88,107,181.79420924186707,,,,,,,,,,,,,,,,,,,,,,,,,,,,,,,,,,,,,,,,,,,,,,,,,,,,,,,,,,,,,,,,,,,,,,,,,,,,,,,,,200.0,125.0,125.0,200.0,141.0,141.0,4.0,4.2,-258,-1,0,-277,266,5,181.78078985214233,181.7808666229248,181.7843940258026,181.79420924186707,181.94730257987976,181.94730257987976,181.94730257987976,181.94730257987976,181.94730257987976,181.94730257987976,181.94730257987976,183.1138346195221,2,1.3051960468292236,None,,,,,,,,,,,,,,,,,,121,4,2025-02-25_16h33.52.610,comp,2024.2.4,57.934216142225516,2025-02-25 16h34.33.348892 -0500,
89,89,0,critical,dwh,20.0,3.0,upper,141.0,141.0,125.0,200.0,200.0,125.0,2,1.1174826622009277,None,,,,,0,0,0,0,0,89,89,69,183.13417196273804,,,,,,,,,,,,,,,,,,,,,,,,,,,,,,,,,,,,,,,,,,,,,,,,,,,,,,,,,,,,,,,,,,,,,,,,,,,,,,,,,141.0,141.0,125.0,200.0,200.0,125.0,3.0,3.1,-266,250,0,-17,258,-285,183.1154661178589,183.1155412197113,183.11884355545044,183.13417196273804,183.2797496318817,183.2797496318817,183.2797496318817,183.2797496318817,183.2797496318817,183.2797496318817,183.2797496318817,184.27003240585327,2,1.1174826622009277,None,,,,,,,,,,,,,,,,,,121,4,2025-02-25_16h33.52.610,comp,2024.2.4,57.934216142225516,2025-02-25 16h34.33.348892 -0500,
90,90,0,filler_random,None,None,None,None,None,None,None,None,None,None,1,1.131180763244629,None,,,,,0,0,0,0,0,90,90,156,184.28972744941711,,,,,,,,,,,,,,,,,,,,,,,,,,,,,,,,,,,,,,,,,,,,,,,,,,,,,,,,,,,,,,,,,,,,,,,,,,,,,,,,,171.5722427533076,118.1590060902509,89.71242738882005,126.62309200537834,114.23924665956187,137.61293068297104,1.0,1.2,-218,0,0,18,228,-6,184.27160906791687,184.27168607711792,184.27450728416443,184.28972744941711,184.4299144744873,184.4299144744873,184.4299144744873,184.4299144744873,184.4299144744873,184.4299144744873,184.4299144744873,185.43771290779114,1,1.131180763244629,None,,,,,,,,,,,,,,,,,,121,4,2025-02-25_16h33.52.610,comp,2024.2.4,57.934216142225516,2025-02-25 16h34.33.348892 -0500,
91,91,0,filler_square,None,None,None,None,None,None,None,None,None,None,2,0.7320375442504883,None,,,,,0,0,0,0,0,91,91,190,185.45718812942505,,,,,,,,,,,,,,,,,,,,,,,,,,,,,,,,,,,,,,,,,,,,,,,,,,,,,,,,,,,,,,,,,,,,,,,,,,,,,,,,,65.04013918120924,100.29413520445269,196.51478712221936,196.51478712221936,183.55197774307703,115.08836435870579,1.0,1.2,-244,6,0,-18,252,-3,185.4396424293518,185.43975973129272,185.44289636611938,185.45718812942505,185.59378838539124,185.59378838539124,185.59378838539124,185.59378838539124,185.59378838539124,185.59378838539124,185.59378838539124,186.19622373580933,2,0.7320375442504883,None,,,,,,,,,,,,,,,,,,121,4,2025-02-25_16h33.52.610,comp,2024.2.4,57.934216142225516,2025-02-25 16h34.33.348892 -0500,
92,92,0,critical,hdw,35.0,2.1,upper,200.0,125.0,127.0,127.0,125.0,200.0,1,1.626176357269287,None,,,,,0,0,0,0,0,92,92,45,186.21149563789368,,,,,,,,,,,,,,,,,,,,,,,,,,,,,,,,,,,,,,,,,,,,,,,,,,,,,,,,,,,,,,,,,,,,,,,,,,,,,,,,,200.0,125.0,127.0,127.0,125.0,200.0,2.1,2.12,-222,-286,0,-278,260,287,186.19769191741943,186.19776844978333,186.2007598876953,186.21149563789368,186.36518383026123,186.36518383026123,186.36518383026123,186.36518383026123,186.36518383026123,186.36518383026123,186.36518383026123,187.84843158721924,1,1.626176357269287,None,,,,,,,,,,,,,,,,,,121,4,2025-02-25_16h33.52.610,comp,2024.2.4,57.934216142225516,2025-02-25 16h34.33.348892 -0500,
93,93,0,filler_square,None,None,None,None,None,None,None,None,None,None,3,1.7235310077667236,None,,,,,0,0,0,0,0,93,93,199,187.86520338058472,,,,,,,,,,,,,,,,,,,,,,,,,,,,,,,,,,,,,,,,,,,,,,,,,,,,,,,,,,,,,,,,,,,,,,,,,,,,,,,,,106.84307173900115,89.59931190062805,107.5018827022717,107.5018827022717,90.54699352710439,94.58863004308336,4.0,4.1,-195,-252,0,-19,197,-275,187.85019969940186,187.85029911994934,187.85418844223022,187.86520338058472,188.01965641975403,188.01965641975403,188.01965641975403,188.01965641975403,188.01965641975403,188.01965641975403,188.01965641975403,189.6067612171173,3,1.7235310077667236,None,,,,,,,,,,,,,,,,,,121,4,2025-02-25_16h33.52.610,comp,2024.2.4,57.934216142225516,2025-02-25 16h34.33.348892 -0500,
94,94,0,critical,hdw,35.0,2.1,lower,133.0,57.0,70.0,70.0,57.0,133.0,1,0.9875025749206543,None,,,,,0,0,0,0,0,94,94,44,189.62475967407227,,,,,,,,,,,,,,,,,,,,,,,,,,,,,,,,,,,,,,,,,,,,,,,,,,,,,,,,,,,,,,,,,,,,,,,,,,,,,,,,,133.0,57.0,70.0,70.0,57.0,133.0,2.1,2.11,-160,250,0,282,198,-272,189.60829424858093,189.60837411880493,189.6116111278534,189.62475967407227,189.76521015167236,189.76521015167236,189.76521015167236,189.76521015167236,189.76521015167236,189.76521015167236,189.76521015167236,190.6195204257965,1,0.9875025749206543,None,,,,,,,,,,,,,,,,,,121,4,2025-02-25_16h33.52.610,comp,2024.2.4,57.934216142225516,2025-02-25 16h34.33.348892 -0500,
95,95,0,critical,wdh,35.0,1.0,upper,125.0,200.0,127.0,127.0,200.0,125.0,1,1.6700105667114258,None,,,,,0,0,0,0,0,95,95,73,190.63980436325073,,,,,,,,,,,,,,,,,,,,,,,,,,,,,,,,,,,,,,,,,,,,,,,,,,,,,,,,,,,,,,,,,,,,,,,,,,,,,,,,,125.0,200.0,127.0,127.0,200.0,125.0,1.0,1.3,220,-271,480,-255,702,-258,190.62093353271484,190.6210196018219,190.6241056919098,190.63980436325073,190.7823944091797,190.7823944091797,190.7823944091797,190.7823944091797,190.7823944091797,190.7823944091797,190.7823944091797,192.31690430641174,1,1.6700105667114258,None,,,,,,,,,,,,,,,,,,121,4,2025-02-25_16h33.52.610,comp,2024.2.4,57.934216142225516,2025-02-25 16h34.33.348892 -0500,
96,96,0,filler_random,None,None,None,None,None,None,None,None,None,None,2,1.1588399410247803,None,,,,,0,0,0,0,0,96,96,143,192.33291578292847,,,,,,,,,,,,,,,,,,,,,,,,,,,,,,,,,,,,,,,,,,,,,,,,,,,,,,,,,,,,,,,,,,,,,,,,,,,,,,,,,146.44055959577042,92.74482782502295,166.81114668065982,171.75385133520405,124.987899437121,184.68199002350957,2.1,2.11,-228,271,0,264,274,-260,192.31851053237915,192.31858611106873,192.32153272628784,192.33291578292847,192.4819164276123,192.4819164276123,192.4819164276123,192.4819164276123,192.4819164276123,192.4819164276123,192.4819164276123,193.50415086746216,2,1.1588399410247803,None,,,,,,,,,,,,,,,,,,121,4,2025-02-25_16h33.52.610,comp,2024.2.4,57.934216142225516,2025-02-25 16h34.33.348892 -0500,
97,97,0,catch,None,None,None,None,None,None,None,None,None,None,3,0.7521214485168457,None,,,,,0,0,0,0,0,97,97,126,193.52438020706177,,,,,,,,,,,,,,,,,,,,,,,,,,,,,,,,,,,,,,,,,,,,,,,,,,,,,,,,,,,,,,,,,,,,,,,,,,,,,,,,,129,61,61,129,155,170,1.0,1.2,-191,6,0,-12,246,9,193.50602912902832,193.50610876083374,193.50889015197754,193.52438020706177,193.66700077056885,193.66700077056885,193.66700077056885,193.66700077056885,193.66700077056885,193.66700077056885,193.66700077056885,194.28337979316711,3,0.7521214485168457,None,,,,,,,,,,,,,,,,,,121,4,2025-02-25_16h33.52.610,comp,2024.2.4,57.934216142225516,2025-02-25 16h34.33.348892 -0500,
98,98,0,filler_square,None,None,None,None,None,None,None,None,None,None,2,1.3941149711608887,None,,,,,0,0,0,0,0,98,98,186,194.30004382133484,,,,,,,,,,,,,,,,,,,,,,,,,,,,,,,,,,,,,,,,,,,,,,,,,,,,,,,,,,,,,,,,,,,,,,,,,,,,,,,,,85.45617042783365,82.07690901899369,91.62968288955068,91.62968288955068,90.6182685807319,87.34259726832889,2.2,2.22,-183,278,0,-266,185,-285,194.2854025363922,194.2854824066162,194.2894778251648,194.30004382133484,194.45127320289612,194.45127320289612,194.45127320289612,194.45127320289612,194.45127320289612,194.45127320289612,194.45127320289612,195.69869542121887,2,1.3941149711608887,None,,,,,,,,,,,,,,,,,,121,4,2025-02-25_16h33.52.610,comp,2024.2.4,57.934216142225516,2025-02-25 16h34.33.348892 -0500,
99,99,0,critical,dwh,35.0,4.0,upper,127.0,127.0,125.0,200.0,200.0,125.0,3,1.2812376022338867,None,,,,,0,0,0,0,0,99,99,65,195.7147979736328,,,,,,,,,,,,,,,,,,,,,,,,,,,,,,,,,,,,,,,,,,,,,,,,,,,,,,,,,,,,,,,,,,,,,,,,,,,,,,,,,127.0,127.0,125.0,200.0,200.0,125.0,4.0,4.1,-260,-260,0,-11,258,-278,195.70019793510437,195.7002935409546,195.7030246257782,195.7147979736328,195.85240697860718,195.85240697860718,195.85240697860718,195.85240697860718,195.85240697860718,195.85240697860718,195.85240697860718,196.9997637271881,3,1.2812376022338867,None,,,,,,,,,,,,,,,,,,121,4,2025-02-25_16h33.52.610,comp,2024.2.4,57.934216142225516,2025-02-25 16h34.33.348892 -0500,
100,100,0,critical,hdw,20.0,3.0,upper,200.0,125.0,141.0,141.0,125.0,200.0,1,1.1586952209472656,None,,,,,0,0,0,0,0,100,100,117,197.01532435417175,,,,,,,,,,,,,,,,,,,,,,,,,,,,,,,,,,,,,,,,,,,,,,,,,,,,,,,,,,,,,,,,,,,,,,,,,,,,,,,,,200.0,125.0,141.0,141.0,125.0,200.0,3.0,3.2,-229,-260,0,3,266,282,197.00119471549988,197.00129342079163,197.00410437583923,197.01532435417175,197.1708905696869,197.1708905696869,197.1708905696869,197.1708905696869,197.1708905696869,197.1708905696869,197.1708905696869,198.18497109413147,1,1.1586952209472656,None,,,,,,,,,,,,,,,,,,121,4,2025-02-25_16h33.52.610,comp,2024.2.4,57.934216142225516,2025-02-25 16h34.33.348892 -0500,
101,101,0,critical,hwd,20.0,2.1,lower,133.0,57.0,57.0,133.0,78.0,78.0,3,1.1153552532196045,None,,,,,0,0,0,0,0,101,101,18,198.20114398002625,,,,,,,,,,,,,,,,,,,,,,,,,,,,,,,,,,,,,,,,,,,,,,,,,,,,,,,,,,,,,,,,,,,,,,,,,,,,,,,,,133.0,57.0,57.0,133.0,78.0,78.0,2.1,2.11,-191,268,0,268,202,-272,198.1865963935852,198.18667483329773,198.1904594898224,198.20114398002625,198.34867477416992,198.34867477416992,198.34867477416992,198.34867477416992,198.34867477416992,198.34867477416992,198.34867477416992,199.32250142097473,3,1.1153552532196045,None,,,,,,,,,,,,,,,,,,121,4,2025-02-25_16h33.52.610,comp,2024.2.4,57.934216142225516,2025-02-25 16h34.33.348892 -0500,
102,102,0,critical,dhw,20.0,2.1,upper,141.0,141.0,200.0,125.0,125.0,200.0,3,0.8092923164367676,None,,,,,0,0,0,0,0,102,102,3,199.33905625343323,,,,,,,,,,,,,,,,,,,,,,,,,,,,,,,,,,,,,,,,,,,,,,,,,,,,,,,,,,,,,,,,,,,,,,,,,,,,,,,,,141.0,141.0,200.0,125.0,125.0,200.0,2.1,2.11,-229,285,0,257,258,-254,199.3240830898285,199.32416081428528,199.3273344039917,199.33905625343323,199.48198127746582,199.48198127746582,199.48198127746582,199.48198127746582,199.48198127746582,199.48198127746582,199.48198127746582,200.15374398231506,3,0.8092923164367676,None,,,,,,,,,,,,,,,,,,121,4,2025-02-25_16h33.52.610,comp,2024.2.4,57.934216142225516,2025-02-25 16h34.33.348892 -0500,
103,103,0,critical,hwd,20.0,2.1,upper,200.0,125.0,125.0,200.0,141.0,141.0,2,1.0462157726287842,None,,,,,0,0,0,0,0,103,103,43,200.17366290092468,,,,,,,,,,,,,,,,,,,,,,,,,,,,,,,,,,,,,,,,,,,,,,,,,,,,,,,,,,,,,,,,,,,,,,,,,,,,,,,,,200.0,125.0,125.0,200.0,141.0,141.0,2.1,2.12,-258,-279,0,-250,266,256,200.1553018093109,200.15538048744202,200.1584005355835,200.17366290092468,200.31530833244324,200.31530833244324,200.31530833244324,200.31530833244324,200.31530833244324,200.31530833244324,200.31530833244324,201.23480916023254,2,1.0462157726287842,None,,,,,,,,,,,,,,,,,,121,4,2025-02-25_16h33.52.610,comp,2024.2.4,57.934216142225516,2025-02-25 16h34.33.348892 -0500,
104,104,0,critical,whd,35.0,1.0,upper,125.0,200.0,200.0,125.0,127.0,127.0,2,1.5848591327667236,None,,,,,0,0,0,0,0,104,104,85,201.25089931488037,,,,,,,,,,,,,,,,,,,,,,,,,,,,,,,,,,,,,,,,,,,,,,,,,,,,,,,,,,,,,,,,,,,,,,,,,,,,,,,,,125.0,200.0,200.0,125.0,127.0,127.0,1.0,1.1,-738,259,-480,287,-258,276,201.23638677597046,201.23646211624146,201.23973608016968,201.25089931488037,201.4066252708435,201.4066252708435,201.4066252708435,201.4066252708435,201.4066252708435,201.4066252708435,201.4066252708435,202.837735414505,2,1.5848591327667236,None,,,,,,,,,,,,,,,,,,121,4,2025-02-25_16h33.52.610,comp,2024.2.4,57.934216142225516,2025-02-25 16h34.33.348892 -0500,
105,105,0,filler_square,None,None,None,None,None,None,None,None,None,None,1,1.1180031299591064,None,,,,,0,0,0,0,0,105,105,173,202.853759765625,,,,,,,,,,,,,,,,,,,,,,,,,,,,,,,,,,,,,,,,,,,,,,,,,,,,,,,,,,,,,,,,,,,,,,,,,,,,,,,,,129.2451493989028,129.2451493989028,109.95004498866317,59.94106511776532,111.27506324211308,123.71832108283864,2.2,2.21,-191,-282,0,281,188,253,202.83986926078796,202.83999061584473,202.84318685531616,202.853759765625,203.00189852714539,203.00189852714539,203.00189852714539,203.00189852714539,203.00189852714539,203.00189852714539,203.00189852714539,203.9913251399994,1,1.1180031299591064,None,,,,,,,,,,,,,,,,,,121,4,2025-02-25_16h33.52.610,comp,2024.2.4,57.934216142225516,2025-02-25 16h34.33.348892 -0500,
106,106,0,critical,hdw,20.0,1.0,lower,133.0,57.0,78.0,78.0,57.0,133.0,3,1.3071377277374268,None,,,,,0,0,0,0,0,106,106,114,204.0085573196411,,,,,,,,,,,,,,,,,,,,,,,,,,,,,,,,,,,,,,,,,,,,,,,,,,,,,,,,,,,,,,,,,,,,,,,,,,,,,,,,,133.0,57.0,78.0,78.0,57.0,133.0,1.0,1.3,316,-260,480,-266,682,-284,203.99285984039307,203.99294686317444,203.9960744380951,204.0085573196411,204.15390539169312,204.15390539169312,204.15390539169312,204.15390539169312,204.15390539169312,204.15390539169312,204.15390539169312,205.3199062347412,3,1.3071377277374268,None,,,,,,,,,,,,,,,,,,121,4,2025-02-25_16h33.52.610,comp,2024.2.4,57.934216142225516,2025-02-25 16h34.33.348892 -0500,
107,107,0,filler_square,None,None,None,None,None,None,None,None,None,None,1,1.3976430892944336,None,,,,,0,0,0,0,0,107,107,205,205.33443903923035,,,,,,,,,,,,,,,,,,,,,,,,,,,,,,,,,,,,,,,,,,,,,,,,,,,,,,,,,,,,,,,,,,,,,,,,,,,,,,,,,118.19110765043271,93.36796427754061,80.10700068190964,97.04168235994385,121.04618442601637,121.04618442601637,2.1,2.12,-191,-256,0,-275,205,282,205.32162737846375,205.3217031955719,205.32482767105103,205.33443903923035,205.47430539131165,205.47430539131165,205.47430539131165,205.47430539131165,205.47430539131165,205.47430539131165,205.47430539131165,206.7360692024231,1,1.3976430892944336,None,,,,,,,,,,,,,,,,,,121,4,2025-02-25_16h33.52.610,comp,2024.2.4,57.934216142225516,2025-02-25 16h34.33.348892 -0500,
108,108,0,critical,whd,20.0,2.1,lower,57.0,133.0,133.0,57.0,78.0,78.0,3,1.2656896114349365,None,,,,,0,0,0,0,0,108,108,38,206.75458550453186,,,,,,,,,,,,,,,,,,,,,,,,,,,,,,,,,,,,,,,,,,,,,,,,,,,,,,,,,,,,,,,,,,,,,,,,,,,,,,,,,57.0,133.0,133.0,57.0,78.0,78.0,2.1,2.11,-191,270,0,273,164,-258,206.73755192756653,206.73763060569763,206.74057936668396,206.75458550453186,206.90308594703674,206.90308594703674,206.90308594703674,206.90308594703674,206.90308594703674,206.90308594703674,206.90308594703674,208.03455424308777,3,1.2656896114349365,None,,,,,,,,,,,,,,,,,,121,4,2025-02-25_16h33.52.610,comp,2024.2.4,57.934216142225516,2025-02-25 16h34.33.348892 -0500,
109,109,0,filler_random,None,None,None,None,None,None,None,None,None,None,2,0.8812994956970215,None,,,,,0,0,0,0,0,109,109,137,208.0508029460907,,,,,,,,,,,,,,,,,,,,,,,,,,,,,,,,,,,,,,,,,,,,,,,,,,,,,,,,,,,,,,,,,,,,,,,,,,,,,,,,,190.44819466422678,66.55361860925566,190.1250211684356,196.16840601482872,130.31624926927378,96.75293406216133,3.0,3.2,-227,-256,0,15,242,267,208.03617811203003,208.0362741947174,208.03898978233337,208.0508029460907,208.18986916542053,208.18986916542053,208.18986916542053,208.18986916542053,208.18986916542053,208.18986916542053,208.18986916542053,208.94296383857727,2,0.8812994956970215,None,,,,,,,,,,,,,,,,,,121,4,2025-02-25_16h33.52.610,comp,2024.2.4,57.934216142225516,2025-02-25 16h34.33.348892 -0500,
110,110,0,filler_random,None,None,None,None,None,None,None,None,None,None,2,0.9077808856964111,None,,,,,0,0,0,0,0,110,110,165,208.96035194396973,,,,,,,,,,,,,,,,,,,,,,,,,,,,,,,,,,,,,,,,,,,,,,,,,,,,,,,,,,,,,,,,,,,,,,,,,,,,,,,,,154.7207784934856,63.019667051947906,184.0686485331941,137.7233143663663,128.50779347933525,99.92916950430754,2.2,2.22,-196,286,0,-257,215,-266,208.9447410106659,208.94481992721558,208.94764947891235,208.96035194396973,209.1046781539917,209.1046781539917,209.1046781539917,209.1046781539917,209.1046781539917,209.1046781539917,209.1046781539917,209.8722939491272,2,0.9077808856964111,None,,,,,,,,,,,,,,,,,,121,4,2025-02-25_16h33.52.610,comp,2024.2.4,57.934216142225516,2025-02-25 16h34.33.348892 -0500,
111,111,0,filler_square,None,None,None,None,None,None,None,None,None,None,1,1.155839204788208,None,,,,,0,0,0,0,0,111,111,175,209.88805890083313,,,,,,,,,,,,,,,,,,,,,,,,,,,,,,,,,,,,,,,,,,,,,,,,,,,,,,,,,,,,,,,,,,,,,,,,,,,,,,,,,118.48934706293244,120.01523703160717,123.75460154401587,123.75460154401587,62.53956406252822,83.96943700748909,4.0,4.1,-218,-263,0,18,200,-264,209.87404322624207,209.87412095069885,209.87739253044128,209.88805890083313,210.03796482086182,210.03796482086182,210.03796482086182,210.03796482086182,210.03796482086182,210.03796482086182,210.03796482086182,211.06476187705994,1,1.155839204788208,None,,,,,,,,,,,,,,,,,,121,4,2025-02-25_16h33.52.610,comp,2024.2.4,57.934216142225516,2025-02-25 16h34.33.348892 -0500,
112,112,0,filler_square,None,None,None,None,None,None,None,None,None,None,3,1.0899930000305176,None,,,,,0,0,0,0,0,112,112,193,211.08198404312134,,,,,,,,,,,,,,,,,,,,,,,,,,,,,,,,,,,,,,,,,,,,,,,,,,,,,,,,,,,,,,,,,,,,,,,,,,,,,,,,,159.42803501529488,159.42803501529488,107.99802812483634,99.50923836868216,132.2023413649828,121.08223111564399,2.2,2.22,-225,268,0,-269,206,-261,211.06656050682068,211.0666356086731,211.06938886642456,211.08198404312134,211.22475624084473,211.22475624084473,211.22475624084473,211.22475624084473,211.22475624084473,211.22475624084473,211.22475624084473,212.18874788284302,3,1.0899930000305176,None,,,,,,,,,,,,,,,,,,121,4,2025-02-25_16h33.52.610,comp,2024.2.4,57.934216142225516,2025-02-25 16h34.33.348892 -0500,
113,113,0,critical,dwh,35.0,2.1,upper,127.0,127.0,125.0,200.0,200.0,125.0,3,1.112074851989746,None,,,,,0,0,0,0,0,113,113,29,212.20386481285095,,,,,,,,,,,,,,,,,,,,,,,,,,,,,,,,,,,,,,,,,,,,,,,,,,,,,,,,,,,,,,,,,,,,,,,,,,,,,,,,,127.0,127.0,125.0,200.0,200.0,125.0,2.1,2.12,-260,-270,0,-271,258,260,212.190171957016,212.19027256965637,212.1935691833496,212.20386481285095,212.35638976097107,212.35638976097107,212.35638976097107,212.35638976097107,212.35638976097107,212.35638976097107,212.35638976097107,213.3188145160675,3,1.112074851989746,None,,,,,,,,,,,,,,,,,,121,4,2025-02-25_16h33.52.610,comp,2024.2.4,57.934216142225516,2025-02-25 16h34.33.348892 -0500,
114,114,0,critical,hwd,35.0,4.0,upper,200.0,125.0,125.0,200.0,127.0,127.0,2,0.9018664360046387,None,,,,,0,0,0,0,0,114,114,101,213.33434677124023,,,,,,,,,,,,,,,,,,,,,,,,,,,,,,,,,,,,,,,,,,,,,,,,,,,,,,,,,,,,,,,,,,,,,,,,,,,,,,,,,200.0,125.0,125.0,200.0,127.0,127.0,4.0,4.2,-258,-13,0,-250,260,-15,213.3204584121704,213.3205349445343,213.32346057891846,213.33434677124023,213.47540187835693,213.47540187835693,213.47540187835693,213.47540187835693,213.47540187835693,213.47540187835693,213.47540187835693,214.23998975753784,2,0.9018664360046387,None,,,,,,,,,,,,,,,,,,121,4,2025-02-25_16h33.52.610,comp,2024.2.4,57.934216142225516,2025-02-25 16h34.33.348892 -0500,
115,115,0,critical,wdh,35.0,2.1,lower,57.0,133.0,70.0,70.0,133.0,57.0,3,1.043851613998413,None,,,,,0,0,0,0,0,115,115,8,214.25643801689148,,,,,,,,,,,,,,,,,,,,,,,,,,,,,,,,,,,,,,,,,,,,,,,,,,,,,,,,,,,,,,,,,,,,,,,,,,,,,,,,,57.0,133.0,70.0,70.0,133.0,57.0,2.1,2.11,-198,285,0,256,160,-275,214.2416114807129,214.24168801307678,214.24491786956787,214.25643801689148,214.40665650367737,214.40665650367737,214.40665650367737,214.40665650367737,214.40665650367737,214.40665650367737,214.40665650367737,215.30567407608032,3,1.043851613998413,None,,,,,,,,,,,,,,,,,,121,4,2025-02-25_16h33.52.610,comp,2024.2.4,57.934216142225516,2025-02-25 16h34.33.348892 -0500,
116,116,0,critical,hdw,20.0,4.0,upper,200.0,125.0,141.0,141.0,125.0,200.0,2,0.9694640636444092,None,,,,,0,0,0,0,0,116,116,119,215.32278871536255,,,,,,,,,,,,,,,,,,,,,,,,,,,,,,,,,,,,,,,,,,,,,,,,,,,,,,,,,,,,,,,,,,,,,,,,,,,,,,,,,200.0,125.0,141.0,141.0,125.0,200.0,4.0,4.1,-229,-261,0,11,266,-250,215.30712246894836,215.30719923973083,215.3105947971344,215.32278871536255,215.4748077392578,215.4748077392578,215.4748077392578,215.4748077392578,215.4748077392578,215.4748077392578,215.4748077392578,216.2993278503418,2,0.9694640636444092,None,,,,,,,,,,,,,,,,,,121,4,2025-02-25_16h33.52.610,comp,2024.2.4,57.934216142225516,2025-02-25 16h34.33.348892 -0500,
117,117,0,filler_square,None,None,None,None,None,None,None,None,None,None,3,1.0199425220489502,None,,,,,0,0,0,0,0,117,117,179,216.32010054588318,,,,,,,,,,,,,,,,,,,,,,,,,,,,,,,,,,,,,,,,,,,,,,,,,,,,,,,,,,,,,,,,,,,,,,,,,,,,,,,,,98.28423441608663,105.24281035726695,91.34671430616724,104.86532244383622,113.17831352821298,113.17831352821298,2.1,2.11,-201,252,0,251,205,-285,216.30111956596375,216.3012659549713,216.30444192886353,216.32010054588318,216.45736646652222,216.45736646652222,216.45736646652222,216.45736646652222,216.45736646652222,216.45736646652222,216.45736646652222,217.34546995162964,3,1.0199425220489502,None,,,,,,,,,,,,,,,,,,121,4,2025-02-25_16h33.52.610,comp,2024.2.4,57.934216142225516,2025-02-25 16h34.33.348892 -0500,
118,118,0,critical,dwh,20.0,1.0,upper,141.0,141.0,125.0,200.0,200.0,125.0,2,1.0730295181274414,None,,,,,0,0,0,0,0,118,118,67,217.3630256652832,,,,,,,,,,,,,,,,,,,,,,,,,,,,,,,,,,,,,,,,,,,,,,,,,,,,,,,,,,,,,,,,,,,,,,,,,,,,,,,,,141.0,141.0,125.0,200.0,200.0,125.0,1.0,1.1,-746,269,-480,290,-222,279,217.34698700904846,217.34706282615662,217.35020923614502,217.3630256652832,217.508465051651,217.508465051651,217.508465051651,217.508465051651,217.508465051651,217.508465051651,217.508465051651,218.4412956237793,2,1.0730295181274414,None,,,,,,,,,,,,,,,,,,121,4,2025-02-25_16h33.52.610,comp,2024.2.4,57.934216142225516,2025-02-25 16h34.33.348892 -0500,
119,119,0,critical,hwd,35.0,3.0,lower,133.0,57.0,57.0,133.0,70.0,70.0,3,1.3550193309783936,None,,,,,0,0,0,0,0,119,119,98,218.45671153068542,,,,,,,,,,,,,,,,,,,,,,,,,,,,,,,,,,,,,,,,,,,,,,,,,,,,,,,,,,,,,,,,,,,,,,,,,,,,,,,,,133.0,57.0,57.0,133.0,70.0,70.0,3.0,3.1,-191,253,0,1,198,-268,218.44277787208557,218.44285607337952,218.44611239433289,218.45671153068542,218.594899892807,218.594899892807,218.594899892807,218.594899892807,218.594899892807,218.594899892807,218.594899892807,219.82232403755188,3,1.3550193309783936,None,,,,,,,,,,,,,,,,,,121,4,2025-02-25_16h33.52.610,comp,2024.2.4,57.934216142225516,2025-02-25 16h34.33.348892 -0500,
120,120,0,critical,wdh,20.0,3.0,lower,57.0,133.0,78.0,78.0,133.0,57.0,3,1.525172233581543,None,,,,,0,0,0,0,0,120,120,80,219.8387598991394,,,,,,,,,,,,,,,,,,,,,,,,,,,,,,,,,,,,,,,,,,,,,,,,,,,,,,,,,,,,,,,,,,,,,,,,,,,,,,,,,57.0,133.0,78.0,78.0,133.0,57.0,3.0,3.1,-202,266,0,-2,164,-255,219.82387113571167,219.82394766807556,219.82718968391418,219.8387598991394,219.99033951759338,219.99033951759338,219.99033951759338,219.99033951759338,219.99033951759338,219.99033951759338,219.99033951759338,221.37381172180176,3,1.525172233581543,None,,,,,,,,,,,,,,,,,,121,4,2025-02-25_16h33.52.610,comp,2024.2.4,57.934216142225516,2025-02-25 16h34.33.348892 -0500,
121,121,0,critical,hwd,35.0,2.1,upper,200.0,125.0,125.0,200.0,127.0,127.0,2,0.8939981460571289,None,,,,,0,0,0,0,0,121,121,41,221.38993573188782,,,,,,,,,,,,,,,,,,,,,,,,,,,,,,,,,,,,,,,,,,,,,,,,,,,,,,,,,,,,,,,,,,,,,,,,,,,,,,,,,200.0,125.0,125.0,200.0,127.0,127.0,2.1,2.11,-258,259,0,285,260,-252,221.37537050247192,221.3754448890686,221.3785364627838,221.38993573188782,221.5427553653717,221.5427553653717,221.5427553653717,221.5427553653717,221.5427553653717,221.5427553653717,221.5427553653717,222.2960720062256,2,0.8939981460571289,None,,,,,,,,,,,,,,,,,,121,4,2025-02-25_16h33.52.610,comp,2024.2.4,57.934216142225516,2025-02-25 16h34.33.348892 -0500,
122,122,0,filler_random,None,None,None,None,None,None,None,None,None,None,2,2.4583327770233154,None,,,,,0,0,0,0,0,122,122,140,222.31378817558289,,,,,,,,,,,,,,,,,,,,,,,,,,,,,,,,,,,,,,,,,,,,,,,,,,,,,,,,,,,,,,,,,,,,,,,,,,,,,,,,,104.03596669581722,106.68172915940691,78.62919987323465,152.825972530189,151.72486585211328,79.85605204226742,1.0,1.2,-226,-2,0,14,212,-8,222.29780840873718,222.29788756370544,222.30072259902954,222.31378817558289,222.45861554145813,222.45861554145813,222.45861554145813,222.45861554145813,222.45861554145813,222.45861554145813,222.45861554145813,224.77881526947021,2,2.4583327770233154,None,,,,,,,,,,,,,,,,,,121,4,2025-02-25_16h33.52.610,comp,2024.2.4,57.934216142225516,2025-02-25 16h34.33.348892 -0500,
123,123,0,catch,None,None,None,None,None,None,None,None,None,None,2,0.8223237991333008,None,,,,,0,0,0,0,0,123,123,129,224.79747557640076,,,,,,,,,,,,,,,,,,,,,,,,,,,,,,,,,,,,,,,,,,,,,,,,,,,,,,,,,,,,,,,,,,,,,,,,,,,,,,,,,83,107,182,143,125,65,3.0,3.1,-221,259,0,4,200,-273,224.78143692016602,224.7815191745758,224.78430438041687,224.79747557640076,224.94269061088562,224.94269061088562,224.94269061088562,224.94269061088562,224.94269061088562,224.94269061088562,224.94269061088562,225.63002490997314,2,0.8223237991333008,None,,,,,,,,,,,,,,,,,,121,4,2025-02-25_16h33.52.610,comp,2024.2.4,57.934216142225516,2025-02-25 16h34.33.348892 -0500,
124,124,0,filler_random,None,None,None,None,None,None,None,None,None,None,1,0.9655702114105225,None,,,,,0,0,0,0,0,124,124,151,225.64620423316956,,,,,,,,,,,,,,,,,,,,,,,,,,,,,,,,,,,,,,,,,,,,,,,,,,,,,,,,,,,,,,,,,,,,,,,,,,,,,,,,,141.82627669944762,189.97244285161295,87.25186796248256,148.92353499375184,60.31972851217011,164.11688624489267,3.0,3.2,-265,-259,0,10,253,290,225.63172459602356,225.63180255889893,225.63562536239624,225.64620423316956,225.80005073547363,225.80005073547363,225.80005073547363,225.80005073547363,225.80005073547363,225.80005073547363,225.80005073547363,226.62676358222961,1,0.9655702114105225,None,,,,,,,,,,,,,,,,,,121,4,2025-02-25_16h33.52.610,comp,2024.2.4,57.934216142225516,2025-02-25 16h34.33.348892 -0500,
125,125,0,filler_square,None,None,None,None,None,None,None,None,None,None,1,1.0650479793548584,None,,,,,0,0,0,0,0,125,125,181,226.64285159111023,,,,,,,,,,,,,,,,,,,,,,,,,,,,,,,,,,,,,,,,,,,,,,,,,,,,,,,,,,,,,,,,,,,,,,,,,,,,,,,,,108.27137809122982,108.27137809122982,70.57270877231429,80.43440473238522,65.4547498088005,77.16371462873256,2.2,2.22,-190,280,0,-285,175,-262,226.62851691246033,226.62859296798706,226.63163900375366,226.64285159111023,226.7943263053894,226.7943263053894,226.7943263053894,226.7943263053894,226.7943263053894,226.7943263053894,226.7943263053894,227.71081066131592,1,1.0650479793548584,None,,,,,,,,,,,,,,,,,,121,4,2025-02-25_16h33.52.610,comp,2024.2.4,57.934216142225516,2025-02-25 16h34.33.348892 -0500,
126,126,0,critical,whd,35.0,4.0,upper,125.0,200.0,200.0,125.0,127.0,127.0,1,1.2291483879089355,None,,,,,0,0,0,0,0,126,126,89,227.7265498638153,,,,,,,,,,,,,,,,,,,,,,,,,,,,,,,,,,,,,,,,,,,,,,,,,,,,,,,,,,,,,,,,,,,,,,,,,,,,,,,,,125.0,200.0,200.0,125.0,127.0,127.0,4.0,4.2,-258,10,0,-256,222,17,227.7122197151184,227.71231961250305,227.7153697013855,227.7265498638153,227.87451004981995,227.87451004981995,227.87451004981995,227.87451004981995,227.87451004981995,227.87451004981995,227.87451004981995,228.9587438106537,1,1.2291483879089355,None,,,,,,,,,,,,,,,,,,121,4,2025-02-25_16h33.52.610,comp,2024.2.4,57.934216142225516,2025-02-25 16h34.33.348892 -0500,
127,127,0,filler_square,None,None,None,None,None,None,None,None,None,None,1,1.8938214778900146,None,,,,,0,0,0,0,0,127,127,177,228.97423243522644,,,,,,,,,,,,,,,,,,,,,,,,,,,,,,,,,,,,,,,,,,,,,,,,,,,,,,,,,,,,,,,,,,,,,,,,,,,,,,,,,74.47302599448838,74.47302599448838,59.002851731509324,58.07606074303555,66.26505812728149,67.08144772877921,2.1,2.12,-162,-277,0,-284,159,269,228.9593367576599,228.9593596458435,228.96023416519165,228.97423243522644,229.11258268356323,229.11258268356323,229.11258268356323,229.11258268356323,229.11258268356323,229.11258268356323,229.11258268356323,230.87105441093445,1,1.8938214778900146,None,,,,,,,,,,,,,,,,,,121,4,2025-02-25_16h33.52.610,comp,2024.2.4,57.934216142225516,2025-02-25 16h34.33.348892 -0500,
128,128,0,filler_random,None,None,None,None,None,None,None,None,None,None,1,1.0281076431274414,None,,,,,0,0,0,0,0,128,128,142,230.88776063919067,,,,,,,,,,,,,,,,,,,,,,,,,,,,,,,,,,,,,,,,,,,,,,,,,,,,,,,,,,,,,,,,,,,,,,,,,,,,,,,,,173.3950299200315,68.27247643676735,123.65216342285368,191.79027236145262,164.65906119784384,192.96659849755363,4.0,4.2,-226,-13,0,-251,288,-2,230.87285161018372,230.87298393249512,230.87599682807922,230.88776063919067,231.02854752540588,231.02854752540588,231.02854752540588,231.02854752540588,231.02854752540588,231.02854752540588,231.02854752540588,231.9206178188324,1,1.0281076431274414,None,,,,,,,,,,,,,,,,,,121,4,2025-02-25_16h33.52.610,comp,2024.2.4,57.934216142225516,2025-02-25 16h34.33.348892 -0500,
129,129,0,catch,None,None,None,None,None,None,None,None,None,None,1,1.606567144393921,None,,,,,0,0,0,0,0,129,129,125,231.94138193130493,,,,,,,,,,,,,,,,,,,,,,,,,,,,,,,,,,,,,,,,,,,,,,,,,,,,,,,,,,,,,,,,,,,,,,,,,,,,,,,,,163,162,105,85,96,94,2.1,2.12,-220,-267,0,-271,186,253,231.92268919944763,231.92276692390442,231.9259388446808,231.94138193130493,232.07464170455933,232.07464170455933,232.07464170455933,232.07464170455933,232.07464170455933,232.07464170455933,232.07464170455933,233.55129981040955,1,1.606567144393921,None,,,,,,,,,,,,,,,,,,121,4,2025-02-25_16h33.52.610,comp,2024.2.4,57.934216142225516,2025-02-25 16h34.33.348892 -0500,
130,130,0,filler_random,None,None,None,None,None,None,None,None,None,None,1,1.5618915557861328,None,,,,,0,0,0,0,0,130,130,158,233.56988668441772,,,,,,,,,,,,,,,,,,,,,,,,,,,,,,,,,,,,,,,,,,,,,,,,,,,,,,,,,,,,,,,,,,,,,,,,,,,,,,,,,173.42911978313458,197.48699651861847,105.76421264325174,95.97550157366538,176.62537865370314,156.01997808414404,2.2,2.21,-243,-258,0,290,222,290,233.55291080474854,233.55298781394958,233.55575966835022,233.56988668441772,233.71267533302307,233.71267533302307,233.71267533302307,233.71267533302307,233.71267533302307,233.71267533302307,233.71267533302307,235.15006923675537,1,1.5618915557861328,None,,,,,,,,,,,,,,,,,,121,4,2025-02-25_16h33.52.610,comp,2024.2.4,57.934216142225516,2025-02-25 16h34.33.348892 -0500,
131,131,0,filler_square,None,None,None,None,None,None,None,None,None,None,1,0.7102704048156738,None,,,,,0,0,0,0,0,131,131,206,235.16579341888428,,,,,,,,,,,,,,,,,,,,,,,,,,,,,,,,,,,,,,,,,,,,,,,,,,,,,,,,,,,,,,,,,,,,,,,,,,,,,,,,,147.94566182332738,147.94566182332738,78.73045495683573,96.4940881808001,85.82043713423732,99.45849130070376,4.0,4.1,-218,-259,0,-12,194,-257,235.15205645561218,235.15213251113892,235.1553692817688,235.16579341888428,235.31202459335327,235.31202459335327,235.31202459335327,235.31202459335327,235.31202459335327,235.31202459335327,235.31202459335327,235.88274455070496,1,0.7102704048156738,None,,,,,,,,,,,,,,,,,,121,4,2025-02-25_16h33.52.610,comp,2024.2.4,57.934216142225516,2025-02-25 16h34.33.348892 -0500,
132,132,0,critical,hdw,35.0,4.0,lower,133.0,57.0,70.0,70.0,57.0,133.0,3,1.5296404361724854,None,,,,,0,0,0,0,0,132,132,112,235.89878702163696,,,,,,,,,,,,,,,,,,,,,,,,,,,,,,,,,,,,,,,,,,,,,,,,,,,,,,,,,,,,,,,,,,,,,,,,,,,,,,,,,133.0,57.0,70.0,70.0,57.0,133.0,4.0,4.2,-160,20,0,-259,198,17,235.8843605518341,235.884437084198,235.8881540298462,235.89878702163696,236.04836320877075,236.04836320877075,236.04836320877075,236.04836320877075,236.04836320877075,236.04836320877075,236.04836320877075,237.4351909160614,3,1.5296404361724854,None,,,,,,,,,,,,,,,,,,121,4,2025-02-25_16h33.52.610,comp,2024.2.4,57.934216142225516,2025-02-25 16h34.33.348892 -0500,
133,133,0,filler_square,None,None,None,None,None,None,None,None,None,None,3,2.0089378356933594,None,,,,,0,0,0,0,0,133,133,182,237.45146465301514,,,,,,,,,,,,,,,,,,,,,,,,,,,,,,,,,,,,,,,,,,,,,,,,,,,,,,,,,,,,,,,,,,,,,,,,,,,,,,,,,77.96844899243398,73.29373489879099,85.30319339595243,93.63208812617697,94.52910443360643,94.52910443360643,2.2,2.21,-179,-251,0,287,190,253,237.43720412254333,237.43730664253235,237.4404957294464,237.45146465301514,237.59958815574646,237.59958815574646,237.59958815574646,237.59958815574646,237.59958815574646,237.59958815574646,237.59958815574646,239.46520686149597,3,2.0089378356933594,None,,,,,,,,,,,,,,,,,,121,4,2025-02-25_16h33.52.610,comp,2024.2.4,57.934216142225516,2025-02-25 16h34.33.348892 -0500,
134,134,0,filler_random,None,None,None,None,None,None,None,None,None,None,3,0.7858178615570068,None,,,,,0,0,0,0,0,134,134,139,239.4820065498352,,,,,,,,,,,,,,,,,,,,,,,,,,,,,,,,,,,,,,,,,,,,,,,,,,,,,,,,,,,,,,,,,,,,,,,,,,,,,,,,,185.93755242327202,97.8374004554955,128.1808712973555,134.04440188752892,158.853350080334,195.77464367515853,3.0,3.2,-212,-254,0,19,261,254,239.4670011997223,239.467134475708,239.4704031944275,239.4820065498352,239.63602137565613,239.63602137565613,239.63602137565613,239.63602137565613,239.63602137565613,239.63602137565613,239.63602137565613,240.2824103832245,3,0.7858178615570068,None,,,,,,,,,,,,,,,,,,121,4,2025-02-25_16h33.52.610,comp,2024.2.4,57.934216142225516,2025-02-25 16h34.33.348892 -0500,
135,135,0,filler_random,None,None,None,None,None,None,None,None,None,None,3,1.7337543964385986,None,,,,,0,0,0,0,0,135,135,130,240.3027617931366,,,,,,,,,,,,,,,,,,,,,,,,,,,,,,,,,,,,,,,,,,,,,,,,,,,,,,,,,,,,,,,,,,,,,,,,,,,,,,,,,59.628830588664414,114.63374496906332,122.42049237885924,131.57915953891563,174.0026921757542,97.7685977371904,2.2,2.21,-219,-280,0,280,211,264,240.28400874137878,240.2841091156006,240.28739213943481,240.3027617931366,240.45805740356445,240.45805740356445,240.45805740356445,240.45805740356445,240.45805740356445,240.45805740356445,240.45805740356445,242.05382466316223,3,1.7337543964385986,None,,,,,,,,,,,,,,,,,,121,4,2025-02-25_16h33.52.610,comp,2024.2.4,57.934216142225516,2025-02-25 16h34.33.348892 -0500,
136,136,0,filler_random,None,None,None,None,None,None,None,None,None,None,1,0.9865615367889404,None,,,,,0,0,0,0,0,136,136,159,242.07351756095886,,,,,,,,,,,,,,,,,,,,,,,,,,,,,,,,,,,,,,,,,,,,,,,,,,,,,,,,,,,,,,,,,,,,,,,,,,,,,,,,,191.88643679970284,179.79802260943472,152.94410348528154,168.19832769272506,89.52614771187109,138.75477479985085,3.0,3.2,-270,-253,0,20,249,251,242.05546259880066,242.05553889274597,242.05830311775208,242.07351756095886,242.2147877216339,242.2147877216339,242.2147877216339,242.2147877216339,242.2147877216339,242.2147877216339,242.2147877216339,243.0687062740326,1,0.9865615367889404,None,,,,,,,,,,,,,,,,,,121,4,2025-02-25_16h33.52.610,comp,2024.2.4,57.934216142225516,2025-02-25 16h34.33.348892 -0500,
137,137,0,critical,whd,20.0,3.0,upper,125.0,200.0,200.0,125.0,141.0,141.0,1,1.7359323501586914,None,,,,,0,0,0,0,0,137,137,93,243.08402466773987,,,,,,,,,,,,,,,,,,,,,,,,,,,,,,,,,,,,,,,,,,,,,,,,,,,,,,,,,,,,,,,,,,,,,,,,,,,,,,,,,125.0,200.0,200.0,125.0,141.0,141.0,3.0,3.1,-258,258,0,13,229,-251,243.0702211856842,243.07035064697266,243.07332277297974,243.08402466773987,243.23718094825745,243.23718094825745,243.23718094825745,243.23718094825745,243.23718094825745,243.23718094825745,243.23718094825745,244.8246512413025,1,1.7359323501586914,None,,,,,,,,,,,,,,,,,,121,4,2025-02-25_16h33.52.610,comp,2024.2.4,57.934216142225516,2025-02-25 16h34.33.348892 -0500,
138,138,0,critical,hwd,35.0,2.1,upper,200.0,125.0,125.0,200.0,127.0,127.0,2,1.4328327178955078,None,,,,,0,0,0,0,0,138,138,17,244.84331393241882,,,,,,,,,,,,,,,,,,,,,,,,,,,,,,,,,,,,,,,,,,,,,,,,,,,,,,,,,,,,,,,,,,,,,,,,,,,,,,,,,200.0,125.0,125.0,200.0,127.0,127.0,2.1,2.11,-258,283,0,284,260,-274,244.826101064682,244.82617664337158,244.82895708084106,244.84331393241882,244.98348426818848,244.98348426818848,244.98348426818848,244.98348426818848,244.98348426818848,244.98348426818848,244.98348426818848,246.28475546836853,2,1.4328327178955078,None,,,,,,,,,,,,,,,,,,121,4,2025-02-25_16h33.52.610,comp,2024.2.4,57.934216142225516,2025-02-25 16h34.33.348892 -0500,
