thisN,thisTrialN,thisRepN,effect,order,distance,config,diag,h_1,w_1,h_2,w_2,h_3,w_3,rect_choice.keys,rect_choice.rt,rect_choice.duration,instructions_loop.thisRepN,instructions_loop.thisTrialN,instructions_loop.thisN,instructions_loop.thisIndex,blocks.thisRepN,blocks.thisTrialN,blocks.thisN,blocks.thisIndex,trials.thisRepN,trials.thisTrialN,trials.thisN,trials.thisIndex,thisRow.t,notes,consent.started,agree_button.started,decline_button.started,consent_img.started,mouse.started,consent.stopped,agree_button.numClicks,agree_button.timesOn,agree_button.timesOff,decline_button.numClicks,decline_button.timesOn,decline_button.timesOff,mouse.x,mouse.y,mouse.leftButton,mouse.midButton,mouse.rightButton,mouse.time,mouse.clicked_name,exp_params.started,exp_params.stopped,welcome.started,welcome_text.started,welcome.stopped,instructions_1.started,instructions_1_text_1.started,instructions_1_text_2.started,key_resp.started,instructions_1.stopped,instructions_loop.key_resp.keys,instructions_loop.key_resp.rt,instructions_loop.key_resp.duration,instructions_2.started,instructions_2_text_1.started,instructions_2_text_2.started,key_resp_2.started,instructions_2.stopped,instructions_loop.key_resp_2.keys,instructions_loop.key_resp_2.rt,instructions_loop.key_resp_2.duration,instructions_3.started,instructions_3_text_1.started,r1_instr3.started,r2_instr3.started,r3_instr3.started,r1_instr3_label.started,r2_instr3_label.started,r3_instr3_label.started,instructions_3_text_3.started,instructions_3_text_4.started,key_resp_3.started,instructions_3.stopped,instructions_loop.key_resp_3.keys,instructions_loop.key_resp_3.rt,instructions_loop.key_resp_3.duration,instructions_4.started,instructions_4_text_1.started,instructions_4_text_3.started,instructions_4_text_2.started,key_resp_4.started,instructions_4.stopped,instructions_loop.key_resp_4.keys,instructions_loop.key_resp_4.rt,instructions_loop.key_resp_4.duration,instructions_5.started,instructions_5_text_1.started,instructions_5_text_2.started,key_resp_5.started,instructions_5.stopped,instructions_loop.key_resp_5.keys,instructions_loop.key_resp_5.rt,instructions_loop.key_resp_5.duration,start_exp.started,start_exp_text.started,key_resp_6.started,start_exp.stopped,key_resp_6.keys,key_resp_6.rt,key_resp_6.duration,h_1_tmp,w_1_tmp,h_2_tmp,w_2_tmp,h_3_tmp,w_3_tmp,config_tmp,config_tmp_1,r_1_x,r_1_y,r_2_x,r_2_y,r_3_x,r_3_y,pre_trial.started,pre_trial.stopped,choice_trial.started,rect_choice.started,r_1.started,r_2.started,r_3.started,r_1_label.started,r_2_label.started,r_3_label.started,prompt.started,choice_trial.stopped,trials.rect_choice.keys,trials.rect_choice.rt,trials.rect_choice.duration,end_block.started,end_block_text.started,end_block.stopped,end.started,end_text.started,key_resp_7.started,end.stopped,key_resp_7.keys,key_resp_7.rt,key_resp_7.duration,debriefing.started,debrief_form.started,end_debrief.started,debriefing.stopped,end_debrief.keys,end_debrief.rt,end_debrief.duration,participant,computer,date,expName,psychopyVersion,frameRate,expStart,
,,,,,,,,,,,,,,,,,,,,,,,,,,,,,,,0.015674829483032227,0.04018115997314453,0.04018115997314453,0.04018115997314453,0.015469789505004883,46.88341474533081,1,[46.840498208999634],[46.84052324295044],0,,,[-41.0],[-495.0],[1],[0],[0],[46.86696147918701],['agree_button'],,,,,,,,,,,,,,,,,,,,,,,,,,,,,,,,,,,,,,,,,,,,,,,,,,,,,,,,,,,,,,,,,,,,,,,,,,,,,,,,,,,,,,,,,,,,,,,,,,,,,,,,,,,122,1,2025-02-26_11h25.29.978,comp,2024.2.4,56.507055460201386,2025-02-26 11h25.43.179759 -0500,
,,,,,,,,,,,,,,,,,,,,,,,,,,,,,,,,,,,,,,,,,,,,,,,,,,46.884013175964355,46.884082078933716,,,,,,,,,,,,,,,,,,,,,,,,,,,,,,,,,,,,,,,,,,,,,,,,,,,,,,,,,,,,,,,,,,,,,,,,,,,,,,,,,,,,,,,,,,,,,,,,,,,,,,,,,122,1,2025-02-26_11h25.29.978,comp,2024.2.4,56.507055460201386,2025-02-26 11h25.43.179759 -0500,
,,,,,,,,,,,,,,,,,,,,,,,,,,,,,,,,,,,,,,,,,,,,,,,,,,,,46.88414549827576,46.90224003791809,48.892990589141846,,,,,,,,,,,,,,,,,,,,,,,,,,,,,,,,,,,,,,,,,,,,,,,,,,,,,,,,,,,,,,,,,,,,,,,,,,,,,,,,,,,,,,,,,,,,,,,,,,,,,,122,1,2025-02-26_11h25.29.978,comp,2024.2.4,56.507055460201386,2025-02-26 11h25.43.179759 -0500,
0,0,0,,,,,,,,,,,,,,,0,0,0,0,,,,,,,,,48.91223740577698,,,,,,,,,,,,,,,,,,,,,,,,,,48.89392066001892,48.91223740577698,48.91223740577698,50.39725995063782,53.79889702796936,space,3.3824894428253174,None,53.79904365539551,53.814433097839355,53.814433097839355,55.29925990104675,63.450318813323975,space,8.136504411697388,None,63.450475215911865,63.48161554336548,63.48161554336548,63.48161554336548,63.48161554336548,63.48161554336548,63.48161554336548,63.48161554336548,63.48161554336548,63.48161554336548,64.95523571968079,73.05825400352478,space,8.098474264144897,None,73.05842590332031,73.07877326011658,73.07877326011658,73.07877326011658,74.57106828689575,84.35944747924805,space,9.784677505493164,None,84.35960078239441,84.37503242492676,84.37503242492676,85.86061406135559,87.7933235168457,space,1.9193987846374512,None,87.7935197353363,87.80851411819458,87.80851411819458,89.97706508636475,space,2.1637721061706543,None,,,,,,,,,,,,,,,,,,,,,,,,,,,,,,,,,,,,,,,,,,,,,,,122,1,2025-02-26_11h25.29.978,comp,2024.2.4,56.507055460201386,2025-02-26 11h25.43.179759 -0500,
0,0,0,filler_random,None,None,None,None,None,None,None,None,None,None,2,9.168095827102661,None,,,,,0,0,0,0,0,0,0,137,90.05241990089417,,,,,,,,,,,,,,,,,,,,,,,,,,,,,,,,,,,,,,,,,,,,,,,,,,,,,,,,,,,,,,,,,,,,,,,,,,,,,,,,,154.6314395895966,132.3715513966163,166.2218092433946,145.46787849749825,73.87875236095172,157.15563059417576,2.1,2.12,-235,-253,0,-280,247,283,90.03668093681335,90.03671479225159,90.03788352012634,90.05241990089417,90.20148968696594,90.20148968696594,90.20148968696594,90.20148968696594,90.20148968696594,90.20148968696594,90.20148968696594,99.2294692993164,2,9.168095827102661,None,,,,,,,,,,,,,,,,,,122,1,2025-02-26_11h25.29.978,comp,2024.2.4,56.507055460201386,2025-02-26 11h25.43.179759 -0500,
1,1,0,critical,whd,20.0,2.1,lower,57.0,133.0,133.0,57.0,78.0,78.0,1,9.631526708602905,None,,,,,0,0,0,0,0,1,1,38,99.24422144889832,,,,,,,,,,,,,,,,,,,,,,,,,,,,,,,,,,,,,,,,,,,,,,,,,,,,,,,,,,,,,,,,,,,,,,,,,,,,,,,,,57.0,133.0,133.0,57.0,78.0,78.0,2.1,2.11,-191,280,0,265,164,-278,99.23091506958008,99.23098158836365,99.23335599899292,99.24422144889832,99.39757466316223,99.39757466316223,99.39757466316223,99.39757466316223,99.39757466316223,99.39757466316223,99.39757466316223,108.88532280921936,1,9.631526708602905,None,,,,,,,,,,,,,,,,,,122,1,2025-02-26_11h25.29.978,comp,2024.2.4,56.507055460201386,2025-02-26 11h25.43.179759 -0500,
2,2,0,critical,wdh,35.0,2.1,upper,125.0,200.0,127.0,127.0,200.0,125.0,1,9.053339958190918,None,,,,,0,0,0,0,0,2,2,9,108.90256881713867,,,,,,,,,,,,,,,,,,,,,,,,,,,,,,,,,,,,,,,,,,,,,,,,,,,,,,,,,,,,,,,,,,,,,,,,,,,,,,,,,125.0,200.0,127.0,127.0,200.0,125.0,2.1,2.12,-260,-274,0,-287,222,277,108.88702893257141,108.88711071014404,108.89093804359436,108.90256881713867,109.05490350723267,109.05490350723267,109.05490350723267,109.05490350723267,109.05490350723267,109.05490350723267,109.05490350723267,117.96950173377991,1,9.053339958190918,None,,,,,,,,,,,,,,,,,,122,1,2025-02-26_11h25.29.978,comp,2024.2.4,56.507055460201386,2025-02-26 11h25.43.179759 -0500,
3,3,0,catch,None,None,None,None,None,None,None,None,None,None,2,3.4266738891601562,None,,,,,0,0,0,0,0,3,3,124,117.98601627349854,,,,,,,,,,,,,,,,,,,,,,,,,,,,,,,,,,,,,,,,,,,,,,,,,,,,,,,,,,,,,,,,,,,,,,,,,,,,,,,,,62,128,141,184,60,130,4.0,4.1,-252,-274,0,-7,253,-257,117.9717447757721,117.97182583808899,117.97543001174927,117.98601627349854,118.1343400478363,118.1343400478363,118.1343400478363,118.1343400478363,118.1343400478363,118.1343400478363,118.1343400478363,121.42080163955688,2,3.4266738891601562,None,,,,,,,,,,,,,,,,,,122,1,2025-02-26_11h25.29.978,comp,2024.2.4,56.507055460201386,2025-02-26 11h25.43.179759 -0500,
4,4,0,filler_random,None,None,None,None,None,None,None,None,None,None,1,9.670355558395386,None,,,,,0,0,0,0,0,4,4,157,121.43756794929504,,,,,,,,,,,,,,,,,,,,,,,,,,,,,,,,,,,,,,,,,,,,,,,,,,,,,,,,,,,,,,,,,,,,,,,,,,,,,,,,,87.76272428331711,155.3845389559907,64.5880680033002,172.79856874424462,83.84603119806617,71.86135231023378,2.2,2.22,-260,284,0,-263,218,-288,121.42256593704224,121.42264819145203,121.42672324180603,121.43756794929504,121.58572840690613,121.58572840690613,121.58572840690613,121.58572840690613,121.58572840690613,121.58572840690613,121.58572840690613,131.12443137168884,1,9.670355558395386,None,,,,,,,,,,,,,,,,,,122,1,2025-02-26_11h25.29.978,comp,2024.2.4,56.507055460201386,2025-02-26 11h25.43.179759 -0500,
5,5,0,catch,None,None,None,None,None,None,None,None,None,None,2,3.2874081134796143,None,,,,,0,0,0,0,0,5,5,126,131.14075636863708,,,,,,,,,,,,,,,,,,,,,,,,,,,,,,,,,,,,,,,,,,,,,,,,,,,,,,,,,,,,,,,,,,,,,,,,,,,,,,,,,83,107,176,149,97,93,4.0,4.2,-224,-9,0,-252,217,7,131.12659335136414,131.12672424316406,131.13040804862976,131.14075636863708,131.29088020324707,131.29088020324707,131.29088020324707,131.29088020324707,131.29088020324707,131.29088020324707,131.29088020324707,134.44247436523438,2,3.2874081134796143,None,,,,,,,,,,,,,,,,,,122,1,2025-02-26_11h25.29.978,comp,2024.2.4,56.507055460201386,2025-02-26 11h25.43.179759 -0500,
6,6,0,critical,whd,35.0,4.0,lower,57.0,133.0,133.0,57.0,70.0,70.0,1,4.7052507400512695,None,,,,,0,0,0,0,0,6,6,88,134.45861864089966,,,,,,,,,,,,,,,,,,,,,,,,,,,,,,,,,,,,,,,,,,,,,,,,,,,,,,,,,,,,,,,,,,,,,,,,,,,,,,,,,57.0,133.0,133.0,57.0,70.0,70.0,4.0,4.1,-191,-275,0,-7,160,-280,134.444109916687,134.44427824020386,134.4482889175415,134.45861864089966,134.61132550239563,134.61132550239563,134.61132550239563,134.61132550239563,134.61132550239563,134.61132550239563,134.61132550239563,139.1789698600769,1,4.7052507400512695,None,,,,,,,,,,,,,,,,,,122,1,2025-02-26_11h25.29.978,comp,2024.2.4,56.507055460201386,2025-02-26 11h25.43.179759 -0500,
7,7,0,critical,dwh,35.0,4.0,upper,127.0,127.0,125.0,200.0,200.0,125.0,2,4.721837997436523,None,,,,,0,0,0,0,0,7,7,65,139.19503927230835,,,,,,,,,,,,,,,,,,,,,,,,,,,,,,,,,,,,,,,,,,,,,,,,,,,,,,,,,,,,,,,,,,,,,,,,,,,,,,,,,127.0,127.0,125.0,200.0,200.0,125.0,4.0,4.2,-260,20,0,-254,258,7,139.18065929412842,139.18076634407043,139.18388748168945,139.19503927230835,139.34253764152527,139.34253764152527,139.34253764152527,139.34253764152527,139.34253764152527,139.34253764152527,139.34253764152527,143.9348030090332,2,4.721837997436523,None,,,,,,,,,,,,,,,,,,122,1,2025-02-26_11h25.29.978,comp,2024.2.4,56.507055460201386,2025-02-26 11h25.43.179759 -0500,
8,8,0,filler_square,None,None,None,None,None,None,None,None,None,None,2,4.584998846054077,None,,,,,0,0,0,0,0,8,8,181,143.95562386512756,,,,,,,,,,,,,,,,,,,,,,,,,,,,,,,,,,,,,,,,,,,,,,,,,,,,,,,,,,,,,,,,,,,,,,,,,,,,,,,,,79.13104993049767,102.14082630453908,126.82573257721866,126.82573257721866,122.35889013188641,95.61591449286392,2.2,2.22,-210,254,0,-274,207,-288,143.93689584732056,143.93697309494019,143.940269947052,143.95562386512756,144.09537744522095,144.09537744522095,144.09537744522095,144.09537744522095,144.09537744522095,144.09537744522095,144.09537744522095,148.54800868034363,2,4.584998846054077,None,,,,,,,,,,,,,,,,,,122,1,2025-02-26_11h25.29.978,comp,2024.2.4,56.507055460201386,2025-02-26 11h25.43.179759 -0500,
9,9,0,filler_random,None,None,None,None,None,None,None,None,None,None,1,4.067119121551514,None,,,,,0,0,0,0,0,9,9,149,148.56872510910034,,,,,,,,,,,,,,,,,,,,,,,,,,,,,,,,,,,,,,,,,,,,,,,,,,,,,,,,,,,,,,,,,,,,,,,,,,,,,,,,,183.85063357162392,195.2437933915946,95.58987928860391,149.23978254687682,130.49837026078535,105.41680881872978,2.1,2.12,-268,-261,0,-287,223,285,148.55028176307678,148.55036759376526,148.55368375778198,148.56872510910034,148.7149109840393,148.7149109840393,148.7149109840393,148.7149109840393,148.7149109840393,148.7149109840393,148.7149109840393,152.64930534362793,1,4.067119121551514,None,,,,,,,,,,,,,,,,,,122,1,2025-02-26_11h25.29.978,comp,2024.2.4,56.507055460201386,2025-02-26 11h25.43.179759 -0500,
10,10,0,filler_square,None,None,None,None,None,None,None,None,None,None,1,2.2661654949188232,None,,,,,0,0,0,0,0,10,10,176,152.66615176200867,,,,,,,,,,,,,,,,,,,,,,,,,,,,,,,,,,,,,,,,,,,,,,,,,,,,,,,,,,,,,,,,,,,,,,,,,,,,,,,,,185.25295012337315,185.25295012337315,153.37523009571365,124.80149329590725,68.66117024612208,133.52455940112583,4.0,4.1,-251,-251,0,-14,225,-272,152.6514117717743,152.65149402618408,152.65486097335815,152.66615176200867,152.81106972694397,152.81106972694397,152.81106972694397,152.81106972694397,152.81106972694397,152.81106972694397,152.81106972694397,154.93461894989014,1,2.2661654949188232,None,,,,,,,,,,,,,,,,,,122,1,2025-02-26_11h25.29.978,comp,2024.2.4,56.507055460201386,2025-02-26 11h25.43.179759 -0500,
11,11,0,filler_random,None,None,None,None,None,None,None,None,None,None,2,1.9158620834350586,None,,,,,0,0,0,0,0,11,11,151,154.95225071907043,,,,,,,,,,,,,,,,,,,,,,,,,,,,,,,,,,,,,,,,,,,,,,,,,,,,,,,,,,,,,,,,,,,,,,,,,,,,,,,,,80.32348300053437,72.03420906950099,190.7261611423898,104.61985575684758,83.0971891127469,91.21207208081444,2.1,2.11,-184,290,0,256,194,-282,154.93667721748352,154.93675756454468,154.94004821777344,154.95225071907043,155.09733486175537,155.09733486175537,155.09733486175537,155.09733486175537,155.09733486175537,155.09733486175537,155.09733486175537,156.88136410713196,2,1.9158620834350586,None,,,,,,,,,,,,,,,,,,122,1,2025-02-26_11h25.29.978,comp,2024.2.4,56.507055460201386,2025-02-26 11h25.43.179759 -0500,
12,12,0,filler_square,None,None,None,None,None,None,None,None,None,None,2,1.8269753456115723,None,,,,,0,0,0,0,0,12,12,202,156.8971803188324,,,,,,,,,,,,,,,,,,,,,,,,,,,,,,,,,,,,,,,,,,,,,,,,,,,,,,,,,,,,,,,,,,,,,,,,,,,,,,,,,101.56052663885859,103.25509493146618,122.4904310604042,122.4904310604042,85.59741804201714,82.16589734527135,2.2,2.21,-209,-284,0,272,198,260,156.88328552246094,156.88336372375488,156.88680481910706,156.8971803188324,157.05021238327026,157.05021238327026,157.05021238327026,157.05021238327026,157.05021238327026,157.05021238327026,157.05021238327026,158.74279522895813,2,1.8269753456115723,None,,,,,,,,,,,,,,,,,,122,1,2025-02-26_11h25.29.978,comp,2024.2.4,56.507055460201386,2025-02-26 11h25.43.179759 -0500,
13,13,0,filler_random,None,None,None,None,None,None,None,None,None,None,2,3.254729986190796,None,,,,,0,0,0,0,0,13,13,152,158.75803899765015,,,,,,,,,,,,,,,,,,,,,,,,,,,,,,,,,,,,,,,,,,,,,,,,,,,,,,,,,,,,,,,,,,,,,,,,,,,,,,,,,72.94245043827482,107.58494618339557,83.34575130796637,143.80424960370885,60.05406563176595,66.17107372403837,2.2,2.22,-222,273,0,-267,201,-268,158.7445182800293,158.74459886550903,158.74751114845276,158.75803899765015,158.89830255508423,158.89830255508423,158.89830255508423,158.89830255508423,158.89830255508423,158.89830255508423,158.89830255508423,162.01779317855835,2,3.254729986190796,None,,,,,,,,,,,,,,,,,,122,1,2025-02-26_11h25.29.978,comp,2024.2.4,56.507055460201386,2025-02-26 11h25.43.179759 -0500,
14,14,0,critical,hwd,35.0,1.0,lower,133.0,57.0,57.0,133.0,70.0,70.0,2,9.346393585205078,None,,,,,0,0,0,0,0,14,14,96,162.03431272506714,,,,,,,,,,,,,,,,,,,,,,,,,,,,,,,,,,,,,,,,,,,,,,,,,,,,,,,,,,,,,,,,,,,,,,,,,,,,,,,,,133.0,57.0,57.0,133.0,70.0,70.0,1.0,1.3,289,-262,480,-271,678,-289,162.0194697380066,162.01960730552673,162.0234410762787,162.03431272506714,162.1833918094635,162.1833918094635,162.1833918094635,162.1833918094635,162.1833918094635,162.1833918094635,162.1833918094635,171.38607692718506,2,9.346393585205078,None,,,,,,,,,,,,,,,,,,122,1,2025-02-26_11h25.29.978,comp,2024.2.4,56.507055460201386,2025-02-26 11h25.43.179759 -0500,
15,15,0,critical,wdh,20.0,4.0,upper,125.0,200.0,141.0,141.0,200.0,125.0,1,10.178488492965698,None,,,,,0,0,0,0,0,15,15,83,171.40149927139282,,,,,,,,,,,,,,,,,,,,,,,,,,,,,,,,,,,,,,,,,,,,,,,,,,,,,,,,,,,,,,,,,,,,,,,,,,,,,,,,,125.0,200.0,141.0,141.0,200.0,125.0,4.0,4.2,-266,-19,0,-265,229,9,171.38775873184204,171.3878457546234,171.3913996219635,171.40149927139282,171.55655646324158,171.55655646324158,171.55655646324158,171.55655646324158,171.55655646324158,171.55655646324158,171.55655646324158,181.58329582214355,1,10.178488492965698,None,,,,,,,,,,,,,,,,,,122,1,2025-02-26_11h25.29.978,comp,2024.2.4,56.507055460201386,2025-02-26 11h25.43.179759 -0500,
16,16,0,filler_random,None,None,None,None,None,None,None,None,None,None,1,1.896120548248291,None,,,,,0,0,0,0,0,16,16,132,181.60462355613708,,,,,,,,,,,,,,,,,,,,,,,,,,,,,,,,,,,,,,,,,,,,,,,,,,,,,,,,,,,,,,,,,,,,,,,,,,,,,,,,,151.05151996431283,165.93232613503284,96.15511677944369,108.24799317706228,64.85857904149947,156.1810770296632,2.2,2.21,-233,-285,0,263,228,265,181.58525681495667,181.58533906936646,181.5886778831482,181.60462355613708,181.73994135856628,181.73994135856628,181.73994135856628,181.73994135856628,181.73994135856628,181.73994135856628,181.73994135856628,183.5107936859131,1,1.896120548248291,None,,,,,,,,,,,,,,,,,,122,1,2025-02-26_11h25.29.978,comp,2024.2.4,56.507055460201386,2025-02-26 11h25.43.179759 -0500,
17,17,0,critical,whd,35.0,2.1,upper,125.0,200.0,200.0,125.0,127.0,127.0,1,6.907980442047119,None,,,,,0,0,0,0,0,17,17,13,183.52787446975708,,,,,,,,,,,,,,,,,,,,,,,,,,,,,,,,,,,,,,,,,,,,,,,,,,,,,,,,,,,,,,,,,,,,,,,,,,,,,,,,,125.0,200.0,200.0,125.0,127.0,127.0,2.1,2.12,-258,-270,0,-284,222,251,183.51235055923462,183.5124294757843,183.51625967025757,183.52787446975708,183.67210602760315,183.67210602760315,183.67210602760315,183.67210602760315,183.67210602760315,183.67210602760315,183.67210602760315,190.4469175338745,1,6.907980442047119,None,,,,,,,,,,,,,,,,,,122,1,2025-02-26_11h25.29.978,comp,2024.2.4,56.507055460201386,2025-02-26 11h25.43.179759 -0500,
18,18,0,filler_random,None,None,None,None,None,None,None,None,None,None,1,2.2452642917633057,None,,,,,0,0,0,0,0,18,18,147,190.46350574493408,,,,,,,,,,,,,,,,,,,,,,,,,,,,,,,,,,,,,,,,,,,,,,,,,,,,,,,,,,,,,,,,,,,,,,,,,,,,,,,,,188.12838025822273,172.05911724838603,133.65325104862586,150.87932516120674,69.84733484890266,152.40461652553307,3.0,3.1,-257,279,0,12,248,-270,190.44887399673462,190.44895720481873,190.45253491401672,190.46350574493408,190.6080892086029,190.6080892086029,190.6080892086029,190.6080892086029,190.6080892086029,190.6080892086029,190.6080892086029,192.71099758148193,1,2.2452642917633057,None,,,,,,,,,,,,,,,,,,122,1,2025-02-26_11h25.29.978,comp,2024.2.4,56.507055460201386,2025-02-26 11h25.43.179759 -0500,
19,19,0,filler_square,None,None,None,None,None,None,None,None,None,None,2,2.491786241531372,None,,,,,0,0,0,0,0,19,19,200,192.72874855995178,,,,,,,,,,,,,,,,,,,,,,,,,,,,,,,,,,,,,,,,,,,,,,,,,,,,,,,,,,,,,,,,,,,,,,,,,,,,,,,,,106.37578324880064,74.51337078422621,131.19676828176426,131.19676828176426,102.4106860892842,113.1484336889236,3.0,3.2,-199,-280,0,19,218,264,192.71326208114624,192.71334433555603,192.71726441383362,192.72874855995178,192.88004565238953,192.88004565238953,192.88004565238953,192.88004565238953,192.88004565238953,192.88004565238953,192.88004565238953,195.22574043273926,2,2.491786241531372,None,,,,,,,,,,,,,,,,,,122,1,2025-02-26_11h25.29.978,comp,2024.2.4,56.507055460201386,2025-02-26 11h25.43.179759 -0500,
20,20,0,filler_random,None,None,None,None,None,None,None,None,None,None,2,2.9041669368743896,None,,,,,0,0,0,0,0,20,20,145,195.24382996559143,,,,,,,,,,,,,,,,,,,,,,,,,,,,,,,,,,,,,,,,,,,,,,,,,,,,,,,,,,,,,,,,,,,,,,,,,,,,,,,,,149.48526924354385,120.56945968464046,167.90808848341976,123.93543398299565,76.15921621406055,102.919200206271,4.0,4.2,-218,-8,0,-271,209,-17,195.22745990753174,195.22753930091858,195.2306296825409,195.24382996559143,195.39801669120789,195.39801669120789,195.39801669120789,195.39801669120789,195.39801669120789,195.39801669120789,195.39801669120789,198.16458868980408,2,2.9041669368743896,None,,,,,,,,,,,,,,,,,,122,1,2025-02-26_11h25.29.978,comp,2024.2.4,56.507055460201386,2025-02-26 11h25.43.179759 -0500,
21,21,0,critical,wdh,20.0,3.0,upper,125.0,200.0,141.0,141.0,200.0,125.0,1,4.207319498062134,None,,,,,0,0,0,0,0,21,21,81,198.18131303787231,,,,,,,,,,,,,,,,,,,,,,,,,,,,,,,,,,,,,,,,,,,,,,,,,,,,,,,,,,,,,,,,,,,,,,,,,,,,,,,,,125.0,200.0,141.0,141.0,200.0,125.0,3.0,3.2,-266,-263,0,-1,229,286,198.16634035110474,198.16643905639648,198.16979694366455,198.18131303787231,198.32738423347473,198.32738423347473,198.32738423347473,198.32738423347473,198.32738423347473,198.32738423347473,198.32738423347473,202.39695072174072,1,4.207319498062134,None,,,,,,,,,,,,,,,,,,122,1,2025-02-26_11h25.29.978,comp,2024.2.4,56.507055460201386,2025-02-26 11h25.43.179759 -0500,
22,22,0,filler_square,None,None,None,None,None,None,None,None,None,None,1,3.273763656616211,None,,,,,0,0,0,0,0,22,22,170,202.4128942489624,,,,,,,,,,,,,,,,,,,,,,,,,,,,,,,,,,,,,,,,,,,,,,,,,,,,,,,,,,,,,,,,,,,,,,,,,,,,,,,,,121.33072104986508,121.33072104986508,80.19174137239308,65.99170624598135,115.43908118324325,89.107837990848,4.0,4.2,-190,-10,0,-281,174,-19,202.39882254600525,202.3989062309265,202.4020552635193,202.4128942489624,202.56292343139648,202.56292343139648,202.56292343139648,202.56292343139648,202.56292343139648,202.56292343139648,202.56292343139648,205.69743132591248,1,3.273763656616211,None,,,,,,,,,,,,,,,,,,122,1,2025-02-26_11h25.29.978,comp,2024.2.4,56.507055460201386,2025-02-26 11h25.43.179759 -0500,
23,23,0,filler_random,None,None,None,None,None,None,None,None,None,None,3,2.9146196842193604,None,,,,,0,0,0,0,0,23,23,139,205.71410536766052,,,,,,,,,,,,,,,,,,,,,,,,,,,,,,,,,,,,,,,,,,,,,,,,,,,,,,,,,,,,,,,,,,,,,,,,,,,,,,,,,105.9988387502808,153.44870365161017,78.06271123503898,74.77923178969476,99.24048108961159,184.16180356896706,3.0,3.1,-210,269,0,-16,225,-279,205.6994912624359,205.69958567619324,205.7031672000885,205.71410536766052,205.86029863357544,205.86029863357544,205.86029863357544,205.86029863357544,205.86029863357544,205.86029863357544,205.86029863357544,208.6340775489807,3,2.9146196842193604,None,,,,,,,,,,,,,,,,,,122,1,2025-02-26_11h25.29.978,comp,2024.2.4,56.507055460201386,2025-02-26 11h25.43.179759 -0500,
24,24,0,critical,hwd,20.0,4.0,lower,133.0,57.0,57.0,133.0,78.0,78.0,2,23.721962451934814,None,,,,,0,0,0,0,0,24,24,106,208.65059876441956,,,,,,,,,,,,,,,,,,,,,,,,,,,,,,,,,,,,,,,,,,,,,,,,,,,,,,,,,,,,,,,,,,,,,,,,,,,,,,,,,133.0,57.0,57.0,133.0,78.0,78.0,4.0,4.1,-191,-252,0,-15,202,-254,208.63572216033936,208.63580679893494,208.63976573944092,208.65059876441956,208.79753589630127,208.79753589630127,208.79753589630127,208.79753589630127,208.79753589630127,208.79753589630127,208.79753589630127,232.39083552360535,2,23.721962451934814,None,,,,,,,,,,,,,,,,,,122,1,2025-02-26_11h25.29.978,comp,2024.2.4,56.507055460201386,2025-02-26 11h25.43.179759 -0500,
25,25,0,critical,wdh,20.0,1.0,lower,57.0,133.0,78.0,78.0,133.0,57.0,1,3.7415590286254883,None,,,,,0,0,0,0,0,25,25,78,232.40696096420288,,,,,,,,,,,,,,,,,,,,,,,,,,,,,,,,,,,,,,,,,,,,,,,,,,,,,,,,,,,,,,,,,,,,,,,,,,,,,,,,,57.0,133.0,78.0,78.0,133.0,57.0,1.0,1.1,-682,280,-480,276,-316,263,232.39270091056824,232.39278531074524,232.39667081832886,232.40696096420288,232.56383657455444,232.56383657455444,232.56383657455444,232.56383657455444,232.56383657455444,232.56383657455444,232.56383657455444,236.1590075492859,1,3.7415590286254883,None,,,,,,,,,,,,,,,,,,122,1,2025-02-26_11h25.29.978,comp,2024.2.4,56.507055460201386,2025-02-26 11h25.43.179759 -0500,
26,26,0,critical,dhw,35.0,2.1,lower,70.0,70.0,133.0,57.0,57.0,133.0,3,4.693613529205322,None,,,,,0,0,0,0,0,26,26,24,236.17485690116882,,,,,,,,,,,,,,,,,,,,,,,,,,,,,,,,,,,,,,,,,,,,,,,,,,,,,,,,,,,,,,,,,,,,,,,,,,,,,,,,,70.0,70.0,133.0,57.0,57.0,133.0,2.1,2.12,-160,-269,0,-278,191,261,236.16077876091003,236.1609034538269,236.16389393806458,236.17485690116882,236.31953763961792,236.31953763961792,236.31953763961792,236.31953763961792,236.31953763961792,236.31953763961792,236.31953763961792,240.8731083869934,3,4.693613529205322,None,,,,,,,,,,,,,,,,,,122,1,2025-02-26_11h25.29.978,comp,2024.2.4,56.507055460201386,2025-02-26 11h25.43.179759 -0500,
27,27,0,filler_random,None,None,None,None,None,None,None,None,None,None,3,2.273738384246826,None,,,,,0,0,0,0,0,27,27,159,240.89036107063293,,,,,,,,,,,,,,,,,,,,,,,,,,,,,,,,,,,,,,,,,,,,,,,,,,,,,,,,,,,,,,,,,,,,,,,,,,,,,,,,,71.01949308116642,139.8233019745914,131.7829319404971,81.9626412053779,175.72047486400817,111.1135617790681,3.0,3.2,-207,-268,0,5,193,273,240.87495970726013,240.87509846687317,240.87838411331177,240.89036107063293,241.05034518241882,241.05034518241882,241.05034518241882,241.05034518241882,241.05034518241882,241.05034518241882,241.05034518241882,243.17716479301453,3,2.273738384246826,None,,,,,,,,,,,,,,,,,,122,1,2025-02-26_11h25.29.978,comp,2024.2.4,56.507055460201386,2025-02-26 11h25.43.179759 -0500,
28,28,0,critical,dwh,20.0,3.0,upper,141.0,141.0,125.0,200.0,200.0,125.0,2,15.900339126586914,None,,,,,0,0,0,0,0,28,28,69,243.19241070747375,,,,,,,,,,,,,,,,,,,,,,,,,,,,,,,,,,,,,,,,,,,,,,,,,,,,,,,,,,,,,,,,,,,,,,,,,,,,,,,,,141.0,141.0,125.0,200.0,200.0,125.0,3.0,3.1,-266,276,0,-13,258,-285,243.17873740196228,243.17881846427917,243.18187832832336,243.19241070747375,243.34196376800537,243.34196376800537,243.34196376800537,243.34196376800537,243.34196376800537,243.34196376800537,243.34196376800537,259.0987868309021,2,15.900339126586914,None,,,,,,,,,,,,,,,,,,122,1,2025-02-26_11h25.29.978,comp,2024.2.4,56.507055460201386,2025-02-26 11h25.43.179759 -0500,
29,29,0,critical,hdw,35.0,3.0,upper,200.0,125.0,127.0,127.0,125.0,200.0,3,3.3066787719726562,None,,,,,0,0,0,0,0,29,29,111,259.1152229309082,,,,,,,,,,,,,,,,,,,,,,,,,,,,,,,,,,,,,,,,,,,,,,,,,,,,,,,,,,,,,,,,,,,,,,,,,,,,,,,,,200.0,125.0,127.0,127.0,125.0,200.0,3.0,3.1,-222,262,0,8,260,-272,259.1004705429077,259.1005537509918,259.10385394096375,259.1152229309082,259.26404762268066,259.26404762268066,259.26404762268066,259.26404762268066,259.26404762268066,259.26404762268066,259.26404762268066,262.43292570114136,3,3.3066787719726562,None,,,,,,,,,,,,,,,,,,122,1,2025-02-26_11h25.29.978,comp,2024.2.4,56.507055460201386,2025-02-26 11h25.43.179759 -0500,
30,30,0,critical,dhw,20.0,3.0,lower,78.0,78.0,133.0,57.0,57.0,133.0,3,10.339414358139038,None,,,,,0,0,0,0,0,30,30,56,262.448823928833,,,,,,,,,,,,,,,,,,,,,,,,,,,,,,,,,,,,,,,,,,,,,,,,,,,,,,,,,,,,,,,,,,,,,,,,,,,,,,,,,78.0,78.0,133.0,57.0,57.0,133.0,3.0,3.1,-164,263,0,2,191,-260,262.4346339702606,262.43471598625183,262.43800926208496,262.448823928833,262.600218296051,262.600218296051,262.600218296051,262.600218296051,262.600218296051,262.600218296051,262.600218296051,272.80379271507263,3,10.339414358139038,None,,,,,,,,,,,,,,,,,,122,1,2025-02-26_11h25.29.978,comp,2024.2.4,56.507055460201386,2025-02-26 11h25.43.179759 -0500,
31,31,0,critical,hwd,20.0,3.0,lower,133.0,57.0,57.0,133.0,78.0,78.0,2,16.454757928848267,None,,,,,0,0,0,0,0,31,31,104,272.82141518592834,,,,,,,,,,,,,,,,,,,,,,,,,,,,,,,,,,,,,,,,,,,,,,,,,,,,,,,,,,,,,,,,,,,,,,,,,,,,,,,,,133.0,57.0,57.0,133.0,78.0,78.0,3.0,3.2,-191,-271,0,11,202,264,272.805606842041,272.80568838119507,272.8087158203125,272.82141518592834,272.96710109710693,272.96710109710693,272.96710109710693,272.96710109710693,272.96710109710693,272.96710109710693,272.96710109710693,289.2941973209381,2,16.454757928848267,None,,,,,,,,,,,,,,,,,,122,1,2025-02-26_11h25.29.978,comp,2024.2.4,56.507055460201386,2025-02-26 11h25.43.179759 -0500,
32,32,0,critical,dhw,20.0,1.0,lower,78.0,78.0,133.0,57.0,57.0,133.0,2,18.17038607597351,None,,,,,0,0,0,0,0,32,32,54,289.31383776664734,,,,,,,,,,,,,,,,,,,,,,,,,,,,,,,,,,,,,,,,,,,,,,,,,,,,,,,,,,,,,,,,,,,,,,,,,,,,,,,,,78.0,78.0,133.0,57.0,57.0,133.0,1.0,1.3,316,-262,480,-254,671,-265,289.2959680557251,289.2960979938507,289.29930877685547,289.31383776664734,289.45684599876404,289.45684599876404,289.45684599876404,289.45684599876404,289.45684599876404,289.45684599876404,289.45684599876404,307.4969346523285,2,18.17038607597351,None,,,,,,,,,,,,,,,,,,122,1,2025-02-26_11h25.29.978,comp,2024.2.4,56.507055460201386,2025-02-26 11h25.43.179759 -0500,
33,33,0,filler_square,None,None,None,None,None,None,None,None,None,None,2,1.3773612976074219,None,,,,,0,0,0,0,0,33,33,197,307.515207529068,,,,,,,,,,,,,,,,,,,,,,,,,,,,,,,,,,,,,,,,,,,,,,,,,,,,,,,,,,,,,,,,,,,,,,,,,,,,,,,,,142.1583245731627,113.88461912338101,169.7328389801071,169.7328389801071,138.52419562855164,66.86293500511165,2.2,2.21,-238,-268,0,277,214,283,307.4991466999054,307.49924325942993,307.502721786499,307.515207529068,307.659551858902,307.659551858902,307.659551858902,307.659551858902,307.659551858902,307.659551858902,307.659551858902,308.8947579860687,2,1.3773612976074219,None,,,,,,,,,,,,,,,,,,122,1,2025-02-26_11h25.29.978,comp,2024.2.4,56.507055460201386,2025-02-26 11h25.43.179759 -0500,
34,34,0,critical,dwh,35.0,3.0,lower,70.0,70.0,57.0,133.0,133.0,57.0,2,11.285156488418579,None,,,,,0,0,0,0,0,34,34,62,308.91127252578735,,,,,,,,,,,,,,,,,,,,,,,,,,,,,,,,,,,,,,,,,,,,,,,,,,,,,,,,,,,,,,,,,,,,,,,,,,,,,,,,,70.0,70.0,57.0,133.0,133.0,57.0,3.0,3.1,-198,276,0,11,191,-256,308.89632534980774,308.8964047431946,308.8995759487152,308.91127252578735,309.0488233566284,309.0488233566284,309.0488233566284,309.0488233566284,309.0488233566284,309.0488233566284,309.0488233566284,320.1986138820648,2,11.285156488418579,None,,,,,,,,,,,,,,,,,,122,1,2025-02-26_11h25.29.978,comp,2024.2.4,56.507055460201386,2025-02-26 11h25.43.179759 -0500,
35,35,0,filler_random,None,None,None,None,None,None,None,None,None,None,2,0.9094991683959961,None,,,,,0,0,0,0,0,35,35,163,320.2150671482086,,,,,,,,,,,,,,,,,,,,,,,,,,,,,,,,,,,,,,,,,,,,,,,,,,,,,,,,,,,,,,,,,,,,,,,,,,,,,,,,,65.98911620095868,199.4874575596682,118.9602523440766,195.20579139781498,117.83408015063009,93.25607071787732,3.0,3.2,-293,-286,0,-16,240,254,320.2003629207611,320.2004427909851,320.2034432888031,320.2150671482086,320.3699371814728,320.3699371814728,320.3699371814728,320.3699371814728,320.3699371814728,320.3699371814728,320.3699371814728,321.13337421417236,2,0.9094991683959961,None,,,,,,,,,,,,,,,,,,122,1,2025-02-26_11h25.29.978,comp,2024.2.4,56.507055460201386,2025-02-26 11h25.43.179759 -0500,
36,36,0,critical,dwh,20.0,2.1,upper,141.0,141.0,125.0,200.0,200.0,125.0,2,9.217932939529419,None,,,,,0,0,0,0,0,36,36,7,321.1543998718262,,,,,,,,,,,,,,,,,,,,,,,,,,,,,,,,,,,,,,,,,,,,,,,,,,,,,,,,,,,,,,,,,,,,,,,,,,,,,,,,,141.0,141.0,125.0,200.0,200.0,125.0,2.1,2.11,-266,254,0,286,258,-259,321.13504123687744,321.1351706981659,321.13859152793884,321.1543998718262,321.2995836734772,321.2995836734772,321.2995836734772,321.2995836734772,321.2995836734772,321.2995836734772,321.2995836734772,330.3871822357178,2,9.217932939529419,None,,,,,,,,,,,,,,,,,,122,1,2025-02-26_11h25.29.978,comp,2024.2.4,56.507055460201386,2025-02-26 11h25.43.179759 -0500,
37,37,0,filler_square,None,None,None,None,None,None,None,None,None,None,3,2.3782169818878174,None,,,,,0,0,0,0,0,37,37,184,330.40265560150146,,,,,,,,,,,,,,,,,,,,,,,,,,,,,,,,,,,,,,,,,,,,,,,,,,,,,,,,,,,,,,,,,,,,,,,,,,,,,,,,,77.1595892825245,111.53699395124826,61.24720453273946,85.94849326362215,112.60755691832841,112.60755691832841,4.0,4.1,-195,-284,0,-12,195,-269,330.3890371322632,330.38914704322815,330.39231848716736,330.40265560150146,330.5552034378052,330.5552034378052,330.5552034378052,330.5552034378052,330.5552034378052,330.5552034378052,330.5552034378052,332.78839206695557,3,2.3782169818878174,None,,,,,,,,,,,,,,,,,,122,1,2025-02-26_11h25.29.978,comp,2024.2.4,56.507055460201386,2025-02-26 11h25.43.179759 -0500,
38,38,0,critical,wdh,35.0,4.0,upper,125.0,200.0,127.0,127.0,200.0,125.0,1,5.008090972900391,None,,,,,0,0,0,0,0,38,38,77,332.8047077655792,,,,,,,,,,,,,,,,,,,,,,,,,,,,,,,,,,,,,,,,,,,,,,,,,,,,,,,,,,,,,,,,,,,,,,,,,,,,,,,,,125.0,200.0,127.0,127.0,200.0,125.0,4.0,4.2,-260,15,0,-271,222,-6,332.79001092910767,332.7900912761688,332.7937128543854,332.8047077655792,332.9546694755554,332.9546694755554,332.9546694755554,332.9546694755554,332.9546694755554,332.9546694755554,332.9546694755554,337.82066082954407,1,5.008090972900391,None,,,,,,,,,,,,,,,,,,122,1,2025-02-26_11h25.29.978,comp,2024.2.4,56.507055460201386,2025-02-26 11h25.43.179759 -0500,
39,39,0,critical,hwd,35.0,2.1,lower,133.0,57.0,57.0,133.0,70.0,70.0,1,5.931782245635986,None,,,,,0,0,0,0,0,39,39,16,337.8410794734955,,,,,,,,,,,,,,,,,,,,,,,,,,,,,,,,,,,,,,,,,,,,,,,,,,,,,,,,,,,,,,,,,,,,,,,,,,,,,,,,,133.0,57.0,57.0,133.0,70.0,70.0,2.1,2.11,-191,273,0,276,198,-289,337.8223206996918,337.82241773605347,337.82576084136963,337.8410794734955,337.98778557777405,337.98778557777405,337.98778557777405,337.98778557777405,337.98778557777405,337.98778557777405,337.98778557777405,343.7819764614105,1,5.931782245635986,None,,,,,,,,,,,,,,,,,,122,1,2025-02-26_11h25.29.978,comp,2024.2.4,56.507055460201386,2025-02-26 11h25.43.179759 -0500,
40,40,0,catch,None,None,None,None,None,None,None,None,None,None,1,1.3587496280670166,None,,,,,0,0,0,0,0,40,40,127,343.7978506088257,,,,,,,,,,,,,,,,,,,,,,,,,,,,,,,,,,,,,,,,,,,,,,,,,,,,,,,,,,,,,,,,,,,,,,,,,,,,,,,,,147,178,104,86,58,132,1.0,1.3,252,-270,480,-271,685,-263,343.7839584350586,343.78403878211975,343.78693151474,343.7978506088257,343.940860748291,343.940860748291,343.940860748291,343.940860748291,343.940860748291,343.940860748291,343.940860748291,345.15894412994385,1,1.3587496280670166,None,,,,,,,,,,,,,,,,,,122,1,2025-02-26_11h25.29.978,comp,2024.2.4,56.507055460201386,2025-02-26 11h25.43.179759 -0500,
41,41,0,filler_square,None,None,None,None,None,None,None,None,None,None,1,2.116133689880371,None,,,,,0,0,0,0,0,41,41,205,345.1762127876282,,,,,,,,,,,,,,,,,,,,,,,,,,,,,,,,,,,,,,,,,,,,,,,,,,,,,,,,,,,,,,,,,,,,,,,,,,,,,,,,,142.45088802084013,142.45088802084013,138.32149024941452,57.91415696182087,136.78163302765023,117.66391700429557,4.0,4.2,-196,-8,0,-280,184,-2,345.16110920906067,345.1612265110016,345.16447925567627,345.1762127876282,345.3239002227783,345.3239002227783,345.3239002227783,345.3239002227783,345.3239002227783,345.3239002227783,345.3239002227783,347.30763244628906,1,2.116133689880371,None,,,,,,,,,,,,,,,,,,122,1,2025-02-26_11h25.29.978,comp,2024.2.4,56.507055460201386,2025-02-26 11h25.43.179759 -0500,
42,42,0,critical,dhw,35.0,3.0,lower,70.0,70.0,133.0,57.0,57.0,133.0,2,3.888453245162964,None,,,,,0,0,0,0,0,42,42,50,347.32407879829407,,,,,,,,,,,,,,,,,,,,,,,,,,,,,,,,,,,,,,,,,,,,,,,,,,,,,,,,,,,,,,,,,,,,,,,,,,,,,,,,,70.0,70.0,133.0,57.0,57.0,133.0,3.0,3.2,-160,-252,0,-9,191,269,347.30922293663025,347.3093030452728,347.3124883174896,347.32407879829407,347.47405791282654,347.47405791282654,347.47405791282654,347.47405791282654,347.47405791282654,347.47405791282654,347.47405791282654,351.21560192108154,2,3.888453245162964,None,,,,,,,,,,,,,,,,,,122,1,2025-02-26_11h25.29.978,comp,2024.2.4,56.507055460201386,2025-02-26 11h25.43.179759 -0500,
43,43,0,filler_random,None,None,None,None,None,None,None,None,None,None,3,8.175719738006592,None,,,,,0,0,0,0,0,43,43,133,351.2368667125702,,,,,,,,,,,,,,,,,,,,,,,,,,,,,,,,,,,,,,,,,,,,,,,,,,,,,,,,,,,,,,,,,,,,,,,,,,,,,,,,,127.68582023614087,159.1634948083949,65.01660847497996,60.39259558981088,96.4556215462791,197.92518536592348,3.0,3.2,-206,-269,0,17,225,258,351.21754598617554,351.2176263332367,351.22093772888184,351.2368667125702,351.3767008781433,351.3767008781433,351.3767008781433,351.3767008781433,351.3767008781433,351.3767008781433,351.3767008781433,359.4305348396301,3,8.175719738006592,None,,,,,,,,,,,,,,,,,,122,1,2025-02-26_11h25.29.978,comp,2024.2.4,56.507055460201386,2025-02-26 11h25.43.179759 -0500,
44,44,0,filler_square,None,None,None,None,None,None,None,None,None,None,3,2.821821689605713,None,,,,,0,0,0,0,0,44,44,182,359.4469177722931,,,,,,,,,,,,,,,,,,,,,,,,,,,,,,,,,,,,,,,,,,,,,,,,,,,,,,,,,,,,,,,,,,,,,,,,,,,,,,,,,87.29824121746405,122.26409564548624,116.17472718959473,108.68334980517135,130.65341434399795,130.65341434399795,1.0,1.2,-211,19,0,-16,216,-4,359.43263006210327,359.4327120780945,359.43620896339417,359.4469177722931,359.5935027599335,359.5935027599335,359.5935027599335,359.5935027599335,359.5935027599335,359.5935027599335,359.5935027599335,362.27766370773315,3,2.821821689605713,None,,,,,,,,,,,,,,,,,,122,1,2025-02-26_11h25.29.978,comp,2024.2.4,56.507055460201386,2025-02-26 11h25.43.179759 -0500,
45,45,0,critical,whd,35.0,4.0,upper,125.0,200.0,200.0,125.0,127.0,127.0,1,2.1905887126922607,None,,,,,0,0,0,0,0,45,45,89,362.294641494751,,,,,,,,,,,,,,,,,,,,,,,,,,,,,,,,,,,,,,,,,,,,,,,,,,,,,,,,,,,,,,,,,,,,,,,,,,,,,,,,,125.0,200.0,200.0,125.0,127.0,127.0,4.0,4.1,-258,-256,0,0,222,-271,362.2793049812317,362.2794380187988,362.28271889686584,362.294641494751,362.4447331428528,362.4447331428528,362.4447331428528,362.4447331428528,362.4447331428528,362.4447331428528,362.4447331428528,364.4979293346405,1,2.1905887126922607,None,,,,,,,,,,,,,,,,,,122,1,2025-02-26_11h25.29.978,comp,2024.2.4,56.507055460201386,2025-02-26 11h25.43.179759 -0500,
46,46,0,filler_square,None,None,None,None,None,None,None,None,None,None,3,1.353996992111206,None,,,,,0,0,0,0,0,46,46,195,364.514155626297,,,,,,,,,,,,,,,,,,,,,,,,,,,,,,,,,,,,,,,,,,,,,,,,,,,,,,,,,,,,,,,,,,,,,,,,,,,,,,,,,68.92696593835494,109.03550389682627,82.21237851279047,59.33359228166295,150.03138254241085,150.03138254241085,3.0,3.2,-180,-278,0,16,201,256,364.50018334388733,364.500319480896,364.5038001537323,364.514155626297,364.6617946624756,364.6617946624756,364.6617946624756,364.6617946624756,364.6617946624756,364.6617946624756,364.6617946624756,365.8797700405121,3,1.353996992111206,None,,,,,,,,,,,,,,,,,,122,1,2025-02-26_11h25.29.978,comp,2024.2.4,56.507055460201386,2025-02-26 11h25.43.179759 -0500,
47,47,0,filler_random,None,None,None,None,None,None,None,None,None,None,2,0.883183479309082,None,,,,,0,0,0,0,0,47,47,144,365.89705896377563,,,,,,,,,,,,,,,,,,,,,,,,,,,,,,,,,,,,,,,,,,,,,,,,,,,,,,,,,,,,,,,,,,,,,,,,,,,,,,,,,127.15215776991653,100.84537261355143,169.70896231254682,160.25851653951543,108.21955561958785,58.439809266812595,3.0,3.2,-227,-255,0,-16,205,266,365.8816382884979,365.88176250457764,365.8851799964905,365.89705896377563,366.04753494262695,366.04753494262695,366.04753494262695,366.04753494262695,366.04753494262695,366.04753494262695,366.04753494262695,366.80579233169556,2,0.883183479309082,None,,,,,,,,,,,,,,,,,,122,1,2025-02-26_11h25.29.978,comp,2024.2.4,56.507055460201386,2025-02-26 11h25.43.179759 -0500,
48,48,0,critical,wdh,20.0,2.1,lower,57.0,133.0,78.0,78.0,133.0,57.0,1,4.67657208442688,None,,,,,0,0,0,0,0,48,48,34,366.82374715805054,,,,,,,,,,,,,,,,,,,,,,,,,,,,,,,,,,,,,,,,,,,,,,,,,,,,,,,,,,,,,,,,,,,,,,,,,,,,,,,,,57.0,133.0,78.0,78.0,133.0,57.0,2.1,2.12,-202,-281,0,-278,164,263,366.8074858188629,366.80757427215576,366.81090450286865,366.82374715805054,366.9651117324829,366.9651117324829,366.9651117324829,366.9651117324829,366.9651117324829,366.9651117324829,366.9651117324829,371.51363730430603,1,4.67657208442688,None,,,,,,,,,,,,,,,,,,122,1,2025-02-26_11h25.29.978,comp,2024.2.4,56.507055460201386,2025-02-26 11h25.43.179759 -0500,
49,49,0,filler_square,None,None,None,None,None,None,None,None,None,None,3,6.87387228012085,None,,,,,0,0,0,0,0,49,49,209,371.530464887619,,,,,,,,,,,,,,,,,,,,,,,,,,,,,,,,,,,,,,,,,,,,,,,,,,,,,,,,,,,,,,,,,,,,,,,,,,,,,,,,,57.02931302963075,57.00043626016726,57.0777765030967,57.0227876497206,57.08250581710829,57.08250581710829,4.0,4.2,-153,-12,0,-289,153,-2,371.51567101478577,371.5157494544983,371.51919889450073,371.530464887619,371.68228673934937,371.68228673934937,371.68228673934937,371.68228673934937,371.68228673934937,371.68228673934937,371.68228673934937,378.41786193847656,3,6.87387228012085,None,,,,,,,,,,,,,,,,,,122,1,2025-02-26_11h25.29.978,comp,2024.2.4,56.507055460201386,2025-02-26 11h25.43.179759 -0500,
50,50,0,critical,whd,35.0,3.0,lower,57.0,133.0,133.0,57.0,70.0,70.0,1,6.538048982620239,None,,,,,0,0,0,0,0,50,50,86,378.43418169021606,,,,,,,,,,,,,,,,,,,,,,,,,,,,,,,,,,,,,,,,,,,,,,,,,,,,,,,,,,,,,,,,,,,,,,,,,,,,,,,,,57.0,133.0,133.0,57.0,70.0,70.0,3.0,3.2,-191,-268,0,-20,160,270,378.4194366931915,378.4195148944855,378.42291951179504,378.43418169021606,378.5833742618561,378.5833742618561,378.5833742618561,378.5833742618561,378.5833742618561,378.5833742618561,378.5833742618561,384.98837661743164,1,6.538048982620239,None,,,,,,,,,,,,,,,,,,122,1,2025-02-26_11h25.29.978,comp,2024.2.4,56.507055460201386,2025-02-26 11h25.43.179759 -0500,
51,51,0,filler_square,None,None,None,None,None,None,None,None,None,None,2,1.0463314056396484,None,,,,,0,0,0,0,0,51,51,199,385.006694316864,,,,,,,,,,,,,,,,,,,,,,,,,,,,,,,,,,,,,,,,,,,,,,,,,,,,,,,,,,,,,,,,,,,,,,,,,,,,,,,,,150.70789544704547,117.11925065239872,152.04305312279314,152.04305312279314,150.08235155266203,66.20687530501638,4.0,4.1,-231,-288,0,-11,205,-266,384.9905209541321,384.99060010910034,384.9939305782318,385.006694316864,385.15205359458923,385.15205359458923,385.15205359458923,385.15205359458923,385.15205359458923,385.15205359458923,385.15205359458923,386.0555362701416,2,1.0463314056396484,None,,,,,,,,,,,,,,,,,,122,1,2025-02-26_11h25.29.978,comp,2024.2.4,56.507055460201386,2025-02-26 11h25.43.179759 -0500,
52,52,0,critical,hdw,35.0,2.1,upper,200.0,125.0,127.0,127.0,125.0,200.0,1,12.035897731781006,None,,,,,0,0,0,0,0,52,52,45,386.0723602771759,,,,,,,,,,,,,,,,,,,,,,,,,,,,,,,,,,,,,,,,,,,,,,,,,,,,,,,,,,,,,,,,,,,,,,,,,,,,,,,,,200.0,125.0,127.0,127.0,125.0,200.0,2.1,2.12,-222,-281,0,-264,260,286,386.057265996933,386.0573468208313,386.061288356781,386.0723602771759,386.2270407676697,386.2270407676697,386.2270407676697,386.2270407676697,386.2270407676697,386.2270407676697,386.2270407676697,398.121572971344,1,12.035897731781006,None,,,,,,,,,,,,,,,,,,122,1,2025-02-26_11h25.29.978,comp,2024.2.4,56.507055460201386,2025-02-26 11h25.43.179759 -0500,
53,53,0,critical,hwd,20.0,3.0,upper,200.0,125.0,125.0,200.0,141.0,141.0,2,3.4584848880767822,None,,,,,0,0,0,0,0,53,53,105,398.1377465724945,,,,,,,,,,,,,,,,,,,,,,,,,,,,,,,,,,,,,,,,,,,,,,,,,,,,,,,,,,,,,,,,,,,,,,,,,,,,,,,,,200.0,125.0,125.0,200.0,141.0,141.0,3.0,3.1,-258,254,0,3,266,-275,398.123087644577,398.1231892108917,398.12604451179504,398.1377465724945,398.2739429473877,398.2739429473877,398.2739429473877,398.2739429473877,398.2739429473877,398.2739429473877,398.2739429473877,401.6073622703552,2,3.4584848880767822,None,,,,,,,,,,,,,,,,,,122,1,2025-02-26_11h25.29.978,comp,2024.2.4,56.507055460201386,2025-02-26 11h25.43.179759 -0500,
54,54,0,critical,whd,20.0,2.1,upper,125.0,200.0,200.0,125.0,141.0,141.0,2,8.932495832443237,None,,,,,0,0,0,0,0,54,54,15,401.6237335205078,,,,,,,,,,,,,,,,,,,,,,,,,,,,,,,,,,,,,,,,,,,,,,,,,,,,,,,,,,,,,,,,,,,,,,,,,,,,,,,,,125.0,200.0,200.0,125.0,141.0,141.0,2.1,2.12,-258,-278,0,-262,229,270,401.60892057418823,401.6089997291565,401.61200165748596,401.6237335205078,401.7759852409363,401.7759852409363,401.7759852409363,401.7759852409363,401.7759852409363,401.7759852409363,401.7759852409363,410.5731358528137,2,8.932495832443237,None,,,,,,,,,,,,,,,,,,122,1,2025-02-26_11h25.29.978,comp,2024.2.4,56.507055460201386,2025-02-26 11h25.43.179759 -0500,
55,55,0,filler_random,None,None,None,None,None,None,None,None,None,None,3,0.9600114822387695,None,,,,,0,0,0,0,0,55,55,155,410.5884499549866,,,,,,,,,,,,,,,,,,,,,,,,,,,,,,,,,,,,,,,,,,,,,,,,,,,,,,,,,,,,,,,,,,,,,,,,,,,,,,,,,67.6058296771375,147.9381007715289,166.90140807450805,93.95656413605575,188.07643193693463,199.64401395625072,2.2,2.21,-217,-250,0,271,243,273,410.57495617866516,410.57503747940063,410.57799673080444,410.5884499549866,410.7338562011719,410.7338562011719,410.7338562011719,410.7338562011719,410.7338562011719,410.7338562011719,410.7338562011719,411.56280159950256,3,0.9600114822387695,None,,,,,,,,,,,,,,,,,,122,1,2025-02-26_11h25.29.978,comp,2024.2.4,56.507055460201386,2025-02-26 11h25.43.179759 -0500,
56,56,0,critical,hdw,20.0,3.0,lower,133.0,57.0,78.0,78.0,57.0,133.0,3,4.03379487991333,None,,,,,0,0,0,0,0,56,56,116,411.57887291908264,,,,,,,,,,,,,,,,,,,,,,,,,,,,,,,,,,,,,,,,,,,,,,,,,,,,,,,,,,,,,,,,,,,,,,,,,,,,,,,,,133.0,57.0,78.0,78.0,57.0,133.0,3.0,3.1,-164,254,0,9,202,-275,411.5644187927246,411.5645492076874,411.5677366256714,411.57887291908264,411.7278709411621,411.7278709411621,411.7278709411621,411.7278709411621,411.7278709411621,411.7278709411621,411.7278709411621,415.63024067878723,3,4.03379487991333,None,,,,,,,,,,,,,,,,,,122,1,2025-02-26_11h25.29.978,comp,2024.2.4,56.507055460201386,2025-02-26 11h25.43.179759 -0500,
57,57,0,critical,hdw,20.0,1.0,lower,133.0,57.0,78.0,78.0,57.0,133.0,3,2.1020121574401855,None,,,,,0,0,0,0,0,57,57,114,415.6462028026581,,,,,,,,,,,,,,,,,,,,,,,,,,,,,,,,,,,,,,,,,,,,,,,,,,,,,,,,,,,,,,,,,,,,,,,,,,,,,,,,,133.0,57.0,78.0,78.0,57.0,133.0,1.0,1.3,316,-260,480,-267,682,-290,415.63191413879395,415.6320209503174,415.6357259750366,415.6462028026581,415.78910994529724,415.78910994529724,415.78910994529724,415.78910994529724,415.78910994529724,415.78910994529724,415.78910994529724,417.76186299324036,3,2.1020121574401855,None,,,,,,,,,,,,,,,,,,122,1,2025-02-26_11h25.29.978,comp,2024.2.4,56.507055460201386,2025-02-26 11h25.43.179759 -0500,
58,58,0,critical,dhw,20.0,2.1,lower,78.0,78.0,133.0,57.0,57.0,133.0,3,3.0830953121185303,None,,,,,0,0,0,0,0,58,58,26,417.77804827690125,,,,,,,,,,,,,,,,,,,,,,,,,,,,,,,,,,,,,,,,,,,,,,,,,,,,,,,,,,,,,,,,,,,,,,,,,,,,,,,,,78.0,78.0,133.0,57.0,57.0,133.0,2.1,2.12,-164,-274,0,-280,191,274,417.76342582702637,417.76350498199463,417.7666893005371,417.77804827690125,417.9271478652954,417.9271478652954,417.9271478652954,417.9271478652954,417.9271478652954,417.9271478652954,417.9271478652954,420.86437034606934,3,3.0830953121185303,None,,,,,,,,,,,,,,,,,,122,1,2025-02-26_11h25.29.978,comp,2024.2.4,56.507055460201386,2025-02-26 11h25.43.179759 -0500,
59,59,0,critical,whd,35.0,3.0,upper,125.0,200.0,200.0,125.0,127.0,127.0,1,5.0048229694366455,None,,,,,0,0,0,0,0,59,59,87,420.880304813385,,,,,,,,,,,,,,,,,,,,,,,,,,,,,,,,,,,,,,,,,,,,,,,,,,,,,,,,,,,,,,,,,,,,,,,,,,,,,,,,,125.0,200.0,200.0,125.0,127.0,127.0,3.0,3.2,-258,-260,0,0,222,258,420.86597752571106,420.8660612106323,420.8695020675659,420.880304813385,421.03200793266296,421.03200793266296,421.03200793266296,421.03200793266296,421.03200793266296,421.03200793266296,421.03200793266296,425.9027421474457,1,5.0048229694366455,None,,,,,,,,,,,,,,,,,,122,1,2025-02-26_11h25.29.978,comp,2024.2.4,56.507055460201386,2025-02-26 11h25.43.179759 -0500,
60,60,0,critical,dhw,35.0,4.0,lower,70.0,70.0,133.0,57.0,57.0,133.0,3,3.846416711807251,None,,,,,0,0,0,0,0,60,60,52,425.9187376499176,,,,,,,,,,,,,,,,,,,,,,,,,,,,,,,,,,,,,,,,,,,,,,,,,,,,,,,,,,,,,,,,,,,,,,,,,,,,,,,,,70.0,70.0,133.0,57.0,57.0,133.0,4.0,4.1,-160,-285,0,3,191,-257,425.9044291973114,425.90450716018677,425.9074823856354,425.9187376499176,426.0664942264557,426.0664942264557,426.0664942264557,426.0664942264557,426.0664942264557,426.0664942264557,426.0664942264557,429.77367091178894,3,3.846416711807251,None,,,,,,,,,,,,,,,,,,122,1,2025-02-26_11h25.29.978,comp,2024.2.4,56.507055460201386,2025-02-26 11h25.43.179759 -0500,
61,61,0,catch,None,None,None,None,None,None,None,None,None,None,1,3.638230800628662,None,,,,,0,0,0,0,0,61,61,120,429.79023003578186,,,,,,,,,,,,,,,,,,,,,,,,,,,,,,,,,,,,,,,,,,,,,,,,,,,,,,,,,,,,,,,,,,,,,,,,,,,,,,,,,169,156,64,126,125,65,2.1,2.12,-237,-270,0,-250,192,269,429.77555084228516,429.7756316661835,429.77851271629333,429.79023003578186,429.93516397476196,429.93516397476196,429.93516397476196,429.93516397476196,429.93516397476196,429.93516397476196,429.93516397476196,433.44782423973083,1,3.638230800628662,None,,,,,,,,,,,,,,,,,,122,1,2025-02-26_11h25.29.978,comp,2024.2.4,56.507055460201386,2025-02-26 11h25.43.179759 -0500,
62,62,0,critical,dwh,35.0,1.0,upper,127.0,127.0,125.0,200.0,200.0,125.0,2,4.972284317016602,None,,,,,0,0,0,0,0,62,62,61,433.4649906158447,,,,,,,,,,,,,,,,,,,,,,,,,,,,,,,,,,,,,,,,,,,,,,,,,,,,,,,,,,,,,,,,,,,,,,,,,,,,,,,,,127.0,127.0,125.0,200.0,200.0,125.0,1.0,1.3,220,-269,480,-285,738,-269,433.44937658309937,433.44945311546326,433.4524438381195,433.4649906158447,433.6018011569977,433.6018011569977,433.6018011569977,433.6018011569977,433.6018011569977,433.6018011569977,433.6018011569977,438.4439899921417,2,4.972284317016602,None,,,,,,,,,,,,,,,,,,122,1,2025-02-26_11h25.29.978,comp,2024.2.4,56.507055460201386,2025-02-26 11h25.43.179759 -0500,
63,63,0,catch,None,None,None,None,None,None,None,None,None,None,2,1.0727853775024414,None,,,,,0,0,0,0,0,63,63,128,438.46046900749207,,,,,,,,,,,,,,,,,,,,,,,,,,,,,,,,,,,,,,,,,,,,,,,,,,,,,,,,,,,,,,,,,,,,,,,,,,,,,,,,,110,80,166,159,74,116,4.0,4.2,-216,-14,0,-272,234,19,438.4459340572357,438.4460163116455,438.44894456863403,438.46046900749207,438.59992027282715,438.59992027282715,438.59992027282715,438.59992027282715,438.59992027282715,438.59992027282715,438.59992027282715,439.536744594574,2,1.0727853775024414,None,,,,,,,,,,,,,,,,,,122,1,2025-02-26_11h25.29.978,comp,2024.2.4,56.507055460201386,2025-02-26 11h25.43.179759 -0500,
64,64,0,critical,hdw,20.0,1.0,upper,200.0,125.0,141.0,141.0,125.0,200.0,3,31.516050577163696,None,,,,,0,0,0,0,0,64,64,115,439.5534944534302,,,,,,,,,,,,,,,,,,,,,,,,,,,,,,,,,,,,,,,,,,,,,,,,,,,,,,,,,,,,,,,,,,,,,,,,,,,,,,,,,200.0,125.0,141.0,141.0,125.0,200.0,1.0,1.2,-229,-7,0,-1,266,-19,439.53836727142334,439.538494348526,439.5419762134552,439.5534944534302,439.7007830142975,439.7007830142975,439.7007830142975,439.7007830142975,439.7007830142975,439.7007830142975,439.7007830142975,471.07915472984314,3,31.516050577163696,None,,,,,,,,,,,,,,,,,,122,1,2025-02-26_11h25.29.978,comp,2024.2.4,56.507055460201386,2025-02-26 11h25.43.179759 -0500,
65,65,0,critical,whd,20.0,3.0,upper,125.0,200.0,200.0,125.0,141.0,141.0,1,5.520519256591797,None,,,,,0,0,0,0,0,65,65,93,471.10001826286316,,,,,,,,,,,,,,,,,,,,,,,,,,,,,,,,,,,,,,,,,,,,,,,,,,,,,,,,,,,,,,,,,,,,,,,,,,,,,,,,,125.0,200.0,200.0,125.0,141.0,141.0,3.0,3.1,-258,276,0,18,229,-283,471.08072209358215,471.0808012485504,471.0840973854065,471.10001826286316,471.2387602329254,471.2387602329254,471.2387602329254,471.2387602329254,471.2387602329254,471.2387602329254,471.2387602329254,476.63081526756287,1,5.520519256591797,None,,,,,,,,,,,,,,,,,,122,1,2025-02-26_11h25.29.978,comp,2024.2.4,56.507055460201386,2025-02-26 11h25.43.179759 -0500,
66,66,0,critical,hdw,20.0,4.0,upper,200.0,125.0,141.0,141.0,125.0,200.0,1,4.4509148597717285,None,,,,,0,0,0,0,0,66,66,119,476.649738073349,,,,,,,,,,,,,,,,,,,,,,,,,,,,,,,,,,,,,,,,,,,,,,,,,,,,,,,,,,,,,,,,,,,,,,,,,,,,,,,,,200.0,125.0,141.0,141.0,125.0,200.0,4.0,4.1,-229,-253,0,-15,266,-276,476.6323447227478,476.63242411613464,476.63553500175476,476.649738073349,476.7984960079193,476.7984960079193,476.7984960079193,476.7984960079193,476.7984960079193,476.7984960079193,476.7984960079193,481.1182630062103,1,4.4509148597717285,None,,,,,,,,,,,,,,,,,,122,1,2025-02-26_11h25.29.978,comp,2024.2.4,56.507055460201386,2025-02-26 11h25.43.179759 -0500,
67,67,0,filler_random,None,None,None,None,None,None,None,None,None,None,2,2.1342272758483887,None,,,,,0,0,0,0,0,67,67,134,481.13421750068665,,,,,,,,,,,,,,,,,,,,,,,,,,,,,,,,,,,,,,,,,,,,,,,,,,,,,,,,,,,,,,,,,,,,,,,,,,,,,,,,,120.61972404890827,139.5403531445528,159.09292775378336,168.19965647803252,146.90103527391284,176.11950154905284,2.2,2.22,-250,276,0,-266,268,-257,481.12021136283875,481.12032079696655,481.1238009929657,481.13421750068665,481.28283524513245,481.28283524513245,481.28283524513245,481.28283524513245,481.28283524513245,481.28283524513245,481.28283524513245,483.2857825756073,2,2.1342272758483887,None,,,,,,,,,,,,,,,,,,122,1,2025-02-26_11h25.29.978,comp,2024.2.4,56.507055460201386,2025-02-26 11h25.43.179759 -0500,
68,68,0,filler_random,None,None,None,None,None,None,None,None,None,None,3,0.9755733013153076,None,,,,,0,0,0,0,0,68,68,169,483.30181407928467,,,,,,,,,,,,,,,,,,,,,,,,,,,,,,,,,,,,,,,,,,,,,,,,,,,,,,,,,,,,,,,,,,,,,,,,,,,,,,,,,69.79400134517469,61.532922225182,162.5198860810517,80.29067837333221,177.38840275486342,147.99029224022007,4.0,4.1,-167,-251,0,20,210,-265,483.28781485557556,483.2878975868225,483.2913589477539,483.30181407928467,483.45587849617004,483.45587849617004,483.45587849617004,483.45587849617004,483.45587849617004,483.45587849617004,483.45587849617004,484.2885820865631,3,0.9755733013153076,None,,,,,,,,,,,,,,,,,,122,1,2025-02-26_11h25.29.978,comp,2024.2.4,56.507055460201386,2025-02-26 11h25.43.179759 -0500,
69,69,0,filler_random,None,None,None,None,None,None,None,None,None,None,1,10.499648094177246,None,,,,,0,0,0,0,0,69,69,162,484.3047592639923,,,,,,,,,,,,,,,,,,,,,,,,,,,,,,,,,,,,,,,,,,,,,,,,,,,,,,,,,,,,,,,,,,,,,,,,,,,,,,,,,175.6200805797484,151.48375510880837,159.01513928888227,173.36708335771905,118.42062497707755,87.86045890567424,1.0,1.2,-258,14,0,7,227,-12,484.29074025154114,484.2908761501312,484.29393100738525,484.3047592639923,484.45129656791687,484.45129656791687,484.45129656791687,484.45129656791687,484.45129656791687,484.45129656791687,484.45129656791687,494.8206560611725,1,10.499648094177246,None,,,,,,,,,,,,,,,,,,122,1,2025-02-26_11h25.29.978,comp,2024.2.4,56.507055460201386,2025-02-26 11h25.43.179759 -0500,
70,70,0,critical,wdh,20.0,4.0,lower,57.0,133.0,78.0,78.0,133.0,57.0,1,2.568166494369507,None,,,,,0,0,0,0,0,70,70,82,494.836238861084,,,,,,,,,,,,,,,,,,,,,,,,,,,,,,,,,,,,,,,,,,,,,,,,,,,,,,,,,,,,,,,,,,,,,,,,,,,,,,,,,57.0,133.0,78.0,78.0,133.0,57.0,4.0,4.1,-202,-259,0,-1,164,-285,494.82229495048523,494.82239985466003,494.8257985115051,494.836238861084,494.98808121681213,494.98808121681213,494.98808121681213,494.98808121681213,494.98808121681213,494.98808121681213,494.98808121681213,497.4216024875641,1,2.568166494369507,None,,,,,,,,,,,,,,,,,,122,1,2025-02-26_11h25.29.978,comp,2024.2.4,56.507055460201386,2025-02-26 11h25.43.179759 -0500,
71,71,0,critical,dwh,20.0,2.1,lower,78.0,78.0,57.0,133.0,133.0,57.0,2,3.8233635425567627,None,,,,,0,0,0,0,0,71,71,30,497.4378819465637,,,,,,,,,,,,,,,,,,,,,,,,,,,,,,,,,,,,,,,,,,,,,,,,,,,,,,,,,,,,,,,,,,,,,,,,,,,,,,,,,78.0,78.0,57.0,133.0,133.0,57.0,2.1,2.11,-202,262,0,273,191,-269,497.4231061935425,497.42320489883423,497.42641735076904,497.4378819465637,497.5749502182007,497.5749502182007,497.5749502182007,497.5749502182007,497.5749502182007,497.5749502182007,497.5749502182007,501.27275943756104,2,3.8233635425567627,None,,,,,,,,,,,,,,,,,,122,1,2025-02-26_11h25.29.978,comp,2024.2.4,56.507055460201386,2025-02-26 11h25.43.179759 -0500,
72,72,0,critical,hwd,35.0,1.0,upper,200.0,125.0,125.0,200.0,127.0,127.0,1,9.772064208984375,None,,,,,0,0,0,0,0,72,72,97,501.28837633132935,,,,,,,,,,,,,,,,,,,,,,,,,,,,,,,,,,,,,,,,,,,,,,,,,,,,,,,,,,,,,,,,,,,,,,,,,,,,,,,,,200.0,125.0,125.0,200.0,127.0,127.0,1.0,1.2,-258,-10,0,9,260,9,501.2741916179657,501.27426862716675,501.2775752544403,501.28837633132935,501.4364640712738,501.4364640712738,501.4364640712738,501.4364640712738,501.4364640712738,501.4364640712738,501.4364640712738,511.0759470462799,1,9.772064208984375,None,,,,,,,,,,,,,,,,,,122,1,2025-02-26_11h25.29.978,comp,2024.2.4,56.507055460201386,2025-02-26 11h25.43.179759 -0500,
73,73,0,critical,hwd,35.0,4.0,lower,133.0,57.0,57.0,133.0,70.0,70.0,2,3.690049648284912,None,,,,,0,0,0,0,0,73,73,100,511.09055495262146,,,,,,,,,,,,,,,,,,,,,,,,,,,,,,,,,,,,,,,,,,,,,,,,,,,,,,,,,,,,,,,,,,,,,,,,,,,,,,,,,133.0,57.0,57.0,133.0,70.0,70.0,4.0,4.2,-191,1,0,-257,198,-4,511.07763385772705,511.0777189731598,511.0812621116638,511.09055495262146,511.24864387512207,511.24864387512207,511.24864387512207,511.24864387512207,511.24864387512207,511.24864387512207,511.24864387512207,514.7862215042114,2,3.690049648284912,None,,,,,,,,,,,,,,,,,,122,1,2025-02-26_11h25.29.978,comp,2024.2.4,56.507055460201386,2025-02-26 11h25.43.179759 -0500,
74,74,0,filler_random,None,None,None,None,None,None,None,None,None,None,1,1.8953068256378174,None,,,,,0,0,0,0,0,74,74,136,514.8053770065308,,,,,,,,,,,,,,,,,,,,,,,,,,,,,,,,,,,,,,,,,,,,,,,,,,,,,,,,,,,,,,,,,,,,,,,,,,,,,,,,,158.718086274665,135.0272287148091,86.76716098665166,130.5765502678439,73.52794286618594,177.6154213397475,2.1,2.11,-229,258,0,287,250,-289,514.7880005836487,514.788081407547,514.7910196781158,514.8053770065308,514.9450781345367,514.9450781345367,514.9450781345367,514.9450781345367,514.9450781345367,514.9450781345367,514.9450781345367,516.7122275829315,1,1.8953068256378174,None,,,,,,,,,,,,,,,,,,122,1,2025-02-26_11h25.29.978,comp,2024.2.4,56.507055460201386,2025-02-26 11h25.43.179759 -0500,
75,75,0,filler_random,None,None,None,None,None,None,None,None,None,None,3,1.1795756816864014,None,,,,,0,0,0,0,0,75,75,154,516.7292501926422,,,,,,,,,,,,,,,,,,,,,,,,,,,,,,,,,,,,,,,,,,,,,,,,,,,,,,,,,,,,,,,,,,,,,,,,,,,,,,,,,148.24690781310755,91.00930608179533,106.33527876716498,60.10257544988435,188.0249656076914,121.61586691965363,3.0,3.2,-172,-259,0,-20,187,257,516.7140951156616,516.714271068573,516.7182369232178,516.7292501926422,516.8799698352814,516.8799698352814,516.8799698352814,516.8799698352814,516.8799698352814,516.8799698352814,516.8799698352814,517.9142692089081,3,1.1795756816864014,None,,,,,,,,,,,,,,,,,,122,1,2025-02-26_11h25.29.978,comp,2024.2.4,56.507055460201386,2025-02-26 11h25.43.179759 -0500,
76,76,0,filler_square,None,None,None,None,None,None,None,None,None,None,3,1.1854643821716309,None,,,,,0,0,0,0,0,76,76,207,517.9309916496277,,,,,,,,,,,,,,,,,,,,,,,,,,,,,,,,,,,,,,,,,,,,,,,,,,,,,,,,,,,,,,,,,,,,,,,,,,,,,,,,,83.45135655728642,139.05748439347565,136.97893084865728,83.3308645648867,141.09278129295922,141.09278129295922,4.0,4.1,-207,-253,0,11,208,-288,517.9164764881134,517.9165630340576,517.919970035553,517.9309916496277,518.0782854557037,518.0782854557037,518.0782854557037,518.0782854557037,518.0782854557037,518.0782854557037,518.0782854557037,519.1275546550751,3,1.1854643821716309,None,,,,,,,,,,,,,,,,,,122,1,2025-02-26_11h25.29.978,comp,2024.2.4,56.507055460201386,2025-02-26 11h25.43.179759 -0500,
77,77,0,critical,wdh,20.0,2.1,upper,125.0,200.0,141.0,141.0,200.0,125.0,3,4.268266916275024,None,,,,,0,0,0,0,0,77,77,11,519.1441552639008,,,,,,,,,,,,,,,,,,,,,,,,,,,,,,,,,,,,,,,,,,,,,,,,,,,,,,,,,,,,,,,,,,,,,,,,,,,,,,,,,125.0,200.0,141.0,141.0,200.0,125.0,2.1,2.11,-266,282,0,270,229,-272,519.1292059421539,519.12930727005,519.1324872970581,519.1441552639008,519.2976298332214,519.2976298332214,519.2976298332214,519.2976298332214,519.2976298332214,519.2976298332214,519.2976298332214,523.4311666488647,3,4.268266916275024,None,,,,,,,,,,,,,,,,,,122,1,2025-02-26_11h25.29.978,comp,2024.2.4,56.507055460201386,2025-02-26 11h25.43.179759 -0500,
78,78,0,filler_random,None,None,None,None,None,None,None,None,None,None,2,1.7291741371154785,None,,,,,0,0,0,0,0,78,78,142,523.4518010616302,,,,,,,,,,,,,,,,,,,,,,,,,,,,,,,,,,,,,,,,,,,,,,,,,,,,,,,,,,,,,,,,,,,,,,,,,,,,,,,,,194.1148261943302,98.00125482512149,159.11899905321934,180.74933626536892,76.90418348541198,161.7915149662718,2.2,2.22,-235,277,0,-258,267,-266,523.4330968856812,523.4332058429718,523.4364635944366,523.4518010616302,523.5977818965912,523.5977818965912,523.5977818965912,523.5977818965912,523.5977818965912,523.5977818965912,523.5977818965912,525.1849873065948,2,1.7291741371154785,None,,,,,,,,,,,,,,,,,,122,1,2025-02-26_11h25.29.978,comp,2024.2.4,56.507055460201386,2025-02-26 11h25.43.179759 -0500,
79,79,0,critical,hwd,35.0,2.1,lower,133.0,57.0,57.0,133.0,70.0,70.0,2,2.131796360015869,None,,,,,0,0,0,0,0,79,79,40,525.2011942863464,,,,,,,,,,,,,,,,,,,,,,,,,,,,,,,,,,,,,,,,,,,,,,,,,,,,,,,,,,,,,,,,,,,,,,,,,,,,,,,,,133.0,57.0,57.0,133.0,70.0,70.0,2.1,2.12,-191,-254,0,-270,198,261,525.1865448951721,525.1866230964661,525.1895287036896,525.2011942863464,525.3452343940735,525.3452343940735,525.3452343940735,525.3452343940735,525.3452343940735,525.3452343940735,525.3452343940735,527.3428938388824,2,2.131796360015869,None,,,,,,,,,,,,,,,,,,122,1,2025-02-26_11h25.29.978,comp,2024.2.4,56.507055460201386,2025-02-26 11h25.43.179759 -0500,
80,80,0,critical,wdh,35.0,2.1,lower,57.0,133.0,70.0,70.0,133.0,57.0,1,3.1159565448760986,None,,,,,0,0,0,0,0,80,80,8,527.3614494800568,,,,,,,,,,,,,,,,,,,,,,,,,,,,,,,,,,,,,,,,,,,,,,,,,,,,,,,,,,,,,,,,,,,,,,,,,,,,,,,,,57.0,133.0,70.0,70.0,133.0,57.0,2.1,2.12,-198,-259,0,-263,160,273,527.3445084095001,527.344587802887,527.3474922180176,527.3614494800568,527.497209072113,527.497209072113,527.497209072113,527.497209072113,527.497209072113,527.497209072113,527.497209072113,530.4865226745605,1,3.1159565448760986,None,,,,,,,,,,,,,,,,,,122,1,2025-02-26_11h25.29.978,comp,2024.2.4,56.507055460201386,2025-02-26 11h25.43.179759 -0500,
81,81,0,filler_square,None,None,None,None,None,None,None,None,None,None,1,1.1334853172302246,None,,,,,0,0,0,0,0,81,81,193,530.5029854774475,,,,,,,,,,,,,,,,,,,,,,,,,,,,,,,,,,,,,,,,,,,,,,,,,,,,,,,,,,,,,,,,,,,,,,,,,,,,,,,,,191.62127440354615,191.62127440354615,79.9346549943624,112.30093704515171,137.2530351586742,181.28100814086565,1.0,1.2,-248,-10,0,9,243,5,530.4884555339813,530.4885482788086,530.4919919967651,530.5029854774475,530.6497611999512,530.6497611999512,530.6497611999512,530.6497611999512,530.6497611999512,530.6497611999512,530.6497611999512,531.6482584476471,1,1.1334853172302246,None,,,,,,,,,,,,,,,,,,122,1,2025-02-26_11h25.29.978,comp,2024.2.4,56.507055460201386,2025-02-26 11h25.43.179759 -0500,
82,82,0,filler_square,None,None,None,None,None,None,None,None,None,None,2,4.4897301197052,None,,,,,0,0,0,0,0,82,82,178,531.666741847992,,,,,,,,,,,,,,,,,,,,,,,,,,,,,,,,,,,,,,,,,,,,,,,,,,,,,,,,,,,,,,,,,,,,,,,,,,,,,,,,,111.06285287658324,106.13386177415921,115.28352485971546,115.28352485971546,112.62245117665256,102.52782557471907,4.0,4.1,-207,-263,0,18,205,-257,531.6499598026276,531.6500396728516,531.653398513794,531.666741847992,531.8040490150452,531.8040490150452,531.8040490150452,531.8040490150452,531.8040490150452,531.8040490150452,531.8040490150452,536.17453956604,2,4.4897301197052,None,,,,,,,,,,,,,,,,,,122,1,2025-02-26_11h25.29.978,comp,2024.2.4,56.507055460201386,2025-02-26 11h25.43.179759 -0500,
83,83,0,critical,dhw,20.0,2.1,upper,141.0,141.0,200.0,125.0,125.0,200.0,2,31.868309497833252,None,,,,,0,0,0,0,0,83,83,27,536.1922135353088,,,,,,,,,,,,,,,,,,,,,,,,,,,,,,,,,,,,,,,,,,,,,,,,,,,,,,,,,,,,,,,,,,,,,,,,,,,,,,,,,141.0,141.0,200.0,125.0,125.0,200.0,2.1,2.12,-229,-289,0,-260,258,281,536.1760783195496,536.1761898994446,536.1791019439697,536.1922135353088,536.3353493213654,536.3353493213654,536.3353493213654,536.3353493213654,536.3353493213654,536.3353493213654,536.3353493213654,568.0626702308655,2,31.868309497833252,None,,,,,,,,,,,,,,,,,,122,1,2025-02-26_11h25.29.978,comp,2024.2.4,56.507055460201386,2025-02-26 11h25.43.179759 -0500,
84,84,0,critical,wdh,35.0,2.1,lower,57.0,133.0,70.0,70.0,133.0,57.0,1,3.2775540351867676,None,,,,,0,0,0,0,0,84,84,32,568.079042673111,,,,,,,,,,,,,,,,,,,,,,,,,,,,,,,,,,,,,,,,,,,,,,,,,,,,,,,,,,,,,,,,,,,,,,,,,,,,,,,,,57.0,133.0,70.0,70.0,133.0,57.0,2.1,2.11,-198,276,0,266,160,-252,568.0648467540741,568.0650074481964,568.0682384967804,568.079042673111,568.2266647815704,568.2266647815704,568.2266647815704,568.2266647815704,568.2266647815704,568.2266647815704,568.2266647815704,571.3722422122955,1,3.2775540351867676,None,,,,,,,,,,,,,,,,,,122,1,2025-02-26_11h25.29.978,comp,2024.2.4,56.507055460201386,2025-02-26 11h25.43.179759 -0500,
85,85,0,critical,hdw,35.0,2.1,lower,133.0,57.0,70.0,70.0,57.0,133.0,1,12.472151279449463,None,,,,,0,0,0,0,0,85,85,20,571.3887431621552,,,,,,,,,,,,,,,,,,,,,,,,,,,,,,,,,,,,,,,,,,,,,,,,,,,,,,,,,,,,,,,,,,,,,,,,,,,,,,,,,133.0,57.0,70.0,70.0,57.0,133.0,2.1,2.12,-160,-255,0,-272,198,253,571.3738532066345,571.3739671707153,571.3772857189178,571.3887431621552,571.5257215499878,571.5257215499878,571.5257215499878,571.5257215499878,571.5257215499878,571.5257215499878,571.5257215499878,583.8645329475403,1,12.472151279449463,None,,,,,,,,,,,,,,,,,,122,1,2025-02-26_11h25.29.978,comp,2024.2.4,56.507055460201386,2025-02-26 11h25.43.179759 -0500,
86,86,0,catch,None,None,None,None,None,None,None,None,None,None,1,1.0110762119293213,None,,,,,0,0,0,0,0,86,86,123,583.8819556236267,,,,,,,,,,,,,,,,,,,,,,,,,,,,,,,,,,,,,,,,,,,,,,,,,,,,,,,,,,,,,,,,,,,,,,,,,,,,,,,,,170,155,108,82,77,113,1.0,1.1,-694,256,-480,266,-286,255,583.8667180538177,583.8668005466461,583.8701591491699,583.8819556236267,584.0321636199951,584.0321636199951,584.0321636199951,584.0321636199951,584.0321636199951,584.0321636199951,584.0321636199951,584.8981618881226,1,1.0110762119293213,None,,,,,,,,,,,,,,,,,,122,1,2025-02-26_11h25.29.978,comp,2024.2.4,56.507055460201386,2025-02-26 11h25.43.179759 -0500,
87,87,0,filler_random,None,None,None,None,None,None,None,None,None,None,2,0.9131951332092285,None,,,,,0,0,0,0,0,87,87,146,584.9153070449829,,,,,,,,,,,,,,,,,,,,,,,,,,,,,,,,,,,,,,,,,,,,,,,,,,,,,,,,,,,,,,,,,,,,,,,,,,,,,,,,,74.38642266357908,61.23697972805475,132.6699919685331,104.06309860872375,62.855704541103734,117.83105730880206,1.0,1.1,-659,260,-480,280,-273,268,584.8998780250549,584.8999578952789,584.9030413627625,584.9153070449829,585.0662920475006,585.0662920475006,585.0662920475006,585.0662920475006,585.0662920475006,585.0662920475006,585.0662920475006,585.841100692749,2,0.9131951332092285,None,,,,,,,,,,,,,,,,,,122,1,2025-02-26_11h25.29.978,comp,2024.2.4,56.507055460201386,2025-02-26 11h25.43.179759 -0500,
88,88,0,critical,dhw,20.0,3.0,upper,141.0,141.0,200.0,125.0,125.0,200.0,3,4.200217247009277,None,,,,,0,0,0,0,0,88,88,57,585.860906124115,,,,,,,,,,,,,,,,,,,,,,,,,,,,,,,,,,,,,,,,,,,,,,,,,,,,,,,,,,,,,,,,,,,,,,,,,,,,,,,,,141.0,141.0,200.0,125.0,125.0,200.0,3.0,3.1,-229,276,0,1,258,-268,585.8427264690399,585.8428204059601,585.8461654186249,585.860906124115,586.009738445282,586.009738445282,586.009738445282,586.009738445282,586.009738445282,586.009738445282,586.009738445282,590.0652656555176,3,4.200217247009277,None,,,,,,,,,,,,,,,,,,122,1,2025-02-26_11h25.29.978,comp,2024.2.4,56.507055460201386,2025-02-26 11h25.43.179759 -0500,
89,89,0,filler_square,None,None,None,None,None,None,None,None,None,None,2,2.2039778232574463,None,,,,,0,0,0,0,0,89,89,180,590.0807774066925,,,,,,,,,,,,,,,,,,,,,,,,,,,,,,,,,,,,,,,,,,,,,,,,,,,,,,,,,,,,,,,,,,,,,,,,,,,,,,,,,81.55474936612904,59.580324223701474,93.92335387312556,93.92335387312556,73.86514837346415,89.56192889794394,4.0,4.1,-173,-264,0,3,188,-263,590.0669465065002,590.0670244693756,590.0698912143707,590.0807774066925,590.2210042476654,590.2210042476654,590.2210042476654,590.2210042476654,590.2210042476654,590.2210042476654,590.2210042476654,592.2913398742676,2,2.2039778232574463,None,,,,,,,,,,,,,,,,,,122,1,2025-02-26_11h25.29.978,comp,2024.2.4,56.507055460201386,2025-02-26 11h25.43.179759 -0500,
90,90,0,filler_random,None,None,None,None,None,None,None,None,None,None,1,6.806006669998169,None,,,,,0,0,0,0,0,90,90,130,592.3111560344696,,,,,,,,,,,,,,,,,,,,,,,,,,,,,,,,,,,,,,,,,,,,,,,,,,,,,,,,,,,,,,,,,,,,,,,,,,,,,,,,,126.86362256980779,127.03035878887695,137.9094658641148,87.37432937096773,162.346428432013,92.5585579438737,2.2,2.21,-203,-282,0,281,186,256,592.2929856777191,592.2930657863617,592.2959368228912,592.3111560344696,592.4515941143036,592.4515941143036,592.4515941143036,592.4515941143036,592.4515941143036,592.4515941143036,592.4515941143036,599.1216201782227,1,6.806006669998169,None,,,,,,,,,,,,,,,,,,122,1,2025-02-26_11h25.29.978,comp,2024.2.4,56.507055460201386,2025-02-26 11h25.43.179759 -0500,
91,91,0,critical,wdh,20.0,1.0,upper,125.0,200.0,141.0,141.0,200.0,125.0,3,3.9546279907226562,None,,,,,0,0,0,0,0,91,91,79,599.1380860805511,,,,,,,,,,,,,,,,,,,,,,,,,,,,,,,,,,,,,,,,,,,,,,,,,,,,,,,,,,,,,,,,,,,,,,,,,,,,,,,,,125.0,200.0,141.0,141.0,200.0,125.0,1.0,1.1,-746,257,-480,251,-251,251,599.1232471466064,599.1234004497528,599.1272296905518,599.1380860805511,599.2869002819061,599.2869002819061,599.2869002819061,599.2869002819061,599.2869002819061,599.2869002819061,599.2869002819061,603.106940984726,3,3.9546279907226562,None,,,,,,,,,,,,,,,,,,122,1,2025-02-26_11h25.29.978,comp,2024.2.4,56.507055460201386,2025-02-26 11h25.43.179759 -0500,
92,92,0,critical,hwd,20.0,2.1,lower,133.0,57.0,57.0,133.0,78.0,78.0,2,2.6740097999572754,None,,,,,0,0,0,0,0,92,92,42,603.1229350566864,,,,,,,,,,,,,,,,,,,,,,,,,,,,,,,,,,,,,,,,,,,,,,,,,,,,,,,,,,,,,,,,,,,,,,,,,,,,,,,,,133.0,57.0,57.0,133.0,78.0,78.0,2.1,2.11,-191,268,0,267,202,-280,603.1086075305939,603.1086893081665,603.1125836372375,603.1229350566864,603.2720139026642,603.2720139026642,603.2720139026642,603.2720139026642,603.2720139026642,603.2720139026642,603.2720139026642,605.8176920413971,2,2.6740097999572754,None,,,,,,,,,,,,,,,,,,122,1,2025-02-26_11h25.29.978,comp,2024.2.4,56.507055460201386,2025-02-26 11h25.43.179759 -0500,
93,93,0,critical,hwd,20.0,1.0,upper,200.0,125.0,125.0,200.0,141.0,141.0,1,1.5669314861297607,None,,,,,0,0,0,0,0,93,93,103,605.8375976085663,,,,,,,,,,,,,,,,,,,,,,,,,,,,,,,,,,,,,,,,,,,,,,,,,,,,,,,,,,,,,,,,,,,,,,,,,,,,,,,,,200.0,125.0,125.0,200.0,141.0,141.0,1.0,1.3,222,-289,480,-265,746,-283,605.8192789554596,605.8193590641022,605.8222959041595,605.8375976085663,605.9722185134888,605.9722185134888,605.9722185134888,605.9722185134888,605.9722185134888,605.9722185134888,605.9722185134888,607.4073729515076,1,1.5669314861297607,None,,,,,,,,,,,,,,,,,,122,1,2025-02-26_11h25.29.978,comp,2024.2.4,56.507055460201386,2025-02-26 11h25.43.179759 -0500,
94,94,0,critical,dwh,20.0,3.0,lower,78.0,78.0,57.0,133.0,133.0,57.0,2,2.437100410461426,None,,,,,0,0,0,0,0,94,94,68,607.4235949516296,,,,,,,,,,,,,,,,,,,,,,,,,,,,,,,,,,,,,,,,,,,,,,,,,,,,,,,,,,,,,,,,,,,,,,,,,,,,,,,,,78.0,78.0,57.0,133.0,133.0,57.0,3.0,3.1,-202,270,0,-10,191,-274,607.4088649749756,607.408942937851,607.4128632545471,607.4235949516296,607.5729277133942,607.5729277133942,607.5729277133942,607.5729277133942,607.5729277133942,607.5729277133942,607.5729277133942,609.8738961219788,2,2.437100410461426,None,,,,,,,,,,,,,,,,,,122,1,2025-02-26_11h25.29.978,comp,2024.2.4,56.507055460201386,2025-02-26 11h25.43.179759 -0500,
95,95,0,critical,dhw,35.0,1.0,lower,70.0,70.0,133.0,57.0,57.0,133.0,3,2.05141544342041,None,,,,,0,0,0,0,0,95,95,48,609.889422416687,,,,,,,,,,,,,,,,,,,,,,,,,,,,,,,,,,,,,,,,,,,,,,,,,,,,,,,,,,,,,,,,,,,,,,,,,,,,,,,,,70.0,70.0,133.0,57.0,57.0,133.0,1.0,1.3,320,-272,480,-264,671,-272,609.8754403591156,609.8755171298981,609.8789799213409,609.889422416687,610.0376133918762,610.0376133918762,610.0376133918762,610.0376133918762,610.0376133918762,610.0376133918762,610.0376133918762,611.943708896637,3,2.05141544342041,None,,,,,,,,,,,,,,,,,,122,1,2025-02-26_11h25.29.978,comp,2024.2.4,56.507055460201386,2025-02-26 11h25.43.179759 -0500,
96,96,0,filler_square,None,None,None,None,None,None,None,None,None,None,1,2.113746166229248,None,,,,,0,0,0,0,0,96,96,190,611.9628641605377,,,,,,,,,,,,,,,,,,,,,,,,,,,,,,,,,,,,,,,,,,,,,,,,,,,,,,,,,,,,,,,,,,,,,,,,,,,,,,,,,149.24542874305706,149.24542874305706,140.73755546474132,130.8710029428321,104.99545244349504,66.66739693492461,3.0,3.1,-236,261,0,-13,195,-279,611.9456932544708,611.945773601532,611.9486577510834,611.9628641605377,612.1077327728271,612.1077327728271,612.1077327728271,612.1077327728271,612.1077327728271,612.1077327728271,612.1077327728271,614.0916635990143,1,2.113746166229248,None,,,,,,,,,,,,,,,,,,122,1,2025-02-26_11h25.29.978,comp,2024.2.4,56.507055460201386,2025-02-26 11h25.43.179759 -0500,
97,97,0,critical,whd,35.0,1.0,lower,57.0,133.0,133.0,57.0,70.0,70.0,1,1.7530646324157715,None,,,,,0,0,0,0,0,97,97,84,614.1075973510742,,,,,,,,,,,,,,,,,,,,,,,,,,,,,,,,,,,,,,,,,,,,,,,,,,,,,,,,,,,,,,,,,,,,,,,,,,,,,,,,,57.0,133.0,133.0,57.0,70.0,70.0,1.0,1.3,289,-277,480,-265,640,-270,614.0931711196899,614.0932474136353,614.0972280502319,614.1075973510742,614.2590365409851,614.2590365409851,614.2590365409851,614.2590365409851,614.2590365409851,614.2590365409851,614.2590365409851,615.8755156993866,1,1.7530646324157715,None,,,,,,,,,,,,,,,,,,122,1,2025-02-26_11h25.29.978,comp,2024.2.4,56.507055460201386,2025-02-26 11h25.43.179759 -0500,
98,98,0,critical,whd,20.0,3.0,lower,57.0,133.0,133.0,57.0,78.0,78.0,1,2.4733145236968994,None,,,,,0,0,0,0,0,98,98,92,615.8913154602051,,,,,,,,,,,,,,,,,,,,,,,,,,,,,,,,,,,,,,,,,,,,,,,,,,,,,,,,,,,,,,,,,,,,,,,,,,,,,,,,,57.0,133.0,133.0,57.0,78.0,78.0,3.0,3.2,-191,-250,0,-4,164,288,615.8769466876984,615.8770241737366,615.8810153007507,615.8913154602051,616.043803691864,616.043803691864,616.043803691864,616.043803691864,616.043803691864,616.043803691864,616.043803691864,618.3759980201721,1,2.4733145236968994,None,,,,,,,,,,,,,,,,,,122,1,2025-02-26_11h25.29.978,comp,2024.2.4,56.507055460201386,2025-02-26 11h25.43.179759 -0500,
99,99,0,critical,hwd,35.0,3.0,lower,133.0,57.0,57.0,133.0,70.0,70.0,2,1.190821886062622,None,,,,,0,0,0,0,0,99,99,98,618.3905770778656,,,,,,,,,,,,,,,,,,,,,,,,,,,,,,,,,,,,,,,,,,,,,,,,,,,,,,,,,,,,,,,,,,,,,,,,,,,,,,,,,133.0,57.0,57.0,133.0,70.0,70.0,3.0,3.2,-191,-253,0,18,198,278,618.377610206604,618.3776907920837,618.3808779716492,618.3905770778656,618.5299000740051,618.5299000740051,618.5299000740051,618.5299000740051,618.5299000740051,618.5299000740051,618.5299000740051,619.5956704616547,2,1.190821886062622,None,,,,,,,,,,,,,,,,,,122,1,2025-02-26_11h25.29.978,comp,2024.2.4,56.507055460201386,2025-02-26 11h25.43.179759 -0500,
100,100,0,critical,dhw,35.0,3.0,upper,127.0,127.0,200.0,125.0,125.0,200.0,3,2.7454404830932617,None,,,,,0,0,0,0,0,100,100,51,619.6116623878479,,,,,,,,,,,,,,,,,,,,,,,,,,,,,,,,,,,,,,,,,,,,,,,,,,,,,,,,,,,,,,,,,,,,,,,,,,,,,,,,,127.0,127.0,200.0,125.0,125.0,200.0,3.0,3.1,-222,263,0,4,258,-288,619.5972952842712,619.5973773002625,619.6004657745361,619.6116623878479,619.7590262889862,619.7590262889862,619.7590262889862,619.7590262889862,619.7590262889862,619.7590262889862,619.7590262889862,622.3601408004761,3,2.7454404830932617,None,,,,,,,,,,,,,,,,,,122,1,2025-02-26_11h25.29.978,comp,2024.2.4,56.507055460201386,2025-02-26 11h25.43.179759 -0500,
101,101,0,filler_square,None,None,None,None,None,None,None,None,None,None,3,3.7196743488311768,None,,,,,0,0,0,0,0,101,101,177,622.3810613155365,,,,,,,,,,,,,,,,,,,,,,,,,,,,,,,,,,,,,,,,,,,,,,,,,,,,,,,,,,,,,,,,,,,,,,,,,,,,,,,,,77.63000172473045,116.47120435247335,80.28086147707701,133.86301541526836,141.87258062303752,141.87258062303752,3.0,3.1,-221,265,0,-9,234,-283,622.361914396286,622.3619940280914,622.3652513027191,622.3810613155365,622.5278074741364,622.5278074741364,622.5278074741364,622.5278074741364,622.5278074741364,622.5278074741364,622.5278074741364,626.110969543457,3,3.7196743488311768,None,,,,,,,,,,,,,,,,,,122,1,2025-02-26_11h25.29.978,comp,2024.2.4,56.507055460201386,2025-02-26 11h25.43.179759 -0500,
102,102,0,critical,dwh,35.0,1.0,lower,70.0,70.0,57.0,133.0,133.0,57.0,2,1.395432949066162,None,,,,,0,0,0,0,0,102,102,60,626.129724740982,,,,,,,,,,,,,,,,,,,,,,,,,,,,,,,,,,,,,,,,,,,,,,,,,,,,,,,,,,,,,,,,,,,,,,,,,,,,,,,,,70.0,70.0,57.0,133.0,133.0,57.0,1.0,1.2,-198,8,0,4,191,10,626.1124565601349,626.112535238266,626.1157763004303,626.129724740982,626.2835001945496,626.2835001945496,626.2835001945496,626.2835001945496,626.2835001945496,626.2835001945496,626.2835001945496,627.5282597541809,2,1.395432949066162,None,,,,,,,,,,,,,,,,,,122,1,2025-02-26_11h25.29.978,comp,2024.2.4,56.507055460201386,2025-02-26 11h25.43.179759 -0500,
103,103,0,filler_random,None,None,None,None,None,None,None,None,None,None,3,2.281358480453491,None,,,,,0,0,0,0,0,103,103,131,627.5479719638824,,,,,,,,,,,,,,,,,,,,,,,,,,,,,,,,,,,,,,,,,,,,,,,,,,,,,,,,,,,,,,,,,,,,,,,,,,,,,,,,,71.0895649438438,165.02582155692443,111.05959068744406,80.6299655191053,73.56137458491484,195.42965690623464,1.0,1.1,-699,261,-480,251,-246,265,627.529896736145,627.5299739837646,627.5330011844635,627.5479719638824,627.6959521770477,627.6959521770477,627.6959521770477,627.6959521770477,627.6959521770477,627.6959521770477,627.6959521770477,629.8367416858673,3,2.281358480453491,None,,,,,,,,,,,,,,,,,,122,1,2025-02-26_11h25.29.978,comp,2024.2.4,56.507055460201386,2025-02-26 11h25.43.179759 -0500,
104,104,0,critical,whd,35.0,2.1,lower,57.0,133.0,133.0,57.0,70.0,70.0,1,2.6701014041900635,None,,,,,0,0,0,0,0,104,104,12,629.8554680347443,,,,,,,,,,,,,,,,,,,,,,,,,,,,,,,,,,,,,,,,,,,,,,,,,,,,,,,,,,,,,,,,,,,,,,,,,,,,,,,,,57.0,133.0,133.0,57.0,70.0,70.0,2.1,2.12,-191,-261,0,-270,160,263,629.8382842540741,629.8383677005768,629.8413083553314,629.8554680347443,629.9985241889954,629.9985241889954,629.9985241889954,629.9985241889954,629.9985241889954,629.9985241889954,629.9985241889954,632.5320467948914,1,2.6701014041900635,None,,,,,,,,,,,,,,,,,,122,1,2025-02-26_11h25.29.978,comp,2024.2.4,56.507055460201386,2025-02-26 11h25.43.179759 -0500,
105,105,0,critical,hdw,35.0,2.1,upper,200.0,125.0,127.0,127.0,125.0,200.0,3,2.0961532592773438,None,,,,,0,0,0,0,0,105,105,21,632.5484886169434,,,,,,,,,,,,,,,,,,,,,,,,,,,,,,,,,,,,,,,,,,,,,,,,,,,,,,,,,,,,,,,,,,,,,,,,,,,,,,,,,200.0,125.0,127.0,127.0,125.0,200.0,2.1,2.12,-222,-278,0,-258,260,287,632.5335845947266,632.5336637496948,632.5373299121857,632.5484886169434,632.6984448432922,632.6984448432922,632.6984448432922,632.6984448432922,632.6984448432922,632.6984448432922,632.6984448432922,634.6482644081116,3,2.0961532592773438,None,,,,,,,,,,,,,,,,,,122,1,2025-02-26_11h25.29.978,comp,2024.2.4,56.507055460201386,2025-02-26 11h25.43.179759 -0500,
106,106,0,filler_square,None,None,None,None,None,None,None,None,None,None,1,1.748314619064331,None,,,,,0,0,0,0,0,106,106,189,634.6646075248718,,,,,,,,,,,,,,,,,,,,,,,,,,,,,,,,,,,,,,,,,,,,,,,,,,,,,,,,,,,,,,,,,,,,,,,,,,,,,,,,,83.67617740168849,83.67617740168849,60.287636989794215,75.58468814406368,70.34469210615224,78.30915732148691,4.0,4.1,-176,-252,0,-14,173,-274,634.6500625610352,634.650190114975,634.6536238193512,634.6646075248718,634.8188779354095,634.8188779354095,634.8188779354095,634.8188779354095,634.8188779354095,634.8188779354095,634.8188779354095,636.4150042533875,1,1.748314619064331,None,,,,,,,,,,,,,,,,,,122,1,2025-02-26_11h25.29.978,comp,2024.2.4,56.507055460201386,2025-02-26 11h25.43.179759 -0500,
107,107,0,critical,whd,35.0,2.1,lower,57.0,133.0,133.0,57.0,70.0,70.0,1,1.3805036544799805,None,,,,,0,0,0,0,0,107,107,36,636.4321622848511,,,,,,,,,,,,,,,,,,,,,,,,,,,,,,,,,,,,,,,,,,,,,,,,,,,,,,,,,,,,,,,,,,,,,,,,,,,,,,,,,57.0,133.0,133.0,57.0,70.0,70.0,2.1,2.12,-191,-270,0,-289,160,256,636.4166250228882,636.4167368412018,636.4202358722687,636.4321622848511,636.5823662281036,636.5823662281036,636.5823662281036,636.5823662281036,636.5823662281036,636.5823662281036,636.5823662281036,637.823117017746,1,1.3805036544799805,None,,,,,,,,,,,,,,,,,,122,1,2025-02-26_11h25.29.978,comp,2024.2.4,56.507055460201386,2025-02-26 11h25.43.179759 -0500,
108,108,0,critical,hdw,35.0,2.1,lower,133.0,57.0,70.0,70.0,57.0,133.0,3,1.606186866760254,None,,,,,0,0,0,0,0,108,108,44,637.8384435176849,,,,,,,,,,,,,,,,,,,,,,,,,,,,,,,,,,,,,,,,,,,,,,,,,,,,,,,,,,,,,,,,,,,,,,,,,,,,,,,,,133.0,57.0,70.0,70.0,57.0,133.0,2.1,2.11,-160,252,0,261,198,-255,637.8246312141418,637.824711561203,637.8275897502899,637.8384435176849,637.9888904094696,637.9888904094696,637.9888904094696,637.9888904094696,637.9888904094696,637.9888904094696,637.9888904094696,639.4548058509827,3,1.606186866760254,None,,,,,,,,,,,,,,,,,,122,1,2025-02-26_11h25.29.978,comp,2024.2.4,56.507055460201386,2025-02-26 11h25.43.179759 -0500,
109,109,0,filler_random,None,None,None,None,None,None,None,None,None,None,1,1.7021534442901611,None,,,,,0,0,0,0,0,109,109,168,639.471358537674,,,,,,,,,,,,,,,,,,,,,,,,,,,,,,,,,,,,,,,,,,,,,,,,,,,,,,,,,,,,,,,,,,,,,,,,,,,,,,,,,189.98711721572687,157.583006321313,139.74111015936066,88.15103403430254,79.31922763560927,81.99269129852964,4.0,4.1,-219,-281,0,-14,181,-264,639.4565532207489,639.4566373825073,639.460515499115,639.471358537674,639.6237063407898,639.6237063407898,639.6237063407898,639.6237063407898,639.6237063407898,639.6237063407898,639.6237063407898,641.184145450592,1,1.7021534442901611,None,,,,,,,,,,,,,,,,,,122,1,2025-02-26_11h25.29.978,comp,2024.2.4,56.507055460201386,2025-02-26 11h25.43.179759 -0500,
110,110,0,critical,hdw,20.0,2.1,lower,133.0,57.0,78.0,78.0,57.0,133.0,3,1.363661527633667,None,,,,,0,0,0,0,0,110,110,46,641.2009766101837,,,,,,,,,,,,,,,,,,,,,,,,,,,,,,,,,,,,,,,,,,,,,,,,,,,,,,,,,,,,,,,,,,,,,,,,,,,,,,,,,133.0,57.0,78.0,78.0,57.0,133.0,2.1,2.12,-164,-252,0,-281,202,267,641.1858789920807,641.1860084533691,641.1901037693024,641.2009766101837,641.3514158725739,641.3514158725739,641.3514158725739,641.3514158725739,641.3514158725739,641.3514158725739,641.3514158725739,642.5674569606781,3,1.363661527633667,None,,,,,,,,,,,,,,,,,,122,1,2025-02-26_11h25.29.978,comp,2024.2.4,56.507055460201386,2025-02-26 11h25.43.179759 -0500,
111,111,0,filler_square,None,None,None,None,None,None,None,None,None,None,3,2.3891143798828125,None,,,,,0,0,0,0,0,111,111,171,642.5843043327332,,,,,,,,,,,,,,,,,,,,,,,,,,,,,,,,,,,,,,,,,,,,,,,,,,,,,,,,,,,,,,,,,,,,,,,,,,,,,,,,,58.449434200112464,57.10542108403217,59.633245083076815,57.01278756301031,59.84655442659848,59.84655442659848,2.2,2.21,-153,-270,0,265,154,278,642.5693502426147,642.5694332122803,642.5735580921173,642.5843043327332,642.732711315155,642.732711315155,642.732711315155,642.732711315155,642.732711315155,642.732711315155,642.732711315155,644.9817757606506,3,2.3891143798828125,None,,,,,,,,,,,,,,,,,,122,1,2025-02-26_11h25.29.978,comp,2024.2.4,56.507055460201386,2025-02-26 11h25.43.179759 -0500,
112,112,0,filler_square,None,None,None,None,None,None,None,None,None,None,3,2.117903709411621,None,,,,,0,0,0,0,0,112,112,194,644.9992139339447,,,,,,,,,,,,,,,,,,,,,,,,,,,,,,,,,,,,,,,,,,,,,,,,,,,,,,,,,,,,,,,,,,,,,,,,,,,,,,,,,87.45929070155019,125.56948879140775,68.05494258272388,96.58373346394835,126.02750982259289,126.02750982259289,1.0,1.3,273,-273,480,-258,687,-261,644.9835510253906,644.9836311340332,644.9865260124207,644.9992139339447,645.1480190753937,645.1480190753937,645.1480190753937,645.1480190753937,645.1480190753937,645.1480190753937,645.1480190753937,647.1342828273773,3,2.117903709411621,None,,,,,,,,,,,,,,,,,,122,1,2025-02-26_11h25.29.978,comp,2024.2.4,56.507055460201386,2025-02-26 11h25.43.179759 -0500,
113,113,0,filler_random,None,None,None,None,None,None,None,None,None,None,1,1.5015604496002197,None,,,,,0,0,0,0,0,113,113,167,647.1510968208313,,,,,,,,,,,,,,,,,,,,,,,,,,,,,,,,,,,,,,,,,,,,,,,,,,,,,,,,,,,,,,,,,,,,,,,,,,,,,,,,,161.4899341449351,187.5377431323731,143.2713793426326,172.3282849805758,168.17211898340213,151.35265785314277,1.0,1.2,-276,-7,0,-16,258,10,647.1360528469086,647.1362221240997,647.1395998001099,647.1510968208313,647.2909469604492,647.2909469604492,647.2909469604492,647.2909469604492,647.2909469604492,647.2909469604492,647.2909469604492,648.6690666675568,1,1.5015604496002197,None,,,,,,,,,,,,,,,,,,122,1,2025-02-26_11h25.29.978,comp,2024.2.4,56.507055460201386,2025-02-26 11h25.43.179759 -0500,
114,114,0,filler_square,None,None,None,None,None,None,None,None,None,None,1,4.256727457046509,None,,,,,0,0,0,0,0,114,114,173,648.6840648651123,,,,,,,,,,,,,,,,,,,,,,,,,,,,,,,,,,,,,,,,,,,,,,,,,,,,,,,,,,,,,,,,,,,,,,,,,,,,,,,,,75.8599338959373,75.8599338959373,57.079719891166754,66.20160483762179,68.74147231550951,71.5204193034098,3.0,3.2,-167,-290,0,7,165,260,648.671213388443,648.6712927818298,648.6747574806213,648.6840648651123,648.8378701210022,648.8378701210022,648.8378701210022,648.8378701210022,648.8378701210022,648.8378701210022,648.8378701210022,652.9512667655945,1,4.256727457046509,None,,,,,,,,,,,,,,,,,,122,1,2025-02-26_11h25.29.978,comp,2024.2.4,56.507055460201386,2025-02-26 11h25.43.179759 -0500,
115,115,0,critical,dwh,20.0,2.1,upper,141.0,141.0,125.0,200.0,200.0,125.0,2,2.998265266418457,None,,,,,0,0,0,0,0,115,115,31,652.9672200679779,,,,,,,,,,,,,,,,,,,,,,,,,,,,,,,,,,,,,,,,,,,,,,,,,,,,,,,,,,,,,,,,,,,,,,,,,,,,,,,,,141.0,141.0,125.0,200.0,200.0,125.0,2.1,2.12,-266,-276,0,-271,258,283,652.9527757167816,652.9528534412384,652.9557650089264,652.9672200679779,653.1085169315338,653.1085169315338,653.1085169315338,653.1085169315338,653.1085169315338,653.1085169315338,653.1085169315338,655.9719772338867,2,2.998265266418457,None,,,,,,,,,,,,,,,,,,122,1,2025-02-26_11h25.29.978,comp,2024.2.4,56.507055460201386,2025-02-26 11h25.43.179759 -0500,
116,116,0,critical,hdw,35.0,4.0,lower,133.0,57.0,70.0,70.0,57.0,133.0,3,2.6081223487854004,None,,,,,0,0,0,0,0,116,116,112,655.9886860847473,,,,,,,,,,,,,,,,,,,,,,,,,,,,,,,,,,,,,,,,,,,,,,,,,,,,,,,,,,,,,,,,,,,,,,,,,,,,,,,,,133.0,57.0,70.0,70.0,57.0,133.0,4.0,4.2,-160,16,0,-255,198,-5,655.9734857082367,655.9735643863678,655.9767775535583,655.9886860847473,656.1409528255463,656.1409528255463,656.1409528255463,656.1409528255463,656.1409528255463,656.1409528255463,656.1409528255463,658.6064796447754,3,2.6081223487854004,None,,,,,,,,,,,,,,,,,,122,1,2025-02-26_11h25.29.978,comp,2024.2.4,56.507055460201386,2025-02-26 11h25.43.179759 -0500,
117,117,0,critical,hwd,35.0,2.1,upper,200.0,125.0,125.0,200.0,127.0,127.0,1,3.559044122695923,None,,,,,0,0,0,0,0,117,117,17,658.6223521232605,,,,,,,,,,,,,,,,,,,,,,,,,,,,,,,,,,,,,,,,,,,,,,,,,,,,,,,,,,,,,,,,,,,,,,,,,,,,,,,,,200.0,125.0,125.0,200.0,127.0,127.0,2.1,2.12,-258,-272,0,-282,260,283,658.6080732345581,658.6081840991974,658.611579656601,658.6223521232605,658.7718424797058,658.7718424797058,658.7718424797058,658.7718424797058,658.7718424797058,658.7718424797058,658.7718424797058,662.1891920566559,1,3.559044122695923,None,,,,,,,,,,,,,,,,,,122,1,2025-02-26_11h25.29.978,comp,2024.2.4,56.507055460201386,2025-02-26 11h25.43.179759 -0500,
118,118,0,filler_random,None,None,None,None,None,None,None,None,None,None,1,5.02692985534668,None,,,,,0,0,0,0,0,118,118,143,662.2102489471436,,,,,,,,,,,,,,,,,,,,,,,,,,,,,,,,,,,,,,,,,,,,,,,,,,,,,,,,,,,,,,,,,,,,,,,,,,,,,,,,,88.30770947362852,122.17253853748062,132.25821688215484,63.947899623572106,125.15027407927246,73.8034722520782,1.0,1.1,-669,264,-480,265,-315,269,662.190984249115,662.191064119339,662.1942682266235,662.2102489471436,662.3553605079651,662.3553605079651,662.3553605079651,662.3553605079651,662.3553605079651,662.3553605079651,662.3553605079651,667.2402789592743,1,5.02692985534668,None,,,,,,,,,,,,,,,,,,122,1,2025-02-26_11h25.29.978,comp,2024.2.4,56.507055460201386,2025-02-26 11h25.43.179759 -0500,
119,119,0,filler_square,None,None,None,None,None,None,None,None,None,None,2,2.2995376586914062,None,,,,,0,0,0,0,0,119,119,174,667.2576684951782,,,,,,,,,,,,,,,,,,,,,,,,,,,,,,,,,,,,,,,,,,,,,,,,,,,,,,,,,,,,,,,,,,,,,,,,,,,,,,,,,68.71264371271374,75.08962656072764,96.74051380078907,96.74051380078907,68.38380044947256,70.39280408878459,2.2,2.22,-182,254,0,-278,180,-280,667.2423243522644,667.2424039840698,667.245701789856,667.2576684951782,667.4047598838806,667.4047598838806,667.4047598838806,667.4047598838806,667.4047598838806,667.4047598838806,667.4047598838806,669.5602693557739,2,2.2995376586914062,None,,,,,,,,,,,,,,,,,,122,1,2025-02-26_11h25.29.978,comp,2024.2.4,56.507055460201386,2025-02-26 11h25.43.179759 -0500,
120,120,0,filler_random,None,None,None,None,None,None,None,None,None,None,1,1.6784014701843262,None,,,,,0,0,0,0,0,120,120,153,669.5769455432892,,,,,,,,,,,,,,,,,,,,,,,,,,,,,,,,,,,,,,,,,,,,,,,,,,,,,,,,,,,,,,,,,,,,,,,,,,,,,,,,,185.34907822651004,156.20416368258083,196.9079823713657,118.75244277090488,103.09616543831189,112.56790483843122,2.2,2.21,-233,-259,0,261,212,274,669.5622982978821,669.5623829364777,669.5660109519958,669.5769455432892,669.7260799407959,669.7260799407959,669.7260799407959,669.7260799407959,669.7260799407959,669.7260799407959,669.7260799407959,671.2619724273682,1,1.6784014701843262,None,,,,,,,,,,,,,,,,,,122,1,2025-02-26_11h25.29.978,comp,2024.2.4,56.507055460201386,2025-02-26 11h25.43.179759 -0500,
121,121,0,critical,hwd,35.0,3.0,upper,200.0,125.0,125.0,200.0,127.0,127.0,2,1.9017574787139893,None,,,,,0,0,0,0,0,121,121,99,671.2789614200592,,,,,,,,,,,,,,,,,,,,,,,,,,,,,,,,,,,,,,,,,,,,,,,,,,,,,,,,,,,,,,,,,,,,,,,,,,,,,,,,,200.0,125.0,125.0,200.0,127.0,127.0,3.0,3.2,-258,-251,0,-15,260,257,671.2636938095093,671.2638275623322,671.2680668830872,671.2789614200592,671.4282188415527,671.4282188415527,671.4282188415527,671.4282188415527,671.4282188415527,671.4282188415527,671.4282188415527,673.1834681034088,2,1.9017574787139893,None,,,,,,,,,,,,,,,,,,122,1,2025-02-26_11h25.29.978,comp,2024.2.4,56.507055460201386,2025-02-26 11h25.43.179759 -0500,
122,122,0,critical,dwh,35.0,4.0,lower,70.0,70.0,57.0,133.0,133.0,57.0,2,1.3395578861236572,None,,,,,0,0,0,0,0,122,122,64,673.201208114624,,,,,,,,,,,,,,,,,,,,,,,,,,,,,,,,,,,,,,,,,,,,,,,,,,,,,,,,,,,,,,,,,,,,,,,,,,,,,,,,,70.0,70.0,57.0,133.0,133.0,57.0,4.0,4.2,-198,-9,0,-282,191,-13,673.1849975585938,673.1850781440735,673.1879880428314,673.201208114624,673.344179391861,673.344179391861,673.344179391861,673.344179391861,673.344179391861,673.344179391861,673.344179391861,674.5563950538635,2,1.3395578861236572,None,,,,,,,,,,,,,,,,,,122,1,2025-02-26_11h25.29.978,comp,2024.2.4,56.507055460201386,2025-02-26 11h25.43.179759 -0500,
123,123,0,critical,dwh,35.0,2.1,upper,127.0,127.0,125.0,200.0,200.0,125.0,2,3.931997060775757,None,,,,,0,0,0,0,0,123,123,29,674.5766930580139,,,,,,,,,,,,,,,,,,,,,,,,,,,,,,,,,,,,,,,,,,,,,,,,,,,,,,,,,,,,,,,,,,,,,,,,,,,,,,,,,127.0,127.0,125.0,200.0,200.0,125.0,2.1,2.11,-260,259,0,289,258,-269,674.5579538345337,674.5580365657806,674.5609405040741,674.5766930580139,674.7110962867737,674.7110962867737,674.7110962867737,674.7110962867737,674.7110962867737,674.7110962867737,674.7110962867737,678.5226430892944,2,3.931997060775757,None,,,,,,,,,,,,,,,,,,122,1,2025-02-26_11h25.29.978,comp,2024.2.4,56.507055460201386,2025-02-26 11h25.43.179759 -0500,
124,124,0,critical,wdh,20.0,3.0,lower,57.0,133.0,78.0,78.0,133.0,57.0,1,1.7950119972229004,None,,,,,0,0,0,0,0,124,124,80,678.5377445220947,,,,,,,,,,,,,,,,,,,,,,,,,,,,,,,,,,,,,,,,,,,,,,,,,,,,,,,,,,,,,,,,,,,,,,,,,,,,,,,,,57.0,133.0,78.0,78.0,133.0,57.0,3.0,3.1,-202,260,0,9,164,-256,678.5241832733154,678.5242643356323,678.5272388458252,678.5377445220947,678.6799654960632,678.6799654960632,678.6799654960632,678.6799654960632,678.6799654960632,678.6799654960632,678.6799654960632,680.3475842475891,1,1.7950119972229004,None,,,,,,,,,,,,,,,,,,122,1,2025-02-26_11h25.29.978,comp,2024.2.4,56.507055460201386,2025-02-26 11h25.43.179759 -0500,
125,125,0,filler_random,None,None,None,None,None,None,None,None,None,None,2,3.097348690032959,None,,,,,0,0,0,0,0,125,125,166,680.3633744716644,,,,,,,,,,,,,,,,,,,,,,,,,,,,,,,,,,,,,,,,,,,,,,,,,,,,,,,,,,,,,,,,,,,,,,,,,,,,,,,,,128.56618913567024,195.0822196555615,179.25638538260495,168.3442898353,121.89100134993095,96.77651458777135,2.2,2.21,-278,-280,0,256,229,263,680.349408864975,680.3495380878448,680.352944612503,680.3633744716644,680.5123744010925,680.5123744010925,680.5123744010925,680.5123744010925,680.5123744010925,680.5123744010925,680.5123744010925,683.4643919467926,2,3.097348690032959,None,,,,,,,,,,,,,,,,,,122,1,2025-02-26_11h25.29.978,comp,2024.2.4,56.507055460201386,2025-02-26 11h25.43.179759 -0500,
126,126,0,critical,whd,20.0,2.1,upper,125.0,200.0,200.0,125.0,141.0,141.0,1,4.700291633605957,None,,,,,0,0,0,0,0,126,126,39,683.4800281524658,,,,,,,,,,,,,,,,,,,,,,,,,,,,,,,,,,,,,,,,,,,,,,,,,,,,,,,,,,,,,,,,,,,,,,,,,,,,,,,,,125.0,200.0,200.0,125.0,141.0,141.0,2.1,2.12,-258,-284,0,-253,229,258,683.4659600257874,683.4660403728485,683.4692471027374,683.4800281524658,683.6301975250244,683.6301975250244,683.6301975250244,683.6301975250244,683.6301975250244,683.6301975250244,683.6301975250244,688.1897797584534,1,4.700291633605957,None,,,,,,,,,,,,,,,,,,122,1,2025-02-26_11h25.29.978,comp,2024.2.4,56.507055460201386,2025-02-26 11h25.43.179759 -0500,
127,127,0,filler_random,None,None,None,None,None,None,None,None,None,None,1,2.0665338039398193,None,,,,,0,0,0,0,0,127,127,165,688.2025322914124,,,,,,,,,,,,,,,,,,,,,,,,,,,,,,,,,,,,,,,,,,,,,,,,,,,,,,,,,,,,,,,,,,,,,,,,,,,,,,,,,172.5991353795946,115.43682457071225,157.1618835594212,96.62102889153277,83.16810474192894,95.6913603034033,3.0,3.1,-202,274,0,-1,192,-290,688.1906538009644,688.1906929016113,688.1921372413635,688.2025322914124,688.3456881046295,688.3456881046295,688.3456881046295,688.3456881046295,688.3456881046295,688.3456881046295,688.3456881046295,690.2817621231079,1,2.0665338039398193,None,,,,,,,,,,,,,,,,,,122,1,2025-02-26_11h25.29.978,comp,2024.2.4,56.507055460201386,2025-02-26 11h25.43.179759 -0500,
128,128,0,critical,dwh,20.0,4.0,lower,78.0,78.0,57.0,133.0,133.0,57.0,2,1.0015625953674316,None,,,,,0,0,0,0,0,128,128,70,690.2991964817047,,,,,,,,,,,,,,,,,,,,,,,,,,,,,,,,,,,,,,,,,,,,,,,,,,,,,,,,,,,,,,,,,,,,,,,,,,,,,,,,,78.0,78.0,57.0,133.0,133.0,57.0,4.0,4.2,-202,11,0,-281,191,-20,690.2832760810852,690.2833566665649,690.2864921092987,690.2991964817047,690.4514815807343,690.4514815807343,690.4514815807343,690.4514815807343,690.4514815807343,690.4514815807343,690.4514815807343,691.3160798549652,2,1.0015625953674316,None,,,,,,,,,,,,,,,,,,122,1,2025-02-26_11h25.29.978,comp,2024.2.4,56.507055460201386,2025-02-26 11h25.43.179759 -0500,
129,129,0,critical,hwd,20.0,4.0,upper,200.0,125.0,125.0,200.0,141.0,141.0,2,2.0491042137145996,None,,,,,0,0,0,0,0,129,129,107,691.3323504924774,,,,,,,,,,,,,,,,,,,,,,,,,,,,,,,,,,,,,,,,,,,,,,,,,,,,,,,,,,,,,,,,,,,,,,,,,,,,,,,,,200.0,125.0,125.0,200.0,141.0,141.0,4.0,4.2,-258,-2,0,-268,266,16,691.3175809383392,691.3176591396332,691.3211760520935,691.3323504924774,691.4805960655212,691.4805960655212,691.4805960655212,691.4805960655212,691.4805960655212,691.4805960655212,691.4805960655212,693.3838112354279,2,2.0491042137145996,None,,,,,,,,,,,,,,,,,,122,1,2025-02-26_11h25.29.978,comp,2024.2.4,56.507055460201386,2025-02-26 11h25.43.179759 -0500,
130,130,0,critical,hdw,35.0,3.0,lower,133.0,57.0,70.0,70.0,57.0,133.0,3,1.205658197402954,None,,,,,0,0,0,0,0,130,130,110,693.3997867107391,,,,,,,,,,,,,,,,,,,,,,,,,,,,,,,,,,,,,,,,,,,,,,,,,,,,,,,,,,,,,,,,,,,,,,,,,,,,,,,,,133.0,57.0,70.0,70.0,57.0,133.0,3.0,3.2,-160,-255,0,9,198,287,693.3853778839111,693.3854582309723,693.388959646225,693.3997867107391,693.5494456291199,693.5494456291199,693.5494456291199,693.5494456291199,693.5494456291199,693.5494456291199,693.5494456291199,694.616945028305,3,1.205658197402954,None,,,,,,,,,,,,,,,,,,122,1,2025-02-26_11h25.29.978,comp,2024.2.4,56.507055460201386,2025-02-26 11h25.43.179759 -0500,
131,131,0,critical,whd,20.0,4.0,upper,125.0,200.0,200.0,125.0,141.0,141.0,1,3.7871198654174805,None,,,,,0,0,0,0,0,131,131,95,694.6335577964783,,,,,,,,,,,,,,,,,,,,,,,,,,,,,,,,,,,,,,,,,,,,,,,,,,,,,,,,,,,,,,,,,,,,,,,,,,,,,,,,,125.0,200.0,200.0,125.0,141.0,141.0,4.0,4.1,-258,-259,0,-12,229,-280,694.6184766292572,694.6185579299927,694.6226103305817,694.6335577964783,694.785973072052,694.785973072052,694.785973072052,694.785973072052,694.785973072052,694.785973072052,694.785973072052,698.4358267784119,1,3.7871198654174805,None,,,,,,,,,,,,,,,,,,122,1,2025-02-26_11h25.29.978,comp,2024.2.4,56.507055460201386,2025-02-26 11h25.43.179759 -0500,
132,132,0,critical,hwd,20.0,2.1,upper,200.0,125.0,125.0,200.0,141.0,141.0,2,1.5063040256500244,None,,,,,0,0,0,0,0,132,132,43,698.4512510299683,,,,,,,,,,,,,,,,,,,,,,,,,,,,,,,,,,,,,,,,,,,,,,,,,,,,,,,,,,,,,,,,,,,,,,,,,,,,,,,,,200.0,125.0,125.0,200.0,141.0,141.0,2.1,2.12,-258,-279,0,-254,266,268,698.4374005794525,698.4374823570251,698.4409258365631,698.4512510299683,698.6068727970123,698.6068727970123,698.6068727970123,698.6068727970123,698.6068727970123,698.6068727970123,698.6068727970123,699.9659867286682,2,1.5063040256500244,None,,,,,,,,,,,,,,,,,,122,1,2025-02-26_11h25.29.978,comp,2024.2.4,56.507055460201386,2025-02-26 11h25.43.179759 -0500,
133,133,0,critical,dwh,35.0,3.0,upper,127.0,127.0,125.0,200.0,200.0,125.0,2,0.951045036315918,None,,,,,0,0,0,0,0,133,133,63,699.9822072982788,,,,,,,,,,,,,,,,,,,,,,,,,,,,,,,,,,,,,,,,,,,,,,,,,,,,,,,,,,,,,,,,,,,,,,,,,,,,,,,,,127.0,127.0,125.0,200.0,200.0,125.0,3.0,3.2,-260,-261,0,4,258,285,699.9675436019897,699.9676229953766,699.9705061912537,699.9822072982788,700.1205787658691,700.1205787658691,700.1205787658691,700.1205787658691,700.1205787658691,700.1205787658691,700.1205787658691,700.935747385025,2,0.951045036315918,None,,,,,,,,,,,,,,,,,,122,1,2025-02-26_11h25.29.978,comp,2024.2.4,56.507055460201386,2025-02-26 11h25.43.179759 -0500,
134,134,0,filler_random,None,None,None,None,None,None,None,None,None,None,2,9.06421685218811,None,,,,,0,0,0,0,0,134,134,150,700.9565048217773,,,,,,,,,,,,,,,,,,,,,,,,,,,,,,,,,,,,,,,,,,,,,,,,,,,,,,,,,,,,,,,,,,,,,,,,,,,,,,,,,142.97799910306713,76.78922833155553,192.65832893112963,181.51991611138416,193.05027319719457,181.63140278134233,2.2,2.21,-225,-272,0,258,278,281,700.9374823570251,700.9375660419464,700.9408242702484,700.9565048217773,701.1065039634705,701.1065039634705,701.1065039634705,701.1065039634705,701.1065039634705,701.1065039634705,701.1065039634705,710.0228979587555,2,9.06421685218811,None,,,,,,,,,,,,,,,,,,122,1,2025-02-26_11h25.29.978,comp,2024.2.4,56.507055460201386,2025-02-26 11h25.43.179759 -0500,
135,135,0,critical,wdh,35.0,1.0,lower,57.0,133.0,70.0,70.0,133.0,57.0,1,2.9505410194396973,None,,,,,0,0,0,0,0,135,135,72,710.0387706756592,,,,,,,,,,,,,,,,,,,,,,,,,,,,,,,,,,,,,,,,,,,,,,,,,,,,,,,,,,,,,,,,,,,,,,,,,,,,,,,,,57.0,133.0,70.0,70.0,133.0,57.0,1.0,1.2,-198,-19,0,15,160,-7,710.024373292923,710.0244522094727,710.0278532505035,710.0387706756592,710.1865031719208,710.1865031719208,710.1865031719208,710.1865031719208,710.1865031719208,710.1865031719208,710.1865031719208,712.9943685531616,1,2.9505410194396973,None,,,,,,,,,,,,,,,,,,122,1,2025-02-26_11h25.29.978,comp,2024.2.4,56.507055460201386,2025-02-26 11h25.43.179759 -0500,
136,136,0,critical,whd,20.0,4.0,lower,57.0,133.0,133.0,57.0,78.0,78.0,1,1.5104608535766602,None,,,,,0,0,0,0,0,136,136,94,713.0142590999603,,,,,,,,,,,,,,,,,,,,,,,,,,,,,,,,,,,,,,,,,,,,,,,,,,,,,,,,,,,,,,,,,,,,,,,,,,,,,,,,,57.0,133.0,133.0,57.0,78.0,78.0,4.0,4.2,-191,4,0,-288,164,-4,712.9959206581116,712.9959993362427,712.9989695549011,713.0142590999603,713.1562023162842,713.1562023162842,713.1562023162842,713.1562023162842,713.1562023162842,713.1562023162842,713.1562023162842,714.5425751209259,1,1.5104608535766602,None,,,,,,,,,,,,,,,,,,122,1,2025-02-26_11h25.29.978,comp,2024.2.4,56.507055460201386,2025-02-26 11h25.43.179759 -0500,
137,137,0,filler_random,None,None,None,None,None,None,None,None,None,None,2,0.7975878715515137,None,,,,,0,0,0,0,0,137,137,141,714.5592024326324,,,,,,,,,,,,,,,,,,,,,,,,,,,,,,,,,,,,,,,,,,,,,,,,,,,,,,,,,,,,,,,,,,,,,,,,,,,,,,,,,88.17178219759319,91.3965784708283,178.0040750216608,189.936404316895,64.3298192760968,168.16467504078247,3.0,3.1,-237,251,0,-17,275,-278,714.5444223880768,714.5445499420166,714.5478866100311,714.5592024326324,714.7064714431763,714.7064714431763,714.7064714431763,714.7064714431763,714.7064714431763,714.7064714431763,714.7064714431763,715.3590474128723,2,0.7975878715515137,None,,,,,,,,,,,,,,,,,,122,1,2025-02-26_11h25.29.978,comp,2024.2.4,56.507055460201386,2025-02-26 11h25.43.179759 -0500,
138,138,0,filler_square,None,None,None,None,None,None,None,None,None,None,1,1.0281813144683838,None,,,,,0,0,0,0,0,138,138,196,715.3775596618652,,,,,,,,,,,,,,,,,,,,,,,,,,,,,,,,,,,,,,,,,,,,,,,,,,,,,,,,,,,,,,,,,,,,,,,,,,,,,,,,,122.11795166909351,122.11795166909351,60.07231114060091,83.77499129716475,71.59586466151107,115.47426503702894,2.1,2.11,-199,252,0,274,196,-265,715.3610172271729,715.3611099720001,715.3644042015076,715.3775596618652,715.522679567337,715.522679567337,715.522679567337,715.522679567337,715.522679567337,715.522679567337,715.522679567337,716.4083430767059,1,1.0281813144683838,None,,,,,,,,,,,,,,,,,,122,1,2025-02-26_11h25.29.978,comp,2024.2.4,56.507055460201386,2025-02-26 11h25.43.179759 -0500,
139,139,0,critical,dhw,35.0,2.1,upper,127.0,127.0,200.0,125.0,125.0,200.0,3,3.0848894119262695,None,,,,,0,0,0,0,0,139,139,25,716.4245750904083,,,,,,,,,,,,,,,,,,,,,,,,,,,,,,,,,,,,,,,,,,,,,,,,,,,,,,,,,,,,,,,,,,,,,,,,,,,,,,,,,127.0,127.0,200.0,125.0,125.0,200.0,2.1,2.11,-222,282,0,260,258,-285,716.4099261760712,716.4100043773651,716.4133589267731,716.4245750904083,716.5784704685211,716.5784704685211,716.5784704685211,716.5784704685211,716.5784704685211,716.5784704685211,716.5784704685211,719.511638879776,3,3.0848894119262695,None,,,,,,,,,,,,,,,,,,122,1,2025-02-26_11h25.29.978,comp,2024.2.4,56.507055460201386,2025-02-26 11h25.43.179759 -0500,
140,140,0,catch,None,None,None,None,None,None,None,None,None,None,1,0.8765182495117188,None,,,,,0,0,0,0,0,140,140,129,719.528936624527,,,,,,,,,,,,,,,,,,,,,,,,,,,,,,,,,,,,,,,,,,,,,,,,,,,,,,,,,,,,,,,,,,,,,,,,,,,,,,,,,199,126,119,71,99,91,1.0,1.3,286,-279,480,-255,657,-251,719.5138642787933,719.5139474868774,719.5175607204437,719.528936624527,719.6795561313629,719.6795561313629,719.6795561313629,719.6795561313629,719.6795561313629,719.6795561313629,719.6795561313629,720.4116106033325,1,0.8765182495117188,None,,,,,,,,,,,,,,,,,,122,1,2025-02-26_11h25.29.978,comp,2024.2.4,56.507055460201386,2025-02-26 11h25.43.179759 -0500,
