thisN,thisTrialN,thisRepN,effect,order,distance,config,diag,h_1,w_1,h_2,w_2,h_3,w_3,rect_choice.keys,rect_choice.rt,rect_choice.duration,instructions_loop.thisRepN,instructions_loop.thisTrialN,instructions_loop.thisN,instructions_loop.thisIndex,blocks.thisRepN,blocks.thisTrialN,blocks.thisN,blocks.thisIndex,trials.thisRepN,trials.thisTrialN,trials.thisN,trials.thisIndex,thisRow.t,notes,consent.started,agree_button.started,decline_button.started,consent_img.started,mouse.started,consent.stopped,agree_button.numClicks,agree_button.timesOn,agree_button.timesOff,decline_button.numClicks,decline_button.timesOn,decline_button.timesOff,mouse.x,mouse.y,mouse.leftButton,mouse.midButton,mouse.rightButton,mouse.time,mouse.clicked_name,exp_params.started,exp_params.stopped,welcome.started,welcome_text.started,welcome.stopped,instructions_1.started,instructions_1_text_1.started,instructions_1_text_2.started,key_resp.started,instructions_1.stopped,instructions_loop.key_resp.keys,instructions_loop.key_resp.rt,instructions_loop.key_resp.duration,instructions_2.started,instructions_2_text_1.started,instructions_2_text_2.started,key_resp_2.started,instructions_2.stopped,instructions_loop.key_resp_2.keys,instructions_loop.key_resp_2.rt,instructions_loop.key_resp_2.duration,instructions_3.started,instructions_3_text_1.started,r1_instr3.started,r2_instr3.started,r3_instr3.started,r1_instr3_label.started,r2_instr3_label.started,r3_instr3_label.started,instructions_3_text_3.started,instructions_3_text_4.started,key_resp_3.started,instructions_3.stopped,instructions_loop.key_resp_3.keys,instructions_loop.key_resp_3.rt,instructions_loop.key_resp_3.duration,instructions_4.started,instructions_4_text_1.started,instructions_4_text_3.started,instructions_4_text_2.started,key_resp_4.started,instructions_4.stopped,instructions_loop.key_resp_4.keys,instructions_loop.key_resp_4.rt,instructions_loop.key_resp_4.duration,instructions_5.started,instructions_5_text_1.started,instructions_5_text_2.started,key_resp_5.started,instructions_5.stopped,instructions_loop.key_resp_5.keys,instructions_loop.key_resp_5.rt,instructions_loop.key_resp_5.duration,start_exp.started,start_exp_text.started,key_resp_6.started,start_exp.stopped,key_resp_6.keys,key_resp_6.rt,key_resp_6.duration,h_1_tmp,w_1_tmp,h_2_tmp,w_2_tmp,h_3_tmp,w_3_tmp,config_tmp,config_tmp_1,r_1_x,r_1_y,r_2_x,r_2_y,r_3_x,r_3_y,pre_trial.started,pre_trial.stopped,choice_trial.started,rect_choice.started,r_1.started,r_2.started,r_3.started,r_1_label.started,r_2_label.started,r_3_label.started,prompt.started,choice_trial.stopped,trials.rect_choice.keys,trials.rect_choice.rt,trials.rect_choice.duration,end_block.started,end_block_text.started,end_block.stopped,end.started,end_text.started,key_resp_7.started,end.stopped,key_resp_7.keys,key_resp_7.rt,key_resp_7.duration,debriefing.started,debrief_form.started,end_debrief.started,debriefing.stopped,end_debrief.keys,end_debrief.rt,end_debrief.duration,participant,computer,date,expName,psychopyVersion,frameRate,expStart,
,,,,,,,,,,,,,,,,,,,,,,,,,,,,,,,0.015622377395629883,0.03715634346008301,0.03715634346008301,0.03715634346008301,0.015429019927978516,68.34623527526855,1,[68.3069429397583],[68.30696296691895],0,,,[-81.0],[-514.0],[1],[0],[0],[68.33009004592896],['agree_button'],,,,,,,,,,,,,,,,,,,,,,,,,,,,,,,,,,,,,,,,,,,,,,,,,,,,,,,,,,,,,,,,,,,,,,,,,,,,,,,,,,,,,,,,,,,,,,,,,,,,,,,,,,,123,2,2025-02-26_11h25.24.852,comp,2024.2.4,56.34438242623303,2025-02-26 11h25.45.369575 -0500,
,,,,,,,,,,,,,,,,,,,,,,,,,,,,,,,,,,,,,,,,,,,,,,,,,,68.34670352935791,68.34676504135132,,,,,,,,,,,,,,,,,,,,,,,,,,,,,,,,,,,,,,,,,,,,,,,,,,,,,,,,,,,,,,,,,,,,,,,,,,,,,,,,,,,,,,,,,,,,,,,,,,,,,,,,,123,2,2025-02-26_11h25.24.852,comp,2024.2.4,56.34438242623303,2025-02-26 11h25.45.369575 -0500,
,,,,,,,,,,,,,,,,,,,,,,,,,,,,,,,,,,,,,,,,,,,,,,,,,,,,68.34680366516113,68.36199235916138,70.348135471344,,,,,,,,,,,,,,,,,,,,,,,,,,,,,,,,,,,,,,,,,,,,,,,,,,,,,,,,,,,,,,,,,,,,,,,,,,,,,,,,,,,,,,,,,,,,,,,,,,,,,,123,2,2025-02-26_11h25.24.852,comp,2024.2.4,56.34438242623303,2025-02-26 11h25.45.369575 -0500,
0,0,0,,,,,,,,,,,,,,,0,0,0,0,,,,,,,,,70.3650975227356,,,,,,,,,,,,,,,,,,,,,,,,,,70.34898710250854,70.3650975227356,70.3650975227356,71.84933638572693,74.51857042312622,space,2.657905101776123,None,74.51871252059937,74.5346028804779,74.5346028804779,76.02118921279907,83.08649492263794,space,7.051791191101074,None,83.08664846420288,83.11607003211975,83.11607003211975,83.11607003211975,83.11607003211975,83.11607003211975,83.11607003211975,83.11607003211975,83.11607003211975,83.11607003211975,84.60104250907898,90.13723421096802,space,5.519866943359375,None,90.1373918056488,90.15524864196777,90.15524864196777,90.15524864196777,91.63898181915283,97.32639122009277,space,5.682033061981201,None,97.32654428482056,97.34352922439575,97.34352922439575,98.83011436462402,106.81106734275818,space,7.978856325149536,None,106.81127619743347,106.82639455795288,106.82639455795288,108.89682984352112,space,2.062974691390991,None,,,,,,,,,,,,,,,,,,,,,,,,,,,,,,,,,,,,,,,,,,,,,,,123,2,2025-02-26_11h25.24.852,comp,2024.2.4,56.34438242623303,2025-02-26 11h25.45.369575 -0500,
0,0,0,critical,hdw,20.0,2.1,lower,133.0,57.0,78.0,78.0,57.0,133.0,1,4.4172563552856445,None,,,,,0,0,0,0,0,0,0,22,108.97625827789307,,,,,,,,,,,,,,,,,,,,,,,,,,,,,,,,,,,,,,,,,,,,,,,,,,,,,,,,,,,,,,,,,,,,,,,,,,,,,,,,,133.0,57.0,78.0,78.0,57.0,133.0,2.1,2.12,-164,-288,0,-277,202,257,108.96023654937744,108.9602701663971,108.96153664588928,108.97625827789307,109.12069439888,109.12069439888,109.12069439888,109.12069439888,109.12069439888,109.12069439888,109.12069439888,113.39628958702087,1,4.4172563552856445,None,,,,,,,,,,,,,,,,,,123,2,2025-02-26_11h25.24.852,comp,2024.2.4,56.34438242623303,2025-02-26 11h25.45.369575 -0500,
1,1,0,critical,hwd,20.0,4.0,lower,133.0,57.0,57.0,133.0,78.0,78.0,2,8.077645301818848,None,,,,,0,0,0,0,0,1,1,106,113.41181826591492,,,,,,,,,,,,,,,,,,,,,,,,,,,,,,,,,,,,,,,,,,,,,,,,,,,,,,,,,,,,,,,,,,,,,,,,,,,,,,,,,133.0,57.0,57.0,133.0,78.0,78.0,4.0,4.2,-191,-8,0,-257,202,0,113.39762854576111,113.39768266677856,113.40039110183716,113.41181826591492,113.56213450431824,113.56213450431824,113.56213450431824,113.56213450431824,113.56213450431824,113.56213450431824,113.56213450431824,121.49952554702759,2,8.077645301818848,None,,,,,,,,,,,,,,,,,,123,2,2025-02-26_11h25.24.852,comp,2024.2.4,56.34438242623303,2025-02-26 11h25.45.369575 -0500,
2,2,0,filler_square,None,None,None,None,None,None,None,None,None,None,2,3.4437921047210693,None,,,,,0,0,0,0,0,2,2,171,121.51816487312317,,,,,,,,,,,,,,,,,,,,,,,,,,,,,,,,,,,,,,,,,,,,,,,,,,,,,,,,,,,,,,,,,,,,,,,,,,,,,,,,,95.77758135736605,122.14092791208519,178.09104225362964,178.09104225362964,152.05305207988857,76.76225720558558,2.1,2.11,-246,253,0,272,223,-287,121.50149822235107,121.50157642364502,121.5048348903656,121.51816487312317,121.6722183227539,121.6722183227539,121.6722183227539,121.6722183227539,121.6722183227539,121.6722183227539,121.6722183227539,124.96865439414978,2,3.4437921047210693,None,,,,,,,,,,,,,,,,,,123,2,2025-02-26_11h25.24.852,comp,2024.2.4,56.34438242623303,2025-02-26 11h25.45.369575 -0500,
3,3,0,critical,dwh,20.0,4.0,lower,78.0,78.0,57.0,133.0,133.0,57.0,3,3.144191265106201,None,,,,,0,0,0,0,0,3,3,70,124.98543119430542,,,,,,,,,,,,,,,,,,,,,,,,,,,,,,,,,,,,,,,,,,,,,,,,,,,,,,,,,,,,,,,,,,,,,,,,,,,,,,,,,78.0,78.0,57.0,133.0,133.0,57.0,4.0,4.1,-202,-259,0,20,191,-256,124.97057247161865,124.970707654953,124.97440481185913,124.98543119430542,125.14302349090576,125.14302349090576,125.14302349090576,125.14302349090576,125.14302349090576,125.14302349090576,125.14302349090576,128.13678193092346,3,3.144191265106201,None,,,,,,,,,,,,,,,,,,123,2,2025-02-26_11h25.24.852,comp,2024.2.4,56.34438242623303,2025-02-26 11h25.45.369575 -0500,
4,4,0,catch,None,None,None,None,None,None,None,None,None,None,2,2.550722360610962,None,,,,,0,0,0,0,0,4,4,123,128.1542203426361,,,,,,,,,,,,,,,,,,,,,,,,,,,,,,,,,,,,,,,,,,,,,,,,,,,,,,,,,,,,,,,,,,,,,,,,,,,,,,,,,60,130,168,157,63,127,1.0,1.3,240,-277,480,-265,718,-269,128.13904786109924,128.13912796974182,128.14295625686646,128.1542203426361,128.3018319606781,128.3018319606781,128.3018319606781,128.3018319606781,128.3018319606781,128.3018319606781,128.3018319606781,130.71719598770142,2,2.550722360610962,None,,,,,,,,,,,,,,,,,,123,2,2025-02-26_11h25.24.852,comp,2024.2.4,56.34438242623303,2025-02-26 11h25.45.369575 -0500,
5,5,0,critical,hwd,20.0,1.0,upper,200.0,125.0,125.0,200.0,141.0,141.0,2,6.9966700077056885,None,,,,,0,0,0,0,0,5,5,103,130.7322735786438,,,,,,,,,,,,,,,,,,,,,,,,,,,,,,,,,,,,,,,,,,,,,,,,,,,,,,,,,,,,,,,,,,,,,,,,,,,,,,,,,200.0,125.0,125.0,200.0,141.0,141.0,1.0,1.1,-738,288,-480,255,-214,262,130.7187361717224,130.71881198883057,130.72207260131836,130.7322735786438,130.88639545440674,130.88639545440674,130.88639545440674,130.88639545440674,130.88639545440674,130.88639545440674,130.88639545440674,137.74648904800415,2,6.9966700077056885,None,,,,,,,,,,,,,,,,,,123,2,2025-02-26_11h25.24.852,comp,2024.2.4,56.34438242623303,2025-02-26 11h25.45.369575 -0500,
6,6,0,critical,hdw,35.0,2.1,upper,200.0,125.0,127.0,127.0,125.0,200.0,3,3.354714870452881,None,,,,,0,0,0,0,0,6,6,21,137.76633429527283,,,,,,,,,,,,,,,,,,,,,,,,,,,,,,,,,,,,,,,,,,,,,,,,,,,,,,,,,,,,,,,,,,,,,,,,,,,,,,,,,200.0,125.0,127.0,127.0,125.0,200.0,2.1,2.11,-222,254,0,282,260,-257,137.74803924560547,137.74811339378357,137.75107789039612,137.76633429527283,137.90486407279968,137.90486407279968,137.90486407279968,137.90486407279968,137.90486407279968,137.90486407279968,137.90486407279968,141.13844895362854,3,3.354714870452881,None,,,,,,,,,,,,,,,,,,123,2,2025-02-26_11h25.24.852,comp,2024.2.4,56.34438242623303,2025-02-26 11h25.45.369575 -0500,
7,7,0,filler_square,None,None,None,None,None,None,None,None,None,None,1,3.0545992851257324,None,,,,,0,0,0,0,0,7,7,188,141.154381275177,,,,,,,,,,,,,,,,,,,,,,,,,,,,,,,,,,,,,,,,,,,,,,,,,,,,,,,,,,,,,,,,,,,,,,,,,,,,,,,,,83.67745781526337,83.67745781526337,83.07064458927624,58.542450312974275,66.67361034543663,80.56315138030865,4.0,4.1,-167,-263,0,15,166,-274,141.14051151275635,141.1405951976776,141.14407444000244,141.154381275177,141.30777597427368,141.30777597427368,141.30777597427368,141.30777597427368,141.30777597427368,141.30777597427368,141.30777597427368,144.22532844543457,1,3.0545992851257324,None,,,,,,,,,,,,,,,,,,123,2,2025-02-26_11h25.24.852,comp,2024.2.4,56.34438242623303,2025-02-26 11h25.45.369575 -0500,
8,8,0,critical,hwd,35.0,2.1,lower,133.0,57.0,57.0,133.0,70.0,70.0,1,3.085792064666748,None,,,,,0,0,0,0,0,8,8,16,144.2442729473114,,,,,,,,,,,,,,,,,,,,,,,,,,,,,,,,,,,,,,,,,,,,,,,,,,,,,,,,,,,,,,,,,,,,,,,,,,,,,,,,,133.0,57.0,57.0,133.0,70.0,70.0,2.1,2.12,-191,-284,0,-272,198,278,144.22694730758667,144.22703576087952,144.23038482666016,144.2442729473114,144.38957166671753,144.38957166671753,144.38957166671753,144.38957166671753,144.38957166671753,144.38957166671753,144.38957166671753,147.33691477775574,1,3.085792064666748,None,,,,,,,,,,,,,,,,,,123,2,2025-02-26_11h25.24.852,comp,2024.2.4,56.34438242623303,2025-02-26 11h25.45.369575 -0500,
9,9,0,filler_random,None,None,None,None,None,None,None,None,None,None,1,3.742871046066284,None,,,,,0,0,0,0,0,9,9,140,147.35416984558105,,,,,,,,,,,,,,,,,,,,,,,,,,,,,,,,,,,,,,,,,,,,,,,,,,,,,,,,,,,,,,,,,,,,,,,,,,,,,,,,,177.1376351744945,124.21813873794197,121.64741574147946,162.32284248289588,77.75529780315927,132.08645706402126,4.0,4.1,-239,-255,0,3,243,-266,147.33870244026184,147.33881282806396,147.34210920333862,147.35416984558105,147.50594973564148,147.50594973564148,147.50594973564148,147.50594973564148,147.50594973564148,147.50594973564148,147.50594973564148,151.11333203315735,1,3.742871046066284,None,,,,,,,,,,,,,,,,,,123,2,2025-02-26_11h25.24.852,comp,2024.2.4,56.34438242623303,2025-02-26 11h25.45.369575 -0500,
10,10,0,filler_square,None,None,None,None,None,None,None,None,None,None,3,3.08089017868042,None,,,,,0,0,0,0,0,10,10,197,151.12822365760803,,,,,,,,,,,,,,,,,,,,,,,,,,,,,,,,,,,,,,,,,,,,,,,,,,,,,,,,,,,,,,,,,,,,,,,,,,,,,,,,,93.39172301488307,160.71148028787792,102.02718275245535,118.14943583639024,179.32260274397683,179.32260274397683,2.1,2.11,-235,255,0,263,245,-264,151.1150095462799,151.11508464813232,151.11789631843567,151.12822365760803,151.27520203590393,151.27520203590393,151.27520203590393,151.27520203590393,151.27520203590393,151.27520203590393,151.27520203590393,154.21450519561768,3,3.08089017868042,None,,,,,,,,,,,,,,,,,,123,2,2025-02-26_11h25.24.852,comp,2024.2.4,56.34438242623303,2025-02-26 11h25.45.369575 -0500,
11,11,0,filler_square,None,None,None,None,None,None,None,None,None,None,3,2.7142016887664795,None,,,,,0,0,0,0,0,11,11,183,154.23058009147644,,,,,,,,,,,,,,,,,,,,,,,,,,,,,,,,,,,,,,,,,,,,,,,,,,,,,,,,,,,,,,,,,,,,,,,,,,,,,,,,,78.71042008744405,102.41228373117208,77.09812787756216,97.96199303208414,117.45663438806119,117.45663438806119,1.0,1.3,284,-256,480,-285,684,-282,154.2163121700287,154.21638751029968,154.21961903572083,154.23058009147644,154.37430596351624,154.37430596351624,154.37430596351624,154.37430596351624,154.37430596351624,154.37430596351624,154.37430596351624,156.9484601020813,3,2.7142016887664795,None,,,,,,,,,,,,,,,,,,123,2,2025-02-26_11h25.24.852,comp,2024.2.4,56.34438242623303,2025-02-26 11h25.45.369575 -0500,
12,12,0,filler_random,None,None,None,None,None,None,None,None,None,None,1,2.8185904026031494,None,,,,,0,0,0,0,0,12,12,139,156.95875573158264,,,,,,,,,,,,,,,,,,,,,,,,,,,,,,,,,,,,,,,,,,,,,,,,,,,,,,,,,,,,,,,,,,,,,,,,,,,,,,,,,155.87442411223446,194.4914982940477,100.57852567957909,116.66200049033563,96.10937328329581,105.97077756957027,4.0,4.1,-252,-267,0,1,207,-250,156.94895768165588,156.94897627830505,156.94972109794617,156.95875573158264,157.11233711242676,157.11233711242676,157.11233711242676,157.11233711242676,157.11233711242676,157.11233711242676,157.11233711242676,159.7967746257782,1,2.8185904026031494,None,,,,,,,,,,,,,,,,,,123,2,2025-02-26_11h25.24.852,comp,2024.2.4,56.34438242623303,2025-02-26 11h25.45.369575 -0500,
13,13,0,filler_square,None,None,None,None,None,None,None,None,None,None,2,3.71427059173584,None,,,,,0,0,0,0,0,13,13,208,159.81521940231323,,,,,,,,,,,,,,,,,,,,,,,,,,,,,,,,,,,,,,,,,,,,,,,,,,,,,,,,,,,,,,,,,,,,,,,,,,,,,,,,,62.18107978860333,62.84909843505401,64.85792734036545,64.85792734036545,63.373068242646816,59.29002909446297,1.0,1.1,-640,270,-480,281,-322,280,159.79902124404907,159.79912304878235,159.8024456501007,159.81521940231323,159.96105885505676,159.96105885505676,159.96105885505676,159.96105885505676,159.96105885505676,159.96105885505676,159.96105885505676,163.53329706192017,2,3.71427059173584,None,,,,,,,,,,,,,,,,,,123,2,2025-02-26_11h25.24.852,comp,2024.2.4,56.34438242623303,2025-02-26 11h25.45.369575 -0500,
14,14,0,critical,dhw,20.0,1.0,upper,141.0,141.0,200.0,125.0,125.0,200.0,2,4.480505704879761,None,,,,,0,0,0,0,0,14,14,55,163.5530068874359,,,,,,,,,,,,,,,,,,,,,,,,,,,,,,,,,,,,,,,,,,,,,,,,,,,,,,,,,,,,,,,,,,,,,,,,,,,,,,,,,141.0,141.0,200.0,125.0,125.0,200.0,1.0,1.3,251,-259,480,-276,738,-267,163.5347499847412,163.53482723236084,163.53767919540405,163.5530068874359,163.69656562805176,163.69656562805176,163.69656562805176,163.69656562805176,163.69656562805176,163.69656562805176,163.69656562805176,168.0359764099121,2,4.480505704879761,None,,,,,,,,,,,,,,,,,,123,2,2025-02-26_11h25.24.852,comp,2024.2.4,56.34438242623303,2025-02-26 11h25.45.369575 -0500,
15,15,0,critical,hwd,35.0,2.1,upper,200.0,125.0,125.0,200.0,127.0,127.0,1,2.8354504108428955,None,,,,,0,0,0,0,0,15,15,17,168.05356788635254,,,,,,,,,,,,,,,,,,,,,,,,,,,,,,,,,,,,,,,,,,,,,,,,,,,,,,,,,,,,,,,,,,,,,,,,,,,,,,,,,200.0,125.0,125.0,200.0,127.0,127.0,2.1,2.11,-258,276,0,265,260,-275,168.03745245933533,168.03753232955933,168.04045009613037,168.05356788635254,168.19739413261414,168.19739413261414,168.19739413261414,168.19739413261414,168.19739413261414,168.19739413261414,168.19739413261414,170.90646624565125,1,2.8354504108428955,None,,,,,,,,,,,,,,,,,,123,2,2025-02-26_11h25.24.852,comp,2024.2.4,56.34438242623303,2025-02-26 11h25.45.369575 -0500,
16,16,0,critical,hwd,35.0,3.0,upper,200.0,125.0,125.0,200.0,127.0,127.0,1,6.854182004928589,None,,,,,0,0,0,0,0,16,16,99,170.92358422279358,,,,,,,,,,,,,,,,,,,,,,,,,,,,,,,,,,,,,,,,,,,,,,,,,,,,,,,,,,,,,,,,,,,,,,,,,,,,,,,,,200.0,125.0,125.0,200.0,127.0,127.0,3.0,3.2,-258,-268,0,0,260,253,170.9079625606537,170.90804028511047,170.91087198257446,170.92358422279358,171.06438374519348,171.06438374519348,171.06438374519348,171.06438374519348,171.06438374519348,171.06438374519348,171.06438374519348,177.78050684928894,1,6.854182004928589,None,,,,,,,,,,,,,,,,,,123,2,2025-02-26_11h25.24.852,comp,2024.2.4,56.34438242623303,2025-02-26 11h25.45.369575 -0500,
17,17,0,critical,dhw,20.0,2.1,upper,141.0,141.0,200.0,125.0,125.0,200.0,2,4.747979164123535,None,,,,,0,0,0,0,0,17,17,27,177.79702997207642,,,,,,,,,,,,,,,,,,,,,,,,,,,,,,,,,,,,,,,,,,,,,,,,,,,,,,,,,,,,,,,,,,,,,,,,,,,,,,,,,141.0,141.0,200.0,125.0,125.0,200.0,2.1,2.12,-229,-284,0,-256,258,279,177.78199291229248,177.78206944465637,177.78490138053894,177.79702997207642,177.9393584728241,177.9393584728241,177.9393584728241,177.9393584728241,177.9393584728241,177.9393584728241,177.9393584728241,182.55478954315186,2,4.747979164123535,None,,,,,,,,,,,,,,,,,,123,2,2025-02-26_11h25.24.852,comp,2024.2.4,56.34438242623303,2025-02-26 11h25.45.369575 -0500,
18,18,0,critical,hwd,35.0,1.0,upper,200.0,125.0,125.0,200.0,127.0,127.0,1,1.3266785144805908,None,,,,,0,0,0,0,0,18,18,97,182.57102036476135,,,,,,,,,,,,,,,,,,,,,,,,,,,,,,,,,,,,,,,,,,,,,,,,,,,,,,,,,,,,,,,,,,,,,,,,,,,,,,,,,200.0,125.0,125.0,200.0,127.0,127.0,1.0,1.1,-738,290,-480,273,-220,254,182.55652141571045,182.55659914016724,182.5594789981842,182.57102036476135,182.7180004119873,182.7180004119873,182.7180004119873,182.7180004119873,182.7180004119873,182.7180004119873,182.7180004119873,183.90533661842346,1,1.3266785144805908,None,,,,,,,,,,,,,,,,,,123,2,2025-02-26_11h25.24.852,comp,2024.2.4,56.34438242623303,2025-02-26 11h25.45.369575 -0500,
19,19,0,critical,hwd,20.0,4.0,upper,200.0,125.0,125.0,200.0,141.0,141.0,1,4.749780178070068,None,,,,,0,0,0,0,0,19,19,107,183.92352318763733,,,,,,,,,,,,,,,,,,,,,,,,,,,,,,,,,,,,,,,,,,,,,,,,,,,,,,,,,,,,,,,,,,,,,,,,,,,,,,,,,200.0,125.0,125.0,200.0,141.0,141.0,4.0,4.1,-258,-258,0,4,266,-264,183.90688681602478,183.90699434280396,183.91031527519226,183.92352318763733,184.06889033317566,184.06889033317566,184.06889033317566,184.06889033317566,184.06889033317566,184.06889033317566,184.06889033317566,188.68756103515625,1,4.749780178070068,None,,,,,,,,,,,,,,,,,,123,2,2025-02-26_11h25.24.852,comp,2024.2.4,56.34438242623303,2025-02-26 11h25.45.369575 -0500,
20,20,0,critical,dwh,35.0,4.0,lower,70.0,70.0,57.0,133.0,133.0,57.0,3,2.794884443283081,None,,,,,0,0,0,0,0,20,20,64,188.70288133621216,,,,,,,,,,,,,,,,,,,,,,,,,,,,,,,,,,,,,,,,,,,,,,,,,,,,,,,,,,,,,,,,,,,,,,,,,,,,,,,,,70.0,70.0,57.0,133.0,133.0,57.0,4.0,4.2,-198,-5,0,-260,191,-7,188.68904948234558,188.689124584198,188.69257807731628,188.70288133621216,188.84390711784363,188.84390711784363,188.84390711784363,188.84390711784363,188.84390711784363,188.84390711784363,188.84390711784363,191.50497674942017,3,2.794884443283081,None,,,,,,,,,,,,,,,,,,123,2,2025-02-26_11h25.24.852,comp,2024.2.4,56.34438242623303,2025-02-26 11h25.45.369575 -0500,
21,21,0,critical,whd,20.0,4.0,upper,125.0,200.0,200.0,125.0,141.0,141.0,1,2.5201287269592285,None,,,,,0,0,0,0,0,21,21,95,191.52100706100464,,,,,,,,,,,,,,,,,,,,,,,,,,,,,,,,,,,,,,,,,,,,,,,,,,,,,,,,,,,,,,,,,,,,,,,,,,,,,,,,,125.0,200.0,200.0,125.0,141.0,141.0,4.0,4.2,-258,-11,0,-269,229,-19,191.50652360916138,191.50660228729248,191.5099847316742,191.52100706100464,191.67548298835754,191.67548298835754,191.67548298835754,191.67548298835754,191.67548298835754,191.67548298835754,191.67548298835754,194.05603790283203,1,2.5201287269592285,None,,,,,,,,,,,,,,,,,,123,2,2025-02-26_11h25.24.852,comp,2024.2.4,56.34438242623303,2025-02-26 11h25.45.369575 -0500,
22,22,0,filler_random,None,None,None,None,None,None,None,None,None,None,3,1.697906255722046,None,,,,,0,0,0,0,0,22,22,152,194.07147526741028,,,,,,,,,,,,,,,,,,,,,,,,,,,,,,,,,,,,,,,,,,,,,,,,,,,,,,,,,,,,,,,,,,,,,,,,,,,,,,,,,72.20242002231127,85.6004128312864,73.83068801668537,170.41255559655178,110.23055575539173,171.0665917491923,4.0,4.1,-224,-270,0,11,267,-282,194.05779099464417,194.05788564682007,194.0611765384674,194.07147526741028,194.22048377990723,194.22048377990723,194.22048377990723,194.22048377990723,194.22048377990723,194.22048377990723,194.22048377990723,195.78783464431763,3,1.697906255722046,None,,,,,,,,,,,,,,,,,,123,2,2025-02-26_11h25.24.852,comp,2024.2.4,56.34438242623303,2025-02-26 11h25.45.369575 -0500,
23,23,0,critical,dwh,20.0,2.1,lower,78.0,78.0,57.0,133.0,133.0,57.0,2,3.961937189102173,None,,,,,0,0,0,0,0,23,23,30,195.80773663520813,,,,,,,,,,,,,,,,,,,,,,,,,,,,,,,,,,,,,,,,,,,,,,,,,,,,,,,,,,,,,,,,,,,,,,,,,,,,,,,,,78.0,78.0,57.0,133.0,133.0,57.0,2.1,2.12,-202,-284,0,-273,191,288,195.7893934249878,195.78946805000305,195.79252076148987,195.80773663520813,195.95572686195374,195.95572686195374,195.95572686195374,195.95572686195374,195.95572686195374,195.95572686195374,195.95572686195374,199.77770566940308,2,3.961937189102173,None,,,,,,,,,,,,,,,,,,123,2,2025-02-26_11h25.24.852,comp,2024.2.4,56.34438242623303,2025-02-26 11h25.45.369575 -0500,
24,24,0,critical,hwd,35.0,3.0,lower,133.0,57.0,57.0,133.0,70.0,70.0,1,2.1826155185699463,None,,,,,0,0,0,0,0,24,24,98,199.7944312095642,,,,,,,,,,,,,,,,,,,,,,,,,,,,,,,,,,,,,,,,,,,,,,,,,,,,,,,,,,,,,,,,,,,,,,,,,,,,,,,,,133.0,57.0,57.0,133.0,70.0,70.0,3.0,3.2,-191,-269,0,-4,198,262,199.7793128490448,199.77938961982727,199.78267335891724,199.7944312095642,199.94082379341125,199.94082379341125,199.94082379341125,199.94082379341125,199.94082379341125,199.94082379341125,199.94082379341125,201.99070191383362,1,2.1826155185699463,None,,,,,,,,,,,,,,,,,,123,2,2025-02-26_11h25.24.852,comp,2024.2.4,56.34438242623303,2025-02-26 11h25.45.369575 -0500,
25,25,0,critical,wdh,20.0,1.0,lower,57.0,133.0,78.0,78.0,133.0,57.0,1,7.417546272277832,None,,,,,0,0,0,0,0,25,25,78,202.00809502601624,,,,,,,,,,,,,,,,,,,,,,,,,,,,,,,,,,,,,,,,,,,,,,,,,,,,,,,,,,,,,,,,,,,,,,,,,,,,,,,,,57.0,133.0,78.0,78.0,133.0,57.0,1.0,1.3,278,-257,480,-286,644,-284,201.9922902584076,201.9923644065857,201.99542808532715,202.00809502601624,202.15567255020142,202.15567255020142,202.15567255020142,202.15567255020142,202.15567255020142,202.15567255020142,202.15567255020142,209.4327597618103,1,7.417546272277832,None,,,,,,,,,,,,,,,,,,123,2,2025-02-26_11h25.24.852,comp,2024.2.4,56.34438242623303,2025-02-26 11h25.45.369575 -0500,
26,26,0,filler_square,None,None,None,None,None,None,None,None,None,None,3,7.220398187637329,None,,,,,0,0,0,0,0,26,26,207,209.45333695411682,,,,,,,,,,,,,,,,,,,,,,,,,,,,,,,,,,,,,,,,,,,,,,,,,,,,,,,,,,,,,,,,,,,,,,,,,,,,,,,,,81.55708283937393,101.39220209467192,65.9062926109422,57.89441345578372,148.25999997132624,148.25999997132624,4.0,4.1,-176,-259,0,-5,199,-259,209.43456959724426,209.43464970588684,209.43760085105896,209.45333695411682,209.59139370918274,209.59139370918274,209.59139370918274,209.59139370918274,209.59139370918274,209.59139370918274,209.59139370918274,216.6786732673645,3,7.220398187637329,None,,,,,,,,,,,,,,,,,,123,2,2025-02-26_11h25.24.852,comp,2024.2.4,56.34438242623303,2025-02-26 11h25.45.369575 -0500,
27,27,0,filler_square,None,None,None,None,None,None,None,None,None,None,1,2.9544599056243896,None,,,,,0,0,0,0,0,27,27,174,216.69473576545715,,,,,,,,,,,,,,,,,,,,,,,,,,,,,,,,,,,,,,,,,,,,,,,,,,,,,,,,,,,,,,,,,,,,,,,,,,,,,,,,,129.33706118077328,129.33706118077328,89.55181860710982,84.0356975905384,76.42332461804841,89.11218281608583,1.0,1.1,-683,280,-480,262,-297,282,216.6804440021515,216.6805181503296,216.68395400047302,216.69473576545715,216.84802913665771,216.84802913665771,216.84802913665771,216.84802913665771,216.84802913665771,216.84802913665771,216.84802913665771,219.66358613967896,1,2.9544599056243896,None,,,,,,,,,,,,,,,,,,123,2,2025-02-26_11h25.24.852,comp,2024.2.4,56.34438242623303,2025-02-26 11h25.45.369575 -0500,
28,28,0,catch,None,None,None,None,None,None,None,None,None,None,3,1.833974838256836,None,,,,,0,0,0,0,0,28,28,122,219.67916917800903,,,,,,,,,,,,,,,,,,,,,,,,,,,,,,,,,,,,,,,,,,,,,,,,,,,,,,,,,,,,,,,,,,,,,,,,,,,,,,,,,73,117,98,92,151,174,3.0,3.1,-200,267,0,-2,229,-286,219.6655035018921,219.66558241844177,219.66885375976562,219.67916917800903,219.82952189445496,219.82952189445496,219.82952189445496,219.82952189445496,219.82952189445496,219.82952189445496,219.82952189445496,221.5303680896759,3,1.833974838256836,None,,,,,,,,,,,,,,,,,,123,2,2025-02-26_11h25.24.852,comp,2024.2.4,56.34438242623303,2025-02-26 11h25.45.369575 -0500,
29,29,0,filler_random,None,None,None,None,None,None,None,None,None,None,3,8.503501892089844,None,,,,,0,0,0,0,0,29,29,164,221.54641699790955,,,,,,,,,,,,,,,,,,,,,,,,,,,,,,,,,,,,,,,,,,,,,,,,,,,,,,,,,,,,,,,,,,,,,,,,,,,,,,,,,113.36699483875105,131.5274876922366,158.99457854652502,96.505001718085,143.11351505545485,102.30885022479086,2.2,2.21,-210,-273,0,257,195,288,221.53199291229248,221.53206753730774,221.53611302375793,221.54641699790955,221.69962215423584,221.69962215423584,221.69962215423584,221.69962215423584,221.69962215423584,221.69962215423584,221.69962215423584,230.05447125434875,3,8.503501892089844,None,,,,,,,,,,,,,,,,,,123,2,2025-02-26_11h25.24.852,comp,2024.2.4,56.34438242623303,2025-02-26 11h25.45.369575 -0500,
30,30,0,critical,hwd,35.0,2.1,lower,133.0,57.0,57.0,133.0,70.0,70.0,1,2.042811393737793,None,,,,,0,0,0,0,0,30,30,40,230.07063722610474,,,,,,,,,,,,,,,,,,,,,,,,,,,,,,,,,,,,,,,,,,,,,,,,,,,,,,,,,,,,,,,,,,,,,,,,,,,,,,,,,133.0,57.0,57.0,133.0,70.0,70.0,2.1,2.12,-191,-288,0,-288,198,273,230.0560004711151,230.05607843399048,230.0589952468872,230.07063722610474,230.21710896492004,230.21710896492004,230.21710896492004,230.21710896492004,230.21710896492004,230.21710896492004,230.21710896492004,232.1159143447876,1,2.042811393737793,None,,,,,,,,,,,,,,,,,,123,2,2025-02-26_11h25.24.852,comp,2024.2.4,56.34438242623303,2025-02-26 11h25.45.369575 -0500,
31,31,0,critical,wdh,35.0,3.0,upper,125.0,200.0,127.0,127.0,200.0,125.0,1,1.883495807647705,None,,,,,0,0,0,0,0,31,31,75,232.13366317749023,,,,,,,,,,,,,,,,,,,,,,,,,,,,,,,,,,,,,,,,,,,,,,,,,,,,,,,,,,,,,,,,,,,,,,,,,,,,,,,,,125.0,200.0,127.0,127.0,200.0,125.0,3.0,3.2,-260,-255,0,1,222,284,232.11740946769714,232.11748695373535,232.12054467201233,232.13366317749023,232.2728316783905,232.2728316783905,232.2728316783905,232.2728316783905,232.2728316783905,232.2728316783905,232.2728316783905,234.03396844863892,1,1.883495807647705,None,,,,,,,,,,,,,,,,,,123,2,2025-02-26_11h25.24.852,comp,2024.2.4,56.34438242623303,2025-02-26 11h25.45.369575 -0500,
32,32,0,filler_square,None,None,None,None,None,None,None,None,None,None,2,1.1048636436462402,None,,,,,0,0,0,0,0,32,32,184,234.04828691482544,,,,,,,,,,,,,,,,,,,,,,,,,,,,,,,,,,,,,,,,,,,,,,,,,,,,,,,,,,,,,,,,,,,,,,,,,,,,,,,,,65.64739526710626,127.72587781362147,146.40545459842582,146.40545459842582,81.07194140111243,82.62121059869932,2.1,2.12,-233,-257,0,-264,211,287,234.03574109077454,234.0358169078827,234.03886103630066,234.04828691482544,234.2004189491272,234.2004189491272,234.2004189491272,234.2004189491272,234.2004189491272,234.2004189491272,234.2004189491272,235.16770601272583,2,1.1048636436462402,None,,,,,,,,,,,,,,,,,,123,2,2025-02-26_11h25.24.852,comp,2024.2.4,56.34438242623303,2025-02-26 11h25.45.369575 -0500,
33,33,0,filler_random,None,None,None,None,None,None,None,None,None,None,1,2.4599151611328125,None,,,,,0,0,0,0,0,33,33,160,235.18320178985596,,,,,,,,,,,,,,,,,,,,,,,,,,,,,,,,,,,,,,,,,,,,,,,,,,,,,,,,,,,,,,,,,,,,,,,,,,,,,,,,,124.94432428483869,167.27552183817204,141.466058108095,96.34394362145966,58.04515384970863,133.65164657364122,3.0,3.1,-228,268,0,-14,211,-262,235.1694257259369,235.16950154304504,235.1728322505951,235.18320178985596,235.33787274360657,235.33787274360657,235.33787274360657,235.33787274360657,235.33787274360657,235.33787274360657,235.33787274360657,237.65409469604492,1,2.4599151611328125,None,,,,,,,,,,,,,,,,,,123,2,2025-02-26_11h25.24.852,comp,2024.2.4,56.34438242623303,2025-02-26 11h25.45.369575 -0500,
34,34,0,critical,hdw,20.0,2.1,upper,200.0,125.0,141.0,141.0,125.0,200.0,3,2.547215700149536,None,,,,,0,0,0,0,0,34,34,47,237.6704385280609,,,,,,,,,,,,,,,,,,,,,,,,,,,,,,,,,,,,,,,,,,,,,,,,,,,,,,,,,,,,,,,,,,,,,,,,,,,,,,,,,200.0,125.0,141.0,141.0,125.0,200.0,2.1,2.11,-229,270,0,253,266,-281,237.65576124191284,237.65588450431824,237.65943598747253,237.6704385280609,237.81902480125427,237.81902480125427,237.81902480125427,237.81902480125427,237.81902480125427,237.81902480125427,237.81902480125427,240.2278094291687,3,2.547215700149536,None,,,,,,,,,,,,,,,,,,123,2,2025-02-26_11h25.24.852,comp,2024.2.4,56.34438242623303,2025-02-26 11h25.45.369575 -0500,
35,35,0,critical,dwh,20.0,2.1,upper,141.0,141.0,125.0,200.0,200.0,125.0,2,1.4836580753326416,None,,,,,0,0,0,0,0,35,35,31,240.24703812599182,,,,,,,,,,,,,,,,,,,,,,,,,,,,,,,,,,,,,,,,,,,,,,,,,,,,,,,,,,,,,,,,,,,,,,,,,,,,,,,,,141.0,141.0,125.0,200.0,200.0,125.0,2.1,2.12,-266,-261,0,-272,258,271,240.22944164276123,240.2295162677765,240.2327811717987,240.24703812599182,240.38783764839172,240.38783764839172,240.38783764839172,240.38783764839172,240.38783764839172,240.38783764839172,240.38783764839172,241.73313283920288,2,1.4836580753326416,None,,,,,,,,,,,,,,,,,,123,2,2025-02-26_11h25.24.852,comp,2024.2.4,56.34438242623303,2025-02-26 11h25.45.369575 -0500,
36,36,0,critical,whd,20.0,4.0,lower,57.0,133.0,133.0,57.0,78.0,78.0,2,1.8669676780700684,None,,,,,0,0,0,0,0,36,36,94,241.75042247772217,,,,,,,,,,,,,,,,,,,,,,,,,,,,,,,,,,,,,,,,,,,,,,,,,,,,,,,,,,,,,,,,,,,,,,,,,,,,,,,,,57.0,133.0,133.0,57.0,78.0,78.0,4.0,4.2,-191,0,0,-273,164,12,241.73479342460632,241.73487424850464,241.73830556869507,241.75042247772217,241.89039421081543,241.89039421081543,241.89039421081543,241.89039421081543,241.89039421081543,241.89039421081543,241.89039421081543,243.61951446533203,2,1.8669676780700684,None,,,,,,,,,,,,,,,,,,123,2,2025-02-26_11h25.24.852,comp,2024.2.4,56.34438242623303,2025-02-26 11h25.45.369575 -0500,
37,37,0,critical,dhw,35.0,1.0,lower,70.0,70.0,133.0,57.0,57.0,133.0,2,1.8210861682891846,None,,,,,0,0,0,0,0,37,37,48,243.6360239982605,,,,,,,,,,,,,,,,,,,,,,,,,,,,,,,,,,,,,,,,,,,,,,,,,,,,,,,,,,,,,,,,,,,,,,,,,,,,,,,,,70.0,70.0,133.0,57.0,57.0,133.0,1.0,1.2,-160,19,0,13,191,14,243.62100267410278,243.62107801437378,243.62417912483215,243.6360239982605,243.79471349716187,243.79471349716187,243.79471349716187,243.79471349716187,243.79471349716187,243.79471349716187,243.79471349716187,245.4695541858673,2,1.8210861682891846,None,,,,,,,,,,,,,,,,,,123,2,2025-02-26_11h25.24.852,comp,2024.2.4,56.34438242623303,2025-02-26 11h25.45.369575 -0500,
38,38,0,filler_random,None,None,None,None,None,None,None,None,None,None,3,2.663635730743408,None,,,,,0,0,0,0,0,38,38,143,245.4894666671753,,,,,,,,,,,,,,,,,,,,,,,,,,,,,,,,,,,,,,,,,,,,,,,,,,,,,,,,,,,,,,,,,,,,,,,,,,,,,,,,,103.85500938073713,86.43327298092642,178.60848736908395,153.58778327224258,154.79459305042275,191.0450025594823,2.2,2.21,-216,-289,0,262,268,280,245.47130012512207,245.4713785648346,245.4746150970459,245.4894666671753,245.62984919548035,245.62984919548035,245.62984919548035,245.62984919548035,245.62984919548035,245.62984919548035,245.62984919548035,248.15540623664856,3,2.663635730743408,None,,,,,,,,,,,,,,,,,,123,2,2025-02-26_11h25.24.852,comp,2024.2.4,56.34438242623303,2025-02-26 11h25.45.369575 -0500,
39,39,0,critical,wdh,20.0,3.0,lower,57.0,133.0,78.0,78.0,133.0,57.0,3,21.870641469955444,None,,,,,0,0,0,0,0,39,39,80,248.1711449623108,,,,,,,,,,,,,,,,,,,,,,,,,,,,,,,,,,,,,,,,,,,,,,,,,,,,,,,,,,,,,,,,,,,,,,,,,,,,,,,,,57.0,133.0,78.0,78.0,133.0,57.0,3.0,3.1,-202,281,0,7,164,-252,248.15687251091003,248.15700387954712,248.16040897369385,248.1711449623108,248.32184553146362,248.32184553146362,248.32184553146362,248.32184553146362,248.32184553146362,248.32184553146362,248.32184553146362,270.0457384586334,3,21.870641469955444,None,,,,,,,,,,,,,,,,,,123,2,2025-02-26_11h25.24.852,comp,2024.2.4,56.34438242623303,2025-02-26 11h25.45.369575 -0500,
40,40,0,catch,None,None,None,None,None,None,None,None,None,None,2,0.9146773815155029,None,,,,,0,0,0,0,0,40,40,126,270.0625469684601,,,,,,,,,,,,,,,,,,,,,,,,,,,,,,,,,,,,,,,,,,,,,,,,,,,,,,,,,,,,,,,,,,,,,,,,,,,,,,,,,89,101,155,170,90,100,1.0,1.2,-232,11,0,15,231,-17,270.0476553440094,270.0477349758148,270.0517613887787,270.0625469684601,270.2153832912445,270.2153832912445,270.2153832912445,270.2153832912445,270.2153832912445,270.2153832912445,270.2153832912445,270.9952566623688,2,0.9146773815155029,None,,,,,,,,,,,,,,,,,,123,2,2025-02-26_11h25.24.852,comp,2024.2.4,56.34438242623303,2025-02-26 11h25.45.369575 -0500,
41,41,0,critical,dhw,20.0,2.1,lower,78.0,78.0,133.0,57.0,57.0,133.0,3,1.7579963207244873,None,,,,,0,0,0,0,0,41,41,2,271.01166224479675,,,,,,,,,,,,,,,,,,,,,,,,,,,,,,,,,,,,,,,,,,,,,,,,,,,,,,,,,,,,,,,,,,,,,,,,,,,,,,,,,78.0,78.0,133.0,57.0,57.0,133.0,2.1,2.11,-164,263,0,251,191,-251,270.9968116283417,270.99689078330994,271.00007581710815,271.01166224479675,271.15828132629395,271.15828132629395,271.15828132629395,271.15828132629395,271.15828132629395,271.15828132629395,271.15828132629395,272.77996730804443,3,1.7579963207244873,None,,,,,,,,,,,,,,,,,,123,2,2025-02-26_11h25.24.852,comp,2024.2.4,56.34438242623303,2025-02-26 11h25.45.369575 -0500,
42,42,0,critical,dhw,35.0,1.0,upper,127.0,127.0,200.0,125.0,125.0,200.0,3,1.6481590270996094,None,,,,,0,0,0,0,0,42,42,49,272.8010175228119,,,,,,,,,,,,,,,,,,,,,,,,,,,,,,,,,,,,,,,,,,,,,,,,,,,,,,,,,,,,,,,,,,,,,,,,,,,,,,,,,127.0,127.0,200.0,125.0,125.0,200.0,1.0,1.1,-702,255,-480,274,-222,269,272.7814826965332,272.78155875205994,272.78477787971497,272.8010175228119,272.94637727737427,272.94637727737427,272.94637727737427,272.94637727737427,272.94637727737427,272.94637727737427,272.94637727737427,274.46583557128906,3,1.6481590270996094,None,,,,,,,,,,,,,,,,,,123,2,2025-02-26_11h25.24.852,comp,2024.2.4,56.34438242623303,2025-02-26 11h25.45.369575 -0500,
43,43,0,critical,dhw,35.0,3.0,upper,127.0,127.0,200.0,125.0,125.0,200.0,3,1.6475625038146973,None,,,,,0,0,0,0,0,43,43,51,274.4822561740875,,,,,,,,,,,,,,,,,,,,,,,,,,,,,,,,,,,,,,,,,,,,,,,,,,,,,,,,,,,,,,,,,,,,,,,,,,,,,,,,,127.0,127.0,200.0,125.0,125.0,200.0,3.0,3.1,-222,275,0,7,258,-278,274.4676237106323,274.46769881248474,274.4715735912323,274.4822561740875,274.6332838535309,274.6332838535309,274.6332838535309,274.6332838535309,274.6332838535309,274.6332838535309,274.6332838535309,276.13806796073914,3,1.6475625038146973,None,,,,,,,,,,,,,,,,,,123,2,2025-02-26_11h25.24.852,comp,2024.2.4,56.34438242623303,2025-02-26 11h25.45.369575 -0500,
44,44,0,filler_square,None,None,None,None,None,None,None,None,None,None,2,1.3701050281524658,None,,,,,0,0,0,0,0,44,44,182,276.15903902053833,,,,,,,,,,,,,,,,,,,,,,,,,,,,,,,,,,,,,,,,,,,,,,,,,,,,,,,,,,,,,,,,,,,,,,,,,,,,,,,,,80.39847711483206,74.65599572574175,106.75863197480709,106.75863197480709,57.67306280013225,84.11757705892325,2.1,2.11,-187,263,0,275,191,-272,276.1401083469391,276.140189409256,276.1434726715088,276.15903902053833,276.3004081249237,276.3004081249237,276.3004081249237,276.3004081249237,276.3004081249237,276.3004081249237,276.3004081249237,277.5326111316681,2,1.3701050281524658,None,,,,,,,,,,,,,,,,,,123,2,2025-02-26_11h25.24.852,comp,2024.2.4,56.34438242623303,2025-02-26 11h25.45.369575 -0500,
45,45,0,critical,dwh,20.0,3.0,lower,78.0,78.0,57.0,133.0,133.0,57.0,3,2.581430673599243,None,,,,,0,0,0,0,0,45,45,68,277.5484108924866,,,,,,,,,,,,,,,,,,,,,,,,,,,,,,,,,,,,,,,,,,,,,,,,,,,,,,,,,,,,,,,,,,,,,,,,,,,,,,,,,78.0,78.0,57.0,133.0,133.0,57.0,3.0,3.1,-202,272,0,-10,191,-275,277.5341942310333,277.53427171707153,277.5373158454895,277.5484108924866,277.6867504119873,277.6867504119873,277.6867504119873,277.6867504119873,277.6867504119873,277.6867504119873,277.6867504119873,280.1375596523285,3,2.581430673599243,None,,,,,,,,,,,,,,,,,,123,2,2025-02-26_11h25.24.852,comp,2024.2.4,56.34438242623303,2025-02-26 11h25.45.369575 -0500,
46,46,0,filler_square,None,None,None,None,None,None,None,None,None,None,3,2.0306434631347656,None,,,,,0,0,0,0,0,46,46,176,280.154568195343,,,,,,,,,,,,,,,,,,,,,,,,,,,,,,,,,,,,,,,,,,,,,,,,,,,,,,,,,,,,,,,,,,,,,,,,,,,,,,,,,96.69413340392056,66.25357773569499,104.60123119703977,58.9512293479637,121.96896705731017,121.96896705731017,2.2,2.21,-159,-267,0,273,186,252,280.13942885398865,280.1395642757416,280.142778635025,280.154568195343,280.29925179481506,280.29925179481506,280.29925179481506,280.29925179481506,280.29925179481506,280.29925179481506,280.29925179481506,282.203830242157,3,2.0306434631347656,None,,,,,,,,,,,,,,,,,,123,2,2025-02-26_11h25.24.852,comp,2024.2.4,56.34438242623303,2025-02-26 11h25.45.369575 -0500,
47,47,0,catch,None,None,None,None,None,None,None,None,None,None,3,1.3389170169830322,None,,,,,0,0,0,0,0,47,47,128,282.2232418060303,,,,,,,,,,,,,,,,,,,,,,,,,,,,,,,,,,,,,,,,,,,,,,,,,,,,,,,,,,,,,,,,,,,,,,,,,,,,,,,,,99,91,70,120,154,171,2.1,2.11,-202,253,0,270,242,-275,282.205943107605,282.2060308456421,282.20933961868286,282.2232418060303,282.3661298751831,282.3661298751831,282.3661298751831,282.3661298751831,282.3661298751831,282.3661298751831,282.3661298751831,283.56752586364746,3,1.3389170169830322,None,,,,,,,,,,,,,,,,,,123,2,2025-02-26_11h25.24.852,comp,2024.2.4,56.34438242623303,2025-02-26 11h25.45.369575 -0500,
48,48,0,critical,whd,20.0,1.0,lower,57.0,133.0,133.0,57.0,78.0,78.0,2,5.137898921966553,None,,,,,0,0,0,0,0,48,48,90,283.58340311050415,,,,,,,,,,,,,,,,,,,,,,,,,,,,,,,,,,,,,,,,,,,,,,,,,,,,,,,,,,,,,,,,,,,,,,,,,,,,,,,,,57.0,133.0,133.0,57.0,78.0,78.0,1.0,1.2,-191,13,0,14,164,9,283.568972826004,283.56905341148376,283.57260513305664,283.58340311050415,283.7339596748352,283.7339596748352,283.7339596748352,283.7339596748352,283.7339596748352,283.7339596748352,283.7339596748352,288.7347090244293,2,5.137898921966553,None,,,,,,,,,,,,,,,,,,123,2,2025-02-26_11h25.24.852,comp,2024.2.4,56.34438242623303,2025-02-26 11h25.45.369575 -0500,
49,49,0,critical,wdh,20.0,2.1,upper,125.0,200.0,141.0,141.0,200.0,125.0,1,2.2749922275543213,None,,,,,0,0,0,0,0,49,49,35,288.75042939186096,,,,,,,,,,,,,,,,,,,,,,,,,,,,,,,,,,,,,,,,,,,,,,,,,,,,,,,,,,,,,,,,,,,,,,,,,,,,,,,,,125.0,200.0,141.0,141.0,200.0,125.0,2.1,2.12,-266,-253,0,-280,229,257,288.7363717556,288.73645067214966,288.7400951385498,288.75042939186096,288.8982229232788,288.8982229232788,288.8982229232788,288.8982229232788,288.8982229232788,288.8982229232788,288.8982229232788,291.0452575683594,1,2.2749922275543213,None,,,,,,,,,,,,,,,,,,123,2,2025-02-26_11h25.24.852,comp,2024.2.4,56.34438242623303,2025-02-26 11h25.45.369575 -0500,
50,50,0,critical,whd,35.0,1.0,lower,57.0,133.0,133.0,57.0,70.0,70.0,2,1.935760498046875,None,,,,,0,0,0,0,0,50,50,84,291.0655870437622,,,,,,,,,,,,,,,,,,,,,,,,,,,,,,,,,,,,,,,,,,,,,,,,,,,,,,,,,,,,,,,,,,,,,,,,,,,,,,,,,57.0,133.0,133.0,57.0,70.0,70.0,1.0,1.1,-671,262,-480,285,-320,258,291.04684352874756,291.04691767692566,291.05029487609863,291.0655870437622,291.20284271240234,291.20284271240234,291.20284271240234,291.20284271240234,291.20284271240234,291.20284271240234,291.20284271240234,293.01853942871094,2,1.935760498046875,None,,,,,,,,,,,,,,,,,,123,2,2025-02-26_11h25.24.852,comp,2024.2.4,56.34438242623303,2025-02-26 11h25.45.369575 -0500,
51,51,0,critical,hdw,20.0,1.0,lower,133.0,57.0,78.0,78.0,57.0,133.0,3,2.1181704998016357,None,,,,,0,0,0,0,0,51,51,114,293.0350251197815,,,,,,,,,,,,,,,,,,,,,,,,,,,,,,,,,,,,,,,,,,,,,,,,,,,,,,,,,,,,,,,,,,,,,,,,,,,,,,,,,133.0,57.0,78.0,78.0,57.0,133.0,1.0,1.1,-644,254,-480,284,-278,278,293.02013897895813,293.02021169662476,293.02351903915405,293.0350251197815,293.1889760494232,293.1889760494232,293.1889760494232,293.1889760494232,293.1889760494232,293.1889760494232,293.1889760494232,295.16758584976196,3,2.1181704998016357,None,,,,,,,,,,,,,,,,,,123,2,2025-02-26_11h25.24.852,comp,2024.2.4,56.34438242623303,2025-02-26 11h25.45.369575 -0500,
52,52,0,critical,whd,35.0,4.0,upper,125.0,200.0,200.0,125.0,127.0,127.0,1,2.457221508026123,None,,,,,0,0,0,0,0,52,52,89,295.18411684036255,,,,,,,,,,,,,,,,,,,,,,,,,,,,,,,,,,,,,,,,,,,,,,,,,,,,,,,,,,,,,,,,,,,,,,,,,,,,,,,,,125.0,200.0,200.0,125.0,127.0,127.0,4.0,4.1,-258,-281,0,-10,222,-251,295.1692707538605,295.16934847831726,295.17268538475037,295.18411684036255,295.336056470871,295.336056470871,295.336056470871,295.336056470871,295.336056470871,295.336056470871,295.336056470871,297.64483642578125,1,2.457221508026123,None,,,,,,,,,,,,,,,,,,123,2,2025-02-26_11h25.24.852,comp,2024.2.4,56.34438242623303,2025-02-26 11h25.45.369575 -0500,
53,53,0,critical,hdw,35.0,3.0,upper,200.0,125.0,127.0,127.0,125.0,200.0,3,1.8213024139404297,None,,,,,0,0,0,0,0,53,53,111,297.66075110435486,,,,,,,,,,,,,,,,,,,,,,,,,,,,,,,,,,,,,,,,,,,,,,,,,,,,,,,,,,,,,,,,,,,,,,,,,,,,,,,,,200.0,125.0,127.0,127.0,125.0,200.0,3.0,3.2,-222,-285,0,-8,260,283,297.64649772644043,297.6465747356415,297.64981341362,297.66075110435486,297.80509877204895,297.80509877204895,297.80509877204895,297.80509877204895,297.80509877204895,297.80509877204895,297.80509877204895,299.48945903778076,3,1.8213024139404297,None,,,,,,,,,,,,,,,,,,123,2,2025-02-26_11h25.24.852,comp,2024.2.4,56.34438242623303,2025-02-26 11h25.45.369575 -0500,
54,54,0,filler_square,None,None,None,None,None,None,None,None,None,None,3,12.070684909820557,None,,,,,0,0,0,0,0,54,54,192,299.50706577301025,,,,,,,,,,,,,,,,,,,,,,,,,,,,,,,,,,,,,,,,,,,,,,,,,,,,,,,,,,,,,,,,,,,,,,,,,,,,,,,,,60.46856253619301,60.46856253619301,57.281867629843,57.776673781007524,57.198012951210885,60.13307469843858,2.2,2.22,-155,269,0,-254,155,-288,299.49147963523865,299.4915599822998,299.4954402446747,299.50706577301025,299.6550521850586,299.6550521850586,299.6550521850586,299.6550521850586,299.6550521850586,299.6550521850586,299.6550521850586,311.5789415836334,3,12.070684909820557,None,,,,,,,,,,,,,,,,,,123,2,2025-02-26_11h25.24.852,comp,2024.2.4,56.34438242623303,2025-02-26 11h25.45.369575 -0500,
55,55,0,catch,None,None,None,None,None,None,None,None,None,None,3,1.418069839477539,None,,,,,0,0,0,0,0,55,55,127,311.59123849868774,,,,,,,,,,,,,,,,,,,,,,,,,,,,,,,,,,,,,,,,,,,,,,,,,,,,,,,,,,,,,,,,,,,,,,,,,,,,,,,,,72,118,82,108,182,143,4.0,4.2,-209,18,0,-281,222,14,311.57973742485046,311.57976937294006,311.58093214035034,311.59123849868774,311.7428855895996,311.7428855895996,311.7428855895996,311.7428855895996,311.7428855895996,311.7428855895996,311.7428855895996,313.0245497226715,3,1.418069839477539,None,,,,,,,,,,,,,,,,,,123,2,2025-02-26_11h25.24.852,comp,2024.2.4,56.34438242623303,2025-02-26 11h25.45.369575 -0500,
56,56,0,critical,dhw,20.0,4.0,upper,141.0,141.0,200.0,125.0,125.0,200.0,3,1.8649818897247314,None,,,,,0,0,0,0,0,56,56,59,313.0408103466034,,,,,,,,,,,,,,,,,,,,,,,,,,,,,,,,,,,,,,,,,,,,,,,,,,,,,,,,,,,,,,,,,,,,,,,,,,,,,,,,,141.0,141.0,200.0,125.0,125.0,200.0,4.0,4.1,-229,-281,0,-5,258,-287,313.0260934829712,313.0261676311493,313.02929425239563,313.0408103466034,313.1955862045288,313.1955862045288,313.1955862045288,313.1955862045288,313.1955862045288,313.1955862045288,313.1955862045288,314.9085941314697,3,1.8649818897247314,None,,,,,,,,,,,,,,,,,,123,2,2025-02-26_11h25.24.852,comp,2024.2.4,56.34438242623303,2025-02-26 11h25.45.369575 -0500,
57,57,0,catch,None,None,None,None,None,None,None,None,None,None,1,1.2167446613311768,None,,,,,0,0,0,0,0,57,57,125,314.92868161201477,,,,,,,,,,,,,,,,,,,,,,,,,,,,,,,,,,,,,,,,,,,,,,,,,,,,,,,,,,,,,,,,,,,,,,,,,,,,,,,,,175,150,98,92,64,126,3.0,3.1,-217,263,0,10,205,-265,314.91049218177795,314.91056871414185,314.9136264324188,314.92868161201477,315.0760908126831,315.0760908126831,315.0760908126831,315.0760908126831,315.0760908126831,315.0760908126831,315.0760908126831,316.1605544090271,1,1.2167446613311768,None,,,,,,,,,,,,,,,,,,123,2,2025-02-26_11h25.24.852,comp,2024.2.4,56.34438242623303,2025-02-26 11h25.45.369575 -0500,
58,58,0,catch,None,None,None,None,None,None,None,None,None,None,3,1.8244268894195557,None,,,,,0,0,0,0,0,58,58,129,316.1776044368744,,,,,,,,,,,,,,,,,,,,,,,,,,,,,,,,,,,,,,,,,,,,,,,,,,,,,,,,,,,,,,,,,,,,,,,,,,,,,,,,,133,57,129,61,140,185,1.0,1.1,-635,276,-480,284,-261,251,316.1624662876129,316.1625428199768,316.1664500236511,316.1776044368744,316.32704854011536,316.32704854011536,316.32704854011536,316.32704854011536,316.32704854011536,316.32704854011536,316.32704854011536,318.01220870018005,3,1.8244268894195557,None,,,,,,,,,,,,,,,,,,123,2,2025-02-26_11h25.24.852,comp,2024.2.4,56.34438242623303,2025-02-26 11h25.45.369575 -0500,
59,59,0,critical,wdh,20.0,4.0,lower,57.0,133.0,78.0,78.0,133.0,57.0,3,2.9646260738372803,None,,,,,0,0,0,0,0,59,59,82,318.02868723869324,,,,,,,,,,,,,,,,,,,,,,,,,,,,,,,,,,,,,,,,,,,,,,,,,,,,,,,,,,,,,,,,,,,,,,,,,,,,,,,,,57.0,133.0,78.0,78.0,133.0,57.0,4.0,4.2,-202,-3,0,-281,164,0,318.013879776001,318.0139935016632,318.0178155899048,318.02868723869324,318.1766998767853,318.1766998767853,318.1766998767853,318.1766998767853,318.1766998767853,318.1766998767853,318.1766998767853,321.00445318222046,3,2.9646260738372803,None,,,,,,,,,,,,,,,,,,123,2,2025-02-26_11h25.24.852,comp,2024.2.4,56.34438242623303,2025-02-26 11h25.45.369575 -0500,
60,60,0,filler_random,None,None,None,None,None,None,None,None,None,None,3,1.377685308456421,None,,,,,0,0,0,0,0,60,60,141,321.02357602119446,,,,,,,,,,,,,,,,,,,,,,,,,,,,,,,,,,,,,,,,,,,,,,,,,,,,,,,,,,,,,,,,,,,,,,,,,,,,,,,,,107.53493342075762,124.13201529452093,74.69069357913484,61.31201535335753,135.44180888887354,181.5743720374557,2.1,2.12,-189,-274,0,-277,217,272,321.0064194202423,321.006498336792,321.00973653793335,321.02357602119446,321.1641755104065,321.1641755104065,321.1641755104065,321.1641755104065,321.1641755104065,321.1641755104065,321.1641755104065,322.41400384902954,3,1.377685308456421,None,,,,,,,,,,,,,,,,,,123,2,2025-02-26_11h25.24.852,comp,2024.2.4,56.34438242623303,2025-02-26 11h25.45.369575 -0500,
61,61,0,critical,whd,35.0,2.1,lower,57.0,133.0,133.0,57.0,70.0,70.0,2,2.464160203933716,None,,,,,0,0,0,0,0,61,61,36,322.4330463409424,,,,,,,,,,,,,,,,,,,,,,,,,,,,,,,,,,,,,,,,,,,,,,,,,,,,,,,,,,,,,,,,,,,,,,,,,,,,,,,,,57.0,133.0,133.0,57.0,70.0,70.0,2.1,2.12,-191,-276,0,-264,160,255,322.41564655303955,322.41572737693787,322.418669462204,322.4330463409424,322.5787136554718,322.5787136554718,322.5787136554718,322.5787136554718,322.5787136554718,322.5787136554718,322.5787136554718,324.91196393966675,2,2.464160203933716,None,,,,,,,,,,,,,,,,,,123,2,2025-02-26_11h25.24.852,comp,2024.2.4,56.34438242623303,2025-02-26 11h25.45.369575 -0500,
62,62,0,filler_random,None,None,None,None,None,None,None,None,None,None,3,1.1613349914550781,None,,,,,0,0,0,0,0,62,62,146,324.92850852012634,,,,,,,,,,,,,,,,,,,,,,,,,,,,,,,,,,,,,,,,,,,,,,,,,,,,,,,,,,,,,,,,,,,,,,,,,,,,,,,,,68.47113080023942,136.4008745875071,62.56503213278164,118.06020480970787,146.52051094015454,183.6344695209231,2.1,2.12,-223,-272,0,-265,247,256,324.9137156009674,324.9138536453247,324.91714358329773,324.92850852012634,325.08404064178467,325.08404064178467,325.08404064178467,325.08404064178467,325.08404064178467,325.08404064178467,325.08404064178467,326.0972123146057,3,1.1613349914550781,None,,,,,,,,,,,,,,,,,,123,2,2025-02-26_11h25.24.852,comp,2024.2.4,56.34438242623303,2025-02-26 11h25.45.369575 -0500,
63,63,0,critical,hwd,35.0,2.1,upper,200.0,125.0,125.0,200.0,127.0,127.0,2,1.9204866886138916,None,,,,,0,0,0,0,0,63,63,41,326.113080739975,,,,,,,,,,,,,,,,,,,,,,,,,,,,,,,,,,,,,,,,,,,,,,,,,,,,,,,,,,,,,,,,,,,,,,,,,,,,,,,,,200.0,125.0,125.0,200.0,127.0,127.0,2.1,2.11,-258,290,0,257,260,-284,326.0987331867218,326.0988144874573,326.10228657722473,326.113080739975,326.26620388031006,326.26620388031006,326.26620388031006,326.26620388031006,326.26620388031006,326.26620388031006,326.26620388031006,328.0359673500061,2,1.9204866886138916,None,,,,,,,,,,,,,,,,,,123,2,2025-02-26_11h25.24.852,comp,2024.2.4,56.34438242623303,2025-02-26 11h25.45.369575 -0500,
64,64,0,critical,hdw,20.0,3.0,lower,133.0,57.0,78.0,78.0,57.0,133.0,1,2.6667613983154297,None,,,,,0,0,0,0,0,64,64,116,328.054404258728,,,,,,,,,,,,,,,,,,,,,,,,,,,,,,,,,,,,,,,,,,,,,,,,,,,,,,,,,,,,,,,,,,,,,,,,,,,,,,,,,133.0,57.0,78.0,78.0,57.0,133.0,3.0,3.1,-164,267,0,-3,202,-275,328.03748059272766,328.037556886673,328.0404670238495,328.054404258728,328.19736099243164,328.19736099243164,328.19736099243164,328.19736099243164,328.19736099243164,328.19736099243164,328.19736099243164,330.7312023639679,1,2.6667613983154297,None,,,,,,,,,,,,,,,,,,123,2,2025-02-26_11h25.24.852,comp,2024.2.4,56.34438242623303,2025-02-26 11h25.45.369575 -0500,
65,65,0,critical,hwd,20.0,3.0,upper,200.0,125.0,125.0,200.0,141.0,141.0,1,2.8857760429382324,None,,,,,0,0,0,0,0,65,65,105,330.74752974510193,,,,,,,,,,,,,,,,,,,,,,,,,,,,,,,,,,,,,,,,,,,,,,,,,,,,,,,,,,,,,,,,,,,,,,,,,,,,,,,,,200.0,125.0,125.0,200.0,141.0,141.0,3.0,3.1,-258,278,0,-6,266,-274,330.7328791618347,330.7330460548401,330.73650646209717,330.74752974510193,330.90054988861084,330.90054988861084,330.90054988861084,330.90054988861084,330.90054988861084,330.90054988861084,330.90054988861084,333.6463735103607,1,2.8857760429382324,None,,,,,,,,,,,,,,,,,,123,2,2025-02-26_11h25.24.852,comp,2024.2.4,56.34438242623303,2025-02-26 11h25.45.369575 -0500,
66,66,0,critical,dwh,35.0,3.0,upper,127.0,127.0,125.0,200.0,200.0,125.0,3,2.802563190460205,None,,,,,0,0,0,0,0,66,66,63,333.6627998352051,,,,,,,,,,,,,,,,,,,,,,,,,,,,,,,,,,,,,,,,,,,,,,,,,,,,,,,,,,,,,,,,,,,,,,,,,,,,,,,,,127.0,127.0,125.0,200.0,200.0,125.0,3.0,3.1,-260,267,0,-16,258,-276,333.6478726863861,333.64797139167786,333.6508958339691,333.6627998352051,333.8147552013397,333.8147552013397,333.8147552013397,333.8147552013397,333.8147552013397,333.8147552013397,333.8147552013397,336.4837763309479,3,2.802563190460205,None,,,,,,,,,,,,,,,,,,123,2,2025-02-26_11h25.24.852,comp,2024.2.4,56.34438242623303,2025-02-26 11h25.45.369575 -0500,
67,67,0,filler_square,None,None,None,None,None,None,None,None,None,None,1,1.3736939430236816,None,,,,,0,0,0,0,0,67,67,193,336.49960350990295,,,,,,,,,,,,,,,,,,,,,,,,,,,,,,,,,,,,,,,,,,,,,,,,,,,,,,,,,,,,,,,,,,,,,,,,,,,,,,,,,184.9719592626845,184.9719592626845,79.84527975725402,175.41340652213734,80.48563435274495,175.2965586044673,2.2,2.22,-276,255,0,-258,271,-254,336.48557138442993,336.48564743995667,336.48909068107605,336.49960350990295,336.6528604030609,336.6528604030609,336.6528604030609,336.6528604030609,336.6528604030609,336.6528604030609,336.6528604030609,337.8861804008484,1,1.3736939430236816,None,,,,,,,,,,,,,,,,,,123,2,2025-02-26_11h25.24.852,comp,2024.2.4,56.34438242623303,2025-02-26 11h25.45.369575 -0500,
68,68,0,critical,wdh,35.0,3.0,lower,57.0,133.0,70.0,70.0,133.0,57.0,3,2.499483346939087,None,,,,,0,0,0,0,0,68,68,74,337.9017972946167,,,,,,,,,,,,,,,,,,,,,,,,,,,,,,,,,,,,,,,,,,,,,,,,,,,,,,,,,,,,,,,,,,,,,,,,,,,,,,,,,57.0,133.0,70.0,70.0,133.0,57.0,3.0,3.2,-198,-289,0,9,160,282,337.8878426551819,337.88791942596436,337.8914272785187,337.9017972946167,338.047678232193,338.047678232193,338.047678232193,338.047678232193,338.047678232193,338.047678232193,338.047678232193,340.4177749156952,3,2.499483346939087,None,,,,,,,,,,,,,,,,,,123,2,2025-02-26_11h25.24.852,comp,2024.2.4,56.34438242623303,2025-02-26 11h25.45.369575 -0500,
69,69,0,filler_square,None,None,None,None,None,None,None,None,None,None,1,1.7759945392608643,None,,,,,0,0,0,0,0,69,69,178,340.4340076446533,,,,,,,,,,,,,,,,,,,,,,,,,,,,,,,,,,,,,,,,,,,,,,,,,,,,,,,,,,,,,,,,,,,,,,,,,,,,,,,,,158.84245822893183,158.84245822893183,157.04618679729234,133.25452283804304,106.82050141256062,58.17629214813819,3.0,3.2,-242,-253,0,8,192,253,340.41954374313354,340.41961789131165,340.4237036705017,340.4340076446533,340.5849435329437,340.5849435329437,340.5849435329437,340.5849435329437,340.5849435329437,340.5849435329437,340.5849435329437,342.2186691761017,1,1.7759945392608643,None,,,,,,,,,,,,,,,,,,123,2,2025-02-26_11h25.24.852,comp,2024.2.4,56.34438242623303,2025-02-26 11h25.45.369575 -0500,
70,70,0,filler_random,None,None,None,None,None,None,None,None,None,None,1,2.3510539531707764,None,,,,,0,0,0,0,0,70,70,169,342.2345006465912,,,,,,,,,,,,,,,,,,,,,,,,,,,,,,,,,,,,,,,,,,,,,,,,,,,,,,,,,,,,,,,,,,,,,,,,,,,,,,,,,180.8528555230466,187.89202054794,135.9411525364757,139.61566340584557,91.62998537218371,105.09363525179423,3.0,3.1,-260,286,0,-2,218,-263,342.22037053108215,342.2204477787018,342.22385573387146,342.2345006465912,342.3721978664398,342.3721978664398,342.3721978664398,342.3721978664398,342.3721978664398,342.3721978664398,342.3721978664398,344.5877904891968,1,2.3510539531707764,None,,,,,,,,,,,,,,,,,,123,2,2025-02-26_11h25.24.852,comp,2024.2.4,56.34438242623303,2025-02-26 11h25.45.369575 -0500,
71,71,0,critical,whd,20.0,3.0,lower,57.0,133.0,133.0,57.0,78.0,78.0,2,3.037384271621704,None,,,,,0,0,0,0,0,71,71,92,344.60427927970886,,,,,,,,,,,,,,,,,,,,,,,,,,,,,,,,,,,,,,,,,,,,,,,,,,,,,,,,,,,,,,,,,,,,,,,,,,,,,,,,,57.0,133.0,133.0,57.0,78.0,78.0,3.0,3.2,-191,-256,0,-18,164,268,344.58962869644165,344.58970403671265,344.59345984458923,344.60427927970886,344.7618873119354,344.7618873119354,344.7618873119354,344.7618873119354,344.7618873119354,344.7618873119354,344.7618873119354,347.6460506916046,2,3.037384271621704,None,,,,,,,,,,,,,,,,,,123,2,2025-02-26_11h25.24.852,comp,2024.2.4,56.34438242623303,2025-02-26 11h25.45.369575 -0500,
72,72,0,critical,whd,20.0,2.1,lower,57.0,133.0,133.0,57.0,78.0,78.0,2,3.809323787689209,None,,,,,0,0,0,0,0,72,72,38,347.6640031337738,,,,,,,,,,,,,,,,,,,,,,,,,,,,,,,,,,,,,,,,,,,,,,,,,,,,,,,,,,,,,,,,,,,,,,,,,,,,,,,,,57.0,133.0,133.0,57.0,78.0,78.0,2.1,2.12,-191,-258,0,-262,164,283,347.6476502418518,347.6477243900299,347.6509847640991,347.6640031337738,347.80138516426086,347.80138516426086,347.80138516426086,347.80138516426086,347.80138516426086,347.80138516426086,347.80138516426086,351.48906445503235,2,3.809323787689209,None,,,,,,,,,,,,,,,,,,123,2,2025-02-26_11h25.24.852,comp,2024.2.4,56.34438242623303,2025-02-26 11h25.45.369575 -0500,
73,73,0,catch,None,None,None,None,None,None,None,None,None,None,2,2.7272884845733643,None,,,,,0,0,0,0,0,73,73,124,351.5063908100128,,,,,,,,,,,,,,,,,,,,,,,,,,,,,,,,,,,,,,,,,,,,,,,,,,,,,,,,,,,,,,,,,,,,,,,,,,,,,,,,,70,120,180,145,77,113,2.1,2.11,-228,259,0,283,225,-255,351.49132204055786,351.4914000034332,351.4952576160431,351.5063908100128,351.6546769142151,351.6546769142151,351.6546769142151,351.6546769142151,351.6546769142151,351.6546769142151,351.6546769142151,354.2384533882141,2,2.7272884845733643,None,,,,,,,,,,,,,,,,,,123,2,2025-02-26_11h25.24.852,comp,2024.2.4,56.34438242623303,2025-02-26 11h25.45.369575 -0500,
74,74,0,critical,hwd,20.0,2.1,lower,133.0,57.0,57.0,133.0,78.0,78.0,1,4.787133455276489,None,,,,,0,0,0,0,0,74,74,18,354.2542176246643,,,,,,,,,,,,,,,,,,,,,,,,,,,,,,,,,,,,,,,,,,,,,,,,,,,,,,,,,,,,,,,,,,,,,,,,,,,,,,,,,133.0,57.0,57.0,133.0,78.0,78.0,2.1,2.11,-191,277,0,266,202,-272,354.2399015426636,354.2400104999542,354.24344420433044,354.2542176246643,354.402752161026,354.402752161026,354.402752161026,354.402752161026,354.402752161026,354.402752161026,354.402752161026,359.06016397476196,1,4.787133455276489,None,,,,,,,,,,,,,,,,,,123,2,2025-02-26_11h25.24.852,comp,2024.2.4,56.34438242623303,2025-02-26 11h25.45.369575 -0500,
75,75,0,filler_square,None,None,None,None,None,None,None,None,None,None,3,1.6586527824401855,None,,,,,0,0,0,0,0,75,75,177,359.0790057182312,,,,,,,,,,,,,,,,,,,,,,,,,,,,,,,,,,,,,,,,,,,,,,,,,,,,,,,,,,,,,,,,,,,,,,,,,,,,,,,,,108.21044474302828,152.45068704722462,160.33022999460007,61.4203947567818,179.8817216065724,179.8817216065724,1.0,1.1,-683,257,-480,261,-263,278,359.06263399124146,359.0627191066742,359.0656735897064,359.0790057182312,359.2229850292206,359.2229850292206,359.2229850292206,359.2229850292206,359.2229850292206,359.2229850292206,359.2229850292206,360.739958524704,3,1.6586527824401855,None,,,,,,,,,,,,,,,,,,123,2,2025-02-26_11h25.24.852,comp,2024.2.4,56.34438242623303,2025-02-26 11h25.45.369575 -0500,
76,76,0,filler_random,None,None,None,None,None,None,None,None,None,None,3,3.7058749198913574,None,,,,,0,0,0,0,0,76,76,142,360.760737657547,,,,,,,,,,,,,,,,,,,,,,,,,,,,,,,,,,,,,,,,,,,,,,,,,,,,,,,,,,,,,,,,,,,,,,,,,,,,,,,,,115.5714865565172,150.36429053316806,188.4748705315675,102.61378145036832,183.7633006655976,119.57287169804869,2.1,2.12,-222,-268,0,-265,207,279,360.74169921875,360.7417995929718,360.7453546524048,360.760737657547,360.90721225738525,360.90721225738525,360.90721225738525,360.90721225738525,360.90721225738525,360.90721225738525,360.90721225738525,364.473571062088,3,3.7058749198913574,None,,,,,,,,,,,,,,,,,,123,2,2025-02-26_11h25.24.852,comp,2024.2.4,56.34438242623303,2025-02-26 11h25.45.369575 -0500,
77,77,0,critical,whd,20.0,3.0,upper,125.0,200.0,200.0,125.0,141.0,141.0,1,4.432253360748291,None,,,,,0,0,0,0,0,77,77,93,364.48975920677185,,,,,,,,,,,,,,,,,,,,,,,,,,,,,,,,,,,,,,,,,,,,,,,,,,,,,,,,,,,,,,,,,,,,,,,,,,,,,,,,,125.0,200.0,200.0,125.0,141.0,141.0,3.0,3.1,-258,281,0,-4,229,-280,364.4750578403473,364.4751329421997,364.47804832458496,364.48975920677185,364.64343905448914,364.64343905448914,364.64343905448914,364.64343905448914,364.64343905448914,364.64343905448914,364.64343905448914,368.92656683921814,1,4.432253360748291,None,,,,,,,,,,,,,,,,,,123,2,2025-02-26_11h25.24.852,comp,2024.2.4,56.34438242623303,2025-02-26 11h25.45.369575 -0500,
78,78,0,filler_random,None,None,None,None,None,None,None,None,None,None,3,3.2104861736297607,None,,,,,0,0,0,0,0,78,78,161,368.94365215301514,,,,,,,,,,,,,,,,,,,,,,,,,,,,,,,,,,,,,,,,,,,,,,,,,,,,,,,,,,,,,,,,,,,,,,,,,,,,,,,,,111.64279267403788,97.41465791803353,93.09508249836568,149.88866885461474,155.80944248199796,153.76139357093248,2.1,2.11,-220,267,0,270,248,-275,368.92857027053833,368.9286618232727,368.9321813583374,368.94365215301514,369.09214997291565,369.09214997291565,369.09214997291565,369.09214997291565,369.09214997291565,369.09214997291565,369.09214997291565,372.15989208221436,3,3.2104861736297607,None,,,,,,,,,,,,,,,,,,123,2,2025-02-26_11h25.24.852,comp,2024.2.4,56.34438242623303,2025-02-26 11h25.45.369575 -0500,
79,79,0,critical,dhw,20.0,1.0,lower,78.0,78.0,133.0,57.0,57.0,133.0,2,2.2094085216522217,None,,,,,0,0,0,0,0,79,79,54,372.1758842468262,,,,,,,,,,,,,,,,,,,,,,,,,,,,,,,,,,,,,,,,,,,,,,,,,,,,,,,,,,,,,,,,,,,,,,,,,,,,,,,,,78.0,78.0,133.0,57.0,57.0,133.0,1.0,1.1,-644,255,-480,267,-289,254,372.16152930259705,372.16160917282104,372.16488552093506,372.1758842468262,372.3278570175171,372.3278570175171,372.3278570175171,372.3278570175171,372.3278570175171,372.3278570175171,372.3278570175171,374.3956162929535,2,2.2094085216522217,None,,,,,,,,,,,,,,,,,,123,2,2025-02-26_11h25.24.852,comp,2024.2.4,56.34438242623303,2025-02-26 11h25.45.369575 -0500,
80,80,0,filler_square,None,None,None,None,None,None,None,None,None,None,3,1.2052996158599854,None,,,,,0,0,0,0,0,80,80,187,374.41215109825134,,,,,,,,,,,,,,,,,,,,,,,,,,,,,,,,,,,,,,,,,,,,,,,,,,,,,,,,,,,,,,,,,,,,,,,,,,,,,,,,,63.70095677361254,95.55378914024226,101.08865649612584,85.72941596753506,178.60949226692318,178.60949226692318,4.0,4.2,-187,-2,0,-257,228,16,374.3975691795349,374.3976957798004,374.40126371383667,374.41215109825134,374.56470799446106,374.56470799446106,374.56470799446106,374.56470799446106,374.56470799446106,374.56470799446106,374.56470799446106,375.62769746780396,3,1.2052996158599854,None,,,,,,,,,,,,,,,,,,123,2,2025-02-26_11h25.24.852,comp,2024.2.4,56.34438242623303,2025-02-26 11h25.45.369575 -0500,
81,81,0,critical,whd,20.0,2.1,upper,125.0,200.0,200.0,125.0,141.0,141.0,2,8.277428388595581,None,,,,,0,0,0,0,0,81,81,39,375.6438846588135,,,,,,,,,,,,,,,,,,,,,,,,,,,,,,,,,,,,,,,,,,,,,,,,,,,,,,,,,,,,,,,,,,,,,,,,,,,,,,,,,125.0,200.0,200.0,125.0,141.0,141.0,2.1,2.11,-258,279,0,254,229,-289,375.62919902801514,375.62927532196045,375.6323080062866,375.6438846588135,375.7957148551941,375.7957148551941,375.7957148551941,375.7957148551941,375.7957148551941,375.7957148551941,375.7957148551941,383.93149518966675,2,8.277428388595581,None,,,,,,,,,,,,,,,,,,123,2,2025-02-26_11h25.24.852,comp,2024.2.4,56.34438242623303,2025-02-26 11h25.45.369575 -0500,
82,82,0,critical,dwh,20.0,3.0,upper,141.0,141.0,125.0,200.0,200.0,125.0,2,3.7422213554382324,None,,,,,0,0,0,0,0,82,82,69,383.94801688194275,,,,,,,,,,,,,,,,,,,,,,,,,,,,,,,,,,,,,,,,,,,,,,,,,,,,,,,,,,,,,,,,,,,,,,,,,,,,,,,,,141.0,141.0,125.0,200.0,200.0,125.0,3.0,3.1,-266,270,0,10,258,-256,383.93297600746155,383.933057308197,383.9371922016144,383.94801688194275,384.09749603271484,384.09749603271484,384.09749603271484,384.09749603271484,384.09749603271484,384.09749603271484,384.09749603271484,387.6998653411865,2,3.7422213554382324,None,,,,,,,,,,,,,,,,,,123,2,2025-02-26_11h25.24.852,comp,2024.2.4,56.34438242623303,2025-02-26 11h25.45.369575 -0500,
83,83,0,critical,whd,20.0,2.1,upper,125.0,200.0,200.0,125.0,141.0,141.0,2,2.7903189659118652,None,,,,,0,0,0,0,0,83,83,15,387.7156889438629,,,,,,,,,,,,,,,,,,,,,,,,,,,,,,,,,,,,,,,,,,,,,,,,,,,,,,,,,,,,,,,,,,,,,,,,,,,,,,,,,125.0,200.0,200.0,125.0,141.0,141.0,2.1,2.12,-258,-266,0,-282,229,287,387.7014276981354,387.7015027999878,387.7048945426941,387.7156889438629,387.8734197616577,387.8734197616577,387.8734197616577,387.8734197616577,387.8734197616577,387.8734197616577,387.8734197616577,390.52138090133667,2,2.7903189659118652,None,,,,,,,,,,,,,,,,,,123,2,2025-02-26_11h25.24.852,comp,2024.2.4,56.34438242623303,2025-02-26 11h25.45.369575 -0500,
84,84,0,filler_square,None,None,None,None,None,None,None,None,None,None,3,2.294095039367676,None,,,,,0,0,0,0,0,84,84,202,390.53946352005005,,,,,,,,,,,,,,,,,,,,,,,,,,,,,,,,,,,,,,,,,,,,,,,,,,,,,,,,,,,,,,,,,,,,,,,,,,,,,,,,,67.57465591549025,61.751556832005775,92.38471400137186,84.6334152804844,96.3057135945867,96.3057135945867,2.1,2.12,-169,-259,0,-256,186,269,390.5233211517334,390.5234179496765,390.52670669555664,390.53946352005005,390.6861002445221,390.6861002445221,390.6861002445221,390.6861002445221,390.6861002445221,390.6861002445221,390.6861002445221,392.85007071495056,3,2.294095039367676,None,,,,,,,,,,,,,,,,,,123,2,2025-02-26_11h25.24.852,comp,2024.2.4,56.34438242623303,2025-02-26 11h25.45.369575 -0500,
85,85,0,filler_square,None,None,None,None,None,None,None,None,None,None,3,2.17549467086792,None,,,,,0,0,0,0,0,85,85,196,392.8670585155487,,,,,,,,,,,,,,,,,,,,,,,,,,,,,,,,,,,,,,,,,,,,,,,,,,,,,,,,,,,,,,,,,,,,,,,,,,,,,,,,,169.61681618457385,165.87139998382992,172.6555482803701,68.21894547783216,181.62950540745578,181.62950540745578,2.2,2.21,-213,-257,0,261,221,289,392.85173869132996,392.851811170578,392.8548629283905,392.8670585155487,393.01646876335144,393.01646876335144,393.01646876335144,393.01646876335144,393.01646876335144,393.01646876335144,393.01646876335144,395.05002641677856,3,2.17549467086792,None,,,,,,,,,,,,,,,,,,123,2,2025-02-26_11h25.24.852,comp,2024.2.4,56.34438242623303,2025-02-26 11h25.45.369575 -0500,
86,86,0,filler_random,None,None,None,None,None,None,None,None,None,None,1,2.5906200408935547,None,,,,,0,0,0,0,0,86,86,144,395.0668833255768,,,,,,,,,,,,,,,,,,,,,,,,,,,,,,,,,,,,,,,,,,,,,,,,,,,,,,,,,,,,,,,,,,,,,,,,,,,,,,,,,105.37871759816397,132.17061777801638,84.38015748334196,93.20492121950423,126.16070038624207,62.99853763280009,4.0,4.1,-209,-258,0,7,174,-284,395.0517535209656,395.0518481731415,395.05512952804565,395.0668833255768,395.22307658195496,395.22307658195496,395.22307658195496,395.22307658195496,395.22307658195496,395.22307658195496,395.22307658195496,397.668582201004,1,2.5906200408935547,None,,,,,,,,,,,,,,,,,,123,2,2025-02-26_11h25.24.852,comp,2024.2.4,56.34438242623303,2025-02-26 11h25.45.369575 -0500,
87,87,0,critical,dwh,35.0,1.0,lower,70.0,70.0,57.0,133.0,133.0,57.0,3,2.6687943935394287,None,,,,,0,0,0,0,0,87,87,60,397.6845726966858,,,,,,,,,,,,,,,,,,,,,,,,,,,,,,,,,,,,,,,,,,,,,,,,,,,,,,,,,,,,,,,,,,,,,,,,,,,,,,,,,70.0,70.0,57.0,133.0,133.0,57.0,1.0,1.3,282,-290,480,-265,671,-288,397.6701023578644,397.6701774597168,397.6736249923706,397.6845726966858,397.8332142829895,397.8332142829895,397.8332142829895,397.8332142829895,397.8332142829895,397.8332142829895,397.8332142829895,400.3694188594818,3,2.6687943935394287,None,,,,,,,,,,,,,,,,,,123,2,2025-02-26_11h25.24.852,comp,2024.2.4,56.34438242623303,2025-02-26 11h25.45.369575 -0500,
88,88,0,filler_random,None,None,None,None,None,None,None,None,None,None,3,2.009658098220825,None,,,,,0,0,0,0,0,88,88,157,400.3836371898651,,,,,,,,,,,,,,,,,,,,,,,,,,,,,,,,,,,,,,,,,,,,,,,,,,,,,,,,,,,,,,,,,,,,,,,,,,,,,,,,,195.28250686813402,138.31174888603647,65.09914734136578,191.42431062885552,149.05155411323915,181.87151199564835,1.0,1.3,219,-262,480,-256,763,-283,400.37109446525574,400.371169090271,400.3744113445282,400.3836371898651,400.53491735458374,400.53491735458374,400.53491735458374,400.53491735458374,400.53491735458374,400.53491735458374,400.53491735458374,402.40498638153076,3,2.009658098220825,None,,,,,,,,,,,,,,,,,,123,2,2025-02-26_11h25.24.852,comp,2024.2.4,56.34438242623303,2025-02-26 11h25.45.369575 -0500,
89,89,0,critical,wdh,35.0,1.0,upper,125.0,200.0,127.0,127.0,200.0,125.0,3,2.293710947036743,None,,,,,0,0,0,0,0,89,89,73,402.421546459198,,,,,,,,,,,,,,,,,,,,,,,,,,,,,,,,,,,,,,,,,,,,,,,,,,,,,,,,,,,,,,,,,,,,,,,,,,,,,,,,,125.0,200.0,127.0,127.0,200.0,125.0,1.0,1.1,-740,274,-480,260,-258,256,402.4066598415375,402.40679454803467,402.4107255935669,402.421546459198,402.57144117355347,402.57144117355347,402.57144117355347,402.57144117355347,402.57144117355347,402.57144117355347,402.57144117355347,404.7203814983368,3,2.293710947036743,None,,,,,,,,,,,,,,,,,,123,2,2025-02-26_11h25.24.852,comp,2024.2.4,56.34438242623303,2025-02-26 11h25.45.369575 -0500,
90,90,0,critical,hdw,35.0,3.0,lower,133.0,57.0,70.0,70.0,57.0,133.0,1,5.009339094161987,None,,,,,0,0,0,0,0,90,90,110,404.73688435554504,,,,,,,,,,,,,,,,,,,,,,,,,,,,,,,,,,,,,,,,,,,,,,,,,,,,,,,,,,,,,,,,,,,,,,,,,,,,,,,,,133.0,57.0,70.0,70.0,57.0,133.0,3.0,3.2,-160,-251,0,2,198,274,404.7219078540802,404.72202944755554,404.7252390384674,404.73688435554504,404.8900156021118,404.8900156021118,404.8900156021118,404.8900156021118,404.8900156021118,404.8900156021118,404.8900156021118,409.7564685344696,1,5.009339094161987,None,,,,,,,,,,,,,,,,,,123,2,2025-02-26_11h25.24.852,comp,2024.2.4,56.34438242623303,2025-02-26 11h25.45.369575 -0500,
91,91,0,filler_random,None,None,None,None,None,None,None,None,None,None,2,3.24495530128479,None,,,,,0,0,0,0,0,91,91,153,409.7731866836548,,,,,,,,,,,,,,,,,,,,,,,,,,,,,,,,,,,,,,,,,,,,,,,,,,,,,,,,,,,,,,,,,,,,,,,,,,,,,,,,,126.65204523104597,67.59859991134334,64.80333724558373,162.30985619256577,101.16197261014781,97.4874698887935,2.2,2.22,-211,283,0,-287,226,-282,409.75818133354187,409.7582619190216,409.7623324394226,409.7731866836548,409.9196078777313,409.9196078777313,409.9196078777313,409.9196078777313,409.9196078777313,409.9196078777313,409.9196078777313,413.02375507354736,2,3.24495530128479,None,,,,,,,,,,,,,,,,,,123,2,2025-02-26_11h25.24.852,comp,2024.2.4,56.34438242623303,2025-02-26 11h25.45.369575 -0500,
92,92,0,critical,whd,35.0,2.1,lower,57.0,133.0,133.0,57.0,70.0,70.0,1,9.92160153388977,None,,,,,0,0,0,0,0,92,92,12,413.0398097038269,,,,,,,,,,,,,,,,,,,,,,,,,,,,,,,,,,,,,,,,,,,,,,,,,,,,,,,,,,,,,,,,,,,,,,,,,,,,,,,,,57.0,133.0,133.0,57.0,70.0,70.0,2.1,2.12,-191,-266,0,-269,160,280,413.025269985199,413.0253450870514,413.0287642478943,413.0398097038269,413.19365906715393,413.19365906715393,413.19365906715393,413.19365906715393,413.19365906715393,413.19365906715393,413.19365906715393,422.97647881507874,1,9.92160153388977,None,,,,,,,,,,,,,,,,,,123,2,2025-02-26_11h25.24.852,comp,2024.2.4,56.34438242623303,2025-02-26 11h25.45.369575 -0500,
93,93,0,critical,dhw,35.0,2.1,lower,70.0,70.0,133.0,57.0,57.0,133.0,3,5.1217567920684814,None,,,,,0,0,0,0,0,93,93,0,422.9922745227814,,,,,,,,,,,,,,,,,,,,,,,,,,,,,,,,,,,,,,,,,,,,,,,,,,,,,,,,,,,,,,,,,,,,,,,,,,,,,,,,,70.0,70.0,133.0,57.0,57.0,133.0,2.1,2.11,-160,253,0,284,191,-287,422.97816371917725,422.97829961776733,422.9817283153534,422.9922745227814,423.1414039134979,423.1414039134979,423.1414039134979,423.1414039134979,423.1414039134979,423.1414039134979,423.1414039134979,428.1163704395294,3,5.1217567920684814,None,,,,,,,,,,,,,,,,,,123,2,2025-02-26_11h25.24.852,comp,2024.2.4,56.34438242623303,2025-02-26 11h25.45.369575 -0500,
94,94,0,filler_random,None,None,None,None,None,None,None,None,None,None,1,1.30924654006958,None,,,,,0,0,0,0,0,94,94,132,428.13311767578125,,,,,,,,,,,,,,,,,,,,,,,,,,,,,,,,,,,,,,,,,,,,,,,,,,,,,,,,,,,,,,,,,,,,,,,,,,,,,,,,,192.0705574907901,79.80975965569192,149.6887897314182,58.98655007231595,78.27259924235202,59.585424387298445,2.2,2.21,-165,-260,0,261,155,277,428.1182973384857,428.1184251308441,428.12197065353394,428.13311767578125,428.2819972038269,428.2819972038269,428.2819972038269,428.2819972038269,428.2819972038269,428.2819972038269,428.2819972038269,429.4469699859619,1,1.30924654006958,None,,,,,,,,,,,,,,,,,,123,2,2025-02-26_11h25.24.852,comp,2024.2.4,56.34438242623303,2025-02-26 11h25.45.369575 -0500,
95,95,0,critical,hdw,20.0,3.0,upper,200.0,125.0,141.0,141.0,125.0,200.0,3,1.8591346740722656,None,,,,,0,0,0,0,0,95,95,117,429.4628689289093,,,,,,,,,,,,,,,,,,,,,,,,,,,,,,,,,,,,,,,,,,,,,,,,,,,,,,,,,,,,,,,,,,,,,,,,,,,,,,,,,200.0,125.0,141.0,141.0,125.0,200.0,3.0,3.1,-229,286,0,-3,266,-266,429.44852232933044,429.4486005306244,429.4521074295044,429.4628689289093,429.6124515533447,429.6124515533447,429.6124515533447,429.6124515533447,429.6124515533447,429.6124515533447,429.6124515533447,431.329482793808,3,1.8591346740722656,None,,,,,,,,,,,,,,,,,,123,2,2025-02-26_11h25.24.852,comp,2024.2.4,56.34438242623303,2025-02-26 11h25.45.369575 -0500,
96,96,0,filler_square,None,None,None,None,None,None,None,None,None,None,1,4.3432698249816895,None,,,,,0,0,0,0,0,96,96,190,431.3461811542511,,,,,,,,,,,,,,,,,,,,,,,,,,,,,,,,,,,,,,,,,,,,,,,,,,,,,,,,,,,,,,,,,,,,,,,,,,,,,,,,,64.2956206907001,64.2956206907001,63.41266491368635,60.820916123371724,60.48026000012811,59.21004706982848,2.2,2.21,-159,-255,0,275,156,285,431.3313386440277,431.3314735889435,431.3350098133087,431.3461811542511,431.4950919151306,431.4950919151306,431.4950919151306,431.4950919151306,431.4950919151306,431.4950919151306,431.4950919151306,435.6984748840332,1,4.3432698249816895,None,,,,,,,,,,,,,,,,,,123,2,2025-02-26_11h25.24.852,comp,2024.2.4,56.34438242623303,2025-02-26 11h25.45.369575 -0500,
97,97,0,critical,hdw,35.0,1.0,upper,200.0,125.0,127.0,127.0,125.0,200.0,1,1.7820875644683838,None,,,,,0,0,0,0,0,97,97,109,435.71541953086853,,,,,,,,,,,,,,,,,,,,,,,,,,,,,,,,,,,,,,,,,,,,,,,,,,,,,,,,,,,,,,,,,,,,,,,,,,,,,,,,,200.0,125.0,127.0,127.0,125.0,200.0,1.0,1.3,258,-254,480,-264,740,-259,435.69995975494385,435.70004510879517,435.7042591571808,435.71541953086853,435.86528992652893,435.86528992652893,435.86528992652893,435.86528992652893,435.86528992652893,435.86528992652893,435.86528992652893,437.50786447525024,1,1.7820875644683838,None,,,,,,,,,,,,,,,,,,123,2,2025-02-26_11h25.24.852,comp,2024.2.4,56.34438242623303,2025-02-26 11h25.45.369575 -0500,
98,98,0,filler_random,None,None,None,None,None,None,None,None,None,None,3,1.5848345756530762,None,,,,,0,0,0,0,0,98,98,135,437.5234098434448,,,,,,,,,,,,,,,,,,,,,,,,,,,,,,,,,,,,,,,,,,,,,,,,,,,,,,,,,,,,,,,,,,,,,,,,,,,,,,,,,113.85967803670032,133.16929862228284,133.27370474450765,86.39128965630333,158.15311047984264,159.61422446543344,2.1,2.12,-206,-253,0,-252,219,286,437.50955080986023,437.509628534317,437.51245498657227,437.5234098434448,437.66365575790405,437.66365575790405,437.66365575790405,437.66365575790405,437.66365575790405,437.66365575790405,437.66365575790405,439.1142363548279,3,1.5848345756530762,None,,,,,,,,,,,,,,,,,,123,2,2025-02-26_11h25.24.852,comp,2024.2.4,56.34438242623303,2025-02-26 11h25.45.369575 -0500,
99,99,0,critical,hwd,35.0,4.0,lower,133.0,57.0,57.0,133.0,70.0,70.0,1,2.789646863937378,None,,,,,0,0,0,0,0,99,99,100,439.13186860084534,,,,,,,,,,,,,,,,,,,,,,,,,,,,,,,,,,,,,,,,,,,,,,,,,,,,,,,,,,,,,,,,,,,,,,,,,,,,,,,,,133.0,57.0,57.0,133.0,70.0,70.0,4.0,4.1,-191,-263,0,-17,198,-259,439.1156942844391,439.11576867103577,439.11872005462646,439.13186860084534,439.26654148101807,439.26654148101807,439.26654148101807,439.26654148101807,439.26654148101807,439.26654148101807,439.26654148101807,441.93174839019775,1,2.789646863937378,None,,,,,,,,,,,,,,,,,,123,2,2025-02-26_11h25.24.852,comp,2024.2.4,56.34438242623303,2025-02-26 11h25.45.369575 -0500,
100,100,0,critical,whd,35.0,2.1,upper,125.0,200.0,200.0,125.0,127.0,127.0,1,2.605180025100708,None,,,,,0,0,0,0,0,100,100,37,441.9483230113983,,,,,,,,,,,,,,,,,,,,,,,,,,,,,,,,,,,,,,,,,,,,,,,,,,,,,,,,,,,,,,,,,,,,,,,,,,,,,,,,,125.0,200.0,200.0,125.0,127.0,127.0,2.1,2.11,-258,267,0,259,222,-254,441.9333555698395,441.93343114852905,441.9366977214813,441.9483230113983,442.10582447052,442.10582447052,442.10582447052,442.10582447052,442.10582447052,442.10582447052,442.10582447052,444.56724739074707,1,2.605180025100708,None,,,,,,,,,,,,,,,,,,123,2,2025-02-26_11h25.24.852,comp,2024.2.4,56.34438242623303,2025-02-26 11h25.45.369575 -0500,
101,101,0,filler_square,None,None,None,None,None,None,None,None,None,None,3,1.1946625709533691,None,,,,,0,0,0,0,0,101,101,189,444.5831890106201,,,,,,,,,,,,,,,,,,,,,,,,,,,,,,,,,,,,,,,,,,,,,,,,,,,,,,,,,,,,,,,,,,,,,,,,,,,,,,,,,63.02599457350286,64.77152499523075,84.49366218631862,58.26865277432346,107.96457452629089,107.96457452629089,3.0,3.1,-158,266,0,12,179,-262,444.5691120624542,444.5691876411438,444.57225012779236,444.5831890106201,444.7330787181854,444.7330787181854,444.7330787181854,444.7330787181854,444.7330787181854,444.7330787181854,444.7330787181854,445.78611969947815,3,1.1946625709533691,None,,,,,,,,,,,,,,,,,,123,2,2025-02-26_11h25.24.852,comp,2024.2.4,56.34438242623303,2025-02-26 11h25.45.369575 -0500,
102,102,0,critical,dwh,35.0,4.0,upper,127.0,127.0,125.0,200.0,200.0,125.0,2,1.183173656463623,None,,,,,0,0,0,0,0,102,102,65,445.8022804260254,,,,,,,,,,,,,,,,,,,,,,,,,,,,,,,,,,,,,,,,,,,,,,,,,,,,,,,,,,,,,,,,,,,,,,,,,,,,,,,,,127.0,127.0,125.0,200.0,200.0,125.0,4.0,4.2,-260,9,0,-286,258,16,445.78774523735046,445.78782415390015,445.7910370826721,445.8022804260254,445.9545316696167,445.9545316696167,445.9545316696167,445.9545316696167,445.9545316696167,445.9545316696167,445.9545316696167,447.00014781951904,2,1.183173656463623,None,,,,,,,,,,,,,,,,,,123,2,2025-02-26_11h25.24.852,comp,2024.2.4,56.34438242623303,2025-02-26 11h25.45.369575 -0500,
103,103,0,filler_square,None,None,None,None,None,None,None,None,None,None,2,1.3306646347045898,None,,,,,0,0,0,0,0,103,103,209,447.01543617248535,,,,,,,,,,,,,,,,,,,,,,,,,,,,,,,,,,,,,,,,,,,,,,,,,,,,,,,,,,,,,,,,,,,,,,,,,,,,,,,,,114.10507593104766,97.2324299712022,152.14845452551575,126.1104936600766,155.5865402207569,155.5865402207569,2.2,2.22,-208,273,0,-281,237,-268,447.00197672843933,447.00205278396606,447.0051248073578,447.01543617248535,447.1687672138214,447.1687672138214,447.1687672138214,447.1687672138214,447.1687672138214,447.1687672138214,447.1687672138214,448.35152101516724,2,1.3306646347045898,None,,,,,,,,,,,,,,,,,,123,2,2025-02-26_11h25.24.852,comp,2024.2.4,56.34438242623303,2025-02-26 11h25.45.369575 -0500,
104,104,0,critical,dhw,35.0,4.0,upper,127.0,127.0,200.0,125.0,125.0,200.0,3,3.665072202682495,None,,,,,0,0,0,0,0,104,104,53,448.3683099746704,,,,,,,,,,,,,,,,,,,,,,,,,,,,,,,,,,,,,,,,,,,,,,,,,,,,,,,,,,,,,,,,,,,,,,,,,,,,,,,,,127.0,127.0,200.0,125.0,125.0,200.0,4.0,4.2,-222,12,0,-284,258,-13,448.353155374527,448.3532314300537,448.35742688179016,448.3683099746704,448.5249605178833,448.5249605178833,448.5249605178833,448.5249605178833,448.5249605178833,448.5249605178833,448.5249605178833,452.03667759895325,3,3.665072202682495,None,,,,,,,,,,,,,,,,,,123,2,2025-02-26_11h25.24.852,comp,2024.2.4,56.34438242623303,2025-02-26 11h25.45.369575 -0500,
105,105,0,critical,whd,20.0,1.0,upper,125.0,200.0,200.0,125.0,141.0,141.0,2,7.300865888595581,None,,,,,0,0,0,0,0,105,105,91,452.0524983406067,,,,,,,,,,,,,,,,,,,,,,,,,,,,,,,,,,,,,,,,,,,,,,,,,,,,,,,,,,,,,,,,,,,,,,,,,,,,,,,,,125.0,200.0,200.0,125.0,141.0,141.0,1.0,1.1,-738,254,-480,278,-251,267,452.0381932258606,452.0382707118988,452.04167795181274,452.0524983406067,452.2055518627167,452.2055518627167,452.2055518627167,452.2055518627167,452.2055518627167,452.2055518627167,452.2055518627167,459.37020802497864,2,7.300865888595581,None,,,,,,,,,,,,,,,,,,123,2,2025-02-26_11h25.24.852,comp,2024.2.4,56.34438242623303,2025-02-26 11h25.45.369575 -0500,
106,106,0,critical,whd,35.0,4.0,lower,57.0,133.0,133.0,57.0,70.0,70.0,2,2.727125644683838,None,,,,,0,0,0,0,0,106,106,88,459.3871970176697,,,,,,,,,,,,,,,,,,,,,,,,,,,,,,,,,,,,,,,,,,,,,,,,,,,,,,,,,,,,,,,,,,,,,,,,,,,,,,,,,57.0,133.0,133.0,57.0,70.0,70.0,4.0,4.2,-191,-8,0,-275,160,-11,459.3717200756073,459.3717966079712,459.37528252601624,459.3871970176697,459.5410647392273,459.5410647392273,459.5410647392273,459.5410647392273,459.5410647392273,459.5410647392273,459.5410647392273,462.1213803291321,2,2.727125644683838,None,,,,,,,,,,,,,,,,,,123,2,2025-02-26_11h25.24.852,comp,2024.2.4,56.34438242623303,2025-02-26 11h25.45.369575 -0500,
107,107,0,filler_square,None,None,None,None,None,None,None,None,None,None,2,1.8152046203613281,None,,,,,0,0,0,0,0,107,107,203,462.13821959495544,,,,,,,,,,,,,,,,,,,,,,,,,,,,,,,,,,,,,,,,,,,,,,,,,,,,,,,,,,,,,,,,,,,,,,,,,,,,,,,,,71.64195489481385,59.7524422084484,74.31266664422205,74.31266664422205,65.51131661724409,71.11495704191756,1.0,1.2,-163,-6,0,-3,169,-16,462.12307238578796,462.12314772605896,462.12655901908875,462.13821959495544,462.28927516937256,462.28927516937256,462.28927516937256,462.28927516937256,462.28927516937256,462.28927516937256,462.28927516937256,463.96779012680054,2,1.8152046203613281,None,,,,,,,,,,,,,,,,,,123,2,2025-02-26_11h25.24.852,comp,2024.2.4,56.34438242623303,2025-02-26 11h25.45.369575 -0500,
108,108,0,filler_random,None,None,None,None,None,None,None,None,None,None,3,2.194040298461914,None,,,,,0,0,0,0,0,108,108,134,463.98437547683716,,,,,,,,,,,,,,,,,,,,,,,,,,,,,,,,,,,,,,,,,,,,,,,,,,,,,,,,,,,,,,,,,,,,,,,,,,,,,,,,,105.83980670278467,102.24156248801543,197.27507384085436,90.46576517384582,158.76771928475281,195.5537248696718,4.0,4.2,-192,-1,0,-278,239,-4,463.9696719646454,463.96979689598083,463.9730577468872,463.98437547683716,464.1220643520355,464.1220643520355,464.1220643520355,464.1220643520355,464.1220643520355,464.1220643520355,464.1220643520355,466.1956055164337,3,2.194040298461914,None,,,,,,,,,,,,,,,,,,123,2,2025-02-26_11h25.24.852,comp,2024.2.4,56.34438242623303,2025-02-26 11h25.45.369575 -0500,
109,109,0,critical,whd,35.0,3.0,lower,57.0,133.0,133.0,57.0,70.0,70.0,2,4.0999884605407715,None,,,,,0,0,0,0,0,109,109,86,466.21532344818115,,,,,,,,,,,,,,,,,,,,,,,,,,,,,,,,,,,,,,,,,,,,,,,,,,,,,,,,,,,,,,,,,,,,,,,,,,,,,,,,,57.0,133.0,133.0,57.0,70.0,70.0,3.0,3.1,-191,260,0,-16,160,-275,466.1970748901367,466.19714879989624,466.2000594139099,466.21532344818115,466.35801553726196,466.35801553726196,466.35801553726196,466.35801553726196,466.35801553726196,466.35801553726196,466.35801553726196,470.3263690471649,2,4.0999884605407715,None,,,,,,,,,,,,,,,,,,123,2,2025-02-26_11h25.24.852,comp,2024.2.4,56.34438242623303,2025-02-26 11h25.45.369575 -0500,
110,110,0,critical,hwd,35.0,1.0,lower,133.0,57.0,57.0,133.0,70.0,70.0,2,1.6266934871673584,None,,,,,0,0,0,0,0,110,110,96,470.3427560329437,,,,,,,,,,,,,,,,,,,,,,,,,,,,,,,,,,,,,,,,,,,,,,,,,,,,,,,,,,,,,,,,,,,,,,,,,,,,,,,,,133.0,57.0,57.0,133.0,70.0,70.0,1.0,1.3,289,-285,480,-265,678,-267,470.3279047012329,470.3280189037323,470.33130860328674,470.3427560329437,470.4922230243683,470.4922230243683,470.4922230243683,470.4922230243683,470.4922230243683,470.4922230243683,470.4922230243683,471.9817097187042,2,1.6266934871673584,None,,,,,,,,,,,,,,,,,,123,2,2025-02-26_11h25.24.852,comp,2024.2.4,56.34438242623303,2025-02-26 11h25.45.369575 -0500,
111,111,0,filler_random,None,None,None,None,None,None,None,None,None,None,3,5.754474878311157,None,,,,,0,0,0,0,0,111,111,136,471.9994373321533,,,,,,,,,,,,,,,,,,,,,,,,,,,,,,,,,,,,,,,,,,,,,,,,,,,,,,,,,,,,,,,,,,,,,,,,,,,,,,,,,112.12542191370767,198.50895862822978,68.62773337922367,125.87685249815769,172.18135930642967,179.24928947414173,3.0,3.1,-258,270,0,7,249,-252,471.983437538147,471.98351526260376,471.98642110824585,471.9994373321533,472.1428632736206,472.1428632736206,472.1428632736206,472.1428632736206,472.1428632736206,472.1428632736206,472.1428632736206,477.7614953517914,3,5.754474878311157,None,,,,,,,,,,,,,,,,,,123,2,2025-02-26_11h25.24.852,comp,2024.2.4,56.34438242623303,2025-02-26 11h25.45.369575 -0500,
112,112,0,filler_random,None,None,None,None,None,None,None,None,None,None,3,1.464566707611084,None,,,,,0,0,0,0,0,112,112,145,477.77711033821106,,,,,,,,,,,,,,,,,,,,,,,,,,,,,,,,,,,,,,,,,,,,,,,,,,,,,,,,,,,,,,,,,,,,,,,,,,,,,,,,,58.88728713895591,91.19868928792437,105.04538327465674,98.85689989496083,146.65884417335957,133.0405580988064,4.0,4.2,-191,-1,0,-278,212,12,477.7631206512451,477.76319646835327,477.7663822174072,477.77711033821106,477.93181681632996,477.93181681632996,477.93181681632996,477.93181681632996,477.93181681632996,477.93181681632996,477.93181681632996,479.2472336292267,3,1.464566707611084,None,,,,,,,,,,,,,,,,,,123,2,2025-02-26_11h25.24.852,comp,2024.2.4,56.34438242623303,2025-02-26 11h25.45.369575 -0500,
113,113,0,critical,wdh,35.0,2.1,upper,125.0,200.0,127.0,127.0,200.0,125.0,3,1.9838273525238037,None,,,,,0,0,0,0,0,113,113,9,479.2661786079407,,,,,,,,,,,,,,,,,,,,,,,,,,,,,,,,,,,,,,,,,,,,,,,,,,,,,,,,,,,,,,,,,,,,,,,,,,,,,,,,,125.0,200.0,127.0,127.0,200.0,125.0,2.1,2.11,-260,280,0,276,222,-261,479.2493166923523,479.2494537830353,479.25255513191223,479.2661786079407,479.4119005203247,479.4119005203247,479.4119005203247,479.4119005203247,479.4119005203247,479.4119005203247,479.4119005203247,481.2621874809265,3,1.9838273525238037,None,,,,,,,,,,,,,,,,,,123,2,2025-02-26_11h25.24.852,comp,2024.2.4,56.34438242623303,2025-02-26 11h25.45.369575 -0500,
114,114,0,filler_random,None,None,None,None,None,None,None,None,None,None,1,1.1568293571472168,None,,,,,0,0,0,0,0,114,114,137,481.2782790660858,,,,,,,,,,,,,,,,,,,,,,,,,,,,,,,,,,,,,,,,,,,,,,,,,,,,,,,,,,,,,,,,,,,,,,,,,,,,,,,,,187.38859823250232,186.55545654717844,94.89147680276702,115.46691204807316,87.32449173468153,91.90175122669552,2.2,2.21,-247,-282,0,252,200,260,481.2639625072479,481.26410031318665,481.26787662506104,481.2782790660858,481.4289653301239,481.4289653301239,481.4289653301239,481.4289653301239,481.4289653301239,481.4289653301239,481.4289653301239,482.4460482597351,1,1.1568293571472168,None,,,,,,,,,,,,,,,,,,123,2,2025-02-26_11h25.24.852,comp,2024.2.4,56.34438242623303,2025-02-26 11h25.45.369575 -0500,
115,115,0,critical,whd,35.0,3.0,upper,125.0,200.0,200.0,125.0,127.0,127.0,1,1.8282442092895508,None,,,,,0,0,0,0,0,115,115,87,482.46169996261597,,,,,,,,,,,,,,,,,,,,,,,,,,,,,,,,,,,,,,,,,,,,,,,,,,,,,,,,,,,,,,,,,,,,,,,,,,,,,,,,,125.0,200.0,200.0,125.0,127.0,127.0,3.0,3.1,-258,282,0,6,222,-269,482.44757080078125,482.44764709472656,482.4510633945465,482.46169996261597,482.611216545105,482.611216545105,482.611216545105,482.611216545105,482.611216545105,482.611216545105,482.611216545105,484.295156955719,1,1.8282442092895508,None,,,,,,,,,,,,,,,,,,123,2,2025-02-26_11h25.24.852,comp,2024.2.4,56.34438242623303,2025-02-26 11h25.45.369575 -0500,
116,116,0,filler_square,None,None,None,None,None,None,None,None,None,None,1,4.855082750320435,None,,,,,0,0,0,0,0,116,116,170,484.31442499160767,,,,,,,,,,,,,,,,,,,,,,,,,,,,,,,,,,,,,,,,,,,,,,,,,,,,,,,,,,,,,,,,,,,,,,,,,,,,,,,,,97.24740534301421,97.24740534301421,65.63629884178377,86.09750746075022,62.56635884330871,95.76915404355546,4.0,4.1,-188,-256,0,-13,187,-285,484.2970473766327,484.29716897010803,484.3003764152527,484.31442499160767,484.46320033073425,484.46320033073425,484.46320033073425,484.46320033073425,484.46320033073425,484.46320033073425,484.46320033073425,489.18072843551636,1,4.855082750320435,None,,,,,,,,,,,,,,,,,,123,2,2025-02-26_11h25.24.852,comp,2024.2.4,56.34438242623303,2025-02-26 11h25.45.369575 -0500,
117,117,0,critical,whd,20.0,2.1,lower,57.0,133.0,133.0,57.0,78.0,78.0,2,3.260077476501465,None,,,,,0,0,0,0,0,117,117,14,489.19747519493103,,,,,,,,,,,,,,,,,,,,,,,,,,,,,,,,,,,,,,,,,,,,,,,,,,,,,,,,,,,,,,,,,,,,,,,,,,,,,,,,,57.0,133.0,133.0,57.0,78.0,78.0,2.1,2.11,-191,289,0,288,164,-284,489.182302236557,489.18238139152527,489.18581199645996,489.19747519493103,489.3476541042328,489.3476541042328,489.3476541042328,489.3476541042328,489.3476541042328,489.3476541042328,489.3476541042328,492.4666588306427,2,3.260077476501465,None,,,,,,,,,,,,,,,,,,123,2,2025-02-26_11h25.24.852,comp,2024.2.4,56.34438242623303,2025-02-26 11h25.45.369575 -0500,
118,118,0,filler_random,None,None,None,None,None,None,None,None,None,None,3,1.9272639751434326,None,,,,,0,0,0,0,0,118,118,149,492.48283767700195,,,,,,,,,,,,,,,,,,,,,,,,,,,,,,,,,,,,,,,,,,,,,,,,,,,,,,,,,,,,,,,,,,,,,,,,,,,,,,,,,90.24644236017518,87.05141392482088,102.64499362716953,129.7556387693209,153.31781150960842,95.62081631152654,2.2,2.22,-204,281,0,-283,209,-260,492.46838450431824,492.46848011016846,492.47195386886597,492.48283767700195,492.6320638656616,492.6320638656616,492.6320638656616,492.6320638656616,492.6320638656616,492.6320638656616,492.6320638656616,494.4132225513458,3,1.9272639751434326,None,,,,,,,,,,,,,,,,,,123,2,2025-02-26_11h25.24.852,comp,2024.2.4,56.34438242623303,2025-02-26 11h25.45.369575 -0500,
119,119,0,critical,dhw,20.0,3.0,upper,141.0,141.0,200.0,125.0,125.0,200.0,3,2.9558637142181396,None,,,,,0,0,0,0,0,119,119,57,494.4301862716675,,,,,,,,,,,,,,,,,,,,,,,,,,,,,,,,,,,,,,,,,,,,,,,,,,,,,,,,,,,,,,,,,,,,,,,,,,,,,,,,,141.0,141.0,200.0,125.0,125.0,200.0,3.0,3.1,-229,269,0,-5,258,-281,494.414701461792,494.41477513313293,494.41769075393677,494.4301862716675,494.58125257492065,494.58125257492065,494.58125257492065,494.58125257492065,494.58125257492065,494.58125257492065,494.58125257492065,497.3956768512726,3,2.9558637142181396,None,,,,,,,,,,,,,,,,,,123,2,2025-02-26_11h25.24.852,comp,2024.2.4,56.34438242623303,2025-02-26 11h25.45.369575 -0500,
120,120,0,critical,dhw,35.0,3.0,lower,70.0,70.0,133.0,57.0,57.0,133.0,3,2.758516788482666,None,,,,,0,0,0,0,0,120,120,50,497.41105580329895,,,,,,,,,,,,,,,,,,,,,,,,,,,,,,,,,,,,,,,,,,,,,,,,,,,,,,,,,,,,,,,,,,,,,,,,,,,,,,,,,70.0,70.0,133.0,57.0,57.0,133.0,3.0,3.2,-160,-267,0,-17,191,284,497.39719247817993,497.39727115631104,497.4001696109772,497.41105580329895,497.56481742858887,497.56481742858887,497.56481742858887,497.56481742858887,497.56481742858887,497.56481742858887,497.56481742858887,500.18432807922363,3,2.758516788482666,None,,,,,,,,,,,,,,,,,,123,2,2025-02-26_11h25.24.852,comp,2024.2.4,56.34438242623303,2025-02-26 11h25.45.369575 -0500,
121,121,0,critical,wdh,35.0,2.1,upper,125.0,200.0,127.0,127.0,200.0,125.0,3,4.217992067337036,None,,,,,0,0,0,0,0,121,121,33,500.1997241973877,,,,,,,,,,,,,,,,,,,,,,,,,,,,,,,,,,,,,,,,,,,,,,,,,,,,,,,,,,,,,,,,,,,,,,,,,,,,,,,,,125.0,200.0,127.0,127.0,200.0,125.0,2.1,2.11,-260,283,0,279,222,-256,500.1858015060425,500.18587493896484,500.18935441970825,500.1997241973877,500.3406162261963,500.3406162261963,500.3406162261963,500.3406162261963,500.3406162261963,500.3406162261963,500.3406162261963,504.41987800598145,3,4.217992067337036,None,,,,,,,,,,,,,,,,,,123,2,2025-02-26_11h25.24.852,comp,2024.2.4,56.34438242623303,2025-02-26 11h25.45.369575 -0500,
122,122,0,critical,hwd,20.0,2.1,lower,133.0,57.0,57.0,133.0,78.0,78.0,1,2.444129705429077,None,,,,,0,0,0,0,0,122,122,42,504.43768763542175,,,,,,,,,,,,,,,,,,,,,,,,,,,,,,,,,,,,,,,,,,,,,,,,,,,,,,,,,,,,,,,,,,,,,,,,,,,,,,,,,133.0,57.0,57.0,133.0,78.0,78.0,2.1,2.11,-191,284,0,283,202,-263,504.4213993549347,504.4214754104614,504.4246551990509,504.43768763542175,504.58530139923096,504.58530139923096,504.58530139923096,504.58530139923096,504.58530139923096,504.58530139923096,504.58530139923096,506.88539457321167,1,2.444129705429077,None,,,,,,,,,,,,,,,,,,123,2,2025-02-26_11h25.24.852,comp,2024.2.4,56.34438242623303,2025-02-26 11h25.45.369575 -0500,
123,123,0,critical,dhw,20.0,2.1,upper,141.0,141.0,200.0,125.0,125.0,200.0,3,1.9478600025177002,None,,,,,0,0,0,0,0,123,123,3,506.9018521308899,,,,,,,,,,,,,,,,,,,,,,,,,,,,,,,,,,,,,,,,,,,,,,,,,,,,,,,,,,,,,,,,,,,,,,,,,,,,,,,,,141.0,141.0,200.0,125.0,125.0,200.0,2.1,2.12,-229,-279,0,-281,258,270,506.8869197368622,506.88701939582825,506.8900740146637,506.9018521308899,507.0530698299408,507.0530698299408,507.0530698299408,507.0530698299408,507.0530698299408,507.0530698299408,507.0530698299408,508.85462760925293,3,1.9478600025177002,None,,,,,,,,,,,,,,,,,,123,2,2025-02-26_11h25.24.852,comp,2024.2.4,56.34438242623303,2025-02-26 11h25.45.369575 -0500,
124,124,0,critical,whd,35.0,2.1,upper,125.0,200.0,200.0,125.0,127.0,127.0,2,1.299222469329834,None,,,,,0,0,0,0,0,124,124,13,508.8703842163086,,,,,,,,,,,,,,,,,,,,,,,,,,,,,,,,,,,,,,,,,,,,,,,,,,,,,,,,,,,,,,,,,,,,,,,,,,,,,,,,,125.0,200.0,200.0,125.0,127.0,127.0,2.1,2.11,-258,277,0,254,222,-283,508.8561384677887,508.8562169075012,508.8596227169037,508.8703842163086,509.0204131603241,509.0204131603241,509.0204131603241,509.0204131603241,509.0204131603241,509.0204131603241,509.0204131603241,510.1730110645294,2,1.299222469329834,None,,,,,,,,,,,,,,,,,,123,2,2025-02-26_11h25.24.852,comp,2024.2.4,56.34438242623303,2025-02-26 11h25.45.369575 -0500,
125,125,0,filler_random,None,None,None,None,None,None,None,None,None,None,3,2.4985392093658447,None,,,,,0,0,0,0,0,125,125,168,510.19097447395325,,,,,,,,,,,,,,,,,,,,,,,,,,,,,,,,,,,,,,,,,,,,,,,,,,,,,,,,,,,,,,,,,,,,,,,,,,,,,,,,,64.08063262229312,107.954108224762,157.84815169545737,58.05665942486906,77.97195943010887,172.57451028468938,2.1,2.11,-179,277,0,274,211,-271,510.1747603416443,510.174836397171,510.17785239219666,510.19097447395325,510.3422496318817,510.3422496318817,510.3422496318817,510.3422496318817,510.3422496318817,510.3422496318817,510.3422496318817,512.7063884735107,3,2.4985392093658447,None,,,,,,,,,,,,,,,,,,123,2,2025-02-26_11h25.24.852,comp,2024.2.4,56.34438242623303,2025-02-26 11h25.45.369575 -0500,
126,126,0,filler_square,None,None,None,None,None,None,None,None,None,None,2,1.6157245635986328,None,,,,,0,0,0,0,0,126,126,198,512.7219579219818,,,,,,,,,,,,,,,,,,,,,,,,,,,,,,,,,,,,,,,,,,,,,,,,,,,,,,,,,,,,,,,,,,,,,,,,,,,,,,,,,58.13163291007522,120.2078945472626,123.17020921571759,123.17020921571759,85.86737020351123,115.82515280374461,1.0,1.3,262,-276,480,-287,695,-286,512.7083594799042,512.7084426879883,512.7116096019745,512.7219579219818,512.8723106384277,512.8723106384277,512.8723106384277,512.8723106384277,512.8723106384277,512.8723106384277,512.8723106384277,514.3418200016022,2,1.6157245635986328,None,,,,,,,,,,,,,,,,,,123,2,2025-02-26_11h25.24.852,comp,2024.2.4,56.34438242623303,2025-02-26 11h25.45.369575 -0500,
127,127,0,filler_random,None,None,None,None,None,None,None,None,None,None,1,1.2066850662231445,None,,,,,0,0,0,0,0,127,127,154,514.3628900051117,,,,,,,,,,,,,,,,,,,,,,,,,,,,,,,,,,,,,,,,,,,,,,,,,,,,,,,,,,,,,,,,,,,,,,,,,,,,,,,,,103.34237980120082,120.61855173665755,58.608200268396246,59.934839893705345,70.31130534561058,84.47463471493091,3.0,3.2,-186,-258,0,-11,168,256,514.344108581543,514.344188451767,514.3471620082855,514.3628900051117,514.5043950080872,514.5043950080872,514.5043950080872,514.5043950080872,514.5043950080872,514.5043950080872,514.5043950080872,515.5724258422852,1,1.2066850662231445,None,,,,,,,,,,,,,,,,,,123,2,2025-02-26_11h25.24.852,comp,2024.2.4,56.34438242623303,2025-02-26 11h25.45.369575 -0500,
128,128,0,filler_square,None,None,None,None,None,None,None,None,None,None,1,1.013171672821045,None,,,,,0,0,0,0,0,128,128,173,515.5883362293243,,,,,,,,,,,,,,,,,,,,,,,,,,,,,,,,,,,,,,,,,,,,,,,,,,,,,,,,,,,,,,,,,,,,,,,,,,,,,,,,,146.84344757209368,146.84344757209368,74.35368886903139,77.94127321041469,61.37930931747254,110.25273218761194,3.0,3.2,-208,-286,0,-12,190,267,515.5741918087006,515.5742676258087,515.5776700973511,515.5883362293243,515.7383706569672,515.7383706569672,515.7383706569672,515.7383706569672,515.7383706569672,515.7383706569672,515.7383706569672,516.6138379573822,1,1.013171672821045,None,,,,,,,,,,,,,,,,,,123,2,2025-02-26_11h25.24.852,comp,2024.2.4,56.34438242623303,2025-02-26 11h25.45.369575 -0500,
129,129,0,critical,hdw,35.0,4.0,lower,133.0,57.0,70.0,70.0,57.0,133.0,3,3.3631720542907715,None,,,,,0,0,0,0,0,129,129,112,516.6311485767365,,,,,,,,,,,,,,,,,,,,,,,,,,,,,,,,,,,,,,,,,,,,,,,,,,,,,,,,,,,,,,,,,,,,,,,,,,,,,,,,,133.0,57.0,70.0,70.0,57.0,133.0,4.0,4.1,-160,-262,0,5,198,-288,516.615318775177,516.615395784378,516.6182761192322,516.6311485767365,516.7731347084045,516.7731347084045,516.7731347084045,516.7731347084045,516.7731347084045,516.7731347084045,516.7731347084045,519.9991681575775,3,3.3631720542907715,None,,,,,,,,,,,,,,,,,,123,2,2025-02-26_11h25.24.852,comp,2024.2.4,56.34438242623303,2025-02-26 11h25.45.369575 -0500,
130,130,0,critical,hdw,20.0,1.0,upper,200.0,125.0,141.0,141.0,125.0,200.0,3,6.546136140823364,None,,,,,0,0,0,0,0,130,130,115,520.0154850482941,,,,,,,,,,,,,,,,,,,,,,,,,,,,,,,,,,,,,,,,,,,,,,,,,,,,,,,,,,,,,,,,,,,,,,,,,,,,,,,,,200.0,125.0,141.0,141.0,125.0,200.0,1.0,1.1,-709,266,-480,267,-214,254,520.0007014274597,520.0007803440094,520.0037326812744,520.0154850482941,520.1567342281342,520.1567342281342,520.1567342281342,520.1567342281342,520.1567342281342,520.1567342281342,520.1567342281342,526.5747039318085,3,6.546136140823364,None,,,,,,,,,,,,,,,,,,123,2,2025-02-26_11h25.24.852,comp,2024.2.4,56.34438242623303,2025-02-26 11h25.45.369575 -0500,
131,131,0,critical,wdh,20.0,2.1,lower,57.0,133.0,78.0,78.0,133.0,57.0,3,1.714529037475586,None,,,,,0,0,0,0,0,131,131,10,526.5910921096802,,,,,,,,,,,,,,,,,,,,,,,,,,,,,,,,,,,,,,,,,,,,,,,,,,,,,,,,,,,,,,,,,,,,,,,,,,,,,,,,,57.0,133.0,78.0,78.0,133.0,57.0,2.1,2.11,-202,256,0,261,164,-254,526.5762832164764,526.5763573646545,526.5797204971313,526.5910921096802,526.7426469326019,526.7426469326019,526.7426469326019,526.7426469326019,526.7426469326019,526.7426469326019,526.7426469326019,528.3097734451294,3,1.714529037475586,None,,,,,,,,,,,,,,,,,,123,2,2025-02-26_11h25.24.852,comp,2024.2.4,56.34438242623303,2025-02-26 11h25.45.369575 -0500,
132,132,0,filler_square,None,None,None,None,None,None,None,None,None,None,1,1.1802740097045898,None,,,,,0,0,0,0,0,132,132,201,528.3257977962494,,,,,,,,,,,,,,,,,,,,,,,,,,,,,,,,,,,,,,,,,,,,,,,,,,,,,,,,,,,,,,,,,,,,,,,,,,,,,,,,,176.03744858202197,176.03744858202197,102.11341893027627,72.38429896082026,137.38156186339836,123.46579131731676,1.0,1.3,260,-256,480,-263,674,-284,528.3116264343262,528.3117063045502,528.3151276111603,528.3257977962494,528.4757771492004,528.4757771492004,528.4757771492004,528.4757771492004,528.4757771492004,528.4757771492004,528.4757771492004,529.5125262737274,1,1.1802740097045898,None,,,,,,,,,,,,,,,,,,123,2,2025-02-26_11h25.24.852,comp,2024.2.4,56.34438242623303,2025-02-26 11h25.45.369575 -0500,
133,133,0,critical,dwh,20.0,1.0,upper,141.0,141.0,125.0,200.0,200.0,125.0,3,2.0793962478637695,None,,,,,0,0,0,0,0,133,133,67,529.5310332775116,,,,,,,,,,,,,,,,,,,,,,,,,,,,,,,,,,,,,,,,,,,,,,,,,,,,,,,,,,,,,,,,,,,,,,,,,,,,,,,,,141.0,141.0,125.0,200.0,200.0,125.0,1.0,1.2,-266,-3,0,12,258,19,529.5141613483429,529.5142385959625,529.5173542499542,529.5310332775116,529.6767852306366,529.6767852306366,529.6767852306366,529.6767852306366,529.6767852306366,529.6767852306366,529.6767852306366,531.6126589775085,3,2.0793962478637695,None,,,,,,,,,,,,,,,,,,123,2,2025-02-26_11h25.24.852,comp,2024.2.4,56.34438242623303,2025-02-26 11h25.45.369575 -0500,
134,134,0,filler_random,None,None,None,None,None,None,None,None,None,None,1,2.8202571868896484,None,,,,,0,0,0,0,0,134,134,151,531.6293909549713,,,,,,,,,,,,,,,,,,,,,,,,,,,,,,,,,,,,,,,,,,,,,,,,,,,,,,,,,,,,,,,,,,,,,,,,,,,,,,,,,176.095422286362,150.60208689860136,121.40075611174446,185.3581033835883,148.01855147197767,64.32906414170466,2.1,2.11,-264,269,0,271,221,-282,531.6147994995117,531.61487865448,531.6183857917786,531.6293909549713,531.7667810916901,531.7667810916901,531.7667810916901,531.7667810916901,531.7667810916901,531.7667810916901,531.7667810916901,534.4632322788239,1,2.8202571868896484,None,,,,,,,,,,,,,,,,,,123,2,2025-02-26_11h25.24.852,comp,2024.2.4,56.34438242623303,2025-02-26 11h25.45.369575 -0500,
135,135,0,critical,dhw,20.0,4.0,lower,78.0,78.0,133.0,57.0,57.0,133.0,3,2.3720829486846924,None,,,,,0,0,0,0,0,135,135,58,534.4792516231537,,,,,,,,,,,,,,,,,,,,,,,,,,,,,,,,,,,,,,,,,,,,,,,,,,,,,,,,,,,,,,,,,,,,,,,,,,,,,,,,,78.0,78.0,133.0,57.0,57.0,133.0,4.0,4.2,-164,19,0,-271,191,-18,534.464772939682,534.4648494720459,534.4684858322144,534.4792516231537,534.6293358802795,534.6293358802795,534.6293358802795,534.6293358802795,534.6293358802795,534.6293358802795,534.6293358802795,536.8637082576752,3,2.3720829486846924,None,,,,,,,,,,,,,,,,,,123,2,2025-02-26_11h25.24.852,comp,2024.2.4,56.34438242623303,2025-02-26 11h25.45.369575 -0500,
136,136,0,filler_random,None,None,None,None,None,None,None,None,None,None,3,1.6260030269622803,None,,,,,0,0,0,0,0,136,136,167,536.8802075386047,,,,,,,,,,,,,,,,,,,,,,,,,,,,,,,,,,,,,,,,,,,,,,,,,,,,,,,,,,,,,,,,,,,,,,,,,,,,,,,,,174.43564391367624,181.74258892851697,156.52696343025679,99.23721322483256,179.90220424946477,196.32706333736274,1.0,1.3,244,-267,480,-255,724,-275,536.8655092716217,536.8656311035156,536.8693981170654,536.8802075386047,537.0271670818329,537.0271670818329,537.0271670818329,537.0271670818329,537.0271670818329,537.0271670818329,537.0271670818329,538.5140948295593,3,1.6260030269622803,None,,,,,,,,,,,,,,,,,,123,2,2025-02-26_11h25.24.852,comp,2024.2.4,56.34438242623303,2025-02-26 11h25.45.369575 -0500,
137,137,0,filler_square,None,None,None,None,None,None,None,None,None,None,1,1.5348267555236816,None,,,,,0,0,0,0,0,137,137,185,538.5308620929718,,,,,,,,,,,,,,,,,,,,,,,,,,,,,,,,,,,,,,,,,,,,,,,,,,,,,,,,,,,,,,,,,,,,,,,,,,,,,,,,,88.382989913719,88.382989913719,88.27562334127794,73.56081087535709,63.59287962022356,63.34714177845349,1.0,1.1,-657,281,-480,270,-316,270,538.5160491466522,538.5161278247833,538.519364118576,538.5308620929718,538.678995847702,538.678995847702,538.678995847702,538.678995847702,538.678995847702,538.678995847702,538.678995847702,540.0832812786102,1,1.5348267555236816,None,,,,,,,,,,,,,,,,,,123,2,2025-02-26_11h25.24.852,comp,2024.2.4,56.34438242623303,2025-02-26 11h25.45.369575 -0500,
138,138,0,critical,wdh,35.0,2.1,lower,57.0,133.0,70.0,70.0,133.0,57.0,1,3.2436912059783936,None,,,,,0,0,0,0,0,138,138,8,540.1022036075592,,,,,,,,,,,,,,,,,,,,,,,,,,,,,,,,,,,,,,,,,,,,,,,,,,,,,,,,,,,,,,,,,,,,,,,,,,,,,,,,,57.0,133.0,70.0,70.0,133.0,57.0,2.1,2.12,-198,-256,0,-267,160,264,540.0849614143372,540.0850446224213,540.0884509086609,540.1022036075592,540.2479019165039,540.2479019165039,540.2479019165039,540.2479019165039,540.2479019165039,540.2479019165039,540.2479019165039,543.363920211792,1,3.2436912059783936,None,,,,,,,,,,,,,,,,,,123,2,2025-02-26_11h25.24.852,comp,2024.2.4,56.34438242623303,2025-02-26 11h25.45.369575 -0500,
139,139,0,critical,wdh,35.0,1.0,lower,57.0,133.0,70.0,70.0,133.0,57.0,3,1.9984018802642822,None,,,,,0,0,0,0,0,139,139,72,543.3795795440674,,,,,,,,,,,,,,,,,,,,,,,,,,,,,,,,,,,,,,,,,,,,,,,,,,,,,,,,,,,,,,,,,,,,,,,,,,,,,,,,,57.0,133.0,70.0,70.0,133.0,57.0,1.0,1.2,-198,7,0,-6,160,-7,543.3654215335846,543.365496635437,543.368497133255,543.3795795440674,543.5300011634827,543.5300011634827,543.5300011634827,543.5300011634827,543.5300011634827,543.5300011634827,543.5300011634827,545.3807651996613,3,1.9984018802642822,None,,,,,,,,,,,,,,,,,,123,2,2025-02-26_11h25.24.852,comp,2024.2.4,56.34438242623303,2025-02-26 11h25.45.369575 -0500,
140,140,0,filler_random,None,None,None,None,None,None,None,None,None,None,3,1.3001136779785156,None,,,,,0,0,0,0,0,140,140,165,545.398092508316,,,,,,,,,,,,,,,,,,,,,,,,,,,,,,,,,,,,,,,,,,,,,,,,,,,,,,,,,,,,,,,,,,,,,,,,,,,,,,,,,159.66472736536002,65.11811169246124,112.06376655914549,87.74740769847907,141.18873370042382,169.7781558987424,2.1,2.11,-172,270,0,274,225,-278,545.3824260234833,545.3825013637543,545.3854947090149,545.398092508316,545.5491917133331,545.5491917133331,545.5491917133331,545.5491917133331,545.5491917133331,545.5491917133331,545.5491917133331,546.701220035553,3,1.3001136779785156,None,,,,,,,,,,,,,,,,,,123,2,2025-02-26_11h25.24.852,comp,2024.2.4,56.34438242623303,2025-02-26 11h25.45.369575 -0500,
