thisN,thisTrialN,thisRepN,effect,order,distance,config,diag,h_1,w_1,h_2,w_2,h_3,w_3,rect_choice.keys,rect_choice.rt,rect_choice.duration,instructions_loop.thisRepN,instructions_loop.thisTrialN,instructions_loop.thisN,instructions_loop.thisIndex,blocks.thisRepN,blocks.thisTrialN,blocks.thisN,blocks.thisIndex,trials.thisRepN,trials.thisTrialN,trials.thisN,trials.thisIndex,thisRow.t,notes,consent.started,agree_button.started,decline_button.started,consent_img.started,mouse.started,consent.stopped,agree_button.numClicks,agree_button.timesOn,agree_button.timesOff,decline_button.numClicks,decline_button.timesOn,decline_button.timesOff,mouse.x,mouse.y,mouse.leftButton,mouse.midButton,mouse.rightButton,mouse.time,mouse.clicked_name,exp_params.started,exp_params.stopped,welcome.started,welcome_text.started,welcome.stopped,instructions_1.started,instructions_1_text_1.started,instructions_1_text_2.started,key_resp.started,instructions_1.stopped,instructions_loop.key_resp.keys,instructions_loop.key_resp.rt,instructions_loop.key_resp.duration,instructions_2.started,instructions_2_text_1.started,instructions_2_text_2.started,key_resp_2.started,instructions_2.stopped,instructions_loop.key_resp_2.keys,instructions_loop.key_resp_2.rt,instructions_loop.key_resp_2.duration,instructions_3.started,instructions_3_text_1.started,r1_instr3.started,r2_instr3.started,r3_instr3.started,r1_instr3_label.started,r2_instr3_label.started,r3_instr3_label.started,instructions_3_text_3.started,instructions_3_text_4.started,key_resp_3.started,instructions_3.stopped,instructions_loop.key_resp_3.keys,instructions_loop.key_resp_3.rt,instructions_loop.key_resp_3.duration,instructions_4.started,instructions_4_text_1.started,instructions_4_text_3.started,instructions_4_text_2.started,key_resp_4.started,instructions_4.stopped,instructions_loop.key_resp_4.keys,instructions_loop.key_resp_4.rt,instructions_loop.key_resp_4.duration,instructions_5.started,instructions_5_text_1.started,instructions_5_text_2.started,key_resp_5.started,instructions_5.stopped,instructions_loop.key_resp_5.keys,instructions_loop.key_resp_5.rt,instructions_loop.key_resp_5.duration,start_exp.started,start_exp_text.started,key_resp_6.started,start_exp.stopped,key_resp_6.keys,key_resp_6.rt,key_resp_6.duration,h_1_tmp,w_1_tmp,h_2_tmp,w_2_tmp,h_3_tmp,w_3_tmp,config_tmp,config_tmp_1,r_1_x,r_1_y,r_2_x,r_2_y,r_3_x,r_3_y,pre_trial.started,pre_trial.stopped,choice_trial.started,rect_choice.started,r_1.started,r_2.started,r_3.started,r_1_label.started,r_2_label.started,r_3_label.started,prompt.started,choice_trial.stopped,trials.rect_choice.keys,trials.rect_choice.rt,trials.rect_choice.duration,end_block.started,end_block_text.started,end_block.stopped,end.started,end_text.started,key_resp_7.started,end.stopped,key_resp_7.keys,key_resp_7.rt,key_resp_7.duration,debriefing.started,debrief_form.started,end_debrief.started,debriefing.stopped,end_debrief.keys,end_debrief.rt,end_debrief.duration,participant,computer,date,expName,psychopyVersion,frameRate,expStart,
,,,,,,,,,,,,,,,,,,,,,,,,,,,,,,,0.017194032669067383,0.0431065559387207,0.0431065559387207,0.0431065559387207,0.016629695892333984,30.661757230758667,1,[30.617395401000977],[30.617406606674194],0,,,[-71.0],[-522.0],[1],[0],[0],[30.644022703170776],['agree_button'],,,,,,,,,,,,,,,,,,,,,,,,,,,,,,,,,,,,,,,,,,,,,,,,,,,,,,,,,,,,,,,,,,,,,,,,,,,,,,,,,,,,,,,,,,,,,,,,,,,,,,,,,,,124,3,2025-02-26_11h25.20.002,comp,2024.2.4,60.24325364679386,2025-02-26 11h25.46.888178 -0500,
,,,,,,,,,,,,,,,,,,,,,,,,,,,,,,,,,,,,,,,,,,,,,,,,,,30.662011861801147,30.66204595565796,,,,,,,,,,,,,,,,,,,,,,,,,,,,,,,,,,,,,,,,,,,,,,,,,,,,,,,,,,,,,,,,,,,,,,,,,,,,,,,,,,,,,,,,,,,,,,,,,,,,,,,,,124,3,2025-02-26_11h25.20.002,comp,2024.2.4,60.24325364679386,2025-02-26 11h25.46.888178 -0500,
,,,,,,,,,,,,,,,,,,,,,,,,,,,,,,,,,,,,,,,,,,,,,,,,,,,,30.662069082260132,30.67526078224182,32.663105964660645,,,,,,,,,,,,,,,,,,,,,,,,,,,,,,,,,,,,,,,,,,,,,,,,,,,,,,,,,,,,,,,,,,,,,,,,,,,,,,,,,,,,,,,,,,,,,,,,,,,,,,124,3,2025-02-26_11h25.20.002,comp,2024.2.4,60.24325364679386,2025-02-26 11h25.46.888178 -0500,
0,0,0,,,,,,,,,,,,,,,0,0,0,0,,,,,,,,,32.679707765579224,,,,,,,,,,,,,,,,,,,,,,,,,,32.663676261901855,32.679707765579224,32.679707765579224,34.16313099861145,37.69747805595398,space,3.513054132461548,None,37.697561264038086,37.71307945251465,37.71307945251465,39.21305179595947,45.88089108467102,space,6.662362337112427,None,45.88097524642944,45.902021408081055,45.902021408081055,45.902021408081055,45.902021408081055,45.902021408081055,45.902021408081055,45.902021408081055,45.902021408081055,45.902021408081055,47.379931926727295,52.94794940948486,space,5.550822019577026,None,52.948036193847656,52.96334648132324,52.96334648132324,52.96334648132324,54.46300935745239,59.414530992507935,space,4.9392476081848145,None,59.41461658477783,59.42963147163391,59.42963147163391,60.92946100234985,61.54722332954407,space,0.6009354591369629,None,61.54733467102051,61.56276822090149,61.56276822090149,62.94699668884277,space,1.3675713539123535,None,,,,,,,,,,,,,,,,,,,,,,,,,,,,,,,,,,,,,,,,,,,,,,,124,3,2025-02-26_11h25.20.002,comp,2024.2.4,60.24325364679386,2025-02-26 11h25.46.888178 -0500,
0,0,0,critical,dhw,35.0,2.1,lower,70.0,70.0,133.0,57.0,57.0,133.0,3,3.357421636581421,None,,,,,0,0,0,0,0,0,0,24,63.00570011138916,,,,,,,,,,,,,,,,,,,,,,,,,,,,,,,,,,,,,,,,,,,,,,,,,,,,,,,,,,,,,,,,,,,,,,,,,,,,,,,,,70.0,70.0,133.0,57.0,57.0,133.0,2.1,2.11,-160,281,0,267,191,-290,62.992090463638306,62.99213743209839,62.994128465652466,63.00570011138916,63.152772188186646,63.152772188186646,63.152772188186646,63.152772188186646,63.152772188186646,63.152772188186646,63.152772188186646,66.364253282547,3,3.357421636581421,None,,,,,,,,,,,,,,,,,,124,3,2025-02-26_11h25.20.002,comp,2024.2.4,60.24325364679386,2025-02-26 11h25.46.888178 -0500,
1,1,0,critical,dhw,20.0,1.0,lower,78.0,78.0,133.0,57.0,57.0,133.0,3,2.759470224380493,None,,,,,0,0,0,0,0,1,1,54,66.37965822219849,,,,,,,,,,,,,,,,,,,,,,,,,,,,,,,,,,,,,,,,,,,,,,,,,,,,,,,,,,,,,,,,,,,,,,,,,,,,,,,,,78.0,78.0,133.0,57.0,57.0,133.0,1.0,1.2,-164,-10,0,-14,191,-7,66.36498236656189,66.36502146720886,66.36696982383728,66.37965822219849,66.52956867218018,66.52956867218018,66.52956867218018,66.52956867218018,66.52956867218018,66.52956867218018,66.52956867218018,69.14723539352417,3,2.759470224380493,None,,,,,,,,,,,,,,,,,,124,3,2025-02-26_11h25.20.002,comp,2024.2.4,60.24325364679386,2025-02-26 11h25.46.888178 -0500,
2,2,0,critical,whd,20.0,1.0,upper,125.0,200.0,200.0,125.0,141.0,141.0,2,3.9513518810272217,None,,,,,0,0,0,0,0,2,2,91,69.1629683971405,,,,,,,,,,,,,,,,,,,,,,,,,,,,,,,,,,,,,,,,,,,,,,,,,,,,,,,,,,,,,,,,,,,,,,,,,,,,,,,,,125.0,200.0,200.0,125.0,141.0,141.0,1.0,1.3,222,-265,480,-268,709,-285,69.14803314208984,69.14807391166687,69.15004825592041,69.1629683971405,69.31293106079102,69.31293106079102,69.31293106079102,69.31293106079102,69.31293106079102,69.31293106079102,69.31293106079102,73.13110685348511,2,3.9513518810272217,None,,,,,,,,,,,,,,,,,,124,3,2025-02-26_11h25.20.002,comp,2024.2.4,60.24325364679386,2025-02-26 11h25.46.888178 -0500,
3,3,0,critical,wdh,35.0,3.0,lower,57.0,133.0,70.0,70.0,133.0,57.0,3,2.6417226791381836,None,,,,,0,0,0,0,0,3,3,74,73.14600133895874,,,,,,,,,,,,,,,,,,,,,,,,,,,,,,,,,,,,,,,,,,,,,,,,,,,,,,,,,,,,,,,,,,,,,,,,,,,,,,,,,57.0,133.0,70.0,70.0,133.0,57.0,3.0,3.1,-198,272,0,11,160,-258,73.13192915916443,73.13197064399719,73.13409686088562,73.14600133895874,73.29610228538513,73.29610228538513,73.29610228538513,73.29610228538513,73.29610228538513,73.29610228538513,73.29610228538513,75.79723119735718,3,2.6417226791381836,None,,,,,,,,,,,,,,,,,,124,3,2025-02-26_11h25.20.002,comp,2024.2.4,60.24325364679386,2025-02-26 11h25.46.888178 -0500,
4,4,0,critical,dwh,35.0,4.0,lower,70.0,70.0,57.0,133.0,133.0,57.0,3,1.9186275005340576,None,,,,,0,0,0,0,0,4,4,64,75.81292867660522,,,,,,,,,,,,,,,,,,,,,,,,,,,,,,,,,,,,,,,,,,,,,,,,,,,,,,,,,,,,,,,,,,,,,,,,,,,,,,,,,70.0,70.0,57.0,133.0,133.0,57.0,4.0,4.2,-198,-13,0,-253,191,19,75.79798817634583,75.79802823066711,75.8002860546112,75.81292867660522,75.96272873878479,75.96272873878479,75.96272873878479,75.96272873878479,75.96272873878479,75.96272873878479,75.96272873878479,77.74732756614685,3,1.9186275005340576,None,,,,,,,,,,,,,,,,,,124,3,2025-02-26_11h25.20.002,comp,2024.2.4,60.24325364679386,2025-02-26 11h25.46.888178 -0500,
5,5,0,filler_random,None,None,None,None,None,None,None,None,None,None,2,0.9839487075805664,None,,,,,0,0,0,0,0,5,5,135,77.76271104812622,,,,,,,,,,,,,,,,,,,,,,,,,,,,,,,,,,,,,,,,,,,,,,,,,,,,,,,,,,,,,,,,,,,,,,,,,,,,,,,,,57.69254649896257,70.865592955244,194.7386015167847,87.4149237662061,70.0463658680962,157.70448051089537,1.0,1.3,305,-282,480,-252,699,-289,77.74825859069824,77.74830102920532,77.7506172657013,77.76271104812622,77.91281461715698,77.91281461715698,77.91281461715698,77.91281461715698,77.91281461715698,77.91281461715698,77.91281461715698,78.76387405395508,2,0.9839487075805664,None,,,,,,,,,,,,,,,,,,124,3,2025-02-26_11h25.20.002,comp,2024.2.4,60.24325364679386,2025-02-26 11h25.46.888178 -0500,
6,6,0,critical,dhw,20.0,4.0,lower,78.0,78.0,133.0,57.0,57.0,133.0,1,3.934929132461548,None,,,,,0,0,0,0,0,6,6,58,78.77932596206665,,,,,,,,,,,,,,,,,,,,,,,,,,,,,,,,,,,,,,,,,,,,,,,,,,,,,,,,,,,,,,,,,,,,,,,,,,,,,,,,,78.0,78.0,133.0,57.0,57.0,133.0,4.0,4.2,-164,-19,0,-278,191,-16,78.76466941833496,78.76471138000488,78.76672506332397,78.77932596206665,78.92943835258484,78.92943835258484,78.92943835258484,78.92943835258484,78.92943835258484,78.92943835258484,78.92943835258484,82.73047089576721,1,3.934929132461548,None,,,,,,,,,,,,,,,,,,124,3,2025-02-26_11h25.20.002,comp,2024.2.4,60.24325364679386,2025-02-26 11h25.46.888178 -0500,
7,7,0,filler_square,None,None,None,None,None,None,None,None,None,None,1,1.488252878189087,None,,,,,0,0,0,0,0,7,7,208,82.74593234062195,,,,,,,,,,,,,,,,,,,,,,,,,,,,,,,,,,,,,,,,,,,,,,,,,,,,,,,,,,,,,,,,,,,,,,,,,,,,,,,,,171.4233285074028,171.4233285074028,134.97428059173745,146.50356442046206,122.34240125621899,144.2735228195835,1.0,1.1,-735,268,-480,253,-239,288,82.73142838478088,82.73146915435791,82.73389315605164,82.74593234062195,82.89627718925476,82.89627718925476,82.89627718925476,82.89627718925476,82.89627718925476,82.89627718925476,82.89627718925476,84.24758791923523,1,1.488252878189087,None,,,,,,,,,,,,,,,,,,124,3,2025-02-26_11h25.20.002,comp,2024.2.4,60.24325364679386,2025-02-26 11h25.46.888178 -0500,
8,8,0,filler_random,None,None,None,None,None,None,None,None,None,None,2,0.7715294361114502,None,,,,,0,0,0,0,0,8,8,153,84.26261568069458,,,,,,,,,,,,,,,,,,,,,,,,,,,,,,,,,,,,,,,,,,,,,,,,,,,,,,,,,,,,,,,,,,,,,,,,,,,,,,,,,101.52788663046017,91.19003654526088,159.21945104388533,178.9714369965137,94.13320945581837,95.36014052209738,2.1,2.11,-231,279,0,255,233,-267,84.2484998703003,84.24854111671448,84.25086498260498,84.26261568069458,84.41291761398315,84.41291761398315,84.41291761398315,84.41291761398315,84.41291761398315,84.41291761398315,84.41291761398315,85.0472207069397,2,0.7715294361114502,None,,,,,,,,,,,,,,,,,,124,3,2025-02-26_11h25.20.002,comp,2024.2.4,60.24325364679386,2025-02-26 11h25.46.888178 -0500,
9,9,0,critical,hwd,20.0,4.0,lower,133.0,57.0,57.0,133.0,78.0,78.0,3,1.9819707870483398,None,,,,,0,0,0,0,0,9,9,106,85.06258726119995,,,,,,,,,,,,,,,,,,,,,,,,,,,,,,,,,,,,,,,,,,,,,,,,,,,,,,,,,,,,,,,,,,,,,,,,,,,,,,,,,133.0,57.0,57.0,133.0,78.0,78.0,4.0,4.1,-191,-262,0,-17,202,-262,85.04802060127258,85.0480604171753,85.05035972595215,85.06258726119995,85.21271133422852,85.21271133422852,85.21271133422852,85.21271133422852,85.21271133422852,85.21271133422852,85.21271133422852,87.0474624633789,3,1.9819707870483398,None,,,,,,,,,,,,,,,,,,124,3,2025-02-26_11h25.20.002,comp,2024.2.4,60.24325364679386,2025-02-26 11h25.46.888178 -0500,
10,10,0,filler_square,None,None,None,None,None,None,None,None,None,None,1,1.0922164916992188,None,,,,,0,0,0,0,0,10,10,195,87.06287693977356,,,,,,,,,,,,,,,,,,,,,,,,,,,,,,,,,,,,,,,,,,,,,,,,,,,,,,,,,,,,,,,,,,,,,,,,,,,,,,,,,97.03610392752468,97.03610392752468,71.75974011401652,96.898524084635,86.8577966496417,79.62021587147996,1.0,1.3,287,-252,480,-273,664,-281,87.04842185974121,87.04846525192261,87.05078434944153,87.06287693977356,87.21270799636841,87.21270799636841,87.21270799636841,87.21270799636841,87.21270799636841,87.21270799636841,87.21270799636841,88.16393780708313,1,1.0922164916992188,None,,,,,,,,,,,,,,,,,,124,3,2025-02-26_11h25.20.002,comp,2024.2.4,60.24325364679386,2025-02-26 11h25.46.888178 -0500,
11,11,0,critical,wdh,20.0,4.0,lower,57.0,133.0,78.0,78.0,133.0,57.0,3,1.5596873760223389,None,,,,,0,0,0,0,0,11,11,82,88.17948603630066,,,,,,,,,,,,,,,,,,,,,,,,,,,,,,,,,,,,,,,,,,,,,,,,,,,,,,,,,,,,,,,,,,,,,,,,,,,,,,,,,57.0,133.0,78.0,78.0,133.0,57.0,4.0,4.1,-202,-261,0,-4,164,-263,88.16474294662476,88.16478562355042,88.16724514961243,88.17948603630066,88.32927083969116,88.32927083969116,88.32927083969116,88.32927083969116,88.32927083969116,88.32927083969116,88.32927083969116,89.74725604057312,3,1.5596873760223389,None,,,,,,,,,,,,,,,,,,124,3,2025-02-26_11h25.20.002,comp,2024.2.4,60.24325364679386,2025-02-26 11h25.46.888178 -0500,
12,12,0,critical,dwh,20.0,4.0,lower,78.0,78.0,57.0,133.0,133.0,57.0,2,1.1599924564361572,None,,,,,0,0,0,0,0,12,12,70,89.76298379898071,,,,,,,,,,,,,,,,,,,,,,,,,,,,,,,,,,,,,,,,,,,,,,,,,,,,,,,,,,,,,,,,,,,,,,,,,,,,,,,,,78.0,78.0,57.0,133.0,133.0,57.0,4.0,4.1,-202,-255,0,-7,191,-250,89.74805188179016,89.74809408187866,89.75042724609375,89.76298379898071,89.91269445419312,89.91269445419312,89.91269445419312,89.91269445419312,89.91269445419312,89.91269445419312,89.91269445419312,90.93054699897766,2,1.1599924564361572,None,,,,,,,,,,,,,,,,,,124,3,2025-02-26_11h25.20.002,comp,2024.2.4,60.24325364679386,2025-02-26 11h25.46.888178 -0500,
13,13,0,filler_square,None,None,None,None,None,None,None,None,None,None,2,1.9927284717559814,None,,,,,0,0,0,0,0,13,13,197,90.94630098342896,,,,,,,,,,,,,,,,,,,,,,,,,,,,,,,,,,,,,,,,,,,,,,,,,,,,,,,,,,,,,,,,,,,,,,,,,,,,,,,,,61.95618662250281,60.491971840311564,65.45751886549785,65.45751886549785,60.978255447206664,59.86156881681001,3.0,3.1,-159,285,0,-19,159,-271,90.93151569366455,90.931556224823,90.93430781364441,90.94630098342896,91.09596371650696,91.09596371650696,91.09596371650696,91.09596371650696,91.09596371650696,91.09596371650696,91.09596371650696,92.94710922241211,2,1.9927284717559814,None,,,,,,,,,,,,,,,,,,124,3,2025-02-26_11h25.20.002,comp,2024.2.4,60.24325364679386,2025-02-26 11h25.46.888178 -0500,
14,14,0,catch,None,None,None,None,None,None,None,None,None,None,3,1.1672768592834473,None,,,,,0,0,0,0,0,14,14,123,92.96284365653992,,,,,,,,,,,,,,,,,,,,,,,,,,,,,,,,,,,,,,,,,,,,,,,,,,,,,,,,,,,,,,,,,,,,,,,,,,,,,,,,,85,105,62,128,187,138,2.2,2.21,-212,-287,0,275,229,278,92.94816732406616,92.94822597503662,92.95052242279053,92.96284365653992,93.112717628479,93.112717628479,93.112717628479,93.112717628479,93.112717628479,93.112717628479,93.112717628479,94.14704465866089,3,1.1672768592834473,None,,,,,,,,,,,,,,,,,,124,3,2025-02-26_11h25.20.002,comp,2024.2.4,60.24325364679386,2025-02-26 11h25.46.888178 -0500,
15,15,0,critical,hwd,35.0,4.0,lower,133.0,57.0,57.0,133.0,70.0,70.0,1,1.0660712718963623,None,,,,,0,0,0,0,0,15,15,100,94.16264915466309,,,,,,,,,,,,,,,,,,,,,,,,,,,,,,,,,,,,,,,,,,,,,,,,,,,,,,,,,,,,,,,,,,,,,,,,,,,,,,,,,133.0,57.0,57.0,133.0,70.0,70.0,4.0,4.2,-191,-15,0,-269,198,-17,94.14783716201782,94.14787793159485,94.15011858940125,94.16264915466309,94.31265664100647,94.31265664100647,94.31265664100647,94.31265664100647,94.31265664100647,94.31265664100647,94.31265664100647,95.24703001976013,1,1.0660712718963623,None,,,,,,,,,,,,,,,,,,124,3,2025-02-26_11h25.20.002,comp,2024.2.4,60.24325364679386,2025-02-26 11h25.46.888178 -0500,
16,16,0,critical,dhw,35.0,4.0,lower,70.0,70.0,133.0,57.0,57.0,133.0,2,2.3972883224487305,None,,,,,0,0,0,0,0,16,16,52,95.26248407363892,,,,,,,,,,,,,,,,,,,,,,,,,,,,,,,,,,,,,,,,,,,,,,,,,,,,,,,,,,,,,,,,,,,,,,,,,,,,,,,,,70.0,70.0,133.0,57.0,57.0,133.0,4.0,4.2,-160,-19,0,-289,191,4,95.24782943725586,95.2478711605072,95.25044775009155,95.26248407363892,95.41268754005432,95.41268754005432,95.41268754005432,95.41268754005432,95.41268754005432,95.41268754005432,95.41268754005432,97.6639256477356,2,2.3972883224487305,None,,,,,,,,,,,,,,,,,,124,3,2025-02-26_11h25.20.002,comp,2024.2.4,60.24325364679386,2025-02-26 11h25.46.888178 -0500,
17,17,0,critical,dwh,20.0,2.1,lower,78.0,78.0,57.0,133.0,133.0,57.0,2,1.3547098636627197,None,,,,,0,0,0,0,0,17,17,6,97.67940330505371,,,,,,,,,,,,,,,,,,,,,,,,,,,,,,,,,,,,,,,,,,,,,,,,,,,,,,,,,,,,,,,,,,,,,,,,,,,,,,,,,78.0,78.0,57.0,133.0,133.0,57.0,2.1,2.11,-202,287,0,289,191,-287,97.66472721099854,97.66476845741272,97.66715693473816,97.67940330505371,97.82937741279602,97.82937741279602,97.82937741279602,97.82937741279602,97.82937741279602,97.82937741279602,97.82937741279602,99.04709649085999,2,1.3547098636627197,None,,,,,,,,,,,,,,,,,,124,3,2025-02-26_11h25.20.002,comp,2024.2.4,60.24325364679386,2025-02-26 11h25.46.888178 -0500,
18,18,0,catch,None,None,None,None,None,None,None,None,None,None,2,0.7664549350738525,None,,,,,0,0,0,0,0,18,18,128,99.06236839294434,,,,,,,,,,,,,,,,,,,,,,,,,,,,,,,,,,,,,,,,,,,,,,,,,,,,,,,,,,,,,,,,,,,,,,,,,,,,,,,,,113,77,173,152,108,82,4.0,4.1,-210,-280,0,-9,213,-270,99.04814505577087,99.04819917678833,99.05048847198486,99.06236839294434,99.21289396286011,99.21289396286011,99.21289396286011,99.21289396286011,99.21289396286011,99.21289396286011,99.21289396286011,99.84704828262329,2,0.7664549350738525,None,,,,,,,,,,,,,,,,,,124,3,2025-02-26_11h25.20.002,comp,2024.2.4,60.24325364679386,2025-02-26 11h25.46.888178 -0500,
19,19,0,filler_square,None,None,None,None,None,None,None,None,None,None,2,1.0036239624023438,None,,,,,0,0,0,0,0,19,19,199,99.86255979537964,,,,,,,,,,,,,,,,,,,,,,,,,,,,,,,,,,,,,,,,,,,,,,,,,,,,,,,,,,,,,,,,,,,,,,,,,,,,,,,,,111.93384136875682,91.19876559828298,172.87583032271107,172.87583032271107,79.60272373722685,84.22200985759208,2.1,2.11,-228,266,0,265,225,-256,99.84804177284241,99.84808397293091,99.85013580322266,99.86255979537964,100.01274251937866,100.01274251937866,100.01274251937866,100.01274251937866,100.01274251937866,100.01274251937866,100.01274251937866,100.88032221794128,2,1.0036239624023438,None,,,,,,,,,,,,,,,,,,124,3,2025-02-26_11h25.20.002,comp,2024.2.4,60.24325364679386,2025-02-26 11h25.46.888178 -0500,
20,20,0,critical,dhw,35.0,1.0,lower,70.0,70.0,133.0,57.0,57.0,133.0,3,1.3952388763427734,None,,,,,0,0,0,0,0,20,20,48,100.89576554298401,,,,,,,,,,,,,,,,,,,,,,,,,,,,,,,,,,,,,,,,,,,,,,,,,,,,,,,,,,,,,,,,,,,,,,,,,,,,,,,,,70.0,70.0,133.0,57.0,57.0,133.0,1.0,1.2,-160,8,0,3,191,19,100.88108325004578,100.8811252117157,100.88341212272644,100.89576554298401,101.04600238800049,101.04600238800049,101.04600238800049,101.04600238800049,101.04600238800049,101.04600238800049,101.04600238800049,102.29704761505127,3,1.3952388763427734,None,,,,,,,,,,,,,,,,,,124,3,2025-02-26_11h25.20.002,comp,2024.2.4,60.24325364679386,2025-02-26 11h25.46.888178 -0500,
21,21,0,critical,wdh,20.0,1.0,upper,125.0,200.0,141.0,141.0,200.0,125.0,3,3.3783600330352783,None,,,,,0,0,0,0,0,21,21,79,102.31268572807312,,,,,,,,,,,,,,,,,,,,,,,,,,,,,,,,,,,,,,,,,,,,,,,,,,,,,,,,,,,,,,,,,,,,,,,,,,,,,,,,,125.0,200.0,141.0,141.0,200.0,125.0,1.0,1.1,-746,265,-480,272,-251,265,102.29786014556885,102.29790210723877,102.30051279067993,102.31268572807312,102.46290016174316,102.46290016174316,102.46290016174316,102.46290016174316,102.46290016174316,102.46290016174316,102.46290016174316,105.697261095047,3,3.3783600330352783,None,,,,,,,,,,,,,,,,,,124,3,2025-02-26_11h25.20.002,comp,2024.2.4,60.24325364679386,2025-02-26 11h25.46.888178 -0500,
22,22,0,critical,wdh,20.0,2.1,upper,125.0,200.0,141.0,141.0,200.0,125.0,3,1.0749025344848633,None,,,,,0,0,0,0,0,22,22,11,105.71265172958374,,,,,,,,,,,,,,,,,,,,,,,,,,,,,,,,,,,,,,,,,,,,,,,,,,,,,,,,,,,,,,,,,,,,,,,,,,,,,,,,,125.0,200.0,141.0,141.0,200.0,125.0,2.1,2.11,-266,268,0,264,229,-269,105.698068857193,105.6981098651886,105.70039224624634,105.71265172958374,105.86284255981445,105.86284255981445,105.86284255981445,105.86284255981445,105.86284255981445,105.86284255981445,105.86284255981445,106.79724192619324,3,1.0749025344848633,None,,,,,,,,,,,,,,,,,,124,3,2025-02-26_11h25.20.002,comp,2024.2.4,60.24325364679386,2025-02-26 11h25.46.888178 -0500,
23,23,0,critical,hwd,35.0,1.0,lower,133.0,57.0,57.0,133.0,70.0,70.0,1,2.0212795734405518,None,,,,,0,0,0,0,0,23,23,96,106.81273436546326,,,,,,,,,,,,,,,,,,,,,,,,,,,,,,,,,,,,,,,,,,,,,,,,,,,,,,,,,,,,,,,,,,,,,,,,,,,,,,,,,133.0,57.0,57.0,133.0,70.0,70.0,1.0,1.3,289,-256,480,-286,678,-257,106.79803729057312,106.79807901382446,106.80034685134888,106.81273436546326,106.9629020690918,106.9629020690918,106.9629020690918,106.9629020690918,106.9629020690918,106.9629020690918,106.9629020690918,108.8469409942627,1,2.0212795734405518,None,,,,,,,,,,,,,,,,,,124,3,2025-02-26_11h25.20.002,comp,2024.2.4,60.24325364679386,2025-02-26 11h25.46.888178 -0500,
24,24,0,critical,hwd,20.0,1.0,lower,133.0,57.0,57.0,133.0,78.0,78.0,1,1.133551836013794,None,,,,,0,0,0,0,0,24,24,102,108.86242437362671,,,,,,,,,,,,,,,,,,,,,,,,,,,,,,,,,,,,,,,,,,,,,,,,,,,,,,,,,,,,,,,,,,,,,,,,,,,,,,,,,133.0,57.0,57.0,133.0,78.0,78.0,1.0,1.2,-191,-14,0,1,202,17,108.84773421287537,108.84777474403381,108.85033655166626,108.86242437362671,109.01271939277649,109.01271939277649,109.01271939277649,109.01271939277649,109.01271939277649,109.01271939277649,109.01271939277649,110.01364088058472,1,1.133551836013794,None,,,,,,,,,,,,,,,,,,124,3,2025-02-26_11h25.20.002,comp,2024.2.4,60.24325364679386,2025-02-26 11h25.46.888178 -0500,
25,25,0,critical,dhw,20.0,4.0,upper,141.0,141.0,200.0,125.0,125.0,200.0,3,1.10097336769104,None,,,,,0,0,0,0,0,25,25,59,110.02905082702637,,,,,,,,,,,,,,,,,,,,,,,,,,,,,,,,,,,,,,,,,,,,,,,,,,,,,,,,,,,,,,,,,,,,,,,,,,,,,,,,,141.0,141.0,200.0,125.0,125.0,200.0,4.0,4.2,-229,-2,0,-269,258,0,110.0144145488739,110.01445603370667,110.01685786247253,110.02905082702637,110.18256878852844,110.18256878852844,110.18256878852844,110.18256878852844,110.18256878852844,110.18256878852844,110.18256878852844,111.1470844745636,3,1.10097336769104,None,,,,,,,,,,,,,,,,,,124,3,2025-02-26_11h25.20.002,comp,2024.2.4,60.24325364679386,2025-02-26 11h25.46.888178 -0500,
26,26,0,filler_random,None,None,None,None,None,None,None,None,None,None,1,2.7603254318237305,None,,,,,0,0,0,0,0,26,26,134,111.16247200965881,,,,,,,,,,,,,,,,,,,,,,,,,,,,,,,,,,,,,,,,,,,,,,,,,,,,,,,,,,,,,,,,,,,,,,,,,,,,,,,,,191.05757595296694,168.3383008904665,174.2615287804236,82.62265613021086,165.9827719905653,169.58711879712206,2.2,2.22,-221,287,0,-280,222,-280,111.14803314208984,111.14807748794556,111.15011787414551,111.16247200965881,111.31284546852112,111.31284546852112,111.31284546852112,111.31284546852112,111.31284546852112,111.31284546852112,111.31284546852112,113.93055295944214,1,2.7603254318237305,None,,,,,,,,,,,,,,,,,,124,3,2025-02-26_11h25.20.002,comp,2024.2.4,60.24325364679386,2025-02-26 11h25.46.888178 -0500,
27,27,0,critical,whd,35.0,2.1,upper,125.0,200.0,200.0,125.0,127.0,127.0,3,0.7839179039001465,None,,,,,0,0,0,0,0,27,27,13,113.94601678848267,,,,,,,,,,,,,,,,,,,,,,,,,,,,,,,,,,,,,,,,,,,,,,,,,,,,,,,,,,,,,,,,,,,,,,,,,,,,,,,,,125.0,200.0,200.0,125.0,127.0,127.0,2.1,2.11,-258,284,0,269,222,-256,113.93135952949524,113.93140149116516,113.93374991416931,113.94601678848267,114.09607100486755,114.09607100486755,114.09607100486755,114.09607100486755,114.09607100486755,114.09607100486755,114.09607100486755,114.74703884124756,3,0.7839179039001465,None,,,,,,,,,,,,,,,,,,124,3,2025-02-26_11h25.20.002,comp,2024.2.4,60.24325364679386,2025-02-26 11h25.46.888178 -0500,
28,28,0,critical,hwd,35.0,2.1,lower,133.0,57.0,57.0,133.0,70.0,70.0,3,3.351590156555176,None,,,,,0,0,0,0,0,28,28,16,114.76234269142151,,,,,,,,,,,,,,,,,,,,,,,,,,,,,,,,,,,,,,,,,,,,,,,,,,,,,,,,,,,,,,,,,,,,,,,,,,,,,,,,,133.0,57.0,57.0,133.0,70.0,70.0,2.1,2.11,-191,254,0,256,198,-260,114.74785017967224,114.74789118766785,114.75047039985657,114.76234269142151,114.91299295425415,114.91299295425415,114.91299295425415,114.91299295425415,114.91299295425415,114.91299295425415,114.91299295425415,118.1302638053894,3,3.351590156555176,None,,,,,,,,,,,,,,,,,,124,3,2025-02-26_11h25.20.002,comp,2024.2.4,60.24325364679386,2025-02-26 11h25.46.888178 -0500,
29,29,0,filler_square,None,None,None,None,None,None,None,None,None,None,2,3.498845338821411,None,,,,,0,0,0,0,0,29,29,206,118.14567637443542,,,,,,,,,,,,,,,,,,,,,,,,,,,,,,,,,,,,,,,,,,,,,,,,,,,,,,,,,,,,,,,,,,,,,,,,,,,,,,,,,60.481941379006926,63.73647815601257,66.73331835086805,66.73331835086805,59.5840291310858,61.02474586379697,2.2,2.21,-161,-262,0,288,160,252,118.13122701644897,118.1312689781189,118.13362050056458,118.14567637443542,118.29575729370117,118.29575729370117,118.29575729370117,118.29575729370117,118.29575729370117,118.29575729370117,118.29575729370117,121.6470160484314,2,3.498845338821411,None,,,,,,,,,,,,,,,,,,124,3,2025-02-26_11h25.20.002,comp,2024.2.4,60.24325364679386,2025-02-26 11h25.46.888178 -0500,
30,30,0,catch,None,None,None,None,None,None,None,None,None,None,2,1.067033052444458,None,,,,,0,0,0,0,0,30,30,129,121.66292357444763,,,,,,,,,,,,,,,,,,,,,,,,,,,,,,,,,,,,,,,,,,,,,,,,,,,,,,,,,,,,,,,,,,,,,,,,,,,,,,,,,124,66,186,139,98,92,2.1,2.11,-198,285,0,283,212,-271,121.648104429245,121.64814686775208,121.65037655830383,121.66292357444763,121.81272292137146,121.81272292137146,121.81272292137146,121.81272292137146,121.81272292137146,121.81272292137146,121.81272292137146,122.74694967269897,2,1.067033052444458,None,,,,,,,,,,,,,,,,,,124,3,2025-02-26_11h25.20.002,comp,2024.2.4,60.24325364679386,2025-02-26 11h25.46.888178 -0500,
31,31,0,filler_random,None,None,None,None,None,None,None,None,None,None,2,2.2971701622009277,None,,,,,0,0,0,0,0,31,31,133,122.76236844062805,,,,,,,,,,,,,,,,,,,,,,,,,,,,,,,,,,,,,,,,,,,,,,,,,,,,,,,,,,,,,,,,,,,,,,,,,,,,,,,,,119.796713225228,88.08370039099724,152.96799694076253,110.97029742183798,178.98992774880685,87.12436415304595,3.0,3.2,-196,-253,0,5,195,274,122.74783086776733,122.74787187576294,122.74980568885803,122.76236844062805,122.9127984046936,122.9127984046936,122.9127984046936,122.9127984046936,122.9127984046936,122.9127984046936,122.9127984046936,125.06376481056213,2,2.2971701622009277,None,,,,,,,,,,,,,,,,,,124,3,2025-02-26_11h25.20.002,comp,2024.2.4,60.24325364679386,2025-02-26 11h25.46.888178 -0500,
32,32,0,critical,hdw,35.0,4.0,lower,133.0,57.0,70.0,70.0,57.0,133.0,2,5.0917134284973145,None,,,,,0,0,0,0,0,32,32,112,125.09587001800537,,,,,,,,,,,,,,,,,,,,,,,,,,,,,,,,,,,,,,,,,,,,,,,,,,,,,,,,,,,,,,,,,,,,,,,,,,,,,,,,,133.0,57.0,70.0,70.0,57.0,133.0,4.0,4.1,-160,-258,0,-15,198,-283,125.06456685066223,125.06460762023926,125.06702852249146,125.09587001800537,125.22922325134277,125.22922325134277,125.22922325134277,125.22922325134277,125.22922325134277,125.22922325134277,125.22922325134277,130.19702768325806,2,5.0917134284973145,None,,,,,,,,,,,,,,,,,,124,3,2025-02-26_11h25.20.002,comp,2024.2.4,60.24325364679386,2025-02-26 11h25.46.888178 -0500,
33,33,0,critical,whd,20.0,2.1,upper,125.0,200.0,200.0,125.0,141.0,141.0,2,1.6313164234161377,None,,,,,0,0,0,0,0,33,33,15,130.21267747879028,,,,,,,,,,,,,,,,,,,,,,,,,,,,,,,,,,,,,,,,,,,,,,,,,,,,,,,,,,,,,,,,,,,,,,,,,,,,,,,,,125.0,200.0,200.0,125.0,141.0,141.0,2.1,2.11,-258,259,0,276,229,-290,130.19786548614502,130.19790697097778,130.2004680633545,130.21267747879028,130.36263132095337,130.36263132095337,130.36263132095337,130.36263132095337,130.36263132095337,130.36263132095337,130.36263132095337,131.84725546836853,2,1.6313164234161377,None,,,,,,,,,,,,,,,,,,124,3,2025-02-26_11h25.20.002,comp,2024.2.4,60.24325364679386,2025-02-26 11h25.46.888178 -0500,
34,34,0,critical,whd,20.0,3.0,upper,125.0,200.0,200.0,125.0,141.0,141.0,2,1.6123476028442383,None,,,,,0,0,0,0,0,34,34,93,131.8625407218933,,,,,,,,,,,,,,,,,,,,,,,,,,,,,,,,,,,,,,,,,,,,,,,,,,,,,,,,,,,,,,,,,,,,,,,,,,,,,,,,,125.0,200.0,200.0,125.0,141.0,141.0,3.0,3.2,-258,-275,0,14,229,254,131.84803557395935,131.84807777404785,131.85029411315918,131.8625407218933,132.0126473903656,132.0126473903656,132.0126473903656,132.0126473903656,132.0126473903656,132.0126473903656,132.0126473903656,133.48064160346985,2,1.6123476028442383,None,,,,,,,,,,,,,,,,,,124,3,2025-02-26_11h25.20.002,comp,2024.2.4,60.24325364679386,2025-02-26 11h25.46.888178 -0500,
35,35,0,filler_square,None,None,None,None,None,None,None,None,None,None,3,1.466446876525879,None,,,,,0,0,0,0,0,35,35,193,133.49620151519775,,,,,,,,,,,,,,,,,,,,,,,,,,,,,,,,,,,,,,,,,,,,,,,,,,,,,,,,,,,,,,,,,,,,,,,,,,,,,,,,,71.42920344703172,62.55166704613149,61.882052154591676,96.14240864991955,100.9472578475827,100.9472578475827,1.0,1.2,-175,5,0,16,195,-9,133.48160123825073,133.48164319992065,133.48500418663025,133.49620151519775,133.6457781791687,133.6457781791687,133.6457781791687,133.6457781791687,133.6457781791687,133.6457781791687,133.6457781791687,134.98010540008545,3,1.466446876525879,None,,,,,,,,,,,,,,,,,,124,3,2025-02-26_11h25.20.002,comp,2024.2.4,60.24325364679386,2025-02-26 11h25.46.888178 -0500,
36,36,0,critical,whd,35.0,3.0,lower,57.0,133.0,133.0,57.0,70.0,70.0,2,1.9112002849578857,None,,,,,0,0,0,0,0,36,36,86,134.99553847312927,,,,,,,,,,,,,,,,,,,,,,,,,,,,,,,,,,,,,,,,,,,,,,,,,,,,,,,,,,,,,,,,,,,,,,,,,,,,,,,,,57.0,133.0,133.0,57.0,70.0,70.0,3.0,3.1,-191,288,0,5,160,-273,134.98089838027954,134.9809386730194,134.9831669330597,134.99553847312927,135.14578485488892,135.14578485488892,135.14578485488892,135.14578485488892,135.14578485488892,135.14578485488892,135.14578485488892,136.91370391845703,2,1.9112002849578857,None,,,,,,,,,,,,,,,,,,124,3,2025-02-26_11h25.20.002,comp,2024.2.4,60.24325364679386,2025-02-26 11h25.46.888178 -0500,
37,37,0,critical,hwd,20.0,3.0,lower,133.0,57.0,57.0,133.0,78.0,78.0,2,1.8829097747802734,None,,,,,0,0,0,0,0,37,37,104,136.92952942848206,,,,,,,,,,,,,,,,,,,,,,,,,,,,,,,,,,,,,,,,,,,,,,,,,,,,,,,,,,,,,,,,,,,,,,,,,,,,,,,,,133.0,57.0,57.0,133.0,78.0,78.0,3.0,3.1,-191,280,0,1,202,-257,136.91449880599976,136.914541721344,136.9166374206543,136.92952942848206,137.07908368110657,137.07908368110657,137.07908368110657,137.07908368110657,137.07908368110657,137.07908368110657,137.07908368110657,138.81373190879822,2,1.8829097747802734,None,,,,,,,,,,,,,,,,,,124,3,2025-02-26_11h25.20.002,comp,2024.2.4,60.24325364679386,2025-02-26 11h25.46.888178 -0500,
38,38,0,critical,whd,35.0,2.1,lower,57.0,133.0,133.0,57.0,70.0,70.0,2,1.916964054107666,None,,,,,0,0,0,0,0,38,38,12,138.82909774780273,,,,,,,,,,,,,,,,,,,,,,,,,,,,,,,,,,,,,,,,,,,,,,,,,,,,,,,,,,,,,,,,,,,,,,,,,,,,,,,,,57.0,133.0,133.0,57.0,70.0,70.0,2.1,2.11,-191,254,0,262,160,-273,138.81454372406006,138.81458497047424,138.81711411476135,138.82909774780273,138.979083776474,138.979083776474,138.979083776474,138.979083776474,138.979083776474,138.979083776474,138.979083776474,140.7636570930481,2,1.916964054107666,None,,,,,,,,,,,,,,,,,,124,3,2025-02-26_11h25.20.002,comp,2024.2.4,60.24325364679386,2025-02-26 11h25.46.888178 -0500,
39,39,0,critical,dwh,20.0,4.0,upper,141.0,141.0,125.0,200.0,200.0,125.0,3,1.1189801692962646,None,,,,,0,0,0,0,0,39,39,71,140.7788906097412,,,,,,,,,,,,,,,,,,,,,,,,,,,,,,,,,,,,,,,,,,,,,,,,,,,,,,,,,,,,,,,,,,,,,,,,,,,,,,,,,141.0,141.0,125.0,200.0,200.0,125.0,4.0,4.1,-266,-286,0,15,258,-255,140.76455426216125,140.76459646224976,140.7671136856079,140.7788906097412,140.92930555343628,140.92930555343628,140.92930555343628,140.92930555343628,140.92930555343628,140.92930555343628,140.92930555343628,141.91364431381226,3,1.1189801692962646,None,,,,,,,,,,,,,,,,,,124,3,2025-02-26_11h25.20.002,comp,2024.2.4,60.24325364679386,2025-02-26 11h25.46.888178 -0500,
40,40,0,critical,hdw,35.0,1.0,lower,133.0,57.0,70.0,70.0,57.0,133.0,3,4.857791185379028,None,,,,,0,0,0,0,0,40,40,108,141.9288671016693,,,,,,,,,,,,,,,,,,,,,,,,,,,,,,,,,,,,,,,,,,,,,,,,,,,,,,,,,,,,,,,,,,,,,,,,,,,,,,,,,133.0,57.0,70.0,70.0,57.0,133.0,1.0,1.1,-640,281,-480,258,-282,271,141.91445970535278,141.91450119018555,141.91691136360168,141.9288671016693,142.0789921283722,142.0789921283722,142.0789921283722,142.0789921283722,142.0789921283722,142.0789921283722,142.0789921283722,146.7968626022339,3,4.857791185379028,None,,,,,,,,,,,,,,,,,,124,3,2025-02-26_11h25.20.002,comp,2024.2.4,60.24325364679386,2025-02-26 11h25.46.888178 -0500,
41,41,0,critical,dwh,20.0,1.0,upper,141.0,141.0,125.0,200.0,200.0,125.0,3,3.205094814300537,None,,,,,0,0,0,0,0,41,41,67,146.8124966621399,,,,,,,,,,,,,,,,,,,,,,,,,,,,,,,,,,,,,,,,,,,,,,,,,,,,,,,,,,,,,,,,,,,,,,,,,,,,,,,,,141.0,141.0,125.0,200.0,200.0,125.0,1.0,1.2,-266,-13,0,15,258,4,146.79765224456787,146.79769587516785,146.79971289634705,146.8124966621399,146.9625039100647,146.9625039100647,146.9625039100647,146.9625039100647,146.9625039100647,146.9625039100647,146.9625039100647,150.03036737442017,3,3.205094814300537,None,,,,,,,,,,,,,,,,,,124,3,2025-02-26_11h25.20.002,comp,2024.2.4,60.24325364679386,2025-02-26 11h25.46.888178 -0500,
42,42,0,critical,whd,20.0,4.0,upper,125.0,200.0,200.0,125.0,141.0,141.0,1,3.4289681911468506,None,,,,,0,0,0,0,0,42,42,95,150.0457057952881,,,,,,,,,,,,,,,,,,,,,,,,,,,,,,,,,,,,,,,,,,,,,,,,,,,,,,,,,,,,,,,,,,,,,,,,,,,,,,,,,125.0,200.0,200.0,125.0,141.0,141.0,4.0,4.1,-258,-271,0,-19,229,-263,150.03115320205688,150.03120875358582,150.03450679779053,150.0457057952881,150.19624876976013,150.19624876976013,150.19624876976013,150.19624876976013,150.19624876976013,150.19624876976013,150.19624876976013,153.48030376434326,1,3.4289681911468506,None,,,,,,,,,,,,,,,,,,124,3,2025-02-26_11h25.20.002,comp,2024.2.4,60.24325364679386,2025-02-26 11h25.46.888178 -0500,
43,43,0,filler_random,None,None,None,None,None,None,None,None,None,None,3,2.0500166416168213,None,,,,,0,0,0,0,0,43,43,154,153.4959843158722,,,,,,,,,,,,,,,,,,,,,,,,,,,,,,,,,,,,,,,,,,,,,,,,,,,,,,,,,,,,,,,,,,,,,,,,,,,,,,,,,86.2767112169479,103.31799025973817,78.49370410231725,184.88472939704752,162.78768081976656,91.4660971093694,4.0,4.2,-240,11,0,-257,234,-12,153.481201171875,153.48124504089355,153.48328304290771,153.4959843158722,153.64565539360046,153.64565539360046,153.64565539360046,153.64565539360046,153.64565539360046,153.64565539360046,153.64565539360046,155.56342911720276,3,2.0500166416168213,None,,,,,,,,,,,,,,,,,,124,3,2025-02-26_11h25.20.002,comp,2024.2.4,60.24325364679386,2025-02-26 11h25.46.888178 -0500,
44,44,0,critical,wdh,20.0,2.1,lower,57.0,133.0,78.0,78.0,133.0,57.0,1,6.70287299156189,None,,,,,0,0,0,0,0,44,44,10,155.5788586139679,,,,,,,,,,,,,,,,,,,,,,,,,,,,,,,,,,,,,,,,,,,,,,,,,,,,,,,,,,,,,,,,,,,,,,,,,,,,,,,,,57.0,133.0,78.0,78.0,133.0,57.0,2.1,2.12,-202,-254,0,-279,164,256,155.56423711776733,155.56427812576294,155.56659817695618,155.5788586139679,155.72899222373962,155.72899222373962,155.72899222373962,155.72899222373962,155.72899222373962,155.72899222373962,155.72899222373962,162.29665112495422,1,6.70287299156189,None,,,,,,,,,,,,,,,,,,124,3,2025-02-26_11h25.20.002,comp,2024.2.4,60.24325364679386,2025-02-26 11h25.46.888178 -0500,
45,45,0,critical,dwh,35.0,2.1,upper,127.0,127.0,125.0,200.0,200.0,125.0,3,1.5535247325897217,None,,,,,0,0,0,0,0,45,45,5,162.3121247291565,,,,,,,,,,,,,,,,,,,,,,,,,,,,,,,,,,,,,,,,,,,,,,,,,,,,,,,,,,,,,,,,,,,,,,,,,,,,,,,,,127.0,127.0,125.0,200.0,200.0,125.0,2.1,2.12,-260,-273,0,-258,258,261,162.29745411872864,162.29749608039856,162.29998683929443,162.3121247291565,162.46242451667786,162.46242451667786,162.46242451667786,162.46242451667786,162.46242451667786,162.46242451667786,162.46242451667786,163.88015413284302,3,1.5535247325897217,None,,,,,,,,,,,,,,,,,,124,3,2025-02-26_11h25.20.002,comp,2024.2.4,60.24325364679386,2025-02-26 11h25.46.888178 -0500,
46,46,0,filler_random,None,None,None,None,None,None,None,None,None,None,2,0.9003207683563232,None,,,,,0,0,0,0,0,46,46,151,163.8954086303711,,,,,,,,,,,,,,,,,,,,,,,,,,,,,,,,,,,,,,,,,,,,,,,,,,,,,,,,,,,,,,,,,,,,,,,,,,,,,,,,,57.673319624144725,61.427369182010054,122.47158226561841,197.50411640950847,125.07534967862001,109.2398328446221,3.0,3.2,-225,-259,0,-19,249,257,163.8810682296753,163.88110995292664,163.88315963745117,163.8954086303711,164.04561305046082,164.04561305046082,164.04561305046082,164.04561305046082,164.04561305046082,164.04561305046082,164.04561305046082,164.79700636863708,2,0.9003207683563232,None,,,,,,,,,,,,,,,,,,124,3,2025-02-26_11h25.20.002,comp,2024.2.4,60.24325364679386,2025-02-26 11h25.46.888178 -0500,
47,47,0,critical,dhw,20.0,2.1,upper,141.0,141.0,200.0,125.0,125.0,200.0,2,5.710235118865967,None,,,,,0,0,0,0,0,47,47,27,164.81227660179138,,,,,,,,,,,,,,,,,,,,,,,,,,,,,,,,,,,,,,,,,,,,,,,,,,,,,,,,,,,,,,,,,,,,,,,,,,,,,,,,,141.0,141.0,200.0,125.0,125.0,200.0,2.1,2.12,-229,-254,0,-282,258,268,164.7978265285492,164.79786705970764,164.7999312877655,164.81227660179138,164.9625096321106,164.9625096321106,164.9625096321106,164.9625096321106,164.9625096321106,164.9625096321106,164.9625096321106,170.53012943267822,2,5.710235118865967,None,,,,,,,,,,,,,,,,,,124,3,2025-02-26_11h25.20.002,comp,2024.2.4,60.24325364679386,2025-02-26 11h25.46.888178 -0500,
48,48,0,filler_square,None,None,None,None,None,None,None,None,None,None,2,1.5291638374328613,None,,,,,0,0,0,0,0,48,48,191,170.54562830924988,,,,,,,,,,,,,,,,,,,,,,,,,,,,,,,,,,,,,,,,,,,,,,,,,,,,,,,,,,,,,,,,,,,,,,,,,,,,,,,,,59.75820130415207,57.25033153786792,74.62503284862714,74.62503284862714,66.59402983342167,58.260149151794636,2.2,2.21,-162,-268,0,287,162,260,170.53108596801758,170.53112840652466,170.53338313102722,170.54562830924988,170.70297598838806,170.70297598838806,170.70297598838806,170.70297598838806,170.70297598838806,170.70297598838806,170.70297598838806,172.0798978805542,2,1.5291638374328613,None,,,,,,,,,,,,,,,,,,124,3,2025-02-26_11h25.20.002,comp,2024.2.4,60.24325364679386,2025-02-26 11h25.46.888178 -0500,
49,49,0,filler_square,None,None,None,None,None,None,None,None,None,None,2,1.6912753582000732,None,,,,,0,0,0,0,0,49,49,170,172.0955934524536,,,,,,,,,,,,,,,,,,,,,,,,,,,,,,,,,,,,,,,,,,,,,,,,,,,,,,,,,,,,,,,,,,,,,,,,,,,,,,,,,77.9110187888817,60.68414740223557,99.34940108174251,99.34940108174251,85.97274411126018,92.42037456492501,2.2,2.21,-176,-289,0,282,192,279,172.0808129310608,172.08085465431213,172.08334374427795,172.0955934524536,172.24542617797852,172.24542617797852,172.24542617797852,172.24542617797852,172.24542617797852,172.24542617797852,172.24542617797852,173.79670357704163,2,1.6912753582000732,None,,,,,,,,,,,,,,,,,,124,3,2025-02-26_11h25.20.002,comp,2024.2.4,60.24325364679386,2025-02-26 11h25.46.888178 -0500,
50,50,0,catch,None,None,None,None,None,None,None,None,None,None,2,0.9835381507873535,None,,,,,0,0,0,0,0,50,50,121,173.81226563453674,,,,,,,,,,,,,,,,,,,,,,,,,,,,,,,,,,,,,,,,,,,,,,,,,,,,,,,,,,,,,,,,,,,,,,,,,,,,,,,,,96,94,197,128,111,79,2.1,2.12,-207,-282,0,-284,200,281,173.7977843284607,173.79782819747925,173.80025124549866,173.81226563453674,173.96226525306702,173.96226525306702,173.96226525306702,173.96226525306702,173.96226525306702,173.96226525306702,173.96226525306702,174.81332802772522,2,0.9835381507873535,None,,,,,,,,,,,,,,,,,,124,3,2025-02-26_11h25.20.002,comp,2024.2.4,60.24325364679386,2025-02-26 11h25.46.888178 -0500,
51,51,0,critical,hdw,35.0,2.1,upper,200.0,125.0,127.0,127.0,125.0,200.0,3,1.8690505027770996,None,,,,,0,0,0,0,0,51,51,21,174.82866311073303,,,,,,,,,,,,,,,,,,,,,,,,,,,,,,,,,,,,,,,,,,,,,,,,,,,,,,,,,,,,,,,,,,,,,,,,,,,,,,,,,200.0,125.0,127.0,127.0,125.0,200.0,2.1,2.11,-222,273,0,254,260,-288,174.81412768363953,174.81416940689087,174.81652426719666,174.82866311073303,174.9789695739746,174.9789695739746,174.9789695739746,174.9789695739746,174.9789695739746,174.9789695739746,174.9789695739746,176.71348309516907,3,1.8690505027770996,None,,,,,,,,,,,,,,,,,,124,3,2025-02-26_11h25.20.002,comp,2024.2.4,60.24325364679386,2025-02-26 11h25.46.888178 -0500,
52,52,0,filler_square,None,None,None,None,None,None,None,None,None,None,3,1.3851215839385986,None,,,,,0,0,0,0,0,52,52,186,176.72857189178467,,,,,,,,,,,,,,,,,,,,,,,,,,,,,,,,,,,,,,,,,,,,,,,,,,,,,,,,,,,,,,,,,,,,,,,,,,,,,,,,,67.07806139322737,71.29503431689267,70.46406289226876,75.73114763864642,85.64804855279837,85.64804855279837,3.0,3.2,-170,-278,0,-20,177,272,176.71445679664612,176.71449828147888,176.71684193611145,176.72857189178467,176.87871766090393,176.87871766090393,176.87871766090393,176.87871766090393,176.87871766090393,176.87871766090393,176.87871766090393,178.1300446987152,3,1.3851215839385986,None,,,,,,,,,,,,,,,,,,124,3,2025-02-26_11h25.20.002,comp,2024.2.4,60.24325364679386,2025-02-26 11h25.46.888178 -0500,
53,53,0,filler_random,None,None,None,None,None,None,None,None,None,None,3,1.2670562267303467,None,,,,,0,0,0,0,0,53,53,166,178.14537715911865,,,,,,,,,,,,,,,,,,,,,,,,,,,,,,,,,,,,,,,,,,,,,,,,,,,,,,,,,,,,,,,,,,,,,,,,,,,,,,,,,148.8186927139759,117.72275899636523,107.30982118429836,170.83348897103804,143.78489151959064,197.0527503044247,4.0,4.1,-240,-264,0,-7,280,-264,178.13097095489502,178.13101315498352,178.13357281684875,178.14537715911865,178.29562711715698,178.29562711715698,178.29562711715698,178.29562711715698,178.29562711715698,178.29562711715698,178.29562711715698,179.43017411231995,3,1.2670562267303467,None,,,,,,,,,,,,,,,,,,124,3,2025-02-26_11h25.20.002,comp,2024.2.4,60.24325364679386,2025-02-26 11h25.46.888178 -0500,
54,54,0,filler_random,None,None,None,None,None,None,None,None,None,None,1,1.9007673263549805,None,,,,,0,0,0,0,0,54,54,138,179.4452850818634,,,,,,,,,,,,,,,,,,,,,,,,,,,,,,,,,,,,,,,,,,,,,,,,,,,,,,,,,,,,,,,,,,,,,,,,,,,,,,,,,145.97669470802995,120.37084050669463,113.83704175896017,173.9683694788009,104.40045177608647,148.83719863368057,4.0,4.2,-243,18,0,-282,257,19,179.4310760498047,179.43111777305603,179.433265209198,179.4452850818634,179.59571862220764,179.59571862220764,179.59571862220764,179.59571862220764,179.59571862220764,179.59571862220764,179.59571862220764,181.3633167743683,1,1.9007673263549805,None,,,,,,,,,,,,,,,,,,124,3,2025-02-26_11h25.20.002,comp,2024.2.4,60.24325364679386,2025-02-26 11h25.46.888178 -0500,
55,55,0,critical,dhw,35.0,2.1,upper,127.0,127.0,200.0,125.0,125.0,200.0,2,0.8171041011810303,None,,,,,0,0,0,0,0,55,55,25,181.37863659858704,,,,,,,,,,,,,,,,,,,,,,,,,,,,,,,,,,,,,,,,,,,,,,,,,,,,,,,,,,,,,,,,,,,,,,,,,,,,,,,,,127.0,127.0,200.0,125.0,125.0,200.0,2.1,2.12,-222,-250,0,-284,258,267,181.36409831047058,181.36413979530334,181.36647629737854,181.37863659858704,181.5289888381958,181.5289888381958,181.5289888381958,181.5289888381958,181.5289888381958,181.5289888381958,181.5289888381958,182.21330428123474,2,0.8171041011810303,None,,,,,,,,,,,,,,,,,,124,3,2025-02-26_11h25.20.002,comp,2024.2.4,60.24325364679386,2025-02-26 11h25.46.888178 -0500,
56,56,0,critical,wdh,20.0,2.1,lower,57.0,133.0,78.0,78.0,133.0,57.0,3,1.6779820919036865,None,,,,,0,0,0,0,0,56,56,34,182.22851085662842,,,,,,,,,,,,,,,,,,,,,,,,,,,,,,,,,,,,,,,,,,,,,,,,,,,,,,,,,,,,,,,,,,,,,,,,,,,,,,,,,57.0,133.0,78.0,78.0,133.0,57.0,2.1,2.12,-202,-268,0,-252,164,278,182.21411299705505,182.21415400505066,182.2164797782898,182.22851085662842,182.37870717048645,182.37870717048645,182.37870717048645,182.37870717048645,182.37870717048645,182.37870717048645,182.37870717048645,183.91341924667358,3,1.6779820919036865,None,,,,,,,,,,,,,,,,,,124,3,2025-02-26_11h25.20.002,comp,2024.2.4,60.24325364679386,2025-02-26 11h25.46.888178 -0500,
57,57,0,critical,dhw,20.0,1.0,upper,141.0,141.0,200.0,125.0,125.0,200.0,2,1.4172182083129883,None,,,,,0,0,0,0,0,57,57,55,183.92885541915894,,,,,,,,,,,,,,,,,,,,,,,,,,,,,,,,,,,,,,,,,,,,,,,,,,,,,,,,,,,,,,,,,,,,,,,,,,,,,,,,,141.0,141.0,200.0,125.0,125.0,200.0,1.0,1.3,251,-263,480,-253,738,-281,183.91418862342834,183.9142324924469,183.91626143455505,183.92885541915894,184.0790696144104,184.0790696144104,184.0790696144104,184.0790696144104,184.0790696144104,184.0790696144104,184.0790696144104,185.36341190338135,2,1.4172182083129883,None,,,,,,,,,,,,,,,,,,124,3,2025-02-26_11h25.20.002,comp,2024.2.4,60.24325364679386,2025-02-26 11h25.46.888178 -0500,
58,58,0,filler_square,None,None,None,None,None,None,None,None,None,None,3,0.9349024295806885,None,,,,,0,0,0,0,0,58,58,198,185.37860298156738,,,,,,,,,,,,,,,,,,,,,,,,,,,,,,,,,,,,,,,,,,,,,,,,,,,,,,,,,,,,,,,,,,,,,,,,,,,,,,,,,99.69594942046047,87.61845439450894,67.74641751705104,98.49726425589526,113.62454987624467,113.62454987624467,3.0,3.1,-189,270,0,15,202,-267,185.3643696308136,185.36441206932068,185.3667676448822,185.37860298156738,185.52872276306152,185.52872276306152,185.52872276306152,185.52872276306152,185.52872276306152,185.52872276306152,185.52872276306152,186.32978081703186,3,0.9349024295806885,None,,,,,,,,,,,,,,,,,,124,3,2025-02-26_11h25.20.002,comp,2024.2.4,60.24325364679386,2025-02-26 11h25.46.888178 -0500,
59,59,0,filler_square,None,None,None,None,None,None,None,None,None,None,1,1.099121332168579,None,,,,,0,0,0,0,0,59,59,209,186.3453130722046,,,,,,,,,,,,,,,,,,,,,,,,,,,,,,,,,,,,,,,,,,,,,,,,,,,,,,,,,,,,,,,,,,,,,,,,,,,,,,,,,117.35263295534294,117.35263295534294,75.83847645310823,90.7596766904093,62.47823425787555,116.31349799307506,4.0,4.2,-200,1,0,-277,200,5,186.33076214790344,186.33080410957336,186.33331179618835,186.3453130722046,186.49540972709656,186.49540972709656,186.49540972709656,186.49540972709656,186.49540972709656,186.49540972709656,186.49540972709656,187.4467396736145,1,1.099121332168579,None,,,,,,,,,,,,,,,,,,124,3,2025-02-26_11h25.20.002,comp,2024.2.4,60.24325364679386,2025-02-26 11h25.46.888178 -0500,
60,60,0,filler_random,None,None,None,None,None,None,None,None,None,None,2,2.8355519771575928,None,,,,,0,0,0,0,0,60,60,158,187.46207904815674,,,,,,,,,,,,,,,,,,,,,,,,,,,,,,,,,,,,,,,,,,,,,,,,,,,,,,,,,,,,,,,,,,,,,,,,,,,,,,,,,151.06453897244631,135.26796274937362,196.03766833456194,116.06954540806635,142.34474413235833,122.93074645590033,4.0,4.1,-222,-254,0,20,216,-266,187.4477961063385,187.44783926010132,187.45049858093262,187.46207904815674,187.61225986480713,187.61225986480713,187.61225986480713,187.61225986480713,187.61225986480713,187.61225986480713,187.61225986480713,190.31332755088806,2,2.8355519771575928,None,,,,,,,,,,,,,,,,,,124,3,2025-02-26_11h25.20.002,comp,2024.2.4,60.24325364679386,2025-02-26 11h25.46.888178 -0500,
61,61,0,filler_random,None,None,None,None,None,None,None,None,None,None,3,1.2341182231903076,None,,,,,0,0,0,0,0,61,61,139,190.32856941223145,,,,,,,,,,,,,,,,,,,,,,,,,,,,,,,,,,,,,,,,,,,,,,,,,,,,,,,,,,,,,,,,,,,,,,,,,,,,,,,,,98.48746178196865,101.0253640960002,187.85914662410025,119.11026888153,166.7099476295051,167.00314852879626,2.2,2.22,-206,284,0,-282,239,-274,190.31422924995422,190.31427216529846,190.3163526058197,190.32856941223145,190.47881197929382,190.47881197929382,190.47881197929382,190.47881197929382,190.47881197929382,190.47881197929382,190.47881197929382,191.58022499084473,3,1.2341182231903076,None,,,,,,,,,,,,,,,,,,124,3,2025-02-26_11h25.20.002,comp,2024.2.4,60.24325364679386,2025-02-26 11h25.46.888178 -0500,
62,62,0,critical,dwh,35.0,3.0,lower,70.0,70.0,57.0,133.0,133.0,57.0,2,1.2638564109802246,None,,,,,0,0,0,0,0,62,62,62,191.59539222717285,,,,,,,,,,,,,,,,,,,,,,,,,,,,,,,,,,,,,,,,,,,,,,,,,,,,,,,,,,,,,,,,,,,,,,,,,,,,,,,,,70.0,70.0,57.0,133.0,133.0,57.0,3.0,3.1,-198,279,0,-4,191,-284,191.58102869987488,191.58106970787048,191.58300757408142,191.59539222717285,191.7452414035797,191.7452414035797,191.7452414035797,191.7452414035797,191.7452414035797,191.7452414035797,191.7452414035797,192.8631730079651,2,1.2638564109802246,None,,,,,,,,,,,,,,,,,,124,3,2025-02-26_11h25.20.002,comp,2024.2.4,60.24325364679386,2025-02-26 11h25.46.888178 -0500,
63,63,0,critical,dhw,20.0,3.0,lower,78.0,78.0,133.0,57.0,57.0,133.0,3,1.554487705230713,None,,,,,0,0,0,0,0,63,63,56,192.87882542610168,,,,,,,,,,,,,,,,,,,,,,,,,,,,,,,,,,,,,,,,,,,,,,,,,,,,,,,,,,,,,,,,,,,,,,,,,,,,,,,,,78.0,78.0,133.0,57.0,57.0,133.0,3.0,3.2,-164,-273,0,12,191,270,192.86396265029907,192.86400437355042,192.86628103256226,192.87882542610168,193.02864480018616,193.02864480018616,193.02864480018616,193.02864480018616,193.02864480018616,193.02864480018616,193.02864480018616,194.44640254974365,3,1.554487705230713,None,,,,,,,,,,,,,,,,,,124,3,2025-02-26_11h25.20.002,comp,2024.2.4,60.24325364679386,2025-02-26 11h25.46.888178 -0500,
64,64,0,critical,dwh,35.0,4.0,upper,127.0,127.0,125.0,200.0,200.0,125.0,3,1.284219741821289,None,,,,,0,0,0,0,0,64,64,65,194.46184015274048,,,,,,,,,,,,,,,,,,,,,,,,,,,,,,,,,,,,,,,,,,,,,,,,,,,,,,,,,,,,,,,,,,,,,,,,,,,,,,,,,127.0,127.0,125.0,200.0,200.0,125.0,4.0,4.2,-260,9,0,-271,258,20,194.44721508026123,194.447256565094,194.44959259033203,194.46184015274048,194.61223602294922,194.61223602294922,194.61223602294922,194.61223602294922,194.61223602294922,194.61223602294922,194.61223602294922,195.76341652870178,3,1.284219741821289,None,,,,,,,,,,,,,,,,,,124,3,2025-02-26_11h25.20.002,comp,2024.2.4,60.24325364679386,2025-02-26 11h25.46.888178 -0500,
65,65,0,filler_square,None,None,None,None,None,None,None,None,None,None,3,1.9759132862091064,None,,,,,0,0,0,0,0,65,65,184,195.7785840034485,,,,,,,,,,,,,,,,,,,,,,,,,,,,,,,,,,,,,,,,,,,,,,,,,,,,,,,,,,,,,,,,,,,,,,,,,,,,,,,,,115.34593990019417,57.83572220771563,108.75194558284034,133.5685916670431,160.57021875587034,160.57021875587034,3.0,3.1,-192,289,0,-14,243,-262,195.7643678188324,195.7644100189209,195.76676154136658,195.7785840034485,195.9288775920868,195.9288775920868,195.9288775920868,195.9288775920868,195.9288775920868,195.9288775920868,195.9288775920868,197.7630832195282,3,1.9759132862091064,None,,,,,,,,,,,,,,,,,,124,3,2025-02-26_11h25.20.002,comp,2024.2.4,60.24325364679386,2025-02-26 11h25.46.888178 -0500,
66,66,0,filler_square,None,None,None,None,None,None,None,None,None,None,2,0.791738748550415,None,,,,,0,0,0,0,0,66,66,173,197.77882480621338,,,,,,,,,,,,,,,,,,,,,,,,,,,,,,,,,,,,,,,,,,,,,,,,,,,,,,,,,,,,,,,,,,,,,,,,,,,,,,,,,115.28433304838325,138.8651527109501,168.38033565306944,168.38033565306944,78.73697560412157,87.95553228983515,1.0,1.1,-730,250,-480,250,-256,263,197.7640461921692,197.7640895843506,197.76618814468384,197.77882480621338,197.92872262001038,197.92872262001038,197.92872262001038,197.92872262001038,197.92872262001038,197.92872262001038,197.92872262001038,198.5799798965454,2,0.791738748550415,None,,,,,,,,,,,,,,,,,,124,3,2025-02-26_11h25.20.002,comp,2024.2.4,60.24325364679386,2025-02-26 11h25.46.888178 -0500,
67,67,0,critical,hwd,35.0,3.0,lower,133.0,57.0,57.0,133.0,70.0,70.0,2,1.6218376159667969,None,,,,,0,0,0,0,0,67,67,98,198.59541940689087,,,,,,,,,,,,,,,,,,,,,,,,,,,,,,,,,,,,,,,,,,,,,,,,,,,,,,,,,,,,,,,,,,,,,,,,,,,,,,,,,133.0,57.0,57.0,133.0,70.0,70.0,3.0,3.2,-191,-260,0,-4,198,276,198.58078384399414,198.58082485198975,198.58349919319153,198.59541940689087,198.74533104896545,198.74533104896545,198.74533104896545,198.74533104896545,198.74533104896545,198.74533104896545,198.74533104896545,200.22974967956543,2,1.6218376159667969,None,,,,,,,,,,,,,,,,,,124,3,2025-02-26_11h25.20.002,comp,2024.2.4,60.24325364679386,2025-02-26 11h25.46.888178 -0500,
68,68,0,critical,hdw,20.0,4.0,upper,200.0,125.0,141.0,141.0,125.0,200.0,3,1.8137705326080322,None,,,,,0,0,0,0,0,68,68,119,200.24507355690002,,,,,,,,,,,,,,,,,,,,,,,,,,,,,,,,,,,,,,,,,,,,,,,,,,,,,,,,,,,,,,,,,,,,,,,,,,,,,,,,,200.0,125.0,141.0,141.0,125.0,200.0,4.0,4.1,-229,-282,0,10,266,-281,200.23054480552673,200.23058557510376,200.2330584526062,200.24507355690002,200.39554238319397,200.39554238319397,200.39554238319397,200.39554238319397,200.39554238319397,200.39554238319397,200.39554238319397,202.06334280967712,3,1.8137705326080322,None,,,,,,,,,,,,,,,,,,124,3,2025-02-26_11h25.20.002,comp,2024.2.4,60.24325364679386,2025-02-26 11h25.46.888178 -0500,
69,69,0,filler_square,None,None,None,None,None,None,None,None,None,None,1,1.9166629314422607,None,,,,,0,0,0,0,0,69,69,181,202.07886815071106,,,,,,,,,,,,,,,,,,,,,,,,,,,,,,,,,,,,,,,,,,,,,,,,,,,,,,,,,,,,,,,,,,,,,,,,,,,,,,,,,159.74674039282917,159.74674039282917,94.88241161482966,144.8800048117241,159.15135053882273,108.82351699480128,3.0,3.2,-248,-250,0,-17,223,286,202.06429314613342,202.0643355846405,202.06642150878906,202.07886815071106,202.22873973846436,202.22873973846436,202.22873973846436,202.22873973846436,202.22873973846436,202.22873973846436,202.22873973846436,203.99682068824768,1,1.9166629314422607,None,,,,,,,,,,,,,,,,,,124,3,2025-02-26_11h25.20.002,comp,2024.2.4,60.24325364679386,2025-02-26 11h25.46.888178 -0500,
70,70,0,filler_square,None,None,None,None,None,None,None,None,None,None,3,1.3336732387542725,None,,,,,0,0,0,0,0,70,70,202,204.01213598251343,,,,,,,,,,,,,,,,,,,,,,,,,,,,,,,,,,,,,,,,,,,,,,,,,,,,,,,,,,,,,,,,,,,,,,,,,,,,,,,,,115.99628904661583,70.42693766031515,113.95139971007598,95.92661521814364,131.54363720476982,131.54363720476982,1.0,1.2,-179,10,0,-11,210,5,203.99775171279907,203.99779605865479,204.00022912025452,204.01213598251343,204.16219758987427,204.16219758987427,204.16219758987427,204.16219758987427,204.16219758987427,204.16219758987427,204.16219758987427,205.36297059059143,3,1.3336732387542725,None,,,,,,,,,,,,,,,,,,124,3,2025-02-26_11h25.20.002,comp,2024.2.4,60.24325364679386,2025-02-26 11h25.46.888178 -0500,
71,71,0,critical,whd,20.0,3.0,lower,57.0,133.0,133.0,57.0,78.0,78.0,2,1.3440415859222412,None,,,,,0,0,0,0,0,71,71,92,205.37845087051392,,,,,,,,,,,,,,,,,,,,,,,,,,,,,,,,,,,,,,,,,,,,,,,,,,,,,,,,,,,,,,,,,,,,,,,,,,,,,,,,,57.0,133.0,133.0,57.0,78.0,78.0,3.0,3.2,-191,-255,0,1,164,281,205.3637490272522,205.36379051208496,205.36632299423218,205.37845087051392,205.52854871749878,205.52854871749878,205.52854871749878,205.52854871749878,205.52854871749878,205.52854871749878,205.52854871749878,206.72992658615112,2,1.3440415859222412,None,,,,,,,,,,,,,,,,,,124,3,2025-02-26_11h25.20.002,comp,2024.2.4,60.24325364679386,2025-02-26 11h25.46.888178 -0500,
72,72,0,critical,dhw,35.0,3.0,lower,70.0,70.0,133.0,57.0,57.0,133.0,2,1.4986212253570557,None,,,,,0,0,0,0,0,72,72,50,206.7452495098114,,,,,,,,,,,,,,,,,,,,,,,,,,,,,,,,,,,,,,,,,,,,,,,,,,,,,,,,,,,,,,,,,,,,,,,,,,,,,,,,,70.0,70.0,133.0,57.0,57.0,133.0,3.0,3.2,-160,-258,0,20,191,258,206.73073983192444,206.73077964782715,206.73301649093628,206.7452495098114,206.8951575756073,206.8951575756073,206.8951575756073,206.8951575756073,206.8951575756073,206.8951575756073,206.8951575756073,208.24641060829163,2,1.4986212253570557,None,,,,,,,,,,,,,,,,,,124,3,2025-02-26_11h25.20.002,comp,2024.2.4,60.24325364679386,2025-02-26 11h25.46.888178 -0500,
73,73,0,critical,hwd,20.0,2.1,lower,133.0,57.0,57.0,133.0,78.0,78.0,3,1.708482027053833,None,,,,,0,0,0,0,0,73,73,42,208.2619194984436,,,,,,,,,,,,,,,,,,,,,,,,,,,,,,,,,,,,,,,,,,,,,,,,,,,,,,,,,,,,,,,,,,,,,,,,,,,,,,,,,133.0,57.0,57.0,133.0,78.0,78.0,2.1,2.11,-191,267,0,279,202,-253,208.24716019630432,208.24721431732178,208.24914693832397,208.2619194984436,208.41206526756287,208.41206526756287,208.41206526756287,208.41206526756287,208.41206526756287,208.41206526756287,208.41206526756287,209.9796450138092,3,1.708482027053833,None,,,,,,,,,,,,,,,,,,124,3,2025-02-26_11h25.20.002,comp,2024.2.4,60.24325364679386,2025-02-26 11h25.46.888178 -0500,
74,74,0,filler_random,None,None,None,None,None,None,None,None,None,None,3,2.8859262466430664,None,,,,,0,0,0,0,0,74,74,137,209.99536514282227,,,,,,,,,,,,,,,,,,,,,,,,,,,,,,,,,,,,,,,,,,,,,,,,,,,,,,,,,,,,,,,,,,,,,,,,,,,,,,,,,128.82500870325862,167.9313162327087,98.54063900556727,187.73775387654507,182.07415204963843,114.67464593663367,4.0,4.1,-274,-281,0,20,247,-267,209.98056936264038,209.98061323165894,209.98303747177124,209.99536514282227,210.145405292511,210.145405292511,210.145405292511,210.145405292511,210.145405292511,210.145405292511,210.145405292511,212.8964922428131,3,2.8859262466430664,None,,,,,,,,,,,,,,,,,,124,3,2025-02-26_11h25.20.002,comp,2024.2.4,60.24325364679386,2025-02-26 11h25.46.888178 -0500,
75,75,0,filler_square,None,None,None,None,None,None,None,None,None,None,1,3.626352071762085,None,,,,,0,0,0,0,0,75,75,182,212.9118914604187,,,,,,,,,,,,,,,,,,,,,,,,,,,,,,,,,,,,,,,,,,,,,,,,,,,,,,,,,,,,,,,,,,,,,,,,,,,,,,,,,62.437551668046495,62.437551668046495,60.32307130263541,59.5985603858041,59.60063773233663,58.17456873946164,2.1,2.12,-157,-258,0,-259,155,260,212.89744639396667,212.89748859405518,212.899578332901,212.9118914604187,213.06186056137085,213.06186056137085,213.06186056137085,213.06186056137085,213.06186056137085,213.06186056137085,213.06186056137085,216.54620361328125,1,3.626352071762085,None,,,,,,,,,,,,,,,,,,124,3,2025-02-26_11h25.20.002,comp,2024.2.4,60.24325364679386,2025-02-26 11h25.46.888178 -0500,
76,76,0,critical,whd,35.0,3.0,upper,125.0,200.0,200.0,125.0,127.0,127.0,1,2.776319742202759,None,,,,,0,0,0,0,0,76,76,87,216.56187653541565,,,,,,,,,,,,,,,,,,,,,,,,,,,,,,,,,,,,,,,,,,,,,,,,,,,,,,,,,,,,,,,,,,,,,,,,,,,,,,,,,125.0,200.0,200.0,125.0,127.0,127.0,3.0,3.2,-258,-267,0,-8,222,263,216.5469892024994,216.547030210495,216.54928183555603,216.56187653541565,216.71194314956665,216.71194314956665,216.71194314956665,216.71194314956665,216.71194314956665,216.71194314956665,216.71194314956665,219.34646153450012,1,2.776319742202759,None,,,,,,,,,,,,,,,,,,124,3,2025-02-26_11h25.20.002,comp,2024.2.4,60.24325364679386,2025-02-26 11h25.46.888178 -0500,
77,77,0,critical,whd,20.0,2.1,lower,57.0,133.0,133.0,57.0,78.0,78.0,2,2.071333169937134,None,,,,,0,0,0,0,0,77,77,14,219.3619396686554,,,,,,,,,,,,,,,,,,,,,,,,,,,,,,,,,,,,,,,,,,,,,,,,,,,,,,,,,,,,,,,,,,,,,,,,,,,,,,,,,57.0,133.0,133.0,57.0,78.0,78.0,2.1,2.12,-191,-253,0,-289,164,260,219.34725093841553,219.3472921848297,219.34961438179016,219.3619396686554,219.5117528438568,219.5117528438568,219.5117528438568,219.5117528438568,219.5117528438568,219.5117528438568,219.5117528438568,221.44636702537537,2,2.071333169937134,None,,,,,,,,,,,,,,,,,,124,3,2025-02-26_11h25.20.002,comp,2024.2.4,60.24325364679386,2025-02-26 11h25.46.888178 -0500,
78,78,0,critical,hdw,35.0,4.0,upper,200.0,125.0,127.0,127.0,125.0,200.0,3,1.9248781204223633,None,,,,,0,0,0,0,0,78,78,113,221.46164464950562,,,,,,,,,,,,,,,,,,,,,,,,,,,,,,,,,,,,,,,,,,,,,,,,,,,,,,,,,,,,,,,,,,,,,,,,,,,,,,,,,200.0,125.0,127.0,127.0,125.0,200.0,4.0,4.2,-222,-2,0,-288,260,-2,221.44709968566895,221.44713711738586,221.44939303398132,221.46164464950562,221.61215782165527,221.61215782165527,221.61215782165527,221.61215782165527,221.61215782165527,221.61215782165527,221.61215782165527,223.39637732505798,3,1.9248781204223633,None,,,,,,,,,,,,,,,,,,124,3,2025-02-26_11h25.20.002,comp,2024.2.4,60.24325364679386,2025-02-26 11h25.46.888178 -0500,
79,79,0,critical,dwh,20.0,3.0,lower,78.0,78.0,57.0,133.0,133.0,57.0,2,1.1887447834014893,None,,,,,0,0,0,0,0,79,79,68,223.41229701042175,,,,,,,,,,,,,,,,,,,,,,,,,,,,,,,,,,,,,,,,,,,,,,,,,,,,,,,,,,,,,,,,,,,,,,,,,,,,,,,,,78.0,78.0,57.0,133.0,133.0,57.0,3.0,3.1,-202,267,0,-2,191,-268,223.39712500572205,223.3971652984619,223.39914917945862,223.41229701042175,223.56206369400024,223.56206369400024,223.56206369400024,223.56206369400024,223.56206369400024,223.56206369400024,223.56206369400024,224.613210439682,2,1.1887447834014893,None,,,,,,,,,,,,,,,,,,124,3,2025-02-26_11h25.20.002,comp,2024.2.4,60.24325364679386,2025-02-26 11h25.46.888178 -0500,
80,80,0,critical,wdh,20.0,3.0,upper,125.0,200.0,141.0,141.0,200.0,125.0,3,2.350552558898926,None,,,,,0,0,0,0,0,80,80,81,224.62833404541016,,,,,,,,,,,,,,,,,,,,,,,,,,,,,,,,,,,,,,,,,,,,,,,,,,,,,,,,,,,,,,,,,,,,,,,,,,,,,,,,,125.0,200.0,141.0,141.0,200.0,125.0,3.0,3.2,-266,-272,0,-6,229,258,224.6139895915985,224.61403131484985,224.6160762310028,224.62833404541016,224.77859687805176,224.77859687805176,224.77859687805176,224.77859687805176,224.77859687805176,224.77859687805176,224.77859687805176,226.99645614624023,3,2.350552558898926,None,,,,,,,,,,,,,,,,,,124,3,2025-02-26_11h25.20.002,comp,2024.2.4,60.24325364679386,2025-02-26 11h25.46.888178 -0500,
81,81,0,filler_random,None,None,None,None,None,None,None,None,None,None,1,1.9176113605499268,None,,,,,0,0,0,0,0,81,81,144,227.01159930229187,,,,,,,,,,,,,,,,,,,,,,,,,,,,,,,,,,,,,,,,,,,,,,,,,,,,,,,,,,,,,,,,,,,,,,,,,,,,,,,,,158.58925775367265,178.9793283290599,80.15967427020955,162.30476996073605,149.18312059352758,129.01810155174314,1.0,1.2,-267,11,0,1,242,-7,226.99735164642334,226.997394323349,226.9997594356537,227.01159930229187,227.1620180606842,227.1620180606842,227.1620180606842,227.1620180606842,227.1620180606842,227.1620180606842,227.1620180606842,228.94640517234802,1,1.9176113605499268,None,,,,,,,,,,,,,,,,,,124,3,2025-02-26_11h25.20.002,comp,2024.2.4,60.24325364679386,2025-02-26 11h25.46.888178 -0500,
82,82,0,filler_random,None,None,None,None,None,None,None,None,None,None,1,1.3606226444244385,None,,,,,0,0,0,0,0,82,82,149,228.9615592956543,,,,,,,,,,,,,,,,,,,,,,,,,,,,,,,,,,,,,,,,,,,,,,,,,,,,,,,,,,,,,,,,,,,,,,,,,,,,,,,,,174.36134167504434,170.28917079825976,187.59988318856264,99.9661872216798,187.4376970487297,154.79613327477827,4.0,4.2,-231,17,0,-264,223,-12,228.94731497764587,228.94735717773438,228.94975638389587,228.9615592956543,229.11199021339417,229.11199021339417,229.11199021339417,229.11199021339417,229.11199021339417,229.11199021339417,229.11199021339417,230.32987785339355,1,1.3606226444244385,None,,,,,,,,,,,,,,,,,,124,3,2025-02-26_11h25.20.002,comp,2024.2.4,60.24325364679386,2025-02-26 11h25.46.888178 -0500,
83,83,0,filler_square,None,None,None,None,None,None,None,None,None,None,2,0.903836727142334,None,,,,,0,0,0,0,0,83,83,189,230.3453712463379,,,,,,,,,,,,,,,,,,,,,,,,,,,,,,,,,,,,,,,,,,,,,,,,,,,,,,,,,,,,,,,,,,,,,,,,,,,,,,,,,113.69296442743772,192.8354675794097,197.94949793599633,197.94949793599633,145.58063080389752,100.80373095356093,2.2,2.22,-291,273,0,-265,245,-288,230.33079314231873,230.33083486557007,230.33327341079712,230.3453712463379,230.4954309463501,230.4954309463501,230.4954309463501,230.4954309463501,230.4954309463501,230.4954309463501,230.4954309463501,231.26314520835876,2,0.903836727142334,None,,,,,,,,,,,,,,,,,,124,3,2025-02-26_11h25.20.002,comp,2024.2.4,60.24325364679386,2025-02-26 11h25.46.888178 -0500,
84,84,0,critical,wdh,35.0,1.0,lower,57.0,133.0,70.0,70.0,133.0,57.0,3,6.667242765426636,None,,,,,0,0,0,0,0,84,84,72,231.27832126617432,,,,,,,,,,,,,,,,,,,,,,,,,,,,,,,,,,,,,,,,,,,,,,,,,,,,,,,,,,,,,,,,,,,,,,,,,,,,,,,,,57.0,133.0,70.0,70.0,133.0,57.0,1.0,1.2,-198,-16,0,6,160,-2,231.26397943496704,231.26402354240417,231.26604437828064,231.27832126617432,231.42905688285828,231.42905688285828,231.42905688285828,231.42905688285828,231.42905688285828,231.42905688285828,231.42905688285828,237.9627377986908,3,6.667242765426636,None,,,,,,,,,,,,,,,,,,124,3,2025-02-26_11h25.20.002,comp,2024.2.4,60.24325364679386,2025-02-26 11h25.46.888178 -0500,
85,85,0,critical,hdw,35.0,3.0,upper,200.0,125.0,127.0,127.0,125.0,200.0,3,2.3839304447174072,None,,,,,0,0,0,0,0,85,85,111,237.9782280921936,,,,,,,,,,,,,,,,,,,,,,,,,,,,,,,,,,,,,,,,,,,,,,,,,,,,,,,,,,,,,,,,,,,,,,,,,,,,,,,,,200.0,125.0,127.0,127.0,125.0,200.0,3.0,3.2,-222,-270,0,14,260,263,237.9635305404663,237.9635727405548,237.9655876159668,237.9782280921936,238.12867188453674,238.12867188453674,238.12867188453674,238.12867188453674,238.12867188453674,238.12867188453674,238.12867188453674,240.36328983306885,3,2.3839304447174072,None,,,,,,,,,,,,,,,,,,124,3,2025-02-26_11h25.20.002,comp,2024.2.4,60.24325364679386,2025-02-26 11h25.46.888178 -0500,
86,86,0,filler_random,None,None,None,None,None,None,None,None,None,None,2,3.6000359058380127,None,,,,,0,0,0,0,0,86,86,168,240.37855696678162,,,,,,,,,,,,,,,,,,,,,,,,,,,,,,,,,,,,,,,,,,,,,,,,,,,,,,,,,,,,,,,,,,,,,,,,,,,,,,,,,161.39589675687583,71.14664190560687,86.2923424790639,191.12076519220386,83.69836326731003,137.08623187039217,2.1,2.11,-227,275,0,269,260,-262,240.36416673660278,240.3642222881317,240.366281747818,240.37855696678162,240.528502702713,240.528502702713,240.528502702713,240.528502702713,240.528502702713,240.528502702713,240.528502702713,243.9961953163147,2,3.6000359058380127,None,,,,,,,,,,,,,,,,,,124,3,2025-02-26_11h25.20.002,comp,2024.2.4,60.24325364679386,2025-02-26 11h25.46.888178 -0500,
87,87,0,filler_random,None,None,None,None,None,None,None,None,None,None,2,3.7585630416870117,None,,,,,0,0,0,0,0,87,87,164,244.01156497001648,,,,,,,,,,,,,,,,,,,,,,,,,,,,,,,,,,,,,,,,,,,,,,,,,,,,,,,,,,,,,,,,,,,,,,,,,,,,,,,,,158.50100270695145,158.88522600613175,174.74451504424934,182.7931402864282,190.12546941604148,84.47156875333694,2.2,2.21,-267,-283,0,264,230,252,243.99709725379944,243.99713850021362,243.99947047233582,244.01156497001648,244.1619336605072,244.1619336605072,244.1619336605072,244.1619336605072,244.1619336605072,244.1619336605072,244.1619336605072,247.77969479560852,2,3.7585630416870117,None,,,,,,,,,,,,,,,,,,124,3,2025-02-26_11h25.20.002,comp,2024.2.4,60.24325364679386,2025-02-26 11h25.46.888178 -0500,
88,88,0,critical,hdw,35.0,2.1,lower,133.0,57.0,70.0,70.0,57.0,133.0,3,1.8165123462677002,None,,,,,0,0,0,0,0,88,88,20,247.7952196598053,,,,,,,,,,,,,,,,,,,,,,,,,,,,,,,,,,,,,,,,,,,,,,,,,,,,,,,,,,,,,,,,,,,,,,,,,,,,,,,,,133.0,57.0,70.0,70.0,57.0,133.0,2.1,2.12,-160,-277,0,-284,198,287,247.78052234649658,247.78056383132935,247.7829074859619,247.7952196598053,247.9450135231018,247.9450135231018,247.9450135231018,247.9450135231018,247.9450135231018,247.9450135231018,247.9450135231018,249.6129801273346,3,1.8165123462677002,None,,,,,,,,,,,,,,,,,,124,3,2025-02-26_11h25.20.002,comp,2024.2.4,60.24325364679386,2025-02-26 11h25.46.888178 -0500,
89,89,0,filler_random,None,None,None,None,None,None,None,None,None,None,3,1.7259621620178223,None,,,,,0,0,0,0,0,89,89,152,249.6283631324768,,,,,,,,,,,,,,,,,,,,,,,,,,,,,,,,,,,,,,,,,,,,,,,,,,,,,,,,,,,,,,,,,,,,,,,,,,,,,,,,,67.36021746821267,155.34330235659274,152.64812753845683,164.7990679189219,148.2331331940905,105.9108091494414,2.2,2.22,-256,286,0,-258,231,-255,249.61388087272644,249.61392521858215,249.6165132522583,249.6283631324768,249.77840161323547,249.77840161323547,249.77840161323547,249.77840161323547,249.77840161323547,249.77840161323547,249.77840161323547,251.36282205581665,3,1.7259621620178223,None,,,,,,,,,,,,,,,,,,124,3,2025-02-26_11h25.20.002,comp,2024.2.4,60.24325364679386,2025-02-26 11h25.46.888178 -0500,
90,90,0,filler_random,None,None,None,None,None,None,None,None,None,None,1,2.2166976928710938,None,,,,,0,0,0,0,0,90,90,146,251.3784143924713,,,,,,,,,,,,,,,,,,,,,,,,,,,,,,,,,,,,,,,,,,,,,,,,,,,,,,,,,,,,,,,,,,,,,,,,,,,,,,,,,88.38681943221073,196.5371133982128,90.6346935395751,157.92336642839456,166.0555101182955,80.74413893735108,2.2,2.22,-273,260,0,-262,215,-277,251.3637478351593,251.36379027366638,251.366229057312,251.3784143924713,251.52835869789124,251.52835869789124,251.52835869789124,251.52835869789124,251.52835869789124,251.52835869789124,251.52835869789124,253.5964241027832,1,2.2166976928710938,None,,,,,,,,,,,,,,,,,,124,3,2025-02-26_11h25.20.002,comp,2024.2.4,60.24325364679386,2025-02-26 11h25.46.888178 -0500,
91,91,0,filler_random,None,None,None,None,None,None,None,None,None,None,3,1.0052211284637451,None,,,,,0,0,0,0,0,91,91,169,253.61170887947083,,,,,,,,,,,,,,,,,,,,,,,,,,,,,,,,,,,,,,,,,,,,,,,,,,,,,,,,,,,,,,,,,,,,,,,,,,,,,,,,,100.90574127864487,66.63714139128506,118.73460377265627,85.72112007680846,105.67968728946991,198.9056449724632,4.0,4.1,-172,-271,0,-16,238,-252,253.59730648994446,253.59736585617065,253.59990096092224,253.61170887947083,253.7616045475006,253.7616045475006,253.7616045475006,253.7616045475006,253.7616045475006,253.7616045475006,253.7616045475006,254.6295087337494,3,1.0052211284637451,None,,,,,,,,,,,,,,,,,,124,3,2025-02-26_11h25.20.002,comp,2024.2.4,60.24325364679386,2025-02-26 11h25.46.888178 -0500,
92,92,0,critical,dwh,35.0,1.0,upper,127.0,127.0,125.0,200.0,200.0,125.0,2,0.982905387878418,None,,,,,0,0,0,0,0,92,92,61,254.64476823806763,,,,,,,,,,,,,,,,,,,,,,,,,,,,,,,,,,,,,,,,,,,,,,,,,,,,,,,,,,,,,,,,,,,,,,,,,,,,,,,,,127.0,127.0,125.0,200.0,200.0,125.0,1.0,1.3,220,-282,480,-267,738,-275,254.630309343338,254.63034963607788,254.6327383518219,254.64476823806763,254.795090675354,254.795090675354,254.795090675354,254.795090675354,254.795090675354,254.795090675354,254.795090675354,255.629492521286,2,0.982905387878418,None,,,,,,,,,,,,,,,,,,124,3,2025-02-26_11h25.20.002,comp,2024.2.4,60.24325364679386,2025-02-26 11h25.46.888178 -0500,
93,93,0,critical,hdw,20.0,2.1,upper,200.0,125.0,141.0,141.0,125.0,200.0,3,1.0929584503173828,None,,,,,0,0,0,0,0,93,93,47,255.6449749469757,,,,,,,,,,,,,,,,,,,,,,,,,,,,,,,,,,,,,,,,,,,,,,,,,,,,,,,,,,,,,,,,,,,,,,,,,,,,,,,,,200.0,125.0,141.0,141.0,125.0,200.0,2.1,2.11,-229,283,0,259,266,-269,255.6302409172058,255.63028240203857,255.63228058815002,255.6449749469757,255.79520225524902,255.79520225524902,255.79520225524902,255.79520225524902,255.79520225524902,255.79520225524902,255.79520225524902,256.7461304664612,3,1.0929584503173828,None,,,,,,,,,,,,,,,,,,124,3,2025-02-26_11h25.20.002,comp,2024.2.4,60.24325364679386,2025-02-26 11h25.46.888178 -0500,
94,94,0,filler_square,None,None,None,None,None,None,None,None,None,None,3,2.0501177310943604,None,,,,,0,0,0,0,0,94,94,172,256.76166558265686,,,,,,,,,,,,,,,,,,,,,,,,,,,,,,,,,,,,,,,,,,,,,,,,,,,,,,,,,,,,,,,,,,,,,,,,,,,,,,,,,72.22200172301538,60.531404439493755,154.33159095263767,154.33159095263767,153.1860293830994,152.15724315525836,4.0,4.1,-203,-282,0,10,249,-269,256.74714970588684,256.7472002506256,256.7495458126068,256.76166558265686,256.91180658340454,256.91180658340454,256.91180658340454,256.91180658340454,256.91180658340454,256.91180658340454,256.91180658340454,258.81298828125,3,2.0501177310943604,None,,,,,,,,,,,,,,,,,,124,3,2025-02-26_11h25.20.002,comp,2024.2.4,60.24325364679386,2025-02-26 11h25.46.888178 -0500,
95,95,0,filler_random,None,None,None,None,None,None,None,None,None,None,2,1.9992485046386719,None,,,,,0,0,0,0,0,95,95,132,258.82830595970154,,,,,,,,,,,,,,,,,,,,,,,,,,,,,,,,,,,,,,,,,,,,,,,,,,,,,,,,,,,,,,,,,,,,,,,,,,,,,,,,,163.89631711006552,135.70664843188754,86.13330303311545,160.17187362946606,178.34289973925306,82.95675363356216,2.2,2.21,-244,-255,0,286,218,261,258.8138768672943,258.8139183521271,258.81647396087646,258.82830595970154,258.9782633781433,258.9782633781433,258.9782633781433,258.9782633781433,258.9782633781433,258.9782633781433,258.9782633781433,260.8295478820801,2,1.9992485046386719,None,,,,,,,,,,,,,,,,,,124,3,2025-02-26_11h25.20.002,comp,2024.2.4,60.24325364679386,2025-02-26 11h25.46.888178 -0500,
96,96,0,critical,hdw,35.0,2.1,upper,200.0,125.0,127.0,127.0,125.0,200.0,3,1.0608150959014893,None,,,,,0,0,0,0,0,96,96,45,260.84501791000366,,,,,,,,,,,,,,,,,,,,,,,,,,,,,,,,,,,,,,,,,,,,,,,,,,,,,,,,,,,,,,,,,,,,,,,,,,,,,,,,,200.0,125.0,127.0,127.0,125.0,200.0,2.1,2.11,-222,268,0,290,260,-258,260.8303370475769,260.83037996292114,260.83244037628174,260.84501791000366,260.9951379299164,260.9951379299164,260.9951379299164,260.9951379299164,260.9951379299164,260.9951379299164,260.9951379299164,261.9128634929657,3,1.0608150959014893,None,,,,,,,,,,,,,,,,,,124,3,2025-02-26_11h25.20.002,comp,2024.2.4,60.24325364679386,2025-02-26 11h25.46.888178 -0500,
97,97,0,catch,None,None,None,None,None,None,None,None,None,None,1,1.7046244144439697,None,,,,,0,0,0,0,0,97,97,120,261.92835998535156,,,,,,,,,,,,,,,,,,,,,,,,,,,,,,,,,,,,,,,,,,,,,,,,,,,,,,,,,,,,,,,,,,,,,,,,,,,,,,,,,126,199,94,96,128,62,3.0,3.1,-244,253,0,15,175,-288,261.91391229629517,261.913955450058,261.9163546562195,261.92835998535156,262.0782425403595,262.0782425403595,262.0782425403595,262.0782425403595,262.0782425403595,262.0782425403595,262.0782425403595,263.6459312438965,1,1.7046244144439697,None,,,,,,,,,,,,,,,,,,124,3,2025-02-26_11h25.20.002,comp,2024.2.4,60.24325364679386,2025-02-26 11h25.46.888178 -0500,
98,98,0,filler_square,None,None,None,None,None,None,None,None,None,None,1,2.2925453186035156,None,,,,,0,0,0,0,0,98,98,194,263.6613836288452,,,,,,,,,,,,,,,,,,,,,,,,,,,,,,,,,,,,,,,,,,,,,,,,,,,,,,,,,,,,,,,,,,,,,,,,,,,,,,,,,137.8212631120635,137.8212631120635,130.41426485456674,71.36133806907935,62.772504631602516,111.57332489706982,3.0,3.1,-201,283,0,0,187,-290,263.64687061309814,263.64691281318665,263.6495351791382,263.6613836288452,263.8114757537842,263.8114757537842,263.8114757537842,263.8114757537842,263.8114757537842,263.8114757537842,263.8114757537842,265.96267342567444,1,2.2925453186035156,None,,,,,,,,,,,,,,,,,,124,3,2025-02-26_11h25.20.002,comp,2024.2.4,60.24325364679386,2025-02-26 11h25.46.888178 -0500,
99,99,0,critical,hwd,20.0,2.1,lower,133.0,57.0,57.0,133.0,78.0,78.0,3,2.3919692039489746,None,,,,,0,0,0,0,0,99,99,18,265.978230714798,,,,,,,,,,,,,,,,,,,,,,,,,,,,,,,,,,,,,,,,,,,,,,,,,,,,,,,,,,,,,,,,,,,,,,,,,,,,,,,,,133.0,57.0,57.0,133.0,78.0,78.0,2.1,2.12,-191,-266,0,-269,202,254,265.9634573459625,265.9635007381439,265.9658851623535,265.978230714798,266.12812972068787,266.12812972068787,266.12812972068787,266.12812972068787,266.12812972068787,266.12812972068787,266.12812972068787,268.37930178642273,3,2.3919692039489746,None,,,,,,,,,,,,,,,,,,124,3,2025-02-26_11h25.20.002,comp,2024.2.4,60.24325364679386,2025-02-26 11h25.46.888178 -0500,
100,100,0,critical,hdw,20.0,2.1,lower,133.0,57.0,78.0,78.0,57.0,133.0,3,1.848550796508789,None,,,,,0,0,0,0,0,100,100,46,268.3948848247528,,,,,,,,,,,,,,,,,,,,,,,,,,,,,,,,,,,,,,,,,,,,,,,,,,,,,,,,,,,,,,,,,,,,,,,,,,,,,,,,,133.0,57.0,78.0,78.0,57.0,133.0,2.1,2.11,-164,279,0,267,202,-276,268.3800883293152,268.3801305294037,268.3824803829193,268.3948848247528,268.54479789733887,268.54479789733887,268.54479789733887,268.54479789733887,268.54479789733887,268.54479789733887,268.54479789733887,270.245995759964,3,1.848550796508789,None,,,,,,,,,,,,,,,,,,124,3,2025-02-26_11h25.20.002,comp,2024.2.4,60.24325364679386,2025-02-26 11h25.46.888178 -0500,
101,101,0,critical,whd,35.0,2.1,upper,125.0,200.0,200.0,125.0,127.0,127.0,2,5.900836229324341,None,,,,,0,0,0,0,0,101,101,37,270.2616078853607,,,,,,,,,,,,,,,,,,,,,,,,,,,,,,,,,,,,,,,,,,,,,,,,,,,,,,,,,,,,,,,,,,,,,,,,,,,,,,,,,125.0,200.0,200.0,125.0,127.0,127.0,2.1,2.11,-258,253,0,262,222,-268,270.2467985153198,270.24684047698975,270.2489149570465,270.2616078853607,270.41209268569946,270.41209268569946,270.41209268569946,270.41209268569946,270.41209268569946,270.41209268569946,270.41209268569946,276.17985820770264,2,5.900836229324341,None,,,,,,,,,,,,,,,,,,124,3,2025-02-26_11h25.20.002,comp,2024.2.4,60.24325364679386,2025-02-26 11h25.46.888178 -0500,
102,102,0,filler_random,None,None,None,None,None,None,None,None,None,None,3,1.7181615829467773,None,,,,,0,0,0,0,0,102,102,150,276.19469714164734,,,,,,,,,,,,,,,,,,,,,,,,,,,,,,,,,,,,,,,,,,,,,,,,,,,,,,,,,,,,,,,,,,,,,,,,,,,,,,,,,173.86988382413034,176.52729786856668,74.70031796009096,70.94873229275775,126.38740834195971,110.23650482765984,2.1,2.11,-220,266,0,261,187,-261,276.18076753616333,276.18081068992615,276.183256149292,276.19469714164734,276.34511637687683,276.34511637687683,276.34511637687683,276.34511637687683,276.34511637687683,276.34511637687683,276.34511637687683,277.92922854423523,3,1.7181615829467773,None,,,,,,,,,,,,,,,,,,124,3,2025-02-26_11h25.20.002,comp,2024.2.4,60.24325364679386,2025-02-26 11h25.46.888178 -0500,
103,103,0,critical,dwh,20.0,2.1,upper,141.0,141.0,125.0,200.0,200.0,125.0,3,1.5933570861816406,None,,,,,0,0,0,0,0,103,103,7,277.9446041584015,,,,,,,,,,,,,,,,,,,,,,,,,,,,,,,,,,,,,,,,,,,,,,,,,,,,,,,,,,,,,,,,,,,,,,,,,,,,,,,,,141.0,141.0,125.0,200.0,200.0,125.0,2.1,2.12,-266,-255,0,-260,258,288,277.93003273010254,277.93007469177246,277.9323101043701,277.9446041584015,278.0950288772583,278.0950288772583,278.0950288772583,278.0950288772583,278.0950288772583,278.0950288772583,278.0950288772583,279.5460910797119,3,1.5933570861816406,None,,,,,,,,,,,,,,,,,,124,3,2025-02-26_11h25.20.002,comp,2024.2.4,60.24325364679386,2025-02-26 11h25.46.888178 -0500,
104,104,0,critical,dhw,35.0,2.1,lower,70.0,70.0,133.0,57.0,57.0,133.0,3,2.2880027294158936,None,,,,,0,0,0,0,0,104,104,0,279.56158471107483,,,,,,,,,,,,,,,,,,,,,,,,,,,,,,,,,,,,,,,,,,,,,,,,,,,,,,,,,,,,,,,,,,,,,,,,,,,,,,,,,70.0,70.0,133.0,57.0,57.0,133.0,2.1,2.12,-160,-278,0,-256,191,282,279.54687690734863,279.54691886901855,279.54890847206116,279.56158471107483,279.71140694618225,279.71140694618225,279.71140694618225,279.71140694618225,279.71140694618225,279.71140694618225,279.71140694618225,281.86264061927795,3,2.2880027294158936,None,,,,,,,,,,,,,,,,,,124,3,2025-02-26_11h25.20.002,comp,2024.2.4,60.24325364679386,2025-02-26 11h25.46.888178 -0500,
105,105,0,filler_square,None,None,None,None,None,None,None,None,None,None,3,1.8030900955200195,None,,,,,0,0,0,0,0,105,105,180,281.877986907959,,,,,,,,,,,,,,,,,,,,,,,,,,,,,,,,,,,,,,,,,,,,,,,,,,,,,,,,,,,,,,,,,,,,,,,,,,,,,,,,,61.951673894627525,71.26050481096269,95.12163754615628,95.12163754615628,65.11874929823517,87.77723003889454,1.0,1.3,301,-257,480,-265,667,-282,281.86361503601074,281.8636589050293,281.8660137653351,281.877986907959,282.0282711982727,282.0282711982727,282.0282711982727,282.0282711982727,282.0282711982727,282.0282711982727,282.0282711982727,283.6958360671997,3,1.8030900955200195,None,,,,,,,,,,,,,,,,,,124,3,2025-02-26_11h25.20.002,comp,2024.2.4,60.24325364679386,2025-02-26 11h25.46.888178 -0500,
106,106,0,critical,hdw,20.0,4.0,lower,133.0,57.0,78.0,78.0,57.0,133.0,3,1.6175622940063477,None,,,,,0,0,0,0,0,106,106,118,283.7112693786621,,,,,,,,,,,,,,,,,,,,,,,,,,,,,,,,,,,,,,,,,,,,,,,,,,,,,,,,,,,,,,,,,,,,,,,,,,,,,,,,,133.0,57.0,78.0,78.0,57.0,133.0,4.0,4.2,-164,-8,0,-253,202,10,283.69660806655884,283.6966485977173,283.69910502433777,283.7112693786621,283.86138367652893,283.86138367652893,283.86138367652893,283.86138367652893,283.86138367652893,283.86138367652893,283.86138367652893,285.3458547592163,3,1.6175622940063477,None,,,,,,,,,,,,,,,,,,124,3,2025-02-26_11h25.20.002,comp,2024.2.4,60.24325364679386,2025-02-26 11h25.46.888178 -0500,
107,107,0,critical,whd,35.0,4.0,lower,57.0,133.0,133.0,57.0,70.0,70.0,2,2.5604400634765625,None,,,,,0,0,0,0,0,107,107,88,285.36126255989075,,,,,,,,,,,,,,,,,,,,,,,,,,,,,,,,,,,,,,,,,,,,,,,,,,,,,,,,,,,,,,,,,,,,,,,,,,,,,,,,,57.0,133.0,133.0,57.0,70.0,70.0,4.0,4.2,-191,8,0,-256,160,-19,285.346675157547,285.34671688079834,285.3492646217346,285.36126255989075,285.5113949775696,285.5113949775696,285.5113949775696,285.5113949775696,285.5113949775696,285.5113949775696,285.5113949775696,287.9292016029358,2,2.5604400634765625,None,,,,,,,,,,,,,,,,,,124,3,2025-02-26_11h25.20.002,comp,2024.2.4,60.24325364679386,2025-02-26 11h25.46.888178 -0500,
108,108,0,critical,dwh,35.0,3.0,upper,127.0,127.0,125.0,200.0,200.0,125.0,3,1.0558733940124512,None,,,,,0,0,0,0,0,108,108,63,287.9447784423828,,,,,,,,,,,,,,,,,,,,,,,,,,,,,,,,,,,,,,,,,,,,,,,,,,,,,,,,,,,,,,,,,,,,,,,,,,,,,,,,,127.0,127.0,125.0,200.0,200.0,125.0,3.0,3.2,-260,-251,0,-16,258,275,287.9299387931824,287.9299781322479,287.9319677352905,287.9447784423828,288.0949101448059,288.0949101448059,288.0949101448059,288.0949101448059,288.0949101448059,288.0949101448059,288.0949101448059,289.013046503067,3,1.0558733940124512,None,,,,,,,,,,,,,,,,,,124,3,2025-02-26_11h25.20.002,comp,2024.2.4,60.24325364679386,2025-02-26 11h25.46.888178 -0500,
109,109,0,critical,hdw,20.0,2.1,lower,133.0,57.0,78.0,78.0,57.0,133.0,3,1.836855411529541,None,,,,,0,0,0,0,0,109,109,22,289.0279426574707,,,,,,,,,,,,,,,,,,,,,,,,,,,,,,,,,,,,,,,,,,,,,,,,,,,,,,,,,,,,,,,,,,,,,,,,,,,,,,,,,133.0,57.0,78.0,78.0,57.0,133.0,2.1,2.12,-164,-270,0,-254,202,274,289.01384353637695,289.0138838291168,289.01608633995056,289.0279426574707,289.17808842658997,289.17808842658997,289.17808842658997,289.17808842658997,289.17808842658997,289.17808842658997,289.17808842658997,290.8792281150818,3,1.836855411529541,None,,,,,,,,,,,,,,,,,,124,3,2025-02-26_11h25.20.002,comp,2024.2.4,60.24325364679386,2025-02-26 11h25.46.888178 -0500,
110,110,0,critical,hwd,35.0,3.0,upper,200.0,125.0,125.0,200.0,127.0,127.0,2,2.8432159423828125,None,,,,,0,0,0,0,0,110,110,99,290.8945460319519,,,,,,,,,,,,,,,,,,,,,,,,,,,,,,,,,,,,,,,,,,,,,,,,,,,,,,,,,,,,,,,,,,,,,,,,,,,,,,,,,200.0,125.0,125.0,200.0,127.0,127.0,3.0,3.2,-258,-263,0,-1,260,283,290.8800039291382,290.880047082901,290.8820581436157,290.8945460319519,291.044851064682,291.044851064682,291.044851064682,291.044851064682,291.044851064682,291.044851064682,291.044851064682,293.7458915710449,2,2.8432159423828125,None,,,,,,,,,,,,,,,,,,124,3,2025-02-26_11h25.20.002,comp,2024.2.4,60.24325364679386,2025-02-26 11h25.46.888178 -0500,
111,111,0,filler_square,None,None,None,None,None,None,None,None,None,None,1,4.992371320724487,None,,,,,0,0,0,0,0,111,111,171,293.76142287254333,,,,,,,,,,,,,,,,,,,,,,,,,,,,,,,,,,,,,,,,,,,,,,,,,,,,,,,,,,,,,,,,,,,,,,,,,,,,,,,,,119.4834842368412,119.4834842368412,99.7456360498918,68.07150369785614,63.77443116784748,102.25786372557505,3.0,3.2,-190,-285,0,-5,181,276,293.7468240261078,293.74686455726624,293.74940299987793,293.76142287254333,293.91140627861023,293.91140627861023,293.91140627861023,293.91140627861023,293.91140627861023,293.91140627861023,293.91140627861023,298.7625563144684,1,4.992371320724487,None,,,,,,,,,,,,,,,,,,124,3,2025-02-26_11h25.20.002,comp,2024.2.4,60.24325364679386,2025-02-26 11h25.46.888178 -0500,
112,112,0,catch,None,None,None,None,None,None,None,None,None,None,1,1.1029675006866455,None,,,,,0,0,0,0,0,112,112,126,298.77809143066406,,,,,,,,,,,,,,,,,,,,,,,,,,,,,,,,,,,,,,,,,,,,,,,,,,,,,,,,,,,,,,,,,,,,,,,,,,,,,,,,,166,159,127,63,100,90,2.1,2.11,-207,274,0,257,172,-278,298.76356625556946,298.76360869407654,298.76565051078796,298.77809143066406,298.9281277656555,298.9281277656555,298.9281277656555,298.9281277656555,298.9281277656555,298.9281277656555,298.9281277656555,299.8958258628845,1,1.1029675006866455,None,,,,,,,,,,,,,,,,,,124,3,2025-02-26_11h25.20.002,comp,2024.2.4,60.24325364679386,2025-02-26 11h25.46.888178 -0500,
113,113,0,critical,wdh,35.0,2.1,upper,125.0,200.0,127.0,127.0,200.0,125.0,3,1.3004131317138672,None,,,,,0,0,0,0,0,113,113,33,299.91115617752075,,,,,,,,,,,,,,,,,,,,,,,,,,,,,,,,,,,,,,,,,,,,,,,,,,,,,,,,,,,,,,,,,,,,,,,,,,,,,,,,,125.0,200.0,127.0,127.0,200.0,125.0,2.1,2.11,-260,260,0,279,222,-250,299.89663457870483,299.8966748714447,299.89920926094055,299.91115617752075,300.06162905693054,300.06162905693054,300.06162905693054,300.06162905693054,300.06162905693054,300.06162905693054,300.06162905693054,301.21281933784485,3,1.3004131317138672,None,,,,,,,,,,,,,,,,,,124,3,2025-02-26_11h25.20.002,comp,2024.2.4,60.24325364679386,2025-02-26 11h25.46.888178 -0500,
114,114,0,critical,dwh,35.0,2.1,upper,127.0,127.0,125.0,200.0,200.0,125.0,2,0.9667174816131592,None,,,,,0,0,0,0,0,114,114,29,301.2282476425171,,,,,,,,,,,,,,,,,,,,,,,,,,,,,,,,,,,,,,,,,,,,,,,,,,,,,,,,,,,,,,,,,,,,,,,,,,,,,,,,,127.0,127.0,125.0,200.0,200.0,125.0,2.1,2.12,-260,-262,0,-269,258,267,301.2136697769165,301.21371245384216,301.215744972229,301.2282476425171,301.37824511528015,301.37824511528015,301.37824511528015,301.37824511528015,301.37824511528015,301.37824511528015,301.37824511528015,302.196151971817,2,0.9667174816131592,None,,,,,,,,,,,,,,,,,,124,3,2025-02-26_11h25.20.002,comp,2024.2.4,60.24325364679386,2025-02-26 11h25.46.888178 -0500,
115,115,0,critical,wdh,35.0,3.0,upper,125.0,200.0,127.0,127.0,200.0,125.0,3,1.847261667251587,None,,,,,0,0,0,0,0,115,115,75,302.21130442619324,,,,,,,,,,,,,,,,,,,,,,,,,,,,,,,,,,,,,,,,,,,,,,,,,,,,,,,,,,,,,,,,,,,,,,,,,,,,,,,,,125.0,200.0,127.0,127.0,200.0,125.0,3.0,3.2,-260,-283,0,-11,222,251,302.19696068763733,302.19700288772583,302.1991229057312,302.21130442619324,302.3615975379944,302.3615975379944,302.3615975379944,302.3615975379944,302.3615975379944,302.3615975379944,302.3615975379944,304.0627019405365,3,1.847261667251587,None,,,,,,,,,,,,,,,,,,124,3,2025-02-26_11h25.20.002,comp,2024.2.4,60.24325364679386,2025-02-26 11h25.46.888178 -0500,
116,116,0,filler_square,None,None,None,None,None,None,None,None,None,None,2,2.3332557678222656,None,,,,,0,0,0,0,0,116,116,183,304.07798290252686,,,,,,,,,,,,,,,,,,,,,,,,,,,,,,,,,,,,,,,,,,,,,,,,,,,,,,,,,,,,,,,,,,,,,,,,,,,,,,,,,106.16381846319803,98.36004145508733,149.6885338320792,149.6885338320792,121.01727903033081,101.21523492699671,3.0,3.2,-220,-251,0,-11,221,258,304.0636496543884,304.0636920928955,304.0657663345337,304.07798290252686,304.22820568084717,304.22820568084717,304.22820568084717,304.22820568084717,304.22820568084717,304.22820568084717,304.22820568084717,306.4126760959625,2,2.3332557678222656,None,,,,,,,,,,,,,,,,,,124,3,2025-02-26_11h25.20.002,comp,2024.2.4,60.24325364679386,2025-02-26 11h25.46.888178 -0500,
117,117,0,catch,None,None,None,None,None,None,None,None,None,None,2,1.0299992561340332,None,,,,,0,0,0,0,0,117,117,127,306.42828822135925,,,,,,,,,,,,,,,,,,,,,,,,,,,,,,,,,,,,,,,,,,,,,,,,,,,,,,,,,,,,,,,,,,,,,,,,,,,,,,,,,86,104,152,173,106,84,2.2,2.22,-234,261,0,-255,224,-258,306.4137156009674,306.4137587547302,306.41583371162415,306.42828822135925,306.5779695510864,306.5779695510864,306.5779695510864,306.5779695510864,306.5779695510864,306.5779695510864,306.5779695510864,307.46254324913025,2,1.0299992561340332,None,,,,,,,,,,,,,,,,,,124,3,2025-02-26_11h25.20.002,comp,2024.2.4,60.24325364679386,2025-02-26 11h25.46.888178 -0500,
118,118,0,filler_square,None,None,None,None,None,None,None,None,None,None,1,1.8917903900146484,None,,,,,0,0,0,0,0,118,118,188,307.47798442840576,,,,,,,,,,,,,,,,,,,,,,,,,,,,,,,,,,,,,,,,,,,,,,,,,,,,,,,,,,,,,,,,,,,,,,,,,,,,,,,,,94.51718073653853,94.51718073653853,78.7157305978638,72.83189154410468,73.96571030138885,69.16826277549669,2.2,2.22,-180,266,0,-261,167,-278,307.4635179042816,307.4635601043701,307.46564865112305,307.47798442840576,307.6277678012848,307.6277678012848,307.6277678012848,307.6277678012848,307.6277678012848,307.6277678012848,307.6277678012848,309.3789482116699,1,1.8917903900146484,None,,,,,,,,,,,,,,,,,,124,3,2025-02-26_11h25.20.002,comp,2024.2.4,60.24325364679386,2025-02-26 11h25.46.888178 -0500,
119,119,0,critical,wdh,35.0,2.1,lower,57.0,133.0,70.0,70.0,133.0,57.0,1,1.8548309803009033,None,,,,,0,0,0,0,0,119,119,32,309.39453291893005,,,,,,,,,,,,,,,,,,,,,,,,,,,,,,,,,,,,,,,,,,,,,,,,,,,,,,,,,,,,,,,,,,,,,,,,,,,,,,,,,57.0,133.0,70.0,70.0,133.0,57.0,2.1,2.11,-198,259,0,289,160,-282,309.3797242641449,309.37976479530334,309.3823046684265,309.39453291893005,309.5446560382843,309.5446560382843,309.5446560382843,309.5446560382843,309.5446560382843,309.5446560382843,309.5446560382843,311.2623941898346,1,1.8548309803009033,None,,,,,,,,,,,,,,,,,,124,3,2025-02-26_11h25.20.002,comp,2024.2.4,60.24325364679386,2025-02-26 11h25.46.888178 -0500,
120,120,0,critical,dhw,20.0,2.1,lower,78.0,78.0,133.0,57.0,57.0,133.0,2,2.5334696769714355,None,,,,,0,0,0,0,0,120,120,26,311.27773237228394,,,,,,,,,,,,,,,,,,,,,,,,,,,,,,,,,,,,,,,,,,,,,,,,,,,,,,,,,,,,,,,,,,,,,,,,,,,,,,,,,78.0,78.0,133.0,57.0,57.0,133.0,2.1,2.12,-164,-278,0,-255,191,276,311.26320815086365,311.2632489204407,311.2656047344208,311.27773237228394,311.42775559425354,311.42775559425354,311.42775559425354,311.42775559425354,311.42775559425354,311.42775559425354,311.42775559425354,313.8125340938568,2,2.5334696769714355,None,,,,,,,,,,,,,,,,,,124,3,2025-02-26_11h25.20.002,comp,2024.2.4,60.24325364679386,2025-02-26 11h25.46.888178 -0500,
121,121,0,critical,dwh,35.0,2.1,lower,70.0,70.0,57.0,133.0,133.0,57.0,3,1.550213098526001,None,,,,,0,0,0,0,0,121,121,4,313.8279404640198,,,,,,,,,,,,,,,,,,,,,,,,,,,,,,,,,,,,,,,,,,,,,,,,,,,,,,,,,,,,,,,,,,,,,,,,,,,,,,,,,70.0,70.0,57.0,133.0,133.0,57.0,2.1,2.12,-198,-269,0,-253,191,279,313.81331491470337,313.81335616111755,313.8153247833252,313.8279404640198,313.9779534339905,313.9779534339905,313.9779534339905,313.9779534339905,313.9779534339905,313.9779534339905,313.9779534339905,315.3954608440399,3,1.550213098526001,None,,,,,,,,,,,,,,,,,,124,3,2025-02-26_11h25.20.002,comp,2024.2.4,60.24325364679386,2025-02-26 11h25.46.888178 -0500,
122,122,0,critical,dwh,20.0,3.0,upper,141.0,141.0,125.0,200.0,200.0,125.0,2,7.533897876739502,None,,,,,0,0,0,0,0,122,122,69,315.41116666793823,,,,,,,,,,,,,,,,,,,,,,,,,,,,,,,,,,,,,,,,,,,,,,,,,,,,,,,,,,,,,,,,,,,,,,,,,,,,,,,,,141.0,141.0,125.0,200.0,200.0,125.0,3.0,3.2,-266,-257,0,-5,258,252,315.3962321281433,315.39627289772034,315.398583650589,315.41116666793823,315.56153178215027,315.56153178215027,315.56153178215027,315.56153178215027,315.56153178215027,315.56153178215027,315.56153178215027,322.96236300468445,2,7.533897876739502,None,,,,,,,,,,,,,,,,,,124,3,2025-02-26_11h25.20.002,comp,2024.2.4,60.24325364679386,2025-02-26 11h25.46.888178 -0500,
123,123,0,filler_random,None,None,None,None,None,None,None,None,None,None,2,2.0870871543884277,None,,,,,0,0,0,0,0,123,123,142,322.97762513160706,,,,,,,,,,,,,,,,,,,,,,,,,,,,,,,,,,,,,,,,,,,,,,,,,,,,,,,,,,,,,,,,,,,,,,,,,,,,,,,,,82.65045013268563,173.1948072301468,162.28683897839107,131.02781756713688,172.81160699440585,108.28650910519853,1.0,1.3,232,-256,480,-257,696,-290,322.9632647037506,322.9633049964905,322.9656479358673,322.97762513160706,323.12793159484863,323.12793159484863,323.12793159484863,323.12793159484863,323.12793159484863,323.12793159484863,323.12793159484863,325.07909059524536,2,2.0870871543884277,None,,,,,,,,,,,,,,,,,,124,3,2025-02-26_11h25.20.002,comp,2024.2.4,60.24325364679386,2025-02-26 11h25.46.888178 -0500,
124,124,0,filler_random,None,None,None,None,None,None,None,None,None,None,3,0.9380719661712646,None,,,,,0,0,0,0,0,124,124,131,325.09442043304443,,,,,,,,,,,,,,,,,,,,,,,,,,,,,,,,,,,,,,,,,,,,,,,,,,,,,,,,,,,,,,,,,,,,,,,,,,,,,,,,,194.4785643544197,87.57934221373614,195.33973648326648,117.84072100731795,185.824612081333,168.19696177196732,4.0,4.1,-199,-270,0,19,239,-261,325.0799992084503,325.0800406932831,325.08257579803467,325.09442043304443,325.24459171295166,325.24459171295166,325.24459171295166,325.24459171295166,325.24459171295166,325.24459171295166,325.24459171295166,326.04567193984985,3,0.9380719661712646,None,,,,,,,,,,,,,,,,,,124,3,2025-02-26_11h25.20.002,comp,2024.2.4,60.24325364679386,2025-02-26 11h25.46.888178 -0500,
125,125,0,filler_square,None,None,None,None,None,None,None,None,None,None,2,0.9554793834686279,None,,,,,0,0,0,0,0,125,125,177,326.0609829425812,,,,,,,,,,,,,,,,,,,,,,,,,,,,,,,,,,,,,,,,,,,,,,,,,,,,,,,,,,,,,,,,,,,,,,,,,,,,,,,,,68.68653803021203,77.07106719192504,92.38726230910495,92.38726230910495,76.11677051242508,60.47086845307961,2.2,2.21,-181,-284,0,274,172,255,326.0466351509094,326.0466775894165,326.0491008758545,326.0609829425812,326.2109491825104,326.2109491825104,326.2109491825104,326.2109491825104,326.2109491825104,326.2109491825104,326.2109491825104,327.02891302108765,2,0.9554793834686279,None,,,,,,,,,,,,,,,,,,124,3,2025-02-26_11h25.20.002,comp,2024.2.4,60.24325364679386,2025-02-26 11h25.46.888178 -0500,
126,126,0,critical,hwd,20.0,1.0,upper,200.0,125.0,125.0,200.0,141.0,141.0,1,1.0682363510131836,None,,,,,0,0,0,0,0,126,126,103,327.0443365573883,,,,,,,,,,,,,,,,,,,,,,,,,,,,,,,,,,,,,,,,,,,,,,,,,,,,,,,,,,,,,,,,,,,,,,,,,,,,,,,,,200.0,125.0,125.0,200.0,141.0,141.0,1.0,1.2,-258,10,0,9,266,9,327.0296971797943,327.02974009513855,327.03226685523987,327.0443365573883,327.1946268081665,327.1946268081665,327.1946268081665,327.1946268081665,327.1946268081665,327.1946268081665,327.1946268081665,328.12904500961304,1,1.0682363510131836,None,,,,,,,,,,,,,,,,,,124,3,2025-02-26_11h25.20.002,comp,2024.2.4,60.24325364679386,2025-02-26 11h25.46.888178 -0500,
127,127,0,filler_random,None,None,None,None,None,None,None,None,None,None,2,1.745131492614746,None,,,,,0,0,0,0,0,127,127,159,328.1443634033203,,,,,,,,,,,,,,,,,,,,,,,,,,,,,,,,,,,,,,,,,,,,,,,,,,,,,,,,,,,,,,,,,,,,,,,,,,,,,,,,,75.68787261999972,108.15021340678365,151.32727271759228,199.3004184060169,148.71839333991772,72.45466787149061,4.0,4.2,-250,3,0,-250,232,7,328.12995982170105,328.13000106811523,328.1320540904999,328.1443634033203,328.2944586277008,328.2944586277008,328.2944586277008,328.2944586277008,328.2944586277008,328.2944586277008,328.2944586277008,329.8955705165863,2,1.745131492614746,None,,,,,,,,,,,,,,,,,,124,3,2025-02-26_11h25.20.002,comp,2024.2.4,60.24325364679386,2025-02-26 11h25.46.888178 -0500,
128,128,0,critical,whd,20.0,2.1,upper,125.0,200.0,200.0,125.0,141.0,141.0,2,3.033730983734131,None,,,,,0,0,0,0,0,128,128,39,329.9112479686737,,,,,,,,,,,,,,,,,,,,,,,,,,,,,,,,,,,,,,,,,,,,,,,,,,,,,,,,,,,,,,,,,,,,,,,,,,,,,,,,,125.0,200.0,200.0,125.0,141.0,141.0,2.1,2.12,-258,-250,0,-257,229,275,329.89637565612793,329.89641785621643,329.89882373809814,329.9112479686737,330.06177401542664,330.06177401542664,330.06177401542664,330.06177401542664,330.06177401542664,330.06177401542664,330.06177401542664,332.9623601436615,2,3.033730983734131,None,,,,,,,,,,,,,,,,,,124,3,2025-02-26_11h25.20.002,comp,2024.2.4,60.24325364679386,2025-02-26 11h25.46.888178 -0500,
129,129,0,filler_square,None,None,None,None,None,None,None,None,None,None,3,2.7920546531677246,None,,,,,0,0,0,0,0,129,129,204,332.97766065597534,,,,,,,,,,,,,,,,,,,,,,,,,,,,,,,,,,,,,,,,,,,,,,,,,,,,,,,,,,,,,,,,,,,,,,,,,,,,,,,,,57.219543610691595,59.29402552616492,59.90988368318583,57.862570479637135,60.192803612596514,60.192803612596514,1.0,1.3,325,-286,480,-261,635,-251,332.9633107185364,332.963351726532,332.9666175842285,332.97766065597534,333.1277005672455,333.1277005672455,333.1277005672455,333.1277005672455,333.1277005672455,333.1277005672455,333.1277005672455,335.7787094116211,3,2.7920546531677246,None,,,,,,,,,,,,,,,,,,124,3,2025-02-26_11h25.20.002,comp,2024.2.4,60.24325364679386,2025-02-26 11h25.46.888178 -0500,
130,130,0,critical,dwh,20.0,1.0,lower,78.0,78.0,57.0,133.0,133.0,57.0,2,3.605837106704712,None,,,,,0,0,0,0,0,130,130,66,335.79445934295654,,,,,,,,,,,,,,,,,,,,,,,,,,,,,,,,,,,,,,,,,,,,,,,,,,,,,,,,,,,,,,,,,,,,,,,,,,,,,,,,,78.0,78.0,57.0,133.0,133.0,57.0,1.0,1.1,-682,288,-480,267,-289,282,335.77948808670044,335.7795283794403,335.78188967704773,335.79445934295654,335.9442939758301,335.9442939758301,335.9442939758301,335.9442939758301,335.9442939758301,335.9442939758301,335.9442939758301,339.41259717941284,2,3.605837106704712,None,,,,,,,,,,,,,,,,,,124,3,2025-02-26_11h25.20.002,comp,2024.2.4,60.24325364679386,2025-02-26 11h25.46.888178 -0500,
131,131,0,critical,hwd,20.0,3.0,upper,200.0,125.0,125.0,200.0,141.0,141.0,1,1.6617486476898193,None,,,,,0,0,0,0,0,131,131,105,339.4276444911957,,,,,,,,,,,,,,,,,,,,,,,,,,,,,,,,,,,,,,,,,,,,,,,,,,,,,,,,,,,,,,,,,,,,,,,,,,,,,,,,,200.0,125.0,125.0,200.0,141.0,141.0,3.0,3.1,-258,274,0,14,266,-254,339.41339015960693,339.41343355178833,339.41577553749084,339.4276444911957,339.5780544281006,339.5780544281006,339.5780544281006,339.5780544281006,339.5780544281006,339.5780544281006,339.5780544281006,341.09571385383606,1,1.6617486476898193,None,,,,,,,,,,,,,,,,,,124,3,2025-02-26_11h25.20.002,comp,2024.2.4,60.24325364679386,2025-02-26 11h25.46.888178 -0500,
132,132,0,critical,hwd,20.0,2.1,upper,200.0,125.0,125.0,200.0,141.0,141.0,1,1.2836713790893555,None,,,,,0,0,0,0,0,132,132,19,341.11103415489197,,,,,,,,,,,,,,,,,,,,,,,,,,,,,,,,,,,,,,,,,,,,,,,,,,,,,,,,,,,,,,,,,,,,,,,,,,,,,,,,,200.0,125.0,125.0,200.0,141.0,141.0,2.1,2.12,-258,-276,0,-251,266,261,341.09650230407715,341.09654355049133,341.098970413208,341.11103415489197,341.26127457618713,341.26127457618713,341.26127457618713,341.26127457618713,341.26127457618713,341.26127457618713,341.26127457618713,342.39578771591187,1,1.2836713790893555,None,,,,,,,,,,,,,,,,,,124,3,2025-02-26_11h25.20.002,comp,2024.2.4,60.24325364679386,2025-02-26 11h25.46.888178 -0500,
133,133,0,filler_random,None,None,None,None,None,None,None,None,None,None,2,1.0321564674377441,None,,,,,0,0,0,0,0,133,133,157,342.4111547470093,,,,,,,,,,,,,,,,,,,,,,,,,,,,,,,,,,,,,,,,,,,,,,,,,,,,,,,,,,,,,,,,,,,,,,,,,,,,,,,,,126.78593843202209,62.18256757040736,117.96131940911619,181.75069698285324,68.15337400468403,58.16783292618459,2.2,2.22,-218,279,0,-275,216,-286,342.39670515060425,342.3967468738556,342.39883971214294,342.4111547470093,342.56110525131226,342.56110525131226,342.56110525131226,342.56110525131226,342.56110525131226,342.56110525131226,342.56110525131226,343.445476770401,2,1.0321564674377441,None,,,,,,,,,,,,,,,,,,124,3,2025-02-26_11h25.20.002,comp,2024.2.4,60.24325364679386,2025-02-26 11h25.46.888178 -0500,
134,134,0,filler_random,None,None,None,None,None,None,None,None,None,None,2,2.6441516876220703,None,,,,,0,0,0,0,0,134,134,167,343.4611351490021,,,,,,,,,,,,,,,,,,,,,,,,,,,,,,,,,,,,,,,,,,,,,,,,,,,,,,,,,,,,,,,,,,,,,,,,,,,,,,,,,195.61863834543783,135.31159919364097,170.04271666964277,185.4754005017827,162.16357366960514,140.64985696989356,3.0,3.1,-256,256,0,1,259,-261,343.4463348388672,343.4463746547699,343.4487383365631,343.4611351490021,343.61130571365356,343.61130571365356,343.61130571365356,343.61130571365356,343.61130571365356,343.61130571365356,343.61130571365356,346.1123995780945,2,2.6441516876220703,None,,,,,,,,,,,,,,,,,,124,3,2025-02-26_11h25.20.002,comp,2024.2.4,60.24325364679386,2025-02-26 11h25.46.888178 -0500,
135,135,0,filler_random,None,None,None,None,None,None,None,None,None,None,1,1.0254590511322021,None,,,,,0,0,0,0,0,135,135,141,346.1278438568115,,,,,,,,,,,,,,,,,,,,,,,,,,,,,,,,,,,,,,,,,,,,,,,,,,,,,,,,,,,,,,,,,,,,,,,,,,,,,,,,,125.7635022126594,199.69343420462943,153.35408056812417,145.8615041445267,57.73594471804822,73.26466751233727,1.0,1.2,-269,-11,0,-2,206,-15,346.1132707595825,346.1133120059967,346.11544609069824,346.1278438568115,346.27823758125305,346.27823758125305,346.27823758125305,346.27823758125305,346.27823758125305,346.27823758125305,346.27823758125305,347.16220784187317,1,1.0254590511322021,None,,,,,,,,,,,,,,,,,,124,3,2025-02-26_11h25.20.002,comp,2024.2.4,60.24325364679386,2025-02-26 11h25.46.888178 -0500,
136,136,0,critical,wdh,35.0,1.0,upper,125.0,200.0,127.0,127.0,200.0,125.0,3,3.5346858501434326,None,,,,,0,0,0,0,0,136,136,73,347.1777241230011,,,,,,,,,,,,,,,,,,,,,,,,,,,,,,,,,,,,,,,,,,,,,,,,,,,,,,,,,,,,,,,,,,,,,,,,,,,,,,,,,125.0,200.0,127.0,127.0,200.0,125.0,1.0,1.1,-740,281,-480,277,-258,270,347.16300225257874,347.1630449295044,347.16524291038513,347.1777241230011,347.32784152030945,347.32784152030945,347.32784152030945,347.32784152030945,347.32784152030945,347.32784152030945,347.32784152030945,350.7289159297943,3,3.5346858501434326,None,,,,,,,,,,,,,,,,,,124,3,2025-02-26_11h25.20.002,comp,2024.2.4,60.24325364679386,2025-02-26 11h25.46.888178 -0500,
137,137,0,filler_random,None,None,None,None,None,None,None,None,None,None,2,1.4504282474517822,None,,,,,0,0,0,0,0,137,137,160,350.74421286582947,,,,,,,,,,,,,,,,,,,,,,,,,,,,,,,,,,,,,,,,,,,,,,,,,,,,,,,,,,,,,,,,,,,,,,,,,,,,,,,,,141.76238225422424,91.61039915173455,153.84734179057727,199.2838395877064,106.21737379876902,175.92708042744061,2.1,2.11,-241,250,0,265,284,-275,350.7298445701599,350.7298858165741,350.73278284072876,350.74421286582947,350.89443945884705,350.89443945884705,350.89443945884705,350.89443945884705,350.89443945884705,350.89443945884705,350.89443945884705,352.19585061073303,2,1.4504282474517822,None,,,,,,,,,,,,,,,,,,124,3,2025-02-26_11h25.20.002,comp,2024.2.4,60.24325364679386,2025-02-26 11h25.46.888178 -0500,
138,138,0,critical,hwd,20.0,2.1,upper,200.0,125.0,125.0,200.0,141.0,141.0,1,2.6693544387817383,None,,,,,0,0,0,0,0,138,138,43,352.2110471725464,,,,,,,,,,,,,,,,,,,,,,,,,,,,,,,,,,,,,,,,,,,,,,,,,,,,,,,,,,,,,,,,,,,,,,,,,,,,,,,,,200.0,125.0,125.0,200.0,141.0,141.0,2.1,2.11,-258,275,0,259,266,-268,352.19665145874023,352.196692943573,352.19881534576416,352.2110471725464,352.3612277507782,352.3612277507782,352.3612277507782,352.3612277507782,352.3612277507782,352.3612277507782,352.3612277507782,354.8955852985382,1,2.6693544387817383,None,,,,,,,,,,,,,,,,,,124,3,2025-02-26_11h25.20.002,comp,2024.2.4,60.24325364679386,2025-02-26 11h25.46.888178 -0500,
139,139,0,critical,dhw,35.0,2.1,upper,127.0,127.0,200.0,125.0,125.0,200.0,3,1.442760705947876,None,,,,,0,0,0,0,0,139,139,1,354.91093826293945,,,,,,,,,,,,,,,,,,,,,,,,,,,,,,,,,,,,,,,,,,,,,,,,,,,,,,,,,,,,,,,,,,,,,,,,,,,,,,,,,127.0,127.0,200.0,125.0,125.0,200.0,2.1,2.11,-222,261,0,268,258,-265,354.8964092731476,354.89645171165466,354.89937353134155,354.91093826293945,355.06106328964233,355.06106328964233,355.06106328964233,355.06106328964233,355.06106328964233,355.06106328964233,355.06106328964233,356.3623077869415,3,1.442760705947876,None,,,,,,,,,,,,,,,,,,124,3,2025-02-26_11h25.20.002,comp,2024.2.4,60.24325364679386,2025-02-26 11h25.46.888178 -0500,
