thisN,thisTrialN,thisRepN,effect,order,distance,config,diag,h_1,w_1,h_2,w_2,h_3,w_3,rect_choice.keys,rect_choice.rt,rect_choice.duration,instructions_loop.thisRepN,instructions_loop.thisTrialN,instructions_loop.thisN,instructions_loop.thisIndex,blocks.thisRepN,blocks.thisTrialN,blocks.thisN,blocks.thisIndex,trials.thisRepN,trials.thisTrialN,trials.thisN,trials.thisIndex,thisRow.t,notes,consent.started,agree_button.started,decline_button.started,consent_img.started,mouse.started,consent.stopped,agree_button.numClicks,agree_button.timesOn,agree_button.timesOff,decline_button.numClicks,decline_button.timesOn,decline_button.timesOff,mouse.x,mouse.y,mouse.leftButton,mouse.midButton,mouse.rightButton,mouse.time,mouse.clicked_name,exp_params.started,exp_params.stopped,welcome.started,welcome_text.started,welcome_text.stopped,welcome.stopped,instructions_1.started,instructions_1_text_1.started,instructions_1_text_2.started,key_resp.started,instructions_1.stopped,instructions_loop.key_resp.keys,instructions_loop.key_resp.rt,instructions_loop.key_resp.duration,instructions_2.started,instructions_2_text_1.started,instructions_2_text_2.started,key_resp_2.started,instructions_2.stopped,instructions_loop.key_resp_2.keys,instructions_loop.key_resp_2.rt,instructions_loop.key_resp_2.duration,instructions_3.started,instructions_3_text_1.started,r1_instr3.started,r2_instr3.started,r3_instr3.started,r1_instr3_label.started,r2_instr3_label.started,r3_instr3_label.started,instructions_3_text_3.started,instructions_3_text_4.started,key_resp_3.started,instructions_3.stopped,instructions_loop.key_resp_3.keys,instructions_loop.key_resp_3.rt,instructions_loop.key_resp_3.duration,instructions_4.started,instructions_4_text_1.started,instructions_4_text_3.started,instructions_4_text_2.started,key_resp_4.started,instructions_4.stopped,instructions_loop.key_resp_4.keys,instructions_loop.key_resp_4.rt,instructions_loop.key_resp_4.duration,instructions_5.started,instructions_5_text_1.started,instructions_5_text_2.started,key_resp_5.started,instructions_5.stopped,instructions_loop.key_resp_5.keys,instructions_loop.key_resp_5.rt,instructions_loop.key_resp_5.duration,start_exp.started,start_exp_text.started,key_resp_6.started,start_exp.stopped,key_resp_6.keys,key_resp_6.rt,key_resp_6.duration,h_1_tmp,w_1_tmp,h_2_tmp,w_2_tmp,h_3_tmp,w_3_tmp,config_tmp,config_tmp_1,r_1_x,r_1_y,r_2_x,r_2_y,r_3_x,r_3_y,pre_trial.started,pre_trial.stopped,choice_trial.started,rect_choice.started,r_1.started,r_2.started,r_3.started,r_1_label.started,r_2_label.started,r_3_label.started,prompt.started,choice_trial.stopped,trials.rect_choice.keys,trials.rect_choice.rt,trials.rect_choice.duration,end_block.started,end_block_text.started,end_block.stopped,end.started,end_text.started,key_resp_7.started,end.stopped,key_resp_7.keys,key_resp_7.rt,key_resp_7.duration,debriefing.started,debrief_form.started,end_debrief.started,debriefing.stopped,end_debrief.keys,end_debrief.rt,end_debrief.duration,participant,computer,date,expName,psychopyVersion,frameRate,expStart,
,,,,,,,,,,,,,,,,,,,,,,,,,,,,,,,0.014780282974243164,0.035021066665649414,0.035021066665649414,0.035021066665649414,0.014547348022460938,63.43051886558533,1,[63.39305233955383],[63.39307522773743],0,,,[-79.0],[-504.0],[1],[0],[0],[63.41523480415344],['agree_button'],,,,,,,,,,,,,,,,,,,,,,,,,,,,,,,,,,,,,,,,,,,,,,,,,,,,,,,,,,,,,,,,,,,,,,,,,,,,,,,,,,,,,,,,,,,,,,,,,,,,,,,,,,,,125,4,2025-02-26_11h25.40.098,comp,2024.2.4,57.75432644113727,2025-02-26 11h26.14.613639 -0500,
,,,,,,,,,,,,,,,,,,,,,,,,,,,,,,,,,,,,,,,,,,,,,,,,,,63.431052684783936,63.43111872673035,,,,,,,,,,,,,,,,,,,,,,,,,,,,,,,,,,,,,,,,,,,,,,,,,,,,,,,,,,,,,,,,,,,,,,,,,,,,,,,,,,,,,,,,,,,,,,,,,,,,,,,,,,125,4,2025-02-26_11h25.40.098,comp,2024.2.4,57.75432644113727,2025-02-26 11h26.14.613639 -0500,
,,,,,,,,,,,,,,,,,,,,,,,,,,,,,,,,,,,,,,,,,,,,,,,,,,,,63.43116235733032,63.445093393325806,65.44859051704407,65.42781591415405,,,,,,,,,,,,,,,,,,,,,,,,,,,,,,,,,,,,,,,,,,,,,,,,,,,,,,,,,,,,,,,,,,,,,,,,,,,,,,,,,,,,,,,,,,,,,,,,,,,,,,125,4,2025-02-26_11h25.40.098,comp,2024.2.4,57.75432644113727,2025-02-26 11h26.14.613639 -0500,
0,0,0,,,,,,,,,,,,,,,0,0,0,0,,,,,,,,,65.44859051704407,,,,,,,,,,,,,,,,,,,,,,,,,,,65.4287497997284,65.44859051704407,65.44859051704407,66.94640946388245,71.34948420524597,space,4.3941650390625,None,71.34966945648193,71.36560678482056,71.36560678482056,72.85066032409668,79.0848331451416,space,6.2260167598724365,None,79.08498620986938,79.11295580863953,79.11295580863953,79.11295580863953,79.11295580863953,79.11295580863953,79.11295580863953,79.11295580863953,79.11295580863953,79.11295580863953,80.58916568756104,86.35495090484619,space,5.750724792480469,None,86.35511231422424,86.37297749519348,86.37297749519348,86.37297749519348,87.86945652961731,92.67092704772949,space,4.7988293170928955,None,92.67107892036438,92.69065690040588,92.69065690040588,94.16777086257935,95.69407987594604,space,1.5101747512817383,None,95.69419264793396,95.70553922653198,95.70553922653198,96.62138247489929,space,0.9065580368041992,None,,,,,,,,,,,,,,,,,,,,,,,,,,,,,,,,,,,,,,,,,,,,,,,125,4,2025-02-26_11h25.40.098,comp,2024.2.4,57.75432644113727,2025-02-26 11h26.14.613639 -0500,
0,0,0,critical,whd,20.0,3.0,lower,57.0,133.0,133.0,57.0,78.0,78.0,1,11.41019606590271,None,,,,,0,0,0,0,0,0,0,92,96.67687058448792,,,,,,,,,,,,,,,,,,,,,,,,,,,,,,,,,,,,,,,,,,,,,,,,,,,,,,,,,,,,,,,,,,,,,,,,,,,,,,,,,,57.0,133.0,133.0,57.0,78.0,78.0,3.0,3.1,-191,284,0,-7,164,-253,96.6642541885376,96.66432452201843,96.66585206985474,96.67687058448792,96.83183884620667,96.83183884620667,96.83183884620667,96.83183884620667,96.83183884620667,96.83183884620667,96.83183884620667,108.09421849250793,1,11.41019606590271,None,,,,,,,,,,,,,,,,,,125,4,2025-02-26_11h25.40.098,comp,2024.2.4,57.75432644113727,2025-02-26 11h26.14.613639 -0500,
1,1,0,critical,hwd,35.0,4.0,upper,200.0,125.0,125.0,200.0,127.0,127.0,2,5.548081398010254,None,,,,,0,0,0,0,0,1,1,101,108.1126160621643,,,,,,,,,,,,,,,,,,,,,,,,,,,,,,,,,,,,,,,,,,,,,,,,,,,,,,,,,,,,,,,,,,,,,,,,,,,,,,,,,,200.0,125.0,125.0,200.0,127.0,127.0,4.0,4.2,-258,-8,0,-279,260,18,108.09586000442505,108.09593939781189,108.09930920600891,108.1126160621643,108.26643538475037,108.26643538475037,108.26643538475037,108.26643538475037,108.26643538475037,108.26643538475037,108.26643538475037,113.66280031204224,2,5.548081398010254,None,,,,,,,,,,,,,,,,,,125,4,2025-02-26_11h25.40.098,comp,2024.2.4,57.75432644113727,2025-02-26 11h26.14.613639 -0500,
2,2,0,filler_square,None,None,None,None,None,None,None,None,None,None,2,7.820807933807373,None,,,,,0,0,0,0,0,2,2,206,113.67923498153687,,,,,,,,,,,,,,,,,,,,,,,,,,,,,,,,,,,,,,,,,,,,,,,,,,,,,,,,,,,,,,,,,,,,,,,,,,,,,,,,,,65.9089751853542,65.10997733014722,71.51798861810802,71.51798861810802,70.33682576726665,58.63954549432997,1.0,1.1,-644,251,-480,254,-319,264,113.66466474533081,113.66474747657776,113.66812491416931,113.67923498153687,113.83094763755798,113.83094763755798,113.83094763755798,113.83094763755798,113.83094763755798,113.83094763755798,113.83094763755798,121.51463627815247,2,7.820807933807373,None,,,,,,,,,,,,,,,,,,125,4,2025-02-26_11h25.40.098,comp,2024.2.4,57.75432644113727,2025-02-26 11h26.14.613639 -0500,
3,3,0,filler_square,None,None,None,None,None,None,None,None,None,None,3,1.9849131107330322,None,,,,,0,0,0,0,0,3,3,195,121.53094124794006,,,,,,,,,,,,,,,,,,,,,,,,,,,,,,,,,,,,,,,,,,,,,,,,,,,,,,,,,,,,,,,,,,,,,,,,,,,,,,,,,,68.0706122947958,69.63178525629479,61.93171950965676,124.5475085319324,133.21782508269763,133.21782508269763,3.0,3.1,-193,273,0,-8,225,-286,121.51639199256897,121.51647353172302,121.52055358886719,121.53094124794006,121.68829393386841,121.68829393386841,121.68829393386841,121.68829393386841,121.68829393386841,121.68829393386841,121.68829393386841,123.51816082000732,3,1.9849131107330322,None,,,,,,,,,,,,,,,,,,125,4,2025-02-26_11h25.40.098,comp,2024.2.4,57.75432644113727,2025-02-26 11h26.14.613639 -0500,
4,4,0,filler_random,None,None,None,None,None,None,None,None,None,None,2,1.2451739311218262,None,,,,,0,0,0,0,0,4,4,134,123.53499341011047,,,,,,,,,,,,,,,,,,,,,,,,,,,,,,,,,,,,,,,,,,,,,,,,,,,,,,,,,,,,,,,,,,,,,,,,,,,,,,,,,,189.7995832341138,114.16616819900159,165.73203382212503,199.76563203158182,84.50424544321444,74.71492029296799,2.1,2.11,-253,284,0,253,233,-284,123.52014803886414,123.52027249336243,123.52387261390686,123.53499341011047,123.6789243221283,123.6789243221283,123.6789243221283,123.6789243221283,123.6789243221283,123.6789243221283,123.6789243221283,124.79808902740479,2,1.2451739311218262,None,,,,,,,,,,,,,,,,,,125,4,2025-02-26_11h25.40.098,comp,2024.2.4,57.75432644113727,2025-02-26 11h26.14.613639 -0500,
5,5,0,filler_random,None,None,None,None,None,None,None,None,None,None,2,2.134089708328247,None,,,,,0,0,0,0,0,5,5,155,124.81469321250916,,,,,,,,,,,,,,,,,,,,,,,,,,,,,,,,,,,,,,,,,,,,,,,,,,,,,,,,,,,,,,,,,,,,,,,,,,,,,,,,,,61.57050756827182,178.1258004234227,130.39509745068318,197.43568977189733,170.06912119511128,86.25188913615565,3.0,3.2,-284,-264,0,-3,238,265,124.80008220672607,124.80016469955444,124.80334901809692,124.81469321250916,124.95563054084778,124.95563054084778,124.95563054084778,124.95563054084778,124.95563054084778,124.95563054084778,124.95563054084778,126.95467114448547,2,2.134089708328247,None,,,,,,,,,,,,,,,,,,125,4,2025-02-26_11h25.40.098,comp,2024.2.4,57.75432644113727,2025-02-26 11h26.14.613639 -0500,
6,6,0,critical,dhw,20.0,1.0,lower,78.0,78.0,133.0,57.0,57.0,133.0,3,19.27327561378479,None,,,,,0,0,0,0,0,6,6,54,126.97088241577148,,,,,,,,,,,,,,,,,,,,,,,,,,,,,,,,,,,,,,,,,,,,,,,,,,,,,,,,,,,,,,,,,,,,,,,,,,,,,,,,,,78.0,78.0,133.0,57.0,57.0,133.0,1.0,1.1,-644,255,-480,286,-289,267,126.9563136100769,126.9564516544342,126.95986032485962,126.97088241577148,127.116206407547,127.116206407547,127.116206407547,127.116206407547,127.116206407547,127.116206407547,127.116206407547,146.25767612457275,3,19.27327561378479,None,,,,,,,,,,,,,,,,,,125,4,2025-02-26_11h25.40.098,comp,2024.2.4,57.75432644113727,2025-02-26 11h26.14.613639 -0500,
7,7,0,filler_random,None,None,None,None,None,None,None,None,None,None,2,1.3062927722930908,None,,,,,0,0,0,0,0,7,7,136,146.27359199523926,,,,,,,,,,,,,,,,,,,,,,,,,,,,,,,,,,,,,,,,,,,,,,,,,,,,,,,,,,,,,,,,,,,,,,,,,,,,,,,,,,93.20980464741936,86.24674787148048,135.18184675170866,198.8286247252665,97.85440671424286,66.6808762897953,3.0,3.1,-239,268,0,12,229,-252,146.25997924804688,146.26014065742493,146.26321125030518,146.27359199523926,146.42215180397034,146.42215180397034,146.42215180397034,146.42215180397034,146.42215180397034,146.42215180397034,146.42215180397034,147.59207367897034,2,1.3062927722930908,None,,,,,,,,,,,,,,,,,,125,4,2025-02-26_11h25.40.098,comp,2024.2.4,57.75432644113727,2025-02-26 11h26.14.613639 -0500,
8,8,0,filler_random,None,None,None,None,None,None,None,None,None,None,3,3.887284755706787,None,,,,,0,0,0,0,0,8,8,138,147.61289858818054,,,,,,,,,,,,,,,,,,,,,,,,,,,,,,,,,,,,,,,,,,,,,,,,,,,,,,,,,,,,,,,,,,,,,,,,,,,,,,,,,,148.17839238916198,179.34128879144805,102.30484798108009,193.56825081105953,193.66332019829554,157.96710864991104,4.0,4.1,-282,-267,0,5,272,-254,147.5944128036499,147.594496011734,147.59747695922852,147.61289858818054,147.7563967704773,147.7563967704773,147.7563967704773,147.7563967704773,147.7563967704773,147.7563967704773,147.7563967704773,151.5112657546997,3,3.887284755706787,None,,,,,,,,,,,,,,,,,,125,4,2025-02-26_11h25.40.098,comp,2024.2.4,57.75432644113727,2025-02-26 11h26.14.613639 -0500,
9,9,0,filler_random,None,None,None,None,None,None,None,None,None,None,3,1.7753360271453857,None,,,,,0,0,0,0,0,9,9,159,151.53276801109314,,,,,,,,,,,,,,,,,,,,,,,,,,,,,,,,,,,,,,,,,,,,,,,,,,,,,,,,,,,,,,,,,,,,,,,,,,,,,,,,,,71.50623733269667,91.07919367182933,68.73731117822064,166.0130602848016,191.79870209993635,108.67028509172926,2.1,2.12,-225,-289,0,-275,233,289,151.51336240768433,151.51344561576843,151.5167520046234,151.53276801109314,151.68094396591187,151.68094396591187,151.68094396591187,151.68094396591187,151.68094396591187,151.68094396591187,151.68094396591187,153.32686972618103,3,1.7753360271453857,None,,,,,,,,,,,,,,,,,,125,4,2025-02-26_11h25.40.098,comp,2024.2.4,57.75432644113727,2025-02-26 11h26.14.613639 -0500,
10,10,0,critical,dwh,20.0,4.0,upper,141.0,141.0,125.0,200.0,200.0,125.0,2,3.4847090244293213,None,,,,,0,0,0,0,0,10,10,71,153.3431785106659,,,,,,,,,,,,,,,,,,,,,,,,,,,,,,,,,,,,,,,,,,,,,,,,,,,,,,,,,,,,,,,,,,,,,,,,,,,,,,,,,,141.0,141.0,125.0,200.0,200.0,125.0,4.0,4.1,-266,-263,0,-4,258,-267,153.32874417304993,153.32882165908813,153.33273220062256,153.3431785106659,153.49634504318237,153.49634504318237,153.49634504318237,153.49634504318237,153.49634504318237,153.49634504318237,153.49634504318237,156.8418905735016,2,3.4847090244293213,None,,,,,,,,,,,,,,,,,,125,4,2025-02-26_11h25.40.098,comp,2024.2.4,57.75432644113727,2025-02-26 11h26.14.613639 -0500,
11,11,0,critical,whd,20.0,2.1,upper,125.0,200.0,200.0,125.0,141.0,141.0,3,4.550210952758789,None,,,,,0,0,0,0,0,11,11,15,156.8618221282959,,,,,,,,,,,,,,,,,,,,,,,,,,,,,,,,,,,,,,,,,,,,,,,,,,,,,,,,,,,,,,,,,,,,,,,,,,,,,,,,,,125.0,200.0,200.0,125.0,141.0,141.0,2.1,2.11,-258,288,0,252,229,-261,156.84352707862854,156.84368419647217,156.84707498550415,156.8618221282959,157.00938034057617,157.00938034057617,157.00938034057617,157.00938034057617,157.00938034057617,157.00938034057617,157.00938034057617,161.4169192314148,3,4.550210952758789,None,,,,,,,,,,,,,,,,,,125,4,2025-02-26_11h25.40.098,comp,2024.2.4,57.75432644113727,2025-02-26 11h26.14.613639 -0500,
12,12,0,catch,None,None,None,None,None,None,None,None,None,None,2,0.9537930488586426,None,,,,,0,0,0,0,0,12,12,126,161.4348282814026,,,,,,,,,,,,,,,,,,,,,,,,,,,,,,,,,,,,,,,,,,,,,,,,,,,,,,,,,,,,,,,,,,,,,,,,,,,,,,,,,,67,123,174,151,106,84,1.0,1.2,-233,-11,0,7,214,-6,161.41887140274048,161.41895627975464,161.42185044288635,161.4348282814026,161.57997584342957,161.57997584342957,161.57997584342957,161.57997584342957,161.57997584342957,161.57997584342957,161.57997584342957,162.3969600200653,2,0.9537930488586426,None,,,,,,,,,,,,,,,,,,125,4,2025-02-26_11h25.40.098,comp,2024.2.4,57.75432644113727,2025-02-26 11h26.14.613639 -0500,
13,13,0,filler_square,None,None,None,None,None,None,None,None,None,None,3,1.22648286819458,None,,,,,0,0,0,0,0,13,13,197,162.41827630996704,,,,,,,,,,,,,,,,,,,,,,,,,,,,,,,,,,,,,,,,,,,,,,,,,,,,,,,,,,,,,,,,,,,,,,,,,,,,,,,,,,101.00250817419771,121.88623800021867,133.87864980637548,107.24445130827314,150.25966932032748,150.25966932032748,2.1,2.12,-211,-276,0,-256,225,258,162.39927172660828,162.39935398101807,162.40278363227844,162.41827630996704,162.5605480670929,162.5605480670929,162.5605480670929,162.5605480670929,162.5605480670929,162.5605480670929,162.5605480670929,163.65244150161743,3,1.22648286819458,None,,,,,,,,,,,,,,,,,,125,4,2025-02-26_11h25.40.098,comp,2024.2.4,57.75432644113727,2025-02-26 11h26.14.613639 -0500,
14,14,0,filler_square,None,None,None,None,None,None,None,None,None,None,3,4.792610168457031,None,,,,,0,0,0,0,0,14,14,188,163.66830801963806,,,,,,,,,,,,,,,,,,,,,,,,,,,,,,,,,,,,,,,,,,,,,,,,,,,,,,,,,,,,,,,,,,,,,,,,,,,,,,,,,,63.32423110604514,63.32423110604514,58.88254631807337,60.26744300344133,62.954604228004534,61.38527102028479,3.0,3.2,-158,-279,0,-16,157,276,163.65429663658142,163.65438175201416,163.65732741355896,163.66830801963806,163.8110909461975,163.8110909461975,163.8110909461975,163.8110909461975,163.8110909461975,163.8110909461975,163.8110909461975,168.4634289741516,3,4.792610168457031,None,,,,,,,,,,,,,,,,,,125,4,2025-02-26_11h25.40.098,comp,2024.2.4,57.75432644113727,2025-02-26 11h26.14.613639 -0500,
15,15,0,critical,dwh,20.0,2.1,upper,141.0,141.0,125.0,200.0,200.0,125.0,2,2.7960922718048096,None,,,,,0,0,0,0,0,15,15,7,168.48079895973206,,,,,,,,,,,,,,,,,,,,,,,,,,,,,,,,,,,,,,,,,,,,,,,,,,,,,,,,,,,,,,,,,,,,,,,,,,,,,,,,,,141.0,141.0,125.0,200.0,200.0,125.0,2.1,2.11,-266,265,0,282,258,-285,168.4651584625244,168.46526741981506,168.4689018726349,168.48079895973206,168.63700032234192,168.63700032234192,168.63700032234192,168.63700032234192,168.63700032234192,168.63700032234192,168.63700032234192,171.28184533119202,2,2.7960922718048096,None,,,,,,,,,,,,,,,,,,125,4,2025-02-26_11h25.40.098,comp,2024.2.4,57.75432644113727,2025-02-26 11h26.14.613639 -0500,
16,16,0,critical,dhw,35.0,4.0,lower,70.0,70.0,133.0,57.0,57.0,133.0,3,2.1053149700164795,None,,,,,0,0,0,0,0,16,16,52,171.29864621162415,,,,,,,,,,,,,,,,,,,,,,,,,,,,,,,,,,,,,,,,,,,,,,,,,,,,,,,,,,,,,,,,,,,,,,,,,,,,,,,,,,70.0,70.0,133.0,57.0,57.0,133.0,4.0,4.2,-160,4,0,-251,191,12,171.2835762500763,171.28368186950684,171.28751373291016,171.29864621162415,171.43973016738892,171.43973016738892,171.43973016738892,171.43973016738892,171.43973016738892,171.43973016738892,171.43973016738892,173.4151611328125,3,2.1053149700164795,None,,,,,,,,,,,,,,,,,,125,4,2025-02-26_11h25.40.098,comp,2024.2.4,57.75432644113727,2025-02-26 11h26.14.613639 -0500,
17,17,0,critical,dwh,35.0,2.1,lower,70.0,70.0,57.0,133.0,133.0,57.0,2,2.604316234588623,None,,,,,0,0,0,0,0,17,17,28,173.43149614334106,,,,,,,,,,,,,,,,,,,,,,,,,,,,,,,,,,,,,,,,,,,,,,,,,,,,,,,,,,,,,,,,,,,,,,,,,,,,,,,,,,70.0,70.0,57.0,133.0,133.0,57.0,2.1,2.12,-198,-254,0,-252,191,268,173.41680359840393,173.4169306755066,173.42039465904236,173.43149614334106,173.5810661315918,173.5810661315918,173.5810661315918,173.5810661315918,173.5810661315918,173.5810661315918,173.5810661315918,176.0537371635437,2,2.604316234588623,None,,,,,,,,,,,,,,,,,,125,4,2025-02-26_11h25.40.098,comp,2024.2.4,57.75432644113727,2025-02-26 11h26.14.613639 -0500,
18,18,0,critical,whd,20.0,2.1,upper,125.0,200.0,200.0,125.0,141.0,141.0,2,8.98294186592102,None,,,,,0,0,0,0,0,18,18,39,176.0690040588379,,,,,,,,,,,,,,,,,,,,,,,,,,,,,,,,,,,,,,,,,,,,,,,,,,,,,,,,,,,,,,,,,,,,,,,,,,,,,,,,,,125.0,200.0,200.0,125.0,141.0,141.0,2.1,2.11,-258,281,0,273,229,-288,176.0553162097931,176.05539655685425,176.0586452484131,176.0690040588379,176.216304063797,176.216304063797,176.216304063797,176.216304063797,176.216304063797,176.216304063797,176.216304063797,185.05478024482727,2,8.98294186592102,None,,,,,,,,,,,,,,,,,,125,4,2025-02-26_11h25.40.098,comp,2024.2.4,57.75432644113727,2025-02-26 11h26.14.613639 -0500,
19,19,0,critical,hdw,35.0,2.1,upper,200.0,125.0,127.0,127.0,125.0,200.0,3,1.9417204856872559,None,,,,,0,0,0,0,0,19,19,45,185.07100439071655,,,,,,,,,,,,,,,,,,,,,,,,,,,,,,,,,,,,,,,,,,,,,,,,,,,,,,,,,,,,,,,,,,,,,,,,,,,,,,,,,,200.0,125.0,127.0,127.0,125.0,200.0,2.1,2.12,-222,-261,0,-252,260,273,185.05630683898926,185.0564088821411,185.06014680862427,185.07100439071655,185.21794247627258,185.21794247627258,185.21794247627258,185.21794247627258,185.21794247627258,185.21794247627258,185.21794247627258,187.01715874671936,3,1.9417204856872559,None,,,,,,,,,,,,,,,,,,125,4,2025-02-26_11h25.40.098,comp,2024.2.4,57.75432644113727,2025-02-26 11h26.14.613639 -0500,
20,20,0,filler_square,None,None,None,None,None,None,None,None,None,None,2,1.6183581352233887,None,,,,,0,0,0,0,0,20,20,181,187.03355288505554,,,,,,,,,,,,,,,,,,,,,,,,,,,,,,,,,,,,,,,,,,,,,,,,,,,,,,,,,,,,,,,,,,,,,,,,,,,,,,,,,,68.60674617841453,70.36545808273489,72.7999677744696,72.7999677744696,63.187684117852434,58.83767202299137,2.1,2.12,-168,-273,0,-283,162,251,187.01910209655762,187.0191843509674,187.0224003791809,187.03355288505554,187.1843068599701,187.1843068599701,187.1843068599701,187.1843068599701,187.1843068599701,187.1843068599701,187.1843068599701,188.6700141429901,2,1.6183581352233887,None,,,,,,,,,,,,,,,,,,125,4,2025-02-26_11h25.40.098,comp,2024.2.4,57.75432644113727,2025-02-26 11h26.14.613639 -0500,
21,21,0,critical,hwd,20.0,2.1,lower,133.0,57.0,57.0,133.0,78.0,78.0,2,4.342137813568115,None,,,,,0,0,0,0,0,21,21,18,188.68569207191467,,,,,,,,,,,,,,,,,,,,,,,,,,,,,,,,,,,,,,,,,,,,,,,,,,,,,,,,,,,,,,,,,,,,,,,,,,,,,,,,,,133.0,57.0,57.0,133.0,78.0,78.0,2.1,2.11,-191,255,0,284,202,-267,188.67162156105042,188.6717095375061,188.67525839805603,188.68569207191467,188.8372654914856,188.8372654914856,188.8372654914856,188.8372654914856,188.8372654914856,188.8372654914856,188.8372654914856,193.0398736000061,2,4.342137813568115,None,,,,,,,,,,,,,,,,,,125,4,2025-02-26_11h25.40.098,comp,2024.2.4,57.75432644113727,2025-02-26 11h26.14.613639 -0500,
22,22,0,critical,dhw,20.0,3.0,upper,141.0,141.0,200.0,125.0,125.0,200.0,3,1.796654462814331,None,,,,,0,0,0,0,0,22,22,57,193.05610489845276,,,,,,,,,,,,,,,,,,,,,,,,,,,,,,,,,,,,,,,,,,,,,,,,,,,,,,,,,,,,,,,,,,,,,,,,,,,,,,,,,,141.0,141.0,200.0,125.0,125.0,200.0,3.0,3.1,-229,273,0,-4,258,-282,193.04166340827942,193.0417778491974,193.04508781433105,193.05610489845276,193.2038996219635,193.2038996219635,193.2038996219635,193.2038996219635,193.2038996219635,193.2038996219635,193.2038996219635,194.85491514205933,3,1.796654462814331,None,,,,,,,,,,,,,,,,,,125,4,2025-02-26_11h25.40.098,comp,2024.2.4,57.75432644113727,2025-02-26 11h26.14.613639 -0500,
23,23,0,filler_random,None,None,None,None,None,None,None,None,None,None,3,3.0769317150115967,None,,,,,0,0,0,0,0,23,23,135,194.8718593120575,,,,,,,,,,,,,,,,,,,,,,,,,,,,,,,,,,,,,,,,,,,,,,,,,,,,,,,,,,,,,,,,,,,,,,,,,,,,,,,,,,96.02109777385738,82.00281979017863,97.4300994898686,64.29672416511706,181.8375404326665,67.37213426174885,2.2,2.22,-169,265,0,-275,162,-253,194.8568902015686,194.85698318481445,194.8608169555664,194.8718593120575,195.02123045921326,195.02123045921326,195.02123045921326,195.02123045921326,195.02123045921326,195.02123045921326,195.02123045921326,197.95336723327637,3,3.0769317150115967,None,,,,,,,,,,,,,,,,,,125,4,2025-02-26_11h25.40.098,comp,2024.2.4,57.75432644113727,2025-02-26 11h26.14.613639 -0500,
24,24,0,critical,whd,35.0,4.0,upper,125.0,200.0,200.0,125.0,127.0,127.0,2,3.09415864944458,None,,,,,0,0,0,0,0,24,24,89,197.97420167922974,,,,,,,,,,,,,,,,,,,,,,,,,,,,,,,,,,,,,,,,,,,,,,,,,,,,,,,,,,,,,,,,,,,,,,,,,,,,,,,,,,125.0,200.0,200.0,125.0,127.0,127.0,4.0,4.2,-258,-16,0,-267,222,-14,197.95496726036072,197.9550428390503,197.95839881896973,197.97420167922974,198.1061146259308,198.1061146259308,198.1061146259308,198.1061146259308,198.1061146259308,198.1061146259308,198.1061146259308,201.07202243804932,2,3.09415864944458,None,,,,,,,,,,,,,,,,,,125,4,2025-02-26_11h25.40.098,comp,2024.2.4,57.75432644113727,2025-02-26 11h26.14.613639 -0500,
25,25,0,critical,whd,20.0,1.0,lower,57.0,133.0,133.0,57.0,78.0,78.0,2,6.441241264343262,None,,,,,0,0,0,0,0,25,25,90,201.09075546264648,,,,,,,,,,,,,,,,,,,,,,,,,,,,,,,,,,,,,,,,,,,,,,,,,,,,,,,,,,,,,,,,,,,,,,,,,,,,,,,,,,57.0,133.0,133.0,57.0,78.0,78.0,1.0,1.1,-671,265,-480,286,-316,270,201.07375860214233,201.07383942604065,201.07728481292725,201.09075546264648,201.24038577079773,201.24038577079773,201.24038577079773,201.24038577079773,201.24038577079773,201.24038577079773,201.24038577079773,207.5492033958435,2,6.441241264343262,None,,,,,,,,,,,,,,,,,,125,4,2025-02-26_11h25.40.098,comp,2024.2.4,57.75432644113727,2025-02-26 11h26.14.613639 -0500,
26,26,0,critical,whd,35.0,1.0,lower,57.0,133.0,133.0,57.0,70.0,70.0,2,1.4601566791534424,None,,,,,0,0,0,0,0,26,26,84,207.5678744316101,,,,,,,,,,,,,,,,,,,,,,,,,,,,,,,,,,,,,,,,,,,,,,,,,,,,,,,,,,,,,,,,,,,,,,,,,,,,,,,,,,57.0,133.0,133.0,57.0,70.0,70.0,1.0,1.1,-671,261,-480,262,-320,268,207.55075120925903,207.55082941055298,207.55376482009888,207.5678744316101,207.7089490890503,207.7089490890503,207.7089490890503,207.7089490890503,207.7089490890503,207.7089490890503,207.7089490890503,209.04182744026184,2,1.4601566791534424,None,,,,,,,,,,,,,,,,,,125,4,2025-02-26_11h25.40.098,comp,2024.2.4,57.75432644113727,2025-02-26 11h26.14.613639 -0500,
27,27,0,critical,dhw,20.0,2.1,upper,141.0,141.0,200.0,125.0,125.0,200.0,3,2.7460834980010986,None,,,,,0,0,0,0,0,27,27,27,209.05784058570862,,,,,,,,,,,,,,,,,,,,,,,,,,,,,,,,,,,,,,,,,,,,,,,,,,,,,,,,,,,,,,,,,,,,,,,,,,,,,,,,,,141.0,141.0,200.0,125.0,125.0,200.0,2.1,2.11,-229,257,0,282,258,-289,209.0433566570282,209.0434353351593,209.04661202430725,209.05784058570862,209.21640181541443,209.21640181541443,209.21640181541443,209.21640181541443,209.21640181541443,209.21640181541443,209.21640181541443,211.82087516784668,3,2.7460834980010986,None,,,,,,,,,,,,,,,,,,125,4,2025-02-26_11h25.40.098,comp,2024.2.4,57.75432644113727,2025-02-26 11h26.14.613639 -0500,
28,28,0,critical,dhw,35.0,1.0,upper,127.0,127.0,200.0,125.0,125.0,200.0,3,6.491240739822388,None,,,,,0,0,0,0,0,28,28,49,211.84066033363342,,,,,,,,,,,,,,,,,,,,,,,,,,,,,,,,,,,,,,,,,,,,,,,,,,,,,,,,,,,,,,,,,,,,,,,,,,,,,,,,,,127.0,127.0,200.0,125.0,125.0,200.0,1.0,1.2,-222,-3,0,2,258,3,211.82236623764038,211.8224470615387,211.8253879547119,211.84066033363342,211.9767622947693,211.9767622947693,211.9767622947693,211.9767622947693,211.9767622947693,211.9767622947693,211.9767622947693,218.34514927864075,3,6.491240739822388,None,,,,,,,,,,,,,,,,,,125,4,2025-02-26_11h25.40.098,comp,2024.2.4,57.75432644113727,2025-02-26 11h26.14.613639 -0500,
29,29,0,critical,dwh,20.0,3.0,upper,141.0,141.0,125.0,200.0,200.0,125.0,2,1.5391554832458496,None,,,,,0,0,0,0,0,29,29,69,218.36223936080933,,,,,,,,,,,,,,,,,,,,,,,,,,,,,,,,,,,,,,,,,,,,,,,,,,,,,,,,,,,,,,,,,,,,,,,,,,,,,,,,,,141.0,141.0,125.0,200.0,200.0,125.0,3.0,3.2,-266,-255,0,-4,258,256,218.34686708450317,218.34697222709656,218.35092115402222,218.36223936080933,218.5104410648346,218.5104410648346,218.5104410648346,218.5104410648346,218.5104410648346,218.5104410648346,218.5104410648346,219.91271352767944,2,1.5391554832458496,None,,,,,,,,,,,,,,,,,,125,4,2025-02-26_11h25.40.098,comp,2024.2.4,57.75432644113727,2025-02-26 11h26.14.613639 -0500,
30,30,0,critical,whd,35.0,3.0,lower,57.0,133.0,133.0,57.0,70.0,70.0,1,5.307857513427734,None,,,,,0,0,0,0,0,30,30,86,219.92899680137634,,,,,,,,,,,,,,,,,,,,,,,,,,,,,,,,,,,,,,,,,,,,,,,,,,,,,,,,,,,,,,,,,,,,,,,,,,,,,,,,,,57.0,133.0,133.0,57.0,70.0,70.0,3.0,3.2,-191,-272,0,-16,160,279,219.91421842575073,219.91429829597473,219.9178590774536,219.92899680137634,220.08466863632202,220.08466863632202,220.08466863632202,220.08466863632202,220.08466863632202,220.08466863632202,220.08466863632202,225.240403175354,1,5.307857513427734,None,,,,,,,,,,,,,,,,,,125,4,2025-02-26_11h25.40.098,comp,2024.2.4,57.75432644113727,2025-02-26 11h26.14.613639 -0500,
31,31,0,critical,whd,20.0,3.0,upper,125.0,200.0,200.0,125.0,141.0,141.0,1,4.051814794540405,None,,,,,0,0,0,0,0,31,31,93,225.25621724128723,,,,,,,,,,,,,,,,,,,,,,,,,,,,,,,,,,,,,,,,,,,,,,,,,,,,,,,,,,,,,,,,,,,,,,,,,,,,,,,,,,125.0,200.0,200.0,125.0,141.0,141.0,3.0,3.1,-258,289,0,-4,229,-257,225.24198412895203,225.2420632839203,225.24496054649353,225.25621724128723,225.39703965187073,225.39703965187073,225.39703965187073,225.39703965187073,225.39703965187073,225.39703965187073,225.39703965187073,229.32306456565857,1,4.051814794540405,None,,,,,,,,,,,,,,,,,,125,4,2025-02-26_11h25.40.098,comp,2024.2.4,57.75432644113727,2025-02-26 11h26.14.613639 -0500,
32,32,0,critical,hdw,20.0,3.0,lower,133.0,57.0,78.0,78.0,57.0,133.0,3,3.585797071456909,None,,,,,0,0,0,0,0,32,32,116,229.33821773529053,,,,,,,,,,,,,,,,,,,,,,,,,,,,,,,,,,,,,,,,,,,,,,,,,,,,,,,,,,,,,,,,,,,,,,,,,,,,,,,,,,133.0,57.0,78.0,78.0,57.0,133.0,3.0,3.1,-164,266,0,-3,202,-269,229.32460975646973,229.32469296455383,229.32759141921997,229.33821773529053,229.4880347251892,229.4880347251892,229.4880347251892,229.4880347251892,229.4880347251892,229.4880347251892,229.4880347251892,232.9418818950653,3,3.585797071456909,None,,,,,,,,,,,,,,,,,,125,4,2025-02-26_11h25.40.098,comp,2024.2.4,57.75432644113727,2025-02-26 11h26.14.613639 -0500,
33,33,0,critical,hdw,20.0,2.1,lower,133.0,57.0,78.0,78.0,57.0,133.0,3,3.5661544799804688,None,,,,,0,0,0,0,0,33,33,46,232.95903182029724,,,,,,,,,,,,,,,,,,,,,,,,,,,,,,,,,,,,,,,,,,,,,,,,,,,,,,,,,,,,,,,,,,,,,,,,,,,,,,,,,,133.0,57.0,78.0,78.0,57.0,133.0,2.1,2.11,-164,268,0,255,202,-253,232.94341254234314,232.94349336624146,232.94641709327698,232.95903182029724,233.1021695137024,233.1021695137024,233.1021695137024,233.1021695137024,233.1021695137024,233.1021695137024,233.1021695137024,236.5363895893097,3,3.5661544799804688,None,,,,,,,,,,,,,,,,,,125,4,2025-02-26_11h25.40.098,comp,2024.2.4,57.75432644113727,2025-02-26 11h26.14.613639 -0500,
34,34,0,critical,dhw,20.0,2.1,upper,141.0,141.0,200.0,125.0,125.0,200.0,3,1.6184539794921875,None,,,,,0,0,0,0,0,34,34,3,236.55349826812744,,,,,,,,,,,,,,,,,,,,,,,,,,,,,,,,,,,,,,,,,,,,,,,,,,,,,,,,,,,,,,,,,,,,,,,,,,,,,,,,,,141.0,141.0,200.0,125.0,125.0,200.0,2.1,2.12,-229,-260,0,-264,258,278,236.53805589675903,236.5381908416748,236.54161667823792,236.55349826812744,236.70345163345337,236.70345163345337,236.70345163345337,236.70345163345337,236.70345163345337,236.70345163345337,236.70345163345337,238.18508172035217,3,1.6184539794921875,None,,,,,,,,,,,,,,,,,,125,4,2025-02-26_11h25.40.098,comp,2024.2.4,57.75432644113727,2025-02-26 11h26.14.613639 -0500,
35,35,0,filler_square,None,None,None,None,None,None,None,None,None,None,1,1.7834393978118896,None,,,,,0,0,0,0,0,35,35,179,238.20475268363953,,,,,,,,,,,,,,,,,,,,,,,,,,,,,,,,,,,,,,,,,,,,,,,,,,,,,,,,,,,,,,,,,,,,,,,,,,,,,,,,,,171.23948198213628,171.23948198213628,87.63280925343933,82.15589885897353,111.1823301138227,132.27765879088662,2.1,2.11,-223,282,0,287,203,-263,238.1867983341217,238.1868770122528,238.19015312194824,238.20475268363953,238.35570621490479,238.35570621490479,238.35570621490479,238.35570621490479,238.35570621490479,238.35570621490479,238.35570621490479,239.99136590957642,1,1.7834393978118896,None,,,,,,,,,,,,,,,,,,125,4,2025-02-26_11h25.40.098,comp,2024.2.4,57.75432644113727,2025-02-26 11h26.14.613639 -0500,
36,36,0,critical,hwd,35.0,4.0,lower,133.0,57.0,57.0,133.0,70.0,70.0,2,2.912172317504883,None,,,,,0,0,0,0,0,36,36,100,240.0120141506195,,,,,,,,,,,,,,,,,,,,,,,,,,,,,,,,,,,,,,,,,,,,,,,,,,,,,,,,,,,,,,,,,,,,,,,,,,,,,,,,,,133.0,57.0,57.0,133.0,70.0,70.0,4.0,4.2,-191,14,0,-270,198,4,239.9930078983307,239.99308800697327,239.99644565582275,240.0120141506195,240.15225672721863,240.15225672721863,240.15225672721863,240.15225672721863,240.15225672721863,240.15225672721863,240.15225672721863,242.93501591682434,2,2.912172317504883,None,,,,,,,,,,,,,,,,,,125,4,2025-02-26_11h25.40.098,comp,2024.2.4,57.75432644113727,2025-02-26 11h26.14.613639 -0500,
37,37,0,filler_square,None,None,None,None,None,None,None,None,None,None,3,1.3601171970367432,None,,,,,0,0,0,0,0,37,37,173,242.9508101940155,,,,,,,,,,,,,,,,,,,,,,,,,,,,,,,,,,,,,,,,,,,,,,,,,,,,,,,,,,,,,,,,,,,,,,,,,,,,,,,,,,158.2661627134853,113.7852397468393,68.50077225663418,89.1506214273271,166.93337694249163,166.93337694249163,1.0,1.2,-197,-10,0,-5,224,-1,242.93677616119385,242.9368588924408,242.9398684501648,242.9508101940155,243.1015920639038,243.1015920639038,243.1015920639038,243.1015920639038,243.1015920639038,243.1015920639038,243.1015920639038,244.3210747241974,3,1.3601171970367432,None,,,,,,,,,,,,,,,,,,125,4,2025-02-26_11h25.40.098,comp,2024.2.4,57.75432644113727,2025-02-26 11h26.14.613639 -0500,
38,38,0,filler_square,None,None,None,None,None,None,None,None,None,None,2,1.2500364780426025,None,,,,,0,0,0,0,0,38,38,194,244.33809781074524,,,,,,,,,,,,,,,,,,,,,,,,,,,,,,,,,,,,,,,,,,,,,,,,,,,,,,,,,,,,,,,,,,,,,,,,,,,,,,,,,,131.222259879711,168.0199769538945,171.70789708294626,171.70789708294626,100.58675960731048,167.1438564302389,2.2,2.22,-266,275,0,-261,265,-257,244.32305216789246,244.3231384754181,244.32672905921936,244.33809781074524,244.48513865470886,244.48513865470886,244.48513865470886,244.48513865470886,244.48513865470886,244.48513865470886,244.48513865470886,245.59345817565918,2,1.2500364780426025,None,,,,,,,,,,,,,,,,,,125,4,2025-02-26_11h25.40.098,comp,2024.2.4,57.75432644113727,2025-02-26 11h26.14.613639 -0500,
39,39,0,critical,hdw,20.0,4.0,lower,133.0,57.0,78.0,78.0,57.0,133.0,3,1.7736797332763672,None,,,,,0,0,0,0,0,39,39,118,245.6143946647644,,,,,,,,,,,,,,,,,,,,,,,,,,,,,,,,,,,,,,,,,,,,,,,,,,,,,,,,,,,,,,,,,,,,,,,,,,,,,,,,,,133.0,57.0,78.0,78.0,57.0,133.0,4.0,4.1,-164,-285,0,-14,202,-261,245.5951120853424,245.5952341556549,245.59861612319946,245.6143946647644,245.7532663345337,245.7532663345337,245.7532663345337,245.7532663345337,245.7532663345337,245.7532663345337,245.7532663345337,247.39228057861328,3,1.7736797332763672,None,,,,,,,,,,,,,,,,,,125,4,2025-02-26_11h25.40.098,comp,2024.2.4,57.75432644113727,2025-02-26 11h26.14.613639 -0500,
40,40,0,filler_square,None,None,None,None,None,None,None,None,None,None,2,1.3282172679901123,None,,,,,0,0,0,0,0,40,40,200,247.4126570224762,,,,,,,,,,,,,,,,,,,,,,,,,,,,,,,,,,,,,,,,,,,,,,,,,,,,,,,,,,,,,,,,,,,,,,,,,,,,,,,,,,136.25760664189482,145.83941814767877,153.4455982344685,153.4455982344685,126.69686008314856,72.37666901248622,4.0,4.1,-246,-283,0,19,209,-273,247.39401936531067,247.39409565925598,247.39693522453308,247.4126570224762,247.5539345741272,247.5539345741272,247.5539345741272,247.5539345741272,247.5539345741272,247.5539345741272,247.5539345741272,248.75164461135864,2,1.3282172679901123,None,,,,,,,,,,,,,,,,,,125,4,2025-02-26_11h25.40.098,comp,2024.2.4,57.75432644113727,2025-02-26 11h26.14.613639 -0500,
41,41,0,critical,hdw,35.0,2.1,lower,133.0,57.0,70.0,70.0,57.0,133.0,3,2.2570366859436035,None,,,,,0,0,0,0,0,41,41,20,248.7720205783844,,,,,,,,,,,,,,,,,,,,,,,,,,,,,,,,,,,,,,,,,,,,,,,,,,,,,,,,,,,,,,,,,,,,,,,,,,,,,,,,,,133.0,57.0,70.0,70.0,57.0,133.0,2.1,2.11,-160,267,0,252,198,-284,248.75315928459167,248.75323677062988,248.7561707496643,248.7720205783844,248.90593075752258,248.90593075752258,248.90593075752258,248.90593075752258,248.90593075752258,248.90593075752258,248.90593075752258,251.03893852233887,3,2.2570366859436035,None,,,,,,,,,,,,,,,,,,125,4,2025-02-26_11h25.40.098,comp,2024.2.4,57.75432644113727,2025-02-26 11h26.14.613639 -0500,
42,42,0,critical,hwd,35.0,1.0,upper,200.0,125.0,125.0,200.0,127.0,127.0,2,1.906231164932251,None,,,,,0,0,0,0,0,42,42,97,251.05783224105835,,,,,,,,,,,,,,,,,,,,,,,,,,,,,,,,,,,,,,,,,,,,,,,,,,,,,,,,,,,,,,,,,,,,,,,,,,,,,,,,,,200.0,125.0,125.0,200.0,127.0,127.0,1.0,1.2,-258,10,0,-11,260,15,251.0405068397522,251.04061126708984,251.0437319278717,251.05783224105835,251.20513558387756,251.20513558387756,251.20513558387756,251.20513558387756,251.20513558387756,251.20513558387756,251.20513558387756,252.97808408737183,2,1.906231164932251,None,,,,,,,,,,,,,,,,,,125,4,2025-02-26_11h25.40.098,comp,2024.2.4,57.75432644113727,2025-02-26 11h26.14.613639 -0500,
43,43,0,critical,whd,35.0,1.0,upper,125.0,200.0,200.0,125.0,127.0,127.0,1,1.6217718124389648,None,,,,,0,0,0,0,0,43,43,85,252.99836325645447,,,,,,,,,,,,,,,,,,,,,,,,,,,,,,,,,,,,,,,,,,,,,,,,,,,,,,,,,,,,,,,,,,,,,,,,,,,,,,,,,,125.0,200.0,200.0,125.0,127.0,127.0,1.0,1.2,-258,-10,0,20,222,4,252.9796290397644,252.97971081733704,252.98257303237915,252.99836325645447,253.14205741882324,253.14205741882324,253.14205741882324,253.14205741882324,253.14205741882324,253.14205741882324,253.14205741882324,254.63927817344666,1,1.6217718124389648,None,,,,,,,,,,,,,,,,,,125,4,2025-02-26_11h25.40.098,comp,2024.2.4,57.75432644113727,2025-02-26 11h26.14.613639 -0500,
44,44,0,filler_square,None,None,None,None,None,None,None,None,None,None,3,1.4168496131896973,None,,,,,0,0,0,0,0,44,44,182,254.65926671028137,,,,,,,,,,,,,,,,,,,,,,,,,,,,,,,,,,,,,,,,,,,,,,,,,,,,,,,,,,,,,,,,,,,,,,,,,,,,,,,,,,137.7846978934786,62.26506481979739,151.14872653026123,109.8242791233473,153.64467174972484,153.64467174972484,4.0,4.2,-182,7,0,-274,228,15,254.6410768032074,254.64115524291992,254.6443328857422,254.65926671028137,254.80628061294556,254.80628061294556,254.80628061294556,254.80628061294556,254.80628061294556,254.80628061294556,254.80628061294556,256.09017968177795,3,1.4168496131896973,None,,,,,,,,,,,,,,,,,,125,4,2025-02-26_11h25.40.098,comp,2024.2.4,57.75432644113727,2025-02-26 11h26.14.613639 -0500,
45,45,0,critical,dwh,20.0,2.1,lower,78.0,78.0,57.0,133.0,133.0,57.0,2,2.2504920959472656,None,,,,,0,0,0,0,0,45,45,30,256.1063494682312,,,,,,,,,,,,,,,,,,,,,,,,,,,,,,,,,,,,,,,,,,,,,,,,,,,,,,,,,,,,,,,,,,,,,,,,,,,,,,,,,,78.0,78.0,57.0,133.0,133.0,57.0,2.1,2.12,-202,-267,0,-276,191,283,256.0917692184448,256.0918519496918,256.09595918655396,256.1063494682312,256.2613196372986,256.2613196372986,256.2613196372986,256.2613196372986,256.2613196372986,256.2613196372986,256.2613196372986,258.35998702049255,2,2.2504920959472656,None,,,,,,,,,,,,,,,,,,125,4,2025-02-26_11h25.40.098,comp,2024.2.4,57.75432644113727,2025-02-26 11h26.14.613639 -0500,
46,46,0,filler_random,None,None,None,None,None,None,None,None,None,None,2,1.6275978088378906,None,,,,,0,0,0,0,0,46,46,150,258.3772597312927,,,,,,,,,,,,,,,,,,,,,,,,,,,,,,,,,,,,,,,,,,,,,,,,,,,,,,,,,,,,,,,,,,,,,,,,,,,,,,,,,,165.04987689678097,114.34152774576987,156.0397411090281,154.3892902492464,137.97368765970128,128.07066093303737,1.0,1.3,250,-268,480,-288,717,-265,258.3619194030762,258.3620023727417,258.3658754825592,258.3772597312927,258.5245404243469,258.5245404243469,258.5245404243469,258.5245404243469,258.5245404243469,258.5245404243469,258.5245404243469,260.00962376594543,2,1.6275978088378906,None,,,,,,,,,,,,,,,,,,125,4,2025-02-26_11h25.40.098,comp,2024.2.4,57.75432644113727,2025-02-26 11h26.14.613639 -0500,
47,47,0,catch,None,None,None,None,None,None,None,None,None,None,3,0.9705643653869629,None,,,,,0,0,0,0,0,47,47,129,260.02543234825134,,,,,,,,,,,,,,,,,,,,,,,,,,,,,,,,,,,,,,,,,,,,,,,,,,,,,,,,,,,,,,,,,,,,,,,,,,,,,,,,,,112,78,70,120,166,159,4.0,4.1,-195,-289,0,-7,236,-272,260.01168942451477,260.01176929473877,260.01465010643005,260.02543234825134,260.1793715953827,260.1793715953827,260.1793715953827,260.1793715953827,260.1793715953827,260.1793715953827,260.1793715953827,261.0070741176605,3,0.9705643653869629,None,,,,,,,,,,,,,,,,,,125,4,2025-02-26_11h25.40.098,comp,2024.2.4,57.75432644113727,2025-02-26 11h26.14.613639 -0500,
48,48,0,filler_square,None,None,None,None,None,None,None,None,None,None,1,5.237441062927246,None,,,,,0,0,0,0,0,48,48,198,261.02277421951294,,,,,,,,,,,,,,,,,,,,,,,,,,,,,,,,,,,,,,,,,,,,,,,,,,,,,,,,,,,,,,,,,,,,,,,,,,,,,,,,,,79.6390046806427,79.6390046806427,61.21690481652782,77.3444941254703,72.93245308025956,76.9730745889474,2.1,2.12,-174,-276,0,-254,173,285,261.0089204311371,261.00899863243103,261.0120372772217,261.02277421951294,261.17900919914246,261.17900919914246,261.17900919914246,261.17900919914246,261.17900919914246,261.17900919914246,261.17900919914246,266.2761986255646,1,5.237441062927246,None,,,,,,,,,,,,,,,,,,125,4,2025-02-26_11h25.40.098,comp,2024.2.4,57.75432644113727,2025-02-26 11h26.14.613639 -0500,
49,49,0,critical,hwd,35.0,3.0,upper,200.0,125.0,125.0,200.0,127.0,127.0,2,3.0553715229034424,None,,,,,0,0,0,0,0,49,49,99,266.29259729385376,,,,,,,,,,,,,,,,,,,,,,,,,,,,,,,,,,,,,,,,,,,,,,,,,,,,,,,,,,,,,,,,,,,,,,,,,,,,,,,,,,200.0,125.0,125.0,200.0,127.0,127.0,3.0,3.2,-258,-284,0,-12,260,281,266.2778639793396,266.2779977321625,266.28127360343933,266.29259729385376,266.4426636695862,266.4426636695862,266.4426636695862,266.4426636695862,266.4426636695862,266.4426636695862,266.4426636695862,269.36294865608215,2,3.0553715229034424,None,,,,,,,,,,,,,,,,,,125,4,2025-02-26_11h25.40.098,comp,2024.2.4,57.75432644113727,2025-02-26 11h26.14.613639 -0500,
50,50,0,filler_random,None,None,None,None,None,None,None,None,None,None,1,1.5935935974121094,None,,,,,0,0,0,0,0,50,50,160,269.37855052948,,,,,,,,,,,,,,,,,,,,,,,,,,,,,,,,,,,,,,,,,,,,,,,,,,,,,,,,,,,,,,,,,,,,,,,,,,,,,,,,,,144.58662866044307,170.41065365694243,149.95132378631826,144.01726586160243,97.31314586299052,87.32776848901113,2.2,2.22,-253,278,0,-278,212,-272,269.3648362159729,269.3649196624756,269.36817383766174,269.37855052948,269.5236723423004,269.5236723423004,269.5236723423004,269.5236723423004,269.5236723423004,269.5236723423004,269.5236723423004,270.9846885204315,1,1.5935935974121094,None,,,,,,,,,,,,,,,,,,125,4,2025-02-26_11h25.40.098,comp,2024.2.4,57.75432644113727,2025-02-26 11h26.14.613639 -0500,
51,51,0,critical,wdh,20.0,1.0,lower,57.0,133.0,78.0,78.0,133.0,57.0,3,2.7405269145965576,None,,,,,0,0,0,0,0,51,51,78,271.0004689693451,,,,,,,,,,,,,,,,,,,,,,,,,,,,,,,,,,,,,,,,,,,,,,,,,,,,,,,,,,,,,,,,,,,,,,,,,,,,,,,,,,57.0,133.0,78.0,78.0,133.0,57.0,1.0,1.3,278,-257,480,-276,644,-253,270.98615550994873,270.98623394966125,270.9890921115875,271.0004689693451,271.14546060562134,271.14546060562134,271.14546060562134,271.14546060562134,271.14546060562134,271.14546060562134,271.14546060562134,273.7470021247864,3,2.7405269145965576,None,,,,,,,,,,,,,,,,,,125,4,2025-02-26_11h25.40.098,comp,2024.2.4,57.75432644113727,2025-02-26 11h26.14.613639 -0500,
52,52,0,filler_square,None,None,None,None,None,None,None,None,None,None,1,2.0944976806640625,None,,,,,0,0,0,0,0,52,52,196,273.7656772136688,,,,,,,,,,,,,,,,,,,,,,,,,,,,,,,,,,,,,,,,,,,,,,,,,,,,,,,,,,,,,,,,,,,,,,,,,,,,,,,,,,125.2615203677626,125.2615203677626,114.20826651743548,99.25558605482436,97.16997551734957,109.4532343452602,1.0,1.2,-208,2,0,-7,200,-6,273.7491407394409,273.7492232322693,273.7522339820862,273.7656772136688,273.9094204902649,273.9094204902649,273.9094204902649,273.9094204902649,273.9094204902649,273.9094204902649,273.9094204902649,275.86573481559753,1,2.0944976806640625,None,,,,,,,,,,,,,,,,,,125,4,2025-02-26_11h25.40.098,comp,2024.2.4,57.75432644113727,2025-02-26 11h26.14.613639 -0500,
53,53,0,critical,wdh,20.0,2.1,upper,125.0,200.0,141.0,141.0,200.0,125.0,1,12.054641962051392,None,,,,,0,0,0,0,0,53,53,11,275.8862180709839,,,,,,,,,,,,,,,,,,,,,,,,,,,,,,,,,,,,,,,,,,,,,,,,,,,,,,,,,,,,,,,,,,,,,,,,,,,,,,,,,,125.0,200.0,141.0,141.0,200.0,125.0,2.1,2.11,-266,252,0,263,229,-285,275.867374420166,275.8674557209015,275.8712000846863,275.8862180709839,276.0303599834442,276.0303599834442,276.0303599834442,276.0303599834442,276.0303599834442,276.0303599834442,276.0303599834442,287.949951171875,1,12.054641962051392,None,,,,,,,,,,,,,,,,,,125,4,2025-02-26_11h25.40.098,comp,2024.2.4,57.75432644113727,2025-02-26 11h26.14.613639 -0500,
54,54,0,critical,whd,35.0,2.1,lower,57.0,133.0,133.0,57.0,70.0,70.0,1,3.0968451499938965,None,,,,,0,0,0,0,0,54,54,12,287.97122502326965,,,,,,,,,,,,,,,,,,,,,,,,,,,,,,,,,,,,,,,,,,,,,,,,,,,,,,,,,,,,,,,,,,,,,,,,,,,,,,,,,,57.0,133.0,133.0,57.0,70.0,70.0,2.1,2.12,-191,-268,0,-257,160,251,287.951607465744,287.95174622535706,287.95513105392456,287.97122502326965,288.1163823604584,288.1163823604584,288.1163823604584,288.1163823604584,288.1163823604584,288.1163823604584,288.1163823604584,291.0863125324249,1,3.0968451499938965,None,,,,,,,,,,,,,,,,,,125,4,2025-02-26_11h25.40.098,comp,2024.2.4,57.75432644113727,2025-02-26 11h26.14.613639 -0500,
55,55,0,filler_random,None,None,None,None,None,None,None,None,None,None,3,1.3012056350708008,None,,,,,0,0,0,0,0,55,55,139,291.1036455631256,,,,,,,,,,,,,,,,,,,,,,,,,,,,,,,,,,,,,,,,,,,,,,,,,,,,,,,,,,,,,,,,,,,,,,,,,,,,,,,,,,120.71106666393024,80.43917454540869,161.14943847924582,125.16452099493995,123.2762455487045,158.76997004309624,3.0,3.2,-199,-262,0,0,238,278,291.08863520622253,291.0887815952301,291.0918173789978,291.1036455631256,291.25081062316895,291.25081062316895,291.25081062316895,291.25081062316895,291.25081062316895,291.25081062316895,291.25081062316895,292.4211800098419,3,1.3012056350708008,None,,,,,,,,,,,,,,,,,,125,4,2025-02-26_11h25.40.098,comp,2024.2.4,57.75432644113727,2025-02-26 11h26.14.613639 -0500,
56,56,0,filler_square,None,None,None,None,None,None,None,None,None,None,1,1.910339117050171,None,,,,,0,0,0,0,0,56,56,175,292.4378318786621,,,,,,,,,,,,,,,,,,,,,,,,,,,,,,,,,,,,,,,,,,,,,,,,,,,,,,,,,,,,,,,,,,,,,,,,,,,,,,,,,,72.53630118123525,72.53630118123525,61.20255403183584,64.98256413936518,63.50308360176735,62.482373829842615,3.0,3.1,-165,283,0,-16,160,-253,292.423624753952,292.4237117767334,292.42665815353394,292.4378318786621,292.5895848274231,292.5895848274231,292.5895848274231,292.5895848274231,292.5895848274231,292.5895848274231,292.5895848274231,294.353102684021,1,1.910339117050171,None,,,,,,,,,,,,,,,,,,125,4,2025-02-26_11h25.40.098,comp,2024.2.4,57.75432644113727,2025-02-26 11h26.14.613639 -0500,
57,57,0,critical,dhw,35.0,1.0,lower,70.0,70.0,133.0,57.0,57.0,133.0,3,2.698699951171875,None,,,,,0,0,0,0,0,57,57,48,294.3694016933441,,,,,,,,,,,,,,,,,,,,,,,,,,,,,,,,,,,,,,,,,,,,,,,,,,,,,,,,,,,,,,,,,,,,,,,,,,,,,,,,,,70.0,70.0,133.0,57.0,57.0,133.0,1.0,1.2,-160,11,0,-11,191,16,294.3547959327698,294.35493898391724,294.35837173461914,294.3694016933441,294.5171310901642,294.5171310901642,294.5171310901642,294.5171310901642,294.5171310901642,294.5171310901642,294.5171310901642,297.0707890987396,3,2.698699951171875,None,,,,,,,,,,,,,,,,,,125,4,2025-02-26_11h25.40.098,comp,2024.2.4,57.75432644113727,2025-02-26 11h26.14.613639 -0500,
58,58,0,filler_square,None,None,None,None,None,None,None,None,None,None,2,1.3257479667663574,None,,,,,0,0,0,0,0,58,58,208,297.0873508453369,,,,,,,,,,,,,,,,,,,,,,,,,,,,,,,,,,,,,,,,,,,,,,,,,,,,,,,,,,,,,,,,,,,,,,,,,,,,,,,,,,99.63785269307047,99.38633579849923,121.41020281201857,121.41020281201857,67.9906365846457,61.47497800985651,4.0,4.2,-206,1,0,-272,187,19,297.0727789402008,297.07291293144226,297.0763244628906,297.0873508453369,297.24617171287537,297.24617171287537,297.24617171287537,297.24617171287537,297.24617171287537,297.24617171287537,297.24617171287537,298.4181787967682,2,1.3257479667663574,None,,,,,,,,,,,,,,,,,,125,4,2025-02-26_11h25.40.098,comp,2024.2.4,57.75432644113727,2025-02-26 11h26.14.613639 -0500,
59,59,0,critical,whd,35.0,4.0,lower,57.0,133.0,133.0,57.0,70.0,70.0,2,2.730900764465332,None,,,,,0,0,0,0,0,59,59,88,298.4341640472412,,,,,,,,,,,,,,,,,,,,,,,,,,,,,,,,,,,,,,,,,,,,,,,,,,,,,,,,,,,,,,,,,,,,,,,,,,,,,,,,,,57.0,133.0,133.0,57.0,70.0,70.0,4.0,4.2,-191,9,0,-262,160,-8,298.419634103775,298.4197111129761,298.4225811958313,298.4341640472412,298.58800053596497,298.58800053596497,298.58800053596497,298.58800053596497,298.58800053596497,298.58800053596497,298.58800053596497,301.1700029373169,2,2.730900764465332,None,,,,,,,,,,,,,,,,,,125,4,2025-02-26_11h25.40.098,comp,2024.2.4,57.75432644113727,2025-02-26 11h26.14.613639 -0500,
60,60,0,critical,wdh,20.0,3.0,upper,125.0,200.0,141.0,141.0,200.0,125.0,1,2.3598053455352783,None,,,,,0,0,0,0,0,60,60,81,301.1887855529785,,,,,,,,,,,,,,,,,,,,,,,,,,,,,,,,,,,,,,,,,,,,,,,,,,,,,,,,,,,,,,,,,,,,,,,,,,,,,,,,,,125.0,200.0,141.0,141.0,200.0,125.0,3.0,3.1,-266,252,0,-16,229,-251,301.1716320514679,301.1717438697815,301.1753134727478,301.1887855529785,301.33855414390564,301.33855414390564,301.33855414390564,301.33855414390564,301.33855414390564,301.33855414390564,301.33855414390564,303.5571880340576,1,2.3598053455352783,None,,,,,,,,,,,,,,,,,,125,4,2025-02-26_11h25.40.098,comp,2024.2.4,57.75432644113727,2025-02-26 11h26.14.613639 -0500,
61,61,0,critical,wdh,20.0,2.1,upper,125.0,200.0,141.0,141.0,200.0,125.0,1,1.525954008102417,None,,,,,0,0,0,0,0,61,61,35,303.5741958618164,,,,,,,,,,,,,,,,,,,,,,,,,,,,,,,,,,,,,,,,,,,,,,,,,,,,,,,,,,,,,,,,,,,,,,,,,,,,,,,,,,125.0,200.0,141.0,141.0,200.0,125.0,2.1,2.11,-266,254,0,288,229,-251,303.5589048862457,303.5590486526489,303.56239080429077,303.5741958618164,303.72138810157776,303.72138810157776,303.72138810157776,303.72138810157776,303.72138810157776,303.72138810157776,303.72138810157776,305.11549186706543,1,1.525954008102417,None,,,,,,,,,,,,,,,,,,125,4,2025-02-26_11h25.40.098,comp,2024.2.4,57.75432644113727,2025-02-26 11h26.14.613639 -0500,
62,62,0,filler_random,None,None,None,None,None,None,None,None,None,None,1,1.5702729225158691,None,,,,,0,0,0,0,0,62,62,130,305.1306688785553,,,,,,,,,,,,,,,,,,,,,,,,,,,,,,,,,,,,,,,,,,,,,,,,,,,,,,,,,,,,,,,,,,,,,,,,,,,,,,,,,,192.59972728553305,192.91104401003787,116.29179080510796,122.41241777684151,111.57851772373608,141.86837248309195,3.0,3.2,-254,-261,0,11,228,288,305.11718249320984,305.1172602176666,305.120144367218,305.1306688785553,305.27273416519165,305.27273416519165,305.27273416519165,305.27273416519165,305.27273416519165,305.27273416519165,305.27273416519165,306.7062335014343,1,1.5702729225158691,None,,,,,,,,,,,,,,,,,,125,4,2025-02-26_11h25.40.098,comp,2024.2.4,57.75432644113727,2025-02-26 11h26.14.613639 -0500,
63,63,0,filler_random,None,None,None,None,None,None,None,None,None,None,1,3.426149368286133,None,,,,,0,0,0,0,0,63,63,133,306.7228949069977,,,,,,,,,,,,,,,,,,,,,,,,,,,,,,,,,,,,,,,,,,,,,,,,,,,,,,,,,,,,,,,,,,,,,,,,,,,,,,,,,,110.26791807552098,166.12749506207348,114.69946236890891,119.17373709665468,171.12944733507,97.82026147524259,1.0,1.2,-239,14,0,-2,204,0,306.7081334590912,306.70821499824524,306.711998462677,306.7228949069977,306.8733420372009,306.8733420372009,306.8733420372009,306.8733420372009,306.8733420372009,306.8733420372009,306.8733420372009,310.15771770477295,1,3.426149368286133,None,,,,,,,,,,,,,,,,,,125,4,2025-02-26_11h25.40.098,comp,2024.2.4,57.75432644113727,2025-02-26 11h26.14.613639 -0500,
64,64,0,critical,hdw,35.0,1.0,upper,200.0,125.0,127.0,127.0,125.0,200.0,3,2.095564365386963,None,,,,,0,0,0,0,0,64,64,109,310.1733589172363,,,,,,,,,,,,,,,,,,,,,,,,,,,,,,,,,,,,,,,,,,,,,,,,,,,,,,,,,,,,,,,,,,,,,,,,,,,,,,,,,,200.0,125.0,127.0,127.0,125.0,200.0,1.0,1.1,-702,255,-480,269,-220,274,310.15932631492615,310.1594069004059,310.16251015663147,310.1733589172363,310.32389283180237,310.32389283180237,310.32389283180237,310.32389283180237,310.32389283180237,310.32389283180237,310.32389283180237,312.2759099006653,3,2.095564365386963,None,,,,,,,,,,,,,,,,,,125,4,2025-02-26_11h25.40.098,comp,2024.2.4,57.75432644113727,2025-02-26 11h26.14.613639 -0500,
65,65,0,filler_square,None,None,None,None,None,None,None,None,None,None,1,1.4716808795928955,None,,,,,0,0,0,0,0,65,65,205,312.2925474643707,,,,,,,,,,,,,,,,,,,,,,,,,,,,,,,,,,,,,,,,,,,,,,,,,,,,,,,,,,,,,,,,,,,,,,,,,,,,,,,,,,186.74581870141677,186.74581870141677,111.8164664540178,93.38819389089943,89.73678062594445,166.82447379340618,1.0,1.3,244,-282,480,-288,706,-278,312.27814745903015,312.2782757282257,312.28160858154297,312.2925474643707,312.4391920566559,312.4391920566559,312.4391920566559,312.4391920566559,312.4391920566559,312.4391920566559,312.4391920566559,313.7780373096466,1,1.4716808795928955,None,,,,,,,,,,,,,,,,,,125,4,2025-02-26_11h25.40.098,comp,2024.2.4,57.75432644113727,2025-02-26 11h26.14.613639 -0500,
66,66,0,catch,None,None,None,None,None,None,None,None,None,None,1,1.177950382232666,None,,,,,0,0,0,0,0,66,66,125,313.79445147514343,,,,,,,,,,,,,,,,,,,,,,,,,,,,,,,,,,,,,,,,,,,,,,,,,,,,,,,,,,,,,,,,,,,,,,,,,,,,,,,,,,137,188,102,88,127,63,3.0,3.1,-234,286,0,12,172,-258,313.7804958820343,313.7806580066681,313.7836318016052,313.79445147514343,313.94292664527893,313.94292664527893,313.94292664527893,313.94292664527893,313.94292664527893,313.94292664527893,313.94292664527893,314.977112531662,1,1.177950382232666,None,,,,,,,,,,,,,,,,,,125,4,2025-02-26_11h25.40.098,comp,2024.2.4,57.75432644113727,2025-02-26 11h26.14.613639 -0500,
67,67,0,filler_random,None,None,None,None,None,None,None,None,None,None,3,1.7390899658203125,None,,,,,0,0,0,0,0,67,67,137,314.9929828643799,,,,,,,,,,,,,,,,,,,,,,,,,,,,,,,,,,,,,,,,,,,,,,,,,,,,,,,,,,,,,,,,,,,,,,,,,,,,,,,,,,135.060045219879,137.70898660495712,186.8015782617953,103.39130539054902,110.68339610834082,164.11195449126328,2.1,2.12,-217,-261,0,-289,230,272,314.97890639305115,314.9789881706238,314.98222947120667,314.9929828643799,315.1459012031555,315.1459012031555,315.1459012031555,315.1459012031555,315.1459012031555,315.1459012031555,315.1459012031555,316.74592638015747,3,1.7390899658203125,None,,,,,,,,,,,,,,,,,,125,4,2025-02-26_11h25.40.098,comp,2024.2.4,57.75432644113727,2025-02-26 11h26.14.613639 -0500,
68,68,0,catch,None,None,None,None,None,None,None,None,None,None,3,1.0801794528961182,None,,,,,0,0,0,0,0,68,68,120,316.7640426158905,,,,,,,,,,,,,,,,,,,,,,,,,,,,,,,,,,,,,,,,,,,,,,,,,,,,,,,,,,,,,,,,,,,,,,,,,,,,,,,,,,111,79,90,100,153,172,2.1,2.11,-186,265,0,268,232,-282,316.7481083869934,316.74818682670593,316.7515802383423,316.7640426158905,316.90955448150635,316.90955448150635,316.90955448150635,316.90955448150635,316.90955448150635,316.90955448150635,316.90955448150635,317.86058235168457,3,1.0801794528961182,None,,,,,,,,,,,,,,,,,,125,4,2025-02-26_11h25.40.098,comp,2024.2.4,57.75432644113727,2025-02-26 11h26.14.613639 -0500,
69,69,0,critical,dwh,20.0,3.0,lower,78.0,78.0,57.0,133.0,133.0,57.0,3,3.0755181312561035,None,,,,,0,0,0,0,0,69,69,68,317.88142108917236,,,,,,,,,,,,,,,,,,,,,,,,,,,,,,,,,,,,,,,,,,,,,,,,,,,,,,,,,,,,,,,,,,,,,,,,,,,,,,,,,,78.0,78.0,57.0,133.0,133.0,57.0,3.0,3.1,-202,268,0,3,191,-257,317.8620638847351,317.8621368408203,317.86518597602844,317.88142108917236,318.02599263191223,318.02599263191223,318.02599263191223,318.02599263191223,318.02599263191223,318.02599263191223,318.02599263191223,320.9608316421509,3,3.0755181312561035,None,,,,,,,,,,,,,,,,,,125,4,2025-02-26_11h25.40.098,comp,2024.2.4,57.75432644113727,2025-02-26 11h26.14.613639 -0500,
70,70,0,filler_square,None,None,None,None,None,None,None,None,None,None,2,1.9794814586639404,None,,,,,0,0,0,0,0,70,70,202,320.9777386188507,,,,,,,,,,,,,,,,,,,,,,,,,,,,,,,,,,,,,,,,,,,,,,,,,,,,,,,,,,,,,,,,,,,,,,,,,,,,,,,,,,111.10918778686275,111.10918778686275,109.38341947225939,110.03498967589135,98.29665628962545,67.07937420218654,4.0,4.2,-207,12,0,-250,185,17,320.96272683143616,320.9628119468689,320.966046333313,320.9777386188507,321.12512278556824,321.12512278556824,321.12512278556824,321.12512278556824,321.12512278556824,321.12512278556824,321.12512278556824,322.9654939174652,2,1.9794814586639404,None,,,,,,,,,,,,,,,,,,125,4,2025-02-26_11h25.40.098,comp,2024.2.4,57.75432644113727,2025-02-26 11h26.14.613639 -0500,
71,71,0,critical,hwd,35.0,2.1,upper,200.0,125.0,125.0,200.0,127.0,127.0,2,1.9895145893096924,None,,,,,0,0,0,0,0,71,71,41,322.9832754135132,,,,,,,,,,,,,,,,,,,,,,,,,,,,,,,,,,,,,,,,,,,,,,,,,,,,,,,,,,,,,,,,,,,,,,,,,,,,,,,,,,200.0,125.0,125.0,200.0,127.0,127.0,2.1,2.12,-258,-261,0,-268,260,288,322.96706795692444,322.967148065567,322.970059633255,322.9832754135132,323.1277825832367,323.1277825832367,323.1277825832367,323.1277825832367,323.1277825832367,323.1277825832367,323.1277825832367,324.9810106754303,2,1.9895145893096924,None,,,,,,,,,,,,,,,,,,125,4,2025-02-26_11h25.40.098,comp,2024.2.4,57.75432644113727,2025-02-26 11h26.14.613639 -0500,
72,72,0,critical,wdh,35.0,3.0,upper,125.0,200.0,127.0,127.0,200.0,125.0,1,2.334890127182007,None,,,,,0,0,0,0,0,72,72,75,324.9972333908081,,,,,,,,,,,,,,,,,,,,,,,,,,,,,,,,,,,,,,,,,,,,,,,,,,,,,,,,,,,,,,,,,,,,,,,,,,,,,,,,,,125.0,200.0,127.0,127.0,200.0,125.0,3.0,3.2,-260,-283,0,-6,222,286,324.982697725296,324.9828155040741,324.9862639904022,324.9972333908081,325.1450266838074,325.1450266838074,325.1450266838074,325.1450266838074,325.1450266838074,325.1450266838074,325.1450266838074,327.3341612815857,1,2.334890127182007,None,,,,,,,,,,,,,,,,,,125,4,2025-02-26_11h25.40.098,comp,2024.2.4,57.75432644113727,2025-02-26 11h26.14.613639 -0500,
73,73,0,filler_random,None,None,None,None,None,None,None,None,None,None,2,0.9340147972106934,None,,,,,0,0,0,0,0,73,73,144,327.35009002685547,,,,,,,,,,,,,,,,,,,,,,,,,,,,,,,,,,,,,,,,,,,,,,,,,,,,,,,,,,,,,,,,,,,,,,,,,,,,,,,,,,88.38789907726176,167.74072138121625,159.63725042032854,128.63738302193775,121.31553034611967,96.51911685321903,3.0,3.1,-244,266,0,-13,209,-259,327.3359808921814,327.3360652923584,327.3392333984375,327.35009002685547,327.4993269443512,327.4993269443512,327.4993269443512,327.4993269443512,327.4993269443512,327.4993269443512,327.4993269443512,328.2945194244385,2,0.9340147972106934,None,,,,,,,,,,,,,,,,,,125,4,2025-02-26_11h25.40.098,comp,2024.2.4,57.75432644113727,2025-02-26 11h26.14.613639 -0500,
74,74,0,filler_square,None,None,None,None,None,None,None,None,None,None,3,0.9892549514770508,None,,,,,0,0,0,0,0,74,74,178,328.3111934661865,,,,,,,,,,,,,,,,,,,,,,,,,,,,,,,,,,,,,,,,,,,,,,,,,,,,,,,,,,,,,,,,,,,,,,,,,,,,,,,,,,80.74619496584465,61.39768933680669,63.216463639836746,141.3791990818209,159.49625781713365,159.49625781713365,2.2,2.21,-197,-260,0,276,246,264,328.2963695526123,328.2964506149292,328.29949736595154,328.3111934661865,328.4504060745239,328.4504060745239,328.4504060745239,328.4504060745239,328.4504060745239,328.4504060745239,328.4504060745239,329.3063237667084,3,0.9892549514770508,None,,,,,,,,,,,,,,,,,,125,4,2025-02-26_11h25.40.098,comp,2024.2.4,57.75432644113727,2025-02-26 11h26.14.613639 -0500,
75,75,0,critical,whd,20.0,1.0,upper,125.0,200.0,200.0,125.0,141.0,141.0,2,2.0070221424102783,None,,,,,0,0,0,0,0,75,75,91,329.32506132125854,,,,,,,,,,,,,,,,,,,,,,,,,,,,,,,,,,,,,,,,,,,,,,,,,,,,,,,,,,,,,,,,,,,,,,,,,,,,,,,,,,125.0,200.0,200.0,125.0,141.0,141.0,1.0,1.2,-258,13,0,1,229,8,329.30778455734253,329.30785965919495,329.3106966018677,329.32506132125854,329.4633321762085,329.4633321762085,329.4633321762085,329.4633321762085,329.4633321762085,329.4633321762085,329.4633321762085,331.3456311225891,2,2.0070221424102783,None,,,,,,,,,,,,,,,,,,125,4,2025-02-26_11h25.40.098,comp,2024.2.4,57.75432644113727,2025-02-26 11h26.14.613639 -0500,
76,76,0,filler_square,None,None,None,None,None,None,None,None,None,None,3,1.0783812999725342,None,,,,,0,0,0,0,0,76,76,191,331.36582350730896,,,,,,,,,,,,,,,,,,,,,,,,,,,,,,,,,,,,,,,,,,,,,,,,,,,,,,,,,,,,,,,,,,,,,,,,,,,,,,,,,,60.99940956723043,76.59562494537622,61.111749061468124,77.13995074431946,125.66968503171317,125.66968503171317,3.0,3.2,-173,-256,0,-14,197,264,331.3474464416504,331.34752774238586,331.3506464958191,331.36582350730896,331.49912905693054,331.49912905693054,331.49912905693054,331.49912905693054,331.49912905693054,331.49912905693054,331.49912905693054,332.4568176269531,3,1.0783812999725342,None,,,,,,,,,,,,,,,,,,125,4,2025-02-26_11h25.40.098,comp,2024.2.4,57.75432644113727,2025-02-26 11h26.14.613639 -0500,
77,77,0,critical,whd,35.0,3.0,upper,125.0,200.0,200.0,125.0,127.0,127.0,2,1.160949945449829,None,,,,,0,0,0,0,0,77,77,87,332.4753942489624,,,,,,,,,,,,,,,,,,,,,,,,,,,,,,,,,,,,,,,,,,,,,,,,,,,,,,,,,,,,,,,,,,,,,,,,,,,,,,,,,,125.0,200.0,200.0,125.0,127.0,127.0,3.0,3.1,-258,262,0,-7,222,-267,332.45831823349,332.4583992958069,332.4613220691681,332.4753942489624,332.6126916408539,332.6126916408539,332.6126916408539,332.6126916408539,332.6126916408539,332.6126916408539,332.6126916408539,333.6484136581421,2,1.160949945449829,None,,,,,,,,,,,,,,,,,,125,4,2025-02-26_11h25.40.098,comp,2024.2.4,57.75432644113727,2025-02-26 11h26.14.613639 -0500,
78,78,0,filler_square,None,None,None,None,None,None,None,None,None,None,3,1.1570169925689697,None,,,,,0,0,0,0,0,78,78,201,333.66567730903625,,,,,,,,,,,,,,,,,,,,,,,,,,,,,,,,,,,,,,,,,,,,,,,,,,,,,,,,,,,,,,,,,,,,,,,,,,,,,,,,,,105.27311611239966,101.04401480719557,80.21225125628666,78.4916997647632,111.11400627790879,111.11400627790879,2.2,2.22,-186,279,0,-262,191,-267,333.65034317970276,333.65042304992676,333.6544005870819,333.66567730903625,333.81312012672424,333.81312012672424,333.81312012672424,333.81312012672424,333.81312012672424,333.81312012672424,333.81312012672424,334.83278799057007,3,1.1570169925689697,None,,,,,,,,,,,,,,,,,,125,4,2025-02-26_11h25.40.098,comp,2024.2.4,57.75432644113727,2025-02-26 11h26.14.613639 -0500,
79,79,0,critical,whd,35.0,2.1,lower,57.0,133.0,133.0,57.0,70.0,70.0,2,4.816560745239258,None,,,,,0,0,0,0,0,79,79,36,334.8515441417694,,,,,,,,,,,,,,,,,,,,,,,,,,,,,,,,,,,,,,,,,,,,,,,,,,,,,,,,,,,,,,,,,,,,,,,,,,,,,,,,,,57.0,133.0,133.0,57.0,70.0,70.0,2.1,2.12,-191,-281,0,-252,160,253,334.83446192741394,334.83463168144226,334.8381245136261,334.8515441417694,335.0008041858673,335.0008041858673,335.0008041858673,335.0008041858673,335.0008041858673,335.0008041858673,335.0008041858673,339.68394231796265,2,4.816560745239258,None,,,,,,,,,,,,,,,,,,125,4,2025-02-26_11h25.40.098,comp,2024.2.4,57.75432644113727,2025-02-26 11h26.14.613639 -0500,
80,80,0,filler_random,None,None,None,None,None,None,None,None,None,None,3,0.8714923858642578,None,,,,,0,0,0,0,0,80,80,163,339.7006676197052,,,,,,,,,,,,,,,,,,,,,,,,,,,,,,,,,,,,,,,,,,,,,,,,,,,,,,,,,,,,,,,,,,,,,,,,,,,,,,,,,,143.62928182371826,57.567478921364064,189.55354354679602,92.34262207591351,151.09122888144077,194.82943609342547,2.1,2.12,-171,-282,0,-274,240,264,339.6857566833496,339.6858961582184,339.6893582344055,339.7006676197052,339.84886288642883,339.84886288642883,339.84886288642883,339.84886288642883,339.84886288642883,339.84886288642883,339.84886288642883,340.5836970806122,3,0.8714923858642578,None,,,,,,,,,,,,,,,,,,125,4,2025-02-26_11h25.40.098,comp,2024.2.4,57.75432644113727,2025-02-26 11h26.14.613639 -0500,
81,81,0,critical,wdh,35.0,2.1,upper,125.0,200.0,127.0,127.0,200.0,125.0,1,3.6590213775634766,None,,,,,0,0,0,0,0,81,81,9,340.6020987033844,,,,,,,,,,,,,,,,,,,,,,,,,,,,,,,,,,,,,,,,,,,,,,,,,,,,,,,,,,,,,,,,,,,,,,,,,,,,,,,,,,125.0,200.0,127.0,127.0,200.0,125.0,2.1,2.12,-260,-280,0,-271,222,261,340.5852165222168,340.58529686927795,340.58879566192627,340.6020987033844,340.73998975753784,340.73998975753784,340.73998975753784,340.73998975753784,340.73998975753784,340.73998975753784,340.73998975753784,344.26894760131836,1,3.6590213775634766,None,,,,,,,,,,,,,,,,,,125,4,2025-02-26_11h25.40.098,comp,2024.2.4,57.75432644113727,2025-02-26 11h26.14.613639 -0500,
82,82,0,filler_random,None,None,None,None,None,None,None,None,None,None,2,1.1991913318634033,None,,,,,0,0,0,0,0,82,82,157,344.28606271743774,,,,,,,,,,,,,,,,,,,,,,,,,,,,,,,,,,,,,,,,,,,,,,,,,,,,,,,,,,,,,,,,,,,,,,,,,,,,,,,,,,124.39868467497492,62.99036180643334,163.45266107725422,113.10192065285534,149.0149671818417,73.5969363337598,2.2,2.21,-184,-282,0,289,189,271,344.2710688114166,344.2711503505707,344.27485060691833,344.28606271743774,344.4370415210724,344.4370415210724,344.4370415210724,344.4370415210724,344.4370415210724,344.4370415210724,344.4370415210724,345.4928569793701,2,1.1991913318634033,None,,,,,,,,,,,,,,,,,,125,4,2025-02-26_11h25.40.098,comp,2024.2.4,57.75432644113727,2025-02-26 11h26.14.613639 -0500,
83,83,0,critical,dwh,35.0,3.0,lower,70.0,70.0,57.0,133.0,133.0,57.0,3,2.151812791824341,None,,,,,0,0,0,0,0,83,83,62,345.50891375541687,,,,,,,,,,,,,,,,,,,,,,,,,,,,,,,,,,,,,,,,,,,,,,,,,,,,,,,,,,,,,,,,,,,,,,,,,,,,,,,,,,70.0,70.0,57.0,133.0,133.0,57.0,3.0,3.2,-198,-290,0,10,191,284,345.49434447288513,345.49442625045776,345.4973337650299,345.50891375541687,345.65086603164673,345.65086603164673,345.65086603164673,345.65086603164673,345.65086603164673,345.65086603164673,345.65086603164673,347.6714560985565,3,2.151812791824341,None,,,,,,,,,,,,,,,,,,125,4,2025-02-26_11h25.40.098,comp,2024.2.4,57.75432644113727,2025-02-26 11h26.14.613639 -0500,
84,84,0,critical,dwh,35.0,2.1,lower,70.0,70.0,57.0,133.0,133.0,57.0,2,5.1304426193237305,None,,,,,0,0,0,0,0,84,84,4,347.68996262550354,,,,,,,,,,,,,,,,,,,,,,,,,,,,,,,,,,,,,,,,,,,,,,,,,,,,,,,,,,,,,,,,,,,,,,,,,,,,,,,,,,70.0,70.0,57.0,133.0,133.0,57.0,2.1,2.11,-198,284,0,275,191,-284,347.67308473587036,347.67316341400146,347.6764941215515,347.68996262550354,347.83563256263733,347.83563256263733,347.83563256263733,347.83563256263733,347.83563256263733,347.83563256263733,347.83563256263733,352.8225066661835,2,5.1304426193237305,None,,,,,,,,,,,,,,,,,,125,4,2025-02-26_11h25.40.098,comp,2024.2.4,57.75432644113727,2025-02-26 11h26.14.613639 -0500,
85,85,0,catch,None,None,None,None,None,None,None,None,None,None,1,1.1320209503173828,None,,,,,0,0,0,0,0,85,85,124,352.840044260025,,,,,,,,,,,,,,,,,,,,,,,,,,,,,,,,,,,,,,,,,,,,,,,,,,,,,,,,,,,,,,,,,,,,,,,,,,,,,,,,,,145,180,95,95,67,123,2.1,2.11,-234,288,0,273,205,-266,352.8252913951874,352.82537961006165,352.8283202648163,352.840044260025,352.98699736595154,352.98699736595154,352.98699736595154,352.98699736595154,352.98699736595154,352.98699736595154,352.98699736595154,353.9900691509247,1,1.1320209503173828,None,,,,,,,,,,,,,,,,,,125,4,2025-02-26_11h25.40.098,comp,2024.2.4,57.75432644113727,2025-02-26 11h26.14.613639 -0500,
86,86,0,filler_random,None,None,None,None,None,None,None,None,None,None,2,1.6216480731964111,None,,,,,0,0,0,0,0,86,86,168,354.0064628124237,,,,,,,,,,,,,,,,,,,,,,,,,,,,,,,,,,,,,,,,,,,,,,,,,,,,,,,,,,,,,,,,,,,,,,,,,,,,,,,,,,179.9317086317431,113.41420905290116,185.82008114679527,199.49670494447895,132.81016703293233,187.15275770022797,1.0,1.3,228,-288,480,-252,769,-268,353.99206495285034,353.99214720726013,353.99609422683716,354.0064628124237,354.15671491622925,354.15671491622925,354.15671491622925,354.15671491622925,354.15671491622925,354.15671491622925,354.15671491622925,355.6438798904419,2,1.6216480731964111,None,,,,,,,,,,,,,,,,,,125,4,2025-02-26_11h25.40.098,comp,2024.2.4,57.75432644113727,2025-02-26 11h26.14.613639 -0500,
87,87,0,critical,wdh,20.0,4.0,upper,125.0,200.0,141.0,141.0,200.0,125.0,1,1.8493788242340088,None,,,,,0,0,0,0,0,87,87,83,355.6591639518738,,,,,,,,,,,,,,,,,,,,,,,,,,,,,,,,,,,,,,,,,,,,,,,,,,,,,,,,,,,,,,,,,,,,,,,,,,,,,,,,,,125.0,200.0,141.0,141.0,200.0,125.0,4.0,4.2,-266,3,0,-282,229,13,355.6454439163208,355.6455252170563,355.648446559906,355.6591639518738,355.8022983074188,355.8022983074188,355.8022983074188,355.8022983074188,355.8022983074188,355.8022983074188,355.8022983074188,357.52224349975586,1,1.8493788242340088,None,,,,,,,,,,,,,,,,,,125,4,2025-02-26_11h25.40.098,comp,2024.2.4,57.75432644113727,2025-02-26 11h26.14.613639 -0500,
88,88,0,filler_square,None,None,None,None,None,None,None,None,None,None,1,1.0664663314819336,None,,,,,0,0,0,0,0,88,88,207,357.53764963150024,,,,,,,,,,,,,,,,,,,,,,,,,,,,,,,,,,,,,,,,,,,,,,,,,,,,,,,,,,,,,,,,,,,,,,,,,,,,,,,,,,171.00729315686868,171.00729315686868,144.57469040770488,106.4859007311586,122.69610037656409,92.52785745314861,1.0,1.1,-715,273,-480,257,-284,282,357.52411937713623,357.5242009162903,357.52727580070496,357.53764963150024,357.68602561950684,357.68602561950684,357.68602561950684,357.68602561950684,357.68602561950684,357.68602561950684,357.68602561950684,358.6217930316925,1,1.0664663314819336,None,,,,,,,,,,,,,,,,,,125,4,2025-02-26_11h25.40.098,comp,2024.2.4,57.75432644113727,2025-02-26 11h26.14.613639 -0500,
89,89,0,critical,wdh,20.0,2.1,lower,57.0,133.0,78.0,78.0,133.0,57.0,3,3.350599765777588,None,,,,,0,0,0,0,0,89,89,34,358.63831210136414,,,,,,,,,,,,,,,,,,,,,,,,,,,,,,,,,,,,,,,,,,,,,,,,,,,,,,,,,,,,,,,,,,,,,,,,,,,,,,,,,,57.0,133.0,78.0,78.0,133.0,57.0,2.1,2.11,-202,283,0,276,164,-277,358.623507976532,358.6236355304718,358.6269507408142,358.63831210136414,358.7890274524689,358.7890274524689,358.7890274524689,358.7890274524689,358.7890274524689,358.7890274524689,358.7890274524689,362.00638341903687,3,3.350599765777588,None,,,,,,,,,,,,,,,,,,125,4,2025-02-26_11h25.40.098,comp,2024.2.4,57.75432644113727,2025-02-26 11h26.14.613639 -0500,
90,90,0,critical,hdw,35.0,4.0,upper,200.0,125.0,127.0,127.0,125.0,200.0,3,1.7090504169464111,None,,,,,0,0,0,0,0,90,90,113,362.02311182022095,,,,,,,,,,,,,,,,,,,,,,,,,,,,,,,,,,,,,,,,,,,,,,,,,,,,,,,,,,,,,,,,,,,,,,,,,,,,,,,,,,200.0,125.0,127.0,127.0,125.0,200.0,4.0,4.1,-222,-286,0,1,260,-278,362.00805735588074,362.0081875324249,362.01176285743713,362.02311182022095,362.1709189414978,362.1709189414978,362.1709189414978,362.1709189414978,362.1709189414978,362.1709189414978,362.1709189414978,363.7498314380646,3,1.7090504169464111,None,,,,,,,,,,,,,,,,,,125,4,2025-02-26_11h25.40.098,comp,2024.2.4,57.75432644113727,2025-02-26 11h26.14.613639 -0500,
91,91,0,critical,hdw,35.0,3.0,lower,133.0,57.0,70.0,70.0,57.0,133.0,3,1.7758815288543701,None,,,,,0,0,0,0,0,91,91,110,363.7648355960846,,,,,,,,,,,,,,,,,,,,,,,,,,,,,,,,,,,,,,,,,,,,,,,,,,,,,,,,,,,,,,,,,,,,,,,,,,,,,,,,,,133.0,57.0,70.0,70.0,57.0,133.0,3.0,3.1,-160,251,0,-6,198,-260,363.7513587474823,363.751437664032,363.7543079853058,363.7648355960846,363.90675473213196,363.90675473213196,363.90675473213196,363.90675473213196,363.90675473213196,363.90675473213196,363.90675473213196,365.543475151062,3,1.7758815288543701,None,,,,,,,,,,,,,,,,,,125,4,2025-02-26_11h25.40.098,comp,2024.2.4,57.75432644113727,2025-02-26 11h26.14.613639 -0500,
92,92,0,filler_square,None,None,None,None,None,None,None,None,None,None,2,1.7759528160095215,None,,,,,0,0,0,0,0,92,92,172,365.5648488998413,,,,,,,,,,,,,,,,,,,,,,,,,,,,,,,,,,,,,,,,,,,,,,,,,,,,,,,,,,,,,,,,,,,,,,,,,,,,,,,,,,67.62703052431934,67.62703052431934,64.53019991116187,67.56240045668574,61.49986236200775,61.19301571314506,4.0,4.2,-164,11,0,-272,160,4,365.54550671577454,365.5456657409668,365.54909801483154,365.5648488998413,365.7076528072357,365.7076528072357,365.7076528072357,365.7076528072357,365.7076528072357,365.7076528072357,365.7076528072357,367.34426498413086,2,1.7759528160095215,None,,,,,,,,,,,,,,,,,,125,4,2025-02-26_11h25.40.098,comp,2024.2.4,57.75432644113727,2025-02-26 11h26.14.613639 -0500,
93,93,0,critical,wdh,35.0,4.0,lower,57.0,133.0,70.0,70.0,133.0,57.0,1,1.8356854915618896,None,,,,,0,0,0,0,0,93,93,76,367.3603661060333,,,,,,,,,,,,,,,,,,,,,,,,,,,,,,,,,,,,,,,,,,,,,,,,,,,,,,,,,,,,,,,,,,,,,,,,,,,,,,,,,,57.0,133.0,70.0,70.0,133.0,57.0,4.0,4.2,-198,-19,0,-261,160,-17,367.3458716869354,367.34595251083374,367.3488142490387,367.3603661060333,367.5081114768982,367.5081114768982,367.5081114768982,367.5081114768982,367.5081114768982,367.5081114768982,367.5081114768982,369.2067310810089,1,1.8356854915618896,None,,,,,,,,,,,,,,,,,,125,4,2025-02-26_11h25.40.098,comp,2024.2.4,57.75432644113727,2025-02-26 11h26.14.613639 -0500,
94,94,0,critical,hwd,20.0,2.1,upper,200.0,125.0,125.0,200.0,141.0,141.0,2,2.4692184925079346,None,,,,,0,0,0,0,0,94,94,19,369.2228753566742,,,,,,,,,,,,,,,,,,,,,,,,,,,,,,,,,,,,,,,,,,,,,,,,,,,,,,,,,,,,,,,,,,,,,,,,,,,,,,,,,,200.0,125.0,125.0,200.0,141.0,141.0,2.1,2.12,-258,-287,0,-258,266,258,369.20831274986267,369.2083885669708,369.211656332016,369.2228753566742,369.3619771003723,369.3619771003723,369.3619771003723,369.3619771003723,369.3619771003723,369.3619771003723,369.3619771003723,371.6941854953766,2,2.4692184925079346,None,,,,,,,,,,,,,,,,,,125,4,2025-02-26_11h25.40.098,comp,2024.2.4,57.75432644113727,2025-02-26 11h26.14.613639 -0500,
95,95,0,critical,hdw,20.0,2.1,upper,200.0,125.0,141.0,141.0,125.0,200.0,3,2.5495574474334717,None,,,,,0,0,0,0,0,95,95,47,371.71058225631714,,,,,,,,,,,,,,,,,,,,,,,,,,,,,,,,,,,,,,,,,,,,,,,,,,,,,,,,,,,,,,,,,,,,,,,,,,,,,,,,,,200.0,125.0,141.0,141.0,125.0,200.0,2.1,2.12,-229,-258,0,-284,266,267,371.6957519054413,371.69587755203247,371.69961190223694,371.71058225631714,371.8594858646393,371.8594858646393,371.8594858646393,371.8594858646393,371.8594858646393,371.8594858646393,371.8594858646393,374.2621510028839,3,2.5495574474334717,None,,,,,,,,,,,,,,,,,,125,4,2025-02-26_11h25.40.098,comp,2024.2.4,57.75432644113727,2025-02-26 11h26.14.613639 -0500,
96,96,0,filler_square,None,None,None,None,None,None,None,None,None,None,2,2.6774914264678955,None,,,,,0,0,0,0,0,96,96,184,374.2786543369293,,,,,,,,,,,,,,,,,,,,,,,,,,,,,,,,,,,,,,,,,,,,,,,,,,,,,,,,,,,,,,,,,,,,,,,,,,,,,,,,,,72.56448978802457,62.28821860735991,73.83371666375893,73.83371666375893,69.7933055252625,65.41597433784051,4.0,4.2,-164,-13,0,-267,166,-17,374.2642683982849,374.2643790245056,374.2677981853485,374.2786543369293,374.43076276779175,374.43076276779175,374.43076276779175,374.43076276779175,374.43076276779175,374.43076276779175,374.43076276779175,376.968624830246,2,2.6774914264678955,None,,,,,,,,,,,,,,,,,,125,4,2025-02-26_11h25.40.098,comp,2024.2.4,57.75432644113727,2025-02-26 11h26.14.613639 -0500,
97,97,0,critical,dhw,35.0,3.0,upper,127.0,127.0,200.0,125.0,125.0,200.0,3,1.3854491710662842,None,,,,,0,0,0,0,0,97,97,51,376.98724365234375,,,,,,,,,,,,,,,,,,,,,,,,,,,,,,,,,,,,,,,,,,,,,,,,,,,,,,,,,,,,,,,,,,,,,,,,,,,,,,,,,,127.0,127.0,200.0,125.0,125.0,200.0,3.0,3.2,-222,-288,0,-11,258,255,376.9700725078583,376.97015047073364,376.9729890823364,376.98724365234375,377.1237850189209,377.1237850189209,377.1237850189209,377.1237850189209,377.1237850189209,377.1237850189209,377.1237850189209,378.3773672580719,3,1.3854491710662842,None,,,,,,,,,,,,,,,,,,125,4,2025-02-26_11h25.40.098,comp,2024.2.4,57.75432644113727,2025-02-26 11h26.14.613639 -0500,
98,98,0,critical,hwd,35.0,3.0,lower,133.0,57.0,57.0,133.0,70.0,70.0,1,2.9235849380493164,None,,,,,0,0,0,0,0,98,98,98,378.39276361465454,,,,,,,,,,,,,,,,,,,,,,,,,,,,,,,,,,,,,,,,,,,,,,,,,,,,,,,,,,,,,,,,,,,,,,,,,,,,,,,,,,133.0,57.0,57.0,133.0,70.0,70.0,3.0,3.2,-191,-287,0,-5,198,278,378.37885570526123,378.3789322376251,378.38196659088135,378.39276361465454,378.5471911430359,378.5471911430359,378.5471911430359,378.5471911430359,378.5471911430359,378.5471911430359,378.5471911430359,381.3294606208801,1,2.9235849380493164,None,,,,,,,,,,,,,,,,,,125,4,2025-02-26_11h25.40.098,comp,2024.2.4,57.75432644113727,2025-02-26 11h26.14.613639 -0500,
99,99,0,critical,wdh,35.0,2.1,lower,57.0,133.0,70.0,70.0,133.0,57.0,1,2.7395660877227783,None,,,,,0,0,0,0,0,99,99,32,381.3453562259674,,,,,,,,,,,,,,,,,,,,,,,,,,,,,,,,,,,,,,,,,,,,,,,,,,,,,,,,,,,,,,,,,,,,,,,,,,,,,,,,,,57.0,133.0,70.0,70.0,133.0,57.0,2.1,2.12,-198,-281,0,-289,160,263,381.33101749420166,381.3310966491699,381.3341588973999,381.3453562259674,381.49615836143494,381.49615836143494,381.49615836143494,381.49615836143494,381.49615836143494,381.49615836143494,381.49615836143494,384.09263610839844,1,2.7395660877227783,None,,,,,,,,,,,,,,,,,,125,4,2025-02-26_11h25.40.098,comp,2024.2.4,57.75432644113727,2025-02-26 11h26.14.613639 -0500,
100,100,0,critical,dwh,35.0,1.0,lower,70.0,70.0,57.0,133.0,133.0,57.0,3,2.855668306350708,None,,,,,0,0,0,0,0,100,100,60,384.1086401939392,,,,,,,,,,,,,,,,,,,,,,,,,,,,,,,,,,,,,,,,,,,,,,,,,,,,,,,,,,,,,,,,,,,,,,,,,,,,,,,,,,70.0,70.0,57.0,133.0,133.0,57.0,1.0,1.1,-678,265,-480,290,-289,289,384.09417629241943,384.094251871109,384.0975453853607,384.1086401939392,384.24819827079773,384.24819827079773,384.24819827079773,384.24819827079773,384.24819827079773,384.24819827079773,384.24819827079773,386.9842071533203,3,2.855668306350708,None,,,,,,,,,,,,,,,,,,125,4,2025-02-26_11h25.40.098,comp,2024.2.4,57.75432644113727,2025-02-26 11h26.14.613639 -0500,
101,101,0,critical,wdh,20.0,1.0,upper,125.0,200.0,141.0,141.0,200.0,125.0,3,5.218627691268921,None,,,,,0,0,0,0,0,101,101,79,387.00162053108215,,,,,,,,,,,,,,,,,,,,,,,,,,,,,,,,,,,,,,,,,,,,,,,,,,,,,,,,,,,,,,,,,,,,,,,,,,,,,,,,,,125.0,200.0,141.0,141.0,200.0,125.0,1.0,1.2,-266,-8,0,-20,229,12,386.9858286380768,386.98591470718384,386.98887062072754,387.00162053108215,387.1470718383789,387.1470718383789,387.1470718383789,387.1470718383789,387.1470718383789,387.1470718383789,387.1470718383789,392.2370276451111,3,5.218627691268921,None,,,,,,,,,,,,,,,,,,125,4,2025-02-26_11h25.40.098,comp,2024.2.4,57.75432644113727,2025-02-26 11h26.14.613639 -0500,
102,102,0,filler_square,None,None,None,None,None,None,None,None,None,None,3,1.0243539810180664,None,,,,,0,0,0,0,0,102,102,174,392.2526361942291,,,,,,,,,,,,,,,,,,,,,,,,,,,,,,,,,,,,,,,,,,,,,,,,,,,,,,,,,,,,,,,,,,,,,,,,,,,,,,,,,,124.75364130691335,136.6351035359706,119.83124501244959,85.13795176564432,178.38873026442275,178.38873026442275,2.2,2.22,-207,275,0,-264,228,-280,392.23894000053406,392.23902344703674,392.2422366142273,392.2526361942291,392.4057369232178,392.4057369232178,392.4057369232178,392.4057369232178,392.4057369232178,392.4057369232178,392.4057369232178,393.2833819389343,3,1.0243539810180664,None,,,,,,,,,,,,,,,,,,125,4,2025-02-26_11h25.40.098,comp,2024.2.4,57.75432644113727,2025-02-26 11h26.14.613639 -0500,
103,103,0,critical,dhw,35.0,3.0,lower,70.0,70.0,133.0,57.0,57.0,133.0,3,1.5607621669769287,None,,,,,0,0,0,0,0,103,103,50,393.2993915081024,,,,,,,,,,,,,,,,,,,,,,,,,,,,,,,,,,,,,,,,,,,,,,,,,,,,,,,,,,,,,,,,,,,,,,,,,,,,,,,,,,70.0,70.0,133.0,57.0,57.0,133.0,3.0,3.2,-160,-277,0,4,191,268,393.28494215011597,393.2850182056427,393.2883834838867,393.2993915081024,393.4542746543884,393.4542746543884,393.4542746543884,393.4542746543884,393.4542746543884,393.4542746543884,393.4542746543884,394.87597489356995,3,1.5607621669769287,None,,,,,,,,,,,,,,,,,,125,4,2025-02-26_11h25.40.098,comp,2024.2.4,57.75432644113727,2025-02-26 11h26.14.613639 -0500,
104,104,0,critical,hdw,35.0,2.1,lower,133.0,57.0,70.0,70.0,57.0,133.0,3,4.75244927406311,None,,,,,0,0,0,0,0,104,104,44,394.8917484283447,,,,,,,,,,,,,,,,,,,,,,,,,,,,,,,,,,,,,,,,,,,,,,,,,,,,,,,,,,,,,,,,,,,,,,,,,,,,,,,,,,133.0,57.0,70.0,70.0,57.0,133.0,2.1,2.11,-160,263,0,279,198,-264,394.8776853084564,394.87780141830444,394.8812460899353,394.8917484283447,395.0368158817291,395.0368158817291,395.0368158817291,395.0368158817291,395.0368158817291,395.0368158817291,395.0368158817291,399.6551079750061,3,4.75244927406311,None,,,,,,,,,,,,,,,,,,125,4,2025-02-26_11h25.40.098,comp,2024.2.4,57.75432644113727,2025-02-26 11h26.14.613639 -0500,
105,105,0,critical,hdw,20.0,2.1,upper,200.0,125.0,141.0,141.0,125.0,200.0,3,1.2772655487060547,None,,,,,0,0,0,0,0,105,105,23,399.67202067375183,,,,,,,,,,,,,,,,,,,,,,,,,,,,,,,,,,,,,,,,,,,,,,,,,,,,,,,,,,,,,,,,,,,,,,,,,,,,,,,,,,200.0,125.0,141.0,141.0,125.0,200.0,2.1,2.11,-229,251,0,259,266,-253,399.6572730541229,399.6573565006256,399.6603045463562,399.67202067375183,399.82137393951416,399.82137393951416,399.82137393951416,399.82137393951416,399.82137393951416,399.82137393951416,399.82137393951416,400.9545090198517,3,1.2772655487060547,None,,,,,,,,,,,,,,,,,,125,4,2025-02-26_11h25.40.098,comp,2024.2.4,57.75432644113727,2025-02-26 11h26.14.613639 -0500,
106,106,0,filler_random,None,None,None,None,None,None,None,None,None,None,3,1.2898423671722412,None,,,,,0,0,0,0,0,106,106,169,400.9706976413727,,,,,,,,,,,,,,,,,,,,,,,,,,,,,,,,,,,,,,,,,,,,,,,,,,,,,,,,,,,,,,,,,,,,,,,,,,,,,,,,,,164.778088896056,188.05903929502162,157.3007698688749,57.18470565658745,197.26472001048356,179.09722694786532,2.1,2.11,-219,283,0,275,214,-271,400.9564838409424,400.95658659935,400.95986247062683,400.9706976413727,401.1186866760254,401.1186866760254,401.1186866760254,401.1186866760254,401.1186866760254,401.1186866760254,401.1186866760254,402.27675437927246,3,1.2898423671722412,None,,,,,,,,,,,,,,,,,,125,4,2025-02-26_11h25.40.098,comp,2024.2.4,57.75432644113727,2025-02-26 11h26.14.613639 -0500,
107,107,0,critical,dhw,20.0,3.0,lower,78.0,78.0,133.0,57.0,57.0,133.0,3,2.480212926864624,None,,,,,0,0,0,0,0,107,107,56,402.2919178009033,,,,,,,,,,,,,,,,,,,,,,,,,,,,,,,,,,,,,,,,,,,,,,,,,,,,,,,,,,,,,,,,,,,,,,,,,,,,,,,,,,78.0,78.0,133.0,57.0,57.0,133.0,3.0,3.2,-164,-281,0,8,191,282,402.27830171585083,402.2783806324005,402.28137469291687,402.2919178009033,402.43565702438354,402.43565702438354,402.43565702438354,402.43565702438354,402.43565702438354,402.43565702438354,402.43565702438354,404.7861399650574,3,2.480212926864624,None,,,,,,,,,,,,,,,,,,125,4,2025-02-26_11h25.40.098,comp,2024.2.4,57.75432644113727,2025-02-26 11h26.14.613639 -0500,
108,108,0,critical,dwh,20.0,2.1,upper,141.0,141.0,125.0,200.0,200.0,125.0,3,1.5125422477722168,None,,,,,0,0,0,0,0,108,108,31,404.8044400215149,,,,,,,,,,,,,,,,,,,,,,,,,,,,,,,,,,,,,,,,,,,,,,,,,,,,,,,,,,,,,,,,,,,,,,,,,,,,,,,,,,141.0,141.0,125.0,200.0,200.0,125.0,2.1,2.11,-266,284,0,284,258,-253,404.7876899242401,404.7877666950226,404.79088044166565,404.8044400215149,404.9543402194977,404.9543402194977,404.9543402194977,404.9543402194977,404.9543402194977,404.9543402194977,404.9543402194977,406.33564591407776,3,1.5125422477722168,None,,,,,,,,,,,,,,,,,,125,4,2025-02-26_11h25.40.098,comp,2024.2.4,57.75432644113727,2025-02-26 11h26.14.613639 -0500,
109,109,0,critical,hwd,20.0,4.0,lower,133.0,57.0,57.0,133.0,78.0,78.0,2,2.4690651893615723,None,,,,,0,0,0,0,0,109,109,106,406.3511378765106,,,,,,,,,,,,,,,,,,,,,,,,,,,,,,,,,,,,,,,,,,,,,,,,,,,,,,,,,,,,,,,,,,,,,,,,,,,,,,,,,,133.0,57.0,57.0,133.0,78.0,78.0,4.0,4.2,-191,13,0,-260,202,13,406.33714032173157,406.3372173309326,406.3403067588806,406.3511378765106,406.504403591156,406.504403591156,406.504403591156,406.504403591156,406.504403591156,406.504403591156,406.504403591156,408.822386264801,2,2.4690651893615723,None,,,,,,,,,,,,,,,,,,125,4,2025-02-26_11h25.40.098,comp,2024.2.4,57.75432644113727,2025-02-26 11h26.14.613639 -0500,
110,110,0,filler_random,None,None,None,None,None,None,None,None,None,None,3,0.8788049221038818,None,,,,,0,0,0,0,0,110,110,162,408.8384048938751,,,,,,,,,,,,,,,,,,,,,,,,,,,,,,,,,,,,,,,,,,,,,,,,,,,,,,,,,,,,,,,,,,,,,,,,,,,,,,,,,,123.11900651654412,62.75245622239904,78.44544799940064,114.93986835084158,148.03218942337418,191.91820648006757,4.0,4.1,-185,-288,0,12,249,-269,408.8241205215454,408.8242208957672,408.8275110721588,408.8384048938751,408.98732471466064,408.98732471466064,408.98732471466064,408.98732471466064,408.98732471466064,408.98732471466064,408.98732471466064,409.72264075279236,3,0.8788049221038818,None,,,,,,,,,,,,,,,,,,125,4,2025-02-26_11h25.40.098,comp,2024.2.4,57.75432644113727,2025-02-26 11h26.14.613639 -0500,
111,111,0,critical,wdh,35.0,4.0,upper,125.0,200.0,127.0,127.0,200.0,125.0,1,2.985363721847534,None,,,,,0,0,0,0,0,111,111,77,409.7388632297516,,,,,,,,,,,,,,,,,,,,,,,,,,,,,,,,,,,,,,,,,,,,,,,,,,,,,,,,,,,,,,,,,,,,,,,,,,,,,,,,,,125.0,200.0,127.0,127.0,200.0,125.0,4.0,4.1,-260,-265,0,15,222,-288,409.72416162490845,409.7242422103882,409.7278814315796,409.7388632297516,409.8876094818115,409.8876094818115,409.8876094818115,409.8876094818115,409.8876094818115,409.8876094818115,409.8876094818115,412.7399730682373,1,2.985363721847534,None,,,,,,,,,,,,,,,,,,125,4,2025-02-26_11h25.40.098,comp,2024.2.4,57.75432644113727,2025-02-26 11h26.14.613639 -0500,
112,112,0,filler_random,None,None,None,None,None,None,None,None,None,None,3,1.2250189781188965,None,,,,,0,0,0,0,0,112,112,152,412.7563045024872,,,,,,,,,,,,,,,,,,,,,,,,,,,,,,,,,,,,,,,,,,,,,,,,,,,,,,,,,,,,,,,,,,,,,,,,,,,,,,,,,,75.37315233195761,170.19230184478852,88.06847020373412,66.69681066548583,117.31244014310576,137.87750654742774,1.0,1.1,-694,262,-480,273,-282,283,412.74191975593567,412.7420530319214,412.7458395957947,412.7563045024872,412.90566992759705,412.90566992759705,412.90566992759705,412.90566992759705,412.90566992759705,412.90566992759705,412.90566992759705,413.9885239601135,3,1.2250189781188965,None,,,,,,,,,,,,,,,,,,125,4,2025-02-26_11h25.40.098,comp,2024.2.4,57.75432644113727,2025-02-26 11h26.14.613639 -0500,
113,113,0,critical,hdw,35.0,4.0,lower,133.0,57.0,70.0,70.0,57.0,133.0,3,2.2472057342529297,None,,,,,0,0,0,0,0,113,113,112,414.0055365562439,,,,,,,,,,,,,,,,,,,,,,,,,,,,,,,,,,,,,,,,,,,,,,,,,,,,,,,,,,,,,,,,,,,,,,,,,,,,,,,,,,133.0,57.0,70.0,70.0,57.0,133.0,4.0,4.1,-160,-257,0,-8,198,-280,413.99017095565796,413.9903087615967,413.99362206459045,414.0055365562439,414.15753626823425,414.15753626823425,414.15753626823425,414.15753626823425,414.15753626823425,414.15753626823425,414.15753626823425,416.2560260295868,3,2.2472057342529297,None,,,,,,,,,,,,,,,,,,125,4,2025-02-26_11h25.40.098,comp,2024.2.4,57.75432644113727,2025-02-26 11h26.14.613639 -0500,
114,114,0,filler_square,None,None,None,None,None,None,None,None,None,None,1,1.7988929748535156,None,,,,,0,0,0,0,0,114,114,170,416.2773334980011,,,,,,,,,,,,,,,,,,,,,,,,,,,,,,,,,,,,,,,,,,,,,,,,,,,,,,,,,,,,,,,,,,,,,,,,,,,,,,,,,,116.10104788866059,116.10104788866059,75.05808494429576,110.78083420143568,71.50018448564998,115.08721239028641,3.0,3.1,-209,253,0,13,209,-286,416.2580597400665,416.2581775188446,416.26175832748413,416.2773334980011,416.4300367832184,416.4300367832184,416.4300367832184,416.4300367832184,416.4300367832184,416.4300367832184,416.4300367832184,418.089257478714,1,1.7988929748535156,None,,,,,,,,,,,,,,,,,,125,4,2025-02-26_11h25.40.098,comp,2024.2.4,57.75432644113727,2025-02-26 11h26.14.613639 -0500,
115,115,0,critical,whd,20.0,4.0,upper,125.0,200.0,200.0,125.0,141.0,141.0,1,1.9145982265472412,None,,,,,0,0,0,0,0,115,115,95,418.10658860206604,,,,,,,,,,,,,,,,,,,,,,,,,,,,,,,,,,,,,,,,,,,,,,,,,,,,,,,,,,,,,,,,,,,,,,,,,,,,,,,,,,125.0,200.0,200.0,125.0,141.0,141.0,4.0,4.1,-258,-278,0,19,229,-282,418.090740442276,418.0908203125,418.09380197525024,418.10658860206604,418.24160528182983,418.24160528182983,418.24160528182983,418.24160528182983,418.24160528182983,418.24160528182983,418.24160528182983,420.02397632598877,1,1.9145982265472412,None,,,,,,,,,,,,,,,,,,125,4,2025-02-26_11h25.40.098,comp,2024.2.4,57.75432644113727,2025-02-26 11h26.14.613639 -0500,
116,116,0,critical,hwd,20.0,4.0,upper,200.0,125.0,125.0,200.0,141.0,141.0,2,1.2440149784088135,None,,,,,0,0,0,0,0,116,116,107,420.0403974056244,,,,,,,,,,,,,,,,,,,,,,,,,,,,,,,,,,,,,,,,,,,,,,,,,,,,,,,,,,,,,,,,,,,,,,,,,,,,,,,,,,200.0,125.0,125.0,200.0,141.0,141.0,4.0,4.1,-258,-254,0,-13,266,-258,420.02554178237915,420.02564334869385,420.02854442596436,420.0403974056244,420.1912467479706,420.1912467479706,420.1912467479706,420.1912467479706,420.1912467479706,420.1912467479706,420.1912467479706,421.2986602783203,2,1.2440149784088135,None,,,,,,,,,,,,,,,,,,125,4,2025-02-26_11h25.40.098,comp,2024.2.4,57.75432644113727,2025-02-26 11h26.14.613639 -0500,
117,117,0,filler_square,None,None,None,None,None,None,None,None,None,None,2,0.909369945526123,None,,,,,0,0,0,0,0,117,117,209,421.3193497657776,,,,,,,,,,,,,,,,,,,,,,,,,,,,,,,,,,,,,,,,,,,,,,,,,,,,,,,,,,,,,,,,,,,,,,,,,,,,,,,,,,133.21087705145584,135.94183167279124,187.49698131196803,187.49698131196803,84.85584241080062,88.69367912642224,4.0,4.1,-258,-260,0,11,234,-264,421.3006663322449,421.30075001716614,421.3039724826813,421.3193497657776,421.4596481323242,421.4596481323242,421.4596481323242,421.4596481323242,421.4596481323242,421.4596481323242,421.4596481323242,422.2430057525635,2,0.909369945526123,None,,,,,,,,,,,,,,,,,,125,4,2025-02-26_11h25.40.098,comp,2024.2.4,57.75432644113727,2025-02-26 11h26.14.613639 -0500,
118,118,0,filler_random,None,None,None,None,None,None,None,None,None,None,3,1.2329492568969727,None,,,,,0,0,0,0,0,118,118,140,422.2596583366394,,,,,,,,,,,,,,,,,,,,,,,,,,,,,,,,,,,,,,,,,,,,,,,,,,,,,,,,,,,,,,,,,,,,,,,,,,,,,,,,,,178.44399939005874,147.51665157465618,57.40582664800281,68.13847115523733,130.28840838669618,194.5342054789076,3.0,3.1,-204,266,0,6,227,-263,422.24481987953186,422.24496579170227,422.24828147888184,422.2596583366394,422.4085466861725,422.4085466861725,422.4085466861725,422.4085466861725,422.4085466861725,422.4085466861725,422.4085466861725,423.51019287109375,3,1.2329492568969727,None,,,,,,,,,,,,,,,,,,125,4,2025-02-26_11h25.40.098,comp,2024.2.4,57.75432644113727,2025-02-26 11h26.14.613639 -0500,
119,119,0,filler_random,None,None,None,None,None,None,None,None,None,None,2,5.3653035163879395,None,,,,,0,0,0,0,0,119,119,145,423.52693152427673,,,,,,,,,,,,,,,,,,,,,,,,,,,,,,,,,,,,,,,,,,,,,,,,,,,,,,,,,,,,,,,,,,,,,,,,,,,,,,,,,,137.18010721512357,160.62732888669817,173.3166432871639,141.99349602136706,129.49948304576282,165.9890769817922,2.2,2.21,-247,-276,0,256,250,263,423.51191449165344,423.51200580596924,423.51598930358887,423.52693152427673,423.67684626579285,423.67684626579285,423.67684626579285,423.67684626579285,423.67684626579285,423.67684626579285,423.67684626579285,428.8955354690552,2,5.3653035163879395,None,,,,,,,,,,,,,,,,,,125,4,2025-02-26_11h25.40.098,comp,2024.2.4,57.75432644113727,2025-02-26 11h26.14.613639 -0500,
120,120,0,critical,dwh,35.0,1.0,upper,127.0,127.0,125.0,200.0,200.0,125.0,3,2.085571527481079,None,,,,,0,0,0,0,0,120,120,61,428.91122245788574,,,,,,,,,,,,,,,,,,,,,,,,,,,,,,,,,,,,,,,,,,,,,,,,,,,,,,,,,,,,,,,,,,,,,,,,,,,,,,,,,,127.0,127.0,125.0,200.0,200.0,125.0,1.0,1.1,-740,266,-480,276,-222,273,428.89703702926636,428.89714884757996,428.9003839492798,428.91122245788574,429.0652370452881,429.0652370452881,429.0652370452881,429.0652370452881,429.0652370452881,429.0652370452881,429.0652370452881,431.00061798095703,3,2.085571527481079,None,,,,,,,,,,,,,,,,,,125,4,2025-02-26_11h25.40.098,comp,2024.2.4,57.75432644113727,2025-02-26 11h26.14.613639 -0500,
121,121,0,critical,dhw,20.0,1.0,upper,141.0,141.0,200.0,125.0,125.0,200.0,2,1.171550989151001,None,,,,,0,0,0,0,0,121,121,55,431.0184063911438,,,,,,,,,,,,,,,,,,,,,,,,,,,,,,,,,,,,,,,,,,,,,,,,,,,,,,,,,,,,,,,,,,,,,,,,,,,,,,,,,,141.0,141.0,200.0,125.0,125.0,200.0,1.0,1.1,-709,286,-480,256,-222,275,431.00220251083374,431.00228452682495,431.0052146911621,431.0184063911438,431.1614556312561,431.1614556312561,431.1614556312561,431.1614556312561,431.1614556312561,431.1614556312561,431.1614556312561,432.19399333000183,2,1.171550989151001,None,,,,,,,,,,,,,,,,,,125,4,2025-02-26_11h25.40.098,comp,2024.2.4,57.75432644113727,2025-02-26 11h26.14.613639 -0500,
122,122,0,critical,hwd,20.0,1.0,upper,200.0,125.0,125.0,200.0,141.0,141.0,2,1.7368812561035156,None,,,,,0,0,0,0,0,122,122,103,432.2112991809845,,,,,,,,,,,,,,,,,,,,,,,,,,,,,,,,,,,,,,,,,,,,,,,,,,,,,,,,,,,,,,,,,,,,,,,,,,,,,,,,,,200.0,125.0,125.0,200.0,141.0,141.0,1.0,1.1,-738,252,-480,255,-214,254,432.19559049606323,432.19569087028503,432.19909262657166,432.2112991809845,432.36549639701843,432.36549639701843,432.36549639701843,432.36549639701843,432.36549639701843,432.36549639701843,432.36549639701843,433.9632577896118,2,1.7368812561035156,None,,,,,,,,,,,,,,,,,,125,4,2025-02-26_11h25.40.098,comp,2024.2.4,57.75432644113727,2025-02-26 11h26.14.613639 -0500,
123,123,0,filler_square,None,None,None,None,None,None,None,None,None,None,3,2.440190315246582,None,,,,,0,0,0,0,0,123,123,171,433.9812042713165,,,,,,,,,,,,,,,,,,,,,,,,,,,,,,,,,,,,,,,,,,,,,,,,,,,,,,,,,,,,,,,,,,,,,,,,,,,,,,,,,,196.0205770763422,196.0205770763422,185.95555102409483,94.73421823266631,171.61382020597563,189.5926260537518,2.1,2.11,-241,255,0,273,238,-263,433.9652032852173,433.96531414985657,433.96848344802856,433.9812042713165,434.1265411376953,434.1265411376953,434.1265411376953,434.1265411376953,434.1265411376953,434.1265411376953,434.1265411376953,436.43042826652527,3,2.440190315246582,None,,,,,,,,,,,,,,,,,,125,4,2025-02-26_11h25.40.098,comp,2024.2.4,57.75432644113727,2025-02-26 11h26.14.613639 -0500,
124,124,0,critical,dhw,20.0,4.0,upper,141.0,141.0,200.0,125.0,125.0,200.0,3,1.8138535022735596,None,,,,,0,0,0,0,0,124,124,59,436.446674823761,,,,,,,,,,,,,,,,,,,,,,,,,,,,,,,,,,,,,,,,,,,,,,,,,,,,,,,,,,,,,,,,,,,,,,,,,,,,,,,,,,141.0,141.0,200.0,125.0,125.0,200.0,4.0,4.2,-229,-10,0,-259,258,7,436.4320721626282,436.4321928024292,436.43563985824585,436.446674823761,436.59689497947693,436.59689497947693,436.59689497947693,436.59689497947693,436.59689497947693,436.59689497947693,436.59689497947693,438.26370334625244,3,1.8138535022735596,None,,,,,,,,,,,,,,,,,,125,4,2025-02-26_11h25.40.098,comp,2024.2.4,57.75432644113727,2025-02-26 11h26.14.613639 -0500,
125,125,0,filler_random,None,None,None,None,None,None,None,None,None,None,1,1.5383601188659668,None,,,,,0,0,0,0,0,125,125,146,438.2902238368988,,,,,,,,,,,,,,,,,,,,,,,,,,,,,,,,,,,,,,,,,,,,,,,,,,,,,,,,,,,,,,,,,,,,,,,,,,,,,,,,,,185.60504106506454,173.7854399348991,161.72861924489945,117.42938052100446,129.9538999782991,173.68029789848083,2.1,2.12,-242,-278,0,-281,242,267,438.26549911499023,438.2656126022339,438.2690382003784,438.2902238368988,438.4313108921051,438.4313108921051,438.4313108921051,438.4313108921051,438.4313108921051,438.4313108921051,438.4313108921051,439.83394718170166,1,1.5383601188659668,None,,,,,,,,,,,,,,,,,,125,4,2025-02-26_11h25.40.098,comp,2024.2.4,57.75432644113727,2025-02-26 11h26.14.613639 -0500,
126,126,0,critical,dhw,20.0,2.1,lower,78.0,78.0,133.0,57.0,57.0,133.0,3,2.8504388332366943,None,,,,,0,0,0,0,0,126,126,26,439.8492991924286,,,,,,,,,,,,,,,,,,,,,,,,,,,,,,,,,,,,,,,,,,,,,,,,,,,,,,,,,,,,,,,,,,,,,,,,,,,,,,,,,,78.0,78.0,133.0,57.0,57.0,133.0,2.1,2.11,-164,266,0,262,191,-256,439.8356885910034,439.8357675075531,439.8386425971985,439.8492991924286,439.9975266456604,439.9975266456604,439.9975266456604,439.9975266456604,439.9975266456604,439.9975266456604,439.9975266456604,442.7148132324219,3,2.8504388332366943,None,,,,,,,,,,,,,,,,,,125,4,2025-02-26_11h25.40.098,comp,2024.2.4,57.75432644113727,2025-02-26 11h26.14.613639 -0500,
127,127,0,catch,None,None,None,None,None,None,None,None,None,None,2,0.9076411724090576,None,,,,,0,0,0,0,0,127,127,128,442.7282283306122,,,,,,,,,,,,,,,,,,,,,,,,,,,,,,,,,,,,,,,,,,,,,,,,,,,,,,,,,,,,,,,,,,,,,,,,,,,,,,,,,,102,88,172,153,120,70,1.0,1.3,264,-261,480,-286,688,-251,442.71534752845764,442.71536660194397,442.71613121032715,442.7282283306122,442.87931203842163,442.87931203842163,442.87931203842163,442.87931203842163,442.87931203842163,442.87931203842163,442.87931203842163,443.6487624645233,2,0.9076411724090576,None,,,,,,,,,,,,,,,,,,125,4,2025-02-26_11h25.40.098,comp,2024.2.4,57.75432644113727,2025-02-26 11h26.14.613639 -0500,
128,128,0,filler_random,None,None,None,None,None,None,None,None,None,None,1,1.224297285079956,None,,,,,0,0,0,0,0,128,128,167,443.6689944267273,,,,,,,,,,,,,,,,,,,,,,,,,,,,,,,,,,,,,,,,,,,,,,,,,,,,,,,,,,,,,,,,,,,,,,,,,,,,,,,,,,169.54019779016272,119.45090007482406,87.97317419323828,73.77479147485813,143.07480383408193,80.62186812762394,2.2,2.21,-193,-251,0,251,173,277,443.65036821365356,443.6504502296448,443.6534013748169,443.6689944267273,443.80644059181213,443.80644059181213,443.80644059181213,443.80644059181213,443.80644059181213,443.80644059181213,443.80644059181213,444.8985002040863,1,1.224297285079956,None,,,,,,,,,,,,,,,,,,125,4,2025-02-26_11h25.40.098,comp,2024.2.4,57.75432644113727,2025-02-26 11h26.14.613639 -0500,
129,129,0,filler_square,None,None,None,None,None,None,None,None,None,None,1,0.9864015579223633,None,,,,,0,0,0,0,0,129,129,203,444.914657831192,,,,,,,,,,,,,,,,,,,,,,,,,,,,,,,,,,,,,,,,,,,,,,,,,,,,,,,,,,,,,,,,,,,,,,,,,,,,,,,,,,188.4763019235911,188.4763019235911,175.95117973267838,105.73596663097008,101.84285546525392,110.36006613127952,3.0,3.2,-243,-258,0,-11,204,270,444.9003689289093,444.9004521369934,444.9034628868103,444.914657831192,445.06546902656555,445.06546902656555,445.06546902656555,445.06546902656555,445.06546902656555,445.06546902656555,445.06546902656555,445.904851436615,1,0.9864015579223633,None,,,,,,,,,,,,,,,,,,125,4,2025-02-26_11h25.40.098,comp,2024.2.4,57.75432644113727,2025-02-26 11h26.14.613639 -0500,
130,130,0,critical,wdh,20.0,2.1,lower,57.0,133.0,78.0,78.0,133.0,57.0,1,2.2614076137542725,None,,,,,0,0,0,0,0,130,130,10,445.91931676864624,,,,,,,,,,,,,,,,,,,,,,,,,,,,,,,,,,,,,,,,,,,,,,,,,,,,,,,,,,,,,,,,,,,,,,,,,,,,,,,,,,57.0,133.0,78.0,78.0,133.0,57.0,2.1,2.12,-202,-271,0,-284,164,275,445.9064347743988,445.90651631355286,445.90939712524414,445.91931676864624,446.0660881996155,446.0660881996155,446.0660881996155,446.0660881996155,446.0660881996155,446.0660881996155,446.0660881996155,448.18294763565063,1,2.2614076137542725,None,,,,,,,,,,,,,,,,,,125,4,2025-02-26_11h25.40.098,comp,2024.2.4,57.75432644113727,2025-02-26 11h26.14.613639 -0500,
131,131,0,critical,whd,20.0,2.1,lower,57.0,133.0,133.0,57.0,78.0,78.0,1,2.821039915084839,None,,,,,0,0,0,0,0,131,131,14,448.19919872283936,,,,,,,,,,,,,,,,,,,,,,,,,,,,,,,,,,,,,,,,,,,,,,,,,,,,,,,,,,,,,,,,,,,,,,,,,,,,,,,,,,57.0,133.0,133.0,57.0,78.0,78.0,2.1,2.11,-191,256,0,277,164,-261,448.1844494342804,448.18453073501587,448.1874442100525,448.19919872283936,448.3508336544037,448.3508336544037,448.3508336544037,448.3508336544037,448.3508336544037,448.3508336544037,448.3508336544037,451.03605794906616,1,2.821039915084839,None,,,,,,,,,,,,,,,,,,125,4,2025-02-26_11h25.40.098,comp,2024.2.4,57.75432644113727,2025-02-26 11h26.14.613639 -0500,
132,132,0,critical,wdh,35.0,3.0,lower,57.0,133.0,70.0,70.0,133.0,57.0,1,1.743894100189209,None,,,,,0,0,0,0,0,132,132,74,451.0526661872864,,,,,,,,,,,,,,,,,,,,,,,,,,,,,,,,,,,,,,,,,,,,,,,,,,,,,,,,,,,,,,,,,,,,,,,,,,,,,,,,,,57.0,133.0,70.0,70.0,133.0,57.0,3.0,3.2,-198,-265,0,10,160,251,451.03779458999634,451.0379328727722,451.0414490699768,451.0526661872864,451.20195055007935,451.20195055007935,451.20195055007935,451.20195055007935,451.20195055007935,451.20195055007935,451.20195055007935,452.80078744888306,1,1.743894100189209,None,,,,,,,,,,,,,,,,,,125,4,2025-02-26_11h25.40.098,comp,2024.2.4,57.75432644113727,2025-02-26 11h26.14.613639 -0500,
133,133,0,critical,dwh,20.0,1.0,upper,141.0,141.0,125.0,200.0,200.0,125.0,2,6.208558559417725,None,,,,,0,0,0,0,0,133,133,67,452.8201425075531,,,,,,,,,,,,,,,,,,,,,,,,,,,,,,,,,,,,,,,,,,,,,,,,,,,,,,,,,,,,,,,,,,,,,,,,,,,,,,,,,,141.0,141.0,125.0,200.0,200.0,125.0,1.0,1.1,-746,267,-480,285,-222,253,452.8022494316101,452.80232095718384,452.80568861961365,452.8201425075531,452.96802592277527,452.96802592277527,452.96802592277527,452.96802592277527,452.96802592277527,452.96802592277527,452.96802592277527,459.0354058742523,2,6.208558559417725,None,,,,,,,,,,,,,,,,,,125,4,2025-02-26_11h25.40.098,comp,2024.2.4,57.75432644113727,2025-02-26 11h26.14.613639 -0500,
134,134,0,critical,dwh,20.0,1.0,lower,78.0,78.0,57.0,133.0,133.0,57.0,2,3.091923475265503,None,,,,,0,0,0,0,0,134,134,66,459.05642676353455,,,,,,,,,,,,,,,,,,,,,,,,,,,,,,,,,,,,,,,,,,,,,,,,,,,,,,,,,,,,,,,,,,,,,,,,,,,,,,,,,,78.0,78.0,57.0,133.0,133.0,57.0,1.0,1.3,278,-290,480,-271,671,-274,459.03705859184265,459.03718090057373,459.0405910015106,459.05642676353455,459.2035436630249,459.2035436630249,459.2035436630249,459.2035436630249,459.2035436630249,459.2035436630249,459.2035436630249,462.16078758239746,2,3.091923475265503,None,,,,,,,,,,,,,,,,,,125,4,2025-02-26_11h25.40.098,comp,2024.2.4,57.75432644113727,2025-02-26 11h26.14.613639 -0500,
135,135,0,catch,None,None,None,None,None,None,None,None,None,None,2,0.9055967330932617,None,,,,,0,0,0,0,0,135,135,123,462.17860984802246,,,,,,,,,,,,,,,,,,,,,,,,,,,,,,,,,,,,,,,,,,,,,,,,,,,,,,,,,,,,,,,,,,,,,,,,,,,,,,,,,,130,60,133,192,97,93,2.2,2.21,-222,-265,0,269,238,258,462.16268944740295,462.1627712249756,462.1656594276428,462.17860984802246,462.3196153640747,462.3196153640747,462.3196153640747,462.3196153640747,462.3196153640747,462.3196153640747,462.3196153640747,463.08841824531555,2,0.9055967330932617,None,,,,,,,,,,,,,,,,,,125,4,2025-02-26_11h25.40.098,comp,2024.2.4,57.75432644113727,2025-02-26 11h26.14.613639 -0500,
136,136,0,critical,dwh,35.0,4.0,lower,70.0,70.0,57.0,133.0,133.0,57.0,2,1.756371021270752,None,,,,,0,0,0,0,0,136,136,64,463.1042015552521,,,,,,,,,,,,,,,,,,,,,,,,,,,,,,,,,,,,,,,,,,,,,,,,,,,,,,,,,,,,,,,,,,,,,,,,,,,,,,,,,,70.0,70.0,57.0,133.0,133.0,57.0,4.0,4.1,-198,-286,0,19,191,-280,463.08996844291687,463.09005856513977,463.0934545993805,463.1042015552521,463.2581880092621,463.2581880092621,463.2581880092621,463.2581880092621,463.2581880092621,463.2581880092621,463.2581880092621,464.8745946884155,2,1.756371021270752,None,,,,,,,,,,,,,,,,,,125,4,2025-02-26_11h25.40.098,comp,2024.2.4,57.75432644113727,2025-02-26 11h26.14.613639 -0500,
137,137,0,critical,dhw,35.0,4.0,upper,127.0,127.0,200.0,125.0,125.0,200.0,3,1.0425312519073486,None,,,,,0,0,0,0,0,137,137,53,464.8904585838318,,,,,,,,,,,,,,,,,,,,,,,,,,,,,,,,,,,,,,,,,,,,,,,,,,,,,,,,,,,,,,,,,,,,,,,,,,,,,,,,,,127.0,127.0,200.0,125.0,125.0,200.0,4.0,4.1,-222,-275,0,-1,258,-252,464.8767910003662,464.8769299983978,464.8799138069153,464.8904585838318,465.03644371032715,465.03644371032715,465.03644371032715,465.03644371032715,465.03644371032715,465.03644371032715,465.03644371032715,465.93888902664185,3,1.0425312519073486,None,,,,,,,,,,,,,,,,,,125,4,2025-02-26_11h25.40.098,comp,2024.2.4,57.75432644113727,2025-02-26 11h26.14.613639 -0500,
138,138,0,critical,hdw,35.0,2.1,upper,200.0,125.0,127.0,127.0,125.0,200.0,3,2.4088733196258545,None,,,,,0,0,0,0,0,138,138,21,465.9563376903534,,,,,,,,,,,,,,,,,,,,,,,,,,,,,,,,,,,,,,,,,,,,,,,,,,,,,,,,,,,,,,,,,,,,,,,,,,,,,,,,,,200.0,125.0,127.0,127.0,125.0,200.0,2.1,2.12,-222,-279,0,-261,260,266,465.94038701057434,465.94046664237976,465.943452835083,465.9563376903534,466.10988569259644,466.10988569259644,466.10988569259644,466.10988569259644,466.10988569259644,466.10988569259644,466.10988569259644,468.3733787536621,3,2.4088733196258545,None,,,,,,,,,,,,,,,,,,125,4,2025-02-26_11h25.40.098,comp,2024.2.4,57.75432644113727,2025-02-26 11h26.14.613639 -0500,
139,139,0,critical,hwd,20.0,2.1,upper,200.0,125.0,125.0,200.0,141.0,141.0,2,4.838989019393921,None,,,,,0,0,0,0,0,139,139,43,468.38928413391113,,,,,,,,,,,,,,,,,,,,,,,,,,,,,,,,,,,,,,,,,,,,,,,,,,,,,,,,,,,,,,,,,,,,,,,,,,,,,,,,,,200.0,125.0,125.0,200.0,141.0,141.0,2.1,2.11,-258,287,0,254,266,-287,468.3749055862427,468.3749816417694,468.37835931777954,468.38928413391113,468.5375530719757,468.5375530719757,468.5375530719757,468.5375530719757,468.5375530719757,468.5375530719757,468.5375530719757,473.24251437187195,2,4.838989019393921,None,,,,,,,,,,,,,,,,,,125,4,2025-02-26_11h25.40.098,comp,2024.2.4,57.75432644113727,2025-02-26 11h26.14.613639 -0500,
