thisN,thisTrialN,thisRepN,effect,order,distance,config,diag,h_1,w_1,h_2,w_2,h_3,w_3,rect_choice.keys,rect_choice.rt,rect_choice.duration,instructions_loop.thisRepN,instructions_loop.thisTrialN,instructions_loop.thisN,instructions_loop.thisIndex,blocks.thisRepN,blocks.thisTrialN,blocks.thisN,blocks.thisIndex,trials.thisRepN,trials.thisTrialN,trials.thisN,trials.thisIndex,thisRow.t,notes,consent.started,agree_button.started,decline_button.started,consent_img.started,mouse.started,consent.stopped,agree_button.numClicks,agree_button.timesOn,agree_button.timesOff,decline_button.numClicks,decline_button.timesOn,decline_button.timesOff,mouse.x,mouse.y,mouse.leftButton,mouse.midButton,mouse.rightButton,mouse.time,mouse.clicked_name,exp_params.started,exp_params.stopped,welcome.started,welcome_text.started,welcome.stopped,instructions_1.started,instructions_1_text_1.started,instructions_1_text_2.started,key_resp.started,instructions_1.stopped,instructions_loop.key_resp.keys,instructions_loop.key_resp.rt,instructions_loop.key_resp.duration,instructions_2.started,instructions_2_text_1.started,instructions_2_text_2.started,key_resp_2.started,instructions_2.stopped,instructions_loop.key_resp_2.keys,instructions_loop.key_resp_2.rt,instructions_loop.key_resp_2.duration,instructions_3.started,instructions_3_text_1.started,r1_instr3.started,r2_instr3.started,r3_instr3.started,r1_instr3_label.started,r2_instr3_label.started,r3_instr3_label.started,instructions_3_text_3.started,instructions_3_text_4.started,key_resp_3.started,instructions_3.stopped,instructions_loop.key_resp_3.keys,instructions_loop.key_resp_3.rt,instructions_loop.key_resp_3.duration,instructions_4.started,instructions_4_text_1.started,instructions_4_text_3.started,instructions_4_text_2.started,key_resp_4.started,instructions_4.stopped,instructions_loop.key_resp_4.keys,instructions_loop.key_resp_4.rt,instructions_loop.key_resp_4.duration,instructions_5.started,instructions_5_text_1.started,instructions_5_text_2.started,key_resp_5.started,instructions_5.stopped,instructions_loop.key_resp_5.keys,instructions_loop.key_resp_5.rt,instructions_loop.key_resp_5.duration,start_exp.started,start_exp_text.started,key_resp_6.started,start_exp.stopped,key_resp_6.keys,key_resp_6.rt,key_resp_6.duration,h_1_tmp,w_1_tmp,h_2_tmp,w_2_tmp,h_3_tmp,w_3_tmp,config_tmp,config_tmp_1,r_1_x,r_1_y,r_2_x,r_2_y,r_3_x,r_3_y,pre_trial.started,pre_trial.stopped,choice_trial.started,rect_choice.started,r_1.started,r_2.started,r_3.started,r_1_label.started,r_2_label.started,r_3_label.started,prompt.started,choice_trial.stopped,trials.rect_choice.keys,trials.rect_choice.rt,trials.rect_choice.duration,end_block.started,end_block_text.started,end_block.stopped,end.started,end_text.started,key_resp_7.started,end.stopped,key_resp_7.keys,key_resp_7.rt,key_resp_7.duration,debriefing.started,debrief_form.started,end_debrief.started,debriefing.stopped,end_debrief.keys,end_debrief.rt,end_debrief.duration,participant,computer,date,expName,psychopyVersion,frameRate,expStart,
,,,,,,,,,,,,,,,,,,,,,,,,,,,,,,,0.017019987106323242,0.04394364356994629,0.04394364356994629,0.04394364356994629,0.016684293746948242,40.83932662010193,1,[40.794079065322876],[40.794092655181885],0,,,"[-470.0, -88.0]","[339.0, -485.0]","[0, 1]","[1, 0]","[0, 0]","[3.006760597229004, 40.82170367240906]","[None, 'agree_button']",,,,,,,,,,,,,,,,,,,,,,,,,,,,,,,,,,,,,,,,,,,,,,,,,,,,,,,,,,,,,,,,,,,,,,,,,,,,,,,,,,,,,,,,,,,,,,,,,,,,,,,,,,,126,5,2025-02-26_11h26.03.077,comp,2024.2.4,64.1177945321911,2025-02-26 11h26.14.316206 -0500,
,,,,,,,,,,,,,,,,,,,,,,,,,,,,,,,,,,,,,,,,,,,,,,,,,,40.83965301513672,40.83968734741211,,,,,,,,,,,,,,,,,,,,,,,,,,,,,,,,,,,,,,,,,,,,,,,,,,,,,,,,,,,,,,,,,,,,,,,,,,,,,,,,,,,,,,,,,,,,,,,,,,,,,,,,,126,5,2025-02-26_11h26.03.077,comp,2024.2.4,64.1177945321911,2025-02-26 11h26.14.316206 -0500,
,,,,,,,,,,,,,,,,,,,,,,,,,,,,,,,,,,,,,,,,,,,,,,,,,,,,40.8397114276886,40.852956771850586,42.848883390426636,,,,,,,,,,,,,,,,,,,,,,,,,,,,,,,,,,,,,,,,,,,,,,,,,,,,,,,,,,,,,,,,,,,,,,,,,,,,,,,,,,,,,,,,,,,,,,,,,,,,,,126,5,2025-02-26_11h26.03.077,comp,2024.2.4,64.1177945321911,2025-02-26 11h26.14.316206 -0500,
0,0,0,,,,,,,,,,,,,,,0,0,0,0,,,,,,,,,42.86559224128723,,,,,,,,,,,,,,,,,,,,,,,,,,42.84945249557495,42.86559224128723,42.86559224128723,44.348363161087036,45.2998833656311,space,0.9446399211883545,None,45.299964904785156,45.31562924385071,45.31562924385071,46.8150839805603,47.56697964668274,space,0.7345497608184814,None,47.56706762313843,47.58841013908386,47.58841013908386,47.58841013908386,47.58841013908386,47.58841013908386,47.58841013908386,47.58841013908386,47.58841013908386,47.58841013908386,49.08244514465332,51.36655616760254,space,2.266848087310791,None,51.366641998291016,51.38195562362671,51.38195562362671,51.38195562362671,52.882201194763184,56.60001540184021,space,3.7165260314941406,None,56.60010504722595,56.61533164978027,56.61533164978027,58.11550807952881,58.232927322387695,space,0.1145622730255127,None,58.233043909072876,58.24855041503906,58.24855041503906,59.23252487182617,space,0.9712324142456055,None,,,,,,,,,,,,,,,,,,,,,,,,,,,,,,,,,,,,,,,,,,,,,,,126,5,2025-02-26_11h26.03.077,comp,2024.2.4,64.1177945321911,2025-02-26 11h26.14.316206 -0500,
0,0,0,critical,hdw,20.0,2.1,upper,200.0,125.0,141.0,141.0,125.0,200.0,3,4.401404857635498,None,,,,,0,0,0,0,0,0,0,23,59.29141283035278,,,,,,,,,,,,,,,,,,,,,,,,,,,,,,,,,,,,,,,,,,,,,,,,,,,,,,,,,,,,,,,,,,,,,,,,,,,,,,,,,200.0,125.0,141.0,141.0,125.0,200.0,2.1,2.12,-229,-278,0,-251,266,256,59.2779483795166,59.27799391746521,59.27994775772095,59.29141283035278,59.43833065032959,59.43833065032959,59.43833065032959,59.43833065032959,59.43833065032959,59.43833065032959,59.43833065032959,63.69973349571228,3,4.401404857635498,None,,,,,,,,,,,,,,,,,,126,5,2025-02-26_11h26.03.077,comp,2024.2.4,64.1177945321911,2025-02-26 11h26.14.316206 -0500,
1,1,0,filler_square,None,None,None,None,None,None,None,None,None,None,2,1.1772286891937256,None,,,,,0,0,0,0,0,1,1,170,63.71516275405884,,,,,,,,,,,,,,,,,,,,,,,,,,,,,,,,,,,,,,,,,,,,,,,,,,,,,,,,,,,,,,,,,,,,,,,,,,,,,,,,,122.07968520000101,68.9709226337292,160.06627371976032,160.06627371976032,143.11524249974894,141.0469269438048,3.0,3.2,-211,-283,0,18,247,288,63.70066285133362,63.70070290565491,63.70267701148987,63.71516275405884,63.86515927314758,63.86515927314758,63.86515927314758,63.86515927314758,63.86515927314758,63.86515927314758,63.86515927314758,64.8995852470398,2,1.1772286891937256,None,,,,,,,,,,,,,,,,,,126,5,2025-02-26_11h26.03.077,comp,2024.2.4,64.1177945321911,2025-02-26 11h26.14.316206 -0500,
2,2,0,filler_random,None,None,None,None,None,None,None,None,None,None,2,1.0919039249420166,None,,,,,0,0,0,0,0,2,2,132,64.91517448425293,,,,,,,,,,,,,,,,,,,,,,,,,,,,,,,,,,,,,,,,,,,,,,,,,,,,,,,,,,,,,,,,,,,,,,,,,,,,,,,,,60.38105716913003,90.98315521575263,155.2537333497263,144.21469226009717,114.09917192705191,98.3330628069794,4.0,4.1,-214,-252,0,4,217,-270,64.90050435066223,64.90054535865784,64.90268206596375,64.91517448425293,65.06513237953186,65.06513237953186,65.06513237953186,65.06513237953186,65.06513237953186,65.06513237953186,65.06513237953186,66.02298212051392,2,1.0919039249420166,None,,,,,,,,,,,,,,,,,,126,5,2025-02-26_11h26.03.077,comp,2024.2.4,64.1177945321911,2025-02-26 11h26.14.316206 -0500,
3,3,0,critical,dwh,35.0,2.1,upper,127.0,127.0,125.0,200.0,200.0,125.0,2,2.1655430793762207,None,,,,,0,0,0,0,0,3,3,29,66.04850387573242,,,,,,,,,,,,,,,,,,,,,,,,,,,,,,,,,,,,,,,,,,,,,,,,,,,,,,,,,,,,,,,,,,,,,,,,,,,,,,,,,127.0,127.0,125.0,200.0,200.0,125.0,2.1,2.11,-260,282,0,281,258,-272,66.02428889274597,66.02432870864868,66.02697372436523,66.04850387573242,66.18231773376465,66.18231773376465,66.18231773376465,66.18231773376465,66.18231773376465,66.18231773376465,66.18231773376465,68.216477394104,2,2.1655430793762207,None,,,,,,,,,,,,,,,,,,126,5,2025-02-26_11h26.03.077,comp,2024.2.4,64.1177945321911,2025-02-26 11h26.14.316206 -0500,
4,4,0,critical,whd,35.0,1.0,upper,125.0,200.0,200.0,125.0,127.0,127.0,1,2.371582269668579,None,,,,,0,0,0,0,0,4,4,85,68.23182678222656,,,,,,,,,,,,,,,,,,,,,,,,,,,,,,,,,,,,,,,,,,,,,,,,,,,,,,,,,,,,,,,,,,,,,,,,,,,,,,,,,125.0,200.0,200.0,125.0,127.0,127.0,1.0,1.3,222,-285,480,-280,702,-288,68.21727776527405,68.21731925010681,68.21943926811218,68.23182678222656,68.3818290233612,68.3818290233612,68.3818290233612,68.3818290233612,68.3818290233612,68.3818290233612,68.3818290233612,70.6163239479065,1,2.371582269668579,None,,,,,,,,,,,,,,,,,,126,5,2025-02-26_11h26.03.077,comp,2024.2.4,64.1177945321911,2025-02-26 11h26.14.316206 -0500,
5,5,0,filler_random,None,None,None,None,None,None,None,None,None,None,2,1.0288631916046143,None,,,,,0,0,0,0,0,5,5,144,70.63159108161926,,,,,,,,,,,,,,,,,,,,,,,,,,,,,,,,,,,,,,,,,,,,,,,,,,,,,,,,,,,,,,,,,,,,,,,,,,,,,,,,,61.01170976635804,177.81854963008107,117.40039427548858,167.29319303242946,105.6866256723987,131.81644095964486,4.0,4.2,-269,19,0,-274,246,15,70.61722087860107,70.61727023124695,70.62050795555115,70.63159108161926,70.78164029121399,70.78164029121399,70.78164029121399,70.78164029121399,70.78164029121399,70.78164029121399,70.78164029121399,71.66627883911133,2,1.0288631916046143,None,,,,,,,,,,,,,,,,,,126,5,2025-02-26_11h26.03.077,comp,2024.2.4,64.1177945321911,2025-02-26 11h26.14.316206 -0500,
6,6,0,critical,whd,20.0,2.1,lower,57.0,133.0,133.0,57.0,78.0,78.0,2,2.3163461685180664,None,,,,,0,0,0,0,0,6,6,38,71.6817057132721,,,,,,,,,,,,,,,,,,,,,,,,,,,,,,,,,,,,,,,,,,,,,,,,,,,,,,,,,,,,,,,,,,,,,,,,,,,,,,,,,57.0,133.0,133.0,57.0,78.0,78.0,2.1,2.11,-191,254,0,264,164,-258,71.66707944869995,71.66711902618408,71.6691381931305,71.6817057132721,71.83152651786804,71.83152651786804,71.83152651786804,71.83152651786804,71.83152651786804,71.83152651786804,71.83152651786804,73.99954152107239,2,2.3163461685180664,None,,,,,,,,,,,,,,,,,,126,5,2025-02-26_11h26.03.077,comp,2024.2.4,64.1177945321911,2025-02-26 11h26.14.316206 -0500,
7,7,0,critical,hdw,35.0,2.1,lower,133.0,57.0,70.0,70.0,57.0,133.0,1,2.0366053581237793,None,,,,,0,0,0,0,0,7,7,20,74.01503157615662,,,,,,,,,,,,,,,,,,,,,,,,,,,,,,,,,,,,,,,,,,,,,,,,,,,,,,,,,,,,,,,,,,,,,,,,,,,,,,,,,133.0,57.0,70.0,70.0,57.0,133.0,2.1,2.11,-160,274,0,254,198,-283,74.00032496452332,74.00036549568176,74.00240969657898,74.01503157615662,74.16496992111206,74.16496992111206,74.16496992111206,74.16496992111206,74.16496992111206,74.16496992111206,74.16496992111206,76.06594252586365,1,2.0366053581237793,None,,,,,,,,,,,,,,,,,,126,5,2025-02-26_11h26.03.077,comp,2024.2.4,64.1177945321911,2025-02-26 11h26.14.316206 -0500,
8,8,0,filler_square,None,None,None,None,None,None,None,None,None,None,2,1.305974006652832,None,,,,,0,0,0,0,0,8,8,175,76.08143520355225,,,,,,,,,,,,,,,,,,,,,,,,,,,,,,,,,,,,,,,,,,,,,,,,,,,,,,,,,,,,,,,,,,,,,,,,,,,,,,,,,81.29228005555552,67.90500031973062,92.92659908769829,75.44019269786867,98.03585063063024,98.03585063063024,2.1,2.11,-168,281,0,255,183,-267,76.0670154094696,76.06705784797668,76.06957983970642,76.08143520355225,76.23162198066711,76.23162198066711,76.23162198066711,76.23162198066711,76.23162198066711,76.23162198066711,76.23162198066711,77.39939785003662,2,1.305974006652832,None,,,,,,,,,,,,,,,,,,126,5,2025-02-26_11h26.03.077,comp,2024.2.4,64.1177945321911,2025-02-26 11h26.14.316206 -0500,
9,9,0,filler_random,None,None,None,None,None,None,None,None,None,None,2,1.2299671173095703,None,,,,,0,0,0,0,0,9,9,158,77.41477417945862,,,,,,,,,,,,,,,,,,,,,,,,,,,,,,,,,,,,,,,,,,,,,,,,,,,,,,,,,,,,,,,,,,,,,,,,,,,,,,,,,81.71862351625491,124.96010956341327,134.8034739162154,151.1323948133774,60.40663011455999,73.0736266270943,4.0,4.1,-234,-278,0,-8,208,-256,77.40033602714539,77.40037798881531,77.40266489982605,77.41477417945862,77.56500506401062,77.56500506401062,77.56500506401062,77.56500506401062,77.56500506401062,77.56500506401062,77.56500506401062,78.64942383766174,2,1.2299671173095703,None,,,,,,,,,,,,,,,,,,126,5,2025-02-26_11h26.03.077,comp,2024.2.4,64.1177945321911,2025-02-26 11h26.14.316206 -0500,
10,10,0,filler_square,None,None,None,None,None,None,None,None,None,None,1,1.8755109310150146,None,,,,,0,0,0,0,0,10,10,199,78.66489958763123,,,,,,,,,,,,,,,,,,,,,,,,,,,,,,,,,,,,,,,,,,,,,,,,,,,,,,,,,,,,,,,,,,,,,,,,,,,,,,,,,86.75949725904994,86.75949725904994,59.69644844768647,84.71901481991958,75.99917958561257,74.19756530051806,2.2,2.22,-182,259,0,-271,175,-276,78.65035843849182,78.65039920806885,78.65264868736267,78.66489958763123,78.81491136550903,78.81491136550903,78.81491136550903,78.81491136550903,78.81491136550903,78.81491136550903,78.81491136550903,80.5493574142456,1,1.8755109310150146,None,,,,,,,,,,,,,,,,,,126,5,2025-02-26_11h26.03.077,comp,2024.2.4,64.1177945321911,2025-02-26 11h26.14.316206 -0500,
11,11,0,filler_random,None,None,None,None,None,None,None,None,None,None,1,1.2645606994628906,None,,,,,0,0,0,0,0,11,11,168,80.56499433517456,,,,,,,,,,,,,,,,,,,,,,,,,,,,,,,,,,,,,,,,,,,,,,,,,,,,,,,,,,,,,,,,,,,,,,,,,,,,,,,,,128.41927086705118,194.67061544848002,83.13501190879118,137.9004799056586,60.697144433188285,114.59313552532362,4.0,4.1,-262,-257,0,-1,222,-277,80.55023789405823,80.55029654502869,80.55252695083618,80.56499433517456,80.71501421928406,80.71501421928406,80.71501421928406,80.71501421928406,80.71501421928406,80.71501421928406,80.71501421928406,81.83302736282349,1,1.2645606994628906,None,,,,,,,,,,,,,,,,,,126,5,2025-02-26_11h26.03.077,comp,2024.2.4,64.1177945321911,2025-02-26 11h26.14.316206 -0500,
12,12,0,critical,whd,20.0,2.1,upper,125.0,200.0,200.0,125.0,141.0,141.0,1,3.259392261505127,None,,,,,0,0,0,0,0,12,12,39,81.8488986492157,,,,,,,,,,,,,,,,,,,,,,,,,,,,,,,,,,,,,,,,,,,,,,,,,,,,,,,,,,,,,,,,,,,,,,,,,,,,,,,,,125.0,200.0,200.0,125.0,141.0,141.0,2.1,2.11,-258,287,0,256,229,-288,81.83386039733887,81.83390164375305,81.8361918926239,81.8488986492157,81.99838852882385,81.99838852882385,81.99838852882385,81.99838852882385,81.99838852882385,81.99838852882385,81.99838852882385,85.11618065834045,1,3.259392261505127,None,,,,,,,,,,,,,,,,,,126,5,2025-02-26_11h26.03.077,comp,2024.2.4,64.1177945321911,2025-02-26 11h26.14.316206 -0500,
13,13,0,critical,hdw,35.0,1.0,upper,200.0,125.0,127.0,127.0,125.0,200.0,3,3.033540964126587,None,,,,,0,0,0,0,0,13,13,109,85.1317138671875,,,,,,,,,,,,,,,,,,,,,,,,,,,,,,,,,,,,,,,,,,,,,,,,,,,,,,,,,,,,,,,,,,,,,,,,,,,,,,,,,200.0,125.0,127.0,127.0,125.0,200.0,1.0,1.3,258,-266,480,-280,740,-289,85.11702919006348,85.1170711517334,85.11913180351257,85.1317138671875,85.2819664478302,85.2819664478302,85.2819664478302,85.2819664478302,85.2819664478302,85.2819664478302,85.2819664478302,88.1827278137207,3,3.033540964126587,None,,,,,,,,,,,,,,,,,,126,5,2025-02-26_11h26.03.077,comp,2024.2.4,64.1177945321911,2025-02-26 11h26.14.316206 -0500,
14,14,0,critical,whd,35.0,2.1,upper,125.0,200.0,200.0,125.0,127.0,127.0,1,1.8945486545562744,None,,,,,0,0,0,0,0,14,14,13,88.19805073738098,,,,,,,,,,,,,,,,,,,,,,,,,,,,,,,,,,,,,,,,,,,,,,,,,,,,,,,,,,,,,,,,,,,,,,,,,,,,,,,,,125.0,200.0,200.0,125.0,127.0,127.0,2.1,2.11,-258,250,0,253,222,-269,88.18353486061096,88.18357467651367,88.18592882156372,88.19805073738098,88.3489601612091,88.3489601612091,88.3489601612091,88.3489601612091,88.3489601612091,88.3489601612091,88.3489601612091,90.09955382347107,1,1.8945486545562744,None,,,,,,,,,,,,,,,,,,126,5,2025-02-26_11h26.03.077,comp,2024.2.4,64.1177945321911,2025-02-26 11h26.14.316206 -0500,
15,15,0,filler_square,None,None,None,None,None,None,None,None,None,None,3,1.9683313369750977,None,,,,,0,0,0,0,0,15,15,201,90.1150496006012,,,,,,,,,,,,,,,,,,,,,,,,,,,,,,,,,,,,,,,,,,,,,,,,,,,,,,,,,,,,,,,,,,,,,,,,,,,,,,,,,59.45252189612721,58.047472047882714,59.97954876418681,59.97954876418681,58.367762338905145,57.705216010141676,1.0,1.3,325,-257,480,-266,635,-280,90.10052180290222,90.10056376457214,90.10284495353699,90.1150496006012,90.26480793952942,90.26480793952942,90.26480793952942,90.26480793952942,90.26480793952942,90.26480793952942,90.26480793952942,92.09929490089417,3,1.9683313369750977,None,,,,,,,,,,,,,,,,,,126,5,2025-02-26_11h26.03.077,comp,2024.2.4,64.1177945321911,2025-02-26 11h26.14.316206 -0500,
16,16,0,catch,None,None,None,None,None,None,None,None,None,None,3,0.9687774181365967,None,,,,,0,0,0,0,0,16,16,126,92.11475539207458,,,,,,,,,,,,,,,,,,,,,,,,,,,,,,,,,,,,,,,,,,,,,,,,,,,,,,,,,,,,,,,,,,,,,,,,,,,,,,,,,88,102,70,120,130,195,2.2,2.22,-207,288,0,-281,254,-272,92.10034203529358,92.10041165351868,92.10293388366699,92.11475539207458,92.26491808891296,92.26491808891296,92.26491808891296,92.26491808891296,92.26491808891296,92.26491808891296,92.26491808891296,93.0992579460144,3,0.9687774181365967,None,,,,,,,,,,,,,,,,,,126,5,2025-02-26_11h26.03.077,comp,2024.2.4,64.1177945321911,2025-02-26 11h26.14.316206 -0500,
17,17,0,critical,dhw,20.0,4.0,lower,78.0,78.0,133.0,57.0,57.0,133.0,1,1.952599048614502,None,,,,,0,0,0,0,0,17,17,58,93.11472129821777,,,,,,,,,,,,,,,,,,,,,,,,,,,,,,,,,,,,,,,,,,,,,,,,,,,,,,,,,,,,,,,,,,,,,,,,,,,,,,,,,78.0,78.0,133.0,57.0,57.0,133.0,4.0,4.1,-164,-265,0,-19,191,-276,93.10006713867188,93.10010957717896,93.10212206840515,93.11472129821777,93.26470708847046,93.26470708847046,93.26470708847046,93.26470708847046,93.26470708847046,93.26470708847046,93.26470708847046,95.08258938789368,1,1.952599048614502,None,,,,,,,,,,,,,,,,,,126,5,2025-02-26_11h26.03.077,comp,2024.2.4,64.1177945321911,2025-02-26 11h26.14.316206 -0500,
18,18,0,filler_random,None,None,None,None,None,None,None,None,None,None,3,1.0421621799468994,None,,,,,0,0,0,0,0,18,18,167,95.0979962348938,,,,,,,,,,,,,,,,,,,,,,,,,,,,,,,,,,,,,,,,,,,,,,,,,,,,,,,,,,,,,,,,,,,,,,,,,,,,,,,,,80.9363007753498,149.63369260523484,107.89723832038207,80.6478184479016,105.2360475049579,162.32056291050145,2.2,2.22,-211,260,0,-273,217,-256,95.08351254463196,95.08355569839478,95.0856237411499,95.0979962348938,95.24823498725891,95.24823498725891,95.24823498725891,95.24823498725891,95.24823498725891,95.24823498725891,95.24823498725891,96.1494197845459,3,1.0421621799468994,None,,,,,,,,,,,,,,,,,,126,5,2025-02-26_11h26.03.077,comp,2024.2.4,64.1177945321911,2025-02-26 11h26.14.316206 -0500,
19,19,0,critical,hwd,35.0,1.0,upper,200.0,125.0,125.0,200.0,127.0,127.0,2,1.649517297744751,None,,,,,0,0,0,0,0,19,19,97,96.16498684883118,,,,,,,,,,,,,,,,,,,,,,,,,,,,,,,,,,,,,,,,,,,,,,,,,,,,,,,,,,,,,,,,,,,,,,,,,,,,,,,,,200.0,125.0,125.0,200.0,127.0,127.0,1.0,1.2,-258,9,0,18,260,8,96.15018463134766,96.1502251625061,96.15231370925903,96.16498684883118,96.31510996818542,96.31510996818542,96.31510996818542,96.31510996818542,96.31510996818542,96.31510996818542,96.31510996818542,97.81625866889954,2,1.649517297744751,None,,,,,,,,,,,,,,,,,,126,5,2025-02-26_11h26.03.077,comp,2024.2.4,64.1177945321911,2025-02-26 11h26.14.316206 -0500,
20,20,0,filler_random,None,None,None,None,None,None,None,None,None,None,1,0.9085323810577393,None,,,,,0,0,0,0,0,20,20,152,97.83152341842651,,,,,,,,,,,,,,,,,,,,,,,,,,,,,,,,,,,,,,,,,,,,,,,,,,,,,,,,,,,,,,,,,,,,,,,,,,,,,,,,,183.3331698329735,161.94640708596032,134.9988345367735,158.12229753825451,83.45954395161323,137.15710575282122,2.1,2.12,-256,-285,0,-274,244,266,97.81731581687927,97.8173577785492,97.81951546669006,97.83152341842651,97.9818160533905,97.9818160533905,97.9818160533905,97.9818160533905,97.9818160533905,97.9818160533905,97.9818160533905,98.74941301345825,1,0.9085323810577393,None,,,,,,,,,,,,,,,,,,126,5,2025-02-26_11h26.03.077,comp,2024.2.4,64.1177945321911,2025-02-26 11h26.14.316206 -0500,
21,21,0,catch,None,None,None,None,None,None,None,None,None,None,3,0.950507402420044,None,,,,,0,0,0,0,0,21,21,120,98.76490998268127,,,,,,,,,,,,,,,,,,,,,,,,,,,,,,,,,,,,,,,,,,,,,,,,,,,,,,,,,,,,,,,,,,,,,,,,,,,,,,,,,58,132,106,84,135,190,3.0,3.2,-204,-251,0,14,233,255,98.75046181678772,98.75050377845764,98.75281548500061,98.76490998268127,98.91477966308594,98.91477966308594,98.91477966308594,98.91477966308594,98.91477966308594,98.91477966308594,98.91477966308594,99.73248195648193,3,0.950507402420044,None,,,,,,,,,,,,,,,,,,126,5,2025-02-26_11h26.03.077,comp,2024.2.4,64.1177945321911,2025-02-26 11h26.14.316206 -0500,
22,22,0,filler_random,None,None,None,None,None,None,None,None,None,None,3,0.560173511505127,None,,,,,0,0,0,0,0,22,22,165,99.74792313575745,,,,,,,,,,,,,,,,,,,,,,,,,,,,,,,,,,,,,,,,,,,,,,,,,,,,,,,,,,,,,,,,,,,,,,,,,,,,,,,,,198.10595734415625,57.734444273894646,145.40744262899454,117.28338814762989,158.10207778189846,160.29095353476276,3.0,3.2,-184,-283,0,-16,235,261,99.73340320587158,99.73344492912292,99.73577213287354,99.74792313575745,99.89820766448975,99.89820766448975,99.89820766448975,99.89820766448975,99.89820766448975,99.89820766448975,99.89820766448975,100.31604719161987,3,0.560173511505127,None,,,,,,,,,,,,,,,,,,126,5,2025-02-26_11h26.03.077,comp,2024.2.4,64.1177945321911,2025-02-26 11h26.14.316206 -0500,
23,23,0,filler_square,None,None,None,None,None,None,None,None,None,None,2,0.8168649673461914,None,,,,,0,0,0,0,0,23,23,204,100.33160185813904,,,,,,,,,,,,,,,,,,,,,,,,,,,,,,,,,,,,,,,,,,,,,,,,,,,,,,,,,,,,,,,,,,,,,,,,,,,,,,,,,99.83518915795321,84.54717787342865,114.94340197536992,114.94340197536992,88.65904674871021,69.20681412843089,2.1,2.12,-196,-251,0,-254,188,257,100.31702256202698,100.31706428527832,100.31947922706604,100.33160185813904,100.4814088344574,100.4814088344574,100.4814088344574,100.4814088344574,100.4814088344574,100.4814088344574,100.4814088344574,101.16593861579895,2,0.8168649673461914,None,,,,,,,,,,,,,,,,,,126,5,2025-02-26_11h26.03.077,comp,2024.2.4,64.1177945321911,2025-02-26 11h26.14.316206 -0500,
24,24,0,critical,dwh,20.0,1.0,upper,141.0,141.0,125.0,200.0,200.0,125.0,2,1.3912689685821533,None,,,,,0,0,0,0,0,24,24,67,101.1813383102417,,,,,,,,,,,,,,,,,,,,,,,,,,,,,,,,,,,,,,,,,,,,,,,,,,,,,,,,,,,,,,,,,,,,,,,,,,,,,,,,,141.0,141.0,125.0,200.0,200.0,125.0,1.0,1.1,-746,290,-480,257,-222,254,101.16685891151428,101.16690182685852,101.16899585723877,101.1813383102417,101.33164286613464,101.33164286613464,101.33164286613464,101.33164286613464,101.33164286613464,101.33164286613464,101.33164286613464,102.5826563835144,2,1.3912689685821533,None,,,,,,,,,,,,,,,,,,126,5,2025-02-26_11h26.03.077,comp,2024.2.4,64.1177945321911,2025-02-26 11h26.14.316206 -0500,
25,25,0,critical,hdw,20.0,2.1,lower,133.0,57.0,78.0,78.0,57.0,133.0,2,1.5337224006652832,None,,,,,0,0,0,0,0,25,25,46,102.59821915626526,,,,,,,,,,,,,,,,,,,,,,,,,,,,,,,,,,,,,,,,,,,,,,,,,,,,,,,,,,,,,,,,,,,,,,,,,,,,,,,,,133.0,57.0,78.0,78.0,57.0,133.0,2.1,2.12,-164,-261,0,-266,202,267,102.58348512649536,102.58352756500244,102.58556413650513,102.59821915626526,102.74796271324158,102.74796271324158,102.74796271324158,102.74796271324158,102.74796271324158,102.74796271324158,102.74796271324158,104.1491346359253,2,1.5337224006652832,None,,,,,,,,,,,,,,,,,,126,5,2025-02-26_11h26.03.077,comp,2024.2.4,64.1177945321911,2025-02-26 11h26.14.316206 -0500,
26,26,0,filler_random,None,None,None,None,None,None,None,None,None,None,2,0.8075873851776123,None,,,,,0,0,0,0,0,26,26,140,104.16457343101501,,,,,,,,,,,,,,,,,,,,,,,,,,,,,,,,,,,,,,,,,,,,,,,,,,,,,,,,,,,,,,,,,,,,,,,,,,,,,,,,,62.55850275667439,131.87096216558143,118.5777795610436,128.91586292614002,116.6725220000373,64.43866226408898,2.1,2.11,-226,262,0,265,193,-263,104.15010190010071,104.15014219284058,104.15275549888611,104.16457343101501,104.31483054161072,104.31483054161072,104.31483054161072,104.31483054161072,104.31483054161072,104.31483054161072,104.31483054161072,104.98253512382507,2,0.8075873851776123,None,,,,,,,,,,,,,,,,,,126,5,2025-02-26_11h26.03.077,comp,2024.2.4,64.1177945321911,2025-02-26 11h26.14.316206 -0500,
27,27,0,filler_random,None,None,None,None,None,None,None,None,None,None,2,0.8618535995483398,None,,,,,0,0,0,0,0,27,27,131,104.99822282791138,,,,,,,,,,,,,,,,,,,,,,,,,,,,,,,,,,,,,,,,,,,,,,,,,,,,,,,,,,,,,,,,,,,,,,,,,,,,,,,,,188.74911946598627,116.87298019697462,126.78415373017924,198.64932065614485,193.94998914708486,66.07748232421692,3.0,3.1,-254,258,0,11,228,-260,104.9834418296814,104.98348379135132,104.98580503463745,104.99822282791138,105.14830088615417,105.14830088615417,105.14830088615417,105.14830088615417,105.14830088615417,105.14830088615417,105.14830088615417,105.86606645584106,2,0.8618535995483398,None,,,,,,,,,,,,,,,,,,126,5,2025-02-26_11h26.03.077,comp,2024.2.4,64.1177945321911,2025-02-26 11h26.14.316206 -0500,
28,28,0,filler_square,None,None,None,None,None,None,None,None,None,None,2,0.7477531433105469,None,,,,,0,0,0,0,0,28,28,197,105.8814423084259,,,,,,,,,,,,,,,,,,,,,,,,,,,,,,,,,,,,,,,,,,,,,,,,,,,,,,,,,,,,,,,,,,,,,,,,,,,,,,,,,106.34178417895853,70.87502603024916,196.27977795556242,196.27977795556242,133.74097574559434,190.48274721884488,2.1,2.11,-230,261,0,263,289,-267,105.86714339256287,105.86718583106995,105.86966919898987,105.8814423084259,106.03153967857361,106.03153967857361,106.03153967857361,106.03153967857361,106.03153967857361,106.03153967857361,106.03153967857361,106.6328592300415,2,0.7477531433105469,None,,,,,,,,,,,,,,,,,,126,5,2025-02-26_11h26.03.077,comp,2024.2.4,64.1177945321911,2025-02-26 11h26.14.316206 -0500,
29,29,0,filler_random,None,None,None,None,None,None,None,None,None,None,3,0.9390394687652588,None,,,,,0,0,0,0,0,29,29,160,106.64818739891052,,,,,,,,,,,,,,,,,,,,,,,,,,,,,,,,,,,,,,,,,,,,,,,,,,,,,,,,,,,,,,,,,,,,,,,,,,,,,,,,,137.49509969337657,121.21345418060646,161.4534442818876,90.85413576190189,196.81706883955025,162.3808116322747,3.0,3.1,-202,276,0,3,223,-280,106.63374471664429,106.63378477096558,106.63576102256775,106.64818739891052,106.79837942123413,106.79837942123413,106.79837942123413,106.79837942123413,106.79837942123413,106.79837942123413,106.79837942123413,107.59940576553345,3,0.9390394687652588,None,,,,,,,,,,,,,,,,,,126,5,2025-02-26_11h26.03.077,comp,2024.2.4,64.1177945321911,2025-02-26 11h26.14.316206 -0500,
30,30,0,critical,whd,20.0,2.1,upper,125.0,200.0,200.0,125.0,141.0,141.0,1,1.15047025680542,None,,,,,0,0,0,0,0,30,30,15,107.61462950706482,,,,,,,,,,,,,,,,,,,,,,,,,,,,,,,,,,,,,,,,,,,,,,,,,,,,,,,,,,,,,,,,,,,,,,,,,,,,,,,,,125.0,200.0,200.0,125.0,141.0,141.0,2.1,2.11,-258,279,0,260,229,-279,107.60022139549255,107.60027647018433,107.60229563713074,107.61462950706482,107.7648549079895,107.7648549079895,107.7648549079895,107.7648549079895,107.7648549079895,107.7648549079895,107.7648549079895,108.78264045715332,1,1.15047025680542,None,,,,,,,,,,,,,,,,,,126,5,2025-02-26_11h26.03.077,comp,2024.2.4,64.1177945321911,2025-02-26 11h26.14.316206 -0500,
31,31,0,filler_random,None,None,None,None,None,None,None,None,None,None,1,0.9733226299285889,None,,,,,0,0,0,0,0,31,31,169,108.79801321029663,,,,,,,,,,,,,,,,,,,,,,,,,,,,,,,,,,,,,,,,,,,,,,,,,,,,,,,,,,,,,,,,,,,,,,,,,,,,,,,,,134.34720134407553,174.78351244206047,100.10048327845303,121.66621671959457,108.94789351936679,141.8878996729759,1.0,1.1,-724,285,-480,289,-252,253,108.78355431556702,108.78359627723694,108.78589272499084,108.79801321029663,108.94848942756653,108.94848942756653,108.94848942756653,108.94848942756653,108.94848942756653,108.94848942756653,108.94848942756653,109.78282403945923,1,0.9733226299285889,None,,,,,,,,,,,,,,,,,,126,5,2025-02-26_11h26.03.077,comp,2024.2.4,64.1177945321911,2025-02-26 11h26.14.316206 -0500,
32,32,0,critical,wdh,20.0,4.0,lower,57.0,133.0,78.0,78.0,133.0,57.0,3,1.4617114067077637,None,,,,,0,0,0,0,0,32,32,82,109.79830884933472,,,,,,,,,,,,,,,,,,,,,,,,,,,,,,,,,,,,,,,,,,,,,,,,,,,,,,,,,,,,,,,,,,,,,,,,,,,,,,,,,57.0,133.0,78.0,78.0,133.0,57.0,4.0,4.1,-202,-275,0,1,164,-263,109.78363633155823,109.78367710113525,109.78604483604431,109.79830884933472,109.94801497459412,109.94801497459412,109.94801497459412,109.94801497459412,109.94801497459412,109.94801497459412,109.94801497459412,111.26576137542725,3,1.4617114067077637,None,,,,,,,,,,,,,,,,,,126,5,2025-02-26_11h26.03.077,comp,2024.2.4,64.1177945321911,2025-02-26 11h26.14.316206 -0500,
33,33,0,critical,wdh,35.0,2.1,upper,125.0,200.0,127.0,127.0,200.0,125.0,1,1.5630030632019043,None,,,,,0,0,0,0,0,33,33,33,111.28140664100647,,,,,,,,,,,,,,,,,,,,,,,,,,,,,,,,,,,,,,,,,,,,,,,,,,,,,,,,,,,,,,,,,,,,,,,,,,,,,,,,,125.0,200.0,127.0,127.0,200.0,125.0,2.1,2.12,-260,-271,0,-259,222,279,111.26654744148254,111.26658773422241,111.26889276504517,111.28140664100647,111.43161606788635,111.43161606788635,111.43161606788635,111.43161606788635,111.43161606788635,111.43161606788635,111.43161606788635,112.84955430030823,1,1.5630030632019043,None,,,,,,,,,,,,,,,,,,126,5,2025-02-26_11h26.03.077,comp,2024.2.4,64.1177945321911,2025-02-26 11h26.14.316206 -0500,
34,34,0,filler_random,None,None,None,None,None,None,None,None,None,None,3,0.795067548751831,None,,,,,0,0,0,0,0,34,34,146,112.86489510536194,,,,,,,,,,,,,,,,,,,,,,,,,,,,,,,,,,,,,,,,,,,,,,,,,,,,,,,,,,,,,,,,,,,,,,,,,,,,,,,,,199.92385067339706,99.21731426749567,97.29914046514108,65.06740458521762,166.2077890118617,145.64079875245073,2.2,2.21,-178,-288,0,252,201,273,112.85050225257874,112.8505437374115,112.85257244110107,112.86489510536194,113.01480507850647,113.01480507850647,113.01480507850647,113.01480507850647,113.01480507850647,113.01480507850647,113.01480507850647,113.66598963737488,3,0.795067548751831,None,,,,,,,,,,,,,,,,,,126,5,2025-02-26_11h26.03.077,comp,2024.2.4,64.1177945321911,2025-02-26 11h26.14.316206 -0500,
35,35,0,critical,hwd,35.0,2.1,lower,133.0,57.0,57.0,133.0,70.0,70.0,1,2.2999892234802246,None,,,,,0,0,0,0,0,35,35,16,113.68147015571594,,,,,,,,,,,,,,,,,,,,,,,,,,,,,,,,,,,,,,,,,,,,,,,,,,,,,,,,,,,,,,,,,,,,,,,,,,,,,,,,,133.0,57.0,57.0,133.0,70.0,70.0,2.1,2.11,-191,261,0,252,198,-287,113.66681575775146,113.66685628890991,113.66922640800476,113.68147015571594,113.83137917518616,113.83137917518616,113.83137917518616,113.83137917518616,113.83137917518616,113.83137917518616,113.83137917518616,115.98262572288513,1,2.2999892234802246,None,,,,,,,,,,,,,,,,,,126,5,2025-02-26_11h26.03.077,comp,2024.2.4,64.1177945321911,2025-02-26 11h26.14.316206 -0500,
36,36,0,critical,hwd,20.0,2.1,upper,200.0,125.0,125.0,200.0,141.0,141.0,1,1.5010356903076172,None,,,,,0,0,0,0,0,36,36,19,115.99814438819885,,,,,,,,,,,,,,,,,,,,,,,,,,,,,,,,,,,,,,,,,,,,,,,,,,,,,,,,,,,,,,,,,,,,,,,,,,,,,,,,,200.0,125.0,125.0,200.0,141.0,141.0,2.1,2.11,-258,256,0,258,266,-273,115.98342061042786,115.98346090316772,115.98589754104614,115.99814438819885,116.14822506904602,116.14822506904602,116.14822506904602,116.14822506904602,116.14822506904602,116.14822506904602,116.14822506904602,117.51604294776917,1,1.5010356903076172,None,,,,,,,,,,,,,,,,,,126,5,2025-02-26_11h26.03.077,comp,2024.2.4,64.1177945321911,2025-02-26 11h26.14.316206 -0500,
37,37,0,critical,dhw,20.0,2.1,upper,141.0,141.0,200.0,125.0,125.0,200.0,2,1.1929149627685547,None,,,,,0,0,0,0,0,37,37,3,117.53126001358032,,,,,,,,,,,,,,,,,,,,,,,,,,,,,,,,,,,,,,,,,,,,,,,,,,,,,,,,,,,,,,,,,,,,,,,,,,,,,,,,,141.0,141.0,200.0,125.0,125.0,200.0,2.1,2.11,-229,274,0,289,258,-257,117.51689863204956,117.51693987846375,117.51952791213989,117.53126001358032,117.68162822723389,117.68162822723389,117.68162822723389,117.68162822723389,117.68162822723389,117.68162822723389,117.68162822723389,118.7326717376709,2,1.1929149627685547,None,,,,,,,,,,,,,,,,,,126,5,2025-02-26_11h26.03.077,comp,2024.2.4,64.1177945321911,2025-02-26 11h26.14.316206 -0500,
38,38,0,filler_random,None,None,None,None,None,None,None,None,None,None,1,0.9198939800262451,None,,,,,0,0,0,0,0,38,38,166,118.74809765815735,,,,,,,,,,,,,,,,,,,,,,,,,,,,,,,,,,,,,,,,,,,,,,,,,,,,,,,,,,,,,,,,,,,,,,,,,,,,,,,,,124.04870216908967,180.9088600418854,75.44899385043838,189.64364937608312,72.4032513879211,141.79266724210015,1.0,1.2,-281,-18,0,-3,262,11,118.73356175422668,118.73360323905945,118.73590540885925,118.74809765815735,118.89813804626465,118.89813804626465,118.89813804626465,118.89813804626465,118.89813804626465,118.89813804626465,118.89813804626465,119.68261623382568,1,0.9198939800262451,None,,,,,,,,,,,,,,,,,,126,5,2025-02-26_11h26.03.077,comp,2024.2.4,64.1177945321911,2025-02-26 11h26.14.316206 -0500,
39,39,0,filler_square,None,None,None,None,None,None,None,None,None,None,3,1.4342715740203857,None,,,,,0,0,0,0,0,39,39,202,119.69790625572205,,,,,,,,,,,,,,,,,,,,,,,,,,,,,,,,,,,,,,,,,,,,,,,,,,,,,,,,,,,,,,,,,,,,,,,,,,,,,,,,,69.4350880661125,78.07412380670615,95.8095176551881,95.8095176551881,90.31757470010275,94.23696323102999,2.2,2.21,-183,-278,0,252,191,255,119.6836199760437,119.68366074562073,119.68570971488953,119.69790625572205,119.84803295135498,119.84803295135498,119.84803295135498,119.84803295135498,119.84803295135498,119.84803295135498,119.84803295135498,121.14965605735779,3,1.4342715740203857,None,,,,,,,,,,,,,,,,,,126,5,2025-02-26_11h26.03.077,comp,2024.2.4,64.1177945321911,2025-02-26 11h26.14.316206 -0500,
40,40,0,critical,whd,35.0,4.0,upper,125.0,200.0,200.0,125.0,127.0,127.0,1,1.4645581245422363,None,,,,,0,0,0,0,0,40,40,89,121.16504168510437,,,,,,,,,,,,,,,,,,,,,,,,,,,,,,,,,,,,,,,,,,,,,,,,,,,,,,,,,,,,,,,,,,,,,,,,,,,,,,,,,125.0,200.0,200.0,125.0,127.0,127.0,4.0,4.1,-258,-268,0,7,222,-254,121.1507875919342,121.1508276462555,121.15271830558777,121.16504168510437,121.31531834602356,121.31531834602356,121.31531834602356,121.31531834602356,121.31531834602356,121.31531834602356,121.31531834602356,122.6328992843628,1,1.4645581245422363,None,,,,,,,,,,,,,,,,,,126,5,2025-02-26_11h26.03.077,comp,2024.2.4,64.1177945321911,2025-02-26 11h26.14.316206 -0500,
41,41,0,filler_random,None,None,None,None,None,None,None,None,None,None,1,1.0839886665344238,None,,,,,0,0,0,0,0,41,41,142,122.64803767204285,,,,,,,,,,,,,,,,,,,,,,,,,,,,,,,,,,,,,,,,,,,,,,,,,,,,,,,,,,,,,,,,,,,,,,,,,,,,,,,,,166.53765549105572,171.48235898979434,145.63331557292605,71.06931888192685,137.68754652112818,162.32118890747893,2.1,2.12,-217,-287,0,-266,213,266,122.63381266593933,122.63385367393494,122.6359007358551,122.64803767204285,122.79820370674133,122.79820370674133,122.79820370674133,122.79820370674133,122.79820370674133,122.79820370674133,122.79820370674133,123.74920916557312,1,1.0839886665344238,None,,,,,,,,,,,,,,,,,,126,5,2025-02-26_11h26.03.077,comp,2024.2.4,64.1177945321911,2025-02-26 11h26.14.316206 -0500,
42,42,0,critical,whd,35.0,1.0,lower,57.0,133.0,133.0,57.0,70.0,70.0,1,1.5915913581848145,None,,,,,0,0,0,0,0,42,42,84,123.76441097259521,,,,,,,,,,,,,,,,,,,,,,,,,,,,,,,,,,,,,,,,,,,,,,,,,,,,,,,,,,,,,,,,,,,,,,,,,,,,,,,,,57.0,133.0,133.0,57.0,70.0,70.0,1.0,1.3,289,-286,480,-261,640,-280,123.7501289844513,123.75016903877258,123.75242209434509,123.76441097259521,123.91460680961609,123.91460680961609,123.91460680961609,123.91460680961609,123.91460680961609,123.91460680961609,123.91460680961609,125.36575961112976,1,1.5915913581848145,None,,,,,,,,,,,,,,,,,,126,5,2025-02-26_11h26.03.077,comp,2024.2.4,64.1177945321911,2025-02-26 11h26.14.316206 -0500,
43,43,0,critical,dwh,20.0,2.1,upper,141.0,141.0,125.0,200.0,200.0,125.0,2,0.7835845947265625,None,,,,,0,0,0,0,0,43,43,31,125.38138556480408,,,,,,,,,,,,,,,,,,,,,,,,,,,,,,,,,,,,,,,,,,,,,,,,,,,,,,,,,,,,,,,,,,,,,,,,,,,,,,,,,141.0,141.0,125.0,200.0,200.0,125.0,2.1,2.12,-266,-254,0,-275,258,287,125.3665943145752,125.36663746833801,125.36896347999573,125.38138556480408,125.53159737586975,125.53159737586975,125.53159737586975,125.53159737586975,125.53159737586975,125.53159737586975,125.53159737586975,126.18250751495361,2,0.7835845947265625,None,,,,,,,,,,,,,,,,,,126,5,2025-02-26_11h26.03.077,comp,2024.2.4,64.1177945321911,2025-02-26 11h26.14.316206 -0500,
44,44,0,critical,hwd,35.0,2.1,lower,133.0,57.0,57.0,133.0,70.0,70.0,2,1.2941491603851318,None,,,,,0,0,0,0,0,44,44,40,126.19775056838989,,,,,,,,,,,,,,,,,,,,,,,,,,,,,,,,,,,,,,,,,,,,,,,,,,,,,,,,,,,,,,,,,,,,,,,,,,,,,,,,,133.0,57.0,57.0,133.0,70.0,70.0,2.1,2.11,-191,280,0,263,198,-286,126.1833164691925,126.18335628509521,126.18570804595947,126.19775056838989,126.3477680683136,126.3477680683136,126.3477680683136,126.3477680683136,126.3477680683136,126.3477680683136,126.3477680683136,127.49899125099182,2,1.2941491603851318,None,,,,,,,,,,,,,,,,,,126,5,2025-02-26_11h26.03.077,comp,2024.2.4,64.1177945321911,2025-02-26 11h26.14.316206 -0500,
45,45,0,catch,None,None,None,None,None,None,None,None,None,None,2,0.7303256988525391,None,,,,,0,0,0,0,0,45,45,125,127.5146861076355,,,,,,,,,,,,,,,,,,,,,,,,,,,,,,,,,,,,,,,,,,,,,,,,,,,,,,,,,,,,,,,,,,,,,,,,,,,,,,,,,58,132,182,143,100,90,2.1,2.11,-234,271,0,261,212,-284,127.50001955032349,127.50006079673767,127.50252890586853,127.5146861076355,127.66459202766418,127.66459202766418,127.66459202766418,127.66459202766418,127.66459202766418,127.66459202766418,127.66459202766418,128.24918031692505,2,0.7303256988525391,None,,,,,,,,,,,,,,,,,,126,5,2025-02-26_11h26.03.077,comp,2024.2.4,64.1177945321911,2025-02-26 11h26.14.316206 -0500,
46,46,0,critical,dhw,20.0,1.0,upper,141.0,141.0,200.0,125.0,125.0,200.0,3,0.9224758148193359,None,,,,,0,0,0,0,0,46,46,55,128.26460146903992,,,,,,,,,,,,,,,,,,,,,,,,,,,,,,,,,,,,,,,,,,,,,,,,,,,,,,,,,,,,,,,,,,,,,,,,,,,,,,,,,141.0,141.0,200.0,125.0,125.0,200.0,1.0,1.2,-229,5,0,-2,258,-4,128.24994921684265,128.24998950958252,128.25210165977478,128.26460146903992,128.4149250984192,128.4149250984192,128.4149250984192,128.4149250984192,128.4149250984192,128.4149250984192,128.4149250984192,129.19912266731262,3,0.9224758148193359,None,,,,,,,,,,,,,,,,,,126,5,2025-02-26_11h26.03.077,comp,2024.2.4,64.1177945321911,2025-02-26 11h26.14.316206 -0500,
47,47,0,critical,dhw,35.0,2.1,lower,70.0,70.0,133.0,57.0,57.0,133.0,2,1.2368245124816895,None,,,,,0,0,0,0,0,47,47,24,129.21442294120789,,,,,,,,,,,,,,,,,,,,,,,,,,,,,,,,,,,,,,,,,,,,,,,,,,,,,,,,,,,,,,,,,,,,,,,,,,,,,,,,,70.0,70.0,133.0,57.0,57.0,133.0,2.1,2.11,-160,256,0,256,191,-282,129.19995164871216,129.19999194145203,129.20253157615662,129.21442294120789,129.36455988883972,129.36455988883972,129.36455988883972,129.36455988883972,129.36455988883972,129.36455988883972,129.36455988883972,130.4656310081482,2,1.2368245124816895,None,,,,,,,,,,,,,,,,,,126,5,2025-02-26_11h26.03.077,comp,2024.2.4,64.1177945321911,2025-02-26 11h26.14.316206 -0500,
48,48,0,critical,dwh,35.0,2.1,lower,70.0,70.0,57.0,133.0,133.0,57.0,3,1.5485446453094482,None,,,,,0,0,0,0,0,48,48,4,130.4811577796936,,,,,,,,,,,,,,,,,,,,,,,,,,,,,,,,,,,,,,,,,,,,,,,,,,,,,,,,,,,,,,,,,,,,,,,,,,,,,,,,,70.0,70.0,57.0,133.0,133.0,57.0,2.1,2.11,-198,257,0,277,191,-253,130.46641898155212,130.46645951271057,130.4688823223114,130.4811577796936,130.63116192817688,130.63116192817688,130.63116192817688,130.63116192817688,130.63116192817688,130.63116192817688,130.63116192817688,132.032488822937,3,1.5485446453094482,None,,,,,,,,,,,,,,,,,,126,5,2025-02-26_11h26.03.077,comp,2024.2.4,64.1177945321911,2025-02-26 11h26.14.316206 -0500,
49,49,0,critical,hdw,20.0,4.0,lower,133.0,57.0,78.0,78.0,57.0,133.0,3,1.6031806468963623,None,,,,,0,0,0,0,0,49,49,118,132.04833006858826,,,,,,,,,,,,,,,,,,,,,,,,,,,,,,,,,,,,,,,,,,,,,,,,,,,,,,,,,,,,,,,,,,,,,,,,,,,,,,,,,133.0,57.0,78.0,78.0,57.0,133.0,4.0,4.2,-164,19,0,-254,202,-18,132.0332727432251,132.0333149433136,132.03538990020752,132.04833006858826,132.19789099693298,132.19789099693298,132.19789099693298,132.19789099693298,132.19789099693298,132.19789099693298,132.19789099693298,133.66562509536743,3,1.6031806468963623,None,,,,,,,,,,,,,,,,,,126,5,2025-02-26_11h26.03.077,comp,2024.2.4,64.1177945321911,2025-02-26 11h26.14.316206 -0500,
50,50,0,critical,whd,35.0,3.0,lower,57.0,133.0,133.0,57.0,70.0,70.0,2,0.9001705646514893,None,,,,,0,0,0,0,0,50,50,86,133.68110847473145,,,,,,,,,,,,,,,,,,,,,,,,,,,,,,,,,,,,,,,,,,,,,,,,,,,,,,,,,,,,,,,,,,,,,,,,,,,,,,,,,57.0,133.0,133.0,57.0,70.0,70.0,3.0,3.1,-191,283,0,5,160,-256,133.66643238067627,133.66647243499756,133.66909456253052,133.68110847473145,133.83133459091187,133.83133459091187,133.83133459091187,133.83133459091187,133.83133459091187,133.83133459091187,133.83133459091187,134.5988826751709,2,0.9001705646514893,None,,,,,,,,,,,,,,,,,,126,5,2025-02-26_11h26.03.077,comp,2024.2.4,64.1177945321911,2025-02-26 11h26.14.316206 -0500,
51,51,0,filler_square,None,None,None,None,None,None,None,None,None,None,3,0.8047642707824707,None,,,,,0,0,0,0,0,51,51,180,134.61447954177856,,,,,,,,,,,,,,,,,,,,,,,,,,,,,,,,,,,,,,,,,,,,,,,,,,,,,,,,,,,,,,,,,,,,,,,,,,,,,,,,,155.09855219620067,84.21123869343896,172.0214626336049,81.90292158973246,173.87304283603686,173.87304283603686,4.0,4.2,-179,-3,0,-267,224,15,134.59984803199768,134.59988927841187,134.6019287109375,134.61447954177856,134.76468515396118,134.76468515396118,134.76468515396118,134.76468515396118,134.76468515396118,134.76468515396118,134.76468515396118,135.43247365951538,3,0.8047642707824707,None,,,,,,,,,,,,,,,,,,126,5,2025-02-26_11h26.03.077,comp,2024.2.4,64.1177945321911,2025-02-26 11h26.14.316206 -0500,
52,52,0,catch,None,None,None,None,None,None,None,None,None,None,1,0.7504158020019531,None,,,,,0,0,0,0,0,52,52,123,135.44773721694946,,,,,,,,,,,,,,,,,,,,,,,,,,,,,,,,,,,,,,,,,,,,,,,,,,,,,,,,,,,,,,,,,,,,,,,,,,,,,,,,,136,189,130,60,112,78,2.2,2.22,-220,257,0,-275,165,-265,135.4335379600525,135.4335799217224,135.43562245368958,135.44773721694946,135.59791374206543,135.59791374206543,135.59791374206543,135.59791374206543,135.59791374206543,135.59791374206543,135.59791374206543,136.21575331687927,1,0.7504158020019531,None,,,,,,,,,,,,,,,,,,126,5,2025-02-26_11h26.03.077,comp,2024.2.4,64.1177945321911,2025-02-26 11h26.14.316206 -0500,
53,53,0,critical,dwh,20.0,4.0,lower,78.0,78.0,57.0,133.0,133.0,57.0,2,1.1409194469451904,None,,,,,0,0,0,0,0,53,53,70,136.23093962669373,,,,,,,,,,,,,,,,,,,,,,,,,,,,,,,,,,,,,,,,,,,,,,,,,,,,,,,,,,,,,,,,,,,,,,,,,,,,,,,,,78.0,78.0,57.0,133.0,133.0,57.0,4.0,4.1,-202,-280,0,-2,191,-251,136.21653366088867,136.21657586097717,136.21892380714417,136.23093962669373,136.38164925575256,136.38164925575256,136.38164925575256,136.38164925575256,136.38164925575256,136.38164925575256,136.38164925575256,137.38223481178284,2,1.1409194469451904,None,,,,,,,,,,,,,,,,,,126,5,2025-02-26_11h26.03.077,comp,2024.2.4,64.1177945321911,2025-02-26 11h26.14.316206 -0500,
54,54,0,catch,None,None,None,None,None,None,None,None,None,None,1,0.6779699325561523,None,,,,,0,0,0,0,0,54,54,124,137.39797067642212,,,,,,,,,,,,,,,,,,,,,,,,,,,,,,,,,,,,,,,,,,,,,,,,,,,,,,,,,,,,,,,,,,,,,,,,,,,,,,,,,192,133,81,109,107,83,4.0,4.2,-217,3,0,-286,192,-12,137.3833019733429,137.3833441734314,137.38545942306519,137.39797067642212,137.54804968833923,137.54804968833923,137.54804968833923,137.54804968833923,137.54804968833923,137.54804968833923,137.54804968833923,138.08237504959106,1,0.6779699325561523,None,,,,,,,,,,,,,,,,,,126,5,2025-02-26_11h26.03.077,comp,2024.2.4,64.1177945321911,2025-02-26 11h26.14.316206 -0500,
55,55,0,critical,dwh,20.0,1.0,lower,78.0,78.0,57.0,133.0,133.0,57.0,3,2.131612539291382,None,,,,,0,0,0,0,0,55,55,66,138.09795498847961,,,,,,,,,,,,,,,,,,,,,,,,,,,,,,,,,,,,,,,,,,,,,,,,,,,,,,,,,,,,,,,,,,,,,,,,,,,,,,,,,78.0,78.0,57.0,133.0,133.0,57.0,1.0,1.1,-682,267,-480,265,-289,257,138.0831527709961,138.0831925868988,138.08519196510315,138.09795498847961,138.24784231185913,138.24784231185913,138.24784231185913,138.24784231185913,138.24784231185913,138.24784231185913,138.24784231185913,140.23240852355957,3,2.131612539291382,None,,,,,,,,,,,,,,,,,,126,5,2025-02-26_11h26.03.077,comp,2024.2.4,64.1177945321911,2025-02-26 11h26.14.316206 -0500,
56,56,0,critical,hdw,35.0,2.1,upper,200.0,125.0,127.0,127.0,125.0,200.0,1,0.900306224822998,None,,,,,0,0,0,0,0,56,56,21,140.2479066848755,,,,,,,,,,,,,,,,,,,,,,,,,,,,,,,,,,,,,,,,,,,,,,,,,,,,,,,,,,,,,,,,,,,,,,,,,,,,,,,,,200.0,125.0,127.0,127.0,125.0,200.0,2.1,2.11,-222,280,0,275,260,-279,140.2331781387329,140.23321747779846,140.2352271080017,140.2479066848755,140.39809036254883,140.39809036254883,140.39809036254883,140.39809036254883,140.39809036254883,140.39809036254883,140.39809036254883,141.16567850112915,1,0.900306224822998,None,,,,,,,,,,,,,,,,,,126,5,2025-02-26_11h26.03.077,comp,2024.2.4,64.1177945321911,2025-02-26 11h26.14.316206 -0500,
57,57,0,critical,dhw,35.0,4.0,upper,127.0,127.0,200.0,125.0,125.0,200.0,3,1.0381193161010742,None,,,,,0,0,0,0,0,57,57,53,141.18103432655334,,,,,,,,,,,,,,,,,,,,,,,,,,,,,,,,,,,,,,,,,,,,,,,,,,,,,,,,,,,,,,,,,,,,,,,,,,,,,,,,,127.0,127.0,200.0,125.0,125.0,200.0,4.0,4.2,-222,-6,0,-285,258,18,141.16647481918335,141.16651487350464,141.16886186599731,141.18103432655334,141.33136367797852,141.33136367797852,141.33136367797852,141.33136367797852,141.33136367797852,141.33136367797852,141.33136367797852,142.2325472831726,3,1.0381193161010742,None,,,,,,,,,,,,,,,,,,126,5,2025-02-26_11h26.03.077,comp,2024.2.4,64.1177945321911,2025-02-26 11h26.14.316206 -0500,
58,58,0,catch,None,None,None,None,None,None,None,None,None,None,1,1.483999490737915,None,,,,,0,0,0,0,0,58,58,129,142.24776077270508,,,,,,,,,,,,,,,,,,,,,,,,,,,,,,,,,,,,,,,,,,,,,,,,,,,,,,,,,,,,,,,,,,,,,,,,,,,,,,,,,138,187,90,100,63,127,2.1,2.12,-240,-258,0,-289,210,274,142.2336082458496,142.23364853858948,142.2357301712036,142.24776077270508,142.39789652824402,142.39789652824402,142.39789652824402,142.39789652824402,142.39789652824402,142.39789652824402,142.39789652824402,143.74890780448914,1,1.483999490737915,None,,,,,,,,,,,,,,,,,,126,5,2025-02-26_11h26.03.077,comp,2024.2.4,64.1177945321911,2025-02-26 11h26.14.316206 -0500,
59,59,0,filler_square,None,None,None,None,None,None,None,None,None,None,2,0.8804073333740234,None,,,,,0,0,0,0,0,59,59,184,143.76437950134277,,,,,,,,,,,,,,,,,,,,,,,,,,,,,,,,,,,,,,,,,,,,,,,,,,,,,,,,,,,,,,,,,,,,,,,,,,,,,,,,,63.40233030854681,88.45910110170058,103.8311572418119,103.8311572418119,76.9222422968972,101.83111847173814,2.2,2.21,-192,-252,0,282,199,278,143.74986481666565,143.74990510940552,143.752436876297,143.76437950134277,143.91451001167297,143.91451001167297,143.91451001167297,143.91451001167297,143.91451001167297,143.91451001167297,143.91451001167297,144.64904975891113,2,0.8804073333740234,None,,,,,,,,,,,,,,,,,,126,5,2025-02-26_11h26.03.077,comp,2024.2.4,64.1177945321911,2025-02-26 11h26.14.316206 -0500,
60,60,0,filler_square,None,None,None,None,None,None,None,None,None,None,3,0.9545257091522217,None,,,,,0,0,0,0,0,60,60,205,144.6645166873932,,,,,,,,,,,,,,,,,,,,,,,,,,,,,,,,,,,,,,,,,,,,,,,,,,,,,,,,,,,,,,,,,,,,,,,,,,,,,,,,,94.52598662574869,128.52909354032352,58.859918402688294,126.15792240848243,131.84576652277124,131.84576652277124,2.2,2.21,-223,-266,0,253,225,281,144.65003395080566,144.65007710456848,144.65263605117798,144.6645166873932,144.81452560424805,144.81452560424805,144.81452560424805,144.81452560424805,144.81452560424805,144.81452560424805,144.81452560424805,145.63217425346375,3,0.9545257091522217,None,,,,,,,,,,,,,,,,,,126,5,2025-02-26_11h26.03.077,comp,2024.2.4,64.1177945321911,2025-02-26 11h26.14.316206 -0500,
61,61,0,critical,wdh,20.0,2.1,upper,125.0,200.0,141.0,141.0,200.0,125.0,1,1.3881988525390625,None,,,,,0,0,0,0,0,61,61,35,145.64758372306824,,,,,,,,,,,,,,,,,,,,,,,,,,,,,,,,,,,,,,,,,,,,,,,,,,,,,,,,,,,,,,,,,,,,,,,,,,,,,,,,,125.0,200.0,141.0,141.0,200.0,125.0,2.1,2.11,-266,253,0,260,229,-262,145.63295912742615,145.63299822807312,145.63497376441956,145.64758372306824,145.79812240600586,145.79812240600586,145.79812240600586,145.79812240600586,145.79812240600586,145.79812240600586,145.79812240600586,147.049245595932,1,1.3881988525390625,None,,,,,,,,,,,,,,,,,,126,5,2025-02-26_11h26.03.077,comp,2024.2.4,64.1177945321911,2025-02-26 11h26.14.316206 -0500,
62,62,0,critical,wdh,20.0,3.0,upper,125.0,200.0,141.0,141.0,200.0,125.0,3,1.218824863433838,None,,,,,0,0,0,0,0,62,62,81,147.06432723999023,,,,,,,,,,,,,,,,,,,,,,,,,,,,,,,,,,,,,,,,,,,,,,,,,,,,,,,,,,,,,,,,,,,,,,,,,,,,,,,,,125.0,200.0,141.0,141.0,200.0,125.0,3.0,3.2,-266,-275,0,-5,229,267,147.05003190040588,147.05007100105286,147.05211186408997,147.06432723999023,147.2146053314209,147.2146053314209,147.2146053314209,147.2146053314209,147.2146053314209,147.2146053314209,147.2146053314209,148.29918384552002,3,1.218824863433838,None,,,,,,,,,,,,,,,,,,126,5,2025-02-26_11h26.03.077,comp,2024.2.4,64.1177945321911,2025-02-26 11h26.14.316206 -0500,
63,63,0,filler_random,None,None,None,None,None,None,None,None,None,None,1,0.6885459423065186,None,,,,,0,0,0,0,0,63,63,134,148.31437277793884,,,,,,,,,,,,,,,,,,,,,,,,,,,,,,,,,,,,,,,,,,,,,,,,,,,,,,,,,,,,,,,,,,,,,,,,,,,,,,,,,197.29854933064985,140.52777013265194,102.61120145927538,159.506392020742,167.8430670949265,107.85826160236941,2.1,2.11,-246,254,0,263,230,-250,148.30009078979492,148.30013179779053,148.30241346359253,148.31437277793884,148.4646155834198,148.4646155834198,148.4646155834198,148.4646155834198,148.4646155834198,148.4646155834198,148.4646155834198,149.01573061943054,1,0.6885459423065186,None,,,,,,,,,,,,,,,,,,126,5,2025-02-26_11h26.03.077,comp,2024.2.4,64.1177945321911,2025-02-26 11h26.14.316206 -0500,
64,64,0,critical,wdh,20.0,2.1,lower,57.0,133.0,78.0,78.0,133.0,57.0,2,1.3407740592956543,None,,,,,0,0,0,0,0,64,64,34,149.03102087974548,,,,,,,,,,,,,,,,,,,,,,,,,,,,,,,,,,,,,,,,,,,,,,,,,,,,,,,,,,,,,,,,,,,,,,,,,,,,,,,,,57.0,133.0,78.0,78.0,133.0,57.0,2.1,2.11,-202,254,0,289,164,-264,149.01653695106506,149.01657724380493,149.01893258094788,149.03102087974548,149.18127703666687,149.18127703666687,149.18127703666687,149.18127703666687,149.18127703666687,149.18127703666687,149.18127703666687,150.3822057247162,2,1.3407740592956543,None,,,,,,,,,,,,,,,,,,126,5,2025-02-26_11h26.03.077,comp,2024.2.4,64.1177945321911,2025-02-26 11h26.14.316206 -0500,
65,65,0,critical,dhw,35.0,1.0,lower,70.0,70.0,133.0,57.0,57.0,133.0,3,1.4158785343170166,None,,,,,0,0,0,0,0,65,65,48,150.39793753623962,,,,,,,,,,,,,,,,,,,,,,,,,,,,,,,,,,,,,,,,,,,,,,,,,,,,,,,,,,,,,,,,,,,,,,,,,,,,,,,,,70.0,70.0,133.0,57.0,57.0,133.0,1.0,1.3,320,-256,480,-286,671,-267,150.38301134109497,150.38305139541626,150.38504648208618,150.39793753623962,150.5478231906891,150.5478231906891,150.5478231906891,150.5478231906891,150.5478231906891,150.5478231906891,150.5478231906891,151.81561160087585,3,1.4158785343170166,None,,,,,,,,,,,,,,,,,,126,5,2025-02-26_11h26.03.077,comp,2024.2.4,64.1177945321911,2025-02-26 11h26.14.316206 -0500,
66,66,0,critical,wdh,35.0,1.0,upper,125.0,200.0,127.0,127.0,200.0,125.0,3,1.566840410232544,None,,,,,0,0,0,0,0,66,66,73,151.83109784126282,,,,,,,,,,,,,,,,,,,,,,,,,,,,,,,,,,,,,,,,,,,,,,,,,,,,,,,,,,,,,,,,,,,,,,,,,,,,,,,,,125.0,200.0,127.0,127.0,200.0,125.0,1.0,1.2,-260,7,0,20,222,3,151.81638264656067,151.81642365455627,151.81854033470154,151.83109784126282,151.98146963119507,151.98146963119507,151.98146963119507,151.98146963119507,151.98146963119507,151.98146963119507,151.98146963119507,153.39938354492188,3,1.566840410232544,None,,,,,,,,,,,,,,,,,,126,5,2025-02-26_11h26.03.077,comp,2024.2.4,64.1177945321911,2025-02-26 11h26.14.316206 -0500,
67,67,0,critical,hwd,35.0,3.0,lower,133.0,57.0,57.0,133.0,70.0,70.0,2,0.7828402519226074,None,,,,,0,0,0,0,0,67,67,98,153.41459393501282,,,,,,,,,,,,,,,,,,,,,,,,,,,,,,,,,,,,,,,,,,,,,,,,,,,,,,,,,,,,,,,,,,,,,,,,,,,,,,,,,133.0,57.0,57.0,133.0,70.0,70.0,3.0,3.1,-191,270,0,20,198,-286,153.40017199516296,153.4002137184143,153.40278601646423,153.41459393501282,153.5644941329956,153.5644941329956,153.5644941329956,153.5644941329956,153.5644941329956,153.5644941329956,153.5644941329956,154.2154643535614,2,0.7828402519226074,None,,,,,,,,,,,,,,,,,,126,5,2025-02-26_11h26.03.077,comp,2024.2.4,64.1177945321911,2025-02-26 11h26.14.316206 -0500,
68,68,0,catch,None,None,None,None,None,None,None,None,None,None,3,0.7663085460662842,None,,,,,0,0,0,0,0,68,68,127,154.23100900650024,,,,,,,,,,,,,,,,,,,,,,,,,,,,,,,,,,,,,,,,,,,,,,,,,,,,,,,,,,,,,,,,,,,,,,,,,,,,,,,,,75,115,64,126,126,199,4.0,4.1,-216,-252,0,-16,258,-255,154.21650624275208,154.216548204422,154.21865010261536,154.23100900650024,154.38118386268616,154.38118386268616,154.38118386268616,154.38118386268616,154.38118386268616,154.38118386268616,154.38118386268616,154.9991044998169,3,0.7663085460662842,None,,,,,,,,,,,,,,,,,,126,5,2025-02-26_11h26.03.077,comp,2024.2.4,64.1177945321911,2025-02-26 11h26.14.316206 -0500,
69,69,0,critical,wdh,35.0,1.0,lower,57.0,133.0,70.0,70.0,133.0,57.0,1,1.2299573421478271,None,,,,,0,0,0,0,0,69,69,72,155.0145618915558,,,,,,,,,,,,,,,,,,,,,,,,,,,,,,,,,,,,,,,,,,,,,,,,,,,,,,,,,,,,,,,,,,,,,,,,,,,,,,,,,57.0,133.0,70.0,70.0,133.0,57.0,1.0,1.3,282,-280,480,-252,640,-253,154.99991273880005,154.9999532699585,155.00242829322815,155.0145618915558,155.16436457633972,155.16436457633972,155.16436457633972,155.16436457633972,155.16436457633972,155.16436457633972,155.16436457633972,156.24884486198425,1,1.2299573421478271,None,,,,,,,,,,,,,,,,,,126,5,2025-02-26_11h26.03.077,comp,2024.2.4,64.1177945321911,2025-02-26 11h26.14.316206 -0500,
70,70,0,critical,hwd,35.0,2.1,upper,200.0,125.0,125.0,200.0,127.0,127.0,3,1.5713951587677002,None,,,,,0,0,0,0,0,70,70,41,156.26437067985535,,,,,,,,,,,,,,,,,,,,,,,,,,,,,,,,,,,,,,,,,,,,,,,,,,,,,,,,,,,,,,,,,,,,,,,,,,,,,,,,,200.0,125.0,125.0,200.0,127.0,127.0,2.1,2.11,-258,253,0,274,260,-269,156.24962329864502,156.2496612071991,156.2516417503357,156.26437067985535,156.41454553604126,156.41454553604126,156.41454553604126,156.41454553604126,156.41454553604126,156.41454553604126,156.41454553604126,157.84903049468994,3,1.5713951587677002,None,,,,,,,,,,,,,,,,,,126,5,2025-02-26_11h26.03.077,comp,2024.2.4,64.1177945321911,2025-02-26 11h26.14.316206 -0500,
71,71,0,critical,dhw,20.0,3.0,upper,141.0,141.0,200.0,125.0,125.0,200.0,2,1.117218255996704,None,,,,,0,0,0,0,0,71,71,57,157.86416482925415,,,,,,,,,,,,,,,,,,,,,,,,,,,,,,,,,,,,,,,,,,,,,,,,,,,,,,,,,,,,,,,,,,,,,,,,,,,,,,,,,141.0,141.0,200.0,125.0,125.0,200.0,3.0,3.2,-229,-287,0,-1,258,267,157.84981632232666,157.8498568534851,157.85224437713623,157.86416482925415,158.01449966430664,158.01449966430664,158.01449966430664,158.01449966430664,158.01449966430664,158.01449966430664,158.01449966430664,158.99903106689453,2,1.117218255996704,None,,,,,,,,,,,,,,,,,,126,5,2025-02-26_11h26.03.077,comp,2024.2.4,64.1177945321911,2025-02-26 11h26.14.316206 -0500,
72,72,0,critical,wdh,20.0,4.0,upper,125.0,200.0,141.0,141.0,200.0,125.0,3,0.918095588684082,None,,,,,0,0,0,0,0,72,72,83,159.01423454284668,,,,,,,,,,,,,,,,,,,,,,,,,,,,,,,,,,,,,,,,,,,,,,,,,,,,,,,,,,,,,,,,,,,,,,,,,,,,,,,,,125.0,200.0,141.0,141.0,200.0,125.0,4.0,4.1,-266,-264,0,8,229,-282,158.99983024597168,158.9998700618744,159.00225067138672,159.01423454284668,159.16475439071655,159.16475439071655,159.16475439071655,159.16475439071655,159.16475439071655,159.16475439071655,159.16475439071655,159.94896602630615,3,0.918095588684082,None,,,,,,,,,,,,,,,,,,126,5,2025-02-26_11h26.03.077,comp,2024.2.4,64.1177945321911,2025-02-26 11h26.14.316206 -0500,
73,73,0,critical,whd,35.0,2.1,lower,57.0,133.0,133.0,57.0,70.0,70.0,2,2.2492501735687256,None,,,,,0,0,0,0,0,73,73,12,159.96417546272278,,,,,,,,,,,,,,,,,,,,,,,,,,,,,,,,,,,,,,,,,,,,,,,,,,,,,,,,,,,,,,,,,,,,,,,,,,,,,,,,,57.0,133.0,133.0,57.0,70.0,70.0,2.1,2.11,-191,274,0,261,160,-271,159.94981169700623,159.9498541355133,159.95229768753052,159.96417546272278,160.1143639087677,160.1143639087677,160.1143639087677,160.1143639087677,160.1143639087677,160.1143639087677,160.1143639087677,162.21550631523132,2,2.2492501735687256,None,,,,,,,,,,,,,,,,,,126,5,2025-02-26_11h26.03.077,comp,2024.2.4,64.1177945321911,2025-02-26 11h26.14.316206 -0500,
74,74,0,critical,dhw,20.0,2.1,lower,78.0,78.0,133.0,57.0,57.0,133.0,3,0.8765840530395508,None,,,,,0,0,0,0,0,74,74,26,162.23111128807068,,,,,,,,,,,,,,,,,,,,,,,,,,,,,,,,,,,,,,,,,,,,,,,,,,,,,,,,,,,,,,,,,,,,,,,,,,,,,,,,,78.0,78.0,133.0,57.0,57.0,133.0,2.1,2.12,-164,-275,0,-277,191,267,162.21631288528442,162.21635270118713,162.21840500831604,162.23111128807068,162.38103938102722,162.38103938102722,162.38103938102722,162.38103938102722,162.38103938102722,162.38103938102722,162.38103938102722,163.11546969413757,3,0.8765840530395508,None,,,,,,,,,,,,,,,,,,126,5,2025-02-26_11h26.03.077,comp,2024.2.4,64.1177945321911,2025-02-26 11h26.14.316206 -0500,
75,75,0,filler_random,None,None,None,None,None,None,None,None,None,None,2,0.7281572818756104,None,,,,,0,0,0,0,0,75,75,161,163.13144373893738,,,,,,,,,,,,,,,,,,,,,,,,,,,,,,,,,,,,,,,,,,,,,,,,,,,,,,,,,,,,,,,,,,,,,,,,,,,,,,,,,173.47785642625388,70.04636941571405,184.04672393497157,135.57421325342162,85.40458262641691,104.74906707899305,4.0,4.2,-199,-5,0,-275,216,-6,163.11638116836548,163.1164219379425,163.11845445632935,163.13144373893738,163.2810618877411,163.2810618877411,163.2810618877411,163.2810618877411,163.2810618877411,163.2810618877411,163.2810618877411,163.865620136261,2,0.7281572818756104,None,,,,,,,,,,,,,,,,,,126,5,2025-02-26_11h26.03.077,comp,2024.2.4,64.1177945321911,2025-02-26 11h26.14.316206 -0500,
76,76,0,filler_square,None,None,None,None,None,None,None,None,None,None,2,0.7945849895477295,None,,,,,0,0,0,0,0,76,76,193,163.88114023208618,,,,,,,,,,,,,,,,,,,,,,,,,,,,,,,,,,,,,,,,,,,,,,,,,,,,,,,,,,,,,,,,,,,,,,,,,,,,,,,,,134.20262450914646,170.62328084059362,180.8718668730998,180.8718668730998,101.16001148060062,157.89367286942394,2.2,2.22,-272,287,0,-283,265,-285,163.8665931224823,163.86663508415222,163.86866450309753,163.88114023208618,164.03119111061096,164.03119111061096,164.03119111061096,164.03119111061096,164.03119111061096,164.03119111061096,164.03119111061096,164.68236804008484,2,0.7945849895477295,None,,,,,,,,,,,,,,,,,,126,5,2025-02-26_11h26.03.077,comp,2024.2.4,64.1177945321911,2025-02-26 11h26.14.316206 -0500,
77,77,0,filler_random,None,None,None,None,None,None,None,None,None,None,2,1.63389253616333,None,,,,,0,0,0,0,0,77,77,157,164.69776463508606,,,,,,,,,,,,,,,,,,,,,,,,,,,,,,,,,,,,,,,,,,,,,,,,,,,,,,,,,,,,,,,,,,,,,,,,,,,,,,,,,83.0318919859804,110.2288620211628,189.02954124587626,62.61653439322161,57.3070609493926,63.62747378334238,2.1,2.12,-182,-256,0,-260,159,267,164.68332839012146,164.6833701133728,164.68539762496948,164.69776463508606,164.84769439697266,164.84769439697266,164.84769439697266,164.84769439697266,164.84769439697266,164.84769439697266,164.84769439697266,166.3487992286682,2,1.63389253616333,None,,,,,,,,,,,,,,,,,,126,5,2025-02-26_11h26.03.077,comp,2024.2.4,64.1177945321911,2025-02-26 11h26.14.316206 -0500,
78,78,0,catch,None,None,None,None,None,None,None,None,None,None,3,0.6867568492889404,None,,,,,0,0,0,0,0,78,78,122,166.36420798301697,,,,,,,,,,,,,,,,,,,,,,,,,,,,,,,,,,,,,,,,,,,,,,,,,,,,,,,,,,,,,,,,,,,,,,,,,,,,,,,,,95,95,63,127,136,189,2.2,2.22,-207,288,0,-283,254,-271,166.3498179912567,166.34985780715942,166.35228204727173,166.36420798301697,166.51440715789795,166.51440715789795,166.51440715789795,166.51440715789795,166.51440715789795,166.51440715789795,166.51440715789795,167.06548881530762,3,0.6867568492889404,None,,,,,,,,,,,,,,,,,,126,5,2025-02-26_11h26.03.077,comp,2024.2.4,64.1177945321911,2025-02-26 11h26.14.316206 -0500,
79,79,0,filler_square,None,None,None,None,None,None,None,None,None,None,3,0.7003965377807617,None,,,,,0,0,0,0,0,79,79,183,167.08085179328918,,,,,,,,,,,,,,,,,,,,,,,,,,,,,,,,,,,,,,,,,,,,,,,,,,,,,,,,,,,,,,,,,,,,,,,,,,,,,,,,,65.5224810826492,100.64088871212601,61.683421342930295,95.29026812334988,128.2002377061608,128.2002377061608,1.0,1.1,-674,253,-480,287,-272,259,167.06641340255737,167.06645345687866,167.06848978996277,167.08085179328918,167.23139882087708,167.23139882087708,167.23139882087708,167.23139882087708,167.23139882087708,167.23139882087708,167.23139882087708,167.79883742332458,3,0.7003965377807617,None,,,,,,,,,,,,,,,,,,126,5,2025-02-26_11h26.03.077,comp,2024.2.4,64.1177945321911,2025-02-26 11h26.14.316206 -0500,
80,80,0,critical,hdw,20.0,4.0,upper,200.0,125.0,141.0,141.0,125.0,200.0,3,0.9505460262298584,None,,,,,0,0,0,0,0,80,80,119,167.81414914131165,,,,,,,,,,,,,,,,,,,,,,,,,,,,,,,,,,,,,,,,,,,,,,,,,,,,,,,,,,,,,,,,,,,,,,,,,,,,,,,,,200.0,125.0,141.0,141.0,125.0,200.0,4.0,4.1,-229,-270,0,-18,266,-279,167.79962706565857,167.79966759681702,167.80206441879272,167.81414914131165,167.964439868927,167.964439868927,167.964439868927,167.964439868927,167.964439868927,167.964439868927,167.964439868927,168.78223085403442,3,0.9505460262298584,None,,,,,,,,,,,,,,,,,,126,5,2025-02-26_11h26.03.077,comp,2024.2.4,64.1177945321911,2025-02-26 11h26.14.316206 -0500,
81,81,0,critical,hwd,35.0,4.0,lower,133.0,57.0,57.0,133.0,70.0,70.0,2,0.8465838432312012,None,,,,,0,0,0,0,0,81,81,100,168.79759216308594,,,,,,,,,,,,,,,,,,,,,,,,,,,,,,,,,,,,,,,,,,,,,,,,,,,,,,,,,,,,,,,,,,,,,,,,,,,,,,,,,133.0,57.0,57.0,133.0,70.0,70.0,4.0,4.1,-191,-282,0,-14,198,-276,168.7830286026001,168.78307008743286,168.78509521484375,168.79759216308594,168.9475326538086,168.9475326538086,168.9475326538086,168.9475326538086,168.9475326538086,168.9475326538086,168.9475326538086,169.64873600006104,2,0.8465838432312012,None,,,,,,,,,,,,,,,,,,126,5,2025-02-26_11h26.03.077,comp,2024.2.4,64.1177945321911,2025-02-26 11h26.14.316206 -0500,
82,82,0,filler_square,None,None,None,None,None,None,None,None,None,None,1,0.9492006301879883,None,,,,,0,0,0,0,0,82,82,192,169.6643886566162,,,,,,,,,,,,,,,,,,,,,,,,,,,,,,,,,,,,,,,,,,,,,,,,,,,,,,,,,,,,,,,,,,,,,,,,,,,,,,,,,122.4320298884907,122.4320298884907,59.864059113989285,112.26475755539943,83.91576260124887,93.67674181174468,2.1,2.11,-213,287,0,283,199,-252,169.64970779418945,169.64974904060364,169.65171217918396,169.6643886566162,169.814386844635,169.814386844635,169.814386844635,169.814386844635,169.814386844635,169.814386844635,169.814386844635,170.61557698249817,1,0.9492006301879883,None,,,,,,,,,,,,,,,,,,126,5,2025-02-26_11h26.03.077,comp,2024.2.4,64.1177945321911,2025-02-26 11h26.14.316206 -0500,
83,83,0,critical,hwd,20.0,3.0,upper,200.0,125.0,125.0,200.0,141.0,141.0,1,1.4765255451202393,None,,,,,0,0,0,0,0,83,83,105,170.63107681274414,,,,,,,,,,,,,,,,,,,,,,,,,,,,,,,,,,,,,,,,,,,,,,,,,,,,,,,,,,,,,,,,,,,,,,,,,,,,,,,,,200.0,125.0,125.0,200.0,141.0,141.0,3.0,3.2,-258,-257,0,-18,266,273,170.61636400222778,170.61640620231628,170.6184959411621,170.63107681274414,170.78124165534973,170.78124165534973,170.78124165534973,170.78124165534973,170.78124165534973,170.78124165534973,170.78124165534973,172.1155400276184,1,1.4765255451202393,None,,,,,,,,,,,,,,,,,,126,5,2025-02-26_11h26.03.077,comp,2024.2.4,64.1177945321911,2025-02-26 11h26.14.316206 -0500,
84,84,0,critical,hdw,35.0,4.0,upper,200.0,125.0,127.0,127.0,125.0,200.0,3,0.7688817977905273,None,,,,,0,0,0,0,0,84,84,113,172.13103580474854,,,,,,,,,,,,,,,,,,,,,,,,,,,,,,,,,,,,,,,,,,,,,,,,,,,,,,,,,,,,,,,,,,,,,,,,,,,,,,,,,200.0,125.0,127.0,127.0,125.0,200.0,4.0,4.2,-222,16,0,-271,260,-3,172.11639142036438,172.1164300441742,172.11847186088562,172.13103580474854,172.28118085861206,172.28118085861206,172.28118085861206,172.28118085861206,172.28118085861206,172.28118085861206,172.28118085861206,172.91565561294556,3,0.7688817977905273,None,,,,,,,,,,,,,,,,,,126,5,2025-02-26_11h26.03.077,comp,2024.2.4,64.1177945321911,2025-02-26 11h26.14.316206 -0500,
85,85,0,critical,dwh,20.0,2.1,lower,78.0,78.0,57.0,133.0,133.0,57.0,3,1.2879822254180908,None,,,,,0,0,0,0,0,85,85,30,172.93092441558838,,,,,,,,,,,,,,,,,,,,,,,,,,,,,,,,,,,,,,,,,,,,,,,,,,,,,,,,,,,,,,,,,,,,,,,,,,,,,,,,,78.0,78.0,57.0,133.0,133.0,57.0,2.1,2.12,-202,-261,0,-255,191,281,172.91650390625,172.9165472984314,172.91850471496582,172.93092441558838,173.0809361934662,173.0809361934662,173.0809361934662,173.0809361934662,173.0809361934662,173.0809361934662,173.0809361934662,174.23204255104065,3,1.2879822254180908,None,,,,,,,,,,,,,,,,,,126,5,2025-02-26_11h26.03.077,comp,2024.2.4,64.1177945321911,2025-02-26 11h26.14.316206 -0500,
86,86,0,filler_square,None,None,None,None,None,None,None,None,None,None,2,0.6601848602294922,None,,,,,0,0,0,0,0,86,86,195,174.2474389076233,,,,,,,,,,,,,,,,,,,,,,,,,,,,,,,,,,,,,,,,,,,,,,,,,,,,,,,,,,,,,,,,,,,,,,,,,,,,,,,,,67.37728298705272,70.93141799512303,120.20706502782559,120.20706502782559,62.84931126724996,76.32620793401675,4.0,4.1,-192,-285,0,-18,194,-274,174.23318314552307,174.23322439193726,174.23573422431946,174.2474389076233,174.39760422706604,174.39760422706604,174.39760422706604,174.39760422706604,174.39760422706604,174.39760422706604,174.39760422706604,174.91534328460693,2,0.6601848602294922,None,,,,,,,,,,,,,,,,,,126,5,2025-02-26_11h26.03.077,comp,2024.2.4,64.1177945321911,2025-02-26 11h26.14.316206 -0500,
87,87,0,critical,hwd,35.0,2.1,upper,200.0,125.0,125.0,200.0,127.0,127.0,2,0.960629940032959,None,,,,,0,0,0,0,0,87,87,17,174.93097639083862,,,,,,,,,,,,,,,,,,,,,,,,,,,,,,,,,,,,,,,,,,,,,,,,,,,,,,,,,,,,,,,,,,,,,,,,,,,,,,,,,200.0,125.0,125.0,200.0,127.0,127.0,2.1,2.12,-258,-250,0,-266,260,264,174.9160876274109,174.91612577438354,174.91825008392334,174.93097639083862,175.0811629295349,175.0811629295349,175.0811629295349,175.0811629295349,175.0811629295349,175.0811629295349,175.0811629295349,175.8988540172577,2,0.960629940032959,None,,,,,,,,,,,,,,,,,,126,5,2025-02-26_11h26.03.077,comp,2024.2.4,64.1177945321911,2025-02-26 11h26.14.316206 -0500,
88,88,0,critical,wdh,35.0,4.0,upper,125.0,200.0,127.0,127.0,200.0,125.0,3,0.8668820858001709,None,,,,,0,0,0,0,0,88,88,77,175.91438364982605,,,,,,,,,,,,,,,,,,,,,,,,,,,,,,,,,,,,,,,,,,,,,,,,,,,,,,,,,,,,,,,,,,,,,,,,,,,,,,,,,125.0,200.0,127.0,127.0,200.0,125.0,4.0,4.1,-260,-261,0,12,222,-266,175.89963936805725,175.8996798992157,175.90193724632263,175.91438364982605,176.06449365615845,176.06449365615845,176.06449365615845,176.06449365615845,176.06449365615845,176.06449365615845,176.06449365615845,176.79875469207764,3,0.8668820858001709,None,,,,,,,,,,,,,,,,,,126,5,2025-02-26_11h26.03.077,comp,2024.2.4,64.1177945321911,2025-02-26 11h26.14.316206 -0500,
89,89,0,critical,dhw,35.0,3.0,lower,70.0,70.0,133.0,57.0,57.0,133.0,2,0.7415859699249268,None,,,,,0,0,0,0,0,89,89,50,176.8140971660614,,,,,,,,,,,,,,,,,,,,,,,,,,,,,,,,,,,,,,,,,,,,,,,,,,,,,,,,,,,,,,,,,,,,,,,,,,,,,,,,,70.0,70.0,133.0,57.0,57.0,133.0,3.0,3.1,-160,264,0,1,191,-267,176.79955649375916,176.79959845542908,176.8019745349884,176.8140971660614,176.96427702903748,176.96427702903748,176.96427702903748,176.96427702903748,176.96427702903748,176.96427702903748,176.96427702903748,177.56530117988586,2,0.7415859699249268,None,,,,,,,,,,,,,,,,,,126,5,2025-02-26_11h26.03.077,comp,2024.2.4,64.1177945321911,2025-02-26 11h26.14.316206 -0500,
90,90,0,critical,hwd,35.0,1.0,lower,133.0,57.0,57.0,133.0,70.0,70.0,2,0.9018681049346924,None,,,,,0,0,0,0,0,90,90,96,177.5810468196869,,,,,,,,,,,,,,,,,,,,,,,,,,,,,,,,,,,,,,,,,,,,,,,,,,,,,,,,,,,,,,,,,,,,,,,,,,,,,,,,,133.0,57.0,57.0,133.0,70.0,70.0,1.0,1.1,-671,256,-480,256,-282,253,177.56611609458923,177.56615734100342,177.569397687912,177.5810468196869,177.73089361190796,177.73089361190796,177.73089361190796,177.73089361190796,177.73089361190796,177.73089361190796,177.73089361190796,178.49850630760193,2,0.9018681049346924,None,,,,,,,,,,,,,,,,,,126,5,2025-02-26_11h26.03.077,comp,2024.2.4,64.1177945321911,2025-02-26 11h26.14.316206 -0500,
91,91,0,critical,whd,20.0,3.0,lower,57.0,133.0,133.0,57.0,78.0,78.0,3,1.553481101989746,None,,,,,0,0,0,0,0,91,91,92,178.51393580436707,,,,,,,,,,,,,,,,,,,,,,,,,,,,,,,,,,,,,,,,,,,,,,,,,,,,,,,,,,,,,,,,,,,,,,,,,,,,,,,,,57.0,133.0,133.0,57.0,78.0,78.0,3.0,3.1,-191,271,0,7,164,-263,178.49928092956543,178.4993212223053,178.501606464386,178.51393580436707,178.66429257392883,178.66429257392883,178.66429257392883,178.66429257392883,178.66429257392883,178.66429257392883,178.66429257392883,180.08193826675415,3,1.553481101989746,None,,,,,,,,,,,,,,,,,,126,5,2025-02-26_11h26.03.077,comp,2024.2.4,64.1177945321911,2025-02-26 11h26.14.316206 -0500,
92,92,0,critical,hdw,35.0,2.1,lower,133.0,57.0,70.0,70.0,57.0,133.0,1,1.3053104877471924,None,,,,,0,0,0,0,0,92,92,44,180.09738731384277,,,,,,,,,,,,,,,,,,,,,,,,,,,,,,,,,,,,,,,,,,,,,,,,,,,,,,,,,,,,,,,,,,,,,,,,,,,,,,,,,133.0,57.0,70.0,70.0,57.0,133.0,2.1,2.12,-160,-252,0,-257,198,257,180.08273148536682,180.08277201652527,180.08520412445068,180.09738731384277,180.24758958816528,180.24758958816528,180.24758958816528,180.24758958816528,180.24758958816528,180.24758958816528,180.24758958816528,181.4152112007141,1,1.3053104877471924,None,,,,,,,,,,,,,,,,,,126,5,2025-02-26_11h26.03.077,comp,2024.2.4,64.1177945321911,2025-02-26 11h26.14.316206 -0500,
93,93,0,critical,whd,20.0,4.0,lower,57.0,133.0,133.0,57.0,78.0,78.0,2,0.9248535633087158,None,,,,,0,0,0,0,0,93,93,94,181.43072295188904,,,,,,,,,,,,,,,,,,,,,,,,,,,,,,,,,,,,,,,,,,,,,,,,,,,,,,,,,,,,,,,,,,,,,,,,,,,,,,,,,57.0,133.0,133.0,57.0,78.0,78.0,4.0,4.1,-191,-260,0,-11,164,-278,181.41601824760437,181.41605854034424,181.4182584285736,181.43072295188904,181.5809257030487,181.5809257030487,181.5809257030487,181.5809257030487,181.5809257030487,181.5809257030487,181.5809257030487,182.36529397964478,2,0.9248535633087158,None,,,,,,,,,,,,,,,,,,126,5,2025-02-26_11h26.03.077,comp,2024.2.4,64.1177945321911,2025-02-26 11h26.14.316206 -0500,
94,94,0,filler_square,None,None,None,None,None,None,None,None,None,None,3,0.9335894584655762,None,,,,,0,0,0,0,0,94,94,206,182.38118815422058,,,,,,,,,,,,,,,,,,,,,,,,,,,,,,,,,,,,,,,,,,,,,,,,,,,,,,,,,,,,,,,,,,,,,,,,,,,,,,,,,60.55904146944178,60.55904146944178,58.25541793893568,57.15002156400833,58.08971458153865,58.71947753623388,3.0,3.1,-155,257,0,2,154,-282,182.36624693870544,182.36630773544312,182.3683168888092,182.38118815422058,182.5308632850647,182.5308632850647,182.5308632850647,182.5308632850647,182.5308632850647,182.5308632850647,182.5308632850647,183.331796169281,3,0.9335894584655762,None,,,,,,,,,,,,,,,,,,126,5,2025-02-26_11h26.03.077,comp,2024.2.4,64.1177945321911,2025-02-26 11h26.14.316206 -0500,
95,95,0,filler_square,None,None,None,None,None,None,None,None,None,None,3,0.8393537998199463,None,,,,,0,0,0,0,0,95,95,182,183.3473572731018,,,,,,,,,,,,,,,,,,,,,,,,,,,,,,,,,,,,,,,,,,,,,,,,,,,,,,,,,,,,,,,,,,,,,,,,,,,,,,,,,69.44073685558851,98.47002107448128,68.62468097386748,91.05949448332558,139.36284405768254,139.36284405768254,2.1,2.11,-191,260,0,263,211,-270,183.33277773857117,183.3328185081482,183.33528995513916,183.3473572731018,183.4975941181183,183.4975941181183,183.4975941181183,183.4975941181183,183.4975941181183,183.4975941181183,183.4975941181183,184.19876432418823,3,0.8393537998199463,None,,,,,,,,,,,,,,,,,,126,5,2025-02-26_11h26.03.077,comp,2024.2.4,64.1177945321911,2025-02-26 11h26.14.316206 -0500,
96,96,0,filler_random,None,None,None,None,None,None,None,None,None,None,3,0.7006704807281494,None,,,,,0,0,0,0,0,96,96,141,184.21408319473267,,,,,,,,,,,,,,,,,,,,,,,,,,,,,,,,,,,,,,,,,,,,,,,,,,,,,,,,,,,,,,,,,,,,,,,,,,,,,,,,,59.3409424986283,148.823596639463,60.332423672364605,73.00417804045989,150.40141437471954,143.03177488052006,3.0,3.1,-207,264,0,-6,204,-252,184.1996774673462,184.19971871376038,184.20208501815796,184.21408319473267,184.3643090724945,184.3643090724945,184.3643090724945,184.3643090724945,184.3643090724945,184.3643090724945,184.3643090724945,184.93188095092773,3,0.7006704807281494,None,,,,,,,,,,,,,,,,,,126,5,2025-02-26_11h26.03.077,comp,2024.2.4,64.1177945321911,2025-02-26 11h26.14.316206 -0500,
97,97,0,critical,hdw,35.0,3.0,lower,133.0,57.0,70.0,70.0,57.0,133.0,3,1.1514184474945068,None,,,,,0,0,0,0,0,97,97,110,184.9473376274109,,,,,,,,,,,,,,,,,,,,,,,,,,,,,,,,,,,,,,,,,,,,,,,,,,,,,,,,,,,,,,,,,,,,,,,,,,,,,,,,,133.0,57.0,70.0,70.0,57.0,133.0,3.0,3.1,-160,268,0,8,198,-265,184.93267226219177,184.9327142238617,184.93514370918274,184.9473376274109,185.09753274917603,185.09753274917603,185.09753274917603,185.09753274917603,185.09753274917603,185.09753274917603,185.09753274917603,186.1152925491333,3,1.1514184474945068,None,,,,,,,,,,,,,,,,,,126,5,2025-02-26_11h26.03.077,comp,2024.2.4,64.1177945321911,2025-02-26 11h26.14.316206 -0500,
98,98,0,critical,dwh,35.0,3.0,lower,70.0,70.0,57.0,133.0,133.0,57.0,2,0.7047164440155029,None,,,,,0,0,0,0,0,98,98,62,186.1307818889618,,,,,,,,,,,,,,,,,,,,,,,,,,,,,,,,,,,,,,,,,,,,,,,,,,,,,,,,,,,,,,,,,,,,,,,,,,,,,,,,,70.0,70.0,57.0,133.0,133.0,57.0,3.0,3.2,-198,-277,0,5,191,277,186.1160707473755,186.11610960960388,186.11810421943665,186.1307818889618,186.2807857990265,186.2807857990265,186.2807857990265,186.2807857990265,186.2807857990265,186.2807857990265,186.2807857990265,186.8485345840454,2,0.7047164440155029,None,,,,,,,,,,,,,,,,,,126,5,2025-02-26_11h26.03.077,comp,2024.2.4,64.1177945321911,2025-02-26 11h26.14.316206 -0500,
99,99,0,critical,dwh,35.0,4.0,lower,70.0,70.0,57.0,133.0,133.0,57.0,2,0.65958571434021,None,,,,,0,0,0,0,0,99,99,64,186.8639657497406,,,,,,,,,,,,,,,,,,,,,,,,,,,,,,,,,,,,,,,,,,,,,,,,,,,,,,,,,,,,,,,,,,,,,,,,,,,,,,,,,70.0,70.0,57.0,133.0,133.0,57.0,4.0,4.1,-198,-255,0,12,191,-254,186.8493173122406,186.84935760498047,186.85167694091797,186.8639657497406,187.03083491325378,187.03083491325378,187.03083491325378,187.03083491325378,187.03083491325378,187.03083491325378,187.03083491325378,187.53213024139404,2,0.65958571434021,None,,,,,,,,,,,,,,,,,,126,5,2025-02-26_11h26.03.077,comp,2024.2.4,64.1177945321911,2025-02-26 11h26.14.316206 -0500,
100,100,0,filler_random,None,None,None,None,None,None,None,None,None,None,1,1.4962875843048096,None,,,,,0,0,0,0,0,100,100,154,187.54767370224,,,,,,,,,,,,,,,,,,,,,,,,,,,,,,,,,,,,,,,,,,,,,,,,,,,,,,,,,,,,,,,,,,,,,,,,,,,,,,,,,149.49545184860622,98.5570651706837,172.6666961803383,70.69125074280188,86.83713226417004,151.9875392787614,1.0,1.2,-181,14,0,-1,207,-15,187.5330457687378,187.53308701515198,187.53557634353638,187.54767370224,187.69749236106873,187.69749236106873,187.69749236106873,187.69749236106873,187.69749236106873,187.69749236106873,187.69749236106873,189.04881167411804,1,1.4962875843048096,None,,,,,,,,,,,,,,,,,,126,5,2025-02-26_11h26.03.077,comp,2024.2.4,64.1177945321911,2025-02-26 11h26.14.316206 -0500,
101,101,0,filler_random,None,None,None,None,None,None,None,None,None,None,2,0.7001669406890869,None,,,,,0,0,0,0,0,101,101,156,189.0642900466919,,,,,,,,,,,,,,,,,,,,,,,,,,,,,,,,,,,,,,,,,,,,,,,,,,,,,,,,,,,,,,,,,,,,,,,,,,,,,,,,,71.79391102283074,160.749654646961,176.62549341567083,167.04249971476796,181.562825370508,59.73755041634248,2.1,2.11,-260,252,0,278,209,-281,189.04976963996887,189.0498116016388,189.0522482395172,189.0642900466919,189.21417760849,189.21417760849,189.21417760849,189.21417760849,189.21417760849,189.21417760849,189.21417760849,189.78211665153503,2,0.7001669406890869,None,,,,,,,,,,,,,,,,,,126,5,2025-02-26_11h26.03.077,comp,2024.2.4,64.1177945321911,2025-02-26 11h26.14.316206 -0500,
102,102,0,critical,dwh,35.0,1.0,lower,70.0,70.0,57.0,133.0,133.0,57.0,2,1.0380334854125977,None,,,,,0,0,0,0,0,102,102,60,189.7973964214325,,,,,,,,,,,,,,,,,,,,,,,,,,,,,,,,,,,,,,,,,,,,,,,,,,,,,,,,,,,,,,,,,,,,,,,,,,,,,,,,,70.0,70.0,57.0,133.0,133.0,57.0,1.0,1.1,-678,286,-480,250,-289,266,189.78292083740234,189.78296184539795,189.78543996810913,189.7973964214325,189.94744753837585,189.94744753837585,189.94744753837585,189.94744753837585,189.94744753837585,189.94744753837585,189.94744753837585,190.84842085838318,2,1.0380334854125977,None,,,,,,,,,,,,,,,,,,126,5,2025-02-26_11h26.03.077,comp,2024.2.4,64.1177945321911,2025-02-26 11h26.14.316206 -0500,
103,103,0,filler_random,None,None,None,None,None,None,None,None,None,None,3,0.7170364856719971,None,,,,,0,0,0,0,0,103,103,130,190.86397910118103,,,,,,,,,,,,,,,,,,,,,,,,,,,,,,,,,,,,,,,,,,,,,,,,,,,,,,,,,,,,,,,,,,,,,,,,,,,,,,,,,81.58925906774158,164.43028462187362,128.9448290910788,82.60832895658858,111.28985460214244,176.93821091326055,2.1,2.12,-220,-276,0,-268,226,258,190.8493423461914,190.84938168525696,190.85165357589722,190.86397910118103,191.01421475410461,191.01421475410461,191.01421475410461,191.01421475410461,191.01421475410461,191.01421475410461,191.01421475410461,191.59857988357544,3,0.7170364856719971,None,,,,,,,,,,,,,,,,,,126,5,2025-02-26_11h26.03.077,comp,2024.2.4,64.1177945321911,2025-02-26 11h26.14.316206 -0500,
104,104,0,critical,hdw,35.0,3.0,upper,200.0,125.0,127.0,127.0,125.0,200.0,3,0.9837338924407959,None,,,,,0,0,0,0,0,104,104,111,191.61398148536682,,,,,,,,,,,,,,,,,,,,,,,,,,,,,,,,,,,,,,,,,,,,,,,,,,,,,,,,,,,,,,,,,,,,,,,,,,,,,,,,,200.0,125.0,127.0,127.0,125.0,200.0,3.0,3.1,-222,279,0,-7,260,-259,191.59935212135315,191.59939312934875,191.60172486305237,191.61398148536682,191.76435256004333,191.76435256004333,191.76435256004333,191.76435256004333,191.76435256004333,191.76435256004333,191.76435256004333,192.59919381141663,3,0.9837338924407959,None,,,,,,,,,,,,,,,,,,126,5,2025-02-26_11h26.03.077,comp,2024.2.4,64.1177945321911,2025-02-26 11h26.14.316206 -0500,
105,105,0,filler_square,None,None,None,None,None,None,None,None,None,None,1,0.7666049003601074,None,,,,,0,0,0,0,0,105,105,196,192.61436414718628,,,,,,,,,,,,,,,,,,,,,,,,,,,,,,,,,,,,,,,,,,,,,,,,,,,,,,,,,,,,,,,,,,,,,,,,,,,,,,,,,133.02123584435276,133.02123584435276,81.40477079195567,67.65622010397293,99.46900574471002,60.7767693157826,2.1,2.12,-196,-258,0,-277,160,258,192.60017013549805,192.60021114349365,192.6027750968933,192.61436414718628,192.7644214630127,192.7644214630127,192.7644214630127,192.7644214630127,192.7644214630127,192.7644214630127,192.7644214630127,193.39854502677917,1,0.7666049003601074,None,,,,,,,,,,,,,,,,,,126,5,2025-02-26_11h26.03.077,comp,2024.2.4,64.1177945321911,2025-02-26 11h26.14.316206 -0500,
106,106,0,critical,dwh,20.0,3.0,upper,141.0,141.0,125.0,200.0,200.0,125.0,2,0.6528654098510742,None,,,,,0,0,0,0,0,106,106,69,193.413902759552,,,,,,,,,,,,,,,,,,,,,,,,,,,,,,,,,,,,,,,,,,,,,,,,,,,,,,,,,,,,,,,,,,,,,,,,,,,,,,,,,141.0,141.0,125.0,200.0,200.0,125.0,3.0,3.1,-266,289,0,5,258,-254,193.3993263244629,193.39936709403992,193.40170168876648,193.413902759552,193.56435370445251,193.56435370445251,193.56435370445251,193.56435370445251,193.56435370445251,193.56435370445251,193.56435370445251,194.08206152915955,2,0.6528654098510742,None,,,,,,,,,,,,,,,,,,126,5,2025-02-26_11h26.03.077,comp,2024.2.4,64.1177945321911,2025-02-26 11h26.14.316206 -0500,
107,107,0,critical,dhw,20.0,2.1,lower,78.0,78.0,133.0,57.0,57.0,133.0,1,2.058399200439453,None,,,,,0,0,0,0,0,107,107,2,194.09732866287231,,,,,,,,,,,,,,,,,,,,,,,,,,,,,,,,,,,,,,,,,,,,,,,,,,,,,,,,,,,,,,,,,,,,,,,,,,,,,,,,,78.0,78.0,133.0,57.0,57.0,133.0,2.1,2.11,-164,252,0,269,191,-257,194.08288550376892,194.08292698860168,194.08537673950195,194.09732866287231,194.24742698669434,194.24742698669434,194.24742698669434,194.24742698669434,194.24742698669434,194.24742698669434,194.24742698669434,196.16519784927368,1,2.058399200439453,None,,,,,,,,,,,,,,,,,,126,5,2025-02-26_11h26.03.077,comp,2024.2.4,64.1177945321911,2025-02-26 11h26.14.316206 -0500,
108,108,0,critical,dwh,35.0,4.0,upper,127.0,127.0,125.0,200.0,200.0,125.0,3,0.9177589416503906,None,,,,,0,0,0,0,0,108,108,65,196.18091750144958,,,,,,,,,,,,,,,,,,,,,,,,,,,,,,,,,,,,,,,,,,,,,,,,,,,,,,,,,,,,,,,,,,,,,,,,,,,,,,,,,127.0,127.0,125.0,200.0,200.0,125.0,4.0,4.1,-260,-274,0,4,258,-263,196.16599297523499,196.1660339832306,196.168226480484,196.18091750144958,196.3309302330017,196.3309302330017,196.3309302330017,196.3309302330017,196.3309302330017,196.3309302330017,196.3309302330017,197.11537432670593,3,0.9177589416503906,None,,,,,,,,,,,,,,,,,,126,5,2025-02-26_11h26.03.077,comp,2024.2.4,64.1177945321911,2025-02-26 11h26.14.316206 -0500,
109,109,0,critical,wdh,20.0,2.1,lower,57.0,133.0,78.0,78.0,133.0,57.0,1,1.3200726509094238,None,,,,,0,0,0,0,0,109,109,10,197.13063383102417,,,,,,,,,,,,,,,,,,,,,,,,,,,,,,,,,,,,,,,,,,,,,,,,,,,,,,,,,,,,,,,,,,,,,,,,,,,,,,,,,57.0,133.0,78.0,78.0,133.0,57.0,2.1,2.11,-202,273,0,262,164,-257,197.1161594390869,197.11619973182678,197.11845660209656,197.13063383102417,197.2806956768036,197.2806956768036,197.2806956768036,197.2806956768036,197.2806956768036,197.2806956768036,197.2806956768036,198.4652075767517,1,1.3200726509094238,None,,,,,,,,,,,,,,,,,,126,5,2025-02-26_11h26.03.077,comp,2024.2.4,64.1177945321911,2025-02-26 11h26.14.316206 -0500,
110,110,0,critical,dhw,35.0,2.1,upper,127.0,127.0,200.0,125.0,125.0,200.0,3,0.64304518699646,None,,,,,0,0,0,0,0,110,110,25,198.4805989265442,,,,,,,,,,,,,,,,,,,,,,,,,,,,,,,,,,,,,,,,,,,,,,,,,,,,,,,,,,,,,,,,,,,,,,,,,,,,,,,,,127.0,127.0,200.0,125.0,125.0,200.0,2.1,2.12,-222,-287,0,-272,258,286,198.4660201072693,198.46606159210205,198.46805834770203,198.4805989265442,198.63101935386658,198.63101935386658,198.63101935386658,198.63101935386658,198.63101935386658,198.63101935386658,198.63101935386658,199.13213896751404,3,0.64304518699646,None,,,,,,,,,,,,,,,,,,126,5,2025-02-26_11h26.03.077,comp,2024.2.4,64.1177945321911,2025-02-26 11h26.14.316206 -0500,
111,111,0,critical,dhw,35.0,2.1,upper,127.0,127.0,200.0,125.0,125.0,200.0,3,0.9511735439300537,None,,,,,0,0,0,0,0,111,111,1,199.1474802494049,,,,,,,,,,,,,,,,,,,,,,,,,,,,,,,,,,,,,,,,,,,,,,,,,,,,,,,,,,,,,,,,,,,,,,,,,,,,,,,,,127.0,127.0,200.0,125.0,125.0,200.0,2.1,2.11,-222,269,0,274,258,-254,199.1329448223114,199.13298511505127,199.13551902770996,199.1474802494049,199.29757142066956,199.29757142066956,199.29757142066956,199.29757142066956,199.29757142066956,199.29757142066956,199.29757142066956,200.11538910865784,3,0.9511735439300537,None,,,,,,,,,,,,,,,,,,126,5,2025-02-26_11h26.03.077,comp,2024.2.4,64.1177945321911,2025-02-26 11h26.14.316206 -0500,
112,112,0,filler_random,None,None,None,None,None,None,None,None,None,None,1,0.6822593212127686,None,,,,,0,0,0,0,0,112,112,147,200.13066911697388,,,,,,,,,,,,,,,,,,,,,,,,,,,,,,,,,,,,,,,,,,,,,,,,,,,,,,,,,,,,,,,,,,,,,,,,,,,,,,,,,135.0825346402447,152.88318768528708,64.59181386060818,190.24332872503243,106.22082954408194,150.1592733403529,3.0,3.1,-268,266,0,10,266,-283,200.11623620986938,200.11628675460815,200.11824297904968,200.13066911697388,200.28090929985046,200.28090929985046,200.28090929985046,200.28090929985046,200.28090929985046,200.28090929985046,200.28090929985046,200.81539034843445,1,0.6822593212127686,None,,,,,,,,,,,,,,,,,,126,5,2025-02-26_11h26.03.077,comp,2024.2.4,64.1177945321911,2025-02-26 11h26.14.316206 -0500,
113,113,0,critical,hwd,20.0,2.1,lower,133.0,57.0,57.0,133.0,78.0,78.0,2,1.9821257591247559,None,,,,,0,0,0,0,0,113,113,42,200.8307650089264,,,,,,,,,,,,,,,,,,,,,,,,,,,,,,,,,,,,,,,,,,,,,,,,,,,,,,,,,,,,,,,,,,,,,,,,,,,,,,,,,133.0,57.0,57.0,133.0,78.0,78.0,2.1,2.12,-191,-272,0,-265,202,254,200.81624555587769,200.81630420684814,200.818359375,200.8307650089264,200.98079538345337,200.98079538345337,200.98079538345337,200.98079538345337,200.98079538345337,200.98079538345337,200.98079538345337,202.81528782844543,2,1.9821257591247559,None,,,,,,,,,,,,,,,,,,126,5,2025-02-26_11h26.03.077,comp,2024.2.4,64.1177945321911,2025-02-26 11h26.14.316206 -0500,
114,114,0,filler_square,None,None,None,None,None,None,None,None,None,None,2,1.051781415939331,None,,,,,0,0,0,0,0,114,114,172,202.83088636398315,,,,,,,,,,,,,,,,,,,,,,,,,,,,,,,,,,,,,,,,,,,,,,,,,,,,,,,,,,,,,,,,,,,,,,,,,,,,,,,,,57.87421139646009,58.9392474367096,60.73795028658195,60.73795028658195,59.59561626018275,58.94324282949218,1.0,1.1,-636,285,-480,253,-324,271,202.81617498397827,202.8162133693695,202.81820106506348,202.83088636398315,202.980699300766,202.980699300766,202.980699300766,202.980699300766,202.980699300766,202.980699300766,202.980699300766,203.8984305858612,2,1.051781415939331,None,,,,,,,,,,,,,,,,,,126,5,2025-02-26_11h26.03.077,comp,2024.2.4,64.1177945321911,2025-02-26 11h26.14.316206 -0500,
115,115,0,critical,hdw,20.0,2.1,lower,133.0,57.0,78.0,78.0,57.0,133.0,3,0.8171682357788086,None,,,,,0,0,0,0,0,115,115,22,203.9139907360077,,,,,,,,,,,,,,,,,,,,,,,,,,,,,,,,,,,,,,,,,,,,,,,,,,,,,,,,,,,,,,,,,,,,,,,,,,,,,,,,,133.0,57.0,78.0,78.0,57.0,133.0,2.1,2.12,-164,-259,0,-280,202,250,203.89918661117554,203.8992247581482,203.901469707489,203.9139907360077,204.0640287399292,204.0640287399292,204.0640287399292,204.0640287399292,204.0640287399292,204.0640287399292,204.0640287399292,204.7484483718872,3,0.8171682357788086,None,,,,,,,,,,,,,,,,,,126,5,2025-02-26_11h26.03.077,comp,2024.2.4,64.1177945321911,2025-02-26 11h26.14.316206 -0500,
116,116,0,critical,wdh,35.0,3.0,upper,125.0,200.0,127.0,127.0,200.0,125.0,1,0.9595193862915039,None,,,,,0,0,0,0,0,116,116,75,204.76400423049927,,,,,,,,,,,,,,,,,,,,,,,,,,,,,,,,,,,,,,,,,,,,,,,,,,,,,,,,,,,,,,,,,,,,,,,,,,,,,,,,,125.0,200.0,127.0,127.0,200.0,125.0,3.0,3.2,-260,-274,0,11,222,287,204.7492160797119,204.74925661087036,204.75154495239258,204.76400423049927,204.91418027877808,204.91418027877808,204.91418027877808,204.91418027877808,204.91418027877808,204.91418027877808,204.91418027877808,205.73199343681335,1,0.9595193862915039,None,,,,,,,,,,,,,,,,,,126,5,2025-02-26_11h26.03.077,comp,2024.2.4,64.1177945321911,2025-02-26 11h26.14.316206 -0500,
117,117,0,critical,dhw,35.0,3.0,upper,127.0,127.0,200.0,125.0,125.0,200.0,3,1.1841232776641846,None,,,,,0,0,0,0,0,117,117,51,205.7474536895752,,,,,,,,,,,,,,,,,,,,,,,,,,,,,,,,,,,,,,,,,,,,,,,,,,,,,,,,,,,,,,,,,,,,,,,,,,,,,,,,,127.0,127.0,200.0,125.0,125.0,200.0,3.0,3.2,-222,-267,0,-6,258,290,205.73281335830688,205.7328553199768,205.7352569103241,205.7474536895752,205.89786458015442,205.89786458015442,205.89786458015442,205.89786458015442,205.89786458015442,205.89786458015442,205.89786458015442,206.94877290725708,3,1.1841232776641846,None,,,,,,,,,,,,,,,,,,126,5,2025-02-26_11h26.03.077,comp,2024.2.4,64.1177945321911,2025-02-26 11h26.14.316206 -0500,
118,118,0,critical,whd,20.0,2.1,lower,57.0,133.0,133.0,57.0,78.0,78.0,1,1.5114259719848633,None,,,,,0,0,0,0,0,118,118,14,206.96396040916443,,,,,,,,,,,,,,,,,,,,,,,,,,,,,,,,,,,,,,,,,,,,,,,,,,,,,,,,,,,,,,,,,,,,,,,,,,,,,,,,,57.0,133.0,133.0,57.0,78.0,78.0,2.1,2.11,-191,257,0,268,164,-284,206.94956994056702,206.94960951805115,206.9519386291504,206.96396040916443,207.1140377521515,207.1140377521515,207.1140377521515,207.1140377521515,207.1140377521515,207.1140377521515,207.1140377521515,208.4818253517151,1,1.5114259719848633,None,,,,,,,,,,,,,,,,,,126,5,2025-02-26_11h26.03.077,comp,2024.2.4,64.1177945321911,2025-02-26 11h26.14.316206 -0500,
119,119,0,critical,dwh,35.0,2.1,upper,127.0,127.0,125.0,200.0,200.0,125.0,3,0.9464590549468994,None,,,,,0,0,0,0,0,119,119,5,208.49748253822327,,,,,,,,,,,,,,,,,,,,,,,,,,,,,,,,,,,,,,,,,,,,,,,,,,,,,,,,,,,,,,,,,,,,,,,,,,,,,,,,,127.0,127.0,125.0,200.0,200.0,125.0,2.1,2.11,-260,251,0,261,258,-268,208.48261880874634,208.48266100883484,208.48521852493286,208.49748253822327,208.6475706100464,208.6475706100464,208.6475706100464,208.6475706100464,208.6475706100464,208.6475706100464,208.6475706100464,209.44873976707458,3,0.9464590549468994,None,,,,,,,,,,,,,,,,,,126,5,2025-02-26_11h26.03.077,comp,2024.2.4,64.1177945321911,2025-02-26 11h26.14.316206 -0500,
120,120,0,filler_square,None,None,None,None,None,None,None,None,None,None,3,0.7798635959625244,None,,,,,0,0,0,0,0,120,120,185,209.4640498161316,,,,,,,,,,,,,,,,,,,,,,,,,,,,,,,,,,,,,,,,,,,,,,,,,,,,,,,,,,,,,,,,,,,,,,,,,,,,,,,,,119.60541260814696,177.7240810661726,108.34039892956557,65.92367647986224,180.36645886430534,180.36645886430534,2.1,2.11,-218,287,0,286,219,-272,209.44974994659424,209.449791431427,209.4523012638092,209.4640498161316,209.6143102645874,209.6143102645874,209.6143102645874,209.6143102645874,209.6143102645874,209.6143102645874,209.6143102645874,210.24872016906738,3,0.7798635959625244,None,,,,,,,,,,,,,,,,,,126,5,2025-02-26_11h26.03.077,comp,2024.2.4,64.1177945321911,2025-02-26 11h26.14.316206 -0500,
121,121,0,filler_square,None,None,None,None,None,None,None,None,None,None,1,0.9712011814117432,None,,,,,0,0,0,0,0,121,121,189,210.2640883922577,,,,,,,,,,,,,,,,,,,,,,,,,,,,,,,,,,,,,,,,,,,,,,,,,,,,,,,,,,,,,,,,,,,,,,,,,,,,,,,,,77.03658147832567,77.03658147832567,64.90478548391633,67.53778655127296,64.27044411140221,66.94227904152062,2.1,2.11,-168,264,0,274,163,-262,210.24963283538818,210.24967169761658,210.2520453929901,210.2640883922577,210.41412806510925,210.41412806510925,210.41412806510925,210.41412806510925,210.41412806510925,210.41412806510925,210.41412806510925,211.2484474182129,1,0.9712011814117432,None,,,,,,,,,,,,,,,,,,126,5,2025-02-26_11h26.03.077,comp,2024.2.4,64.1177945321911,2025-02-26 11h26.14.316206 -0500,
122,122,0,filler_random,None,None,None,None,None,None,None,None,None,None,3,0.9548695087432861,None,,,,,0,0,0,0,0,122,122,139,211.26379442214966,,,,,,,,,,,,,,,,,,,,,,,,,,,,,,,,,,,,,,,,,,,,,,,,,,,,,,,,,,,,,,,,,,,,,,,,,,,,,,,,,63.72182379921232,85.58861241715228,129.94716599881014,120.1093827942098,176.3558868429752,124.86828813622692,2.2,2.22,-199,254,0,-287,218,-257,211.24933385849,211.24937438964844,211.25163078308105,211.26379442214966,211.41411757469177,211.41411757469177,211.41411757469177,211.41411757469177,211.41411757469177,211.41411757469177,211.41411757469177,212.23187398910522,3,0.9548695087432861,None,,,,,,,,,,,,,,,,,,126,5,2025-02-26_11h26.03.077,comp,2024.2.4,64.1177945321911,2025-02-26 11h26.14.316206 -0500,
123,123,0,filler_square,None,None,None,None,None,None,None,None,None,None,1,0.9336862564086914,None,,,,,0,0,0,0,0,123,123,208,212.2472174167633,,,,,,,,,,,,,,,,,,,,,,,,,,,,,,,,,,,,,,,,,,,,,,,,,,,,,,,,,,,,,,,,,,,,,,,,,,,,,,,,,108.78791758461804,108.78791758461804,76.03073862682297,90.00953294763859,70.21021490911912,74.9149310424002,2.1,2.11,-195,265,0,264,178,-276,212.23285508155823,212.2328975200653,212.23531889915466,212.2472174167633,212.39736533164978,212.39736533164978,212.39736533164978,212.39736533164978,212.39736533164978,212.39736533164978,212.39736533164978,213.1985728740692,1,0.9336862564086914,None,,,,,,,,,,,,,,,,,,126,5,2025-02-26_11h26.03.077,comp,2024.2.4,64.1177945321911,2025-02-26 11h26.14.316206 -0500,
124,124,0,critical,dhw,35.0,4.0,lower,70.0,70.0,133.0,57.0,57.0,133.0,2,0.7668004035949707,None,,,,,0,0,0,0,0,124,124,52,213.21393585205078,,,,,,,,,,,,,,,,,,,,,,,,,,,,,,,,,,,,,,,,,,,,,,,,,,,,,,,,,,,,,,,,,,,,,,,,,,,,,,,,,70.0,70.0,133.0,57.0,57.0,133.0,4.0,4.1,-160,-288,0,-5,191,-285,213.19940376281738,213.19944429397583,213.2017514705658,213.21393585205078,213.36403346061707,213.36403346061707,213.36403346061707,213.36403346061707,213.36403346061707,213.36403346061707,213.36403346061707,213.99835419654846,2,0.7668004035949707,None,,,,,,,,,,,,,,,,,,126,5,2025-02-26_11h26.03.077,comp,2024.2.4,64.1177945321911,2025-02-26 11h26.14.316206 -0500,
125,125,0,filler_random,None,None,None,None,None,None,None,None,None,None,2,0.67771315574646,None,,,,,0,0,0,0,0,125,125,164,214.01385521888733,,,,,,,,,,,,,,,,,,,,,,,,,,,,,,,,,,,,,,,,,,,,,,,,,,,,,,,,,,,,,,,,,,,,,,,,,,,,,,,,,70.58794839779215,189.86463834472735,92.58378380417261,165.9200774144798,90.73718810334961,62.83385362784618,2.2,2.22,-274,280,0,-286,210,-257,213.99925780296326,213.99931073188782,214.0016224384308,214.01385521888733,214.16403770446777,214.16403770446777,214.16403770446777,214.16403770446777,214.16403770446777,214.16403770446777,214.16403770446777,214.69853258132935,2,0.67771315574646,None,,,,,,,,,,,,,,,,,,126,5,2025-02-26_11h26.03.077,comp,2024.2.4,64.1177945321911,2025-02-26 11h26.14.316206 -0500,
126,126,0,filler_square,None,None,None,None,None,None,None,None,None,None,3,0.6668393611907959,None,,,,,0,0,0,0,0,126,126,177,214.7140555381775,,,,,,,,,,,,,,,,,,,,,,,,,,,,,,,,,,,,,,,,,,,,,,,,,,,,,,,,,,,,,,,,,,,,,,,,,,,,,,,,,164.65792101560754,96.55417585041826,114.72993659928753,109.40385072087369,193.06653245734978,193.06653245734978,1.0,1.1,-679,266,-480,268,-233,278,214.69946312904358,214.6995027065277,214.70147514343262,214.7140555381775,214.86430382728577,214.86430382728577,214.86430382728577,214.86430382728577,214.86430382728577,214.86430382728577,214.86430382728577,215.39858198165894,3,0.6668393611907959,None,,,,,,,,,,,,,,,,,,126,5,2025-02-26_11h26.03.077,comp,2024.2.4,64.1177945321911,2025-02-26 11h26.14.316206 -0500,
127,127,0,critical,wdh,20.0,1.0,lower,57.0,133.0,78.0,78.0,133.0,57.0,3,1.477764368057251,None,,,,,0,0,0,0,0,127,127,78,215.41385293006897,,,,,,,,,,,,,,,,,,,,,,,,,,,,,,,,,,,,,,,,,,,,,,,,,,,,,,,,,,,,,,,,,,,,,,,,,,,,,,,,,57.0,133.0,78.0,78.0,133.0,57.0,1.0,1.1,-682,271,-480,277,-316,286,215.3993799686432,215.39942288398743,215.40175557136536,215.41385293006897,215.56405115127563,215.56405115127563,215.56405115127563,215.56405115127563,215.56405115127563,215.56405115127563,215.56405115127563,216.89860796928406,3,1.477764368057251,None,,,,,,,,,,,,,,,,,,126,5,2025-02-26_11h26.03.077,comp,2024.2.4,64.1177945321911,2025-02-26 11h26.14.316206 -0500,
128,128,0,filler_square,None,None,None,None,None,None,None,None,None,None,3,0.8092005252838135,None,,,,,0,0,0,0,0,128,128,203,216.91412591934204,,,,,,,,,,,,,,,,,,,,,,,,,,,,,,,,,,,,,,,,,,,,,,,,,,,,,,,,,,,,,,,,,,,,,,,,,,,,,,,,,164.2964571564817,74.13957476842793,188.65198360258478,144.36681485143066,193.69616722884865,193.69616722884865,4.0,4.1,-205,-282,0,-11,265,-256,216.89954352378845,216.89958357810974,216.90154385566711,216.91412591934204,217.0641987323761,217.0641987323761,217.0641987323761,217.0641987323761,217.0641987323761,217.0641987323761,217.0641987323761,217.7320954799652,3,0.8092005252838135,None,,,,,,,,,,,,,,,,,,126,5,2025-02-26_11h26.03.077,comp,2024.2.4,64.1177945321911,2025-02-26 11h26.14.316206 -0500,
129,129,0,critical,hdw,20.0,2.1,upper,200.0,125.0,141.0,141.0,125.0,200.0,1,1.1919734477996826,None,,,,,0,0,0,0,0,129,129,47,217.747385263443,,,,,,,,,,,,,,,,,,,,,,,,,,,,,,,,,,,,,,,,,,,,,,,,,,,,,,,,,,,,,,,,,,,,,,,,,,,,,,,,,200.0,125.0,141.0,141.0,125.0,200.0,2.1,2.12,-229,-260,0,-261,266,254,217.73289513587952,217.73293662071228,217.7350537776947,217.747385263443,217.89754271507263,217.89754271507263,217.89754271507263,217.89754271507263,217.89754271507263,217.89754271507263,217.89754271507263,218.94858145713806,1,1.1919734477996826,None,,,,,,,,,,,,,,,,,,126,5,2025-02-26_11h26.03.077,comp,2024.2.4,64.1177945321911,2025-02-26 11h26.14.316206 -0500,
130,130,0,filler_square,None,None,None,None,None,None,None,None,None,None,2,0.6797926425933838,None,,,,,0,0,0,0,0,130,130,174,218.96403098106384,,,,,,,,,,,,,,,,,,,,,,,,,,,,,,,,,,,,,,,,,,,,,,,,,,,,,,,,,,,,,,,,,,,,,,,,,,,,,,,,,113.27245015424964,91.97363501033149,155.48746149722174,155.48746149722174,79.7782129179745,70.61436842993542,1.0,1.2,-220,-1,0,-10,209,-2,218.9495222568512,218.9495644569397,218.95194268226624,218.96403098106384,219.11417698860168,219.11417698860168,219.11417698860168,219.11417698860168,219.11417698860168,219.11417698860168,219.11417698860168,219.6485514640808,2,0.6797926425933838,None,,,,,,,,,,,,,,,,,,126,5,2025-02-26_11h26.03.077,comp,2024.2.4,64.1177945321911,2025-02-26 11h26.14.316206 -0500,
131,131,0,critical,dhw,20.0,2.1,upper,141.0,141.0,200.0,125.0,125.0,200.0,2,1.2753524780273438,None,,,,,0,0,0,0,0,131,131,27,219.66397619247437,,,,,,,,,,,,,,,,,,,,,,,,,,,,,,,,,,,,,,,,,,,,,,,,,,,,,,,,,,,,,,,,,,,,,,,,,,,,,,,,,141.0,141.0,200.0,125.0,125.0,200.0,2.1,2.11,-229,278,0,252,258,-262,219.6493158340454,219.64935493469238,219.6516044139862,219.66397619247437,219.8141152858734,219.8141152858734,219.8141152858734,219.8141152858734,219.8141152858734,219.8141152858734,219.8141152858734,220.94856333732605,2,1.2753524780273438,None,,,,,,,,,,,,,,,,,,126,5,2025-02-26_11h26.03.077,comp,2024.2.4,64.1177945321911,2025-02-26 11h26.14.316206 -0500,
132,132,0,critical,hwd,35.0,4.0,upper,200.0,125.0,125.0,200.0,127.0,127.0,2,1.0487303733825684,None,,,,,0,0,0,0,0,132,132,101,220.96404123306274,,,,,,,,,,,,,,,,,,,,,,,,,,,,,,,,,,,,,,,,,,,,,,,,,,,,,,,,,,,,,,,,,,,,,,,,,,,,,,,,,200.0,125.0,125.0,200.0,127.0,127.0,4.0,4.2,-258,0,0,-270,260,-7,220.94937562942505,220.94941759109497,220.95147824287415,220.96404123306274,221.11420369148254,221.11420369148254,221.11420369148254,221.11420369148254,221.11420369148254,221.11420369148254,221.11420369148254,222.0153923034668,2,1.0487303733825684,None,,,,,,,,,,,,,,,,,,126,5,2025-02-26_11h26.03.077,comp,2024.2.4,64.1177945321911,2025-02-26 11h26.14.316206 -0500,
133,133,0,critical,hwd,20.0,1.0,lower,133.0,57.0,57.0,133.0,78.0,78.0,3,0.9980897903442383,None,,,,,0,0,0,0,0,133,133,102,222.03077244758606,,,,,,,,,,,,,,,,,,,,,,,,,,,,,,,,,,,,,,,,,,,,,,,,,,,,,,,,,,,,,,,,,,,,,,,,,,,,,,,,,133.0,57.0,57.0,133.0,78.0,78.0,1.0,1.1,-671,274,-480,285,-278,284,222.01615715026855,222.01619935035706,222.01827716827393,222.03077244758606,222.1806516647339,222.1806516647339,222.1806516647339,222.1806516647339,222.1806516647339,222.1806516647339,222.1806516647339,223.03189420700073,3,0.9980897903442383,None,,,,,,,,,,,,,,,,,,126,5,2025-02-26_11h26.03.077,comp,2024.2.4,64.1177945321911,2025-02-26 11h26.14.316206 -0500,
134,134,0,critical,dwh,35.0,1.0,upper,127.0,127.0,125.0,200.0,200.0,125.0,3,0.7244491577148438,None,,,,,0,0,0,0,0,134,134,61,223.04743790626526,,,,,,,,,,,,,,,,,,,,,,,,,,,,,,,,,,,,,,,,,,,,,,,,,,,,,,,,,,,,,,,,,,,,,,,,,,,,,,,,,127.0,127.0,125.0,200.0,200.0,125.0,1.0,1.2,-260,-16,0,4,258,-15,223.03267526626587,223.0327160358429,223.03507828712463,223.04743790626526,223.1974320411682,223.1974320411682,223.1974320411682,223.1974320411682,223.1974320411682,223.1974320411682,223.1974320411682,223.78191089630127,3,0.7244491577148438,None,,,,,,,,,,,,,,,,,,126,5,2025-02-26_11h26.03.077,comp,2024.2.4,64.1177945321911,2025-02-26 11h26.14.316206 -0500,
135,135,0,filler_square,None,None,None,None,None,None,None,None,None,None,2,0.8376047611236572,None,,,,,0,0,0,0,0,135,135,200,223.7976622581482,,,,,,,,,,,,,,,,,,,,,,,,,,,,,,,,,,,,,,,,,,,,,,,,,,,,,,,,,,,,,,,,,,,,,,,,,,,,,,,,,152.95291093131624,162.50098840580733,177.26108768980794,177.26108768980794,122.37123613606234,89.98651736296289,2.1,2.11,-266,267,0,261,230,-251,223.78288531303406,223.78292727470398,223.7852487564087,223.7976622581482,223.94758248329163,223.94758248329163,223.94758248329163,223.94758248329163,223.94758248329163,223.94758248329163,223.94758248329163,224.64851689338684,2,0.8376047611236572,None,,,,,,,,,,,,,,,,,,126,5,2025-02-26_11h26.03.077,comp,2024.2.4,64.1177945321911,2025-02-26 11h26.14.316206 -0500,
136,136,0,critical,dwh,20.0,3.0,lower,78.0,78.0,57.0,133.0,133.0,57.0,2,3.9225099086761475,None,,,,,0,0,0,0,0,136,136,68,224.6638035774231,,,,,,,,,,,,,,,,,,,,,,,,,,,,,,,,,,,,,,,,,,,,,,,,,,,,,,,,,,,,,,,,,,,,,,,,,,,,,,,,,78.0,78.0,57.0,133.0,133.0,57.0,3.0,3.1,-202,285,0,-9,191,-265,224.64931344985962,224.6493535041809,224.65163445472717,224.6638035774231,224.81397581100464,224.81397581100464,224.81397581100464,224.81397581100464,224.81397581100464,224.81397581100464,224.81397581100464,228.5985131263733,2,3.9225099086761475,None,,,,,,,,,,,,,,,,,,126,5,2025-02-26_11h26.03.077,comp,2024.2.4,64.1177945321911,2025-02-26 11h26.14.316206 -0500,
137,137,0,critical,wdh,20.0,2.1,upper,125.0,200.0,141.0,141.0,200.0,125.0,3,1.1836662292480469,None,,,,,0,0,0,0,0,137,137,11,228.61376881599426,,,,,,,,,,,,,,,,,,,,,,,,,,,,,,,,,,,,,,,,,,,,,,,,,,,,,,,,,,,,,,,,,,,,,,,,,,,,,,,,,125.0,200.0,141.0,141.0,200.0,125.0,2.1,2.11,-266,274,0,261,229,-280,228.59931874275208,228.59935903549194,228.6016330718994,228.61376881599426,228.76416873931885,228.76416873931885,228.76416873931885,228.76416873931885,228.76416873931885,228.76416873931885,228.76416873931885,229.81535267829895,3,1.1836662292480469,None,,,,,,,,,,,,,,,,,,126,5,2025-02-26_11h26.03.077,comp,2024.2.4,64.1177945321911,2025-02-26 11h26.14.316206 -0500,
138,138,0,filler_square,None,None,None,None,None,None,None,None,None,None,1,1.413426160812378,None,,,,,0,0,0,0,0,138,138,173,229.83042907714844,,,,,,,,,,,,,,,,,,,,,,,,,,,,,,,,,,,,,,,,,,,,,,,,,,,,,,,,,,,,,,,,,,,,,,,,,,,,,,,,,97.19621170500665,97.19621170500665,76.11529713799945,59.67036797807909,86.02758777058136,77.27226003020193,2.2,2.21,-174,-279,0,260,164,277,229.8162522315979,229.8163046836853,229.8185052871704,229.83042907714844,229.98057436943054,229.98057436943054,229.98057436943054,229.98057436943054,229.98057436943054,229.98057436943054,229.98057436943054,231.24850296974182,1,1.413426160812378,None,,,,,,,,,,,,,,,,,,126,5,2025-02-26_11h26.03.077,comp,2024.2.4,64.1177945321911,2025-02-26 11h26.14.316206 -0500,
139,139,0,filler_square,None,None,None,None,None,None,None,None,None,None,3,0.9079935550689697,None,,,,,0,0,0,0,0,139,139,209,231.2639753818512,,,,,,,,,,,,,,,,,,,,,,,,,,,,,,,,,,,,,,,,,,,,,,,,,,,,,,,,,,,,,,,,,,,,,,,,,,,,,,,,,159.21316741433458,105.77367467333615,104.02102582903248,84.62254113969706,171.57970527405428,171.57970527405428,2.2,2.22,-191,268,0,-276,224,-267,231.2494602203369,231.2495014667511,231.25152778625488,231.2639753818512,231.41396737098694,231.41396737098694,231.41396737098694,231.41396737098694,231.41396737098694,231.41396737098694,231.41396737098694,232.18191385269165,3,0.9079935550689697,None,,,,,,,,,,,,,,,,,,126,5,2025-02-26_11h26.03.077,comp,2024.2.4,64.1177945321911,2025-02-26 11h26.14.316206 -0500,
