thisN,thisTrialN,thisRepN,effect,order,distance,config,diag,h_1,w_1,h_2,w_2,h_3,w_3,rect_choice.keys,rect_choice.rt,rect_choice.duration,instructions_loop.thisRepN,instructions_loop.thisTrialN,instructions_loop.thisN,instructions_loop.thisIndex,blocks.thisRepN,blocks.thisTrialN,blocks.thisN,blocks.thisIndex,trials.thisRepN,trials.thisTrialN,trials.thisN,trials.thisIndex,thisRow.t,notes,consent.started,agree_button.started,decline_button.started,consent_img.started,mouse.started,consent.stopped,agree_button.numClicks,agree_button.timesOn,agree_button.timesOff,decline_button.numClicks,decline_button.timesOn,decline_button.timesOff,mouse.x,mouse.y,mouse.leftButton,mouse.midButton,mouse.rightButton,mouse.time,mouse.clicked_name,exp_params.started,exp_params.stopped,welcome.started,welcome_text.started,welcome.stopped,instructions_1.started,instructions_1_text_1.started,instructions_1_text_2.started,key_resp.started,instructions_1.stopped,instructions_loop.key_resp.keys,instructions_loop.key_resp.rt,instructions_loop.key_resp.duration,instructions_2.started,instructions_2_text_1.started,instructions_2_text_2.started,key_resp_2.started,instructions_2.stopped,instructions_loop.key_resp_2.keys,instructions_loop.key_resp_2.rt,instructions_loop.key_resp_2.duration,instructions_3.started,instructions_3_text_1.started,r1_instr3.started,r2_instr3.started,r3_instr3.started,r1_instr3_label.started,r2_instr3_label.started,r3_instr3_label.started,instructions_3_text_3.started,instructions_3_text_4.started,key_resp_3.started,instructions_3.stopped,instructions_loop.key_resp_3.keys,instructions_loop.key_resp_3.rt,instructions_loop.key_resp_3.duration,instructions_4.started,instructions_4_text_1.started,instructions_4_text_3.started,instructions_4_text_2.started,key_resp_4.started,instructions_4.stopped,instructions_loop.key_resp_4.keys,instructions_loop.key_resp_4.rt,instructions_loop.key_resp_4.duration,instructions_5.started,instructions_5_text_1.started,instructions_5_text_2.started,key_resp_5.started,instructions_5.stopped,instructions_loop.key_resp_5.keys,instructions_loop.key_resp_5.rt,instructions_loop.key_resp_5.duration,start_exp.started,start_exp_text.started,key_resp_6.started,start_exp.stopped,key_resp_6.keys,key_resp_6.rt,key_resp_6.duration,h_1_tmp,w_1_tmp,h_2_tmp,w_2_tmp,h_3_tmp,w_3_tmp,config_tmp,config_tmp_1,r_1_x,r_1_y,r_2_x,r_2_y,r_3_x,r_3_y,pre_trial.started,pre_trial.stopped,choice_trial.started,rect_choice.started,r_1.started,r_2.started,r_3.started,r_1_label.started,r_2_label.started,r_3_label.started,prompt.started,choice_trial.stopped,trials.rect_choice.keys,trials.rect_choice.rt,trials.rect_choice.duration,end_block.started,end_block_text.started,end_block.stopped,end.started,end_text.started,key_resp_7.started,end.stopped,key_resp_7.keys,key_resp_7.rt,key_resp_7.duration,debriefing.started,debrief_form.started,end_debrief.started,debriefing.stopped,end_debrief.keys,end_debrief.rt,end_debrief.duration,participant,computer,date,expName,psychopyVersion,frameRate,expStart,
,,,,,,,,,,,,,,,,,,,,,,,,,,,,,,,0.015192985534667969,0.0392453670501709,0.0392453670501709,0.0392453670501709,0.014965295791625977,22.467954635620117,1,[22.42645812034607],[22.42647910118103],0,,,[-97.0],[-520.0],[1],[0],[0],[22.452213525772095],['agree_button'],,,,,,,,,,,,,,,,,,,,,,,,,,,,,,,,,,,,,,,,,,,,,,,,,,,,,,,,,,,,,,,,,,,,,,,,,,,,,,,,,,,,,,,,,,,,,,,,,,,,,,,,,,,127,1,2025-02-26_12h51.25.071,comp,2024.2.4,57.923575147422355,2025-02-26 12h51.39.597634 -0500,
,,,,,,,,,,,,,,,,,,,,,,,,,,,,,,,,,,,,,,,,,,,,,,,,,,22.468483209609985,22.468549966812134,,,,,,,,,,,,,,,,,,,,,,,,,,,,,,,,,,,,,,,,,,,,,,,,,,,,,,,,,,,,,,,,,,,,,,,,,,,,,,,,,,,,,,,,,,,,,,,,,,,,,,,,,127,1,2025-02-26_12h51.25.071,comp,2024.2.4,57.923575147422355,2025-02-26 12h51.39.597634 -0500,
,,,,,,,,,,,,,,,,,,,,,,,,,,,,,,,,,,,,,,,,,,,,,,,,,,,,22.46859335899353,22.48629355430603,24.47318458557129,,,,,,,,,,,,,,,,,,,,,,,,,,,,,,,,,,,,,,,,,,,,,,,,,,,,,,,,,,,,,,,,,,,,,,,,,,,,,,,,,,,,,,,,,,,,,,,,,,,,,,127,1,2025-02-26_12h51.25.071,comp,2024.2.4,57.923575147422355,2025-02-26 12h51.39.597634 -0500,
0,0,0,,,,,,,,,,,,,,,0,0,0,0,,,,,,,,,24.488805055618286,,,,,,,,,,,,,,,,,,,,,,,,,,24.47413420677185,24.488805055618286,24.488805055618286,25.97118592262268,33.15966534614563,space,7.173796892166138,None,33.15984344482422,33.177759885787964,33.177759885787964,34.67394399642944,41.378883838653564,space,6.703017473220825,None,41.37903928756714,41.40989685058594,41.40989685058594,41.40989685058594,41.40989685058594,41.40989685058594,41.40989685058594,41.40989685058594,41.40989685058594,41.40989685058594,42.87993907928467,46.832762479782104,space,3.937312364578247,None,46.83295202255249,46.84962177276611,46.84962177276611,46.84962177276611,48.34636926651001,53.430450201034546,space,5.070630311965942,None,53.4306001663208,53.44490432739258,53.44490432739258,54.93150329589844,55.966556787490845,space,1.0301029682159424,None,55.96675395965576,55.98163151741028,55.98163151741028,57.06660985946655,space,1.0779666900634766,None,,,,,,,,,,,,,,,,,,,,,,,,,,,,,,,,,,,,,,,,,,,,,,,127,1,2025-02-26_12h51.25.071,comp,2024.2.4,57.923575147422355,2025-02-26 12h51.39.597634 -0500,
0,0,0,critical,whd,35.0,1.0,upper,125.0,200.0,200.0,125.0,127.0,127.0,1,3.594569206237793,None,,,,,0,0,0,0,0,0,0,85,57.1424994468689,,,,,,,,,,,,,,,,,,,,,,,,,,,,,,,,,,,,,,,,,,,,,,,,,,,,,,,,,,,,,,,,,,,,,,,,,,,,,,,,,125.0,200.0,200.0,125.0,127.0,127.0,1.0,1.1,-738,251,-480,260,-258,264,57.12539076805115,57.12543201446533,57.126940965652466,57.1424994468689,57.289512157440186,57.289512157440186,57.289512157440186,57.289512157440186,57.289512157440186,57.289512157440186,57.289512157440186,60.75175094604492,1,3.594569206237793,None,,,,,,,,,,,,,,,,,,127,1,2025-02-26_12h51.25.071,comp,2024.2.4,57.923575147422355,2025-02-26 12h51.39.597634 -0500,
1,1,0,critical,dwh,35.0,2.1,upper,127.0,127.0,125.0,200.0,200.0,125.0,2,3.1374197006225586,None,,,,,0,0,0,0,0,1,1,5,60.76770567893982,,,,,,,,,,,,,,,,,,,,,,,,,,,,,,,,,,,,,,,,,,,,,,,,,,,,,,,,,,,,,,,,,,,,,,,,,,,,,,,,,127.0,127.0,125.0,200.0,200.0,125.0,2.1,2.11,-260,285,0,276,258,-254,60.75327825546265,60.75335168838501,60.75740385055542,60.76770567893982,60.9170560836792,60.9170560836792,60.9170560836792,60.9170560836792,60.9170560836792,60.9170560836792,60.9170560836792,63.9189772605896,2,3.1374197006225586,None,,,,,,,,,,,,,,,,,,127,1,2025-02-26_12h51.25.071,comp,2024.2.4,57.923575147422355,2025-02-26 12h51.39.597634 -0500,
2,2,0,critical,hwd,20.0,2.1,upper,200.0,125.0,125.0,200.0,141.0,141.0,1,2.2505393028259277,None,,,,,0,0,0,0,0,2,2,19,63.93471837043762,,,,,,,,,,,,,,,,,,,,,,,,,,,,,,,,,,,,,,,,,,,,,,,,,,,,,,,,,,,,,,,,,,,,,,,,,,,,,,,,,200.0,125.0,125.0,200.0,141.0,141.0,2.1,2.11,-258,250,0,274,266,-268,63.92044925689697,63.92052149772644,63.92446541786194,63.93471837043762,64.08381533622742,64.08381533622742,64.08381533622742,64.08381533622742,64.08381533622742,64.08381533622742,64.08381533622742,66.2039942741394,1,2.2505393028259277,None,,,,,,,,,,,,,,,,,,127,1,2025-02-26_12h51.25.071,comp,2024.2.4,57.923575147422355,2025-02-26 12h51.39.597634 -0500,
3,3,0,critical,hdw,20.0,4.0,upper,200.0,125.0,141.0,141.0,125.0,200.0,3,2.130126714706421,None,,,,,0,0,0,0,0,3,3,119,66.22302770614624,,,,,,,,,,,,,,,,,,,,,,,,,,,,,,,,,,,,,,,,,,,,,,,,,,,,,,,,,,,,,,,,,,,,,,,,,,,,,,,,,200.0,125.0,141.0,141.0,125.0,200.0,4.0,4.2,-229,-18,0,-286,266,7,66.20552253723145,66.2055983543396,66.208984375,66.22302770614624,66.37095546722412,66.37095546722412,66.37095546722412,66.37095546722412,66.37095546722412,66.37095546722412,66.37095546722412,68.35510659217834,3,2.130126714706421,None,,,,,,,,,,,,,,,,,,127,1,2025-02-26_12h51.25.071,comp,2024.2.4,57.923575147422355,2025-02-26 12h51.39.597634 -0500,
4,4,0,filler_random,None,None,None,None,None,None,None,None,None,None,3,2.081796646118164,None,,,,,0,0,0,0,0,4,4,139,68.37513947486877,,,,,,,,,,,,,,,,,,,,,,,,,,,,,,,,,,,,,,,,,,,,,,,,,,,,,,,,,,,,,,,,,,,,,,,,,,,,,,,,,122.1820855363124,144.92708003619435,60.70225775310305,197.77505181969462,184.32029709109565,125.64909825928092,3.0,3.1,-267,286,0,-9,258,-259,68.35706663131714,68.35719394683838,68.36063170433044,68.37513947486877,68.52035093307495,68.52035093307495,68.52035093307495,68.52035093307495,68.52035093307495,68.52035093307495,68.52035093307495,70.47041296958923,3,2.081796646118164,None,,,,,,,,,,,,,,,,,,127,1,2025-02-26_12h51.25.071,comp,2024.2.4,57.923575147422355,2025-02-26 12h51.39.597634 -0500,
5,5,0,catch,None,None,None,None,None,None,None,None,None,None,2,1.8027584552764893,None,,,,,0,0,0,0,0,5,5,125,70.4871096611023,,,,,,,,,,,,,,,,,,,,,,,,,,,,,,,,,,,,,,,,,,,,,,,,,,,,,,,,,,,,,,,,,,,,,,,,,,,,,,,,,76,114,150,175,123,67,1.0,1.1,-720,261,-480,262,-263,288,70.47250556945801,70.47257852554321,70.4758985042572,70.4871096611023,70.63782978057861,70.63782978057861,70.63782978057861,70.63782978057861,70.63782978057861,70.63782978057861,70.63782978057861,72.29525327682495,2,1.8027584552764893,None,,,,,,,,,,,,,,,,,,127,1,2025-02-26_12h51.25.071,comp,2024.2.4,57.923575147422355,2025-02-26 12h51.39.597634 -0500,
6,6,0,filler_random,None,None,None,None,None,None,None,None,None,None,3,2.161719560623169,None,,,,,0,0,0,0,0,6,6,147,72.31136775016785,,,,,,,,,,,,,,,,,,,,,,,,,,,,,,,,,,,,,,,,,,,,,,,,,,,,,,,,,,,,,,,,,,,,,,,,,,,,,,,,,143.68275558597253,62.66895872305898,139.10385483362452,58.902076482372095,159.4049357992339,143.7143099169233,3.0,3.1,-157,269,0,16,197,-257,72.29691076278687,72.2969880104065,72.29979968070984,72.31136775016785,72.45330595970154,72.45330595970154,72.45330595970154,72.45330595970154,72.45330595970154,72.45330595970154,72.45330595970154,74.47631120681763,3,2.161719560623169,None,,,,,,,,,,,,,,,,,,127,1,2025-02-26_12h51.25.071,comp,2024.2.4,57.923575147422355,2025-02-26 12h51.39.597634 -0500,
7,7,0,filler_random,None,None,None,None,None,None,None,None,None,None,2,1.8797516822814941,None,,,,,0,0,0,0,0,7,7,132,74.49729251861572,,,,,,,,,,,,,,,,,,,,,,,,,,,,,,,,,,,,,,,,,,,,,,,,,,,,,,,,,,,,,,,,,,,,,,,,,,,,,,,,,165.70716274118627,139.62506643504736,150.58935319653938,156.47157966507223,106.17531340059332,68.1672342011358,2.2,2.21,-244,-262,0,266,208,286,74.47810101509094,74.47822976112366,74.48144388198853,74.49729251861572,74.6396803855896,74.6396803855896,74.6396803855896,74.6396803855896,74.6396803855896,74.6396803855896,74.6396803855896,76.3886067867279,2,1.8797516822814941,None,,,,,,,,,,,,,,,,,,127,1,2025-02-26_12h51.25.071,comp,2024.2.4,57.923575147422355,2025-02-26 12h51.39.597634 -0500,
8,8,0,filler_random,None,None,None,None,None,None,None,None,None,None,1,2.2358932495117188,None,,,,,0,0,0,0,0,8,8,164,76.40524864196777,,,,,,,,,,,,,,,,,,,,,,,,,,,,,,,,,,,,,,,,,,,,,,,,,,,,,,,,,,,,,,,,,,,,,,,,,,,,,,,,,116.03732623862916,158.93911779640536,117.03645148258957,128.6866307880579,57.69372092083083,130.37925470837388,4.0,4.2,-240,6,0,-284,226,-7,76.39037203788757,76.39047956466675,76.39375329017639,76.40524864196777,76.56118321418762,76.56118321418762,76.56118321418762,76.56118321418762,76.56118321418762,76.56118321418762,76.56118321418762,78.65881633758545,1,2.2358932495117188,None,,,,,,,,,,,,,,,,,,127,1,2025-02-26_12h51.25.071,comp,2024.2.4,57.923575147422355,2025-02-26 12h51.39.597634 -0500,
9,9,0,filler_random,None,None,None,None,None,None,None,None,None,None,3,2.9344770908355713,None,,,,,0,0,0,0,0,9,9,137,78.67461323738098,,,,,,,,,,,,,,,,,,,,,,,,,,,,,,,,,,,,,,,,,,,,,,,,,,,,,,,,,,,,,,,,,,,,,,,,,,,,,,,,,143.59012627834568,131.4188508283151,57.922838219715096,146.4722782145759,130.59331095101203,166.02811058184187,2.1,2.12,-235,-260,0,-270,252,272,78.66065573692322,78.66081428527832,78.66422915458679,78.67461323738098,78.8232102394104,78.8232102394104,78.8232102394104,78.8232102394104,78.8232102394104,78.8232102394104,78.8232102394104,81.62435746192932,3,2.9344770908355713,None,,,,,,,,,,,,,,,,,,127,1,2025-02-26_12h51.25.071,comp,2024.2.4,57.923575147422355,2025-02-26 12h51.39.597634 -0500,
10,10,0,critical,dwh,20.0,2.1,lower,78.0,78.0,57.0,133.0,133.0,57.0,3,2.6750917434692383,None,,,,,0,0,0,0,0,10,10,30,81.63852214813232,,,,,,,,,,,,,,,,,,,,,,,,,,,,,,,,,,,,,,,,,,,,,,,,,,,,,,,,,,,,,,,,,,,,,,,,,,,,,,,,,78.0,78.0,57.0,133.0,133.0,57.0,2.1,2.11,-202,284,0,272,191,-271,81.6258978843689,81.62599325180054,81.62927675247192,81.63852214813232,81.79008269309998,81.79008269309998,81.79008269309998,81.79008269309998,81.79008269309998,81.79008269309998,81.79008269309998,84.32660555839539,3,2.6750917434692383,None,,,,,,,,,,,,,,,,,,127,1,2025-02-26_12h51.25.071,comp,2024.2.4,57.923575147422355,2025-02-26 12h51.39.597634 -0500,
11,11,0,critical,dwh,35.0,3.0,lower,70.0,70.0,57.0,133.0,133.0,57.0,3,3.146026611328125,None,,,,,0,0,0,0,0,11,11,62,84.34297060966492,,,,,,,,,,,,,,,,,,,,,,,,,,,,,,,,,,,,,,,,,,,,,,,,,,,,,,,,,,,,,,,,,,,,,,,,,,,,,,,,,70.0,70.0,57.0,133.0,133.0,57.0,3.0,3.1,-198,260,0,-14,191,-283,84.32829070091248,84.32836413383484,84.3317461013794,84.34297060966492,84.49170088768005,84.49170088768005,84.49170088768005,84.49170088768005,84.49170088768005,84.49170088768005,84.49170088768005,87.50819516181946,3,3.146026611328125,None,,,,,,,,,,,,,,,,,,127,1,2025-02-26_12h51.25.071,comp,2024.2.4,57.923575147422355,2025-02-26 12h51.39.597634 -0500,
12,12,0,filler_square,None,None,None,None,None,None,None,None,None,None,3,1.1173012256622314,None,,,,,0,0,0,0,0,12,12,179,87.52409934997559,,,,,,,,,,,,,,,,,,,,,,,,,,,,,,,,,,,,,,,,,,,,,,,,,,,,,,,,,,,,,,,,,,,,,,,,,,,,,,,,,61.907414667952,125.00118392247559,93.82220982368895,89.50428588410149,125.81859372221331,125.81859372221331,1.0,1.1,-683,287,-480,290,-276,256,87.51028752326965,87.51036167144775,87.5135281085968,87.52409934997559,87.68237972259521,87.68237972259521,87.68237972259521,87.68237972259521,87.68237972259521,87.68237972259521,87.68237972259521,88.64385747909546,3,1.1173012256622314,None,,,,,,,,,,,,,,,,,,127,1,2025-02-26_12h51.25.071,comp,2024.2.4,57.923575147422355,2025-02-26 12h51.39.597634 -0500,
13,13,0,critical,dwh,35.0,2.1,upper,127.0,127.0,125.0,200.0,200.0,125.0,3,1.2130579948425293,None,,,,,0,0,0,0,0,13,13,29,88.66018486022949,,,,,,,,,,,,,,,,,,,,,,,,,,,,,,,,,,,,,,,,,,,,,,,,,,,,,,,,,,,,,,,,,,,,,,,,,,,,,,,,,127.0,127.0,125.0,200.0,200.0,125.0,2.1,2.12,-260,-273,0,-261,258,267,88.64538240432739,88.64545822143555,88.64952373504639,88.66018486022949,88.80911612510681,88.80911612510681,88.80911612510681,88.80911612510681,88.80911612510681,88.80911612510681,88.80911612510681,89.87702751159668,3,1.2130579948425293,None,,,,,,,,,,,,,,,,,,127,1,2025-02-26_12h51.25.071,comp,2024.2.4,57.923575147422355,2025-02-26 12h51.39.597634 -0500,
14,14,0,filler_square,None,None,None,None,None,None,None,None,None,None,2,1.0123283863067627,None,,,,,0,0,0,0,0,14,14,197,89.89358568191528,,,,,,,,,,,,,,,,,,,,,,,,,,,,,,,,,,,,,,,,,,,,,,,,,,,,,,,,,,,,,,,,,,,,,,,,,,,,,,,,,72.28356436630932,129.32383753802583,189.086647437263,189.086647437263,175.23874147172666,87.97692423996598,4.0,4.1,-255,-282,0,-18,235,-282,89.87904834747314,89.8791253566742,89.88244485855103,89.89358568191528,90.04646420478821,90.04646420478821,90.04646420478821,90.04646420478821,90.04646420478821,90.04646420478821,90.04646420478821,90.91197109222412,2,1.0123283863067627,None,,,,,,,,,,,,,,,,,,127,1,2025-02-26_12h51.25.071,comp,2024.2.4,57.923575147422355,2025-02-26 12h51.39.597634 -0500,
15,15,0,critical,whd,20.0,2.1,lower,57.0,133.0,133.0,57.0,78.0,78.0,2,1.7527527809143066,None,,,,,0,0,0,0,0,15,15,38,90.92849206924438,,,,,,,,,,,,,,,,,,,,,,,,,,,,,,,,,,,,,,,,,,,,,,,,,,,,,,,,,,,,,,,,,,,,,,,,,,,,,,,,,57.0,133.0,133.0,57.0,78.0,78.0,2.1,2.12,-191,-276,0,-288,164,274,90.91354990005493,90.91364359855652,90.91692876815796,90.92849206924438,91.07593870162964,91.07593870162964,91.07593870162964,91.07593870162964,91.07593870162964,91.07593870162964,91.07593870162964,92.68497061729431,2,1.7527527809143066,None,,,,,,,,,,,,,,,,,,127,1,2025-02-26_12h51.25.071,comp,2024.2.4,57.923575147422355,2025-02-26 12h51.39.597634 -0500,
16,16,0,critical,dwh,35.0,3.0,upper,127.0,127.0,125.0,200.0,200.0,125.0,2,1.882120132446289,None,,,,,0,0,0,0,0,16,16,63,92.70312309265137,,,,,,,,,,,,,,,,,,,,,,,,,,,,,,,,,,,,,,,,,,,,,,,,,,,,,,,,,,,,,,,,,,,,,,,,,,,,,,,,,127.0,127.0,125.0,200.0,200.0,125.0,3.0,3.1,-260,290,0,-2,258,-262,92.6865622997284,92.68663883209229,92.69001531600952,92.70312309265137,92.84463953971863,92.84463953971863,92.84463953971863,92.84463953971863,92.84463953971863,92.84463953971863,92.84463953971863,94.58745074272156,2,1.882120132446289,None,,,,,,,,,,,,,,,,,,127,1,2025-02-26_12h51.25.071,comp,2024.2.4,57.923575147422355,2025-02-26 12h51.39.597634 -0500,
17,17,0,critical,whd,20.0,2.1,upper,125.0,200.0,200.0,125.0,141.0,141.0,1,4.221417665481567,None,,,,,0,0,0,0,0,17,17,39,94.60367512702942,,,,,,,,,,,,,,,,,,,,,,,,,,,,,,,,,,,,,,,,,,,,,,,,,,,,,,,,,,,,,,,,,,,,,,,,,,,,,,,,,125.0,200.0,200.0,125.0,141.0,141.0,2.1,2.12,-258,-270,0,-268,229,283,94.58923506736755,94.58935928344727,94.5926399230957,94.60367512702942,94.74432969093323,94.74432969093323,94.74432969093323,94.74432969093323,94.74432969093323,94.74432969093323,94.74432969093323,98.83536767959595,1,4.221417665481567,None,,,,,,,,,,,,,,,,,,127,1,2025-02-26_12h51.25.071,comp,2024.2.4,57.923575147422355,2025-02-26 12h51.39.597634 -0500,
18,18,0,filler_random,None,None,None,None,None,None,None,None,None,None,1,3.404331922531128,None,,,,,0,0,0,0,0,18,18,168,98.85310792922974,,,,,,,,,,,,,,,,,,,,,,,,,,,,,,,,,,,,,,,,,,,,,,,,,,,,,,,,,,,,,,,,,,,,,,,,,,,,,,,,,115.63600453271165,157.55745820747356,97.34944977461663,101.77853461899315,168.9908234549804,78.42046688621068,2.2,2.22,-226,284,0,-283,186,-250,98.83718776702881,98.83726525306702,98.84026455879211,98.85310792922974,98.99842500686646,98.99842500686646,98.99842500686646,98.99842500686646,98.99842500686646,98.99842500686646,98.99842500686646,102.2614254951477,1,3.404331922531128,None,,,,,,,,,,,,,,,,,,127,1,2025-02-26_12h51.25.071,comp,2024.2.4,57.923575147422355,2025-02-26 12h51.39.597634 -0500,
19,19,0,filler_square,None,None,None,None,None,None,None,None,None,None,2,1.0343666076660156,None,,,,,0,0,0,0,0,19,19,175,102.2788462638855,,,,,,,,,,,,,,,,,,,,,,,,,,,,,,,,,,,,,,,,,,,,,,,,,,,,,,,,,,,,,,,,,,,,,,,,,,,,,,,,,63.25227622211699,132.91234024416374,133.8344168757552,133.8344168757552,111.48506951332894,127.53518748307026,3.0,3.2,-229,-259,0,-6,227,284,102.26321768760681,102.2632908821106,102.26613712310791,102.2788462638855,102.41424131393433,102.41424131393433,102.41424131393433,102.41424131393433,102.41424131393433,102.41424131393433,102.41424131393433,103.31868577003479,2,1.0343666076660156,None,,,,,,,,,,,,,,,,,,127,1,2025-02-26_12h51.25.071,comp,2024.2.4,57.923575147422355,2025-02-26 12h51.39.597634 -0500,
20,20,0,filler_square,None,None,None,None,None,None,None,None,None,None,1,0.9056518077850342,None,,,,,0,0,0,0,0,20,20,184,103.33641147613525,,,,,,,,,,,,,,,,,,,,,,,,,,,,,,,,,,,,,,,,,,,,,,,,,,,,,,,,,,,,,,,,,,,,,,,,,,,,,,,,,189.04219301548775,189.04219301548775,158.2349015110685,130.18405462352723,187.35410402434863,67.32628750101546,2.1,2.11,-256,269,0,269,195,-287,103.32054281234741,103.32061958312988,103.32346272468567,103.33641147613525,103.48270320892334,103.48270320892334,103.48270320892334,103.48270320892334,103.48270320892334,103.48270320892334,103.48270320892334,104.24675726890564,1,0.9056518077850342,None,,,,,,,,,,,,,,,,,,127,1,2025-02-26_12h51.25.071,comp,2024.2.4,57.923575147422355,2025-02-26 12h51.39.597634 -0500,
21,21,0,filler_square,None,None,None,None,None,None,None,None,None,None,2,1.0018537044525146,None,,,,,0,0,0,0,0,21,21,207,104.2636137008667,,,,,,,,,,,,,,,,,,,,,,,,,,,,,,,,,,,,,,,,,,,,,,,,,,,,,,,,,,,,,,,,,,,,,,,,,,,,,,,,,60.349000020320034,93.30351251821513,175.60987144254153,175.60987144254153,116.42432604688375,82.63466008044534,2.2,2.22,-230,270,0,-252,225,-262,104.24858689308167,104.248703956604,104.25201153755188,104.2636137008667,104.39985918998718,104.39985918998718,104.39985918998718,104.39985918998718,104.39985918998718,104.39985918998718,104.39985918998718,105.2716875076294,2,1.0018537044525146,None,,,,,,,,,,,,,,,,,,127,1,2025-02-26_12h51.25.071,comp,2024.2.4,57.923575147422355,2025-02-26 12h51.39.597634 -0500,
22,22,0,filler_square,None,None,None,None,None,None,None,None,None,None,1,0.9085180759429932,None,,,,,0,0,0,0,0,22,22,172,105.29256463050842,,,,,,,,,,,,,,,,,,,,,,,,,,,,,,,,,,,,,,,,,,,,,,,,,,,,,,,,,,,,,,,,,,,,,,,,,,,,,,,,,195.88454353782126,195.88454353782126,115.47450814673235,144.3141534773329,81.41061964160949,61.08387847845616,4.0,4.2,-266,-14,0,-273,199,-18,105.27358508110046,105.27367949485779,105.27690815925598,105.29256463050842,105.43186497688293,105.43186497688293,105.43186497688293,105.43186497688293,105.43186497688293,105.43186497688293,105.43186497688293,106.21473860740662,1,0.9085180759429932,None,,,,,,,,,,,,,,,,,,127,1,2025-02-26_12h51.25.071,comp,2024.2.4,57.923575147422355,2025-02-26 12h51.39.597634 -0500,
23,23,0,filler_square,None,None,None,None,None,None,None,None,None,None,1,1.2738807201385498,None,,,,,0,0,0,0,0,23,23,191,106.2312114238739,,,,,,,,,,,,,,,,,,,,,,,,,,,,,,,,,,,,,,,,,,,,,,,,,,,,,,,,,,,,,,,,,,,,,,,,,,,,,,,,,183.03084066455264,183.03084066455264,175.9356291104773,155.5410144975377,128.3694430192258,97.98942405650277,3.0,3.2,-265,-250,0,-19,223,266,106.21664953231812,106.21672654151917,106.22000217437744,106.2312114238739,106.38198924064636,106.38198924064636,106.38198924064636,106.38198924064636,106.38198924064636,106.38198924064636,106.38198924064636,107.51515340805054,1,1.2738807201385498,None,,,,,,,,,,,,,,,,,,127,1,2025-02-26_12h51.25.071,comp,2024.2.4,57.923575147422355,2025-02-26 12h51.39.597634 -0500,
24,24,0,critical,whd,35.0,3.0,upper,125.0,200.0,200.0,125.0,127.0,127.0,1,2.5103232860565186,None,,,,,0,0,0,0,0,24,24,87,107.5309739112854,,,,,,,,,,,,,,,,,,,,,,,,,,,,,,,,,,,,,,,,,,,,,,,,,,,,,,,,,,,,,,,,,,,,,,,,,,,,,,,,,125.0,200.0,200.0,125.0,127.0,127.0,3.0,3.1,-258,267,0,-19,222,-258,107.51660776138306,107.51668405532837,107.51948642730713,107.5309739112854,107.68834900856018,107.68834900856018,107.68834900856018,107.68834900856018,107.68834900856018,107.68834900856018,107.68834900856018,110.05012607574463,1,2.5103232860565186,None,,,,,,,,,,,,,,,,,,127,1,2025-02-26_12h51.25.071,comp,2024.2.4,57.923575147422355,2025-02-26 12h51.39.597634 -0500,
25,25,0,critical,dwh,20.0,1.0,lower,78.0,78.0,57.0,133.0,133.0,57.0,2,2.726034164428711,None,,,,,0,0,0,0,0,25,25,66,110.06720471382141,,,,,,,,,,,,,,,,,,,,,,,,,,,,,,,,,,,,,,,,,,,,,,,,,,,,,,,,,,,,,,,,,,,,,,,,,,,,,,,,,78.0,78.0,57.0,133.0,133.0,57.0,1.0,1.3,278,-258,480,-271,671,-279,110.0518684387207,110.05200386047363,110.0554723739624,110.06720471382141,110.22139692306519,110.22139692306519,110.22139692306519,110.22139692306519,110.22139692306519,110.22139692306519,110.22139692306519,112.80750441551208,2,2.726034164428711,None,,,,,,,,,,,,,,,,,,127,1,2025-02-26_12h51.25.071,comp,2024.2.4,57.923575147422355,2025-02-26 12h51.39.597634 -0500,
26,26,0,filler_random,None,None,None,None,None,None,None,None,None,None,2,1.0381524562835693,None,,,,,0,0,0,0,0,26,26,160,112.82729864120483,,,,,,,,,,,,,,,,,,,,,,,,,,,,,,,,,,,,,,,,,,,,,,,,,,,,,,,,,,,,,,,,,,,,,,,,,,,,,,,,,114.91012870635433,83.40084441627812,106.029747339201,179.68612941808078,96.35098036883136,68.74805444304523,1.0,1.2,-228,-6,0,-14,220,0,112.80925226211548,112.8093523979187,112.81259870529175,112.82729864120483,112.96997046470642,112.96997046470642,112.96997046470642,112.96997046470642,112.96997046470642,112.96997046470642,112.96997046470642,113.86745023727417,2,1.0381524562835693,None,,,,,,,,,,,,,,,,,,127,1,2025-02-26_12h51.25.071,comp,2024.2.4,57.923575147422355,2025-02-26 12h51.39.597634 -0500,
27,27,0,critical,hwd,20.0,1.0,upper,200.0,125.0,125.0,200.0,141.0,141.0,2,2.245906114578247,None,,,,,0,0,0,0,0,27,27,103,113.88350653648376,,,,,,,,,,,,,,,,,,,,,,,,,,,,,,,,,,,,,,,,,,,,,,,,,,,,,,,,,,,,,,,,,,,,,,,,,,,,,,,,,200.0,125.0,125.0,200.0,141.0,141.0,1.0,1.3,222,-279,480,-251,746,-265,113.86909198760986,113.86919116973877,113.87256002426147,113.88350653648376,114.0376946926117,114.0376946926117,114.0376946926117,114.0376946926117,114.0376946926117,114.0376946926117,114.0376946926117,116.13616180419922,2,2.245906114578247,None,,,,,,,,,,,,,,,,,,127,1,2025-02-26_12h51.25.071,comp,2024.2.4,57.923575147422355,2025-02-26 12h51.39.597634 -0500,
28,28,0,critical,wdh,20.0,3.0,upper,125.0,200.0,141.0,141.0,200.0,125.0,1,1.545527458190918,None,,,,,0,0,0,0,0,28,28,81,116.15209531784058,,,,,,,,,,,,,,,,,,,,,,,,,,,,,,,,,,,,,,,,,,,,,,,,,,,,,,,,,,,,,,,,,,,,,,,,,,,,,,,,,125.0,200.0,141.0,141.0,200.0,125.0,3.0,3.2,-266,-284,0,12,229,256,116.13774418830872,116.13785672187805,116.14127540588379,116.15209531784058,116.30045509338379,116.30045509338379,116.30045509338379,116.30045509338379,116.30045509338379,116.30045509338379,116.30045509338379,117.70723962783813,1,1.545527458190918,None,,,,,,,,,,,,,,,,,,127,1,2025-02-26_12h51.25.071,comp,2024.2.4,57.923575147422355,2025-02-26 12h51.39.597634 -0500,
29,29,0,critical,hwd,35.0,2.1,lower,133.0,57.0,57.0,133.0,70.0,70.0,2,2.0258021354675293,None,,,,,0,0,0,0,0,29,29,16,117.72723746299744,,,,,,,,,,,,,,,,,,,,,,,,,,,,,,,,,,,,,,,,,,,,,,,,,,,,,,,,,,,,,,,,,,,,,,,,,,,,,,,,,133.0,57.0,57.0,133.0,70.0,70.0,2.1,2.11,-191,277,0,269,198,-256,117.70865964889526,117.70873689651489,117.71162056922913,117.72723746299744,117.86884617805481,117.86884617805481,117.86884617805481,117.86884617805481,117.86884617805481,117.86884617805481,117.86884617805481,119.76944661140442,2,2.0258021354675293,None,,,,,,,,,,,,,,,,,,127,1,2025-02-26_12h51.25.071,comp,2024.2.4,57.923575147422355,2025-02-26 12h51.39.597634 -0500,
30,30,0,critical,wdh,20.0,1.0,upper,125.0,200.0,141.0,141.0,200.0,125.0,3,2.2562360763549805,None,,,,,0,0,0,0,0,30,30,79,119.78486680984497,,,,,,,,,,,,,,,,,,,,,,,,,,,,,,,,,,,,,,,,,,,,,,,,,,,,,,,,,,,,,,,,,,,,,,,,,,,,,,,,,125.0,200.0,141.0,141.0,200.0,125.0,1.0,1.1,-746,276,-480,256,-251,272,119.77102708816528,119.77110242843628,119.7744357585907,119.78486680984497,119.93583369255066,119.93583369255066,119.93583369255066,119.93583369255066,119.93583369255066,119.93583369255066,119.93583369255066,122.05559253692627,3,2.2562360763549805,None,,,,,,,,,,,,,,,,,,127,1,2025-02-26_12h51.25.071,comp,2024.2.4,57.923575147422355,2025-02-26 12h51.39.597634 -0500,
31,31,0,critical,dhw,20.0,2.1,upper,141.0,141.0,200.0,125.0,125.0,200.0,3,1.5298430919647217,None,,,,,0,0,0,0,0,31,31,3,122.07161211967468,,,,,,,,,,,,,,,,,,,,,,,,,,,,,,,,,,,,,,,,,,,,,,,,,,,,,,,,,,,,,,,,,,,,,,,,,,,,,,,,,141.0,141.0,200.0,125.0,125.0,200.0,2.1,2.11,-229,258,0,269,258,-274,122.05728006362915,122.05735373497009,122.0612142086029,122.07161211967468,122.21944904327393,122.21944904327393,122.21944904327393,122.21944904327393,122.21944904327393,122.21944904327393,122.21944904327393,123.60358500480652,3,1.5298430919647217,None,,,,,,,,,,,,,,,,,,127,1,2025-02-26_12h51.25.071,comp,2024.2.4,57.923575147422355,2025-02-26 12h51.39.597634 -0500,
32,32,0,critical,hwd,35.0,3.0,lower,133.0,57.0,57.0,133.0,70.0,70.0,2,1.3335201740264893,None,,,,,0,0,0,0,0,32,32,98,123.62024188041687,,,,,,,,,,,,,,,,,,,,,,,,,,,,,,,,,,,,,,,,,,,,,,,,,,,,,,,,,,,,,,,,,,,,,,,,,,,,,,,,,133.0,57.0,57.0,133.0,70.0,70.0,3.0,3.1,-191,273,0,-11,198,-284,123.60521245002747,123.60528564453125,123.60869479179382,123.62024188041687,123.7763831615448,123.7763831615448,123.7763831615448,123.7763831615448,123.7763831615448,123.7763831615448,123.7763831615448,124.96044373512268,2,1.3335201740264893,None,,,,,,,,,,,,,,,,,,127,1,2025-02-26_12h51.25.071,comp,2024.2.4,57.923575147422355,2025-02-26 12h51.39.597634 -0500,
33,33,0,filler_square,None,None,None,None,None,None,None,None,None,None,3,1.3774480819702148,None,,,,,0,0,0,0,0,33,33,185,124.97583937644958,,,,,,,,,,,,,,,,,,,,,,,,,,,,,,,,,,,,,,,,,,,,,,,,,,,,,,,,,,,,,,,,,,,,,,,,,,,,,,,,,63.06127837797313,96.83946264040915,127.99389072589756,83.33659540523618,133.34104757758723,133.34104757758723,2.1,2.11,-186,289,0,250,204,-263,124.96221017837524,124.9622871875763,124.9651026725769,124.97583937644958,125.12021946907043,125.12021946907043,125.12021946907043,125.12021946907043,125.12021946907043,125.12021946907043,125.12021946907043,126.35796642303467,3,1.3774480819702148,None,,,,,,,,,,,,,,,,,,127,1,2025-02-26_12h51.25.071,comp,2024.2.4,57.923575147422355,2025-02-26 12h51.39.597634 -0500,
34,34,0,critical,whd,20.0,2.1,lower,57.0,133.0,133.0,57.0,78.0,78.0,2,2.192152738571167,None,,,,,0,0,0,0,0,34,34,14,126.3769896030426,,,,,,,,,,,,,,,,,,,,,,,,,,,,,,,,,,,,,,,,,,,,,,,,,,,,,,,,,,,,,,,,,,,,,,,,,,,,,,,,,57.0,133.0,133.0,57.0,78.0,78.0,2.1,2.11,-191,261,0,250,164,-280,126.35953879356384,126.35961413383484,126.36281085014343,126.3769896030426,126.52675485610962,126.52675485610962,126.52675485610962,126.52675485610962,126.52675485610962,126.52675485610962,126.52675485610962,128.57243585586548,2,2.192152738571167,None,,,,,,,,,,,,,,,,,,127,1,2025-02-26_12h51.25.071,comp,2024.2.4,57.923575147422355,2025-02-26 12h51.39.597634 -0500,
35,35,0,critical,dhw,20.0,1.0,upper,141.0,141.0,200.0,125.0,125.0,200.0,2,1.477665901184082,None,,,,,0,0,0,0,0,35,35,55,128.588134765625,,,,,,,,,,,,,,,,,,,,,,,,,,,,,,,,,,,,,,,,,,,,,,,,,,,,,,,,,,,,,,,,,,,,,,,,,,,,,,,,,141.0,141.0,200.0,125.0,125.0,200.0,1.0,1.1,-709,273,-480,269,-222,260,128.57401490211487,128.57409262657166,128.57740139961243,128.588134765625,128.73729181289673,128.73729181289673,128.73729181289673,128.73729181289673,128.73729181289673,128.73729181289673,128.73729181289673,130.0737452507019,2,1.477665901184082,None,,,,,,,,,,,,,,,,,,127,1,2025-02-26_12h51.25.071,comp,2024.2.4,57.923575147422355,2025-02-26 12h51.39.597634 -0500,
36,36,0,filler_square,None,None,None,None,None,None,None,None,None,None,3,0.9836578369140625,None,,,,,0,0,0,0,0,36,36,171,130.0895836353302,,,,,,,,,,,,,,,,,,,,,,,,,,,,,,,,,,,,,,,,,,,,,,,,,,,,,,,,,,,,,,,,,,,,,,,,,,,,,,,,,85.3214988410325,59.79410320456528,142.38583912886244,86.46194628509797,168.00280313533676,168.00280313533676,1.0,1.1,-649,283,-480,261,-257,277,130.0755970478058,130.07567381858826,130.07900857925415,130.0895836353302,130.24197816848755,130.24197816848755,130.24197816848755,130.24197816848755,130.24197816848755,130.24197816848755,130.24197816848755,131.0757131576538,3,0.9836578369140625,None,,,,,,,,,,,,,,,,,,127,1,2025-02-26_12h51.25.071,comp,2024.2.4,57.923575147422355,2025-02-26 12h51.39.597634 -0500,
37,37,0,critical,hdw,35.0,4.0,lower,133.0,57.0,70.0,70.0,57.0,133.0,1,1.8856632709503174,None,,,,,0,0,0,0,0,37,37,112,131.09160256385803,,,,,,,,,,,,,,,,,,,,,,,,,,,,,,,,,,,,,,,,,,,,,,,,,,,,,,,,,,,,,,,,,,,,,,,,,,,,,,,,,133.0,57.0,70.0,70.0,57.0,133.0,4.0,4.2,-160,18,0,-270,198,10,131.07731080055237,131.07738590240479,131.08069944381714,131.09160256385803,131.2398829460144,131.2398829460144,131.2398829460144,131.2398829460144,131.2398829460144,131.2398829460144,131.2398829460144,132.99044609069824,1,1.8856632709503174,None,,,,,,,,,,,,,,,,,,127,1,2025-02-26_12h51.25.071,comp,2024.2.4,57.923575147422355,2025-02-26 12h51.39.597634 -0500,
38,38,0,filler_random,None,None,None,None,None,None,None,None,None,None,2,1.1964175701141357,None,,,,,0,0,0,0,0,38,38,141,133.0059051513672,,,,,,,,,,,,,,,,,,,,,,,,,,,,,,,,,,,,,,,,,,,,,,,,,,,,,,,,,,,,,,,,,,,,,,,,,,,,,,,,,94.6280350174298,115.58201262463103,103.89705784759778,173.50678361631617,191.3060617234425,69.3753613838395,3.0,3.1,-241,269,0,-4,217,-264,132.99218559265137,132.9922595024109,132.9955928325653,133.0059051513672,133.16297936439514,133.16297936439514,133.16297936439514,133.16297936439514,133.16297936439514,133.16297936439514,133.16297936439514,134.20659923553467,2,1.1964175701141357,None,,,,,,,,,,,,,,,,,,127,1,2025-02-26_12h51.25.071,comp,2024.2.4,57.923575147422355,2025-02-26 12h51.39.597634 -0500,
39,39,0,critical,dwh,35.0,2.1,lower,70.0,70.0,57.0,133.0,133.0,57.0,3,1.103151559829712,None,,,,,0,0,0,0,0,39,39,28,134.2263445854187,,,,,,,,,,,,,,,,,,,,,,,,,,,,,,,,,,,,,,,,,,,,,,,,,,,,,,,,,,,,,,,,,,,,,,,,,,,,,,,,,70.0,70.0,57.0,133.0,133.0,57.0,2.1,2.11,-198,268,0,281,191,-278,134.20817470550537,134.20825004577637,134.21131038665771,134.2263445854187,134.3650438785553,134.3650438785553,134.3650438785553,134.3650438785553,134.3650438785553,134.3650438785553,134.3650438785553,135.34439659118652,3,1.103151559829712,None,,,,,,,,,,,,,,,,,,127,1,2025-02-26_12h51.25.071,comp,2024.2.4,57.923575147422355,2025-02-26 12h51.39.597634 -0500,
40,40,0,critical,dwh,20.0,3.0,lower,78.0,78.0,57.0,133.0,133.0,57.0,2,1.7927820682525635,None,,,,,0,0,0,0,0,40,40,68,135.3606104850769,,,,,,,,,,,,,,,,,,,,,,,,,,,,,,,,,,,,,,,,,,,,,,,,,,,,,,,,,,,,,,,,,,,,,,,,,,,,,,,,,78.0,78.0,57.0,133.0,133.0,57.0,3.0,3.2,-202,-264,0,12,191,265,135.346022605896,135.34613180160522,135.34938144683838,135.3606104850769,135.5077109336853,135.5077109336853,135.5077109336853,135.5077109336853,135.5077109336853,135.5077109336853,135.5077109336853,137.1575572490692,2,1.7927820682525635,None,,,,,,,,,,,,,,,,,,127,1,2025-02-26_12h51.25.071,comp,2024.2.4,57.923575147422355,2025-02-26 12h51.39.597634 -0500,
41,41,0,filler_square,None,None,None,None,None,None,None,None,None,None,3,0.9371473789215088,None,,,,,0,0,0,0,0,41,41,188,137.17682576179504,,,,,,,,,,,,,,,,,,,,,,,,,,,,,,,,,,,,,,,,,,,,,,,,,,,,,,,,,,,,,,,,,,,,,,,,,,,,,,,,,135.18498591668782,104.61718724780405,125.98001897381175,116.29073373400708,159.37646926247248,159.37646926247248,3.0,3.2,-206,-287,0,-20,234,265,137.1592996120453,137.1593747138977,137.16230940818787,137.17682576179504,137.31255865097046,137.31255865097046,137.31255865097046,137.31255865097046,137.31255865097046,137.31255865097046,137.31255865097046,138.12884783744812,3,0.9371473789215088,None,,,,,,,,,,,,,,,,,,127,1,2025-02-26_12h51.25.071,comp,2024.2.4,57.923575147422355,2025-02-26 12h51.39.597634 -0500,
42,42,0,critical,wdh,20.0,3.0,lower,57.0,133.0,78.0,78.0,133.0,57.0,3,1.4470317363739014,None,,,,,0,0,0,0,0,42,42,80,138.14603996276855,,,,,,,,,,,,,,,,,,,,,,,,,,,,,,,,,,,,,,,,,,,,,,,,,,,,,,,,,,,,,,,,,,,,,,,,,,,,,,,,,57.0,133.0,78.0,78.0,133.0,57.0,3.0,3.1,-202,282,0,-11,164,-280,138.13043546676636,138.1305148601532,138.13339734077454,138.14603996276855,138.29203510284424,138.29203510284424,138.29203510284424,138.29203510284424,138.29203510284424,138.29203510284424,138.29203510284424,139.60909128189087,3,1.4470317363739014,None,,,,,,,,,,,,,,,,,,127,1,2025-02-26_12h51.25.071,comp,2024.2.4,57.923575147422355,2025-02-26 12h51.39.597634 -0500,
43,43,0,filler_random,None,None,None,None,None,None,None,None,None,None,3,1.3002500534057617,None,,,,,0,0,0,0,0,43,43,159,139.62931966781616,,,,,,,,,,,,,,,,,,,,,,,,,,,,,,,,,,,,,,,,,,,,,,,,,,,,,,,,,,,,,,,,,,,,,,,,,,,,,,,,,71.01906449086144,180.11970729550012,62.37452406304616,128.09703756941815,182.24731622097386,193.2630403431267,2.2,2.22,-250,281,0,-261,257,-250,139.6108045578003,139.6108956336975,139.61398339271545,139.62931966781616,139.7772605419159,139.7772605419159,139.7772605419159,139.7772605419159,139.7772605419159,139.7772605419159,139.7772605419159,140.93425393104553,3,1.3002500534057617,None,,,,,,,,,,,,,,,,,,127,1,2025-02-26_12h51.25.071,comp,2024.2.4,57.923575147422355,2025-02-26 12h51.39.597634 -0500,
44,44,0,critical,dhw,20.0,1.0,lower,78.0,78.0,133.0,57.0,57.0,133.0,2,1.4596638679504395,None,,,,,0,0,0,0,0,44,44,54,140.95011162757874,,,,,,,,,,,,,,,,,,,,,,,,,,,,,,,,,,,,,,,,,,,,,,,,,,,,,,,,,,,,,,,,,,,,,,,,,,,,,,,,,78.0,78.0,133.0,57.0,57.0,133.0,1.0,1.3,316,-276,480,-263,671,-279,140.93572306632996,140.9358193874359,140.93860626220703,140.95011162757874,141.09903359413147,141.09903359413147,141.09903359413147,141.09903359413147,141.09903359413147,141.09903359413147,141.09903359413147,142.41608428955078,2,1.4596638679504395,None,,,,,,,,,,,,,,,,,,127,1,2025-02-26_12h51.25.071,comp,2024.2.4,57.923575147422355,2025-02-26 12h51.39.597634 -0500,
45,45,0,critical,wdh,35.0,4.0,lower,57.0,133.0,70.0,70.0,133.0,57.0,3,2.585981607437134,None,,,,,0,0,0,0,0,45,45,76,142.43106985092163,,,,,,,,,,,,,,,,,,,,,,,,,,,,,,,,,,,,,,,,,,,,,,,,,,,,,,,,,,,,,,,,,,,,,,,,,,,,,,,,,57.0,133.0,70.0,70.0,133.0,57.0,4.0,4.1,-198,-273,0,-9,160,-261,142.4175670146942,142.41764330863953,142.42046070098877,142.43106985092163,142.57617497444153,142.57617497444153,142.57617497444153,142.57617497444153,142.57617497444153,142.57617497444153,142.57617497444153,145.03040194511414,3,2.585981607437134,None,,,,,,,,,,,,,,,,,,127,1,2025-02-26_12h51.25.071,comp,2024.2.4,57.923575147422355,2025-02-26 12h51.39.597634 -0500,
46,46,0,critical,hdw,35.0,3.0,lower,133.0,57.0,70.0,70.0,57.0,133.0,1,1.0345044136047363,None,,,,,0,0,0,0,0,46,46,110,145.0466389656067,,,,,,,,,,,,,,,,,,,,,,,,,,,,,,,,,,,,,,,,,,,,,,,,,,,,,,,,,,,,,,,,,,,,,,,,,,,,,,,,,133.0,57.0,70.0,70.0,57.0,133.0,3.0,3.2,-160,-267,0,12,198,277,145.03204226493835,145.0321671962738,145.0354344844818,145.0466389656067,145.19495940208435,145.19495940208435,145.19495940208435,145.19495940208435,145.19495940208435,145.19495940208435,145.19495940208435,146.09959053993225,1,1.0345044136047363,None,,,,,,,,,,,,,,,,,,127,1,2025-02-26_12h51.25.071,comp,2024.2.4,57.923575147422355,2025-02-26 12h51.39.597634 -0500,
47,47,0,filler_random,None,None,None,None,None,None,None,None,None,None,3,0.9642074108123779,None,,,,,0,0,0,0,0,47,47,148,146.11695861816406,,,,,,,,,,,,,,,,,,,,,,,,,,,,,,,,,,,,,,,,,,,,,,,,,,,,,,,,,,,,,,,,,,,,,,,,,,,,,,,,,89.7886582834106,164.95785004708222,150.1282963182111,57.31917258844495,182.35716261192425,179.55023127897374,4.0,4.1,-207,-290,0,-10,214,-280,146.10132670402527,146.10139966011047,146.10431122779846,146.11695861816406,146.26195168495178,146.26195168495178,146.26195168495178,146.26195168495178,146.26195168495178,146.26195168495178,146.26195168495178,147.0862591266632,3,0.9642074108123779,None,,,,,,,,,,,,,,,,,,127,1,2025-02-26_12h51.25.071,comp,2024.2.4,57.923575147422355,2025-02-26 12h51.39.597634 -0500,
48,48,0,critical,whd,35.0,1.0,lower,57.0,133.0,133.0,57.0,70.0,70.0,2,1.0334327220916748,None,,,,,0,0,0,0,0,48,48,84,147.10365915298462,,,,,,,,,,,,,,,,,,,,,,,,,,,,,,,,,,,,,,,,,,,,,,,,,,,,,,,,,,,,,,,,,,,,,,,,,,,,,,,,,57.0,133.0,133.0,57.0,70.0,70.0,1.0,1.1,-671,258,-480,276,-320,280,147.08776378631592,147.08787941932678,147.09067821502686,147.10365915298462,147.2463023662567,147.2463023662567,147.2463023662567,147.2463023662567,147.2463023662567,147.2463023662567,147.2463023662567,148.1532003879547,2,1.0334327220916748,None,,,,,,,,,,,,,,,,,,127,1,2025-02-26_12h51.25.071,comp,2024.2.4,57.923575147422355,2025-02-26 12h51.39.597634 -0500,
49,49,0,filler_square,None,None,None,None,None,None,None,None,None,None,1,1.1190118789672852,None,,,,,0,0,0,0,0,49,49,206,148.17053604125977,,,,,,,,,,,,,,,,,,,,,,,,,,,,,,,,,,,,,,,,,,,,,,,,,,,,,,,,,,,,,,,,,,,,,,,,,,,,,,,,,73.42613545647276,73.42613545647276,59.702104458567284,67.11456720170621,57.12620342165875,60.35708149950446,1.0,1.3,314,-285,480,-253,640,-272,148.15495800971985,148.15503334999084,148.15787172317505,148.17053604125977,148.31242656707764,148.31242656707764,148.31242656707764,148.31242656707764,148.31242656707764,148.31242656707764,148.31242656707764,149.294828414917,1,1.1190118789672852,None,,,,,,,,,,,,,,,,,,127,1,2025-02-26_12h51.25.071,comp,2024.2.4,57.923575147422355,2025-02-26 12h51.39.597634 -0500,
50,50,0,filler_square,None,None,None,None,None,None,None,None,None,None,2,0.9992151260375977,None,,,,,0,0,0,0,0,50,50,190,149.31406354904175,,,,,,,,,,,,,,,,,,,,,,,,,,,,,,,,,,,,,,,,,,,,,,,,,,,,,,,,,,,,,,,,,,,,,,,,,,,,,,,,,93.7724543618871,102.62000672457145,162.90918229249584,162.90918229249584,78.3003970580393,60.50223907461936,2.1,2.12,-229,-257,0,-253,208,256,149.29653668403625,149.29661107063293,149.29973578453064,149.31406354904175,149.46355199813843,149.46355199813843,149.46355199813843,149.46355199813843,149.46355199813843,149.46355199813843,149.46355199813843,150.3305926322937,2,0.9992151260375977,None,,,,,,,,,,,,,,,,,,127,1,2025-02-26_12h51.25.071,comp,2024.2.4,57.923575147422355,2025-02-26 12h51.39.597634 -0500,
51,51,0,filler_random,None,None,None,None,None,None,None,None,None,None,2,1.102919101715088,None,,,,,0,0,0,0,0,51,51,133,150.3465645313263,,,,,,,,,,,,,,,,,,,,,,,,,,,,,,,,,,,,,,,,,,,,,,,,,,,,,,,,,,,,,,,,,,,,,,,,,,,,,,,,,190.7696712734119,59.825989108957174,161.40428820776208,134.4195043093464,86.18398746454248,169.96141762390025,1.0,1.2,-193,12,0,15,248,5,150.33225464820862,150.3323712348938,150.3363392353058,150.3465645313263,150.49595499038696,150.49595499038696,150.49595499038696,150.49595499038696,150.49595499038696,150.49595499038696,150.49595499038696,151.4649314880371,2,1.102919101715088,None,,,,,,,,,,,,,,,,,,127,1,2025-02-26_12h51.25.071,comp,2024.2.4,57.923575147422355,2025-02-26 12h51.39.597634 -0500,
52,52,0,critical,hdw,35.0,3.0,upper,200.0,125.0,127.0,127.0,125.0,200.0,1,1.000579595565796,None,,,,,0,0,0,0,0,52,52,111,151.4805247783661,,,,,,,,,,,,,,,,,,,,,,,,,,,,,,,,,,,,,,,,,,,,,,,,,,,,,,,,,,,,,,,,,,,,,,,,,,,,,,,,,200.0,125.0,127.0,127.0,125.0,200.0,3.0,3.1,-222,269,0,-20,260,-266,151.46660685539246,151.46668100357056,151.47026801109314,151.4805247783661,151.63213419914246,151.63213419914246,151.63213419914246,151.63213419914246,151.63213419914246,151.63213419914246,151.63213419914246,152.49610090255737,1,1.000579595565796,None,,,,,,,,,,,,,,,,,,127,1,2025-02-26_12h51.25.071,comp,2024.2.4,57.923575147422355,2025-02-26 12h51.39.597634 -0500,
53,53,0,filler_random,None,None,None,None,None,None,None,None,None,None,2,0.8650457859039307,None,,,,,0,0,0,0,0,53,53,155,152.5124545097351,,,,,,,,,,,,,,,,,,,,,,,,,,,,,,,,,,,,,,,,,,,,,,,,,,,,,,,,,,,,,,,,,,,,,,,,,,,,,,,,,126.39643238940747,90.71556979138599,197.00871850108055,188.80658861210995,194.20848048566896,80.42420234572381,2.2,2.21,-236,-264,0,259,231,250,152.49775409698486,152.49786400794983,152.5011215209961,152.5124545097351,152.66709065437317,152.66709065437317,152.66709065437317,152.66709065437317,152.66709065437317,152.66709065437317,152.66709065437317,153.3797037601471,2,0.8650457859039307,None,,,,,,,,,,,,,,,,,,127,1,2025-02-26_12h51.25.071,comp,2024.2.4,57.923575147422355,2025-02-26 12h51.39.597634 -0500,
54,54,0,critical,wdh,35.0,1.0,lower,57.0,133.0,70.0,70.0,133.0,57.0,1,1.8330886363983154,None,,,,,0,0,0,0,0,54,54,72,153.40002250671387,,,,,,,,,,,,,,,,,,,,,,,,,,,,,,,,,,,,,,,,,,,,,,,,,,,,,,,,,,,,,,,,,,,,,,,,,,,,,,,,,57.0,133.0,70.0,70.0,133.0,57.0,1.0,1.3,282,-272,480,-262,640,-279,153.38114595413208,153.38122129440308,153.3843274116516,153.40002250671387,153.5477421283722,153.5477421283722,153.5477421283722,153.5477421283722,153.5477421283722,153.5477421283722,153.5477421283722,155.24594402313232,1,1.8330886363983154,None,,,,,,,,,,,,,,,,,,127,1,2025-02-26_12h51.25.071,comp,2024.2.4,57.923575147422355,2025-02-26 12h51.39.597634 -0500,
55,55,0,critical,wdh,20.0,1.0,lower,57.0,133.0,78.0,78.0,133.0,57.0,1,1.498136281967163,None,,,,,0,0,0,0,0,55,55,78,155.26339316368103,,,,,,,,,,,,,,,,,,,,,,,,,,,,,,,,,,,,,,,,,,,,,,,,,,,,,,,,,,,,,,,,,,,,,,,,,,,,,,,,,57.0,133.0,78.0,78.0,133.0,57.0,1.0,1.1,-682,269,-480,286,-316,276,155.24753832817078,155.24761176109314,155.2508683204651,155.26339316368103,155.415545463562,155.415545463562,155.415545463562,155.415545463562,155.415545463562,155.415545463562,155.415545463562,156.77095699310303,1,1.498136281967163,None,,,,,,,,,,,,,,,,,,127,1,2025-02-26_12h51.25.071,comp,2024.2.4,57.923575147422355,2025-02-26 12h51.39.597634 -0500,
56,56,0,critical,wdh,35.0,2.1,upper,125.0,200.0,127.0,127.0,200.0,125.0,1,1.669198989868164,None,,,,,0,0,0,0,0,56,56,33,156.7886984348297,,,,,,,,,,,,,,,,,,,,,,,,,,,,,,,,,,,,,,,,,,,,,,,,,,,,,,,,,,,,,,,,,,,,,,,,,,,,,,,,,125.0,200.0,127.0,127.0,200.0,125.0,2.1,2.11,-260,270,0,273,222,-254,156.77249240875244,156.77256560325623,156.77581310272217,156.7886984348297,156.9314670562744,156.9314670562744,156.9314670562744,156.9314670562744,156.9314670562744,156.9314670562744,156.9314670562744,158.46813917160034,1,1.669198989868164,None,,,,,,,,,,,,,,,,,,127,1,2025-02-26_12h51.25.071,comp,2024.2.4,57.923575147422355,2025-02-26 12h51.39.597634 -0500,
57,57,0,critical,dwh,35.0,1.0,lower,70.0,70.0,57.0,133.0,133.0,57.0,2,1.2691409587860107,None,,,,,0,0,0,0,0,57,57,60,158.4838936328888,,,,,,,,,,,,,,,,,,,,,,,,,,,,,,,,,,,,,,,,,,,,,,,,,,,,,,,,,,,,,,,,,,,,,,,,,,,,,,,,,70.0,70.0,57.0,133.0,133.0,57.0,1.0,1.3,282,-262,480,-269,671,-256,158.46974229812622,158.46985626220703,158.47322964668274,158.4838936328888,158.63267850875854,158.63267850875854,158.63267850875854,158.63267850875854,158.63267850875854,158.63267850875854,158.63267850875854,159.76617074012756,2,1.2691409587860107,None,,,,,,,,,,,,,,,,,,127,1,2025-02-26_12h51.25.071,comp,2024.2.4,57.923575147422355,2025-02-26 12h51.39.597634 -0500,
58,58,0,filler_square,None,None,None,None,None,None,None,None,None,None,2,0.7268359661102295,None,,,,,0,0,0,0,0,58,58,177,159.78654527664185,,,,,,,,,,,,,,,,,,,,,,,,,,,,,,,,,,,,,,,,,,,,,,,,,,,,,,,,,,,,,,,,,,,,,,,,,,,,,,,,,118.1728287658274,140.58578190479432,188.11185144870623,188.11185144870623,101.68971403649377,94.00664267252708,4.0,4.1,-260,-261,0,8,237,-284,159.76818799972534,159.7682728767395,159.77149605751038,159.78654527664185,159.93336820602417,159.93336820602417,159.93336820602417,159.93336820602417,159.93336820602417,159.93336820602417,159.93336820602417,160.5356523990631,2,0.7268359661102295,None,,,,,,,,,,,,,,,,,,127,1,2025-02-26_12h51.25.071,comp,2024.2.4,57.923575147422355,2025-02-26 12h51.39.597634 -0500,
59,59,0,critical,hwd,20.0,1.0,lower,133.0,57.0,57.0,133.0,78.0,78.0,1,1.2311182022094727,None,,,,,0,0,0,0,0,59,59,102,160.55417847633362,,,,,,,,,,,,,,,,,,,,,,,,,,,,,,,,,,,,,,,,,,,,,,,,,,,,,,,,,,,,,,,,,,,,,,,,,,,,,,,,,133.0,57.0,57.0,133.0,78.0,78.0,1.0,1.2,-191,-17,0,-15,202,13,160.53720712661743,160.53728246688843,160.54055881500244,160.55417847633362,160.69962692260742,160.69962692260742,160.69962692260742,160.69962692260742,160.69962692260742,160.69962692260742,160.69962692260742,161.7996940612793,1,1.2311182022094727,None,,,,,,,,,,,,,,,,,,127,1,2025-02-26_12h51.25.071,comp,2024.2.4,57.923575147422355,2025-02-26 12h51.39.597634 -0500,
60,60,0,critical,whd,20.0,1.0,upper,125.0,200.0,200.0,125.0,141.0,141.0,2,1.0177414417266846,None,,,,,0,0,0,0,0,60,60,91,161.81550931930542,,,,,,,,,,,,,,,,,,,,,,,,,,,,,,,,,,,,,,,,,,,,,,,,,,,,,,,,,,,,,,,,,,,,,,,,,,,,,,,,,125.0,200.0,200.0,125.0,141.0,141.0,1.0,1.2,-258,12,0,19,229,19,161.80125212669373,161.80132722854614,161.80527567863464,161.81550931930542,161.96518301963806,161.96518301963806,161.96518301963806,161.96518301963806,161.96518301963806,161.96518301963806,161.96518301963806,162.84984517097473,2,1.0177414417266846,None,,,,,,,,,,,,,,,,,,127,1,2025-02-26_12h51.25.071,comp,2024.2.4,57.923575147422355,2025-02-26 12h51.39.597634 -0500,
61,61,0,critical,whd,20.0,4.0,lower,57.0,133.0,133.0,57.0,78.0,78.0,1,1.8875231742858887,None,,,,,0,0,0,0,0,61,61,94,162.86612105369568,,,,,,,,,,,,,,,,,,,,,,,,,,,,,,,,,,,,,,,,,,,,,,,,,,,,,,,,,,,,,,,,,,,,,,,,,,,,,,,,,57.0,133.0,133.0,57.0,78.0,78.0,4.0,4.2,-191,-5,0,-284,164,8,162.85131454467773,162.8513879776001,162.85540509223938,162.86612105369568,163.01549077033997,163.01549077033997,163.01549077033997,163.01549077033997,163.01549077033997,163.01549077033997,163.01549077033997,164.76344847679138,1,1.8875231742858887,None,,,,,,,,,,,,,,,,,,127,1,2025-02-26_12h51.25.071,comp,2024.2.4,57.923575147422355,2025-02-26 12h51.39.597634 -0500,
62,62,0,filler_random,None,None,None,None,None,None,None,None,None,None,1,1.1369876861572266,None,,,,,0,0,0,0,0,62,62,157,164.78415751457214,,,,,,,,,,,,,,,,,,,,,,,,,,,,,,,,,,,,,,,,,,,,,,,,,,,,,,,,,,,,,,,,,,,,,,,,,,,,,,,,,81.644525165263,194.56506316715976,196.1079846636407,60.62175838000059,169.08409836399068,85.12554659974293,2.2,2.21,-224,-272,0,277,169,258,164.76512265205383,164.7651982307434,164.76841640472412,164.78415751457214,164.91714930534363,164.91714930534363,164.91714930534363,164.91714930534363,164.91714930534363,164.91714930534363,164.91714930534363,165.93443417549133,1,1.1369876861572266,None,,,,,,,,,,,,,,,,,,127,1,2025-02-26_12h51.25.071,comp,2024.2.4,57.923575147422355,2025-02-26 12h51.39.597634 -0500,
63,63,0,critical,hwd,20.0,3.0,upper,200.0,125.0,125.0,200.0,141.0,141.0,2,1.6568584442138672,None,,,,,0,0,0,0,0,63,63,105,165.95415091514587,,,,,,,,,,,,,,,,,,,,,,,,,,,,,,,,,,,,,,,,,,,,,,,,,,,,,,,,,,,,,,,,,,,,,,,,,,,,,,,,,200.0,125.0,125.0,200.0,141.0,141.0,3.0,3.2,-258,-275,0,2,266,265,165.93603444099426,165.93610906600952,165.939377784729,165.95415091514587,166.10086131095886,166.10086131095886,166.10086131095886,166.10086131095886,166.10086131095886,166.10086131095886,166.10086131095886,167.61844682693481,2,1.6568584442138672,None,,,,,,,,,,,,,,,,,,127,1,2025-02-26_12h51.25.071,comp,2024.2.4,57.923575147422355,2025-02-26 12h51.39.597634 -0500,
64,64,0,filler_random,None,None,None,None,None,None,None,None,None,None,1,1.0005135536193848,None,,,,,0,0,0,0,0,64,64,165,167.64060831069946,,,,,,,,,,,,,,,,,,,,,,,,,,,,,,,,,,,,,,,,,,,,,,,,,,,,,,,,,,,,,,,,,,,,,,,,,,,,,,,,,176.55883767083327,102.00911773381003,130.1599926487204,64.74691720965174,190.4136348813056,61.972374590836516,4.0,4.2,-179,2,0,-266,159,11,167.62031483650208,167.62044262886047,167.62363028526306,167.64060831069946,167.78584241867065,167.78584241867065,167.78584241867065,167.78584241867065,167.78584241867065,167.78584241867065,167.78584241867065,168.6540207862854,1,1.0005135536193848,None,,,,,,,,,,,,,,,,,,127,1,2025-02-26_12h51.25.071,comp,2024.2.4,57.923575147422355,2025-02-26 12h51.39.597634 -0500,
65,65,0,critical,hwd,20.0,4.0,lower,133.0,57.0,57.0,133.0,78.0,78.0,2,1.7853069305419922,None,,,,,0,0,0,0,0,65,65,106,168.67188143730164,,,,,,,,,,,,,,,,,,,,,,,,,,,,,,,,,,,,,,,,,,,,,,,,,,,,,,,,,,,,,,,,,,,,,,,,,,,,,,,,,133.0,57.0,57.0,133.0,78.0,78.0,4.0,4.1,-191,-256,0,-7,202,-261,168.65555095672607,168.65562772750854,168.65866422653198,168.67188143730164,168.81779789924622,168.81779789924622,168.81779789924622,168.81779789924622,168.81779789924622,168.81779789924622,168.81779789924622,170.47140216827393,2,1.7853069305419922,None,,,,,,,,,,,,,,,,,,127,1,2025-02-26_12h51.25.071,comp,2024.2.4,57.923575147422355,2025-02-26 12h51.39.597634 -0500,
66,66,0,critical,whd,35.0,2.1,upper,125.0,200.0,200.0,125.0,127.0,127.0,2,2.2339072227478027,None,,,,,0,0,0,0,0,66,66,37,170.48723006248474,,,,,,,,,,,,,,,,,,,,,,,,,,,,,,,,,,,,,,,,,,,,,,,,,,,,,,,,,,,,,,,,,,,,,,,,,,,,,,,,,125.0,200.0,200.0,125.0,127.0,127.0,2.1,2.12,-258,-287,0,-290,222,251,170.47306632995605,170.47314023971558,170.4769549369812,170.48723006248474,170.63609170913696,170.63609170913696,170.63609170913696,170.63609170913696,170.63609170913696,170.63609170913696,170.63609170913696,172.73630285263062,2,2.2339072227478027,None,,,,,,,,,,,,,,,,,,127,1,2025-02-26_12h51.25.071,comp,2024.2.4,57.923575147422355,2025-02-26 12h51.39.597634 -0500,
67,67,0,critical,hdw,20.0,1.0,upper,200.0,125.0,141.0,141.0,125.0,200.0,3,2.5619189739227295,None,,,,,0,0,0,0,0,67,67,115,172.75173330307007,,,,,,,,,,,,,,,,,,,,,,,,,,,,,,,,,,,,,,,,,,,,,,,,,,,,,,,,,,,,,,,,,,,,,,,,,,,,,,,,,200.0,125.0,141.0,141.0,125.0,200.0,1.0,1.2,-229,3,0,-19,266,15,172.73782992362976,172.73790407180786,172.74140191078186,172.75173330307007,172.901841878891,172.901841878891,172.901841878891,172.901841878891,172.901841878891,172.901841878891,172.901841878891,175.31961250305176,3,2.5619189739227295,None,,,,,,,,,,,,,,,,,,127,1,2025-02-26_12h51.25.071,comp,2024.2.4,57.923575147422355,2025-02-26 12h51.39.597634 -0500,
68,68,0,critical,dhw,35.0,1.0,upper,127.0,127.0,200.0,125.0,125.0,200.0,2,2.4059245586395264,None,,,,,0,0,0,0,0,68,68,49,175.33939909934998,,,,,,,,,,,,,,,,,,,,,,,,,,,,,,,,,,,,,,,,,,,,,,,,,,,,,,,,,,,,,,,,,,,,,,,,,,,,,,,,,127.0,127.0,200.0,125.0,125.0,200.0,1.0,1.2,-222,10,0,-6,258,-13,175.32110977172852,175.32120156288147,175.32423043251038,175.33939909934998,175.48683667182922,175.48683667182922,175.48683667182922,175.48683667182922,175.48683667182922,175.48683667182922,175.48683667182922,177.75568008422852,2,2.4059245586395264,None,,,,,,,,,,,,,,,,,,127,1,2025-02-26_12h51.25.071,comp,2024.2.4,57.923575147422355,2025-02-26 12h51.39.597634 -0500,
69,69,0,filler_random,None,None,None,None,None,None,None,None,None,None,3,1.1165363788604736,None,,,,,0,0,0,0,0,69,69,163,177.77263355255127,,,,,,,,,,,,,,,,,,,,,,,,,,,,,,,,,,,,,,,,,,,,,,,,,,,,,,,,,,,,,,,,,,,,,,,,,,,,,,,,,105.71896519287282,174.22431396078986,78.1993569007823,186.17327680997664,195.5215548064737,146.52142647175856,3.0,3.1,-276,284,0,7,262,-284,177.75740218162537,177.7574782371521,177.76059341430664,177.77263355255127,177.92041063308716,177.92041063308716,177.92041063308716,177.92041063308716,177.92041063308716,177.92041063308716,177.92041063308716,178.90194439888,3,1.1165363788604736,None,,,,,,,,,,,,,,,,,,127,1,2025-02-26_12h51.25.071,comp,2024.2.4,57.923575147422355,2025-02-26 12h51.39.597634 -0500,
70,70,0,filler_square,None,None,None,None,None,None,None,None,None,None,2,0.997420072555542,None,,,,,0,0,0,0,0,70,70,192,178.91840505599976,,,,,,,,,,,,,,,,,,,,,,,,,,,,,,,,,,,,,,,,,,,,,,,,,,,,,,,,,,,,,,,,,,,,,,,,,,,,,,,,,146.96384395541278,141.2296778382779,198.93380550123467,198.93380550123467,148.81819612860411,85.49117982324739,2.2,2.22,-266,276,0,-272,238,-271,178.90365147590637,178.9037275314331,178.90654063224792,178.91840505599976,179.0546374320984,179.0546374320984,179.0546374320984,179.0546374320984,179.0546374320984,179.0546374320984,179.0546374320984,179.9206349849701,2,0.997420072555542,None,,,,,,,,,,,,,,,,,,127,1,2025-02-26_12h51.25.071,comp,2024.2.4,57.923575147422355,2025-02-26 12h51.39.597634 -0500,
71,71,0,filler_square,None,None,None,None,None,None,None,None,None,None,2,1.6238915920257568,None,,,,,0,0,0,0,0,71,71,204,179.93733525276184,,,,,,,,,,,,,,,,,,,,,,,,,,,,,,,,,,,,,,,,,,,,,,,,,,,,,,,,,,,,,,,,,,,,,,,,,,,,,,,,,67.83331197542094,81.75333390105794,87.6333366926514,87.6333366926514,67.06170298994594,65.98539435482395,2.1,2.11,-181,263,0,287,173,-254,179.92242860794067,179.92250394821167,179.92567372322083,179.93733525276184,180.0764331817627,180.0764331817627,180.0764331817627,180.0764331817627,180.0764331817627,180.0764331817627,180.0764331817627,181.57140445709229,2,1.6238915920257568,None,,,,,,,,,,,,,,,,,,127,1,2025-02-26_12h51.25.071,comp,2024.2.4,57.923575147422355,2025-02-26 12h51.39.597634 -0500,
72,72,0,critical,wdh,35.0,2.1,lower,57.0,133.0,70.0,70.0,133.0,57.0,2,2.1589081287384033,None,,,,,0,0,0,0,0,72,72,8,181.58709335327148,,,,,,,,,,,,,,,,,,,,,,,,,,,,,,,,,,,,,,,,,,,,,,,,,,,,,,,,,,,,,,,,,,,,,,,,,,,,,,,,,57.0,133.0,70.0,70.0,133.0,57.0,2.1,2.11,-198,278,0,280,160,-278,181.57290697097778,181.57298231124878,181.57606434822083,181.58709335327148,181.74000525474548,181.74000525474548,181.74000525474548,181.74000525474548,181.74000525474548,181.74000525474548,181.74000525474548,183.75671291351318,2,2.1589081287384033,None,,,,,,,,,,,,,,,,,,127,1,2025-02-26_12h51.25.071,comp,2024.2.4,57.923575147422355,2025-02-26 12h51.39.597634 -0500,
73,73,0,critical,hdw,20.0,4.0,lower,133.0,57.0,78.0,78.0,57.0,133.0,3,2.190953493118286,None,,,,,0,0,0,0,0,73,73,118,183.77161693572998,,,,,,,,,,,,,,,,,,,,,,,,,,,,,,,,,,,,,,,,,,,,,,,,,,,,,,,,,,,,,,,,,,,,,,,,,,,,,,,,,133.0,57.0,78.0,78.0,57.0,133.0,4.0,4.1,-164,-253,0,-3,202,-273,183.75835800170898,183.75843572616577,183.76187109947205,183.77161693572998,183.9110972881317,183.9110972881317,183.9110972881317,183.9110972881317,183.9110972881317,183.9110972881317,183.9110972881317,185.97375345230103,3,2.190953493118286,None,,,,,,,,,,,,,,,,,,127,1,2025-02-26_12h51.25.071,comp,2024.2.4,57.923575147422355,2025-02-26 12h51.39.597634 -0500,
74,74,0,filler_random,None,None,None,None,None,None,None,None,None,None,2,0.8595654964447021,None,,,,,0,0,0,0,0,74,74,154,185.98978519439697,,,,,,,,,,,,,,,,,,,,,,,,,,,,,,,,,,,,,,,,,,,,,,,,,,,,,,,,,,,,,,,,,,,,,,,,,,,,,,,,,122.19399945506255,78.46519549210294,183.68114662709226,159.18887560899276,103.57850386764355,96.24511760921068,2.1,2.12,-215,-281,0,-285,224,257,185.9754283428192,185.97550415992737,185.97875881195068,185.98978519439697,186.13897061347961,186.13897061347961,186.13897061347961,186.13897061347961,186.13897061347961,186.13897061347961,186.13897061347961,186.8520987033844,2,0.8595654964447021,None,,,,,,,,,,,,,,,,,,127,1,2025-02-26_12h51.25.071,comp,2024.2.4,57.923575147422355,2025-02-26 12h51.39.597634 -0500,
75,75,0,filler_square,None,None,None,None,None,None,None,None,None,None,2,0.9886143207550049,None,,,,,0,0,0,0,0,75,75,183,186.86869096755981,,,,,,,,,,,,,,,,,,,,,,,,,,,,,,,,,,,,,,,,,,,,,,,,,,,,,,,,,,,,,,,,,,,,,,,,,,,,,,,,,125.73900276232166,62.287845867224576,163.9434104548256,163.9434104548256,142.52810287529832,120.07667612273275,3.0,3.1,-209,250,0,9,238,-268,186.8540494441986,186.8541238307953,186.85729789733887,186.86869096755981,187.00884079933167,187.00884079933167,187.00884079933167,187.00884079933167,187.00884079933167,187.00884079933167,187.00884079933167,187.8743441104889,2,0.9886143207550049,None,,,,,,,,,,,,,,,,,,127,1,2025-02-26_12h51.25.071,comp,2024.2.4,57.923575147422355,2025-02-26 12h51.39.597634 -0500,
76,76,0,filler_random,None,None,None,None,None,None,None,None,None,None,3,1.158196210861206,None,,,,,0,0,0,0,0,76,76,131,187.89180850982666,,,,,,,,,,,,,,,,,,,,,,,,,,,,,,,,,,,,,,,,,,,,,,,,,,,,,,,,,,,,,,,,,,,,,,,,,,,,,,,,,126.6806060609042,198.69305275021648,78.31027894038257,155.40984876653124,167.56868793388693,179.24696877241337,2.1,2.11,-273,277,0,286,263,-251,187.87619280815125,187.87632083892822,187.8796272277832,187.89180850982666,188.04166173934937,188.04166173934937,188.04166173934937,188.04166173934937,188.04166173934937,188.04166173934937,188.04166173934937,189.05736994743347,3,1.158196210861206,None,,,,,,,,,,,,,,,,,,127,1,2025-02-26_12h51.25.071,comp,2024.2.4,57.923575147422355,2025-02-26 12h51.39.597634 -0500,
77,77,0,critical,hdw,35.0,2.1,upper,200.0,125.0,127.0,127.0,125.0,200.0,1,1.8529322147369385,None,,,,,0,0,0,0,0,77,77,21,189.07620549201965,,,,,,,,,,,,,,,,,,,,,,,,,,,,,,,,,,,,,,,,,,,,,,,,,,,,,,,,,,,,,,,,,,,,,,,,,,,,,,,,,200.0,125.0,127.0,127.0,125.0,200.0,2.1,2.11,-222,271,0,268,260,-285,189.058988571167,189.05909180641174,189.06241583824158,189.07620549201965,189.22582530975342,189.22582530975342,189.22582530975342,189.22582530975342,189.22582530975342,189.22582530975342,189.22582530975342,190.94340205192566,1,1.8529322147369385,None,,,,,,,,,,,,,,,,,,127,1,2025-02-26_12h51.25.071,comp,2024.2.4,57.923575147422355,2025-02-26 12h51.39.597634 -0500,
78,78,0,catch,None,None,None,None,None,None,None,None,None,None,3,1.1300642490386963,None,,,,,0,0,0,0,0,78,78,127,190.95914673805237,,,,,,,,,,,,,,,,,,,,,,,,,,,,,,,,,,,,,,,,,,,,,,,,,,,,,,,,,,,,,,,,,,,,,,,,,,,,,,,,,129,61,114,76,175,150,4.0,4.1,-164,-266,0,3,209,-276,190.94560074806213,190.94567799568176,190.94888019561768,190.95914673805237,191.10644817352295,191.10644817352295,191.10644817352295,191.10644817352295,191.10644817352295,191.10644817352295,191.10644817352295,192.09286379814148,3,1.1300642490386963,None,,,,,,,,,,,,,,,,,,127,1,2025-02-26_12h51.25.071,comp,2024.2.4,57.923575147422355,2025-02-26 12h51.39.597634 -0500,
79,79,0,critical,whd,20.0,1.0,lower,57.0,133.0,133.0,57.0,78.0,78.0,2,1.5343055725097656,None,,,,,0,0,0,0,0,79,79,90,192.10694003105164,,,,,,,,,,,,,,,,,,,,,,,,,,,,,,,,,,,,,,,,,,,,,,,,,,,,,,,,,,,,,,,,,,,,,,,,,,,,,,,,,57.0,133.0,133.0,57.0,78.0,78.0,1.0,1.1,-671,287,-480,266,-316,269,192.09436798095703,192.09444308280945,192.0975890159607,192.10694003105164,192.25787162780762,192.25787162780762,192.25787162780762,192.25787162780762,192.25787162780762,192.25787162780762,192.25787162780762,193.64334797859192,2,1.5343055725097656,None,,,,,,,,,,,,,,,,,,127,1,2025-02-26_12h51.25.071,comp,2024.2.4,57.923575147422355,2025-02-26 12h51.39.597634 -0500,
80,80,0,critical,hdw,20.0,2.1,lower,133.0,57.0,78.0,78.0,57.0,133.0,3,1.7739014625549316,None,,,,,0,0,0,0,0,80,80,22,193.65928292274475,,,,,,,,,,,,,,,,,,,,,,,,,,,,,,,,,,,,,,,,,,,,,,,,,,,,,,,,,,,,,,,,,,,,,,,,,,,,,,,,,133.0,57.0,78.0,78.0,57.0,133.0,2.1,2.11,-164,273,0,266,202,-286,193.645001411438,193.6451141834259,193.64853596687317,193.65928292274475,193.79780530929565,193.79780530929565,193.79780530929565,193.79780530929565,193.79780530929565,193.79780530929565,193.79780530929565,195.44614458084106,3,1.7739014625549316,None,,,,,,,,,,,,,,,,,,127,1,2025-02-26_12h51.25.071,comp,2024.2.4,57.923575147422355,2025-02-26 12h51.39.597634 -0500,
81,81,0,filler_square,None,None,None,None,None,None,None,None,None,None,2,1.248054027557373,None,,,,,0,0,0,0,0,81,81,200,195.4652602672577,,,,,,,,,,,,,,,,,,,,,,,,,,,,,,,,,,,,,,,,,,,,,,,,,,,,,,,,,,,,,,,,,,,,,,,,,,,,,,,,,57.37184097163008,69.59316062993257,72.178433875047,72.178433875047,70.11183683503786,69.93269530513464,2.1,2.12,-167,-273,0,-279,167,260,195.44816184043884,195.448237657547,195.45151448249817,195.4652602672577,195.61207151412964,195.61207151412964,195.61207151412964,195.61207151412964,195.61207151412964,195.61207151412964,195.61207151412964,196.72701716423035,2,1.248054027557373,None,,,,,,,,,,,,,,,,,,127,1,2025-02-26_12h51.25.071,comp,2024.2.4,57.923575147422355,2025-02-26 12h51.39.597634 -0500,
82,82,0,critical,hwd,20.0,2.1,upper,200.0,125.0,125.0,200.0,141.0,141.0,2,1.211078405380249,None,,,,,0,0,0,0,0,82,82,43,196.74259495735168,,,,,,,,,,,,,,,,,,,,,,,,,,,,,,,,,,,,,,,,,,,,,,,,,,,,,,,,,,,,,,,,,,,,,,,,,,,,,,,,,200.0,125.0,125.0,200.0,141.0,141.0,2.1,2.12,-258,-275,0,-282,266,281,196.72864151000977,196.72873663902283,196.73224806785583,196.74259495735168,196.89366912841797,196.89366912841797,196.89366912841797,196.89366912841797,196.89366912841797,196.89366912841797,196.89366912841797,197.96298122406006,2,1.211078405380249,None,,,,,,,,,,,,,,,,,,127,1,2025-02-26_12h51.25.071,comp,2024.2.4,57.923575147422355,2025-02-26 12h51.39.597634 -0500,
83,83,0,filler_random,None,None,None,None,None,None,None,None,None,None,3,1.1660633087158203,None,,,,,0,0,0,0,0,83,83,169,197.97924518585205,,,,,,,,,,,,,,,,,,,,,,,,,,,,,,,,,,,,,,,,,,,,,,,,,,,,,,,,,,,,,,,,,,,,,,,,,,,,,,,,,92.33356859968221,163.16859737435612,127.79409098613068,121.19958991816654,138.11834962265937,153.52228581112263,2.1,2.11,-238,276,0,267,233,-286,197.96475338935852,197.96487140655518,197.96849751472473,197.97924518585205,198.12846875190735,198.12846875190735,198.12846875190735,198.12846875190735,198.12846875190735,198.12846875190735,198.12846875190735,199.15833735466003,3,1.1660633087158203,None,,,,,,,,,,,,,,,,,,127,1,2025-02-26_12h51.25.071,comp,2024.2.4,57.923575147422355,2025-02-26 12h51.39.597634 -0500,
84,84,0,critical,whd,35.0,2.1,lower,57.0,133.0,133.0,57.0,70.0,70.0,2,1.1935226917266846,None,,,,,0,0,0,0,0,84,84,36,199.17562627792358,,,,,,,,,,,,,,,,,,,,,,,,,,,,,,,,,,,,,,,,,,,,,,,,,,,,,,,,,,,,,,,,,,,,,,,,,,,,,,,,,57.0,133.0,133.0,57.0,70.0,70.0,2.1,2.11,-191,289,0,273,160,-273,199.15987420082092,199.15994930267334,199.16322708129883,199.17562627792358,199.330974817276,199.330974817276,199.330974817276,199.330974817276,199.330974817276,199.330974817276,199.330974817276,200.38168692588806,2,1.1935226917266846,None,,,,,,,,,,,,,,,,,,127,1,2025-02-26_12h51.25.071,comp,2024.2.4,57.923575147422355,2025-02-26 12h51.39.597634 -0500,
85,85,0,critical,dwh,20.0,4.0,upper,141.0,141.0,125.0,200.0,200.0,125.0,3,1.1718721389770508,None,,,,,0,0,0,0,0,85,85,71,200.39793729782104,,,,,,,,,,,,,,,,,,,,,,,,,,,,,,,,,,,,,,,,,,,,,,,,,,,,,,,,,,,,,,,,,,,,,,,,,,,,,,,,,141.0,141.0,125.0,200.0,200.0,125.0,4.0,4.2,-266,-12,0,-276,258,-17,200.38351106643677,200.38363981246948,200.38681745529175,200.39793729782104,200.5467574596405,200.5467574596405,200.5467574596405,200.5467574596405,200.5467574596405,200.5467574596405,200.5467574596405,201.57876086235046,3,1.1718721389770508,None,,,,,,,,,,,,,,,,,,127,1,2025-02-26_12h51.25.071,comp,2024.2.4,57.923575147422355,2025-02-26 12h51.39.597634 -0500,
86,86,0,filler_square,None,None,None,None,None,None,None,None,None,None,1,1.0147876739501953,None,,,,,0,0,0,0,0,86,86,181,201.59498739242554,,,,,,,,,,,,,,,,,,,,,,,,,,,,,,,,,,,,,,,,,,,,,,,,,,,,,,,,,,,,,,,,,,,,,,,,,,,,,,,,,157.64621863654565,157.64621863654565,59.55280432815841,61.284946874068254,135.15820833202184,111.91344169316352,1.0,1.3,275,-286,480,-260,663,-267,201.58074116706848,201.58085083961487,201.58415985107422,201.59498739242554,201.7477252483368,201.7477252483368,201.7477252483368,201.7477252483368,201.7477252483368,201.7477252483368,201.7477252483368,202.6124017238617,1,1.0147876739501953,None,,,,,,,,,,,,,,,,,,127,1,2025-02-26_12h51.25.071,comp,2024.2.4,57.923575147422355,2025-02-26 12h51.39.597634 -0500,
87,87,0,critical,hdw,35.0,2.1,upper,200.0,125.0,127.0,127.0,125.0,200.0,3,1.1409883499145508,None,,,,,0,0,0,0,0,87,87,45,202.62864470481873,,,,,,,,,,,,,,,,,,,,,,,,,,,,,,,,,,,,,,,,,,,,,,,,,,,,,,,,,,,,,,,,,,,,,,,,,,,,,,,,,200.0,125.0,127.0,127.0,125.0,200.0,2.1,2.11,-222,278,0,255,260,-257,202.61399102210999,202.61406803131104,202.61756825447083,202.62864470481873,202.7832043170929,202.7832043170929,202.7832043170929,202.7832043170929,202.7832043170929,202.7832043170929,202.7832043170929,203.77564454078674,3,1.1409883499145508,None,,,,,,,,,,,,,,,,,,127,1,2025-02-26_12h51.25.071,comp,2024.2.4,57.923575147422355,2025-02-26 12h51.39.597634 -0500,
88,88,0,filler_square,None,None,None,None,None,None,None,None,None,None,3,1.6173553466796875,None,,,,,0,0,0,0,0,88,88,199,203.7924928665161,,,,,,,,,,,,,,,,,,,,,,,,,,,,,,,,,,,,,,,,,,,,,,,,,,,,,,,,,,,,,,,,,,,,,,,,,,,,,,,,,58.02841167525809,59.765353477592804,75.56588170684941,64.80705878228632,79.02822260369065,79.02822260369065,2.1,2.11,-158,267,0,285,168,-257,203.77740693092346,203.77751564979553,203.78070330619812,203.7924928665161,203.9469873905182,203.9469873905182,203.9469873905182,203.9469873905182,203.9469873905182,203.9469873905182,203.9469873905182,205.41657853126526,3,1.6173553466796875,None,,,,,,,,,,,,,,,,,,127,1,2025-02-26_12h51.25.071,comp,2024.2.4,57.923575147422355,2025-02-26 12h51.39.597634 -0500,
89,89,0,filler_square,None,None,None,None,None,None,None,None,None,None,3,1.1939115524291992,None,,,,,0,0,0,0,0,89,89,205,205.4320764541626,,,,,,,,,,,,,,,,,,,,,,,,,,,,,,,,,,,,,,,,,,,,,,,,,,,,,,,,,,,,,,,,,,,,,,,,,,,,,,,,,100.21270768596507,132.87348165662593,122.12318037247633,166.57275303070807,170.1779314495162,170.1779314495162,2.1,2.12,-246,-277,0,-285,264,270,205.41849160194397,205.41857028007507,205.42146015167236,205.4320764541626,205.58593106269836,205.58593106269836,205.58593106269836,205.58593106269836,205.58593106269836,205.58593106269836,205.58593106269836,206.63122057914734,3,1.1939115524291992,None,,,,,,,,,,,,,,,,,,127,1,2025-02-26_12h51.25.071,comp,2024.2.4,57.923575147422355,2025-02-26 12h51.39.597634 -0500,
90,90,0,critical,hwd,20.0,3.0,lower,133.0,57.0,57.0,133.0,78.0,78.0,2,0.9139540195465088,None,,,,,0,0,0,0,0,90,90,104,206.6475510597229,,,,,,,,,,,,,,,,,,,,,,,,,,,,,,,,,,,,,,,,,,,,,,,,,,,,,,,,,,,,,,,,,,,,,,,,,,,,,,,,,133.0,57.0,57.0,133.0,78.0,78.0,3.0,3.1,-191,261,0,11,202,-280,206.63266491889954,206.63273930549622,206.6359555721283,206.6475510597229,206.79384756088257,206.79384756088257,206.79384756088257,206.79384756088257,206.79384756088257,206.79384756088257,206.79384756088257,207.5831835269928,2,0.9139540195465088,None,,,,,,,,,,,,,,,,,,127,1,2025-02-26_12h51.25.071,comp,2024.2.4,57.923575147422355,2025-02-26 12h51.39.597634 -0500,
91,91,0,catch,None,None,None,None,None,None,None,None,None,None,2,1.127821683883667,None,,,,,0,0,0,0,0,91,91,122,207.60144925117493,,,,,,,,,,,,,,,,,,,,,,,,,,,,,,,,,,,,,,,,,,,,,,,,,,,,,,,,,,,,,,,,,,,,,,,,,,,,,,,,,98,92,193,132,111,79,2.1,2.11,-208,269,0,282,202,-271,207.58532667160034,207.5854024887085,207.5886116027832,207.60144925117493,207.74711751937866,207.74711751937866,207.74711751937866,207.74711751937866,207.74711751937866,207.74711751937866,207.74711751937866,208.74336218833923,2,1.127821683883667,None,,,,,,,,,,,,,,,,,,127,1,2025-02-26_12h51.25.071,comp,2024.2.4,57.923575147422355,2025-02-26 12h51.39.597634 -0500,
92,92,0,catch,None,None,None,None,None,None,None,None,None,None,2,0.9148285388946533,None,,,,,0,0,0,0,0,92,92,129,208.75881052017212,,,,,,,,,,,,,,,,,,,,,,,,,,,,,,,,,,,,,,,,,,,,,,,,,,,,,,,,,,,,,,,,,,,,,,,,,,,,,,,,,89,101,199,126,79,111,1.0,1.3,270,-254,480,-284,694,-274,208.74518847465515,208.74526262283325,208.7480719089508,208.75881052017212,208.89805936813354,208.89805936813354,208.89805936813354,208.89805936813354,208.89805936813354,208.89805936813354,208.89805936813354,209.68199849128723,2,0.9148285388946533,None,,,,,,,,,,,,,,,,,,127,1,2025-02-26_12h51.25.071,comp,2024.2.4,57.923575147422355,2025-02-26 12h51.39.597634 -0500,
93,93,0,catch,None,None,None,None,None,None,None,None,None,None,3,0.937920331954956,None,,,,,0,0,0,0,0,93,93,124,209.69942235946655,,,,,,,,,,,,,,,,,,,,,,,,,,,,,,,,,,,,,,,,,,,,,,,,,,,,,,,,,,,,,,,,,,,,,,,,,,,,,,,,,115,75,70,120,162,163,3.0,3.1,-194,282,0,-11,238,-256,209.683917760849,209.6839952468872,209.68796181678772,209.69942235946655,209.85153150558472,209.85153150558472,209.85153150558472,209.85153150558472,209.85153150558472,209.85153150558472,209.85153150558472,210.65041661262512,3,0.937920331954956,None,,,,,,,,,,,,,,,,,,127,1,2025-02-26_12h51.25.071,comp,2024.2.4,57.923575147422355,2025-02-26 12h51.39.597634 -0500,
94,94,0,filler_square,None,None,None,None,None,None,None,None,None,None,1,0.9264211654663086,None,,,,,0,0,0,0,0,94,94,198,210.66712069511414,,,,,,,,,,,,,,,,,,,,,,,,,,,,,,,,,,,,,,,,,,,,,,,,,,,,,,,,,,,,,,,,,,,,,,,,,,,,,,,,,120.75946096998014,120.75946096998014,82.36108359494256,79.98853061820434,96.5658789961355,95.62904767295478,3.0,3.2,-196,-278,0,11,184,285,210.6525173187256,210.65260982513428,210.65587997436523,210.66712069511414,210.81111478805542,210.81111478805542,210.81111478805542,210.81111478805542,210.81111478805542,210.81111478805542,210.81111478805542,211.59765028953552,1,0.9264211654663086,None,,,,,,,,,,,,,,,,,,127,1,2025-02-26_12h51.25.071,comp,2024.2.4,57.923575147422355,2025-02-26 12h51.39.597634 -0500,
95,95,0,filler_square,None,None,None,None,None,None,None,None,None,None,1,1.1312849521636963,None,,,,,0,0,0,0,0,95,95,194,211.61401987075806,,,,,,,,,,,,,,,,,,,,,,,,,,,,,,,,,,,,,,,,,,,,,,,,,,,,,,,,,,,,,,,,,,,,,,,,,,,,,,,,,141.23890594610066,141.23890594610066,105.29668700184182,75.10863873488344,84.88573406933052,92.4201797235186,2.1,2.11,-204,276,0,258,180,-284,211.59940361976624,211.59947896003723,211.60250449180603,211.61401987075806,211.7653317451477,211.7653317451477,211.7653317451477,211.7653317451477,211.7653317451477,211.7653317451477,211.7653317451477,212.75029301643372,1,1.1312849521636963,None,,,,,,,,,,,,,,,,,,127,1,2025-02-26_12h51.25.071,comp,2024.2.4,57.923575147422355,2025-02-26 12h51.39.597634 -0500,
96,96,0,critical,dhw,35.0,1.0,lower,70.0,70.0,133.0,57.0,57.0,133.0,3,1.2095844745635986,None,,,,,0,0,0,0,0,96,96,48,212.76831340789795,,,,,,,,,,,,,,,,,,,,,,,,,,,,,,,,,,,,,,,,,,,,,,,,,,,,,,,,,,,,,,,,,,,,,,,,,,,,,,,,,70.0,70.0,133.0,57.0,57.0,133.0,1.0,1.1,-640,266,-480,270,-289,259,212.75184965133667,212.75192546844482,212.75522685050964,212.76831340789795,212.91574954986572,212.91574954986572,212.91574954986572,212.91574954986572,212.91574954986572,212.91574954986572,212.91574954986572,213.98266434669495,3,1.2095844745635986,None,,,,,,,,,,,,,,,,,,127,1,2025-02-26_12h51.25.071,comp,2024.2.4,57.923575147422355,2025-02-26 12h51.39.597634 -0500,
97,97,0,critical,dhw,35.0,2.1,upper,127.0,127.0,200.0,125.0,125.0,200.0,3,1.07505464553833,None,,,,,0,0,0,0,0,97,97,25,213.99890112876892,,,,,,,,,,,,,,,,,,,,,,,,,,,,,,,,,,,,,,,,,,,,,,,,,,,,,,,,,,,,,,,,,,,,,,,,,,,,,,,,,127.0,127.0,200.0,125.0,125.0,200.0,2.1,2.12,-222,-265,0,-255,258,265,213.98417615890503,213.98425245285034,213.98771905899048,213.99890112876892,214.14935278892517,214.14935278892517,214.14935278892517,214.14935278892517,214.14935278892517,214.14935278892517,214.14935278892517,215.08327960968018,3,1.07505464553833,None,,,,,,,,,,,,,,,,,,127,1,2025-02-26_12h51.25.071,comp,2024.2.4,57.923575147422355,2025-02-26 12h51.39.597634 -0500,
98,98,0,filler_random,None,None,None,None,None,None,None,None,None,None,2,0.8309907913208008,None,,,,,0,0,0,0,0,98,98,142,215.09890699386597,,,,,,,,,,,,,,,,,,,,,,,,,,,,,,,,,,,,,,,,,,,,,,,,,,,,,,,,,,,,,,,,,,,,,,,,,,,,,,,,,138.27161138533194,100.04106953422976,170.74423607904532,161.00223784042828,150.4550134293108,123.33010572862953,4.0,4.1,-227,-273,0,16,238,-257,215.0849163532257,215.08501553535461,215.08832716941833,215.09890699386597,215.24941897392273,215.24941897392273,215.24941897392273,215.24941897392273,215.24941897392273,215.24941897392273,215.24941897392273,215.93700504302979,2,0.8309907913208008,None,,,,,,,,,,,,,,,,,,127,1,2025-02-26_12h51.25.071,comp,2024.2.4,57.923575147422355,2025-02-26 12h51.39.597634 -0500,
99,99,0,critical,whd,35.0,4.0,lower,57.0,133.0,133.0,57.0,70.0,70.0,1,1.5578598976135254,None,,,,,0,0,0,0,0,99,99,88,215.955664396286,,,,,,,,,,,,,,,,,,,,,,,,,,,,,,,,,,,,,,,,,,,,,,,,,,,,,,,,,,,,,,,,,,,,,,,,,,,,,,,,,57.0,133.0,133.0,57.0,70.0,70.0,4.0,4.2,-191,-6,0,-263,160,9,215.93851923942566,215.93859577178955,215.94188714027405,215.955664396286,216.10042572021484,216.10042572021484,216.10042572021484,216.10042572021484,216.10042572021484,216.10042572021484,216.10042572021484,217.51609325408936,1,1.5578598976135254,None,,,,,,,,,,,,,,,,,,127,1,2025-02-26_12h51.25.071,comp,2024.2.4,57.923575147422355,2025-02-26 12h51.39.597634 -0500,
100,100,0,critical,wdh,35.0,3.0,upper,125.0,200.0,127.0,127.0,200.0,125.0,1,1.4373254776000977,None,,,,,0,0,0,0,0,100,100,75,217.5318946838379,,,,,,,,,,,,,,,,,,,,,,,,,,,,,,,,,,,,,,,,,,,,,,,,,,,,,,,,,,,,,,,,,,,,,,,,,,,,,,,,,125.0,200.0,127.0,127.0,200.0,125.0,3.0,3.1,-260,271,0,-14,222,-260,217.51761269569397,217.51768517494202,217.52066612243652,217.5318946838379,217.68574571609497,217.68574571609497,217.68574571609497,217.68574571609497,217.68574571609497,217.68574571609497,217.68574571609497,218.9837508201599,1,1.4373254776000977,None,,,,,,,,,,,,,,,,,,127,1,2025-02-26_12h51.25.071,comp,2024.2.4,57.923575147422355,2025-02-26 12h51.39.597634 -0500,
101,101,0,critical,wdh,35.0,4.0,upper,125.0,200.0,127.0,127.0,200.0,125.0,3,1.249819278717041,None,,,,,0,0,0,0,0,101,101,77,218.9994707107544,,,,,,,,,,,,,,,,,,,,,,,,,,,,,,,,,,,,,,,,,,,,,,,,,,,,,,,,,,,,,,,,,,,,,,,,,,,,,,,,,125.0,200.0,127.0,127.0,200.0,125.0,4.0,4.1,-260,-272,0,-12,222,-285,218.98529815673828,218.98537302017212,218.9882938861847,218.9994707107544,219.15152835845947,219.15152835845947,219.15152835845947,219.15152835845947,219.15152835845947,219.15152835845947,219.15152835845947,220.2616205215454,3,1.249819278717041,None,,,,,,,,,,,,,,,,,,127,1,2025-02-26_12h51.25.071,comp,2024.2.4,57.923575147422355,2025-02-26 12h51.39.597634 -0500,
102,102,0,critical,dhw,20.0,4.0,lower,78.0,78.0,133.0,57.0,57.0,133.0,2,1.8755812644958496,None,,,,,0,0,0,0,0,102,102,58,220.27786302566528,,,,,,,,,,,,,,,,,,,,,,,,,,,,,,,,,,,,,,,,,,,,,,,,,,,,,,,,,,,,,,,,,,,,,,,,,,,,,,,,,78.0,78.0,133.0,57.0,57.0,133.0,4.0,4.2,-164,-17,0,-277,191,6,220.26322555541992,220.26329922676086,220.26648807525635,220.27786302566528,220.41790533065796,220.41790533065796,220.41790533065796,220.41790533065796,220.41790533065796,220.41790533065796,220.41790533065796,222.16792106628418,2,1.8755812644958496,None,,,,,,,,,,,,,,,,,,127,1,2025-02-26_12h51.25.071,comp,2024.2.4,57.923575147422355,2025-02-26 12h51.39.597634 -0500,
103,103,0,filler_random,None,None,None,None,None,None,None,None,None,None,1,1.3849060535430908,None,,,,,0,0,0,0,0,103,103,152,222.18434119224548,,,,,,,,,,,,,,,,,,,,,,,,,,,,,,,,,,,,,,,,,,,,,,,,,,,,,,,,,,,,,,,,,,,,,,,,,,,,,,,,,150.3395215959398,124.43617746241463,164.70527932061475,81.52137552824115,64.8369193840504,160.41976709219455,4.0,4.1,-199,-266,0,-20,217,-250,222.16949081420898,222.16956424713135,222.1726188659668,222.18434119224548,222.33652687072754,222.33652687072754,222.33652687072754,222.33652687072754,222.33652687072754,222.33652687072754,222.33652687072754,223.57379412651062,1,1.3849060535430908,None,,,,,,,,,,,,,,,,,,127,1,2025-02-26_12h51.25.071,comp,2024.2.4,57.923575147422355,2025-02-26 12h51.39.597634 -0500,
104,104,0,filler_square,None,None,None,None,None,None,None,None,None,None,2,0.939265251159668,None,,,,,0,0,0,0,0,104,104,174,223.59005403518677,,,,,,,,,,,,,,,,,,,,,,,,,,,,,,,,,,,,,,,,,,,,,,,,,,,,,,,,,,,,,,,,,,,,,,,,,,,,,,,,,105.45596314585079,83.01369176459491,132.63336025970779,132.63336025970779,109.5141578200178,80.95013096120827,3.0,3.2,-204,-255,0,3,203,276,223.575532913208,223.57561111450195,223.5794289112091,223.59005403518677,223.735857963562,223.735857963562,223.735857963562,223.735857963562,223.735857963562,223.735857963562,223.735857963562,224.54296898841858,2,0.939265251159668,None,,,,,,,,,,,,,,,,,,127,1,2025-02-26_12h51.25.071,comp,2024.2.4,57.923575147422355,2025-02-26 12h51.39.597634 -0500,
105,105,0,filler_random,None,None,None,None,None,None,None,None,None,None,2,1.3475098609924316,None,,,,,0,0,0,0,0,105,105,166,224.55783081054688,,,,,,,,,,,,,,,,,,,,,,,,,,,,,,,,,,,,,,,,,,,,,,,,,,,,,,,,,,,,,,,,,,,,,,,,,,,,,,,,,186.3904363760887,106.606999804965,155.7916938097891,182.47345330558426,116.41007719816068,165.03624715373468,2.1,2.12,-241,-258,0,-263,270,261,224.544593334198,224.54466795921326,224.5475025177002,224.55783081054688,224.70527052879333,224.70527052879333,224.70527052879333,224.70527052879333,224.70527052879333,224.70527052879333,224.70527052879333,225.9172043800354,2,1.3475098609924316,None,,,,,,,,,,,,,,,,,,127,1,2025-02-26_12h51.25.071,comp,2024.2.4,57.923575147422355,2025-02-26 12h51.39.597634 -0500,
106,106,0,critical,hdw,20.0,2.1,lower,133.0,57.0,78.0,78.0,57.0,133.0,2,2.1316874027252197,None,,,,,0,0,0,0,0,106,106,46,225.93392992019653,,,,,,,,,,,,,,,,,,,,,,,,,,,,,,,,,,,,,,,,,,,,,,,,,,,,,,,,,,,,,,,,,,,,,,,,,,,,,,,,,133.0,57.0,78.0,78.0,57.0,133.0,2.1,2.12,-164,-251,0,-277,202,280,225.91875505447388,225.91886043548584,225.92211747169495,225.93392992019653,226.06936120986938,226.06936120986938,226.06936120986938,226.06936120986938,226.06936120986938,226.06936120986938,226.06936120986938,228.0713427066803,2,2.1316874027252197,None,,,,,,,,,,,,,,,,,,127,1,2025-02-26_12h51.25.071,comp,2024.2.4,57.923575147422355,2025-02-26 12h51.39.597634 -0500,
107,107,0,critical,whd,35.0,2.1,upper,125.0,200.0,200.0,125.0,127.0,127.0,2,0.9704217910766602,None,,,,,0,0,0,0,0,107,107,13,228.08689904212952,,,,,,,,,,,,,,,,,,,,,,,,,,,,,,,,,,,,,,,,,,,,,,,,,,,,,,,,,,,,,,,,,,,,,,,,,,,,,,,,,125.0,200.0,200.0,125.0,127.0,127.0,2.1,2.11,-258,281,0,273,222,-253,228.07282328605652,228.07290077209473,228.07620096206665,228.08689904212952,228.23327922821045,228.23327922821045,228.23327922821045,228.23327922821045,228.23327922821045,228.23327922821045,228.23327922821045,229.07379484176636,2,0.9704217910766602,None,,,,,,,,,,,,,,,,,,127,1,2025-02-26_12h51.25.071,comp,2024.2.4,57.923575147422355,2025-02-26 12h51.39.597634 -0500,
108,108,0,catch,None,None,None,None,None,None,None,None,None,None,1,0.9963223934173584,None,,,,,0,0,0,0,0,108,108,126,229.09308385849,,,,,,,,,,,,,,,,,,,,,,,,,,,,,,,,,,,,,,,,,,,,,,,,,,,,,,,,,,,,,,,,,,,,,,,,,,,,,,,,,153,172,104,86,123,67,2.1,2.12,-225,-274,0,-287,172,272,229.07606077194214,229.0761377811432,229.07945346832275,229.09308385849,229.23785877227783,229.23785877227783,229.23785877227783,229.23785877227783,229.23785877227783,229.23785877227783,229.23785877227783,230.1045639514923,1,0.9963223934173584,None,,,,,,,,,,,,,,,,,,127,1,2025-02-26_12h51.25.071,comp,2024.2.4,57.923575147422355,2025-02-26 12h51.39.597634 -0500,
109,109,0,filler_random,None,None,None,None,None,None,None,None,None,None,2,0.7942681312561035,None,,,,,0,0,0,0,0,109,109,136,230.12091755867004,,,,,,,,,,,,,,,,,,,,,,,,,,,,,,,,,,,,,,,,,,,,,,,,,,,,,,,,,,,,,,,,,,,,,,,,,,,,,,,,,180.33214624553278,145.3189944916442,182.23336323237947,162.32994300054258,130.73721205010864,176.11204414447207,2.1,2.11,-250,251,0,256,265,-289,230.10624051094055,230.10631442070007,230.1103253364563,230.12091755867004,230.27205967903137,230.27205967903137,230.27205967903137,230.27205967903137,230.27205967903137,230.27205967903137,230.27205967903137,230.91973900794983,2,0.7942681312561035,None,,,,,,,,,,,,,,,,,,127,1,2025-02-26_12h51.25.071,comp,2024.2.4,57.923575147422355,2025-02-26 12h51.39.597634 -0500,
110,110,0,critical,hwd,35.0,1.0,upper,200.0,125.0,125.0,200.0,127.0,127.0,1,1.601759910583496,None,,,,,0,0,0,0,0,110,110,97,230.93587851524353,,,,,,,,,,,,,,,,,,,,,,,,,,,,,,,,,,,,,,,,,,,,,,,,,,,,,,,,,,,,,,,,,,,,,,,,,,,,,,,,,200.0,125.0,125.0,200.0,127.0,127.0,1.0,1.1,-738,273,-480,251,-220,251,230.92126727104187,230.92134308815002,230.92415618896484,230.93587851524353,231.09100651741028,231.09100651741028,231.09100651741028,231.09100651741028,231.09100651741028,231.09100651741028,231.09100651741028,232.54333639144897,1,1.601759910583496,None,,,,,,,,,,,,,,,,,,127,1,2025-02-26_12h51.25.071,comp,2024.2.4,57.923575147422355,2025-02-26 12h51.39.597634 -0500,
111,111,0,filler_square,None,None,None,None,None,None,None,None,None,None,3,1.8109354972839355,None,,,,,0,0,0,0,0,111,111,203,232.55886435508728,,,,,,,,,,,,,,,,,,,,,,,,,,,,,,,,,,,,,,,,,,,,,,,,,,,,,,,,,,,,,,,,,,,,,,,,,,,,,,,,,58.5040384483199,62.23713919810887,63.35649871146536,58.373007203583406,64.0768725128114,64.0768725128114,2.1,2.12,-156,-253,0,-288,157,259,232.54512906074524,232.54520654678345,232.5481231212616,232.55886435508728,232.70618104934692,232.70618104934692,232.70618104934692,232.70618104934692,232.70618104934692,232.70618104934692,232.70618104934692,234.3883535861969,3,1.8109354972839355,None,,,,,,,,,,,,,,,,,,127,1,2025-02-26_12h51.25.071,comp,2024.2.4,57.923575147422355,2025-02-26 12h51.39.597634 -0500,
112,112,0,filler_square,None,None,None,None,None,None,None,None,None,None,1,1.3397243022918701,None,,,,,0,0,0,0,0,112,112,178,234.40630626678467,,,,,,,,,,,,,,,,,,,,,,,,,,,,,,,,,,,,,,,,,,,,,,,,,,,,,,,,,,,,,,,,,,,,,,,,,,,,,,,,,106.55046707917569,106.55046707917569,85.95944669346837,95.10006841344504,97.13524559982775,97.99997731784799,2.1,2.11,-197,272,0,265,193,-280,234.39024591445923,234.39036321640015,234.39354276657104,234.40630626678467,234.54086589813232,234.54086589813232,234.54086589813232,234.54086589813232,234.54086589813232,234.54086589813232,234.54086589813232,235.75633192062378,1,1.3397243022918701,None,,,,,,,,,,,,,,,,,,127,1,2025-02-26_12h51.25.071,comp,2024.2.4,57.923575147422355,2025-02-26 12h51.39.597634 -0500,
113,113,0,critical,hwd,20.0,2.1,lower,133.0,57.0,57.0,133.0,78.0,78.0,2,2.0132546424865723,None,,,,,0,0,0,0,0,113,113,42,235.77257442474365,,,,,,,,,,,,,,,,,,,,,,,,,,,,,,,,,,,,,,,,,,,,,,,,,,,,,,,,,,,,,,,,,,,,,,,,,,,,,,,,,133.0,57.0,57.0,133.0,78.0,78.0,2.1,2.11,-191,270,0,255,202,-262,235.7579379081726,235.75803875923157,235.76148056983948,235.77257442474365,235.91964983940125,235.91964983940125,235.91964983940125,235.91964983940125,235.91964983940125,235.91964983940125,235.91964983940125,237.79610776901245,2,2.0132546424865723,None,,,,,,,,,,,,,,,,,,127,1,2025-02-26_12h51.25.071,comp,2024.2.4,57.923575147422355,2025-02-26 12h51.39.597634 -0500,
114,114,0,critical,hdw,20.0,1.0,lower,133.0,57.0,78.0,78.0,57.0,133.0,2,1.5813636779785156,None,,,,,0,0,0,0,0,114,114,114,237.8118999004364,,,,,,,,,,,,,,,,,,,,,,,,,,,,,,,,,,,,,,,,,,,,,,,,,,,,,,,,,,,,,,,,,,,,,,,,,,,,,,,,,133.0,57.0,78.0,78.0,57.0,133.0,1.0,1.1,-644,289,-480,269,-278,285,237.79764652252197,237.79772520065308,237.80097556114197,237.8118999004364,237.9572606086731,237.9572606086731,237.9572606086731,237.9572606086731,237.9572606086731,237.9572606086731,237.9572606086731,239.4095311164856,2,1.5813636779785156,None,,,,,,,,,,,,,,,,,,127,1,2025-02-26_12h51.25.071,comp,2024.2.4,57.923575147422355,2025-02-26 12h51.39.597634 -0500,
115,115,0,critical,hdw,20.0,3.0,lower,133.0,57.0,78.0,78.0,57.0,133.0,3,1.5982959270477295,None,,,,,0,0,0,0,0,115,115,116,239.42692971229553,,,,,,,,,,,,,,,,,,,,,,,,,,,,,,,,,,,,,,,,,,,,,,,,,,,,,,,,,,,,,,,,,,,,,,,,,,,,,,,,,133.0,57.0,78.0,78.0,57.0,133.0,3.0,3.1,-164,276,0,-14,202,-290,239.41116547584534,239.41123962402344,239.41423773765564,239.42692971229553,239.57398462295532,239.57398462295532,239.57398462295532,239.57398462295532,239.57398462295532,239.57398462295532,239.57398462295532,241.03939485549927,3,1.5982959270477295,None,,,,,,,,,,,,,,,,,,127,1,2025-02-26_12h51.25.071,comp,2024.2.4,57.923575147422355,2025-02-26 12h51.39.597634 -0500,
116,116,0,critical,whd,20.0,2.1,upper,125.0,200.0,200.0,125.0,141.0,141.0,1,1.6856591701507568,None,,,,,0,0,0,0,0,116,116,15,241.05965304374695,,,,,,,,,,,,,,,,,,,,,,,,,,,,,,,,,,,,,,,,,,,,,,,,,,,,,,,,,,,,,,,,,,,,,,,,,,,,,,,,,125.0,200.0,200.0,125.0,141.0,141.0,2.1,2.11,-258,270,0,286,229,-251,241.0408923625946,241.04096841812134,241.04372668266296,241.05965304374695,241.1922686100006,241.1922686100006,241.1922686100006,241.1922686100006,241.1922686100006,241.1922686100006,241.1922686100006,242.75955605506897,1,1.6856591701507568,None,,,,,,,,,,,,,,,,,,127,1,2025-02-26_12h51.25.071,comp,2024.2.4,57.923575147422355,2025-02-26 12h51.39.597634 -0500,
117,117,0,critical,wdh,35.0,3.0,lower,57.0,133.0,70.0,70.0,133.0,57.0,3,1.3629100322723389,None,,,,,0,0,0,0,0,117,117,74,242.77488017082214,,,,,,,,,,,,,,,,,,,,,,,,,,,,,,,,,,,,,,,,,,,,,,,,,,,,,,,,,,,,,,,,,,,,,,,,,,,,,,,,,57.0,133.0,70.0,70.0,133.0,57.0,3.0,3.1,-198,273,0,15,160,-253,242.76102471351624,242.76109743118286,242.76428413391113,242.77488017082214,242.9238829612732,242.9238829612732,242.9238829612732,242.9238829612732,242.9238829612732,242.9238829612732,242.9238829612732,244.15789198875427,3,1.3629100322723389,None,,,,,,,,,,,,,,,,,,127,1,2025-02-26_12h51.25.071,comp,2024.2.4,57.923575147422355,2025-02-26 12h51.39.597634 -0500,
118,118,0,catch,None,None,None,None,None,None,None,None,None,None,2,0.9335968494415283,None,,,,,0,0,0,0,0,118,118,120,244.17201352119446,,,,,,,,,,,,,,,,,,,,,,,,,,,,,,,,,,,,,,,,,,,,,,,,,,,,,,,,,,,,,,,,,,,,,,,,,,,,,,,,,108,82,182,143,70,120,1.0,1.3,272,-266,480,-263,708,-258,244.1598207950592,244.15989780426025,244.16313815116882,244.17201352119446,244.32843494415283,244.32843494415283,244.32843494415283,244.32843494415283,244.32843494415283,244.32843494415283,244.32843494415283,245.10820317268372,2,0.9335968494415283,None,,,,,,,,,,,,,,,,,,127,1,2025-02-26_12h51.25.071,comp,2024.2.4,57.923575147422355,2025-02-26 12h51.39.597634 -0500,
119,119,0,filler_square,None,None,None,None,None,None,None,None,None,None,1,0.8465039730072021,None,,,,,0,0,0,0,0,119,119,196,245.1248815059662,,,,,,,,,,,,,,,,,,,,,,,,,,,,,,,,,,,,,,,,,,,,,,,,,,,,,,,,,,,,,,,,,,,,,,,,,,,,,,,,,197.77710841218558,197.77710841218558,82.56456314862453,69.35250142067456,102.75676331087647,94.91928843480054,1.0,1.3,250,-280,480,-251,658,-278,245.1100618839264,245.1101381778717,245.113440990448,245.1248815059662,245.2743217945099,245.2743217945099,245.2743217945099,245.2743217945099,245.2743217945099,245.2743217945099,245.2743217945099,245.97519493103027,1,0.8465039730072021,None,,,,,,,,,,,,,,,,,,127,1,2025-02-26_12h51.25.071,comp,2024.2.4,57.923575147422355,2025-02-26 12h51.39.597634 -0500,
120,120,0,critical,hdw,20.0,3.0,upper,200.0,125.0,141.0,141.0,125.0,200.0,1,1.4148452281951904,None,,,,,0,0,0,0,0,120,120,117,245.99479699134827,,,,,,,,,,,,,,,,,,,,,,,,,,,,,,,,,,,,,,,,,,,,,,,,,,,,,,,,,,,,,,,,,,,,,,,,,,,,,,,,,200.0,125.0,141.0,141.0,125.0,200.0,3.0,3.1,-229,286,0,17,266,-261,245.97663474082947,245.97671031951904,245.97983598709106,245.99479699134827,246.14997005462646,246.14997005462646,246.14997005462646,246.14997005462646,246.14997005462646,246.14997005462646,246.14997005462646,247.41312980651855,1,1.4148452281951904,None,,,,,,,,,,,,,,,,,,127,1,2025-02-26_12h51.25.071,comp,2024.2.4,57.923575147422355,2025-02-26 12h51.39.597634 -0500,
121,121,0,filler_random,None,None,None,None,None,None,None,None,None,None,1,0.9853489398956299,None,,,,,0,0,0,0,0,121,121,161,247.43187308311462,,,,,,,,,,,,,,,,,,,,,,,,,,,,,,,,,,,,,,,,,,,,,,,,,,,,,,,,,,,,,,,,,,,,,,,,,,,,,,,,,186.25379169961252,161.7212653387969,136.62259408256824,84.77532905007254,185.19956587450184,61.503690389960056,1.0,1.1,-699,252,-480,273,-311,265,247.4148736000061,247.41494941711426,247.41784834861755,247.43187308311462,247.57703232765198,247.57703232765198,247.57703232765198,247.57703232765198,247.57703232765198,247.57703232765198,247.57703232765198,248.43334984779358,1,0.9853489398956299,None,,,,,,,,,,,,,,,,,,127,1,2025-02-26_12h51.25.071,comp,2024.2.4,57.923575147422355,2025-02-26 12h51.39.597634 -0500,
122,122,0,critical,wdh,20.0,2.1,lower,57.0,133.0,78.0,78.0,133.0,57.0,3,2.5743815898895264,None,,,,,0,0,0,0,0,122,122,34,248.4508855342865,,,,,,,,,,,,,,,,,,,,,,,,,,,,,,,,,,,,,,,,,,,,,,,,,,,,,,,,,,,,,,,,,,,,,,,,,,,,,,,,,57.0,133.0,78.0,78.0,133.0,57.0,2.1,2.12,-202,-264,0,-278,164,256,248.43496084213257,248.4350335597992,248.43823909759521,248.4508855342865,248.60172271728516,248.60172271728516,248.60172271728516,248.60172271728516,248.60172271728516,248.60172271728516,248.60172271728516,251.0281479358673,3,2.5743815898895264,None,,,,,,,,,,,,,,,,,,127,1,2025-02-26_12h51.25.071,comp,2024.2.4,57.923575147422355,2025-02-26 12h51.39.597634 -0500,
123,123,0,critical,dhw,35.0,3.0,lower,70.0,70.0,133.0,57.0,57.0,133.0,2,2.445521354675293,None,,,,,0,0,0,0,0,123,123,50,251.0443811416626,,,,,,,,,,,,,,,,,,,,,,,,,,,,,,,,,,,,,,,,,,,,,,,,,,,,,,,,,,,,,,,,,,,,,,,,,,,,,,,,,70.0,70.0,133.0,57.0,57.0,133.0,3.0,3.2,-160,-281,0,19,191,280,251.02959775924683,251.02967309951782,251.0336515903473,251.0443811416626,251.19959568977356,251.19959568977356,251.19959568977356,251.19959568977356,251.19959568977356,251.19959568977356,251.19959568977356,253.4931013584137,2,2.445521354675293,None,,,,,,,,,,,,,,,,,,127,1,2025-02-26_12h51.25.071,comp,2024.2.4,57.923575147422355,2025-02-26 12h51.39.597634 -0500,
124,124,0,filler_random,None,None,None,None,None,None,None,None,None,None,2,0.7913336753845215,None,,,,,0,0,0,0,0,124,124,134,253.51435375213623,,,,,,,,,,,,,,,,,,,,,,,,,,,,,,,,,,,,,,,,,,,,,,,,,,,,,,,,,,,,,,,,,,,,,,,,,,,,,,,,,82.58768960792472,98.24441545532622,199.9666165781855,149.54375910840207,95.88479113184454,188.19759214703393,1.0,1.1,-700,250,-480,253,-215,289,253.4946494102478,253.49472308158875,253.49764156341553,253.51435375213623,253.6658420562744,253.6658420562744,253.6658420562744,253.6658420562744,253.6658420562744,253.6658420562744,253.6658420562744,254.313157081604,2,0.7913336753845215,None,,,,,,,,,,,,,,,,,,127,1,2025-02-26_12h51.25.071,comp,2024.2.4,57.923575147422355,2025-02-26 12h51.39.597634 -0500,
125,125,0,critical,dhw,20.0,2.1,upper,141.0,141.0,200.0,125.0,125.0,200.0,3,1.9134433269500732,None,,,,,0,0,0,0,0,125,125,27,254.3284718990326,,,,,,,,,,,,,,,,,,,,,,,,,,,,,,,,,,,,,,,,,,,,,,,,,,,,,,,,,,,,,,,,,,,,,,,,,,,,,,,,,141.0,141.0,200.0,125.0,125.0,200.0,2.1,2.12,-229,-255,0,-271,258,271,254.3146104812622,254.3146858215332,254.3179371356964,254.3284718990326,254.47675156593323,254.47675156593323,254.47675156593323,254.47675156593323,254.47675156593323,254.47675156593323,254.47675156593323,256.2488796710968,3,1.9134433269500732,None,,,,,,,,,,,,,,,,,,127,1,2025-02-26_12h51.25.071,comp,2024.2.4,57.923575147422355,2025-02-26 12h51.39.597634 -0500,
126,126,0,filler_random,None,None,None,None,None,None,None,None,None,None,1,1.1810920238494873,None,,,,,0,0,0,0,0,126,126,150,256.26834297180176,,,,,,,,,,,,,,,,,,,,,,,,,,,,,,,,,,,,,,,,,,,,,,,,,,,,,,,,,,,,,,,,,,,,,,,,,,,,,,,,,186.97446018233134,167.17857343514447,164.96028659956195,166.0848909439443,105.48785584660601,111.28544985830206,2.1,2.11,-263,282,0,270,235,-283,256.2507076263428,256.2508523464203,256.2541298866272,256.26834297180176,256.41112518310547,256.41112518310547,256.41112518310547,256.41112518310547,256.41112518310547,256.41112518310547,256.41112518310547,257.4652864933014,1,1.1810920238494873,None,,,,,,,,,,,,,,,,,,127,1,2025-02-26_12h51.25.071,comp,2024.2.4,57.923575147422355,2025-02-26 12h51.39.597634 -0500,
127,127,0,critical,dwh,35.0,1.0,upper,127.0,127.0,125.0,200.0,200.0,125.0,2,1.1689321994781494,None,,,,,0,0,0,0,0,127,127,61,257.48050928115845,,,,,,,,,,,,,,,,,,,,,,,,,,,,,,,,,,,,,,,,,,,,,,,,,,,,,,,,,,,,,,,,,,,,,,,,,,,,,,,,,127.0,127.0,125.0,200.0,200.0,125.0,1.0,1.2,-260,6,0,0,258,-11,257.4668869972229,257.4669625759125,257.4701898097992,257.48050928115845,257.6283507347107,257.6283507347107,257.6283507347107,257.6283507347107,257.6283507347107,257.6283507347107,257.6283507347107,258.66363620758057,2,1.1689321994781494,None,,,,,,,,,,,,,,,,,,127,1,2025-02-26_12h51.25.071,comp,2024.2.4,57.923575147422355,2025-02-26 12h51.39.597634 -0500,
128,128,0,critical,whd,20.0,4.0,upper,125.0,200.0,200.0,125.0,141.0,141.0,1,1.6661760807037354,None,,,,,0,0,0,0,0,128,128,95,258.67916083335876,,,,,,,,,,,,,,,,,,,,,,,,,,,,,,,,,,,,,,,,,,,,,,,,,,,,,,,,,,,,,,,,,,,,,,,,,,,,,,,,,125.0,200.0,200.0,125.0,141.0,141.0,4.0,4.1,-258,-256,0,13,229,-279,258.665256023407,258.6653308868408,258.66880440711975,258.67916083335876,258.829870223999,258.829870223999,258.829870223999,258.829870223999,258.829870223999,258.829870223999,258.829870223999,260.36252093315125,1,1.6661760807037354,None,,,,,,,,,,,,,,,,,,127,1,2025-02-26_12h51.25.071,comp,2024.2.4,57.923575147422355,2025-02-26 12h51.39.597634 -0500,
129,129,0,critical,dhw,35.0,2.1,lower,70.0,70.0,133.0,57.0,57.0,133.0,2,1.6632821559906006,None,,,,,0,0,0,0,0,129,129,0,260.3780212402344,,,,,,,,,,,,,,,,,,,,,,,,,,,,,,,,,,,,,,,,,,,,,,,,,,,,,,,,,,,,,,,,,,,,,,,,,,,,,,,,,70.0,70.0,133.0,57.0,57.0,133.0,2.1,2.12,-160,-253,0,-277,191,268,260.3640396595001,260.364111661911,260.36692357063293,260.3780212402344,260.5265588760376,260.5265588760376,260.5265588760376,260.5265588760376,260.5265588760376,260.5265588760376,260.5265588760376,262.05482816696167,2,1.6632821559906006,None,,,,,,,,,,,,,,,,,,127,1,2025-02-26_12h51.25.071,comp,2024.2.4,57.923575147422355,2025-02-26 12h51.39.597634 -0500,
130,130,0,critical,dhw,35.0,2.1,lower,70.0,70.0,133.0,57.0,57.0,133.0,2,2.0567092895507812,None,,,,,0,0,0,0,0,130,130,24,262.072669506073,,,,,,,,,,,,,,,,,,,,,,,,,,,,,,,,,,,,,,,,,,,,,,,,,,,,,,,,,,,,,,,,,,,,,,,,,,,,,,,,,70.0,70.0,133.0,57.0,57.0,133.0,2.1,2.11,-160,273,0,272,191,-285,262.0563862323761,262.05646204948425,262.05965852737427,262.072669506073,262.2143397331238,262.2143397331238,262.2143397331238,262.2143397331238,262.2143397331238,262.2143397331238,262.2143397331238,264.13317108154297,2,2.0567092895507812,None,,,,,,,,,,,,,,,,,,127,1,2025-02-26_12h51.25.071,comp,2024.2.4,57.923575147422355,2025-02-26 12h51.39.597634 -0500,
131,131,0,filler_random,None,None,None,None,None,None,None,None,None,None,2,0.8961520195007324,None,,,,,0,0,0,0,0,131,131,144,264.1536109447479,,,,,,,,,,,,,,,,,,,,,,,,,,,,,,,,,,,,,,,,,,,,,,,,,,,,,,,,,,,,,,,,,,,,,,,,,,,,,,,,,79.6272559203606,193.6721508898799,193.7329869773605,163.86909536033582,167.22644110820715,101.57346781114347,4.0,4.2,-275,-17,0,-285,229,14,264.13473558425903,264.1348433494568,264.13773107528687,264.1536109447479,264.2972512245178,264.2972512245178,264.2972512245178,264.2972512245178,264.2972512245178,264.2972512245178,264.2972512245178,265.05655312538147,2,0.8961520195007324,None,,,,,,,,,,,,,,,,,,127,1,2025-02-26_12h51.25.071,comp,2024.2.4,57.923575147422355,2025-02-26 12h51.39.597634 -0500,
132,132,0,critical,wdh,20.0,4.0,upper,125.0,200.0,141.0,141.0,200.0,125.0,1,1.0959582328796387,None,,,,,0,0,0,0,0,132,132,83,265.0736861228943,,,,,,,,,,,,,,,,,,,,,,,,,,,,,,,,,,,,,,,,,,,,,,,,,,,,,,,,,,,,,,,,,,,,,,,,,,,,,,,,,125.0,200.0,141.0,141.0,200.0,125.0,4.0,4.2,-266,5,0,-266,229,3,265.05804085731506,265.058114528656,265.0609428882599,265.0736861228943,265.2166016101837,265.2166016101837,265.2166016101837,265.2166016101837,265.2166016101837,265.2166016101837,265.2166016101837,266.18472504615784,1,1.0959582328796387,None,,,,,,,,,,,,,,,,,,127,1,2025-02-26_12h51.25.071,comp,2024.2.4,57.923575147422355,2025-02-26 12h51.39.597634 -0500,
133,133,0,critical,hwd,35.0,3.0,upper,200.0,125.0,125.0,200.0,127.0,127.0,2,0.7690403461456299,None,,,,,0,0,0,0,0,133,133,99,266.2002577781677,,,,,,,,,,,,,,,,,,,,,,,,,,,,,,,,,,,,,,,,,,,,,,,,,,,,,,,,,,,,,,,,,,,,,,,,,,,,,,,,,200.0,125.0,125.0,200.0,127.0,127.0,3.0,3.2,-258,-256,0,-10,260,281,266.1864125728607,266.18650221824646,266.18994545936584,266.2002577781677,266.34854388237,266.34854388237,266.34854388237,266.34854388237,266.34854388237,266.34854388237,266.34854388237,266.9820873737335,2,0.7690403461456299,None,,,,,,,,,,,,,,,,,,127,1,2025-02-26_12h51.25.071,comp,2024.2.4,57.923575147422355,2025-02-26 12h51.39.597634 -0500,
134,134,0,critical,dwh,20.0,2.1,upper,141.0,141.0,125.0,200.0,200.0,125.0,2,1.5276134014129639,None,,,,,0,0,0,0,0,134,134,7,267.00165462493896,,,,,,,,,,,,,,,,,,,,,,,,,,,,,,,,,,,,,,,,,,,,,,,,,,,,,,,,,,,,,,,,,,,,,,,,,,,,,,,,,141.0,141.0,125.0,200.0,200.0,125.0,2.1,2.12,-266,-252,0,-255,258,265,266.9835796356201,266.9836518764496,266.9866900444031,267.00165462493896,267.1494998931885,267.1494998931885,267.1494998931885,267.1494998931885,267.1494998931885,267.1494998931885,267.1494998931885,268.5389184951782,2,1.5276134014129639,None,,,,,,,,,,,,,,,,,,127,1,2025-02-26_12h51.25.071,comp,2024.2.4,57.923575147422355,2025-02-26 12h51.39.597634 -0500,
135,135,0,critical,dhw,35.0,2.1,upper,127.0,127.0,200.0,125.0,125.0,200.0,3,1.958813190460205,None,,,,,0,0,0,0,0,135,135,1,268.5548086166382,,,,,,,,,,,,,,,,,,,,,,,,,,,,,,,,,,,,,,,,,,,,,,,,,,,,,,,,,,,,,,,,,,,,,,,,,,,,,,,,,127.0,127.0,200.0,125.0,125.0,200.0,2.1,2.11,-222,259,0,289,258,-265,268.54051423072815,268.5405926704407,268.5439305305481,268.5548086166382,268.70060682296753,268.70060682296753,268.70060682296753,268.70060682296753,268.70060682296753,268.70060682296753,268.70060682296753,270.5161786079407,3,1.958813190460205,None,,,,,,,,,,,,,,,,,,127,1,2025-02-26_12h51.25.071,comp,2024.2.4,57.923575147422355,2025-02-26 12h51.39.597634 -0500,
136,136,0,filler_square,None,None,None,None,None,None,None,None,None,None,2,0.889885425567627,None,,,,,0,0,0,0,0,136,136,180,270.5361297130585,,,,,,,,,,,,,,,,,,,,,,,,,,,,,,,,,,,,,,,,,,,,,,,,,,,,,,,,,,,,,,,,,,,,,,,,,,,,,,,,,137.6641772276305,113.52628169240867,138.1140448140315,138.1140448140315,65.79741130243954,70.57827113660045,1.0,1.1,-702,260,-480,273,-280,271,270.5179171562195,270.5179920196533,270.5210418701172,270.5361297130585,270.68683648109436,270.68683648109436,270.68683648109436,270.68683648109436,270.68683648109436,270.68683648109436,270.68683648109436,271.434157371521,2,0.889885425567627,None,,,,,,,,,,,,,,,,,,127,1,2025-02-26_12h51.25.071,comp,2024.2.4,57.923575147422355,2025-02-26 12h51.39.597634 -0500,
137,137,0,filler_square,None,None,None,None,None,None,None,None,None,None,1,1.0152406692504883,None,,,,,0,0,0,0,0,137,137,173,271.4506485462189,,,,,,,,,,,,,,,,,,,,,,,,,,,,,,,,,,,,,,,,,,,,,,,,,,,,,,,,,,,,,,,,,,,,,,,,,,,,,,,,,188.1876195985632,188.1876195985632,115.11562769032135,91.71560011922006,164.79090463825372,84.19656318584663,3.0,3.2,-236,-272,0,17,184,285,271.4359562397003,271.4360320568085,271.4400227069855,271.4506485462189,271.60132098197937,271.60132098197937,271.60132098197937,271.60132098197937,271.60132098197937,271.60132098197937,271.60132098197937,272.46797704696655,1,1.0152406692504883,None,,,,,,,,,,,,,,,,,,127,1,2025-02-26_12h51.25.071,comp,2024.2.4,57.923575147422355,2025-02-26 12h51.39.597634 -0500,
138,138,0,filler_random,None,None,None,None,None,None,None,None,None,None,1,0.9430544376373291,None,,,,,0,0,0,0,0,138,138,145,272.4829981327057,,,,,,,,,,,,,,,,,,,,,,,,,,,,,,,,,,,,,,,,,,,,,,,,,,,,,,,,,,,,,,,,,,,,,,,,,,,,,,,,,144.62539792915823,190.0480128977967,133.4883661050145,178.9439718111051,142.91896664675102,145.78758776636738,2.2,2.22,-280,273,0,-263,258,-256,272.4699146747589,272.4700047969818,272.47327423095703,272.4829981327057,272.62269616127014,272.62269616127014,272.62269616127014,272.62269616127014,272.62269616127014,272.62269616127014,272.62269616127014,273.433944940567,1,0.9430544376373291,None,,,,,,,,,,,,,,,,,,127,1,2025-02-26_12h51.25.071,comp,2024.2.4,57.923575147422355,2025-02-26 12h51.39.597634 -0500,
