thisN,thisTrialN,thisRepN,effect,order,distance,config,diag,h_1,w_1,h_2,w_2,h_3,w_3,rect_choice.keys,rect_choice.rt,rect_choice.duration,instructions_loop.thisRepN,instructions_loop.thisTrialN,instructions_loop.thisN,instructions_loop.thisIndex,blocks.thisRepN,blocks.thisTrialN,blocks.thisN,blocks.thisIndex,trials.thisRepN,trials.thisTrialN,trials.thisN,trials.thisIndex,thisRow.t,notes,consent.started,agree_button.started,decline_button.started,consent_img.started,mouse.started,consent.stopped,agree_button.numClicks,agree_button.timesOn,agree_button.timesOff,decline_button.numClicks,decline_button.timesOn,decline_button.timesOff,mouse.x,mouse.y,mouse.leftButton,mouse.midButton,mouse.rightButton,mouse.time,mouse.clicked_name,exp_params.started,exp_params.stopped,welcome.started,welcome_text.started,welcome.stopped,instructions_1.started,instructions_1_text_1.started,instructions_1_text_2.started,key_resp.started,instructions_1.stopped,instructions_loop.key_resp.keys,instructions_loop.key_resp.rt,instructions_loop.key_resp.duration,instructions_2.started,instructions_2_text_1.started,instructions_2_text_2.started,key_resp_2.started,instructions_2.stopped,instructions_loop.key_resp_2.keys,instructions_loop.key_resp_2.rt,instructions_loop.key_resp_2.duration,instructions_3.started,instructions_3_text_1.started,r1_instr3.started,r2_instr3.started,r3_instr3.started,r1_instr3_label.started,r2_instr3_label.started,r3_instr3_label.started,instructions_3_text_3.started,instructions_3_text_4.started,key_resp_3.started,instructions_3.stopped,instructions_loop.key_resp_3.keys,instructions_loop.key_resp_3.rt,instructions_loop.key_resp_3.duration,instructions_4.started,instructions_4_text_1.started,instructions_4_text_3.started,instructions_4_text_2.started,key_resp_4.started,instructions_4.stopped,instructions_loop.key_resp_4.keys,instructions_loop.key_resp_4.rt,instructions_loop.key_resp_4.duration,instructions_5.started,instructions_5_text_1.started,instructions_5_text_2.started,key_resp_5.started,instructions_5.stopped,instructions_loop.key_resp_5.keys,instructions_loop.key_resp_5.rt,instructions_loop.key_resp_5.duration,start_exp.started,start_exp_text.started,key_resp_6.started,start_exp.stopped,key_resp_6.keys,key_resp_6.rt,key_resp_6.duration,h_1_tmp,w_1_tmp,h_2_tmp,w_2_tmp,h_3_tmp,w_3_tmp,config_tmp,config_tmp_1,r_1_x,r_1_y,r_2_x,r_2_y,r_3_x,r_3_y,pre_trial.started,pre_trial.stopped,choice_trial.started,rect_choice.started,r_1.started,r_2.started,r_3.started,r_1_label.started,r_2_label.started,r_3_label.started,prompt.started,choice_trial.stopped,trials.rect_choice.keys,trials.rect_choice.rt,trials.rect_choice.duration,end_block.started,end_block_text.started,end_block.stopped,end.started,end_text.started,key_resp_7.started,end.stopped,key_resp_7.keys,key_resp_7.rt,key_resp_7.duration,debriefing.started,debrief_form.started,end_debrief.started,debriefing.stopped,end_debrief.keys,end_debrief.rt,end_debrief.duration,participant,computer,date,expName,psychopyVersion,frameRate,expStart,
,,,,,,,,,,,,,,,,,,,,,,,,,,,,,,,0.014560699462890625,0.03787398338317871,0.03787398338317871,0.03787398338317871,0.014325857162475586,7.59229040145874,1,[7.552029371261597],[7.552049398422241],0,,,[-55.0],[-525.0],[1],[0],[0],[7.577176809310913],['agree_button'],,,,,,,,,,,,,,,,,,,,,,,,,,,,,,,,,,,,,,,,,,,,,,,,,,,,,,,,,,,,,,,,,,,,,,,,,,,,,,,,,,,,,,,,,,,,,,,,,,,,,,,,,,,128,2,2025-02-26_12h52.23.528,comp,2024.2.4,57.81443105708382,2025-02-26 12h52.34.747213 -0500,
,,,,,,,,,,,,,,,,,,,,,,,,,,,,,,,,,,,,,,,,,,,,,,,,,,7.592758655548096,7.59281849861145,,,,,,,,,,,,,,,,,,,,,,,,,,,,,,,,,,,,,,,,,,,,,,,,,,,,,,,,,,,,,,,,,,,,,,,,,,,,,,,,,,,,,,,,,,,,,,,,,,,,,,,,,128,2,2025-02-26_12h52.23.528,comp,2024.2.4,57.81443105708382,2025-02-26 12h52.34.747213 -0500,
,,,,,,,,,,,,,,,,,,,,,,,,,,,,,,,,,,,,,,,,,,,,,,,,,,,,7.59286904335022,7.60838508605957,9.60231614112854,,,,,,,,,,,,,,,,,,,,,,,,,,,,,,,,,,,,,,,,,,,,,,,,,,,,,,,,,,,,,,,,,,,,,,,,,,,,,,,,,,,,,,,,,,,,,,,,,,,,,,128,2,2025-02-26_12h52.23.528,comp,2024.2.4,57.81443105708382,2025-02-26 12h52.34.747213 -0500,
0,0,0,,,,,,,,,,,,,,,0,0,0,0,,,,,,,,,9.62015676498413,,,,,,,,,,,,,,,,,,,,,,,,,,9.60328197479248,9.62015676498413,9.62015676498413,11.103380680084229,15.354713678359985,space,4.23100209236145,None,15.354855060577393,15.370874643325806,15.370874643325806,16.859638452529907,30.726487398147583,space,13.850150346755981,None,30.726633310317993,30.756056547164917,30.756056547164917,30.756056547164917,30.756056547164917,30.756056547164917,30.756056547164917,30.756056547164917,30.756056547164917,30.756056547164917,32.23001480102539,38.54011678695679,space,6.295814514160156,None,38.54029297828674,38.55876970291138,38.55876970291138,38.55876970291138,40.046091079711914,48.881014585494995,space,8.832114458084106,None,48.88116717338562,48.897016286849976,48.897016286849976,50.38221025466919,51.948954820632935,space,1.5515975952148438,None,51.94914984703064,51.96430969238281,51.96430969238281,52.983983278274536,space,1.0175583362579346,None,,,,,,,,,,,,,,,,,,,,,,,,,,,,,,,,,,,,,,,,,,,,,,,128,2,2025-02-26_12h52.23.528,comp,2024.2.4,57.81443105708382,2025-02-26 12h52.34.747213 -0500,
0,0,0,critical,wdh,20.0,2.1,upper,125.0,200.0,141.0,141.0,200.0,125.0,1,21.59283685684204,None,,,,,0,0,0,0,0,0,0,11,53.060980796813965,,,,,,,,,,,,,,,,,,,,,,,,,,,,,,,,,,,,,,,,,,,,,,,,,,,,,,,,,,,,,,,,,,,,,,,,,,,,,,,,,125.0,200.0,141.0,141.0,200.0,125.0,2.1,2.11,-266,270,0,279,229,-256,53.04379463195801,53.04383969306946,53.04566931724548,53.060980796813965,53.204105615615845,53.204105615615845,53.204105615615845,53.204105615615845,53.204105615615845,53.204105615615845,53.204105615615845,74.6573543548584,1,21.59283685684204,None,,,,,,,,,,,,,,,,,,128,2,2025-02-26_12h52.23.528,comp,2024.2.4,57.81443105708382,2025-02-26 12h52.34.747213 -0500,
1,1,0,critical,wdh,35.0,1.0,lower,57.0,133.0,70.0,70.0,133.0,57.0,1,8.012698888778687,None,,,,,0,0,0,0,0,1,1,72,74.6737413406372,,,,,,,,,,,,,,,,,,,,,,,,,,,,,,,,,,,,,,,,,,,,,,,,,,,,,,,,,,,,,,,,,,,,,,,,,,,,,,,,,57.0,133.0,70.0,70.0,133.0,57.0,1.0,1.2,-198,9,0,-5,160,-10,74.65888524055481,74.65896153450012,74.66299366950989,74.6737413406372,74.82386422157288,74.82386422157288,74.82386422157288,74.82386422157288,74.82386422157288,74.82386422157288,74.82386422157288,82.69589686393738,1,8.012698888778687,None,,,,,,,,,,,,,,,,,,128,2,2025-02-26_12h52.23.528,comp,2024.2.4,57.81443105708382,2025-02-26 12h52.34.747213 -0500,
2,2,0,catch,None,None,None,None,None,None,None,None,None,None,1,2.8038792610168457,None,,,,,0,0,0,0,0,2,2,128,82.71394395828247,,,,,,,,,,,,,,,,,,,,,,,,,,,,,,,,,,,,,,,,,,,,,,,,,,,,,,,,,,,,,,,,,,,,,,,,,,,,,,,,,194,131,59,131,104,86,4.0,4.1,-227,-272,0,-20,204,-282,82.69791913032532,82.69799947738647,82.70090627670288,82.71394395828247,82.86029100418091,82.86029100418091,82.86029100418091,82.86029100418091,82.86029100418091,82.86029100418091,82.86029100418091,85.52810788154602,1,2.8038792610168457,None,,,,,,,,,,,,,,,,,,128,2,2025-02-26_12h52.23.528,comp,2024.2.4,57.81443105708382,2025-02-26 12h52.34.747213 -0500,
3,3,0,critical,wdh,20.0,3.0,upper,125.0,200.0,141.0,141.0,200.0,125.0,1,4.438047409057617,None,,,,,0,0,0,0,0,3,3,81,85.54398465156555,,,,,,,,,,,,,,,,,,,,,,,,,,,,,,,,,,,,,,,,,,,,,,,,,,,,,,,,,,,,,,,,,,,,,,,,,,,,,,,,,125.0,200.0,141.0,141.0,200.0,125.0,3.0,3.2,-266,-258,0,10,229,286,85.52971649169922,85.52979469299316,85.53317356109619,85.54398465156555,85.70374536514282,85.70374536514282,85.70374536514282,85.70374536514282,85.70374536514282,85.70374536514282,85.70374536514282,89.99522566795349,1,4.438047409057617,None,,,,,,,,,,,,,,,,,,128,2,2025-02-26_12h52.23.528,comp,2024.2.4,57.81443105708382,2025-02-26 12h52.34.747213 -0500,
4,4,0,filler_square,None,None,None,None,None,None,None,None,None,None,2,1.4985063076019287,None,,,,,0,0,0,0,0,4,4,200,90.0114974975586,,,,,,,,,,,,,,,,,,,,,,,,,,,,,,,,,,,,,,,,,,,,,,,,,,,,,,,,,,,,,,,,,,,,,,,,,,,,,,,,,158.43505205357326,158.43505205357326,93.13014165802026,135.03264197282343,108.32335685684004,139.42569053676726,3.0,3.2,-243,-255,0,19,233,266,89.99726152420044,89.99734163284302,90.00076723098755,90.0114974975586,90.16002583503723,90.16002583503723,90.16002583503723,90.16002583503723,90.16002583503723,90.16002583503723,90.16002583503723,91.51313829421997,2,1.4985063076019287,None,,,,,,,,,,,,,,,,,,128,2,2025-02-26_12h52.23.528,comp,2024.2.4,57.81443105708382,2025-02-26 12h52.34.747213 -0500,
5,5,0,critical,dwh,35.0,2.1,upper,127.0,127.0,125.0,200.0,200.0,125.0,1,0.012253046035766602,None,,,,,0,0,0,0,0,5,5,29,91.52956533432007,,,,,,,,,,,,,,,,,,,,,,,,,,,,,,,,,,,,,,,,,,,,,,,,,,,,,,,,,,,,,,,,,,,,,,,,,,,,,,,,,127.0,127.0,125.0,200.0,200.0,125.0,2.1,2.11,-260,288,0,284,258,-259,91.51472187042236,91.51479911804199,91.51806020736694,91.52956533432007,,,,,,,,91.5610077381134,1,0.012253046035766602,None,,,,,,,,,,,,,,,,,,128,2,2025-02-26_12h52.23.528,comp,2024.2.4,57.81443105708382,2025-02-26 12h52.34.747213 -0500,
6,6,0,filler_square,None,None,None,None,None,None,None,None,None,None,2,2.7122743129730225,None,,,,,0,0,0,0,0,6,6,204,91.58149909973145,,,,,,,,,,,,,,,,,,,,,,,,,,,,,,,,,,,,,,,,,,,,,,,,,,,,,,,,,,,,,,,,,,,,,,,,,,,,,,,,,174.13251288274535,138.0336194942643,188.1670141180312,188.1670141180312,154.90149697964355,163.09302380253706,2.1,2.11,-259,275,0,256,272,-284,91.56300091743469,91.56307530403137,91.5663583278656,91.58149909973145,91.7310061454773,91.7310061454773,91.7310061454773,91.7310061454773,91.7310061454773,91.7310061454773,91.7310061454773,94.29495477676392,2,2.7122743129730225,None,,,,,,,,,,,,,,,,,,128,2,2025-02-26_12h52.23.528,comp,2024.2.4,57.81443105708382,2025-02-26 12h52.34.747213 -0500,
7,7,0,critical,dwh,20.0,4.0,upper,141.0,141.0,125.0,200.0,200.0,125.0,2,1.9833388328552246,None,,,,,0,0,0,0,0,7,7,71,94.31090092658997,,,,,,,,,,,,,,,,,,,,,,,,,,,,,,,,,,,,,,,,,,,,,,,,,,,,,,,,,,,,,,,,,,,,,,,,,,,,,,,,,141.0,141.0,125.0,200.0,200.0,125.0,4.0,4.2,-266,-17,0,-254,258,-7,94.2956771850586,94.29571413993835,94.29710960388184,94.31090092658997,94.45974612236023,94.45974612236023,94.45974612236023,94.45974612236023,94.45974612236023,94.45974612236023,94.45974612236023,96.2962658405304,2,1.9833388328552246,None,,,,,,,,,,,,,,,,,,128,2,2025-02-26_12h52.23.528,comp,2024.2.4,57.81443105708382,2025-02-26 12h52.34.747213 -0500,
8,8,0,critical,hwd,35.0,3.0,lower,133.0,57.0,57.0,133.0,70.0,70.0,2,3.5414161682128906,None,,,,,0,0,0,0,0,8,8,98,96.31243586540222,,,,,,,,,,,,,,,,,,,,,,,,,,,,,,,,,,,,,,,,,,,,,,,,,,,,,,,,,,,,,,,,,,,,,,,,,,,,,,,,,133.0,57.0,57.0,133.0,70.0,70.0,3.0,3.2,-191,-257,0,4,198,277,96.29779028892517,96.2978663444519,96.30118703842163,96.31243586540222,96.46687054634094,96.46687054634094,96.46687054634094,96.46687054634094,96.46687054634094,96.46687054634094,96.46687054634094,99.86396074295044,2,3.5414161682128906,None,,,,,,,,,,,,,,,,,,128,2,2025-02-26_12h52.23.528,comp,2024.2.4,57.81443105708382,2025-02-26 12h52.34.747213 -0500,
9,9,0,critical,hdw,35.0,2.1,upper,200.0,125.0,127.0,127.0,125.0,200.0,1,2.818364381790161,None,,,,,0,0,0,0,0,9,9,21,99.88365530967712,,,,,,,,,,,,,,,,,,,,,,,,,,,,,,,,,,,,,,,,,,,,,,,,,,,,,,,,,,,,,,,,,,,,,,,,,,,,,,,,,200.0,125.0,127.0,127.0,125.0,200.0,2.1,2.11,-222,277,0,287,260,-251,99.86544299125671,99.86552047729492,99.8686294555664,99.88365530967712,100.0317029953003,100.0317029953003,100.0317029953003,100.0317029953003,100.0317029953003,100.0317029953003,100.0317029953003,102.715496301651,1,2.818364381790161,None,,,,,,,,,,,,,,,,,,128,2,2025-02-26_12h52.23.528,comp,2024.2.4,57.81443105708382,2025-02-26 12h52.34.747213 -0500,
10,10,0,filler_square,None,None,None,None,None,None,None,None,None,None,3,1.3691933155059814,None,,,,,0,0,0,0,0,10,10,187,102.73285055160522,,,,,,,,,,,,,,,,,,,,,,,,,,,,,,,,,,,,,,,,,,,,,,,,,,,,,,,,,,,,,,,,,,,,,,,,,,,,,,,,,70.20183426959548,73.70723894973305,64.8196169671906,64.19415462309043,90.30153328828436,90.30153328828436,2.2,2.22,-165,261,0,-286,173,-267,102.71748757362366,102.71756482124329,102.72090482711792,102.73285055160522,102.88347935676575,102.88347935676575,102.88347935676575,102.88347935676575,102.88347935676575,102.88347935676575,102.88347935676575,104.10443925857544,3,1.3691933155059814,None,,,,,,,,,,,,,,,,,,128,2,2025-02-26_12h52.23.528,comp,2024.2.4,57.81443105708382,2025-02-26 12h52.34.747213 -0500,
11,11,0,critical,dwh,35.0,4.0,lower,70.0,70.0,57.0,133.0,133.0,57.0,2,3.186784505844116,None,,,,,0,0,0,0,0,11,11,64,104.12444233894348,,,,,,,,,,,,,,,,,,,,,,,,,,,,,,,,,,,,,,,,,,,,,,,,,,,,,,,,,,,,,,,,,,,,,,,,,,,,,,,,,70.0,70.0,57.0,133.0,133.0,57.0,4.0,4.2,-198,-1,0,-260,191,-8,104.10596895217896,104.10604596138,104.1089437007904,104.12444233894348,104.26550841331482,104.26550841331482,104.26550841331482,104.26550841331482,104.26550841331482,104.26550841331482,104.26550841331482,107.31478333473206,2,3.186784505844116,None,,,,,,,,,,,,,,,,,,128,2,2025-02-26_12h52.23.528,comp,2024.2.4,57.81443105708382,2025-02-26 12h52.34.747213 -0500,
12,12,0,critical,whd,20.0,2.1,upper,125.0,200.0,200.0,125.0,141.0,141.0,1,4.851252555847168,None,,,,,0,0,0,0,0,12,12,39,107.33100366592407,,,,,,,,,,,,,,,,,,,,,,,,,,,,,,,,,,,,,,,,,,,,,,,,,,,,,,,,,,,,,,,,,,,,,,,,,,,,,,,,,125.0,200.0,200.0,125.0,141.0,141.0,2.1,2.12,-258,-272,0,-256,229,254,107.31634283065796,107.31642007827759,107.31925296783447,107.33100366592407,107.46943235397339,107.46943235397339,107.46943235397339,107.46943235397339,107.46943235397339,107.46943235397339,107.46943235397339,112.18830895423889,1,4.851252555847168,None,,,,,,,,,,,,,,,,,,128,2,2025-02-26_12h52.23.528,comp,2024.2.4,57.81443105708382,2025-02-26 12h52.34.747213 -0500,
13,13,0,critical,hwd,20.0,1.0,lower,133.0,57.0,57.0,133.0,78.0,78.0,2,7.175885915756226,None,,,,,0,0,0,0,0,13,13,102,112.20693635940552,,,,,,,,,,,,,,,,,,,,,,,,,,,,,,,,,,,,,,,,,,,,,,,,,,,,,,,,,,,,,,,,,,,,,,,,,,,,,,,,,133.0,57.0,57.0,133.0,78.0,78.0,1.0,1.2,-191,6,0,0,202,7,112.18990755081177,112.18999814987183,112.19342422485352,112.20693635940552,112.35238146781921,112.35238146781921,112.35238146781921,112.35238146781921,112.35238146781921,112.35238146781921,112.35238146781921,119.38927412033081,2,7.175885915756226,None,,,,,,,,,,,,,,,,,,128,2,2025-02-26_12h52.23.528,comp,2024.2.4,57.81443105708382,2025-02-26 12h52.34.747213 -0500,
14,14,0,filler_random,None,None,None,None,None,None,None,None,None,None,2,1.280491590499878,None,,,,,0,0,0,0,0,14,14,161,119.40551948547363,,,,,,,,,,,,,,,,,,,,,,,,,,,,,,,,,,,,,,,,,,,,,,,,,,,,,,,,,,,,,,,,,,,,,,,,,,,,,,,,,196.2691763676775,80.58599711436631,182.71297945941342,170.7419426630661,75.34059455667685,176.33349326427498,2.2,2.22,-222,263,0,-251,270,-261,119.39097809791565,119.39109969139099,119.39439368247986,119.40551948547363,119.55573272705078,119.55573272705078,119.55573272705078,119.55573272705078,119.55573272705078,119.55573272705078,119.55573272705078,120.68800806999207,2,1.280491590499878,None,,,,,,,,,,,,,,,,,,128,2,2025-02-26_12h52.23.528,comp,2024.2.4,57.81443105708382,2025-02-26 12h52.34.747213 -0500,
15,15,0,filler_square,None,None,None,None,None,None,None,None,None,None,3,2.0600454807281494,None,,,,,0,0,0,0,0,15,15,184,120.70590019226074,,,,,,,,,,,,,,,,,,,,,,,,,,,,,,,,,,,,,,,,,,,,,,,,,,,,,,,,,,,,,,,,,,,,,,,,,,,,,,,,,95.45345178962177,127.40942730840068,106.10754268308665,76.24377432318016,164.1123098687899,164.1123098687899,1.0,1.3,282,-252,480,-283,696,-255,120.6898467540741,120.68992376327515,120.6929259300232,120.70590019226074,120.85364890098572,120.85364890098572,120.85364890098572,120.85364890098572,120.85364890098572,120.85364890098572,120.85364890098572,122.78090476989746,3,2.0600454807281494,None,,,,,,,,,,,,,,,,,,128,2,2025-02-26_12h52.23.528,comp,2024.2.4,57.81443105708382,2025-02-26 12h52.34.747213 -0500,
16,16,0,critical,hwd,20.0,4.0,upper,200.0,125.0,125.0,200.0,141.0,141.0,2,1.5295042991638184,None,,,,,0,0,0,0,0,16,16,107,122.79657030105591,,,,,,,,,,,,,,,,,,,,,,,,,,,,,,,,,,,,,,,,,,,,,,,,,,,,,,,,,,,,,,,,,,,,,,,,,,,,,,,,,200.0,125.0,125.0,200.0,141.0,141.0,4.0,4.2,-258,15,0,-259,266,-19,122.78249073028564,122.7825677394867,122.78545236587524,122.79657030105591,122.9373414516449,122.9373414516449,122.9373414516449,122.9373414516449,122.9373414516449,122.9373414516449,122.9373414516449,124.3396806716919,2,1.5295042991638184,None,,,,,,,,,,,,,,,,,,128,2,2025-02-26_12h52.23.528,comp,2024.2.4,57.81443105708382,2025-02-26 12h52.34.747213 -0500,
17,17,0,critical,dhw,35.0,2.1,upper,127.0,127.0,200.0,125.0,125.0,200.0,3,2.0819010734558105,None,,,,,0,0,0,0,0,17,17,25,124.35636043548584,,,,,,,,,,,,,,,,,,,,,,,,,,,,,,,,,,,,,,,,,,,,,,,,,,,,,,,,,,,,,,,,,,,,,,,,,,,,,,,,,127.0,127.0,200.0,125.0,125.0,200.0,2.1,2.11,-222,265,0,266,258,-267,124.34117126464844,124.3412709236145,124.34528803825378,124.35636043548584,124.49367713928223,124.49367713928223,124.49367713928223,124.49367713928223,124.49367713928223,124.49367713928223,124.49367713928223,126.44044494628906,3,2.0819010734558105,None,,,,,,,,,,,,,,,,,,128,2,2025-02-26_12h52.23.528,comp,2024.2.4,57.81443105708382,2025-02-26 12h52.34.747213 -0500,
18,18,0,filler_random,None,None,None,None,None,None,None,None,None,None,2,1.7476918697357178,None,,,,,0,0,0,0,0,18,18,164,126.45821642875671,,,,,,,,,,,,,,,,,,,,,,,,,,,,,,,,,,,,,,,,,,,,,,,,,,,,,,,,,,,,,,,,,,,,,,,,,,,,,,,,,109.18152002318993,147.46688406878368,189.03614185615086,146.2481347095926,151.85533903940387,170.58246925803826,1.0,1.2,-243,13,0,7,254,-9,126.4420440196991,126.44212007522583,126.445232629776,126.45821642875671,126.6059422492981,126.6059422492981,126.6059422492981,126.6059422492981,126.6059422492981,126.6059422492981,126.6059422492981,128.21023297309875,2,1.7476918697357178,None,,,,,,,,,,,,,,,,,,128,2,2025-02-26_12h52.23.528,comp,2024.2.4,57.81443105708382,2025-02-26 12h52.34.747213 -0500,
19,19,0,critical,hwd,35.0,1.0,upper,200.0,125.0,125.0,200.0,127.0,127.0,1,2.5480353832244873,None,,,,,0,0,0,0,0,19,19,97,128.22622227668762,,,,,,,,,,,,,,,,,,,,,,,,,,,,,,,,,,,,,,,,,,,,,,,,,,,,,,,,,,,,,,,,,,,,,,,,,,,,,,,,,200.0,125.0,125.0,200.0,127.0,127.0,1.0,1.1,-738,289,-480,270,-220,287,128.2118501663208,128.21196174621582,128.21541786193848,128.22622227668762,128.3739914894104,128.3739914894104,128.3739914894104,128.3739914894104,128.3739914894104,128.3739914894104,128.3739914894104,130.7840735912323,1,2.5480353832244873,None,,,,,,,,,,,,,,,,,,128,2,2025-02-26_12h52.23.528,comp,2024.2.4,57.81443105708382,2025-02-26 12h52.34.747213 -0500,
20,20,0,filler_random,None,None,None,None,None,None,None,None,None,None,1,1.3021643161773682,None,,,,,0,0,0,0,0,20,20,160,130.8002429008484,,,,,,,,,,,,,,,,,,,,,,,,,,,,,,,,,,,,,,,,,,,,,,,,,,,,,,,,,,,,,,,,,,,,,,,,,,,,,,,,,159.53100431291801,171.76335647505135,188.9101403718827,61.7464664149468,174.80099038981916,103.75344921269966,2.1,2.11,-213,271,0,254,179,-263,130.78584671020508,130.78597903251648,130.78921747207642,130.8002429008484,130.9382679462433,130.9382679462433,130.9382679462433,130.9382679462433,130.9382679462433,130.9382679462433,130.9382679462433,132.10737943649292,1,1.3021643161773682,None,,,,,,,,,,,,,,,,,,128,2,2025-02-26_12h52.23.528,comp,2024.2.4,57.81443105708382,2025-02-26 12h52.34.747213 -0500,
21,21,0,critical,whd,35.0,2.1,lower,57.0,133.0,133.0,57.0,70.0,70.0,2,1.9129045009613037,None,,,,,0,0,0,0,0,21,21,12,132.12561893463135,,,,,,,,,,,,,,,,,,,,,,,,,,,,,,,,,,,,,,,,,,,,,,,,,,,,,,,,,,,,,,,,,,,,,,,,,,,,,,,,,57.0,133.0,133.0,57.0,70.0,70.0,2.1,2.11,-191,263,0,254,160,-282,132.10905718803406,132.10913348197937,132.11217141151428,132.12561893463135,132.26213693618774,132.26213693618774,132.26213693618774,132.26213693618774,132.26213693618774,132.26213693618774,132.26213693618774,134.0456027984619,2,1.9129045009613037,None,,,,,,,,,,,,,,,,,,128,2,2025-02-26_12h52.23.528,comp,2024.2.4,57.81443105708382,2025-02-26 12h52.34.747213 -0500,
22,22,0,critical,hdw,20.0,4.0,lower,133.0,57.0,78.0,78.0,57.0,133.0,3,2.952578544616699,None,,,,,0,0,0,0,0,22,22,118,134.06136298179626,,,,,,,,,,,,,,,,,,,,,,,,,,,,,,,,,,,,,,,,,,,,,,,,,,,,,,,,,,,,,,,,,,,,,,,,,,,,,,,,,133.0,57.0,78.0,78.0,57.0,133.0,4.0,4.2,-164,-9,0,-281,202,-6,134.0472731590271,134.04735350608826,134.0507402420044,134.06136298179626,134.21598315238953,134.21598315238953,134.21598315238953,134.21598315238953,134.21598315238953,134.21598315238953,134.21598315238953,137.0291302204132,3,2.952578544616699,None,,,,,,,,,,,,,,,,,,128,2,2025-02-26_12h52.23.528,comp,2024.2.4,57.81443105708382,2025-02-26 12h52.34.747213 -0500,
23,23,0,critical,dhw,35.0,1.0,upper,127.0,127.0,200.0,125.0,125.0,200.0,2,6.057276964187622,None,,,,,0,0,0,0,0,23,23,49,137.04463481903076,,,,,,,,,,,,,,,,,,,,,,,,,,,,,,,,,,,,,,,,,,,,,,,,,,,,,,,,,,,,,,,,,,,,,,,,,,,,,,,,,127.0,127.0,200.0,125.0,125.0,200.0,1.0,1.2,-222,9,0,-13,258,-1,137.03079628944397,137.03087258338928,137.0343451499939,137.04463481903076,137.19347405433655,137.19347405433655,137.19347405433655,137.19347405433655,137.19347405433655,137.19347405433655,137.19347405433655,143.11181616783142,2,6.057276964187622,None,,,,,,,,,,,,,,,,,,128,2,2025-02-26_12h52.23.528,comp,2024.2.4,57.81443105708382,2025-02-26 12h52.34.747213 -0500,
24,24,0,critical,dhw,35.0,2.1,lower,70.0,70.0,133.0,57.0,57.0,133.0,3,2.2858221530914307,None,,,,,0,0,0,0,0,24,24,24,143.12810015678406,,,,,,,,,,,,,,,,,,,,,,,,,,,,,,,,,,,,,,,,,,,,,,,,,,,,,,,,,,,,,,,,,,,,,,,,,,,,,,,,,70.0,70.0,133.0,57.0,57.0,133.0,2.1,2.11,-160,252,0,255,191,-269,143.11334586143494,143.11342406272888,143.11643314361572,143.12810015678406,143.2807912826538,143.2807912826538,143.2807912826538,143.2807912826538,143.2807912826538,143.2807912826538,143.2807912826538,145.42910885810852,3,2.2858221530914307,None,,,,,,,,,,,,,,,,,,128,2,2025-02-26_12h52.23.528,comp,2024.2.4,57.81443105708382,2025-02-26 12h52.34.747213 -0500,
25,25,0,filler_square,None,None,None,None,None,None,None,None,None,None,2,1.0093042850494385,None,,,,,0,0,0,0,0,25,25,191,145.44471383094788,,,,,,,,,,,,,,,,,,,,,,,,,,,,,,,,,,,,,,,,,,,,,,,,,,,,,,,,,,,,,,,,,,,,,,,,,,,,,,,,,59.891327646766264,77.56985302726464,115.75460640212968,115.75460640212968,112.34627900218499,80.74321714023532,2.1,2.12,-193,-256,0,-290,194,262,145.4312093257904,145.43129873275757,145.4344663619995,145.44471383094788,145.5966386795044,145.5966386795044,145.5966386795044,145.5966386795044,145.5966386795044,145.5966386795044,145.5966386795044,146.46659064292908,2,1.0093042850494385,None,,,,,,,,,,,,,,,,,,128,2,2025-02-26_12h52.23.528,comp,2024.2.4,57.81443105708382,2025-02-26 12h52.34.747213 -0500,
26,26,0,filler_square,None,None,None,None,None,None,None,None,None,None,3,1.0161488056182861,None,,,,,0,0,0,0,0,26,26,205,146.4857828617096,,,,,,,,,,,,,,,,,,,,,,,,,,,,,,,,,,,,,,,,,,,,,,,,,,,,,,,,,,,,,,,,,,,,,,,,,,,,,,,,,86.44427525616284,76.19120117627443,111.11452701807741,83.30829208962868,135.78383802663967,135.78383802663967,3.0,3.1,-176,270,0,13,206,-251,146.46848893165588,146.46856307983398,146.47147822380066,146.4857828617096,146.62880325317383,146.62880325317383,146.62880325317383,146.62880325317383,146.62880325317383,146.62880325317383,146.62880325317383,147.5229949951172,3,1.0161488056182861,None,,,,,,,,,,,,,,,,,,128,2,2025-02-26_12h52.23.528,comp,2024.2.4,57.81443105708382,2025-02-26 12h52.34.747213 -0500,
27,27,0,critical,dwh,35.0,2.1,lower,70.0,70.0,57.0,133.0,133.0,57.0,2,1.2963957786560059,None,,,,,0,0,0,0,0,27,27,4,147.54145002365112,,,,,,,,,,,,,,,,,,,,,,,,,,,,,,,,,,,,,,,,,,,,,,,,,,,,,,,,,,,,,,,,,,,,,,,,,,,,,,,,,70.0,70.0,57.0,133.0,133.0,57.0,2.1,2.11,-198,276,0,270,191,-263,147.52459025382996,147.52466368675232,147.5275523662567,147.54145002365112,147.68234491348267,147.68234491348267,147.68234491348267,147.68234491348267,147.68234491348267,147.68234491348267,147.68234491348267,148.84793877601624,2,1.2963957786560059,None,,,,,,,,,,,,,,,,,,128,2,2025-02-26_12h52.23.528,comp,2024.2.4,57.81443105708382,2025-02-26 12h52.34.747213 -0500,
28,28,0,critical,hdw,20.0,1.0,upper,200.0,125.0,141.0,141.0,125.0,200.0,3,4.053643703460693,None,,,,,0,0,0,0,0,28,28,115,148.86425185203552,,,,,,,,,,,,,,,,,,,,,,,,,,,,,,,,,,,,,,,,,,,,,,,,,,,,,,,,,,,,,,,,,,,,,,,,,,,,,,,,,200.0,125.0,141.0,141.0,125.0,200.0,1.0,1.1,-709,284,-480,271,-214,251,148.84955859184265,148.84965133666992,148.85336542129517,148.86425185203552,149.01389718055725,149.01389718055725,149.01389718055725,149.01389718055725,149.01389718055725,149.01389718055725,149.01389718055725,152.93098187446594,3,4.053643703460693,None,,,,,,,,,,,,,,,,,,128,2,2025-02-26_12h52.23.528,comp,2024.2.4,57.81443105708382,2025-02-26 12h52.34.747213 -0500,
29,29,0,filler_random,None,None,None,None,None,None,None,None,None,None,3,1.323624610900879,None,,,,,0,0,0,0,0,29,29,168,152.94630241394043,,,,,,,,,,,,,,,,,,,,,,,,,,,,,,,,,,,,,,,,,,,,,,,,,,,,,,,,,,,,,,,,,,,,,,,,,,,,,,,,,147.98078493046006,85.13654368286716,159.61565785720464,84.72179248431429,159.69688332475937,126.7078657586732,4.0,4.2,-181,4,0,-266,202,8,152.93275022506714,152.93282771110535,152.93614721298218,152.94630241394043,153.0974726676941,153.0974726676941,153.0974726676941,153.0974726676941,153.0974726676941,153.0974726676941,153.0974726676941,154.2802984714508,3,1.323624610900879,None,,,,,,,,,,,,,,,,,,128,2,2025-02-26_12h52.23.528,comp,2024.2.4,57.81443105708382,2025-02-26 12h52.34.747213 -0500,
30,30,0,critical,wdh,20.0,4.0,upper,125.0,200.0,141.0,141.0,200.0,125.0,1,2.501500368118286,None,,,,,0,0,0,0,0,30,30,83,154.29645538330078,,,,,,,,,,,,,,,,,,,,,,,,,,,,,,,,,,,,,,,,,,,,,,,,,,,,,,,,,,,,,,,,,,,,,,,,,,,,,,,,,125.0,200.0,141.0,141.0,200.0,125.0,4.0,4.1,-266,-273,0,12,229,-259,154.28180027008057,154.2818763256073,154.28474950790405,154.29645538330078,154.4329423904419,154.4329423904419,154.4329423904419,154.4329423904419,154.4329423904419,154.4329423904419,154.4329423904419,156.80244040489197,1,2.501500368118286,None,,,,,,,,,,,,,,,,,,128,2,2025-02-26_12h52.23.528,comp,2024.2.4,57.81443105708382,2025-02-26 12h52.34.747213 -0500,
31,31,0,critical,dhw,20.0,4.0,upper,141.0,141.0,200.0,125.0,125.0,200.0,3,2.993501663208008,None,,,,,0,0,0,0,0,31,31,59,156.82123708724976,,,,,,,,,,,,,,,,,,,,,,,,,,,,,,,,,,,,,,,,,,,,,,,,,,,,,,,,,,,,,,,,,,,,,,,,,,,,,,,,,141.0,141.0,200.0,125.0,125.0,200.0,4.0,4.2,-229,-10,0,-288,258,13,156.80401611328125,156.80409407615662,156.80747175216675,156.82123708724976,156.9669268131256,156.9669268131256,156.9669268131256,156.9669268131256,156.9669268131256,156.9669268131256,156.9669268131256,159.8185315132141,3,2.993501663208008,None,,,,,,,,,,,,,,,,,,128,2,2025-02-26_12h52.23.528,comp,2024.2.4,57.81443105708382,2025-02-26 12h52.34.747213 -0500,
32,32,0,filler_square,None,None,None,None,None,None,None,None,None,None,3,1.0192339420318604,None,,,,,0,0,0,0,0,32,32,173,159.83492922782898,,,,,,,,,,,,,,,,,,,,,,,,,,,,,,,,,,,,,,,,,,,,,,,,,,,,,,,,,,,,,,,,,,,,,,,,,,,,,,,,,74.08764016728199,122.60002081671641,119.3105786510562,79.03964470539765,141.4434795872262,141.4434795872262,4.0,4.1,-197,-284,0,-6,206,-266,159.82052898406982,159.82060647010803,159.82408618927002,159.83492922782898,159.98728203773499,159.98728203773499,159.98728203773499,159.98728203773499,159.98728203773499,159.98728203773499,159.98728203773499,160.86755919456482,3,1.0192339420318604,None,,,,,,,,,,,,,,,,,,128,2,2025-02-26_12h52.23.528,comp,2024.2.4,57.81443105708382,2025-02-26 12h52.34.747213 -0500,
33,33,0,critical,wdh,20.0,3.0,lower,57.0,133.0,78.0,78.0,133.0,57.0,1,3.476351499557495,None,,,,,0,0,0,0,0,33,33,80,160.88311886787415,,,,,,,,,,,,,,,,,,,,,,,,,,,,,,,,,,,,,,,,,,,,,,,,,,,,,,,,,,,,,,,,,,,,,,,,,,,,,,,,,57.0,133.0,78.0,78.0,133.0,57.0,3.0,3.1,-202,277,0,14,164,-266,160.86915111541748,160.86928057670593,160.8727467060089,160.88311886787415,161.03133726119995,161.03133726119995,161.03133726119995,161.03133726119995,161.03133726119995,161.03133726119995,161.03133726119995,164.37058782577515,1,3.476351499557495,None,,,,,,,,,,,,,,,,,,128,2,2025-02-26_12h52.23.528,comp,2024.2.4,57.81443105708382,2025-02-26 12h52.34.747213 -0500,
34,34,0,filler_square,None,None,None,None,None,None,None,None,None,None,1,6.234893798828125,None,,,,,0,0,0,0,0,34,34,206,164.38714861869812,,,,,,,,,,,,,,,,,,,,,,,,,,,,,,,,,,,,,,,,,,,,,,,,,,,,,,,,,,,,,,,,,,,,,,,,,,,,,,,,,83.88074115147435,83.88074115147435,74.08737611354866,78.15223960449347,82.77304455459046,76.96780270573463,2.1,2.12,-177,-266,0,-286,174,269,164.37258291244507,164.37266159057617,164.37646746635437,164.38714861869812,164.52283024787903,164.52283024787903,164.52283024787903,164.52283024787903,164.52283024787903,164.52283024787903,164.52283024787903,170.63773369789124,1,6.234893798828125,None,,,,,,,,,,,,,,,,,,128,2,2025-02-26_12h52.23.528,comp,2024.2.4,57.81443105708382,2025-02-26 12h52.34.747213 -0500,
35,35,0,critical,whd,20.0,3.0,lower,57.0,133.0,133.0,57.0,78.0,78.0,3,2.6410093307495117,None,,,,,0,0,0,0,0,35,35,92,170.6531732082367,,,,,,,,,,,,,,,,,,,,,,,,,,,,,,,,,,,,,,,,,,,,,,,,,,,,,,,,,,,,,,,,,,,,,,,,,,,,,,,,,57.0,133.0,133.0,57.0,78.0,78.0,3.0,3.2,-191,-262,0,11,164,269,170.63932538032532,170.63942742347717,170.64286136627197,170.6531732082367,170.80368566513062,170.80368566513062,170.80368566513062,170.80368566513062,170.80368566513062,170.80368566513062,170.80368566513062,173.30354952812195,3,2.6410093307495117,None,,,,,,,,,,,,,,,,,,128,2,2025-02-26_12h52.23.528,comp,2024.2.4,57.81443105708382,2025-02-26 12h52.34.747213 -0500,
36,36,0,filler_random,None,None,None,None,None,None,None,None,None,None,2,2.494475841522217,None,,,,,0,0,0,0,0,36,36,143,173.32046580314636,,,,,,,,,,,,,,,,,,,,,,,,,,,,,,,,,,,,,,,,,,,,,,,,,,,,,,,,,,,,,,,,,,,,,,,,,,,,,,,,,97.63878501893049,130.92459343057428,140.01788424066083,82.19433700311797,97.07680447524478,90.19465623059529,2.1,2.11,-203,282,0,273,182,-260,173.30530714988708,173.30541443824768,173.30877256393433,173.32046580314636,173.47831463813782,173.47831463813782,173.47831463813782,173.47831463813782,173.47831463813782,173.47831463813782,173.47831463813782,175.8223955631256,2,2.494475841522217,None,,,,,,,,,,,,,,,,,,128,2,2025-02-26_12h52.23.528,comp,2024.2.4,57.81443105708382,2025-02-26 12h52.34.747213 -0500,
37,37,0,filler_square,None,None,None,None,None,None,None,None,None,None,3,1.0954294204711914,None,,,,,0,0,0,0,0,37,37,196,175.83895683288574,,,,,,,,,,,,,,,,,,,,,,,,,,,,,,,,,,,,,,,,,,,,,,,,,,,,,,,,,,,,,,,,,,,,,,,,,,,,,,,,,65.1589075729585,58.32985359895165,60.63386229342273,59.56426409974853,81.09971154370402,81.09971154370402,3.0,3.1,-155,254,0,-3,166,-255,175.82425165176392,175.82433009147644,175.82768201828003,175.83895683288574,175.9875967502594,175.9875967502594,175.9875967502594,175.9875967502594,175.9875967502594,175.9875967502594,175.9875967502594,176.9391553401947,3,1.0954294204711914,None,,,,,,,,,,,,,,,,,,128,2,2025-02-26_12h52.23.528,comp,2024.2.4,57.81443105708382,2025-02-26 12h52.34.747213 -0500,
38,38,0,critical,hdw,20.0,3.0,upper,200.0,125.0,141.0,141.0,125.0,200.0,3,2.827422618865967,None,,,,,0,0,0,0,0,38,38,117,176.95467734336853,,,,,,,,,,,,,,,,,,,,,,,,,,,,,,,,,,,,,,,,,,,,,,,,,,,,,,,,,,,,,,,,,,,,,,,,,,,,,,,,,200.0,125.0,141.0,141.0,125.0,200.0,3.0,3.2,-229,-279,0,15,266,278,176.94067692756653,176.9407558441162,176.9441065788269,176.95467734336853,177.10751938819885,177.10751938819885,177.10751938819885,177.10751938819885,177.10751938819885,177.10751938819885,177.10751938819885,179.7989523410797,3,2.827422618865967,None,,,,,,,,,,,,,,,,,,128,2,2025-02-26_12h52.23.528,comp,2024.2.4,57.81443105708382,2025-02-26 12h52.34.747213 -0500,
39,39,0,critical,dwh,35.0,2.1,lower,70.0,70.0,57.0,133.0,133.0,57.0,2,2.8552517890930176,None,,,,,0,0,0,0,0,39,39,28,179.81444764137268,,,,,,,,,,,,,,,,,,,,,,,,,,,,,,,,,,,,,,,,,,,,,,,,,,,,,,,,,,,,,,,,,,,,,,,,,,,,,,,,,70.0,70.0,57.0,133.0,133.0,57.0,2.1,2.11,-198,251,0,251,191,-260,179.80059027671814,179.80067825317383,179.80395889282227,179.81444764137268,179.95650243759155,179.95650243759155,179.95650243759155,179.95650243759155,179.95650243759155,179.95650243759155,179.95650243759155,182.67235398292542,2,2.8552517890930176,None,,,,,,,,,,,,,,,,,,128,2,2025-02-26_12h52.23.528,comp,2024.2.4,57.81443105708382,2025-02-26 12h52.34.747213 -0500,
40,40,0,critical,dwh,20.0,3.0,upper,141.0,141.0,125.0,200.0,200.0,125.0,2,2.892807722091675,None,,,,,0,0,0,0,0,40,40,69,182.6890983581543,,,,,,,,,,,,,,,,,,,,,,,,,,,,,,,,,,,,,,,,,,,,,,,,,,,,,,,,,,,,,,,,,,,,,,,,,,,,,,,,,141.0,141.0,125.0,200.0,200.0,125.0,3.0,3.1,-266,264,0,-16,258,-288,182.6733477115631,182.67339539527893,182.67533469200134,182.6890983581543,182.8250014781952,182.8250014781952,182.8250014781952,182.8250014781952,182.8250014781952,182.8250014781952,182.8250014781952,185.59179735183716,2,2.892807722091675,None,,,,,,,,,,,,,,,,,,128,2,2025-02-26_12h52.23.528,comp,2024.2.4,57.81443105708382,2025-02-26 12h52.34.747213 -0500,
41,41,0,filler_square,None,None,None,None,None,None,None,None,None,None,3,0.9584174156188965,None,,,,,0,0,0,0,0,41,41,175,185.60810780525208,,,,,,,,,,,,,,,,,,,,,,,,,,,,,,,,,,,,,,,,,,,,,,,,,,,,,,,,,,,,,,,,,,,,,,,,,,,,,,,,,151.30985359729425,77.9013101486802,108.68417356147143,83.86881079025568,194.0940283277211,194.0940283277211,4.0,4.1,-177,-261,0,-7,235,-289,185.59374928474426,185.5938274860382,185.59723782539368,185.60810780525208,185.75881385803223,185.75881385803223,185.75881385803223,185.75881385803223,185.75881385803223,185.75881385803223,185.75881385803223,186.57582998275757,3,0.9584174156188965,None,,,,,,,,,,,,,,,,,,128,2,2025-02-26_12h52.23.528,comp,2024.2.4,57.81443105708382,2025-02-26 12h52.34.747213 -0500,
42,42,0,critical,whd,20.0,1.0,lower,57.0,133.0,133.0,57.0,78.0,78.0,2,2.47884202003479,None,,,,,0,0,0,0,0,42,42,90,186.5918595790863,,,,,,,,,,,,,,,,,,,,,,,,,,,,,,,,,,,,,,,,,,,,,,,,,,,,,,,,,,,,,,,,,,,,,,,,,,,,,,,,,57.0,133.0,133.0,57.0,78.0,78.0,1.0,1.1,-671,275,-480,279,-316,280,186.5774188041687,186.57750034332275,186.58097624778748,186.5918595790863,186.74104642868042,186.74104642868042,186.74104642868042,186.74104642868042,186.74104642868042,186.74104642868042,186.74104642868042,189.07625770568848,2,2.47884202003479,None,,,,,,,,,,,,,,,,,,128,2,2025-02-26_12h52.23.528,comp,2024.2.4,57.81443105708382,2025-02-26 12h52.34.747213 -0500,
43,43,0,critical,wdh,35.0,2.1,lower,57.0,133.0,70.0,70.0,133.0,57.0,1,1.69163179397583,None,,,,,0,0,0,0,0,43,43,8,189.09188055992126,,,,,,,,,,,,,,,,,,,,,,,,,,,,,,,,,,,,,,,,,,,,,,,,,,,,,,,,,,,,,,,,,,,,,,,,,,,,,,,,,57.0,133.0,70.0,70.0,133.0,57.0,2.1,2.12,-198,-266,0,-253,160,260,189.07778978347778,189.07786798477173,189.08121967315674,189.09188055992126,189.24305725097656,189.24305725097656,189.24305725097656,189.24305725097656,189.24305725097656,189.24305725097656,189.24305725097656,190.78793501853943,1,1.69163179397583,None,,,,,,,,,,,,,,,,,,128,2,2025-02-26_12h52.23.528,comp,2024.2.4,57.81443105708382,2025-02-26 12h52.34.747213 -0500,
44,44,0,critical,whd,20.0,2.1,lower,57.0,133.0,133.0,57.0,78.0,78.0,2,2.6577906608581543,None,,,,,0,0,0,0,0,44,44,14,190.80438446998596,,,,,,,,,,,,,,,,,,,,,,,,,,,,,,,,,,,,,,,,,,,,,,,,,,,,,,,,,,,,,,,,,,,,,,,,,,,,,,,,,57.0,133.0,133.0,57.0,78.0,78.0,2.1,2.11,-191,275,0,286,164,-284,190.78958892822266,190.78971910476685,190.79297828674316,190.80438446998596,190.94359970092773,190.94359970092773,190.94359970092773,190.94359970092773,190.94359970092773,190.94359970092773,190.94359970092773,193.4779396057129,2,2.6577906608581543,None,,,,,,,,,,,,,,,,,,128,2,2025-02-26_12h52.23.528,comp,2024.2.4,57.81443105708382,2025-02-26 12h52.34.747213 -0500,
45,45,0,critical,hwd,20.0,1.0,upper,200.0,125.0,125.0,200.0,141.0,141.0,2,2.568331718444824,None,,,,,0,0,0,0,0,45,45,103,193.49361872673035,,,,,,,,,,,,,,,,,,,,,,,,,,,,,,,,,,,,,,,,,,,,,,,,,,,,,,,,,,,,,,,,,,,,,,,,,,,,,,,,,200.0,125.0,125.0,200.0,141.0,141.0,1.0,1.2,-258,16,0,-10,266,1,193.47937297821045,193.47944808006287,193.48338389396667,193.49361872673035,193.64331436157227,193.64331436157227,193.64331436157227,193.64331436157227,193.64331436157227,193.64331436157227,193.64331436157227,196.0784046649933,2,2.568331718444824,None,,,,,,,,,,,,,,,,,,128,2,2025-02-26_12h52.23.528,comp,2024.2.4,57.81443105708382,2025-02-26 12h52.34.747213 -0500,
46,46,0,filler_random,None,None,None,None,None,None,None,None,None,None,2,0.8564364910125732,None,,,,,0,0,0,0,0,46,46,134,196.09362292289734,,,,,,,,,,,,,,,,,,,,,,,,,,,,,,,,,,,,,,,,,,,,,,,,,,,,,,,,,,,,,,,,,,,,,,,,,,,,,,,,,62.511011445973395,105.26921614449645,190.26578015452054,190.03678501101086,85.2548080825794,122.0632047905499,3.0,3.2,-244,-278,0,4,252,260,196.0801317691803,196.08024716377258,196.08342146873474,196.09362292289734,196.2432541847229,196.2432541847229,196.2432541847229,196.2432541847229,196.2432541847229,196.2432541847229,196.2432541847229,196.9629852771759,2,0.8564364910125732,None,,,,,,,,,,,,,,,,,,128,2,2025-02-26_12h52.23.528,comp,2024.2.4,57.81443105708382,2025-02-26 12h52.34.747213 -0500,
47,47,0,filler_random,None,None,None,None,None,None,None,None,None,None,3,1.587552547454834,None,,,,,0,0,0,0,0,47,47,159,196.978675365448,,,,,,,,,,,,,,,,,,,,,,,,,,,,,,,,,,,,,,,,,,,,,,,,,,,,,,,,,,,,,,,,,,,,,,,,,,,,,,,,,128.0274014882776,154.22229102840882,190.12219713579276,68.48947046064501,145.60233002567927,164.6088109907672,2.1,2.12,-207,-285,0,-278,213,258,196.96494817733765,196.96504187583923,196.96835923194885,196.978675365448,197.13387441635132,197.13387441635132,197.13387441635132,197.13387441635132,197.13387441635132,197.13387441635132,197.13387441635132,198.56988906860352,3,1.587552547454834,None,,,,,,,,,,,,,,,,,,128,2,2025-02-26_12h52.23.528,comp,2024.2.4,57.81443105708382,2025-02-26 12h52.34.747213 -0500,
48,48,0,critical,whd,35.0,4.0,upper,125.0,200.0,200.0,125.0,127.0,127.0,1,2.3415708541870117,None,,,,,0,0,0,0,0,48,48,89,198.58499121665955,,,,,,,,,,,,,,,,,,,,,,,,,,,,,,,,,,,,,,,,,,,,,,,,,,,,,,,,,,,,,,,,,,,,,,,,,,,,,,,,,125.0,200.0,200.0,125.0,127.0,127.0,4.0,4.2,-258,4,0,-279,222,-11,198.57143211364746,198.5715093612671,198.57438778877258,198.58499121665955,198.72946190834045,198.72946190834045,198.72946190834045,198.72946190834045,198.72946190834045,198.72946190834045,198.72946190834045,200.93472456932068,1,2.3415708541870117,None,,,,,,,,,,,,,,,,,,128,2,2025-02-26_12h52.23.528,comp,2024.2.4,57.81443105708382,2025-02-26 12h52.34.747213 -0500,
49,49,0,critical,hwd,20.0,2.1,upper,200.0,125.0,125.0,200.0,141.0,141.0,2,6.479964256286621,None,,,,,0,0,0,0,0,49,49,19,200.9499967098236,,,,,,,,,,,,,,,,,,,,,,,,,,,,,,,,,,,,,,,,,,,,,,,,,,,,,,,,,,,,,,,,,,,,,,,,,,,,,,,,,200.0,125.0,125.0,200.0,141.0,141.0,2.1,2.12,-258,-256,0,-287,266,289,200.93627285957336,200.93635034561157,200.93922185897827,200.9499967098236,201.09674668312073,201.09674668312073,201.09674668312073,201.09674668312073,201.09674668312073,201.09674668312073,201.09674668312073,207.44237542152405,2,6.479964256286621,None,,,,,,,,,,,,,,,,,,128,2,2025-02-26_12h52.23.528,comp,2024.2.4,57.81443105708382,2025-02-26 12h52.34.747213 -0500,
50,50,0,filler_random,None,None,None,None,None,None,None,None,None,None,3,7.886625528335571,None,,,,,0,0,0,0,0,50,50,153,207.46337914466858,,,,,,,,,,,,,,,,,,,,,,,,,,,,,,,,,,,,,,,,,,,,,,,,,,,,,,,,,,,,,,,,,,,,,,,,,,,,,,,,,138.89137881700663,118.88563880560272,58.00448170348746,65.0335221805179,195.33378830112272,85.47909130447985,2.2,2.21,-188,-273,0,284,171,279,207.44425511360168,207.4443371295929,207.44755578041077,207.46337914466858,207.60157561302185,207.60157561302185,207.60157561302185,207.60157561302185,207.60157561302185,207.60157561302185,207.60157561302185,215.36740374565125,3,7.886625528335571,None,,,,,,,,,,,,,,,,,,128,2,2025-02-26_12h52.23.528,comp,2024.2.4,57.81443105708382,2025-02-26 12h52.34.747213 -0500,
51,51,0,critical,wdh,20.0,4.0,lower,57.0,133.0,78.0,78.0,133.0,57.0,3,4.476743459701538,None,,,,,0,0,0,0,0,51,51,82,215.3865053653717,,,,,,,,,,,,,,,,,,,,,,,,,,,,,,,,,,,,,,,,,,,,,,,,,,,,,,,,,,,,,,,,,,,,,,,,,,,,,,,,,57.0,133.0,78.0,78.0,133.0,57.0,4.0,4.1,-202,-278,0,-16,164,-265,215.36888909339905,215.36896419525146,215.37178707122803,215.3865053653717,215.53762483596802,215.53762483596802,215.53762483596802,215.53762483596802,215.53762483596802,215.53762483596802,215.53762483596802,219.8686089515686,3,4.476743459701538,None,,,,,,,,,,,,,,,,,,128,2,2025-02-26_12h52.23.528,comp,2024.2.4,57.81443105708382,2025-02-26 12h52.34.747213 -0500,
52,52,0,critical,whd,20.0,3.0,upper,125.0,200.0,200.0,125.0,141.0,141.0,2,1.5999844074249268,None,,,,,0,0,0,0,0,52,52,93,219.88626980781555,,,,,,,,,,,,,,,,,,,,,,,,,,,,,,,,,,,,,,,,,,,,,,,,,,,,,,,,,,,,,,,,,,,,,,,,,,,,,,,,,125.0,200.0,200.0,125.0,141.0,141.0,3.0,3.2,-258,-254,0,-15,229,271,219.87009811401367,219.87017369270325,219.87321281433105,219.88626980781555,220.03673458099365,220.03673458099365,220.03673458099365,220.03673458099365,220.03673458099365,220.03673458099365,220.03673458099365,221.50337886810303,2,1.5999844074249268,None,,,,,,,,,,,,,,,,,,128,2,2025-02-26_12h52.23.528,comp,2024.2.4,57.81443105708382,2025-02-26 12h52.34.747213 -0500,
53,53,0,critical,hwd,20.0,4.0,lower,133.0,57.0,57.0,133.0,78.0,78.0,2,3.6630074977874756,None,,,,,0,0,0,0,0,53,53,106,221.51929116249084,,,,,,,,,,,,,,,,,,,,,,,,,,,,,,,,,,,,,,,,,,,,,,,,,,,,,,,,,,,,,,,,,,,,,,,,,,,,,,,,,133.0,57.0,57.0,133.0,78.0,78.0,4.0,4.1,-191,-274,0,16,202,-251,221.5049159526825,221.5049924850464,221.50906944274902,221.51929116249084,221.66681218147278,221.66681218147278,221.66681218147278,221.66681218147278,221.66681218147278,221.66681218147278,221.66681218147278,225.18803143501282,2,3.6630074977874756,None,,,,,,,,,,,,,,,,,,128,2,2025-02-26_12h52.23.528,comp,2024.2.4,57.81443105708382,2025-02-26 12h52.34.747213 -0500,
54,54,0,critical,wdh,35.0,2.1,lower,57.0,133.0,70.0,70.0,133.0,57.0,3,1.8582942485809326,None,,,,,0,0,0,0,0,54,54,32,225.20433735847473,,,,,,,,,,,,,,,,,,,,,,,,,,,,,,,,,,,,,,,,,,,,,,,,,,,,,,,,,,,,,,,,,,,,,,,,,,,,,,,,,57.0,133.0,70.0,70.0,133.0,57.0,2.1,2.11,-198,277,0,261,160,-273,225.18962407112122,225.18970012664795,225.1930718421936,225.20433735847473,225.35362362861633,225.35362362861633,225.35362362861633,225.35362362861633,225.35362362861633,225.35362362861633,225.35362362861633,227.0727095603943,3,1.8582942485809326,None,,,,,,,,,,,,,,,,,,128,2,2025-02-26_12h52.23.528,comp,2024.2.4,57.81443105708382,2025-02-26 12h52.34.747213 -0500,
55,55,0,filler_random,None,None,None,None,None,None,None,None,None,None,1,1.1729340553283691,None,,,,,0,0,0,0,0,55,55,151,227.0890552997589,,,,,,,,,,,,,,,,,,,,,,,,,,,,,,,,,,,,,,,,,,,,,,,,,,,,,,,,,,,,,,,,,,,,,,,,,,,,,,,,,131.83314510876022,167.45941133105825,150.9154724376185,95.96275100399502,196.8895367700852,57.016852534033596,1.0,1.2,-228,15,0,-17,172,2,227.07435941696167,227.07443475723267,227.07753562927246,227.0890552997589,227.23843693733215,227.23843693733215,227.23843693733215,227.23843693733215,227.23843693733215,227.23843693733215,227.23843693733215,228.27779865264893,1,1.1729340553283691,None,,,,,,,,,,,,,,,,,,128,2,2025-02-26_12h52.23.528,comp,2024.2.4,57.81443105708382,2025-02-26 12h52.34.747213 -0500,
56,56,0,filler_random,None,None,None,None,None,None,None,None,None,None,3,1.6285316944122314,None,,,,,0,0,0,0,0,56,56,166,228.29776000976562,,,,,,,,,,,,,,,,,,,,,,,,,,,,,,,,,,,,,,,,,,,,,,,,,,,,,,,,,,,,,,,,,,,,,,,,,,,,,,,,,98.64154372328625,150.8290022822194,113.0525774417643,170.3913577747025,150.41519396351134,161.5799662318671,3.0,3.2,-257,-268,0,18,262,284,228.2796552181244,228.27974319458008,228.28289818763733,228.29776000976562,228.4444727897644,228.4444727897644,228.4444727897644,228.4444727897644,228.4444727897644,228.4444727897644,228.4444727897644,229.93950247764587,3,1.6285316944122314,None,,,,,,,,,,,,,,,,,,128,2,2025-02-26_12h52.23.528,comp,2024.2.4,57.81443105708382,2025-02-26 12h52.34.747213 -0500,
57,57,0,critical,hdw,20.0,2.1,upper,200.0,125.0,141.0,141.0,125.0,200.0,3,2.386417865753174,None,,,,,0,0,0,0,0,57,57,23,229.95567536354065,,,,,,,,,,,,,,,,,,,,,,,,,,,,,,,,,,,,,,,,,,,,,,,,,,,,,,,,,,,,,,,,,,,,,,,,,,,,,,,,,200.0,125.0,141.0,141.0,125.0,200.0,2.1,2.12,-229,-283,0,-270,266,282,229.94103932380676,229.9411153793335,229.94515204429626,229.95567536354065,230.10461044311523,230.10461044311523,230.10461044311523,230.10461044311523,230.10461044311523,230.10461044311523,230.10461044311523,232.35714483261108,3,2.386417865753174,None,,,,,,,,,,,,,,,,,,128,2,2025-02-26_12h52.23.528,comp,2024.2.4,57.81443105708382,2025-02-26 12h52.34.747213 -0500,
58,58,0,critical,dhw,20.0,3.0,upper,141.0,141.0,200.0,125.0,125.0,200.0,3,2.1068739891052246,None,,,,,0,0,0,0,0,58,58,57,232.37118244171143,,,,,,,,,,,,,,,,,,,,,,,,,,,,,,,,,,,,,,,,,,,,,,,,,,,,,,,,,,,,,,,,,,,,,,,,,,,,,,,,,141.0,141.0,200.0,125.0,125.0,200.0,3.0,3.2,-229,-272,0,13,258,260,232.3587462902069,232.3588206768036,232.36206126213074,232.37118244171143,232.51436519622803,232.51436519622803,232.51436519622803,232.51436519622803,232.51436519622803,232.51436519622803,232.51436519622803,234.4895842075348,3,2.1068739891052246,None,,,,,,,,,,,,,,,,,,128,2,2025-02-26_12h52.23.528,comp,2024.2.4,57.81443105708382,2025-02-26 12h52.34.747213 -0500,
59,59,0,filler_random,None,None,None,None,None,None,None,None,None,None,3,3.668015241622925,None,,,,,0,0,0,0,0,59,59,130,234.50616717338562,,,,,,,,,,,,,,,,,,,,,,,,,,,,,,,,,,,,,,,,,,,,,,,,,,,,,,,,,,,,,,,,,,,,,,,,,,,,,,,,,127.56002788954486,95.78423840901756,80.62246984716778,163.20962000112695,82.31801828870881,180.9381496231099,2.2,2.22,-225,286,0,-255,268,-280,234.49122595787048,234.49130821228027,234.49447226524353,234.50616717338562,234.65962862968445,234.65962862968445,234.65962862968445,234.65962862968445,234.65962862968445,234.65962862968445,234.65962862968445,238.1915774345398,3,3.668015241622925,None,,,,,,,,,,,,,,,,,,128,2,2025-02-26_12h52.23.528,comp,2024.2.4,57.81443105708382,2025-02-26 12h52.34.747213 -0500,
60,60,0,critical,hwd,35.0,4.0,upper,200.0,125.0,125.0,200.0,127.0,127.0,2,4.103553056716919,None,,,,,0,0,0,0,0,60,60,101,238.20690250396729,,,,,,,,,,,,,,,,,,,,,,,,,,,,,,,,,,,,,,,,,,,,,,,,,,,,,,,,,,,,,,,,,,,,,,,,,,,,,,,,,200.0,125.0,125.0,200.0,127.0,127.0,4.0,4.2,-258,-9,0,-263,260,5,238.19307494163513,238.19315004348755,238.1964898109436,238.20690250396729,238.35711860656738,238.35711860656738,238.35711860656738,238.35711860656738,238.35711860656738,238.35711860656738,238.35711860656738,242.32791900634766,2,4.103553056716919,None,,,,,,,,,,,,,,,,,,128,2,2025-02-26_12h52.23.528,comp,2024.2.4,57.81443105708382,2025-02-26 12h52.34.747213 -0500,
61,61,0,critical,wdh,20.0,2.1,lower,57.0,133.0,78.0,78.0,133.0,57.0,3,1.3829030990600586,None,,,,,0,0,0,0,0,61,61,10,242.3431158065796,,,,,,,,,,,,,,,,,,,,,,,,,,,,,,,,,,,,,,,,,,,,,,,,,,,,,,,,,,,,,,,,,,,,,,,,,,,,,,,,,57.0,133.0,78.0,78.0,133.0,57.0,2.1,2.11,-202,255,0,258,164,-270,242.32952904701233,242.3296320438385,242.33282160758972,242.3431158065796,242.49283170700073,242.49283170700073,242.49283170700073,242.49283170700073,242.49283170700073,242.49283170700073,242.49283170700073,243.74263668060303,3,1.3829030990600586,None,,,,,,,,,,,,,,,,,,128,2,2025-02-26_12h52.23.528,comp,2024.2.4,57.81443105708382,2025-02-26 12h52.34.747213 -0500,
62,62,0,catch,None,None,None,None,None,None,None,None,None,None,3,0.9835531711578369,None,,,,,0,0,0,0,0,62,62,129,243.7586967945099,,,,,,,,,,,,,,,,,,,,,,,,,,,,,,,,,,,,,,,,,,,,,,,,,,,,,,,,,,,,,,,,,,,,,,,,,,,,,,,,,125,65,66,124,199,126,4.0,4.1,-190,-265,0,4,221,-267,243.74453783035278,243.74461221694946,243.74761533737183,243.7586967945099,243.9151165485382,243.9151165485382,243.9151165485382,243.9151165485382,243.9151165485382,243.9151165485382,243.9151165485382,244.74437832832336,3,0.9835531711578369,None,,,,,,,,,,,,,,,,,,128,2,2025-02-26_12h52.23.528,comp,2024.2.4,57.81443105708382,2025-02-26 12h52.34.747213 -0500,
63,63,0,critical,hwd,35.0,4.0,lower,133.0,57.0,57.0,133.0,70.0,70.0,2,2.3886239528656006,None,,,,,0,0,0,0,0,63,63,100,244.76143074035645,,,,,,,,,,,,,,,,,,,,,,,,,,,,,,,,,,,,,,,,,,,,,,,,,,,,,,,,,,,,,,,,,,,,,,,,,,,,,,,,,133.0,57.0,57.0,133.0,70.0,70.0,4.0,4.1,-191,-287,0,-5,198,-269,244.74593377113342,244.74601101875305,244.74933886528015,244.76143074035645,244.91302132606506,244.91302132606506,244.91302132606506,244.91302132606506,244.91302132606506,244.91302132606506,244.91302132606506,247.16116952896118,2,2.3886239528656006,None,,,,,,,,,,,,,,,,,,128,2,2025-02-26_12h52.23.528,comp,2024.2.4,57.81443105708382,2025-02-26 12h52.34.747213 -0500,
64,64,0,critical,hdw,20.0,2.1,upper,200.0,125.0,141.0,141.0,125.0,200.0,3,1.3736836910247803,None,,,,,0,0,0,0,0,64,64,47,247.17748284339905,,,,,,,,,,,,,,,,,,,,,,,,,,,,,,,,,,,,,,,,,,,,,,,,,,,,,,,,,,,,,,,,,,,,,,,,,,,,,,,,,200.0,125.0,141.0,141.0,125.0,200.0,2.1,2.12,-229,-275,0,-256,266,283,247.1627357006073,247.1628143787384,247.1668074131012,247.17748284339905,247.32884240150452,247.32884240150452,247.32884240150452,247.32884240150452,247.32884240150452,247.32884240150452,247.32884240150452,248.56391882896423,3,1.3736836910247803,None,,,,,,,,,,,,,,,,,,128,2,2025-02-26_12h52.23.528,comp,2024.2.4,57.81443105708382,2025-02-26 12h52.34.747213 -0500,
65,65,0,critical,whd,20.0,4.0,lower,57.0,133.0,133.0,57.0,78.0,78.0,2,1.3310339450836182,None,,,,,0,0,0,0,0,65,65,94,248.5790193080902,,,,,,,,,,,,,,,,,,,,,,,,,,,,,,,,,,,,,,,,,,,,,,,,,,,,,,,,,,,,,,,,,,,,,,,,,,,,,,,,,57.0,133.0,133.0,57.0,78.0,78.0,4.0,4.2,-191,13,0,-265,164,13,248.56554079055786,248.5656177997589,248.5687656402588,248.5790193080902,248.73405361175537,248.73405361175537,248.73405361175537,248.73405361175537,248.73405361175537,248.73405361175537,248.73405361175537,249.91203331947327,2,1.3310339450836182,None,,,,,,,,,,,,,,,,,,128,2,2025-02-26_12h52.23.528,comp,2024.2.4,57.81443105708382,2025-02-26 12h52.34.747213 -0500,
66,66,0,critical,wdh,35.0,3.0,lower,57.0,133.0,70.0,70.0,133.0,57.0,1,4.254236459732056,None,,,,,0,0,0,0,0,66,66,74,249.92785263061523,,,,,,,,,,,,,,,,,,,,,,,,,,,,,,,,,,,,,,,,,,,,,,,,,,,,,,,,,,,,,,,,,,,,,,,,,,,,,,,,,57.0,133.0,70.0,70.0,133.0,57.0,3.0,3.2,-198,-288,0,5,160,279,249.91358017921448,249.91365671157837,249.91709995269775,249.92785263061523,250.07690048217773,250.07690048217773,250.07690048217773,250.07690048217773,250.07690048217773,250.07690048217773,250.07690048217773,254.19763374328613,1,4.254236459732056,None,,,,,,,,,,,,,,,,,,128,2,2025-02-26_12h52.23.528,comp,2024.2.4,57.81443105708382,2025-02-26 12h52.34.747213 -0500,
67,67,0,filler_random,None,None,None,None,None,None,None,None,None,None,2,1.2974233627319336,None,,,,,0,0,0,0,0,67,67,165,254.2131507396698,,,,,,,,,,,,,,,,,,,,,,,,,,,,,,,,,,,,,,,,,,,,,,,,,,,,,,,,,,,,,,,,,,,,,,,,,,,,,,,,,147.61104209549143,81.17288382735364,137.89169353947975,138.28451084001176,124.7345365208356,80.87986521753034,2.1,2.12,-206,-253,0,-289,206,285,254.1993601322174,254.19945979118347,254.20284271240234,254.2131507396698,254.3697144985199,254.3697144985199,254.3697144985199,254.3697144985199,254.3697144985199,254.3697144985199,254.3697144985199,255.5315351486206,2,1.2974233627319336,None,,,,,,,,,,,,,,,,,,128,2,2025-02-26_12h52.23.528,comp,2024.2.4,57.81443105708382,2025-02-26 12h52.34.747213 -0500,
68,68,0,catch,None,None,None,None,None,None,None,None,None,None,3,0.9782094955444336,None,,,,,0,0,0,0,0,68,68,127,255.5480659008026,,,,,,,,,,,,,,,,,,,,,,,,,,,,,,,,,,,,,,,,,,,,,,,,,,,,,,,,,,,,,,,,,,,,,,,,,,,,,,,,,89,101,76,114,154,171,2.1,2.11,-204,251,0,264,238,-262,255.53351163864136,255.5335988998413,255.5368628501892,255.5480659008026,255.70018315315247,255.70018315315247,255.70018315315247,255.70018315315247,255.70018315315247,255.70018315315247,255.70018315315247,256.5308003425598,3,0.9782094955444336,None,,,,,,,,,,,,,,,,,,128,2,2025-02-26_12h52.23.528,comp,2024.2.4,57.81443105708382,2025-02-26 12h52.34.747213 -0500,
69,69,0,filler_square,None,None,None,None,None,None,None,None,None,None,1,2.436915159225464,None,,,,,0,0,0,0,0,69,69,207,256.5451672077179,,,,,,,,,,,,,,,,,,,,,,,,,,,,,,,,,,,,,,,,,,,,,,,,,,,,,,,,,,,,,,,,,,,,,,,,,,,,,,,,,149.3864916153243,149.3864916153243,112.59139289795198,82.4284466243248,122.42443566322028,128.77250756125358,1.0,1.2,-212,17,0,9,202,6,256.5325040817261,256.5325810909271,256.53570771217346,256.5451672077179,256.68765592575073,256.68765592575073,256.68765592575073,256.68765592575073,256.68765592575073,256.68765592575073,256.68765592575073,258.9991645812988,1,2.436915159225464,None,,,,,,,,,,,,,,,,,,128,2,2025-02-26_12h52.23.528,comp,2024.2.4,57.81443105708382,2025-02-26 12h52.34.747213 -0500,
70,70,0,critical,hwd,35.0,2.1,lower,133.0,57.0,57.0,133.0,70.0,70.0,2,1.8082964420318604,None,,,,,0,0,0,0,0,70,70,16,259.0144407749176,,,,,,,,,,,,,,,,,,,,,,,,,,,,,,,,,,,,,,,,,,,,,,,,,,,,,,,,,,,,,,,,,,,,,,,,,,,,,,,,,133.0,57.0,57.0,133.0,70.0,70.0,2.1,2.11,-191,258,0,268,198,-252,259.0006592273712,259.0007355213165,259.00390458106995,259.0144407749176,259.15149188041687,259.15149188041687,259.15149188041687,259.15149188041687,259.15149188041687,259.15149188041687,259.15149188041687,260.8325173854828,2,1.8082964420318604,None,,,,,,,,,,,,,,,,,,128,2,2025-02-26_12h52.23.528,comp,2024.2.4,57.81443105708382,2025-02-26 12h52.34.747213 -0500,
71,71,0,filler_random,None,None,None,None,None,None,None,None,None,None,1,1.19722318649292,None,,,,,0,0,0,0,0,71,71,145,260.84929156303406,,,,,,,,,,,,,,,,,,,,,,,,,,,,,,,,,,,,,,,,,,,,,,,,,,,,,,,,,,,,,,,,,,,,,,,,,,,,,,,,,187.7027152181643,177.93960103241886,119.17994110064606,97.41113224621542,107.01369418934487,123.6549920756996,3.0,3.2,-234,-276,0,-13,207,260,260.83434772491455,260.834468126297,260.8384745121002,260.84929156303406,261.0049979686737,261.0049979686737,261.0049979686737,261.0049979686737,261.0049979686737,261.0049979686737,261.0049979686737,262.05068016052246,1,1.19722318649292,None,,,,,,,,,,,,,,,,,,128,2,2025-02-26_12h52.23.528,comp,2024.2.4,57.81443105708382,2025-02-26 12h52.34.747213 -0500,
72,72,0,catch,None,None,None,None,None,None,None,None,None,None,1,0.8663582801818848,None,,,,,0,0,0,0,0,72,72,123,262.0677649974823,,,,,,,,,,,,,,,,,,,,,,,,,,,,,,,,,,,,,,,,,,,,,,,,,,,,,,,,,,,,,,,,,,,,,,,,,,,,,,,,,141,184,88,102,123,67,2.1,2.11,-239,262,0,253,180,-269,262.0528316497803,262.05291080474854,262.05608010292053,262.0677649974823,262.2163236141205,262.2163236141205,262.2163236141205,262.2163236141205,262.2163236141205,262.2163236141205,262.2163236141205,262.94887614250183,1,0.8663582801818848,None,,,,,,,,,,,,,,,,,,128,2,2025-02-26_12h52.23.528,comp,2024.2.4,57.81443105708382,2025-02-26 12h52.34.747213 -0500,
73,73,0,critical,wdh,20.0,2.1,lower,57.0,133.0,78.0,78.0,133.0,57.0,3,1.3528709411621094,None,,,,,0,0,0,0,0,73,73,34,262.9651720523834,,,,,,,,,,,,,,,,,,,,,,,,,,,,,,,,,,,,,,,,,,,,,,,,,,,,,,,,,,,,,,,,,,,,,,,,,,,,,,,,,57.0,133.0,78.0,78.0,133.0,57.0,2.1,2.11,-202,289,0,274,164,-282,262.95044684410095,262.95052313804626,262.9538550376892,262.9651720523834,263.1158776283264,263.1158776283264,263.1158776283264,263.1158776283264,263.1158776283264,263.1158776283264,263.1158776283264,264.3329954147339,3,1.3528709411621094,None,,,,,,,,,,,,,,,,,,128,2,2025-02-26_12h52.23.528,comp,2024.2.4,57.81443105708382,2025-02-26 12h52.34.747213 -0500,
74,74,0,catch,None,None,None,None,None,None,None,None,None,None,2,0.969264030456543,None,,,,,0,0,0,0,0,74,74,126,264.3490662574768,,,,,,,,,,,,,,,,,,,,,,,,,,,,,,,,,,,,,,,,,,,,,,,,,,,,,,,,,,,,,,,,,,,,,,,,,,,,,,,,,110,80,166,159,128,62,2.1,2.12,-216,-278,0,-261,206,277,264.3351514339447,264.3352587223053,264.33867287635803,264.3490662574768,264.500452041626,264.500452041626,264.500452041626,264.500452041626,264.500452041626,264.500452041626,264.500452041626,265.3356418609619,2,0.969264030456543,None,,,,,,,,,,,,,,,,,,128,2,2025-02-26_12h52.23.528,comp,2024.2.4,57.81443105708382,2025-02-26 12h52.34.747213 -0500,
75,75,0,filler_square,None,None,None,None,None,None,None,None,None,None,3,1.205897331237793,None,,,,,0,0,0,0,0,75,75,195,265.3521568775177,,,,,,,,,,,,,,,,,,,,,,,,,,,,,,,,,,,,,,,,,,,,,,,,,,,,,,,,,,,,,,,,,,,,,,,,,,,,,,,,,125.75048998640781,141.12243411003334,75.92291184288828,108.33437703986522,172.85372764148156,172.85372764148156,3.0,3.1,-221,277,0,-19,237,-253,265.3378574848175,265.33793663978577,265.3412425518036,265.3521568775177,265.49795150756836,265.49795150756836,265.49795150756836,265.49795150756836,265.49795150756836,265.49795150756836,265.49795150756836,266.57242345809937,3,1.205897331237793,None,,,,,,,,,,,,,,,,,,128,2,2025-02-26_12h52.23.528,comp,2024.2.4,57.81443105708382,2025-02-26 12h52.34.747213 -0500,
76,76,0,critical,dwh,20.0,1.0,upper,141.0,141.0,125.0,200.0,200.0,125.0,3,3.6735870838165283,None,,,,,0,0,0,0,0,76,76,67,266.58850598335266,,,,,,,,,,,,,,,,,,,,,,,,,,,,,,,,,,,,,,,,,,,,,,,,,,,,,,,,,,,,,,,,,,,,,,,,,,,,,,,,,141.0,141.0,125.0,200.0,200.0,125.0,1.0,1.3,214,-288,480,-262,738,-254,266.57400584220886,266.57408142089844,266.5773410797119,266.58850598335266,266.73426246643066,266.73426246643066,266.73426246643066,266.73426246643066,266.73426246643066,266.73426246643066,266.73426246643066,270.27666687965393,3,3.6735870838165283,None,,,,,,,,,,,,,,,,,,128,2,2025-02-26_12h52.23.528,comp,2024.2.4,57.81443105708382,2025-02-26 12h52.34.747213 -0500,
77,77,0,filler_random,None,None,None,None,None,None,None,None,None,None,1,0.9110963344573975,None,,,,,0,0,0,0,0,77,77,131,270.29514336586,,,,,,,,,,,,,,,,,,,,,,,,,,,,,,,,,,,,,,,,,,,,,,,,,,,,,,,,,,,,,,,,,,,,,,,,,,,,,,,,,145.03360691360155,171.12637330825254,75.95027494047145,135.77374551195882,148.40964548154363,89.00067663336648,4.0,4.1,-249,-258,0,-10,208,-262,270.27829909324646,270.2783749103546,270.2811496257782,270.29514336586,270.4346466064453,270.4346466064453,270.4346466064453,270.4346466064453,270.4346466064453,270.4346466064453,270.4346466064453,271.2084872722626,1,0.9110963344573975,None,,,,,,,,,,,,,,,,,,128,2,2025-02-26_12h52.23.528,comp,2024.2.4,57.81443105708382,2025-02-26 12h52.34.747213 -0500,
78,78,0,critical,whd,20.0,4.0,upper,125.0,200.0,200.0,125.0,141.0,141.0,1,2.0999486446380615,None,,,,,0,0,0,0,0,78,78,95,271.22670125961304,,,,,,,,,,,,,,,,,,,,,,,,,,,,,,,,,,,,,,,,,,,,,,,,,,,,,,,,,,,,,,,,,,,,,,,,,,,,,,,,,125.0,200.0,200.0,125.0,141.0,141.0,4.0,4.1,-258,-290,0,13,229,-256,271.20996165275574,271.21003913879395,271.2128961086273,271.22670125961304,271.3706085681915,271.3706085681915,271.3706085681915,271.3706085681915,271.3706085681915,271.3706085681915,271.3706085681915,273.33526039123535,1,2.0999486446380615,None,,,,,,,,,,,,,,,,,,128,2,2025-02-26_12h52.23.528,comp,2024.2.4,57.81443105708382,2025-02-26 12h52.34.747213 -0500,
79,79,0,critical,dwh,35.0,1.0,lower,70.0,70.0,57.0,133.0,133.0,57.0,2,4.654510498046875,None,,,,,0,0,0,0,0,79,79,60,273.3515627384186,,,,,,,,,,,,,,,,,,,,,,,,,,,,,,,,,,,,,,,,,,,,,,,,,,,,,,,,,,,,,,,,,,,,,,,,,,,,,,,,,70.0,70.0,57.0,133.0,133.0,57.0,1.0,1.2,-198,2,0,19,191,-7,273.3367500305176,273.33682584762573,273.33987307548523,273.3515627384186,273.5009250640869,273.5009250640869,273.5009250640869,273.5009250640869,273.5009250640869,273.5009250640869,273.5009250640869,278.02033972740173,2,4.654510498046875,None,,,,,,,,,,,,,,,,,,128,2,2025-02-26_12h52.23.528,comp,2024.2.4,57.81443105708382,2025-02-26 12h52.34.747213 -0500,
80,80,0,filler_random,None,None,None,None,None,None,None,None,None,None,1,1.2897567749023438,None,,,,,0,0,0,0,0,80,80,146,278.0364270210266,,,,,,,,,,,,,,,,,,,,,,,,,,,,,,,,,,,,,,,,,,,,,,,,,,,,,,,,,,,,,,,,,,,,,,,,,,,,,,,,,186.23784065908328,112.57519235090899,71.8271249018106,122.23392507729973,110.11423995472626,68.57002854861479,2.1,2.11,-213,281,0,280,191,-262,278.02207922935486,278.022212266922,278.02544021606445,278.0364270210266,278.18691778182983,278.18691778182983,278.18691778182983,278.18691778182983,278.18691778182983,278.18691778182983,278.18691778182983,279.33842062950134,1,1.2897567749023438,None,,,,,,,,,,,,,,,,,,128,2,2025-02-26_12h52.23.528,comp,2024.2.4,57.81443105708382,2025-02-26 12h52.34.747213 -0500,
81,81,0,critical,hdw,35.0,1.0,lower,133.0,57.0,70.0,70.0,57.0,133.0,3,1.444589376449585,None,,,,,0,0,0,0,0,81,81,108,279.3542671203613,,,,,,,,,,,,,,,,,,,,,,,,,,,,,,,,,,,,,,,,,,,,,,,,,,,,,,,,,,,,,,,,,,,,,,,,,,,,,,,,,133.0,57.0,70.0,70.0,57.0,133.0,1.0,1.2,-160,10,0,10,198,-11,279.33988904953003,279.3399648666382,279.3430516719818,279.3542671203613,279.5078570842743,279.5078570842743,279.5078570842743,279.5078570842743,279.5078570842743,279.5078570842743,279.5078570842743,280.8054099082947,3,1.444589376449585,None,,,,,,,,,,,,,,,,,,128,2,2025-02-26_12h52.23.528,comp,2024.2.4,57.81443105708382,2025-02-26 12h52.34.747213 -0500,
82,82,0,filler_random,None,None,None,None,None,None,None,None,None,None,2,0.7767038345336914,None,,,,,0,0,0,0,0,82,82,147,280.82188153266907,,,,,,,,,,,,,,,,,,,,,,,,,,,,,,,,,,,,,,,,,,,,,,,,,,,,,,,,,,,,,,,,,,,,,,,,,,,,,,,,,71.06977983826606,80.5603891920644,132.1504328480669,167.85988793174164,137.27570729017128,77.42053447706175,4.0,4.1,-220,-287,0,19,219,-284,280.80709409713745,280.8071722984314,280.8111801147461,280.82188153266907,280.97258043289185,280.97258043289185,280.97258043289185,280.97258043289185,280.97258043289185,280.97258043289185,280.97258043289185,281.60707211494446,2,0.7767038345336914,None,,,,,,,,,,,,,,,,,,128,2,2025-02-26_12h52.23.528,comp,2024.2.4,57.81443105708382,2025-02-26 12h52.34.747213 -0500,
83,83,0,critical,dwh,35.0,4.0,upper,127.0,127.0,125.0,200.0,200.0,125.0,2,0.901237964630127,None,,,,,0,0,0,0,0,83,83,65,281.6249384880066,,,,,,,,,,,,,,,,,,,,,,,,,,,,,,,,,,,,,,,,,,,,,,,,,,,,,,,,,,,,,,,,,,,,,,,,,,,,,,,,,127.0,127.0,125.0,200.0,200.0,125.0,4.0,4.1,-260,-272,0,15,258,-275,281.60870480537415,281.6087884902954,281.6120557785034,281.6249384880066,281.7717082500458,281.7717082500458,281.7717082500458,281.7717082500458,281.7717082500458,281.7717082500458,281.7717082500458,282.5402846336365,2,0.901237964630127,None,,,,,,,,,,,,,,,,,,128,2,2025-02-26_12h52.23.528,comp,2024.2.4,57.81443105708382,2025-02-26 12h52.34.747213 -0500,
84,84,0,filler_square,None,None,None,None,None,None,None,None,None,None,1,1.8822078704833984,None,,,,,0,0,0,0,0,84,84,202,282.55601596832275,,,,,,,,,,,,,,,,,,,,,,,,,,,,,,,,,,,,,,,,,,,,,,,,,,,,,,,,,,,,,,,,,,,,,,,,,,,,,,,,,175.6221789995668,175.6221789995668,114.19746075126334,137.50457020868163,158.06900965367225,78.08999382298163,2.2,2.22,-253,260,0,-253,204,-252,282.54225397109985,282.5423352718353,282.54571986198425,282.55601596832275,282.7083718776703,282.7083718776703,282.7083718776703,282.7083718776703,282.7083718776703,282.7083718776703,282.7083718776703,284.45617866516113,1,1.8822078704833984,None,,,,,,,,,,,,,,,,,,128,2,2025-02-26_12h52.23.528,comp,2024.2.4,57.81443105708382,2025-02-26 12h52.34.747213 -0500,
85,85,0,filler_square,None,None,None,None,None,None,None,None,None,None,2,1.7499890327453613,None,,,,,0,0,0,0,0,85,85,181,284.47208738327026,,,,,,,,,,,,,,,,,,,,,,,,,,,,,,,,,,,,,,,,,,,,,,,,,,,,,,,,,,,,,,,,,,,,,,,,,,,,,,,,,140.7680242263071,68.17169283770208,172.31916402690175,172.31916402690175,148.39185325630797,171.7651499126356,3.0,3.2,-216,-271,0,-19,268,271,284.45815229415894,284.45828676223755,284.4617557525635,284.47208738327026,284.62164783477783,284.62164783477783,284.62164783477783,284.62164783477783,284.62164783477783,284.62164783477783,284.62164783477783,286.24287152290344,2,1.7499890327453613,None,,,,,,,,,,,,,,,,,,128,2,2025-02-26_12h52.23.528,comp,2024.2.4,57.81443105708382,2025-02-26 12h52.34.747213 -0500,
86,86,0,filler_random,None,None,None,None,None,None,None,None,None,None,2,1.74385666847229,None,,,,,0,0,0,0,0,86,86,137,286.2626197338104,,,,,,,,,,,,,,,,,,,,,,,,,,,,,,,,,,,,,,,,,,,,,,,,,,,,,,,,,,,,,,,,,,,,,,,,,,,,,,,,,146.3402859110716,113.54526665819354,177.06588474648436,110.45509259668376,144.0147864542638,101.10535882198903,1.0,1.2,-208,11,0,12,202,4,286.2447118759155,286.2448253631592,286.2480499744415,286.2626197338104,286.4095332622528,286.4095332622528,286.4095332622528,286.4095332622528,286.4095332622528,286.4095332622528,286.4095332622528,288.0244255065918,2,1.74385666847229,None,,,,,,,,,,,,,,,,,,128,2,2025-02-26_12h52.23.528,comp,2024.2.4,57.81443105708382,2025-02-26 12h52.34.747213 -0500,
87,87,0,critical,whd,20.0,1.0,upper,125.0,200.0,200.0,125.0,141.0,141.0,1,2.1655941009521484,None,,,,,0,0,0,0,0,87,87,91,288.04060196876526,,,,,,,,,,,,,,,,,,,,,,,,,,,,,,,,,,,,,,,,,,,,,,,,,,,,,,,,,,,,,,,,,,,,,,,,,,,,,,,,,125.0,200.0,200.0,125.0,141.0,141.0,1.0,1.2,-258,1,0,15,229,-17,288.025883436203,288.0259597301483,288.0299847126007,288.04060196876526,288.1949694156647,288.1949694156647,288.1949694156647,288.1949694156647,288.1949694156647,288.1949694156647,288.1949694156647,290.2234332561493,1,2.1655941009521484,None,,,,,,,,,,,,,,,,,,128,2,2025-02-26_12h52.23.528,comp,2024.2.4,57.81443105708382,2025-02-26 12h52.34.747213 -0500,
88,88,0,filler_random,None,None,None,None,None,None,None,None,None,None,3,0.9198958873748779,None,,,,,0,0,0,0,0,88,88,139,290.23894214630127,,,,,,,,,,,,,,,,,,,,,,,,,,,,,,,,,,,,,,,,,,,,,,,,,,,,,,,,,,,,,,,,,,,,,,,,,,,,,,,,,184.37330158660785,97.40628985868952,114.84357997331472,64.70190589920387,117.46212802875051,165.1958953404286,1.0,1.2,-177,-6,0,-9,211,-7,290.2249891757965,290.22506499290466,290.2281255722046,290.23894214630127,290.39061665534973,290.39061665534973,290.39061665534973,290.39061665534973,290.39061665534973,290.39061665534973,290.39061665534973,291.1766040325165,3,0.9198958873748779,None,,,,,,,,,,,,,,,,,,128,2,2025-02-26_12h52.23.528,comp,2024.2.4,57.81443105708382,2025-02-26 12h52.34.747213 -0500,
89,89,0,filler_random,None,None,None,None,None,None,None,None,None,None,3,1.2612075805664062,None,,,,,0,0,0,0,0,89,89,135,291.1929581165314,,,,,,,,,,,,,,,,,,,,,,,,,,,,,,,,,,,,,,,,,,,,,,,,,,,,,,,,,,,,,,,,,,,,,,,,,,,,,,,,,138.99734487603058,89.33183272054333,78.40160208640954,89.1137906720222,143.6665708371982,138.7846433787176,2.1,2.12,-185,-268,0,-277,210,251,291.17831802368164,291.1784019470215,291.18179965019226,291.1929581165314,291.34203243255615,291.34203243255615,291.34203243255615,291.34203243255615,291.34203243255615,291.34203243255615,291.34203243255615,292.459513425827,3,1.2612075805664062,None,,,,,,,,,,,,,,,,,,128,2,2025-02-26_12h52.23.528,comp,2024.2.4,57.81443105708382,2025-02-26 12h52.34.747213 -0500,
90,90,0,filler_random,None,None,None,None,None,None,None,None,None,None,3,1.7127292156219482,None,,,,,0,0,0,0,0,90,90,142,292.47748017311096,,,,,,,,,,,,,,,,,,,,,,,,,,,,,,,,,,,,,,,,,,,,,,,,,,,,,,,,,,,,,,,,,,,,,,,,,,,,,,,,,98.52242146364672,129.06704027804327,83.84472554716882,113.86606300812596,110.39999552154656,116.10247308706144,1.0,1.1,-697,258,-480,265,-269,276,292.4612510204315,292.4613652229309,292.4646179676056,292.47748017311096,292.622305393219,292.622305393219,292.622305393219,292.622305393219,292.622305393219,292.622305393219,292.622305393219,294.2078378200531,3,1.7127292156219482,None,,,,,,,,,,,,,,,,,,128,2,2025-02-26_12h52.23.528,comp,2024.2.4,57.81443105708382,2025-02-26 12h52.34.747213 -0500,
91,91,0,filler_random,None,None,None,None,None,None,None,None,None,None,3,1.0632669925689697,None,,,,,0,0,0,0,0,91,91,133,294.2234630584717,,,,,,,,,,,,,,,,,,,,,,,,,,,,,,,,,,,,,,,,,,,,,,,,,,,,,,,,,,,,,,,,,,,,,,,,,,,,,,,,,177.068230136728,62.077837099886324,112.37420542228301,127.13043077082547,187.64794163893646,154.6816223517667,1.0,1.3,289,-269,480,-267,717,-259,294.2095077037811,294.20958161354065,294.21255826950073,294.2234630584717,294.3750352859497,294.3750352859497,294.3750352859497,294.3750352859497,294.3750352859497,294.3750352859497,294.3750352859497,295.2944414615631,3,1.0632669925689697,None,,,,,,,,,,,,,,,,,,128,2,2025-02-26_12h52.23.528,comp,2024.2.4,57.81443105708382,2025-02-26 12h52.34.747213 -0500,
92,92,0,critical,wdh,20.0,2.1,upper,125.0,200.0,141.0,141.0,200.0,125.0,1,2.6563119888305664,None,,,,,0,0,0,0,0,92,92,35,295.3109040260315,,,,,,,,,,,,,,,,,,,,,,,,,,,,,,,,,,,,,,,,,,,,,,,,,,,,,,,,,,,,,,,,,,,,,,,,,,,,,,,,,125.0,200.0,141.0,141.0,200.0,125.0,2.1,2.11,-266,265,0,256,229,-280,295.29601097106934,295.2961378097534,295.3000762462616,295.3109040260315,295.46102118492126,295.46102118492126,295.46102118492126,295.46102118492126,295.46102118492126,295.46102118492126,295.46102118492126,297.97774481773376,1,2.6563119888305664,None,,,,,,,,,,,,,,,,,,128,2,2025-02-26_12h52.23.528,comp,2024.2.4,57.81443105708382,2025-02-26 12h52.34.747213 -0500,
93,93,0,critical,hwd,20.0,2.1,lower,133.0,57.0,57.0,133.0,78.0,78.0,2,1.757514238357544,None,,,,,0,0,0,0,0,93,93,42,297.9932906627655,,,,,,,,,,,,,,,,,,,,,,,,,,,,,,,,,,,,,,,,,,,,,,,,,,,,,,,,,,,,,,,,,,,,,,,,,,,,,,,,,133.0,57.0,57.0,133.0,78.0,78.0,2.1,2.11,-191,270,0,266,202,-276,297.9791452884674,297.97926020622253,297.9826271533966,297.9932906627655,298.1419794559479,298.1419794559479,298.1419794559479,298.1419794559479,298.1419794559479,298.1419794559479,298.1419794559479,299.7610363960266,2,1.757514238357544,None,,,,,,,,,,,,,,,,,,128,2,2025-02-26_12h52.23.528,comp,2024.2.4,57.81443105708382,2025-02-26 12h52.34.747213 -0500,
94,94,0,critical,dwh,35.0,1.0,upper,127.0,127.0,125.0,200.0,200.0,125.0,2,2.253284215927124,None,,,,,0,0,0,0,0,94,94,61,299.7768793106079,,,,,,,,,,,,,,,,,,,,,,,,,,,,,,,,,,,,,,,,,,,,,,,,,,,,,,,,,,,,,,,,,,,,,,,,,,,,,,,,,127.0,127.0,125.0,200.0,200.0,125.0,1.0,1.3,220,-287,480,-259,738,-268,299.7624750137329,299.7625529766083,299.7659869194031,299.7768793106079,299.9245662689209,299.9245662689209,299.9245662689209,299.9245662689209,299.9245662689209,299.9245662689209,299.9245662689209,302.0467793941498,2,2.253284215927124,None,,,,,,,,,,,,,,,,,,128,2,2025-02-26_12h52.23.528,comp,2024.2.4,57.81443105708382,2025-02-26 12h52.34.747213 -0500,
95,95,0,critical,dwh,35.0,3.0,lower,70.0,70.0,57.0,133.0,133.0,57.0,2,2.4804348945617676,None,,,,,0,0,0,0,0,95,95,62,302.0625958442688,,,,,,,,,,,,,,,,,,,,,,,,,,,,,,,,,,,,,,,,,,,,,,,,,,,,,,,,,,,,,,,,,,,,,,,,,,,,,,,,,70.0,70.0,57.0,133.0,133.0,57.0,3.0,3.2,-198,-289,0,-16,191,262,302.0484654903412,302.0485441684723,302.0517382621765,302.0625958442688,302.2117564678192,302.2117564678192,302.2117564678192,302.2117564678192,302.2117564678192,302.2117564678192,302.2117564678192,304.54977345466614,2,2.4804348945617676,None,,,,,,,,,,,,,,,,,,128,2,2025-02-26_12h52.23.528,comp,2024.2.4,57.81443105708382,2025-02-26 12h52.34.747213 -0500,
96,96,0,filler_square,None,None,None,None,None,None,None,None,None,None,3,1.0845093727111816,None,,,,,0,0,0,0,0,96,96,189,304.5702304840088,,,,,,,,,,,,,,,,,,,,,,,,,,,,,,,,,,,,,,,,,,,,,,,,,,,,,,,,,,,,,,,,,,,,,,,,,,,,,,,,,65.99211914178466,95.2522235785515,62.69506135361392,103.01535257735392,111.33999631977059,111.33999631977059,3.0,3.1,-195,253,0,-8,203,-285,304.55167055130005,304.5518043041229,304.55504751205444,304.5702304840088,304.7133140563965,304.7133140563965,304.7133140563965,304.7133140563965,304.7133140563965,304.7133140563965,304.7133140563965,305.6641004085541,3,1.0845093727111816,None,,,,,,,,,,,,,,,,,,128,2,2025-02-26_12h52.23.528,comp,2024.2.4,57.81443105708382,2025-02-26 12h52.34.747213 -0500,
97,97,0,critical,whd,35.0,1.0,upper,125.0,200.0,200.0,125.0,127.0,127.0,2,3.5740318298339844,None,,,,,0,0,0,0,0,97,97,85,305.6802246570587,,,,,,,,,,,,,,,,,,,,,,,,,,,,,,,,,,,,,,,,,,,,,,,,,,,,,,,,,,,,,,,,,,,,,,,,,,,,,,,,,125.0,200.0,200.0,125.0,127.0,127.0,1.0,1.2,-258,18,0,15,222,-15,305.66554522514343,305.66562151908875,305.66951394081116,305.6802246570587,305.83289647102356,305.83289647102356,305.83289647102356,305.83289647102356,305.83289647102356,305.83289647102356,305.83289647102356,309.2646396160126,2,3.5740318298339844,None,,,,,,,,,,,,,,,,,,128,2,2025-02-26_12h52.23.528,comp,2024.2.4,57.81443105708382,2025-02-26 12h52.34.747213 -0500,
98,98,0,filler_square,None,None,None,None,None,None,None,None,None,None,1,1.510472059249878,None,,,,,0,0,0,0,0,98,98,190,309.281138420105,,,,,,,,,,,,,,,,,,,,,,,,,,,,,,,,,,,,,,,,,,,,,,,,,,,,,,,,,,,,,,,,,,,,,,,,,,,,,,,,,126.51806249996885,126.51806249996885,61.72354069691308,95.67231445845164,104.79378304389513,116.85374164213755,1.0,1.1,-687,270,-480,278,-278,277,309.26661562919617,309.2666931152344,309.27011919021606,309.281138420105,309.4314522743225,309.4314522743225,309.4314522743225,309.4314522743225,309.4314522743225,309.4314522743225,309.4314522743225,310.79465675354004,1,1.510472059249878,None,,,,,,,,,,,,,,,,,,128,2,2025-02-26_12h52.23.528,comp,2024.2.4,57.81443105708382,2025-02-26 12h52.34.747213 -0500,
99,99,0,filler_random,None,None,None,None,None,None,None,None,None,None,3,1.4508979320526123,None,,,,,0,0,0,0,0,99,99,141,310.8115825653076,,,,,,,,,,,,,,,,,,,,,,,,,,,,,,,,,,,,,,,,,,,,,,,,,,,,,,,,,,,,,,,,,,,,,,,,,,,,,,,,,80.03591541882724,128.2483014847259,110.11913124203696,152.87147002154512,99.23065388603698,197.49786623584046,4.0,4.1,-237,-272,0,13,271,-264,310.7964217662811,310.79655289649963,310.7997648715973,310.8115825653076,310.94776916503906,310.94776916503906,310.94776916503906,310.94776916503906,310.94776916503906,310.94776916503906,310.94776916503906,312.2644987106323,3,1.4508979320526123,None,,,,,,,,,,,,,,,,,,128,2,2025-02-26_12h52.23.528,comp,2024.2.4,57.81443105708382,2025-02-26 12h52.34.747213 -0500,
100,100,0,filler_square,None,None,None,None,None,None,None,None,None,None,2,1.8777012825012207,None,,,,,0,0,0,0,0,100,100,171,312.2811334133148,,,,,,,,,,,,,,,,,,,,,,,,,,,,,,,,,,,,,,,,,,,,,,,,,,,,,,,,,,,,,,,,,,,,,,,,,,,,,,,,,68.6207991569204,63.29302861338719,78.61577377266545,78.61577377266545,67.95100130353815,60.73437439435115,2.1,2.12,-167,-264,0,-265,166,276,312.2663588523865,312.2664358615875,312.2695736885071,312.2811334133148,312.4313430786133,312.4313430786133,312.4313430786133,312.4313430786133,312.4313430786133,312.4313430786133,312.4313430786133,314.1635422706604,2,1.8777012825012207,None,,,,,,,,,,,,,,,,,,128,2,2025-02-26_12h52.23.528,comp,2024.2.4,57.81443105708382,2025-02-26 12h52.34.747213 -0500,
101,101,0,critical,dhw,35.0,2.1,upper,127.0,127.0,200.0,125.0,125.0,200.0,3,2.154503583908081,None,,,,,0,0,0,0,0,101,101,1,314.17980122566223,,,,,,,,,,,,,,,,,,,,,,,,,,,,,,,,,,,,,,,,,,,,,,,,,,,,,,,,,,,,,,,,,,,,,,,,,,,,,,,,,127.0,127.0,200.0,125.0,125.0,200.0,2.1,2.12,-222,-277,0,-282,258,281,314.16505789756775,314.1651334762573,314.1679358482361,314.17980122566223,314.3169972896576,314.3169972896576,314.3169972896576,314.3169972896576,314.3169972896576,314.3169972896576,314.3169972896576,316.3516163825989,3,2.154503583908081,None,,,,,,,,,,,,,,,,,,128,2,2025-02-26_12h52.23.528,comp,2024.2.4,57.81443105708382,2025-02-26 12h52.34.747213 -0500,
102,102,0,filler_random,None,None,None,None,None,None,None,None,None,None,2,1.3943800926208496,None,,,,,0,0,0,0,0,102,102,167,316.3722414970398,,,,,,,,,,,,,,,,,,,,,,,,,,,,,,,,,,,,,,,,,,,,,,,,,,,,,,,,,,,,,,,,,,,,,,,,,,,,,,,,,137.94433159493096,61.44549065823154,160.7108673800686,149.4017220656001,126.93055208395782,182.65679786661684,1.0,1.3,279,-250,480,-278,742,-265,316.3532826900482,316.3534052371979,316.35677552223206,316.3722414970398,316.5125963687897,316.5125963687897,316.5125963687897,316.5125963687897,316.5125963687897,316.5125963687897,316.5125963687897,317.7848358154297,2,1.3943800926208496,None,,,,,,,,,,,,,,,,,,128,2,2025-02-26_12h52.23.528,comp,2024.2.4,57.81443105708382,2025-02-26 12h52.34.747213 -0500,
103,103,0,filler_square,None,None,None,None,None,None,None,None,None,None,1,3.165008544921875,None,,,,,0,0,0,0,0,103,103,183,317.80122089385986,,,,,,,,,,,,,,,,,,,,,,,,,,,,,,,,,,,,,,,,,,,,,,,,,,,,,,,,,,,,,,,,,,,,,,,,,,,,,,,,,63.92871406271477,68.623177393174,63.50732865289107,68.31727429103488,69.13955864861938,69.13955864861938,2.1,2.11,-164,275,0,287,165,-280,317.78675413131714,317.7868812084198,317.79013872146606,317.80122089385986,317.94908809661865,317.94908809661865,317.94908809661865,317.94908809661865,317.94908809661865,317.94908809661865,317.94908809661865,320.98700881004333,1,3.165008544921875,None,,,,,,,,,,,,,,,,,,128,2,2025-02-26_12h52.23.528,comp,2024.2.4,57.81443105708382,2025-02-26 12h52.34.747213 -0500,
104,104,0,critical,hwd,20.0,2.1,upper,200.0,125.0,125.0,200.0,141.0,141.0,1,2.0176162719726562,None,,,,,0,0,0,0,0,104,104,43,321.00461292266846,,,,,,,,,,,,,,,,,,,,,,,,,,,,,,,,,,,,,,,,,,,,,,,,,,,,,,,,,,,,,,,,,,,,,,,,,,,,,,,,,200.0,125.0,125.0,200.0,141.0,141.0,2.1,2.11,-258,283,0,287,266,-253,320.98867321014404,320.98878359794617,320.9920651912689,321.00461292266846,321.15101885795593,321.15101885795593,321.15101885795593,321.15101885795593,321.15101885795593,321.15101885795593,321.15101885795593,323.03690242767334,1,2.0176162719726562,None,,,,,,,,,,,,,,,,,,128,2,2025-02-26_12h52.23.528,comp,2024.2.4,57.81443105708382,2025-02-26 12h52.34.747213 -0500,
105,105,0,filler_square,None,None,None,None,None,None,None,None,None,None,2,1.6285488605499268,None,,,,,0,0,0,0,0,105,105,209,323.057861328125,,,,,,,,,,,,,,,,,,,,,,,,,,,,,,,,,,,,,,,,,,,,,,,,,,,,,,,,,,,,,,,,,,,,,,,,,,,,,,,,,62.409557286489644,64.13904463770494,81.39904184900392,81.39904184900392,63.176251500899525,59.407213449187644,4.0,4.2,-169,-17,0,-256,166,18,323.0388422012329,323.0389196872711,323.04255628585815,323.057861328125,323.20152282714844,323.20152282714844,323.20152282714844,323.20152282714844,323.20152282714844,323.20152282714844,323.20152282714844,324.7008104324341,2,1.6285488605499268,None,,,,,,,,,,,,,,,,,,128,2,2025-02-26_12h52.23.528,comp,2024.2.4,57.81443105708382,2025-02-26 12h52.34.747213 -0500,
106,106,0,catch,None,None,None,None,None,None,None,None,None,None,1,1.105372667312622,None,,,,,0,0,0,0,0,106,106,120,324.71696424484253,,,,,,,,,,,,,,,,,,,,,,,,,,,,,,,,,,,,,,,,,,,,,,,,,,,,,,,,,,,,,,,,,,,,,,,,,,,,,,,,,167,158,95,95,127,63,3.0,3.2,-222,-261,0,-10,175,283,324.70262932777405,324.7027063369751,324.70568919181824,324.71696424484253,324.85579919815063,324.85579919815063,324.85579919815063,324.85579919815063,324.85579919815063,324.85579919815063,324.85579919815063,325.83611822128296,1,1.105372667312622,None,,,,,,,,,,,,,,,,,,128,2,2025-02-26_12h52.23.528,comp,2024.2.4,57.81443105708382,2025-02-26 12h52.34.747213 -0500,
107,107,0,filler_random,None,None,None,None,None,None,None,None,None,None,3,1.337639570236206,None,,,,,0,0,0,0,0,107,107,138,325.85240173339844,,,,,,,,,,,,,,,,,,,,,,,,,,,,,,,,,,,,,,,,,,,,,,,,,,,,,,,,,,,,,,,,,,,,,,,,,,,,,,,,,60.34382671798639,82.70917351865529,146.49420528240444,163.24990068119882,164.9032134043524,152.71145693574283,1.0,1.3,261,-280,480,-276,734,-278,325.83803486824036,325.838121175766,325.8421633243561,325.85240173339844,326.003888130188,326.003888130188,326.003888130188,326.003888130188,326.003888130188,326.003888130188,326.003888130188,327.20264506340027,3,1.337639570236206,None,,,,,,,,,,,,,,,,,,128,2,2025-02-26_12h52.23.528,comp,2024.2.4,57.81443105708382,2025-02-26 12h52.34.747213 -0500,
108,108,0,filler_square,None,None,None,None,None,None,None,None,None,None,1,0.8597266674041748,None,,,,,0,0,0,0,0,108,108,186,327.2186486721039,,,,,,,,,,,,,,,,,,,,,,,,,,,,,,,,,,,,,,,,,,,,,,,,,,,,,,,,,,,,,,,,,,,,,,,,,,,,,,,,,180.226456347937,180.226456347937,86.40026588449645,124.86022380160591,133.92093304004942,59.31900843923387,3.0,3.1,-249,250,0,-12,188,-285,327.20467495918274,327.2047507762909,327.20842599868774,327.2186486721039,327.3703496456146,327.3703496456146,327.3703496456146,327.3703496456146,327.3703496456146,327.3703496456146,327.3703496456146,328.0875174999237,1,0.8597266674041748,None,,,,,,,,,,,,,,,,,,128,2,2025-02-26_12h52.23.528,comp,2024.2.4,57.81443105708382,2025-02-26 12h52.34.747213 -0500,
109,109,0,filler_square,None,None,None,None,None,None,None,None,None,None,2,0.854525089263916,None,,,,,0,0,0,0,0,109,109,178,328.10373711586,,,,,,,,,,,,,,,,,,,,,,,,,,,,,,,,,,,,,,,,,,,,,,,,,,,,,,,,,,,,,,,,,,,,,,,,,,,,,,,,,73.15019165753083,88.53614867235092,137.94277548493787,137.94277548493787,70.80399683759966,85.88151303114273,1.0,1.3,271,-281,480,-288,688,-276,328.0895400047302,328.0896224975586,328.0929641723633,328.10373711586,328.2540099620819,328.2540099620819,328.2540099620819,328.2540099620819,328.2540099620819,328.2540099620819,328.2540099620819,328.9712333679199,2,0.854525089263916,None,,,,,,,,,,,,,,,,,,128,2,2025-02-26_12h52.23.528,comp,2024.2.4,57.81443105708382,2025-02-26 12h52.34.747213 -0500,
110,110,0,filler_square,None,None,None,None,None,None,None,None,None,None,1,0.9402737617492676,None,,,,,0,0,0,0,0,110,110,201,328.98692178726196,,,,,,,,,,,,,,,,,,,,,,,,,,,,,,,,,,,,,,,,,,,,,,,,,,,,,,,,,,,,,,,,,,,,,,,,,,,,,,,,,184.60409357943973,184.60409357943973,107.53029824396799,61.427091863064,96.77005265904674,99.06803552872219,4.0,4.1,-219,-275,0,-19,176,-261,328.9731066226959,328.97324776649475,328.97635436058044,328.98692178726196,329.13695788383484,329.13695788383484,329.13695788383484,329.13695788383484,329.13695788383484,329.13695788383484,329.13695788383484,329.929461479187,1,0.9402737617492676,None,,,,,,,,,,,,,,,,,,128,2,2025-02-26_12h52.23.528,comp,2024.2.4,57.81443105708382,2025-02-26 12h52.34.747213 -0500,
111,111,0,filler_random,None,None,None,None,None,None,None,None,None,None,3,1.1007122993469238,None,,,,,0,0,0,0,0,111,111,169,329.9455142021179,,,,,,,,,,,,,,,,,,,,,,,,,,,,,,,,,,,,,,,,,,,,,,,,,,,,,,,,,,,,,,,,,,,,,,,,,,,,,,,,,110.21210414532027,145.0003297226993,137.53632896557576,164.32190264098912,155.83702204780985,182.49318798476799,3.0,3.1,-251,286,0,16,269,-288,329.93111634254456,329.9312164783478,329.93400526046753,329.9455142021179,330.0899267196655,330.0899267196655,330.0899267196655,330.0899267196655,330.0899267196655,330.0899267196655,330.0899267196655,331.0636124610901,3,1.1007122993469238,None,,,,,,,,,,,,,,,,,,128,2,2025-02-26_12h52.23.528,comp,2024.2.4,57.81443105708382,2025-02-26 12h52.34.747213 -0500,
112,112,0,filler_square,None,None,None,None,None,None,None,None,None,None,1,1.331467628479004,None,,,,,0,0,0,0,0,112,112,208,331.0830068588257,,,,,,,,,,,,,,,,,,,,,,,,,,,,,,,,,,,,,,,,,,,,,,,,,,,,,,,,,,,,,,,,,,,,,,,,,,,,,,,,,196.08524527698484,196.08524527698484,132.43212386957057,114.77612011377548,158.00547840597466,169.47316260642924,4.0,4.1,-251,-285,0,-10,238,-288,331.065358877182,331.0654351711273,331.06823778152466,331.0830068588257,331.2180395126343,331.2180395126343,331.2180395126343,331.2180395126343,331.2180395126343,331.2180395126343,331.2180395126343,332.4256694316864,1,1.331467628479004,None,,,,,,,,,,,,,,,,,,128,2,2025-02-26_12h52.23.528,comp,2024.2.4,57.81443105708382,2025-02-26 12h52.34.747213 -0500,
113,113,0,critical,dwh,35.0,3.0,upper,127.0,127.0,125.0,200.0,200.0,125.0,2,1.5778658390045166,None,,,,,0,0,0,0,0,113,113,63,332.4443790912628,,,,,,,,,,,,,,,,,,,,,,,,,,,,,,,,,,,,,,,,,,,,,,,,,,,,,,,,,,,,,,,,,,,,,,,,,,,,,,,,,127.0,127.0,125.0,200.0,200.0,125.0,3.0,3.2,-260,-251,0,13,258,269,332.42728447914124,332.4273591041565,332.4302589893341,332.4443790912628,332.5880584716797,332.5880584716797,332.5880584716797,332.5880584716797,332.5880584716797,332.5880584716797,332.5880584716797,334.02505230903625,2,1.5778658390045166,None,,,,,,,,,,,,,,,,,,128,2,2025-02-26_12h52.23.528,comp,2024.2.4,57.81443105708382,2025-02-26 12h52.34.747213 -0500,
114,114,0,critical,wdh,35.0,2.1,upper,125.0,200.0,127.0,127.0,200.0,125.0,1,1.5288074016571045,None,,,,,0,0,0,0,0,114,114,9,334.0457031726837,,,,,,,,,,,,,,,,,,,,,,,,,,,,,,,,,,,,,,,,,,,,,,,,,,,,,,,,,,,,,,,,,,,,,,,,,,,,,,,,,125.0,200.0,127.0,127.0,200.0,125.0,2.1,2.12,-260,-277,0,-288,222,255,334.0265190601349,334.0265965461731,334.02999782562256,334.0457031726837,334.1883451938629,334.1883451938629,334.1883451938629,334.1883451938629,334.1883451938629,334.1883451938629,334.1883451938629,335.59263730049133,1,1.5288074016571045,None,,,,,,,,,,,,,,,,,,128,2,2025-02-26_12h52.23.528,comp,2024.2.4,57.81443105708382,2025-02-26 12h52.34.747213 -0500,
115,115,0,filler_square,None,None,None,None,None,None,None,None,None,None,1,0.9815826416015625,None,,,,,0,0,0,0,0,115,115,180,335.60859870910645,,,,,,,,,,,,,,,,,,,,,,,,,,,,,,,,,,,,,,,,,,,,,,,,,,,,,,,,,,,,,,,,,,,,,,,,,,,,,,,,,134.2181710153861,134.2181710153861,112.65711250896838,125.72587581913523,69.41280841606059,118.86746094548039,2.2,2.22,-226,282,0,-252,218,-282,335.5946714878082,335.5947482585907,335.59828186035156,335.60859870910645,335.75590324401855,335.75590324401855,335.75590324401855,335.75590324401855,335.75590324401855,335.75590324401855,335.75590324401855,336.6081063747406,1,0.9815826416015625,None,,,,,,,,,,,,,,,,,,128,2,2025-02-26_12h52.23.528,comp,2024.2.4,57.81443105708382,2025-02-26 12h52.34.747213 -0500,
116,116,0,critical,dhw,35.0,4.0,upper,127.0,127.0,200.0,125.0,125.0,200.0,2,1.501598834991455,None,,,,,0,0,0,0,0,116,116,53,336.6246271133423,,,,,,,,,,,,,,,,,,,,,,,,,,,,,,,,,,,,,,,,,,,,,,,,,,,,,,,,,,,,,,,,,,,,,,,,,,,,,,,,,127.0,127.0,200.0,125.0,125.0,200.0,4.0,4.1,-222,-265,0,-16,258,-262,336.609739780426,336.6098144054413,336.6135768890381,336.6246271133423,336.7729983329773,336.7729983329773,336.7729983329773,336.7729983329773,336.7729983329773,336.7729983329773,336.7729983329773,338.1420407295227,2,1.501598834991455,None,,,,,,,,,,,,,,,,,,128,2,2025-02-26_12h52.23.528,comp,2024.2.4,57.81443105708382,2025-02-26 12h52.34.747213 -0500,
117,117,0,filler_square,None,None,None,None,None,None,None,None,None,None,3,0.9199731349945068,None,,,,,0,0,0,0,0,117,117,170,338.1582975387573,,,,,,,,,,,,,,,,,,,,,,,,,,,,,,,,,,,,,,,,,,,,,,,,,,,,,,,,,,,,,,,,,,,,,,,,,,,,,,,,,118.04593516851739,160.69039469519274,84.91211568418788,78.887039084576,199.80254502204306,199.80254502204306,3.0,3.2,-216,-282,0,11,235,286,338.14402866363525,338.14410614967346,338.14792561531067,338.1582975387573,338.3067910671234,338.3067910671234,338.3067910671234,338.3067910671234,338.3067910671234,338.3067910671234,338.3067910671234,339.09146308898926,3,0.9199731349945068,None,,,,,,,,,,,,,,,,,,128,2,2025-02-26_12h52.23.528,comp,2024.2.4,57.81443105708382,2025-02-26 12h52.34.747213 -0500,
118,118,0,critical,dhw,20.0,1.0,upper,141.0,141.0,200.0,125.0,125.0,200.0,2,1.1180698871612549,None,,,,,0,0,0,0,0,118,118,55,339.1125457286835,,,,,,,,,,,,,,,,,,,,,,,,,,,,,,,,,,,,,,,,,,,,,,,,,,,,,,,,,,,,,,,,,,,,,,,,,,,,,,,,,141.0,141.0,200.0,125.0,125.0,200.0,1.0,1.2,-229,-11,0,-2,258,-5,339.0929548740387,339.0930836200714,339.0968086719513,339.1125457286835,339.25806736946106,339.25806736946106,339.25806736946106,339.25806736946106,339.25806736946106,339.25806736946106,339.25806736946106,340.23961424827576,2,1.1180698871612549,None,,,,,,,,,,,,,,,,,,128,2,2025-02-26_12h52.23.528,comp,2024.2.4,57.81443105708382,2025-02-26 12h52.34.747213 -0500,
119,119,0,critical,hwd,20.0,2.1,lower,133.0,57.0,57.0,133.0,78.0,78.0,2,1.9664363861083984,None,,,,,0,0,0,0,0,119,119,18,340.255818605423,,,,,,,,,,,,,,,,,,,,,,,,,,,,,,,,,,,,,,,,,,,,,,,,,,,,,,,,,,,,,,,,,,,,,,,,,,,,,,,,,133.0,57.0,57.0,133.0,78.0,78.0,2.1,2.11,-191,281,0,273,202,-259,340.24106097221375,340.24113726615906,340.2442400455475,340.255818605423,340.40290808677673,340.40290808677673,340.40290808677673,340.40290808677673,340.40290808677673,340.40290808677673,340.40290808677673,342.2244553565979,2,1.9664363861083984,None,,,,,,,,,,,,,,,,,,128,2,2025-02-26_12h52.23.528,comp,2024.2.4,57.81443105708382,2025-02-26 12h52.34.747213 -0500,
120,120,0,critical,whd,35.0,2.1,upper,125.0,200.0,200.0,125.0,127.0,127.0,2,1.5573201179504395,None,,,,,0,0,0,0,0,120,120,37,342.241578578949,,,,,,,,,,,,,,,,,,,,,,,,,,,,,,,,,,,,,,,,,,,,,,,,,,,,,,,,,,,,,,,,,,,,,,,,,,,,,,,,,125.0,200.0,200.0,125.0,127.0,127.0,2.1,2.11,-258,264,0,261,222,-275,342.22603058815,342.22610902786255,342.2303509712219,342.241578578949,342.3922264575958,342.3922264575958,342.3922264575958,342.3922264575958,342.3922264575958,342.3922264575958,342.3922264575958,343.80842995643616,2,1.5573201179504395,None,,,,,,,,,,,,,,,,,,128,2,2025-02-26_12h52.23.528,comp,2024.2.4,57.81443105708382,2025-02-26 12h52.34.747213 -0500,
121,121,0,critical,hdw,20.0,2.1,lower,133.0,57.0,78.0,78.0,57.0,133.0,3,3.653853416442871,None,,,,,0,0,0,0,0,121,121,46,343.82439374923706,,,,,,,,,,,,,,,,,,,,,,,,,,,,,,,,,,,,,,,,,,,,,,,,,,,,,,,,,,,,,,,,,,,,,,,,,,,,,,,,,133.0,57.0,78.0,78.0,57.0,133.0,2.1,2.12,-164,-265,0,-260,202,269,343.81002616882324,343.81012892723083,343.8136205673218,343.82439374923706,343.971853017807,343.971853017807,343.971853017807,343.971853017807,343.971853017807,343.971853017807,343.971853017807,347.4924385547638,3,3.653853416442871,None,,,,,,,,,,,,,,,,,,128,2,2025-02-26_12h52.23.528,comp,2024.2.4,57.81443105708382,2025-02-26 12h52.34.747213 -0500,
122,122,0,filler_random,None,None,None,None,None,None,None,None,None,None,3,1.2339575290679932,None,,,,,0,0,0,0,0,122,122,157,347.508798122406,,,,,,,,,,,,,,,,,,,,,,,,,,,,,,,,,,,,,,,,,,,,,,,,,,,,,,,,,,,,,,,,,,,,,,,,,,,,,,,,,122.36474437000544,127.6013084774731,174.49504883449873,63.631201555060166,199.2607613152437,149.5053388342519,3.0,3.1,-192,262,0,14,203,-271,347.49435114860535,347.49448442459106,347.4979431629181,347.508798122406,347.65923404693604,347.65923404693604,347.65923404693604,347.65923404693604,347.65923404693604,347.65923404693604,347.65923404693604,348.7508087158203,3,1.2339575290679932,None,,,,,,,,,,,,,,,,,,128,2,2025-02-26_12h52.23.528,comp,2024.2.4,57.81443105708382,2025-02-26 12h52.34.747213 -0500,
123,123,0,critical,wdh,20.0,1.0,lower,57.0,133.0,78.0,78.0,133.0,57.0,3,1.4310436248779297,None,,,,,0,0,0,0,0,123,123,78,348.7671539783478,,,,,,,,,,,,,,,,,,,,,,,,,,,,,,,,,,,,,,,,,,,,,,,,,,,,,,,,,,,,,,,,,,,,,,,,,,,,,,,,,57.0,133.0,78.0,78.0,133.0,57.0,1.0,1.2,-202,11,0,16,164,-10,348.75231552124023,348.7523922920227,348.7556436061859,348.7671539783478,348.9075131416321,348.9075131416321,348.9075131416321,348.9075131416321,348.9075131416321,348.9075131416321,348.9075131416321,350.2087547779083,3,1.4310436248779297,None,,,,,,,,,,,,,,,,,,128,2,2025-02-26_12h52.23.528,comp,2024.2.4,57.81443105708382,2025-02-26 12h52.34.747213 -0500,
124,124,0,filler_random,None,None,None,None,None,None,None,None,None,None,1,2.5894267559051514,None,,,,,0,0,0,0,0,124,124,136,350.2248809337616,,,,,,,,,,,,,,,,,,,,,,,,,,,,,,,,,,,,,,,,,,,,,,,,,,,,,,,,,,,,,,,,,,,,,,,,,,,,,,,,,137.0422947135662,191.19967891143418,160.59135172279034,62.630188357536966,132.070088986261,194.5401213423398,4.0,4.1,-223,-274,0,-8,225,-255,350.21042704582214,350.210501909256,350.2133729457855,350.2248809337616,350.3764429092407,350.3764429092407,350.3764429092407,350.3764429092407,350.3764429092407,350.3764429092407,350.3764429092407,352.8326539993286,1,2.5894267559051514,None,,,,,,,,,,,,,,,,,,128,2,2025-02-26_12h52.23.528,comp,2024.2.4,57.81443105708382,2025-02-26 12h52.34.747213 -0500,
125,125,0,critical,dwh,20.0,4.0,lower,78.0,78.0,57.0,133.0,133.0,57.0,2,2.4301559925079346,None,,,,,0,0,0,0,0,125,125,70,352.84809160232544,,,,,,,,,,,,,,,,,,,,,,,,,,,,,,,,,,,,,,,,,,,,,,,,,,,,,,,,,,,,,,,,,,,,,,,,,,,,,,,,,78.0,78.0,57.0,133.0,133.0,57.0,4.0,4.1,-202,-284,0,-7,191,-279,352.8341820240021,352.83427834510803,352.83706498146057,352.84809160232544,352.9943280220032,352.9943280220032,352.9943280220032,352.9943280220032,352.9943280220032,352.9943280220032,352.9943280220032,355.29448890686035,2,2.4301559925079346,None,,,,,,,,,,,,,,,,,,128,2,2025-02-26_12h52.23.528,comp,2024.2.4,57.81443105708382,2025-02-26 12h52.34.747213 -0500,
126,126,0,filler_square,None,None,None,None,None,None,None,None,None,None,3,1.486457109451294,None,,,,,0,0,0,0,0,126,126,193,355.3118143081665,,,,,,,,,,,,,,,,,,,,,,,,,,,,,,,,,,,,,,,,,,,,,,,,,,,,,,,,,,,,,,,,,,,,,,,,,,,,,,,,,73.58350229637443,58.88581160605057,68.64664060001746,76.30738316156577,84.02808297781283,84.02808297781283,1.0,1.2,-164,-13,0,6,176,-2,355.2961575984955,355.29625272750854,355.29914689064026,355.3118143081665,355.4646906852722,355.4646906852722,355.4646906852722,355.4646906852722,355.4646906852722,355.4646906852722,355.4646906852722,356.8143060207367,3,1.486457109451294,None,,,,,,,,,,,,,,,,,,128,2,2025-02-26_12h52.23.528,comp,2024.2.4,57.81443105708382,2025-02-26 12h52.34.747213 -0500,
127,127,0,filler_square,None,None,None,None,None,None,None,None,None,None,3,0.8725025653839111,None,,,,,0,0,0,0,0,127,127,194,356.83029103279114,,,,,,,,,,,,,,,,,,,,,,,,,,,,,,,,,,,,,,,,,,,,,,,,,,,,,,,,,,,,,,,,,,,,,,,,,,,,,,,,,93.29197856084055,72.39272341986515,119.75036642064646,74.80209986172002,140.0246319565561,140.0246319565561,4.0,4.2,-170,-9,0,-287,203,-7,356.81613326072693,356.81624698638916,356.82006764411926,356.83029103279114,356.97896671295166,356.97896671295166,356.97896671295166,356.97896671295166,356.97896671295166,356.97896671295166,356.97896671295166,357.71276450157166,3,0.8725025653839111,None,,,,,,,,,,,,,,,,,,128,2,2025-02-26_12h52.23.528,comp,2024.2.4,57.81443105708382,2025-02-26 12h52.34.747213 -0500,
128,128,0,filler_random,None,None,None,None,None,None,None,None,None,None,1,0.9096188545227051,None,,,,,0,0,0,0,0,128,128,158,357.72925448417664,,,,,,,,,,,,,,,,,,,,,,,,,,,,,,,,,,,,,,,,,,,,,,,,,,,,,,,,,,,,,,,,,,,,,,,,,,,,,,,,,187.1576247376219,157.7810251560561,181.01677995262378,111.15493169512777,152.34392403952495,161.36385141317496,2.2,2.22,-230,276,0,-286,232,-264,357.7144432067871,357.7145187854767,357.7185242176056,357.72925448417664,357.88628697395325,357.88628697395325,357.88628697395325,357.88628697395325,357.88628697395325,357.88628697395325,357.88628697395325,358.64732789993286,1,0.9096188545227051,None,,,,,,,,,,,,,,,,,,128,2,2025-02-26_12h52.23.528,comp,2024.2.4,57.81443105708382,2025-02-26 12h52.34.747213 -0500,
129,129,0,critical,whd,35.0,3.0,upper,125.0,200.0,200.0,125.0,127.0,127.0,1,2.695693254470825,None,,,,,0,0,0,0,0,129,129,87,358.6627423763275,,,,,,,,,,,,,,,,,,,,,,,,,,,,,,,,,,,,,,,,,,,,,,,,,,,,,,,,,,,,,,,,,,,,,,,,,,,,,,,,,125.0,200.0,200.0,125.0,127.0,127.0,3.0,3.2,-258,-258,0,11,222,260,358.6488654613495,358.6489417552948,358.6521489620209,358.6627423763275,358.81100511550903,358.81100511550903,358.81100511550903,358.81100511550903,358.81100511550903,358.81100511550903,358.81100511550903,361.3696644306183,1,2.695693254470825,None,,,,,,,,,,,,,,,,,,128,2,2025-02-26_12h52.23.528,comp,2024.2.4,57.81443105708382,2025-02-26 12h52.34.747213 -0500,
130,130,0,critical,whd,20.0,2.1,upper,125.0,200.0,200.0,125.0,141.0,141.0,2,2.996150493621826,None,,,,,0,0,0,0,0,130,130,15,361.3862886428833,,,,,,,,,,,,,,,,,,,,,,,,,,,,,,,,,,,,,,,,,,,,,,,,,,,,,,,,,,,,,,,,,,,,,,,,,,,,,,,,,125.0,200.0,200.0,125.0,141.0,141.0,2.1,2.12,-258,-267,0,-257,229,289,361.37126302719116,361.3713390827179,361.37462878227234,361.3862886428833,361.5317015647888,361.5317015647888,361.5317015647888,361.5317015647888,361.5317015647888,361.5317015647888,361.5317015647888,364.39866495132446,2,2.996150493621826,None,,,,,,,,,,,,,,,,,,128,2,2025-02-26_12h52.23.528,comp,2024.2.4,57.81443105708382,2025-02-26 12h52.34.747213 -0500,
131,131,0,critical,hdw,35.0,2.1,lower,133.0,57.0,70.0,70.0,57.0,133.0,1,2.97536301612854,None,,,,,0,0,0,0,0,131,131,20,364.4147596359253,,,,,,,,,,,,,,,,,,,,,,,,,,,,,,,,,,,,,,,,,,,,,,,,,,,,,,,,,,,,,,,,,,,,,,,,,,,,,,,,,133.0,57.0,70.0,70.0,57.0,133.0,2.1,2.12,-160,-263,0,-267,198,271,364.4002363681793,364.4003129005432,364.4035995006561,364.4147596359253,364.5660719871521,364.5660719871521,364.5660719871521,364.5660719871521,364.5660719871521,364.5660719871521,364.5660719871521,367.4048547744751,1,2.97536301612854,None,,,,,,,,,,,,,,,,,,128,2,2025-02-26_12h52.23.528,comp,2024.2.4,57.81443105708382,2025-02-26 12h52.34.747213 -0500,
132,132,0,filler_square,None,None,None,None,None,None,None,None,None,None,3,2.0290369987487793,None,,,,,0,0,0,0,0,132,132,182,367.42542266845703,,,,,,,,,,,,,,,,,,,,,,,,,,,,,,,,,,,,,,,,,,,,,,,,,,,,,,,,,,,,,,,,,,,,,,,,,,,,,,,,,57.07043818329952,66.24443937748194,63.465679330355314,60.27764852528308,66.75902647299823,66.75902647299823,2.2,2.22,-159,260,0,-255,160,-251,367.4068455696106,367.4069230556488,367.41007113456726,367.42542266845703,367.56630635261536,367.56630635261536,367.56630635261536,367.56630635261536,367.56630635261536,367.56630635261536,367.56630635261536,369.4571075439453,3,2.0290369987487793,None,,,,,,,,,,,,,,,,,,128,2,2025-02-26_12h52.23.528,comp,2024.2.4,57.81443105708382,2025-02-26 12h52.34.747213 -0500,
133,133,0,critical,hdw,35.0,3.0,upper,200.0,125.0,127.0,127.0,125.0,200.0,3,0.8587055206298828,None,,,,,0,0,0,0,0,133,133,111,369.47565817832947,,,,,,,,,,,,,,,,,,,,,,,,,,,,,,,,,,,,,,,,,,,,,,,,,,,,,,,,,,,,,,,,,,,,,,,,,,,,,,,,,200.0,125.0,127.0,127.0,125.0,200.0,3.0,3.1,-222,287,0,4,260,-285,369.45862865448,369.45870447158813,369.4615330696106,369.47565817832947,369.6122953891754,369.6122953891754,369.6122953891754,369.6122953891754,369.6122953891754,369.6122953891754,369.6122953891754,370.3398449420929,3,0.8587055206298828,None,,,,,,,,,,,,,,,,,,128,2,2025-02-26_12h52.23.528,comp,2024.2.4,57.81443105708382,2025-02-26 12h52.34.747213 -0500,
134,134,0,filler_square,None,None,None,None,None,None,None,None,None,None,2,0.8466122150421143,None,,,,,0,0,0,0,0,134,134,199,370.3602466583252,,,,,,,,,,,,,,,,,,,,,,,,,,,,,,,,,,,,,,,,,,,,,,,,,,,,,,,,,,,,,,,,,,,,,,,,,,,,,,,,,140.65987455145535,118.37922779512505,150.1270044309454,150.1270044309454,133.08930933326542,74.14770322778615,3.0,3.2,-230,-263,0,8,208,264,370.34157037734985,370.34164667129517,370.34455156326294,370.3602466583252,370.5009014606476,370.5009014606476,370.5009014606476,370.5009014606476,370.5009014606476,370.5009014606476,370.5009014606476,371.2172713279724,2,0.8466122150421143,None,,,,,,,,,,,,,,,,,,128,2,2025-02-26_12h52.23.528,comp,2024.2.4,57.81443105708382,2025-02-26 12h52.34.747213 -0500,
135,135,0,critical,wdh,35.0,2.1,upper,125.0,200.0,127.0,127.0,200.0,125.0,1,1.4850740432739258,None,,,,,0,0,0,0,0,135,135,33,371.23348689079285,,,,,,,,,,,,,,,,,,,,,,,,,,,,,,,,,,,,,,,,,,,,,,,,,,,,,,,,,,,,,,,,,,,,,,,,,,,,,,,,,125.0,200.0,127.0,127.0,200.0,125.0,2.1,2.11,-260,258,0,264,222,-283,371.2187604904175,371.2188386917114,371.22289633750916,371.23348689079285,371.38609743118286,371.38609743118286,371.38609743118286,371.38609743118286,371.38609743118286,371.38609743118286,371.38609743118286,372.72359323501587,1,1.4850740432739258,None,,,,,,,,,,,,,,,,,,128,2,2025-02-26_12h52.23.528,comp,2024.2.4,57.81443105708382,2025-02-26 12h52.34.747213 -0500,
136,136,0,critical,hdw,35.0,4.0,lower,133.0,57.0,70.0,70.0,57.0,133.0,3,2.767857789993286,None,,,,,0,0,0,0,0,136,136,112,372.7436263561249,,,,,,,,,,,,,,,,,,,,,,,,,,,,,,,,,,,,,,,,,,,,,,,,,,,,,,,,,,,,,,,,,,,,,,,,,,,,,,,,,133.0,57.0,70.0,70.0,57.0,133.0,4.0,4.1,-160,-280,0,-3,198,-259,372.72503566741943,372.72511172294617,372.72794580459595,372.7436263561249,372.88487219810486,372.88487219810486,372.88487219810486,372.88487219810486,372.88487219810486,372.88487219810486,372.88487219810486,375.52013874053955,3,2.767857789993286,None,,,,,,,,,,,,,,,,,,128,2,2025-02-26_12h52.23.528,comp,2024.2.4,57.81443105708382,2025-02-26 12h52.34.747213 -0500,
137,137,0,critical,whd,20.0,2.1,lower,57.0,133.0,133.0,57.0,78.0,78.0,2,3.6385610103607178,None,,,,,0,0,0,0,0,137,137,38,375.5357573032379,,,,,,,,,,,,,,,,,,,,,,,,,,,,,,,,,,,,,,,,,,,,,,,,,,,,,,,,,,,,,,,,,,,,,,,,,,,,,,,,,57.0,133.0,133.0,57.0,78.0,78.0,2.1,2.11,-191,263,0,285,164,-286,375.52162885665894,375.5217046737671,375.5249288082123,375.5357573032379,375.68474435806274,375.68474435806274,375.68474435806274,375.68474435806274,375.68474435806274,375.68474435806274,375.68474435806274,379.18681240081787,2,3.6385610103607178,None,,,,,,,,,,,,,,,,,,128,2,2025-02-26_12h52.23.528,comp,2024.2.4,57.81443105708382,2025-02-26 12h52.34.747213 -0500,
138,138,0,critical,whd,35.0,1.0,lower,57.0,133.0,133.0,57.0,70.0,70.0,2,6.4260382652282715,None,,,,,0,0,0,0,0,138,138,84,379.2057857513428,,,,,,,,,,,,,,,,,,,,,,,,,,,,,,,,,,,,,,,,,,,,,,,,,,,,,,,,,,,,,,,,,,,,,,,,,,,,,,,,,57.0,133.0,133.0,57.0,70.0,70.0,1.0,1.2,-191,17,0,2,160,5,379.1884124279022,379.18848967552185,379.191739320755,379.2057857513428,379.3518576622009,379.3518576622009,379.3518576622009,379.3518576622009,379.3518576622009,379.3518576622009,379.3518576622009,385.6346158981323,2,6.4260382652282715,None,,,,,,,,,,,,,,,,,,128,2,2025-02-26_12h52.23.528,comp,2024.2.4,57.81443105708382,2025-02-26 12h52.34.747213 -0500,
139,139,0,filler_random,None,None,None,None,None,None,None,None,None,None,2,1.7465095520019531,None,,,,,0,0,0,0,0,139,139,144,385.6518838405609,,,,,,,,,,,,,,,,,,,,,,,,,,,,,,,,,,,,,,,,,,,,,,,,,,,,,,,,,,,,,,,,,,,,,,,,,,,,,,,,,199.15896531848196,129.2821078895939,158.809721082927,183.20988426661842,158.65575287794383,65.43326363749178,3.0,3.2,-252,-283,0,19,220,277,385.63645482063293,385.63656067848206,385.6397376060486,385.6518838405609,385.7977981567383,385.7977981567383,385.7977981567383,385.7977981567383,385.7977981567383,385.7977981567383,385.7977981567383,387.4086880683899,2,1.7465095520019531,None,,,,,,,,,,,,,,,,,,128,2,2025-02-26_12h52.23.528,comp,2024.2.4,57.81443105708382,2025-02-26 12h52.34.747213 -0500,
