thisN,thisTrialN,thisRepN,effect,order,distance,config,diag,h_1,w_1,h_2,w_2,h_3,w_3,rect_choice.keys,rect_choice.rt,rect_choice.duration,instructions_loop.thisRepN,instructions_loop.thisTrialN,instructions_loop.thisN,instructions_loop.thisIndex,blocks.thisRepN,blocks.thisTrialN,blocks.thisN,blocks.thisIndex,trials.thisRepN,trials.thisTrialN,trials.thisN,trials.thisIndex,thisRow.t,notes,consent.started,agree_button.started,decline_button.started,consent_img.started,mouse.started,consent.stopped,agree_button.numClicks,agree_button.timesOn,agree_button.timesOff,decline_button.numClicks,decline_button.timesOn,decline_button.timesOff,mouse.x,mouse.y,mouse.leftButton,mouse.midButton,mouse.rightButton,mouse.time,mouse.clicked_name,exp_params.started,exp_params.stopped,welcome.started,welcome_text.started,welcome.stopped,instructions_1.started,instructions_1_text_1.started,instructions_1_text_2.started,key_resp.started,instructions_1.stopped,instructions_loop.key_resp.keys,instructions_loop.key_resp.rt,instructions_loop.key_resp.duration,instructions_2.started,instructions_2_text_1.started,instructions_2_text_2.started,key_resp_2.started,instructions_2.stopped,instructions_loop.key_resp_2.keys,instructions_loop.key_resp_2.rt,instructions_loop.key_resp_2.duration,instructions_3.started,instructions_3_text_1.started,r1_instr3.started,r2_instr3.started,r3_instr3.started,r1_instr3_label.started,r2_instr3_label.started,r3_instr3_label.started,instructions_3_text_3.started,instructions_3_text_4.started,key_resp_3.started,instructions_3.stopped,instructions_loop.key_resp_3.keys,instructions_loop.key_resp_3.rt,instructions_loop.key_resp_3.duration,instructions_4.started,instructions_4_text_1.started,instructions_4_text_3.started,instructions_4_text_2.started,key_resp_4.started,instructions_4.stopped,instructions_loop.key_resp_4.keys,instructions_loop.key_resp_4.rt,instructions_loop.key_resp_4.duration,instructions_5.started,instructions_5_text_1.started,instructions_5_text_2.started,key_resp_5.started,instructions_5.stopped,instructions_loop.key_resp_5.keys,instructions_loop.key_resp_5.rt,instructions_loop.key_resp_5.duration,start_exp.started,start_exp_text.started,key_resp_6.started,start_exp.stopped,key_resp_6.keys,key_resp_6.rt,key_resp_6.duration,h_1_tmp,w_1_tmp,h_2_tmp,w_2_tmp,h_3_tmp,w_3_tmp,config_tmp,config_tmp_1,r_1_x,r_1_y,r_2_x,r_2_y,r_3_x,r_3_y,pre_trial.started,pre_trial.stopped,choice_trial.started,rect_choice.started,r_1.started,r_2.started,r_3.started,r_1_label.started,r_2_label.started,r_3_label.started,prompt.started,choice_trial.stopped,trials.rect_choice.keys,trials.rect_choice.rt,trials.rect_choice.duration,end_block.started,end_block_text.started,end_block.stopped,end.started,end_text.started,key_resp_7.started,end.stopped,key_resp_7.keys,key_resp_7.rt,key_resp_7.duration,debriefing.started,debrief_form.started,end_debrief.started,debriefing.stopped,end_debrief.keys,end_debrief.rt,end_debrief.duration,participant,computer,date,expName,psychopyVersion,frameRate,expStart,
,,,,,,,,,,,,,,,,,,,,,,,,,,,,,,,0.015380620956420898,0.041089534759521484,0.041089534759521484,0.041089534759521484,0.01482701301574707,19.226381063461304,1,[19.184000968933105],[19.18401288986206],0,,,[-76.0],[-514.0],[1],[0],[0],[19.21045207977295],['agree_button'],,,,,,,,,,,,,,,,,,,,,,,,,,,,,,,,,,,,,,,,,,,,,,,,,,,,,,,,,,,,,,,,,,,,,,,,,,,,,,,,,,,,,,,,,,,,,,,,,,,,,,,,,,,129,3,2025-02-26_12h53.23.225,comp,2024.2.4,60.04480844746604,2025-02-26 12h53.34.594061 -0500,
,,,,,,,,,,,,,,,,,,,,,,,,,,,,,,,,,,,,,,,,,,,,,,,,,,19.226864099502563,19.226897954940796,,,,,,,,,,,,,,,,,,,,,,,,,,,,,,,,,,,,,,,,,,,,,,,,,,,,,,,,,,,,,,,,,,,,,,,,,,,,,,,,,,,,,,,,,,,,,,,,,,,,,,,,,129,3,2025-02-26_12h53.23.225,comp,2024.2.4,60.04480844746604,2025-02-26 12h53.34.594061 -0500,
,,,,,,,,,,,,,,,,,,,,,,,,,,,,,,,,,,,,,,,,,,,,,,,,,,,,19.22692036628723,19.24015974998474,21.236740112304688,,,,,,,,,,,,,,,,,,,,,,,,,,,,,,,,,,,,,,,,,,,,,,,,,,,,,,,,,,,,,,,,,,,,,,,,,,,,,,,,,,,,,,,,,,,,,,,,,,,,,,129,3,2025-02-26_12h53.23.225,comp,2024.2.4,60.04480844746604,2025-02-26 12h53.34.594061 -0500,
0,0,0,,,,,,,,,,,,,,,0,0,0,0,,,,,,,,,21.253550052642822,,,,,,,,,,,,,,,,,,,,,,,,,,21.237272262573242,21.253550052642822,21.253550052642822,22.736749172210693,25.37163758277893,space,2.6188888549804688,None,25.371723175048828,25.38695192337036,25.38695192337036,26.886803150177002,31.52134394645691,space,4.631089925765991,None,31.52143120765686,31.543229341506958,31.543229341506958,31.543229341506958,31.543229341506958,31.543229341506958,31.543229341506958,31.543229341506958,31.543229341506958,31.543229341506958,33.02050018310547,38.42170023918152,space,5.383671998977661,None,38.42178678512573,38.43696331977844,38.43696331977844,38.43696331977844,39.93674683570862,47.68776059150696,space,7.733060359954834,None,47.687848806381226,47.70350790023804,47.70350790023804,49.20336365699768,50.354408979415894,space,1.145061731338501,None,50.35452318191528,50.370163679122925,50.370163679122925,52.488041400909424,space,2.0998635292053223,None,,,,,,,,,,,,,,,,,,,,,,,,,,,,,,,,,,,,,,,,,,,,,,,129,3,2025-02-26_12h53.23.225,comp,2024.2.4,60.04480844746604,2025-02-26 12h53.34.594061 -0500,
0,0,0,critical,whd,35.0,3.0,upper,125.0,200.0,200.0,125.0,127.0,127.0,1,6.017558336257935,None,,,,,0,0,0,0,0,0,0,87,52.546751737594604,,,,,,,,,,,,,,,,,,,,,,,,,,,,,,,,,,,,,,,,,,,,,,,,,,,,,,,,,,,,,,,,,,,,,,,,,,,,,,,,,125.0,200.0,200.0,125.0,127.0,127.0,3.0,3.1,-258,267,0,15,222,-251,52.53318190574646,52.533225297927856,52.53522324562073,52.546751737594604,52.69372320175171,52.69372320175171,52.69372320175171,52.69372320175171,52.69372320175171,52.69372320175171,52.69372320175171,58.571353912353516,1,6.017558336257935,None,,,,,,,,,,,,,,,,,,129,3,2025-02-26_12h53.23.225,comp,2024.2.4,60.04480844746604,2025-02-26 12h53.34.594061 -0500,
1,1,0,critical,wdh,35.0,1.0,lower,57.0,133.0,70.0,70.0,133.0,57.0,1,4.65019679069519,None,,,,,0,0,0,0,0,1,1,72,58.58672094345093,,,,,,,,,,,,,,,,,,,,,,,,,,,,,,,,,,,,,,,,,,,,,,,,,,,,,,,,,,,,,,,,,,,,,,,,,,,,,,,,,57.0,133.0,70.0,70.0,133.0,57.0,1.0,1.2,-198,15,0,16,160,17,58.57215476036072,58.57219338417053,58.574395179748535,58.58672094345093,58.736937522888184,58.736937522888184,58.736937522888184,58.736937522888184,58.736937522888184,58.736937522888184,58.736937522888184,63.25433301925659,1,4.65019679069519,None,,,,,,,,,,,,,,,,,,129,3,2025-02-26_12h53.23.225,comp,2024.2.4,60.04480844746604,2025-02-26 12h53.34.594061 -0500,
2,2,0,critical,dwh,35.0,2.1,upper,127.0,127.0,125.0,200.0,200.0,125.0,2,4.616108417510986,None,,,,,0,0,0,0,0,2,2,29,63.26981043815613,,,,,,,,,,,,,,,,,,,,,,,,,,,,,,,,,,,,,,,,,,,,,,,,,,,,,,,,,,,,,,,,,,,,,,,,,,,,,,,,,127.0,127.0,125.0,200.0,200.0,125.0,2.1,2.12,-260,-265,0,-279,258,256,63.2551326751709,63.25517296791077,63.257712841033936,63.26981043815613,63.42020082473755,63.42020082473755,63.42020082473755,63.42020082473755,63.42020082473755,63.42020082473755,63.42020082473755,67.88798689842224,2,4.616108417510986,None,,,,,,,,,,,,,,,,,,129,3,2025-02-26_12h53.23.225,comp,2024.2.4,60.04480844746604,2025-02-26 12h53.34.594061 -0500,
3,3,0,critical,dhw,20.0,1.0,upper,141.0,141.0,200.0,125.0,125.0,200.0,3,3.908573865890503,None,,,,,0,0,0,0,0,3,3,55,67.90360617637634,,,,,,,,,,,,,,,,,,,,,,,,,,,,,,,,,,,,,,,,,,,,,,,,,,,,,,,,,,,,,,,,,,,,,,,,,,,,,,,,,141.0,141.0,200.0,125.0,125.0,200.0,1.0,1.2,-229,19,0,-18,258,18,67.88876748085022,67.88880681991577,67.89089941978455,67.90360617637634,68.05355882644653,68.05355882644653,68.05355882644653,68.05355882644653,68.05355882644653,68.05355882644653,68.05355882644653,71.82112860679626,3,3.908573865890503,None,,,,,,,,,,,,,,,,,,129,3,2025-02-26_12h53.23.225,comp,2024.2.4,60.04480844746604,2025-02-26 12h53.34.594061 -0500,
4,4,0,critical,hdw,35.0,4.0,upper,200.0,125.0,127.0,127.0,125.0,200.0,3,4.694995164871216,None,,,,,0,0,0,0,0,4,4,113,71.83708930015564,,,,,,,,,,,,,,,,,,,,,,,,,,,,,,,,,,,,,,,,,,,,,,,,,,,,,,,,,,,,,,,,,,,,,,,,,,,,,,,,,200.0,125.0,127.0,127.0,125.0,200.0,4.0,4.2,-222,1,0,-283,260,0,71.82191729545593,71.82195663452148,71.82402086257935,71.83708930015564,71.98678660392761,71.98678660392761,71.98678660392761,71.98678660392761,71.98678660392761,71.98678660392761,71.98678660392761,76.53804063796997,3,4.694995164871216,None,,,,,,,,,,,,,,,,,,129,3,2025-02-26_12h53.23.225,comp,2024.2.4,60.04480844746604,2025-02-26 12h53.34.594061 -0500,
5,5,0,filler_random,None,None,None,None,None,None,None,None,None,None,3,4.505466938018799,None,,,,,0,0,0,0,0,5,5,133,76.55359506607056,,,,,,,,,,,,,,,,,,,,,,,,,,,,,,,,,,,,,,,,,,,,,,,,,,,,,,,,,,,,,,,,,,,,,,,,,,,,,,,,,158.95807238554133,115.79993860137077,118.91519817692003,108.99828655220591,139.93155084024465,179.16805172001307,2.1,2.12,-208,-287,0,-259,240,272,76.53897070884705,76.53901243209839,76.54110932350159,76.55359506607056,76.70359468460083,76.70359468460083,76.70359468460083,76.70359468460083,76.70359468460083,76.70359468460083,76.70359468460083,81.07156753540039,3,4.505466938018799,None,,,,,,,,,,,,,,,,,,129,3,2025-02-26_12h53.23.225,comp,2024.2.4,60.04480844746604,2025-02-26 12h53.34.594061 -0500,
6,6,0,critical,wdh,35.0,1.0,upper,125.0,200.0,127.0,127.0,200.0,125.0,1,8.14153528213501,None,,,,,0,0,0,0,0,6,6,73,81.08640480041504,,,,,,,,,,,,,,,,,,,,,,,,,,,,,,,,,,,,,,,,,,,,,,,,,,,,,,,,,,,,,,,,,,,,,,,,,,,,,,,,,125.0,200.0,127.0,127.0,200.0,125.0,1.0,1.2,-260,-14,0,-9,222,12,81.07237219810486,81.07241129875183,81.07485103607178,81.08640480041504,81.23665285110474,81.23665285110474,81.23665285110474,81.23665285110474,81.23665285110474,81.23665285110474,81.23665285110474,89.23770785331726,1,8.14153528213501,None,,,,,,,,,,,,,,,,,,129,3,2025-02-26_12h53.23.225,comp,2024.2.4,60.04480844746604,2025-02-26 12h53.34.594061 -0500,
7,7,0,critical,whd,35.0,2.1,lower,57.0,133.0,133.0,57.0,70.0,70.0,2,3.048224925994873,None,,,,,0,0,0,0,0,7,7,12,89.25346398353577,,,,,,,,,,,,,,,,,,,,,,,,,,,,,,,,,,,,,,,,,,,,,,,,,,,,,,,,,,,,,,,,,,,,,,,,,,,,,,,,,57.0,133.0,133.0,57.0,70.0,70.0,2.1,2.12,-191,-270,0,-258,160,282,89.23852968215942,89.23858308792114,89.2407021522522,89.25346398353577,89.40315961837769,89.40315961837769,89.40315961837769,89.40315961837769,89.40315961837769,89.40315961837769,89.40315961837769,92.30434465408325,2,3.048224925994873,None,,,,,,,,,,,,,,,,,,129,3,2025-02-26_12h53.23.225,comp,2024.2.4,60.04480844746604,2025-02-26 12h53.34.594061 -0500,
8,8,0,filler_square,None,None,None,None,None,None,None,None,None,None,1,2.7496907711029053,None,,,,,0,0,0,0,0,8,8,184,92.31987118721008,,,,,,,,,,,,,,,,,,,,,,,,,,,,,,,,,,,,,,,,,,,,,,,,,,,,,,,,,,,,,,,,,,,,,,,,,,,,,,,,,112.05839335641687,112.05839335641687,63.82217595674696,68.53879470040303,99.23094252470239,93.51824784937213,4.0,4.2,-186,-6,0,-275,177,16,92.3052704334259,92.3053092956543,92.30782437324524,92.31987118721008,92.46988248825073,92.46988248825073,92.46988248825073,92.46988248825073,92.46988248825073,92.46988248825073,92.46988248825073,95.07102298736572,1,2.7496907711029053,None,,,,,,,,,,,,,,,,,,129,3,2025-02-26_12h53.23.225,comp,2024.2.4,60.04480844746604,2025-02-26 12h53.34.594061 -0500,
9,9,0,critical,hwd,20.0,3.0,lower,133.0,57.0,57.0,133.0,78.0,78.0,1,9.957592725753784,None,,,,,0,0,0,0,0,9,9,104,95.08650851249695,,,,,,,,,,,,,,,,,,,,,,,,,,,,,,,,,,,,,,,,,,,,,,,,,,,,,,,,,,,,,,,,,,,,,,,,,,,,,,,,,133.0,57.0,57.0,133.0,78.0,78.0,3.0,3.2,-191,-260,0,-10,202,277,95.07182455062866,95.07186317443848,95.07425117492676,95.08650851249695,95.23645353317261,95.23645353317261,95.23645353317261,95.23645353317261,95.23645353317261,95.23645353317261,95.23645353317261,105.05414462089539,1,9.957592725753784,None,,,,,,,,,,,,,,,,,,129,3,2025-02-26_12h53.23.225,comp,2024.2.4,60.04480844746604,2025-02-26 12h53.34.594061 -0500,
10,10,0,critical,whd,35.0,4.0,upper,125.0,200.0,200.0,125.0,127.0,127.0,2,1.9012260437011719,None,,,,,0,0,0,0,0,10,10,89,105.06983399391174,,,,,,,,,,,,,,,,,,,,,,,,,,,,,,,,,,,,,,,,,,,,,,,,,,,,,,,,,,,,,,,,,,,,,,,,,,,,,,,,,125.0,200.0,200.0,125.0,127.0,127.0,4.0,4.1,-258,-266,0,17,222,-250,105.05495381355286,105.05499458312988,105.0569953918457,105.06983399391174,105.22005105018616,105.22005105018616,105.22005105018616,105.22005105018616,105.22005105018616,105.22005105018616,105.22005105018616,106.9876058101654,2,1.9012260437011719,None,,,,,,,,,,,,,,,,,,129,3,2025-02-26_12h53.23.225,comp,2024.2.4,60.04480844746604,2025-02-26 12h53.34.594061 -0500,
11,11,0,filler_random,None,None,None,None,None,None,None,None,None,None,1,3.536201000213623,None,,,,,0,0,0,0,0,11,11,156,107.00290012359619,,,,,,,,,,,,,,,,,,,,,,,,,,,,,,,,,,,,,,,,,,,,,,,,,,,,,,,,,,,,,,,,,,,,,,,,,,,,,,,,,155.0966506902607,147.51168745181462,140.8996471513564,106.63520956796674,154.10168329915942,114.65734512347446,1.0,1.2,-223,12,0,13,207,7,106.98847222328186,106.98851132392883,106.99060583114624,107.00290012359619,107.15319871902466,107.15319871902466,107.15319871902466,107.15319871902466,107.15319871902466,107.15319871902466,107.15319871902466,110.5542380809784,1,3.536201000213623,None,,,,,,,,,,,,,,,,,,129,3,2025-02-26_12h53.23.225,comp,2024.2.4,60.04480844746604,2025-02-26 12h53.34.594061 -0500,
12,12,0,filler_square,None,None,None,None,None,None,None,None,None,None,2,1.9533894062042236,None,,,,,0,0,0,0,0,12,12,201,110.5696804523468,,,,,,,,,,,,,,,,,,,,,,,,,,,,,,,,,,,,,,,,,,,,,,,,,,,,,,,,,,,,,,,,,,,,,,,,,,,,,,,,,81.28843517498188,72.47923791089423,87.8669904021272,87.8669904021272,73.33459436264219,71.04070157640328,2.2,2.21,-176,-261,0,282,175,252,110.55517482757568,110.5552146434784,110.55721426010132,110.5696804523468,110.71960616111755,110.71960616111755,110.71960616111755,110.71960616111755,110.71960616111755,110.71960616111755,110.71960616111755,112.5373363494873,2,1.9533894062042236,None,,,,,,,,,,,,,,,,,,129,3,2025-02-26_12h53.23.225,comp,2024.2.4,60.04480844746604,2025-02-26 12h53.34.594061 -0500,
13,13,0,catch,None,None,None,None,None,None,None,None,None,None,1,1.8269858360290527,None,,,,,0,0,0,0,0,13,13,122,112.55283808708191,,,,,,,,,,,,,,,,,,,,,,,,,,,,,,,,,,,,,,,,,,,,,,,,,,,,,,,,,,,,,,,,,,,,,,,,,,,,,,,,,153,172,96,94,63,127,1.0,1.3,251,-286,480,-264,686,-258,112.53841161727905,112.53845167160034,112.5410475730896,112.55283808708191,112.70328617095947,112.70328617095947,112.70328617095947,112.70328617095947,112.70328617095947,112.70328617095947,112.70328617095947,114.38748002052307,1,1.8269858360290527,None,,,,,,,,,,,,,,,,,,129,3,2025-02-26_12h53.23.225,comp,2024.2.4,60.04480844746604,2025-02-26 12h53.34.594061 -0500,
14,14,0,critical,hdw,20.0,2.1,lower,133.0,57.0,78.0,78.0,57.0,133.0,3,5.935928583145142,None,,,,,0,0,0,0,0,14,14,46,114.40309000015259,,,,,,,,,,,,,,,,,,,,,,,,,,,,,,,,,,,,,,,,,,,,,,,,,,,,,,,,,,,,,,,,,,,,,,,,,,,,,,,,,133.0,57.0,78.0,78.0,57.0,133.0,2.1,2.11,-164,282,0,285,202,-273,114.38830614089966,114.38834643363953,114.39041423797607,114.40309000015259,114.55285692214966,114.55285692214966,114.55285692214966,114.55285692214966,114.55285692214966,114.55285692214966,114.55285692214966,120.3539891242981,3,5.935928583145142,None,,,,,,,,,,,,,,,,,,129,3,2025-02-26_12h53.23.225,comp,2024.2.4,60.04480844746604,2025-02-26 12h53.34.594061 -0500,
15,15,0,critical,dhw,35.0,1.0,upper,127.0,127.0,200.0,125.0,125.0,200.0,3,2.2174394130706787,None,,,,,0,0,0,0,0,15,15,49,120.36947727203369,,,,,,,,,,,,,,,,,,,,,,,,,,,,,,,,,,,,,,,,,,,,,,,,,,,,,,,,,,,,,,,,,,,,,,,,,,,,,,,,,127.0,127.0,200.0,125.0,125.0,200.0,1.0,1.3,258,-289,480,-262,738,-268,120.35480570793152,120.35484623908997,120.35729956626892,120.36947727203369,120.51980972290039,120.51980972290039,120.51980972290039,120.51980972290039,120.51980972290039,120.51980972290039,120.51980972290039,122.60416674613953,3,2.2174394130706787,None,,,,,,,,,,,,,,,,,,129,3,2025-02-26_12h53.23.225,comp,2024.2.4,60.04480844746604,2025-02-26 12h53.34.594061 -0500,
16,16,0,critical,whd,20.0,3.0,upper,125.0,200.0,200.0,125.0,141.0,141.0,1,2.6392016410827637,None,,,,,0,0,0,0,0,16,16,93,122.61954641342163,,,,,,,,,,,,,,,,,,,,,,,,,,,,,,,,,,,,,,,,,,,,,,,,,,,,,,,,,,,,,,,,,,,,,,,,,,,,,,,,,125.0,200.0,200.0,125.0,141.0,141.0,3.0,3.1,-258,264,0,-16,229,-275,122.60497188568115,122.60501194000244,122.6083927154541,122.61954641342163,122.76979112625122,122.76979112625122,122.76979112625122,122.76979112625122,122.76979112625122,122.76979112625122,122.76979112625122,125.27110528945923,1,2.6392016410827637,None,,,,,,,,,,,,,,,,,,129,3,2025-02-26_12h53.23.225,comp,2024.2.4,60.04480844746604,2025-02-26 12h53.34.594061 -0500,
17,17,0,critical,dwh,20.0,1.0,upper,141.0,141.0,125.0,200.0,200.0,125.0,2,3.3504927158355713,None,,,,,0,0,0,0,0,17,17,67,125.28609275817871,,,,,,,,,,,,,,,,,,,,,,,,,,,,,,,,,,,,,,,,,,,,,,,,,,,,,,,,,,,,,,,,,,,,,,,,,,,,,,,,,141.0,141.0,125.0,200.0,200.0,125.0,1.0,1.1,-746,280,-480,266,-222,263,125.27192616462708,125.27196502685547,125.27435660362244,125.28609275817871,125.43635702133179,125.43635702133179,125.43635702133179,125.43635702133179,125.43635702133179,125.43635702133179,125.43635702133179,128.65410780906677,2,3.3504927158355713,None,,,,,,,,,,,,,,,,,,129,3,2025-02-26_12h53.23.225,comp,2024.2.4,60.04480844746604,2025-02-26 12h53.34.594061 -0500,
18,18,0,critical,wdh,35.0,3.0,lower,57.0,133.0,70.0,70.0,133.0,57.0,1,2.832073450088501,None,,,,,0,0,0,0,0,18,18,74,128.66935777664185,,,,,,,,,,,,,,,,,,,,,,,,,,,,,,,,,,,,,,,,,,,,,,,,,,,,,,,,,,,,,,,,,,,,,,,,,,,,,,,,,57.0,133.0,70.0,70.0,133.0,57.0,3.0,3.1,-198,274,0,-15,160,-287,128.6549427509308,128.65498304367065,128.65744996070862,128.66935777664185,128.81946969032288,128.81946969032288,128.81946969032288,128.81946969032288,128.81946969032288,128.81946969032288,128.81946969032288,131.50411462783813,1,2.832073450088501,None,,,,,,,,,,,,,,,,,,129,3,2025-02-26_12h53.23.225,comp,2024.2.4,60.04480844746604,2025-02-26 12h53.34.594061 -0500,
19,19,0,critical,hwd,35.0,2.1,upper,200.0,125.0,125.0,200.0,127.0,127.0,2,5.133582353591919,None,,,,,0,0,0,0,0,19,19,41,131.5195915699005,,,,,,,,,,,,,,,,,,,,,,,,,,,,,,,,,,,,,,,,,,,,,,,,,,,,,,,,,,,,,,,,,,,,,,,,,,,,,,,,,200.0,125.0,125.0,200.0,127.0,127.0,2.1,2.11,-258,286,0,278,260,-288,131.5050446987152,131.5050868988037,131.50769805908203,131.5195915699005,131.669819355011,131.669819355011,131.669819355011,131.669819355011,131.669819355011,131.669819355011,131.669819355011,136.67079162597656,2,5.133582353591919,None,,,,,,,,,,,,,,,,,,129,3,2025-02-26_12h53.23.225,comp,2024.2.4,60.04480844746604,2025-02-26 12h53.34.594061 -0500,
20,20,0,critical,wdh,35.0,3.0,upper,125.0,200.0,127.0,127.0,200.0,125.0,1,2.4689433574676514,None,,,,,0,0,0,0,0,20,20,75,136.68597435951233,,,,,,,,,,,,,,,,,,,,,,,,,,,,,,,,,,,,,,,,,,,,,,,,,,,,,,,,,,,,,,,,,,,,,,,,,,,,,,,,,125.0,200.0,127.0,127.0,200.0,125.0,3.0,3.1,-260,252,0,8,222,-288,136.67160606384277,136.67164635658264,136.67493629455566,136.68597435951233,136.83635592460632,136.83635592460632,136.83635592460632,136.83635592460632,136.83635592460632,136.83635592460632,136.83635592460632,139.1707739830017,1,2.4689433574676514,None,,,,,,,,,,,,,,,,,,129,3,2025-02-26_12h53.23.225,comp,2024.2.4,60.04480844746604,2025-02-26 12h53.34.594061 -0500,
21,21,0,critical,wdh,20.0,4.0,upper,125.0,200.0,141.0,141.0,200.0,125.0,1,2.5848212242126465,None,,,,,0,0,0,0,0,21,21,83,139.18596959114075,,,,,,,,,,,,,,,,,,,,,,,,,,,,,,,,,,,,,,,,,,,,,,,,,,,,,,,,,,,,,,,,,,,,,,,,,,,,,,,,,125.0,200.0,141.0,141.0,200.0,125.0,4.0,4.2,-266,19,0,-272,229,-8,139.17156887054443,139.17160844802856,139.1739625930786,139.18596959114075,139.3363938331604,139.3363938331604,139.3363938331604,139.3363938331604,139.3363938331604,139.3363938331604,139.3363938331604,141.7873351573944,1,2.5848212242126465,None,,,,,,,,,,,,,,,,,,129,3,2025-02-26_12h53.23.225,comp,2024.2.4,60.04480844746604,2025-02-26 12h53.34.594061 -0500,
22,22,0,critical,hdw,35.0,2.1,upper,200.0,125.0,127.0,127.0,125.0,200.0,3,1.6560945510864258,None,,,,,0,0,0,0,0,22,22,45,141.8026466369629,,,,,,,,,,,,,,,,,,,,,,,,,,,,,,,,,,,,,,,,,,,,,,,,,,,,,,,,,,,,,,,,,,,,,,,,,,,,,,,,,200.0,125.0,127.0,127.0,125.0,200.0,2.1,2.11,-222,273,0,270,260,-263,141.78817296028137,141.7882125377655,141.79072427749634,141.8026466369629,141.95300364494324,141.95300364494324,141.95300364494324,141.95300364494324,141.95300364494324,141.95300364494324,141.95300364494324,143.47088193893433,3,1.6560945510864258,None,,,,,,,,,,,,,,,,,,129,3,2025-02-26_12h53.23.225,comp,2024.2.4,60.04480844746604,2025-02-26 12h53.34.594061 -0500,
23,23,0,critical,dhw,35.0,3.0,upper,127.0,127.0,200.0,125.0,125.0,200.0,3,2.2047951221466064,None,,,,,0,0,0,0,0,23,23,51,143.48601365089417,,,,,,,,,,,,,,,,,,,,,,,,,,,,,,,,,,,,,,,,,,,,,,,,,,,,,,,,,,,,,,,,,,,,,,,,,,,,,,,,,127.0,127.0,200.0,125.0,125.0,200.0,3.0,3.2,-222,-265,0,12,258,270,143.4716763496399,143.47171592712402,143.47406315803528,143.48601365089417,143.6363399028778,143.6363399028778,143.6363399028778,143.6363399028778,143.6363399028778,143.6363399028778,143.6363399028778,145.70427179336548,3,2.2047951221466064,None,,,,,,,,,,,,,,,,,,129,3,2025-02-26_12h53.23.225,comp,2024.2.4,60.04480844746604,2025-02-26 12h53.34.594061 -0500,
24,24,0,critical,whd,20.0,2.1,lower,57.0,133.0,133.0,57.0,78.0,78.0,2,5.397475004196167,None,,,,,0,0,0,0,0,24,24,14,145.71929907798767,,,,,,,,,,,,,,,,,,,,,,,,,,,,,,,,,,,,,,,,,,,,,,,,,,,,,,,,,,,,,,,,,,,,,,,,,,,,,,,,,57.0,133.0,133.0,57.0,78.0,78.0,2.1,2.12,-191,-282,0,-270,164,257,145.7051076889038,145.7051465511322,145.70760440826416,145.71929907798767,145.8693425655365,145.8693425655365,145.8693425655365,145.8693425655365,145.8693425655365,145.8693425655365,145.8693425655365,151.12047815322876,2,5.397475004196167,None,,,,,,,,,,,,,,,,,,129,3,2025-02-26_12h53.23.225,comp,2024.2.4,60.04480844746604,2025-02-26 12h53.34.594061 -0500,
25,25,0,critical,dhw,20.0,3.0,upper,141.0,141.0,200.0,125.0,125.0,200.0,2,7.395255088806152,None,,,,,0,0,0,0,0,25,25,57,151.1361529827118,,,,,,,,,,,,,,,,,,,,,,,,,,,,,,,,,,,,,,,,,,,,,,,,,,,,,,,,,,,,,,,,,,,,,,,,,,,,,,,,,141.0,141.0,200.0,125.0,125.0,200.0,3.0,3.2,-229,-259,0,-1,258,277,151.12128376960754,151.121324300766,151.12343382835388,151.1361529827118,151.28640747070312,151.28640747070312,151.28640747070312,151.28640747070312,151.28640747070312,151.28640747070312,151.28640747070312,158.53729462623596,2,7.395255088806152,None,,,,,,,,,,,,,,,,,,129,3,2025-02-26_12h53.23.225,comp,2024.2.4,60.04480844746604,2025-02-26 12h53.34.594061 -0500,
26,26,0,filler_square,None,None,None,None,None,None,None,None,None,None,1,1.466911792755127,None,,,,,0,0,0,0,0,26,26,204,158.55280709266663,,,,,,,,,,,,,,,,,,,,,,,,,,,,,,,,,,,,,,,,,,,,,,,,,,,,,,,,,,,,,,,,,,,,,,,,,,,,,,,,,159.838556531459,159.838556531459,80.54699569327214,72.59052901168003,144.60862473171198,127.70539212313194,3.0,3.2,-212,-250,0,-17,196,254,158.53828620910645,158.5383265018463,158.54078769683838,158.55280709266663,158.703125,158.703125,158.703125,158.703125,158.703125,158.703125,158.703125,160.03700733184814,1,1.466911792755127,None,,,,,,,,,,,,,,,,,,129,3,2025-02-26_12h53.23.225,comp,2024.2.4,60.04480844746604,2025-02-26 12h53.34.594061 -0500,
27,27,0,filler_square,None,None,None,None,None,None,None,None,None,None,1,1.510887622833252,None,,,,,0,0,0,0,0,27,27,179,160.05250716209412,,,,,,,,,,,,,,,,,,,,,,,,,,,,,,,,,,,,,,,,,,,,,,,,,,,,,,,,,,,,,,,,,,,,,,,,,,,,,,,,,184.69734998136175,184.69734998136175,91.99618521278109,126.35005718192828,110.72654164443333,71.97311328827868,1.0,1.2,-252,9,0,11,195,9,160.0379192829132,160.03795719146729,160.04037380218506,160.05250716209412,160.20303416252136,160.20303416252136,160.20303416252136,160.20303416252136,160.20303416252136,160.20303416252136,160.20303416252136,161.5705008506775,1,1.510887622833252,None,,,,,,,,,,,,,,,,,,129,3,2025-02-26_12h53.23.225,comp,2024.2.4,60.04480844746604,2025-02-26 12h53.34.594061 -0500,
28,28,0,catch,None,None,None,None,None,None,None,None,None,None,1,1.3213317394256592,None,,,,,0,0,0,0,0,28,28,120,161.586110830307,,,,,,,,,,,,,,,,,,,,,,,,,,,,,,,,,,,,,,,,,,,,,,,,,,,,,,,,,,,,,,,,,,,,,,,,,,,,,,,,,190,135,59,131,119,71,3.0,3.2,-229,-252,0,19,197,261,161.57155966758728,161.57160234451294,161.5736949443817,161.586110830307,161.73638367652893,161.73638367652893,161.73638367652893,161.73638367652893,161.73638367652893,161.73638367652893,161.73638367652893,162.92042446136475,1,1.3213317394256592,None,,,,,,,,,,,,,,,,,,129,3,2025-02-26_12h53.23.225,comp,2024.2.4,60.04480844746604,2025-02-26 12h53.34.594061 -0500,
29,29,0,filler_square,None,None,None,None,None,None,None,None,None,None,3,1.3651454448699951,None,,,,,0,0,0,0,0,29,29,187,162.93576073646545,,,,,,,,,,,,,,,,,,,,,,,,,,,,,,,,,,,,,,,,,,,,,,,,,,,,,,,,,,,,,,,,,,,,,,,,,,,,,,,,,108.21640627802526,84.40537522959096,92.85619413218487,61.15079605823196,188.58964921761023,188.58964921761023,4.0,4.2,-169,-15,0,-266,221,-20,162.92132258415222,162.9213616847992,162.92331862449646,162.93576073646545,163.086040019989,163.086040019989,163.086040019989,163.086040019989,163.086040019989,163.086040019989,163.086040019989,164.30388522148132,3,1.3651454448699951,None,,,,,,,,,,,,,,,,,,129,3,2025-02-26_12h53.23.225,comp,2024.2.4,60.04480844746604,2025-02-26 12h53.34.594061 -0500,
30,30,0,critical,dhw,20.0,1.0,lower,78.0,78.0,133.0,57.0,57.0,133.0,2,3.9660158157348633,None,,,,,0,0,0,0,0,30,30,54,164.31935167312622,,,,,,,,,,,,,,,,,,,,,,,,,,,,,,,,,,,,,,,,,,,,,,,,,,,,,,,,,,,,,,,,,,,,,,,,,,,,,,,,,78.0,78.0,133.0,57.0,57.0,133.0,1.0,1.2,-164,19,0,-16,191,6,164.30470633506775,164.30474662780762,164.30707693099976,164.31935167312622,164.46932411193848,164.46932411193848,164.46932411193848,164.46932411193848,164.46932411193848,164.46932411193848,164.46932411193848,168.28712701797485,2,3.9660158157348633,None,,,,,,,,,,,,,,,,,,129,3,2025-02-26_12h53.23.225,comp,2024.2.4,60.04480844746604,2025-02-26 12h53.34.594061 -0500,
31,31,0,critical,dhw,20.0,4.0,lower,78.0,78.0,133.0,57.0,57.0,133.0,2,2.900627613067627,None,,,,,0,0,0,0,0,31,31,58,168.30263566970825,,,,,,,,,,,,,,,,,,,,,,,,,,,,,,,,,,,,,,,,,,,,,,,,,,,,,,,,,,,,,,,,,,,,,,,,,,,,,,,,,78.0,78.0,133.0,57.0,57.0,133.0,4.0,4.2,-164,18,0,-281,191,-5,168.28787994384766,168.2879183292389,168.29025387763977,168.30263566970825,168.45272946357727,168.45272946357727,168.45272946357727,168.45272946357727,168.45272946357727,168.45272946357727,168.45272946357727,171.2202706336975,2,2.900627613067627,None,,,,,,,,,,,,,,,,,,129,3,2025-02-26_12h53.23.225,comp,2024.2.4,60.04480844746604,2025-02-26 12h53.34.594061 -0500,
32,32,0,filler_square,None,None,None,None,None,None,None,None,None,None,1,2.31902813911438,None,,,,,0,0,0,0,0,32,32,182,171.2357883453369,,,,,,,,,,,,,,,,,,,,,,,,,,,,,,,,,,,,,,,,,,,,,,,,,,,,,,,,,,,,,,,,,,,,,,,,,,,,,,,,,79.5014871032505,79.5014871032505,57.985653381447385,68.25301214565145,57.317124194641906,68.505678373637,2.2,2.22,-170,289,0,-260,164,-288,171.22120308876038,171.2212414741516,171.2237823009491,171.2357883453369,171.38589358329773,171.38589358329773,171.38589358329773,171.38589358329773,171.38589358329773,171.38589358329773,171.38589358329773,173.57019639015198,1,2.31902813911438,None,,,,,,,,,,,,,,,,,,129,3,2025-02-26_12h53.23.225,comp,2024.2.4,60.04480844746604,2025-02-26 12h53.34.594061 -0500,
33,33,0,filler_random,None,None,None,None,None,None,None,None,None,None,2,2.017577648162842,None,,,,,0,0,0,0,0,33,33,165,173.58572268486023,,,,,,,,,,,,,,,,,,,,,,,,,,,,,,,,,,,,,,,,,,,,,,,,,,,,,,,,,,,,,,,,,,,,,,,,,,,,,,,,,134.04018999442152,111.94885655829907,118.91605174039404,185.51585986432616,122.9950295774002,148.21609604611518,1.0,1.3,235,-275,480,-253,743,-274,173.57106471061707,173.5711030960083,173.5736014842987,173.58572268486023,173.73597836494446,173.73597836494446,173.73597836494446,173.73597836494446,173.73597836494446,173.73597836494446,173.73597836494446,175.62044620513916,2,2.017577648162842,None,,,,,,,,,,,,,,,,,,129,3,2025-02-26_12h53.23.225,comp,2024.2.4,60.04480844746604,2025-02-26 12h53.34.594061 -0500,
34,34,0,filler_random,None,None,None,None,None,None,None,None,None,None,1,2.102825880050659,None,,,,,0,0,0,0,0,34,34,132,175.63572120666504,,,,,,,,,,,,,,,,,,,,,,,,,,,,,,,,,,,,,,,,,,,,,,,,,,,,,,,,,,,,,,,,,,,,,,,,,,,,,,,,,170.3171233213834,125.52036707938528,106.52239111221274,67.54304507598853,69.99996954877302,189.64190796707322,2.2,2.22,-193,284,0,-260,225,-266,175.621351480484,175.62138986587524,175.62337708473206,175.63572120666504,175.78595066070557,175.78595066070557,175.78595066070557,175.78595066070557,175.78595066070557,175.78595066070557,175.78595066070557,177.75363326072693,1,2.102825880050659,None,,,,,,,,,,,,,,,,,,129,3,2025-02-26_12h53.23.225,comp,2024.2.4,60.04480844746604,2025-02-26 12h53.34.594061 -0500,
35,35,0,filler_square,None,None,None,None,None,None,None,None,None,None,2,6.138170480728149,None,,,,,0,0,0,0,0,35,35,177,177.76906538009644,,,,,,,,,,,,,,,,,,,,,,,,,,,,,,,,,,,,,,,,,,,,,,,,,,,,,,,,,,,,,,,,,,,,,,,,,,,,,,,,,62.65424596037209,62.65424596037209,61.21812674878778,60.809016983734864,59.647612072018084,57.474852683462515,3.0,3.1,-158,288,0,6,155,-259,177.75462579727173,177.75466585159302,177.75707483291626,177.76906538009644,177.919095993042,177.919095993042,177.919095993042,177.919095993042,177.919095993042,177.919095993042,177.919095993042,183.92010688781738,2,6.138170480728149,None,,,,,,,,,,,,,,,,,,129,3,2025-02-26_12h53.23.225,comp,2024.2.4,60.04480844746604,2025-02-26 12h53.34.594061 -0500,
36,36,0,critical,wdh,20.0,3.0,lower,57.0,133.0,78.0,78.0,133.0,57.0,2,6.067200422286987,None,,,,,0,0,0,0,0,36,36,80,183.93565154075623,,,,,,,,,,,,,,,,,,,,,,,,,,,,,,,,,,,,,,,,,,,,,,,,,,,,,,,,,,,,,,,,,,,,,,,,,,,,,,,,,57.0,133.0,78.0,78.0,133.0,57.0,3.0,3.1,-202,274,0,-8,164,-254,183.9209005832672,183.92094087600708,183.92336678504944,183.93565154075623,184.08582663536072,184.08582663536072,184.08582663536072,184.08582663536072,184.08582663536072,184.08582663536072,184.08582663536072,190.02030301094055,2,6.067200422286987,None,,,,,,,,,,,,,,,,,,129,3,2025-02-26_12h53.23.225,comp,2024.2.4,60.04480844746604,2025-02-26 12h53.34.594061 -0500,
37,37,0,filler_random,None,None,None,None,None,None,None,None,None,None,2,2.0547056198120117,None,,,,,0,0,0,0,0,37,37,136,190.03573751449585,,,,,,,,,,,,,,,,,,,,,,,,,,,,,,,,,,,,,,,,,,,,,,,,,,,,,,,,,,,,,,,,,,,,,,,,,,,,,,,,,58.95005395460534,133.81348576583002,102.76584049977023,88.08445502513476,76.22339165334836,115.92105438496306,4.0,4.2,-207,5,0,-279,198,19,190.021253824234,190.02129411697388,190.0238389968872,190.03573751449585,190.18576836585999,190.18576836585999,190.18576836585999,190.18576836585999,190.18576836585999,190.18576836585999,190.18576836585999,192.10345482826233,2,2.0547056198120117,None,,,,,,,,,,,,,,,,,,129,3,2025-02-26_12h53.23.225,comp,2024.2.4,60.04480844746604,2025-02-26 12h53.34.594061 -0500,
38,38,0,catch,None,None,None,None,None,None,None,None,None,None,3,1.7336618900299072,None,,,,,0,0,0,0,0,38,38,128,192.11896681785583,,,,,,,,,,,,,,,,,,,,,,,,,,,,,,,,,,,,,,,,,,,,,,,,,,,,,,,,,,,,,,,,,,,,,,,,,,,,,,,,,111,79,72,118,137,188,1.0,1.1,-674,285,-480,281,-231,252,192.10451889038086,192.10457181930542,192.10693049430847,192.11896681785583,192.2692141532898,192.2692141532898,192.2692141532898,192.2692141532898,192.2692141532898,192.2692141532898,192.2692141532898,193.8701786994934,3,1.7336618900299072,None,,,,,,,,,,,,,,,,,,129,3,2025-02-26_12h53.23.225,comp,2024.2.4,60.04480844746604,2025-02-26 12h53.34.594061 -0500,
39,39,0,critical,dhw,35.0,2.1,lower,70.0,70.0,133.0,57.0,57.0,133.0,3,3.045593023300171,None,,,,,0,0,0,0,0,39,39,0,193.88566422462463,,,,,,,,,,,,,,,,,,,,,,,,,,,,,,,,,,,,,,,,,,,,,,,,,,,,,,,,,,,,,,,,,,,,,,,,,,,,,,,,,70.0,70.0,133.0,57.0,57.0,133.0,2.1,2.11,-160,277,0,251,191,-283,193.87100648880005,193.87104535102844,193.87354683876038,193.88566422462463,194.0357038974762,194.0357038974762,194.0357038974762,194.0357038974762,194.0357038974762,194.0357038974762,194.0357038974762,196.93698239326477,3,3.045593023300171,None,,,,,,,,,,,,,,,,,,129,3,2025-02-26_12h53.23.225,comp,2024.2.4,60.04480844746604,2025-02-26 12h53.34.594061 -0500,
40,40,0,critical,hwd,20.0,1.0,lower,133.0,57.0,57.0,133.0,78.0,78.0,1,4.050209045410156,None,,,,,0,0,0,0,0,40,40,102,196.95266032218933,,,,,,,,,,,,,,,,,,,,,,,,,,,,,,,,,,,,,,,,,,,,,,,,,,,,,,,,,,,,,,,,,,,,,,,,,,,,,,,,,133.0,57.0,57.0,133.0,78.0,78.0,1.0,1.2,-191,-8,0,14,202,6,196.937757730484,196.93779850006104,196.94016671180725,196.95266032218933,197.10233283042908,197.10233283042908,197.10233283042908,197.10233283042908,197.10233283042908,197.10233283042908,197.10233283042908,201.0201461315155,1,4.050209045410156,None,,,,,,,,,,,,,,,,,,129,3,2025-02-26_12h53.23.225,comp,2024.2.4,60.04480844746604,2025-02-26 12h53.34.594061 -0500,
41,41,0,filler_random,None,None,None,None,None,None,None,None,None,None,3,3.9917025566101074,None,,,,,0,0,0,0,0,41,41,152,201.03559160232544,,,,,,,,,,,,,,,,,,,,,,,,,,,,,,,,,,,,,,,,,,,,,,,,,,,,,,,,,,,,,,,,,,,,,,,,,,,,,,,,,65.48563639206668,118.2434639954268,151.08062323789068,89.70761284798027,126.37665681683805,145.1285340863377,2.1,2.11,-200,256,0,259,213,-251,201.02106761932373,201.02110815048218,201.0236074924469,201.03559160232544,201.1861276626587,201.1861276626587,201.1861276626587,201.1861276626587,201.1861276626587,201.1861276626587,201.1861276626587,205.0367968082428,3,3.9917025566101074,None,,,,,,,,,,,,,,,,,,129,3,2025-02-26_12h53.23.225,comp,2024.2.4,60.04480844746604,2025-02-26 12h53.34.594061 -0500,
42,42,0,filler_random,None,None,None,None,None,None,None,None,None,None,2,1.3428676128387451,None,,,,,0,0,0,0,0,42,42,143,205.05244755744934,,,,,,,,,,,,,,,,,,,,,,,,,,,,,,,,,,,,,,,,,,,,,,,,,,,,,,,,,,,,,,,,,,,,,,,,,,,,,,,,,122.5178416438547,119.05755407326816,165.82213762698672,166.3230803781758,98.32253468164056,182.68459199895523,1.0,1.3,241,-263,480,-270,751,-277,205.03769946098328,205.0377390384674,205.04016423225403,205.05244755744934,205.20262670516968,205.20262670516968,205.20262670516968,205.20262670516968,205.20262670516968,205.20262670516968,205.20262670516968,206.4035563468933,2,1.3428676128387451,None,,,,,,,,,,,,,,,,,,129,3,2025-02-26_12h53.23.225,comp,2024.2.4,60.04480844746604,2025-02-26 12h53.34.594061 -0500,
43,43,0,critical,hwd,20.0,2.1,upper,200.0,125.0,125.0,200.0,141.0,141.0,1,4.033587455749512,None,,,,,0,0,0,0,0,43,43,19,206.4190559387207,,,,,,,,,,,,,,,,,,,,,,,,,,,,,,,,,,,,,,,,,,,,,,,,,,,,,,,,,,,,,,,,,,,,,,,,,,,,,,,,,200.0,125.0,125.0,200.0,141.0,141.0,2.1,2.11,-258,269,0,257,266,-256,206.404381275177,206.40442276000977,206.40673398971558,206.4190559387207,206.56946301460266,206.56946301460266,206.56946301460266,206.56946301460266,206.56946301460266,206.56946301460266,206.56946301460266,210.47027730941772,1,4.033587455749512,None,,,,,,,,,,,,,,,,,,129,3,2025-02-26_12h53.23.225,comp,2024.2.4,60.04480844746604,2025-02-26 12h53.34.594061 -0500,
44,44,0,filler_square,None,None,None,None,None,None,None,None,None,None,1,4.645801067352295,None,,,,,0,0,0,0,0,44,44,197,210.48556303977966,,,,,,,,,,,,,,,,,,,,,,,,,,,,,,,,,,,,,,,,,,,,,,,,,,,,,,,,,,,,,,,,,,,,,,,,,,,,,,,,,122.95958282788604,122.95958282788604,65.0163385124684,80.09514767393645,115.42022338210502,80.6239480436503,4.0,4.2,-198,-6,0,-286,176,20,210.47123289108276,210.4712724685669,210.47377753257751,210.48556303977966,210.63574075698853,210.63574075698853,210.63574075698853,210.63574075698853,210.63574075698853,210.63574075698853,210.63574075698853,215.1367642879486,1,4.645801067352295,None,,,,,,,,,,,,,,,,,,129,3,2025-02-26_12h53.23.225,comp,2024.2.4,60.04480844746604,2025-02-26 12h53.34.594061 -0500,
45,45,0,critical,hdw,20.0,2.1,upper,200.0,125.0,141.0,141.0,125.0,200.0,1,3.9323811531066895,None,,,,,0,0,0,0,0,45,45,23,215.15238857269287,,,,,,,,,,,,,,,,,,,,,,,,,,,,,,,,,,,,,,,,,,,,,,,,,,,,,,,,,,,,,,,,,,,,,,,,,,,,,,,,,200.0,125.0,141.0,141.0,125.0,200.0,2.1,2.12,-229,-285,0,-264,266,257,215.13756728172302,215.13760900497437,215.140851020813,215.15238857269287,215.30244636535645,215.30244636535645,215.30244636535645,215.30244636535645,215.30244636535645,215.30244636535645,215.30244636535645,219.08700394630432,1,3.9323811531066895,None,,,,,,,,,,,,,,,,,,129,3,2025-02-26_12h53.23.225,comp,2024.2.4,60.04480844746604,2025-02-26 12h53.34.594061 -0500,
46,46,0,filler_square,None,None,None,None,None,None,None,None,None,None,2,2.436404228210449,None,,,,,0,0,0,0,0,46,46,193,219.10236644744873,,,,,,,,,,,,,,,,,,,,,,,,,,,,,,,,,,,,,,,,,,,,,,,,,,,,,,,,,,,,,,,,,,,,,,,,,,,,,,,,,105.25075175823127,80.98260288982063,139.78938071828526,139.78938071828526,69.77433404573893,138.96427794243715,1.0,1.3,274,-279,480,-264,715,-263,219.08798384666443,219.08802437782288,219.09015154838562,219.10236644744873,219.25252842903137,219.25252842903137,219.25252842903137,219.25252842903137,219.25252842903137,219.25252842903137,219.25252842903137,221.55330657958984,2,2.436404228210449,None,,,,,,,,,,,,,,,,,,129,3,2025-02-26_12h53.23.225,comp,2024.2.4,60.04480844746604,2025-02-26 12h53.34.594061 -0500,
47,47,0,critical,dhw,20.0,2.1,upper,141.0,141.0,200.0,125.0,125.0,200.0,3,2.1694045066833496,None,,,,,0,0,0,0,0,47,47,27,221.56877279281616,,,,,,,,,,,,,,,,,,,,,,,,,,,,,,,,,,,,,,,,,,,,,,,,,,,,,,,,,,,,,,,,,,,,,,,,,,,,,,,,,141.0,141.0,200.0,125.0,125.0,200.0,2.1,2.11,-229,271,0,280,258,-289,221.55411219596863,221.5541512966156,221.5567078590393,221.56877279281616,221.71908712387085,221.71908712387085,221.71908712387085,221.71908712387085,221.71908712387085,221.71908712387085,221.71908712387085,223.75342845916748,3,2.1694045066833496,None,,,,,,,,,,,,,,,,,,129,3,2025-02-26_12h53.23.225,comp,2024.2.4,60.04480844746604,2025-02-26 12h53.34.594061 -0500,
48,48,0,filler_random,None,None,None,None,None,None,None,None,None,None,2,2.2423951625823975,None,,,,,0,0,0,0,0,48,48,147,223.76875853538513,,,,,,,,,,,,,,,,,,,,,,,,,,,,,,,,,,,,,,,,,,,,,,,,,,,,,,,,,,,,,,,,,,,,,,,,,,,,,,,,,85.69081507486379,95.74010805163678,76.69898015808253,199.05831427071453,143.30263258721953,161.44102628931387,1.0,1.1,-723,260,-480,271,-204,267,223.75440764427185,223.75444769859314,223.75653290748596,223.76875853538513,223.9189488887787,223.9189488887787,223.9189488887787,223.9189488887787,223.9189488887787,223.9189488887787,223.9189488887787,226.0200810432434,2,2.2423951625823975,None,,,,,,,,,,,,,,,,,,129,3,2025-02-26_12h53.23.225,comp,2024.2.4,60.04480844746604,2025-02-26 12h53.34.594061 -0500,
49,49,0,critical,wdh,35.0,2.1,upper,125.0,200.0,127.0,127.0,200.0,125.0,1,1.591273546218872,None,,,,,0,0,0,0,0,49,49,9,226.03608107566833,,,,,,,,,,,,,,,,,,,,,,,,,,,,,,,,,,,,,,,,,,,,,,,,,,,,,,,,,,,,,,,,,,,,,,,,,,,,,,,,,125.0,200.0,127.0,127.0,200.0,125.0,2.1,2.12,-260,-255,0,-267,222,273,226.02089667320251,226.02093696594238,226.02304315567017,226.03608107566833,226.18575620651245,226.18575620651245,226.18575620651245,226.18575620651245,226.18575620651245,226.18575620651245,226.18575620651245,227.63684058189392,1,1.591273546218872,None,,,,,,,,,,,,,,,,,,129,3,2025-02-26_12h53.23.225,comp,2024.2.4,60.04480844746604,2025-02-26 12h53.34.594061 -0500,
50,50,0,critical,dwh,35.0,2.1,lower,70.0,70.0,57.0,133.0,133.0,57.0,3,2.479102373123169,None,,,,,0,0,0,0,0,50,50,28,227.65238189697266,,,,,,,,,,,,,,,,,,,,,,,,,,,,,,,,,,,,,,,,,,,,,,,,,,,,,,,,,,,,,,,,,,,,,,,,,,,,,,,,,70.0,70.0,57.0,133.0,133.0,57.0,2.1,2.11,-198,284,0,272,191,-277,227.6376347541809,227.63767385482788,227.6400809288025,227.65238189697266,227.80221343040466,227.80221343040466,227.80221343040466,227.80221343040466,227.80221343040466,227.80221343040466,227.80221343040466,230.1366548538208,3,2.479102373123169,None,,,,,,,,,,,,,,,,,,129,3,2025-02-26_12h53.23.225,comp,2024.2.4,60.04480844746604,2025-02-26 12h53.34.594061 -0500,
51,51,0,critical,hwd,20.0,3.0,upper,200.0,125.0,125.0,200.0,141.0,141.0,2,9.050723791122437,None,,,,,0,0,0,0,0,51,51,105,230.1522946357727,,,,,,,,,,,,,,,,,,,,,,,,,,,,,,,,,,,,,,,,,,,,,,,,,,,,,,,,,,,,,,,,,,,,,,,,,,,,,,,,,200.0,125.0,125.0,200.0,141.0,141.0,3.0,3.2,-258,-286,0,3,266,274,230.13743114471436,230.1374704837799,230.1407332420349,230.1522946357727,230.30239486694336,230.30239486694336,230.30239486694336,230.30239486694336,230.30239486694336,230.30239486694336,230.30239486694336,239.22006559371948,2,9.050723791122437,None,,,,,,,,,,,,,,,,,,129,3,2025-02-26_12h53.23.225,comp,2024.2.4,60.04480844746604,2025-02-26 12h53.34.594061 -0500,
52,52,0,critical,hwd,35.0,4.0,lower,133.0,57.0,57.0,133.0,70.0,70.0,2,1.6547162532806396,None,,,,,0,0,0,0,0,52,52,100,239.23541522026062,,,,,,,,,,,,,,,,,,,,,,,,,,,,,,,,,,,,,,,,,,,,,,,,,,,,,,,,,,,,,,,,,,,,,,,,,,,,,,,,,133.0,57.0,57.0,133.0,70.0,70.0,4.0,4.2,-191,2,0,-264,198,-15,239.2208709716797,239.22091102600098,239.2234320640564,239.23541522026062,239.38548493385315,239.38548493385315,239.38548493385315,239.38548493385315,239.38548493385315,239.38548493385315,239.38548493385315,240.90312480926514,2,1.6547162532806396,None,,,,,,,,,,,,,,,,,,129,3,2025-02-26_12h53.23.225,comp,2024.2.4,60.04480844746604,2025-02-26 12h53.34.594061 -0500,
53,53,0,filler_random,None,None,None,None,None,None,None,None,None,None,1,3.5883312225341797,None,,,,,0,0,0,0,0,53,53,144,240.91858077049255,,,,,,,,,,,,,,,,,,,,,,,,,,,,,,,,,,,,,,,,,,,,,,,,,,,,,,,,,,,,,,,,,,,,,,,,,,,,,,,,,150.5398431232565,143.47010534737828,183.44286998604494,92.95962601400473,164.14097576525413,69.83537914909662,3.0,3.1,-214,267,0,3,177,-278,240.90406894683838,240.90410900115967,240.90665221214294,240.91858077049255,241.06901502609253,241.06901502609253,241.06901502609253,241.06901502609253,241.06901502609253,241.06901502609253,241.06901502609253,244.52010440826416,1,3.5883312225341797,None,,,,,,,,,,,,,,,,,,129,3,2025-02-26_12h53.23.225,comp,2024.2.4,60.04480844746604,2025-02-26 12h53.34.594061 -0500,
54,54,0,critical,whd,20.0,4.0,upper,125.0,200.0,200.0,125.0,141.0,141.0,1,3.691586494445801,None,,,,,0,0,0,0,0,54,54,95,244.53534150123596,,,,,,,,,,,,,,,,,,,,,,,,,,,,,,,,,,,,,,,,,,,,,,,,,,,,,,,,,,,,,,,,,,,,,,,,,,,,,,,,,125.0,200.0,200.0,125.0,141.0,141.0,4.0,4.1,-258,-263,0,-10,229,-251,244.5209059715271,244.52094554901123,244.5233452320099,244.53534150123596,244.68562507629395,244.68562507629395,244.68562507629395,244.68562507629395,244.68562507629395,244.68562507629395,244.68562507629395,248.23656630516052,1,3.691586494445801,None,,,,,,,,,,,,,,,,,,129,3,2025-02-26_12h53.23.225,comp,2024.2.4,60.04480844746604,2025-02-26 12h53.34.594061 -0500,
55,55,0,filler_random,None,None,None,None,None,None,None,None,None,None,2,1.069948434829712,None,,,,,0,0,0,0,0,55,55,168,248.25212693214417,,,,,,,,,,,,,,,,,,,,,,,,,,,,,,,,,,,,,,,,,,,,,,,,,,,,,,,,,,,,,,,,,,,,,,,,,,,,,,,,,96.04594000663002,85.11488174752112,183.19240174432295,100.3467263291111,123.53956595224783,89.93785218501145,2.2,2.22,-189,261,0,-272,191,-273,248.23747396469116,248.23751592636108,248.23982644081116,248.25212693214417,248.4024043083191,248.4024043083191,248.4024043083191,248.4024043083191,248.4024043083191,248.4024043083191,248.4024043083191,249.3364233970642,2,1.069948434829712,None,,,,,,,,,,,,,,,,,,129,3,2025-02-26_12h53.23.225,comp,2024.2.4,60.04480844746604,2025-02-26 12h53.34.594061 -0500,
56,56,0,critical,hwd,35.0,2.1,lower,133.0,57.0,57.0,133.0,70.0,70.0,1,1.826986312866211,None,,,,,0,0,0,0,0,56,56,40,249.35194158554077,,,,,,,,,,,,,,,,,,,,,,,,,,,,,,,,,,,,,,,,,,,,,,,,,,,,,,,,,,,,,,,,,,,,,,,,,,,,,,,,,133.0,57.0,57.0,133.0,70.0,70.0,2.1,2.12,-191,-285,0,-266,198,252,249.33725309371948,249.33729147911072,249.339346408844,249.35194158554077,249.50207591056824,249.50207591056824,249.50207591056824,249.50207591056824,249.50207591056824,249.50207591056824,249.50207591056824,251.1863672733307,1,1.826986312866211,None,,,,,,,,,,,,,,,,,,129,3,2025-02-26_12h53.23.225,comp,2024.2.4,60.04480844746604,2025-02-26 12h53.34.594061 -0500,
57,57,0,critical,whd,35.0,4.0,lower,57.0,133.0,133.0,57.0,70.0,70.0,1,3.2086753845214844,None,,,,,0,0,0,0,0,57,57,88,251.20239639282227,,,,,,,,,,,,,,,,,,,,,,,,,,,,,,,,,,,,,,,,,,,,,,,,,,,,,,,,,,,,,,,,,,,,,,,,,,,,,,,,,57.0,133.0,133.0,57.0,70.0,70.0,4.0,4.1,-191,-288,0,15,160,-281,251.18719673156738,251.1872365474701,251.18949055671692,251.20239639282227,251.35236191749573,251.35236191749573,251.35236191749573,251.35236191749573,251.35236191749573,251.35236191749573,251.35236191749573,254.419673204422,1,3.2086753845214844,None,,,,,,,,,,,,,,,,,,129,3,2025-02-26_12h53.23.225,comp,2024.2.4,60.04480844746604,2025-02-26 12h53.34.594061 -0500,
58,58,0,filler_random,None,None,None,None,None,None,None,None,None,None,2,2.583440065383911,None,,,,,0,0,0,0,0,58,58,151,254.43551564216614,,,,,,,,,,,,,,,,,,,,,,,,,,,,,,,,,,,,,,,,,,,,,,,,,,,,,,,,,,,,,,,,,,,,,,,,,,,,,,,,,166.54815516888377,73.49460882181114,112.94115706895563,105.38188669565449,77.81481391899126,130.07545413538935,2.2,2.21,-185,-250,0,273,214,259,254.42057609558105,254.42061638832092,254.42277193069458,254.43551564216614,254.58545565605164,254.58545565605164,254.58545565605164,254.58545565605164,254.58545565605164,254.58545565605164,254.58545565605164,257.02004289627075,2,2.583440065383911,None,,,,,,,,,,,,,,,,,,129,3,2025-02-26_12h53.23.225,comp,2024.2.4,60.04480844746604,2025-02-26 12h53.34.594061 -0500,
59,59,0,critical,wdh,20.0,2.1,upper,125.0,200.0,141.0,141.0,200.0,125.0,3,1.8712451457977295,None,,,,,0,0,0,0,0,59,59,11,257.03546380996704,,,,,,,,,,,,,,,,,,,,,,,,,,,,,,,,,,,,,,,,,,,,,,,,,,,,,,,,,,,,,,,,,,,,,,,,,,,,,,,,,125.0,200.0,141.0,141.0,200.0,125.0,2.1,2.12,-266,-268,0,-278,229,262,257.020872592926,257.0209138393402,257.02328538894653,257.03546380996704,257.185471534729,257.185471534729,257.185471534729,257.185471534729,257.185471534729,257.185471534729,257.185471534729,258.9199526309967,3,1.8712451457977295,None,,,,,,,,,,,,,,,,,,129,3,2025-02-26_12h53.23.225,comp,2024.2.4,60.04480844746604,2025-02-26 12h53.34.594061 -0500,
60,60,0,critical,hwd,35.0,1.0,upper,200.0,125.0,125.0,200.0,127.0,127.0,2,1.6507887840270996,None,,,,,0,0,0,0,0,60,60,97,258.93513774871826,,,,,,,,,,,,,,,,,,,,,,,,,,,,,,,,,,,,,,,,,,,,,,,,,,,,,,,,,,,,,,,,,,,,,,,,,,,,,,,,,200.0,125.0,125.0,200.0,127.0,127.0,1.0,1.1,-738,286,-480,269,-220,283,258.92078161239624,258.92082142829895,258.9231767654419,258.93513774871826,259.0855116844177,259.0855116844177,259.0855116844177,259.0855116844177,259.0855116844177,259.0855116844177,259.0855116844177,260.6031663417816,2,1.6507887840270996,None,,,,,,,,,,,,,,,,,,129,3,2025-02-26_12h53.23.225,comp,2024.2.4,60.04480844746604,2025-02-26 12h53.34.594061 -0500,
61,61,0,critical,whd,20.0,2.1,lower,57.0,133.0,133.0,57.0,78.0,78.0,2,1.6554338932037354,None,,,,,0,0,0,0,0,61,61,38,260.6184947490692,,,,,,,,,,,,,,,,,,,,,,,,,,,,,,,,,,,,,,,,,,,,,,,,,,,,,,,,,,,,,,,,,,,,,,,,,,,,,,,,,57.0,133.0,133.0,57.0,78.0,78.0,2.1,2.12,-191,-267,0,-276,164,282,260.60396337509155,260.60400223731995,260.6064796447754,260.6184947490692,260.76863527297974,260.76863527297974,260.76863527297974,260.76863527297974,260.76863527297974,260.76863527297974,260.76863527297974,262.2863550186157,2,1.6554338932037354,None,,,,,,,,,,,,,,,,,,129,3,2025-02-26_12h53.23.225,comp,2024.2.4,60.04480844746604,2025-02-26 12h53.34.594061 -0500,
62,62,0,filler_random,None,None,None,None,None,None,None,None,None,None,1,1.5828666687011719,None,,,,,0,0,0,0,0,62,62,140,262.30182790756226,,,,,,,,,,,,,,,,,,,,,,,,,,,,,,,,,,,,,,,,,,,,,,,,,,,,,,,,,,,,,,,,,,,,,,,,,,,,,,,,,145.6899618753722,128.25187309608953,95.71682037320367,131.33571157058128,135.13987233826802,101.57007560011081,2.1,2.12,-226,-269,0,-270,212,271,262.2872714996338,262.28731060028076,262.2898859977722,262.30182790756226,262.4521961212158,262.4521961212158,262.4521961212158,262.4521961212158,262.4521961212158,262.4521961212158,262.4521961212158,263.8865313529968,1,1.5828666687011719,None,,,,,,,,,,,,,,,,,,129,3,2025-02-26_12h53.23.225,comp,2024.2.4,60.04480844746604,2025-02-26 12h53.34.594061 -0500,
63,63,0,critical,dhw,35.0,2.1,upper,127.0,127.0,200.0,125.0,125.0,200.0,3,15.525086402893066,None,,,,,0,0,0,0,0,63,63,1,263.90201354026794,,,,,,,,,,,,,,,,,,,,,,,,,,,,,,,,,,,,,,,,,,,,,,,,,,,,,,,,,,,,,,,,,,,,,,,,,,,,,,,,,127.0,127.0,200.0,125.0,125.0,200.0,2.1,2.11,-222,268,0,281,258,-263,263.8873243331909,263.88736629486084,263.88948583602905,263.90201354026794,264.05206990242004,264.05206990242004,264.05206990242004,264.05206990242004,264.05206990242004,264.05206990242004,264.05206990242004,279.43640971183777,3,15.525086402893066,None,,,,,,,,,,,,,,,,,,129,3,2025-02-26_12h53.23.225,comp,2024.2.4,60.04480844746604,2025-02-26 12h53.34.594061 -0500,
64,64,0,critical,hdw,35.0,3.0,lower,133.0,57.0,70.0,70.0,57.0,133.0,1,3.878502607345581,None,,,,,0,0,0,0,0,64,64,110,279.45211577415466,,,,,,,,,,,,,,,,,,,,,,,,,,,,,,,,,,,,,,,,,,,,,,,,,,,,,,,,,,,,,,,,,,,,,,,,,,,,,,,,,133.0,57.0,70.0,70.0,57.0,133.0,3.0,3.2,-160,-290,0,12,198,285,279.4372363090515,279.4372777938843,279.43949127197266,279.45211577415466,279.6020269393921,279.6020269393921,279.6020269393921,279.6020269393921,279.6020269393921,279.6020269393921,279.6020269393921,283.33639764785767,1,3.878502607345581,None,,,,,,,,,,,,,,,,,,129,3,2025-02-26_12h53.23.225,comp,2024.2.4,60.04480844746604,2025-02-26 12h53.34.594061 -0500,
65,65,0,critical,hwd,35.0,2.1,upper,200.0,125.0,125.0,200.0,127.0,127.0,1,3.25876784324646,None,,,,,0,0,0,0,0,65,65,17,283.35200333595276,,,,,,,,,,,,,,,,,,,,,,,,,,,,,,,,,,,,,,,,,,,,,,,,,,,,,,,,,,,,,,,,,,,,,,,,,,,,,,,,,200.0,125.0,125.0,200.0,127.0,127.0,2.1,2.12,-258,-258,0,-288,260,265,283.3372051715851,283.3372452259064,283.3397431373596,283.35200333595276,283.5018775463104,283.5018775463104,283.5018775463104,283.5018775463104,283.5018775463104,283.5018775463104,283.5018775463104,286.6196973323822,1,3.25876784324646,None,,,,,,,,,,,,,,,,,,129,3,2025-02-26_12h53.23.225,comp,2024.2.4,60.04480844746604,2025-02-26 12h53.34.594061 -0500,
66,66,0,critical,dwh,35.0,1.0,lower,70.0,70.0,57.0,133.0,133.0,57.0,3,4.399907827377319,None,,,,,0,0,0,0,0,66,66,60,286.63541293144226,,,,,,,,,,,,,,,,,,,,,,,,,,,,,,,,,,,,,,,,,,,,,,,,,,,,,,,,,,,,,,,,,,,,,,,,,,,,,,,,,70.0,70.0,57.0,133.0,133.0,57.0,1.0,1.2,-198,16,0,2,191,-12,286.62045550346375,286.6204948425293,286.6225936412811,286.63541293144226,286.78515100479126,286.78515100479126,286.78515100479126,286.78515100479126,286.78515100479126,286.78515100479126,286.78515100479126,291.03642892837524,3,4.399907827377319,None,,,,,,,,,,,,,,,,,,129,3,2025-02-26_12h53.23.225,comp,2024.2.4,60.04480844746604,2025-02-26 12h53.34.594061 -0500,
67,67,0,filler_square,None,None,None,None,None,None,None,None,None,None,3,2.8947081565856934,None,,,,,0,0,0,0,0,67,67,173,291.051926612854,,,,,,,,,,,,,,,,,,,,,,,,,,,,,,,,,,,,,,,,,,,,,,,,,,,,,,,,,,,,,,,,,,,,,,,,,,,,,,,,,74.03531813601904,74.03531813601904,69.35535321635238,60.06081047178355,72.47457397326332,73.39747298351601,2.1,2.11,-163,270,0,268,163,-265,291.03737592697144,291.03741550445557,291.03997468948364,291.051926612854,291.20190501213074,291.20190501213074,291.20190501213074,291.20190501213074,291.20190501213074,291.20190501213074,291.20190501213074,293.95307445526123,3,2.8947081565856934,None,,,,,,,,,,,,,,,,,,129,3,2025-02-26_12h53.23.225,comp,2024.2.4,60.04480844746604,2025-02-26 12h53.34.594061 -0500,
68,68,0,filler_square,None,None,None,None,None,None,None,None,None,None,1,1.233907699584961,None,,,,,0,0,0,0,0,68,68,203,293.9686088562012,,,,,,,,,,,,,,,,,,,,,,,,,,,,,,,,,,,,,,,,,,,,,,,,,,,,,,,,,,,,,,,,,,,,,,,,,,,,,,,,,85.64994280937731,85.64994280937731,63.516674322924985,64.70364465440252,61.50782718946825,57.80388019381257,2.2,2.21,-171,-259,0,253,157,277,293.9540591239929,293.95410084724426,293.95657992362976,293.9686088562012,294.11829113960266,294.11829113960266,294.11829113960266,294.11829113960266,294.11829113960266,294.11829113960266,294.11829113960266,295.2194435596466,1,1.233907699584961,None,,,,,,,,,,,,,,,,,,129,3,2025-02-26_12h53.23.225,comp,2024.2.4,60.04480844746604,2025-02-26 12h53.34.594061 -0500,
69,69,0,critical,dhw,20.0,3.0,lower,78.0,78.0,133.0,57.0,57.0,133.0,3,2.7114570140838623,None,,,,,0,0,0,0,0,69,69,56,295.23502230644226,,,,,,,,,,,,,,,,,,,,,,,,,,,,,,,,,,,,,,,,,,,,,,,,,,,,,,,,,,,,,,,,,,,,,,,,,,,,,,,,,78.0,78.0,133.0,57.0,57.0,133.0,3.0,3.1,-164,282,0,-17,191,-275,295.2202754020691,295.22031688690186,295.22299003601074,295.23502230644226,295.385103225708,295.385103225708,295.385103225708,295.385103225708,295.385103225708,295.385103225708,295.385103225708,297.95284366607666,3,2.7114570140838623,None,,,,,,,,,,,,,,,,,,129,3,2025-02-26_12h53.23.225,comp,2024.2.4,60.04480844746604,2025-02-26 12h53.34.594061 -0500,
70,70,0,critical,dwh,20.0,3.0,lower,78.0,78.0,57.0,133.0,133.0,57.0,3,1.417259693145752,None,,,,,0,0,0,0,0,70,70,68,297.9684979915619,,,,,,,,,,,,,,,,,,,,,,,,,,,,,,,,,,,,,,,,,,,,,,,,,,,,,,,,,,,,,,,,,,,,,,,,,,,,,,,,,78.0,78.0,57.0,133.0,133.0,57.0,3.0,3.1,-202,261,0,8,191,-282,297.95363759994507,297.9536769390106,297.95609188079834,297.9684979915619,298.11847853660583,298.11847853660583,298.11847853660583,298.11847853660583,298.11847853660583,298.11847853660583,298.11847853660583,299.40275621414185,3,1.417259693145752,None,,,,,,,,,,,,,,,,,,129,3,2025-02-26_12h53.23.225,comp,2024.2.4,60.04480844746604,2025-02-26 12h53.34.594061 -0500,
71,71,0,critical,dhw,35.0,4.0,upper,127.0,127.0,200.0,125.0,125.0,200.0,2,2.8659324645996094,None,,,,,0,0,0,0,0,71,71,53,299.4182381629944,,,,,,,,,,,,,,,,,,,,,,,,,,,,,,,,,,,,,,,,,,,,,,,,,,,,,,,,,,,,,,,,,,,,,,,,,,,,,,,,,127.0,127.0,200.0,125.0,125.0,200.0,4.0,4.1,-222,-287,0,14,258,-270,299.40356731414795,299.40360713005066,299.4060184955597,299.4182381629944,299.56862688064575,299.56862688064575,299.56862688064575,299.56862688064575,299.56862688064575,299.56862688064575,299.56862688064575,302.28641080856323,2,2.8659324645996094,None,,,,,,,,,,,,,,,,,,129,3,2025-02-26_12h53.23.225,comp,2024.2.4,60.04480844746604,2025-02-26 12h53.34.594061 -0500,
72,72,0,filler_square,None,None,None,None,None,None,None,None,None,None,1,1.8768301010131836,None,,,,,0,0,0,0,0,72,72,174,302.30177092552185,,,,,,,,,,,,,,,,,,,,,,,,,,,,,,,,,,,,,,,,,,,,,,,,,,,,,,,,,,,,,,,,,,,,,,,,,,,,,,,,,140.12075470715413,140.12075470715413,134.10214510466642,125.37831072333033,120.67304555953186,119.04844592303263,3.0,3.2,-229,-258,0,14,218,261,302.28758811950684,302.28763031959534,302.28981494903564,302.30177092552185,302.452175617218,302.452175617218,302.452175617218,302.452175617218,302.452175617218,302.452175617218,302.452175617218,304.18609380722046,1,1.8768301010131836,None,,,,,,,,,,,,,,,,,,129,3,2025-02-26_12h53.23.225,comp,2024.2.4,60.04480844746604,2025-02-26 12h53.34.594061 -0500,
73,73,0,filler_square,None,None,None,None,None,None,None,None,None,None,2,1.1198465824127197,None,,,,,0,0,0,0,0,73,73,183,304.20194005966187,,,,,,,,,,,,,,,,,,,,,,,,,,,,,,,,,,,,,,,,,,,,,,,,,,,,,,,,,,,,,,,,,,,,,,,,,,,,,,,,,68.08580276011125,115.65944679208954,134.62336438016226,134.62336438016226,107.99820361755526,87.60870064863855,1.0,1.1,-701,265,-480,260,-273,279,304.1870582103729,304.18709921836853,304.1892189979553,304.20194005966187,304.35173177719116,304.35173177719116,304.35173177719116,304.35173177719116,304.35173177719116,304.35173177719116,304.35173177719116,305.3361465930939,2,1.1198465824127197,None,,,,,,,,,,,,,,,,,,129,3,2025-02-26_12h53.23.225,comp,2024.2.4,60.04480844746604,2025-02-26 12h53.34.594061 -0500,
74,74,0,catch,None,None,None,None,None,None,None,None,None,None,3,1.1169538497924805,None,,,,,0,0,0,0,0,74,74,127,305.3516004085541,,,,,,,,,,,,,,,,,,,,,,,,,,,,,,,,,,,,,,,,,,,,,,,,,,,,,,,,,,,,,,,,,,,,,,,,,,,,,,,,,88,102,98,92,191,134,2.2,2.22,-193,280,0,-283,209,-251,305.33730959892273,305.33735036849976,305.33996415138245,305.3516004085541,305.50167894363403,305.50167894363403,305.50167894363403,305.50167894363403,305.50167894363403,305.50167894363403,305.50167894363403,306.4861145019531,3,1.1169538497924805,None,,,,,,,,,,,,,,,,,,129,3,2025-02-26_12h53.23.225,comp,2024.2.4,60.04480844746604,2025-02-26 12h53.34.594061 -0500,
75,75,0,critical,whd,35.0,2.1,upper,125.0,200.0,200.0,125.0,127.0,127.0,2,1.7561304569244385,None,,,,,0,0,0,0,0,75,75,13,306.50144124031067,,,,,,,,,,,,,,,,,,,,,,,,,,,,,,,,,,,,,,,,,,,,,,,,,,,,,,,,,,,,,,,,,,,,,,,,,,,,,,,,,125.0,200.0,200.0,125.0,127.0,127.0,2.1,2.11,-258,271,0,263,222,-259,306.4869179725647,306.48695731163025,306.489440202713,306.50144124031067,306.6518294811249,306.6518294811249,306.6518294811249,306.6518294811249,306.6518294811249,306.6518294811249,306.6518294811249,308.26987075805664,2,1.7561304569244385,None,,,,,,,,,,,,,,,,,,129,3,2025-02-26_12h53.23.225,comp,2024.2.4,60.04480844746604,2025-02-26 12h53.34.594061 -0500,
76,76,0,filler_random,None,None,None,None,None,None,None,None,None,None,2,1.636918306350708,None,,,,,0,0,0,0,0,76,76,139,308.2848787307739,,,,,,,,,,,,,,,,,,,,,,,,,,,,,,,,,,,,,,,,,,,,,,,,,,,,,,,,,,,,,,,,,,,,,,,,,,,,,,,,,104.9223151317904,128.57410351755524,95.67225575556117,184.72936546759416,89.49257449965442,148.96090105873446,4.0,4.2,-253,20,0,-282,263,1,308.2707543373108,308.27079367637634,308.27286291122437,308.2848787307739,308.4349937438965,308.4349937438965,308.4349937438965,308.4349937438965,308.4349937438965,308.4349937438965,308.4349937438965,309.93618988990784,2,1.636918306350708,None,,,,,,,,,,,,,,,,,,129,3,2025-02-26_12h53.23.225,comp,2024.2.4,60.04480844746604,2025-02-26 12h53.34.594061 -0500,
77,77,0,catch,None,None,None,None,None,None,None,None,None,None,1,1.3325624465942383,None,,,,,0,0,0,0,0,77,77,129,309.95179653167725,,,,,,,,,,,,,,,,,,,,,,,,,,,,,,,,,,,,,,,,,,,,,,,,,,,,,,,,,,,,,,,,,,,,,,,,,,,,,,,,,167,158,116,74,62,128,2.1,2.11,-212,274,0,265,197,-284,309.9372503757477,309.9372911453247,309.93980622291565,309.95179653167725,310.10170316696167,310.10170316696167,310.10170316696167,310.10170316696167,310.10170316696167,310.10170316696167,310.10170316696167,311.3028054237366,1,1.3325624465942383,None,,,,,,,,,,,,,,,,,,129,3,2025-02-26_12h53.23.225,comp,2024.2.4,60.04480844746604,2025-02-26 12h53.34.594061 -0500,
78,78,0,filler_square,None,None,None,None,None,None,None,None,None,None,2,1.4441819190979004,None,,,,,0,0,0,0,0,78,78,170,311.3181781768799,,,,,,,,,,,,,,,,,,,,,,,,,,,,,,,,,,,,,,,,,,,,,,,,,,,,,,,,,,,,,,,,,,,,,,,,,,,,,,,,,89.58046334028121,141.50199074759863,151.82872065974013,151.82872065974013,106.64106668540555,70.43221269873597,2.2,2.22,-243,284,0,-282,207,-275,311.30385756492615,311.3038983345032,311.306027173996,311.3181781768799,311.46841311454773,311.46841311454773,311.46841311454773,311.46841311454773,311.46841311454773,311.46841311454773,311.46841311454773,312.76939940452576,2,1.4441819190979004,None,,,,,,,,,,,,,,,,,,129,3,2025-02-26_12h53.23.225,comp,2024.2.4,60.04480844746604,2025-02-26 12h53.34.594061 -0500,
79,79,0,filler_square,None,None,None,None,None,None,None,None,None,None,3,1.2504551410675049,None,,,,,0,0,0,0,0,79,79,207,312.7849280834198,,,,,,,,,,,,,,,,,,,,,,,,,,,,,,,,,,,,,,,,,,,,,,,,,,,,,,,,,,,,,,,,,,,,,,,,,,,,,,,,,124.30980864633189,125.26790739948548,165.52210843805767,58.80153141473686,176.75932810608867,176.75932810608867,2.1,2.12,-188,-252,0,-251,214,270,312.77036714553833,312.77040815353394,312.7727212905884,312.7849280834198,312.935111284256,312.935111284256,312.935111284256,312.935111284256,312.935111284256,312.935111284256,312.935111284256,314.0527377128601,3,1.2504551410675049,None,,,,,,,,,,,,,,,,,,129,3,2025-02-26_12h53.23.225,comp,2024.2.4,60.04480844746604,2025-02-26 12h53.34.594061 -0500,
80,80,0,catch,None,None,None,None,None,None,None,None,None,None,3,1.069502830505371,None,,,,,0,0,0,0,0,80,80,125,314.06812143325806,,,,,,,,,,,,,,,,,,,,,,,,,,,,,,,,,,,,,,,,,,,,,,,,,,,,,,,,,,,,,,,,,,,,,,,,,,,,,,,,,79,111,64,126,150,175,1.0,1.1,-694,268,-480,258,-234,288,314.05377745628357,314.05381870269775,314.0562307834625,314.06812143325806,314.21823358535767,314.21823358535767,314.21823358535767,314.21823358535767,314.21823358535767,314.21823358535767,314.21823358535767,315.1527705192566,3,1.069502830505371,None,,,,,,,,,,,,,,,,,,129,3,2025-02-26_12h53.23.225,comp,2024.2.4,60.04480844746604,2025-02-26 12h53.34.594061 -0500,
81,81,0,critical,whd,35.0,2.1,lower,57.0,133.0,133.0,57.0,70.0,70.0,2,1.3002471923828125,None,,,,,0,0,0,0,0,81,81,36,315.1680920124054,,,,,,,,,,,,,,,,,,,,,,,,,,,,,,,,,,,,,,,,,,,,,,,,,,,,,,,,,,,,,,,,,,,,,,,,,,,,,,,,,57.0,133.0,133.0,57.0,70.0,70.0,2.1,2.12,-191,-284,0,-252,160,252,315.1535518169403,315.153591632843,315.15593457221985,315.1680920124054,315.31812596321106,315.31812596321106,315.31812596321106,315.31812596321106,315.31812596321106,315.31812596321106,315.31812596321106,316.4695475101471,2,1.3002471923828125,None,,,,,,,,,,,,,,,,,,129,3,2025-02-26_12h53.23.225,comp,2024.2.4,60.04480844746604,2025-02-26 12h53.34.594061 -0500,
82,82,0,critical,hdw,20.0,3.0,lower,133.0,57.0,78.0,78.0,57.0,133.0,1,1.7830536365509033,None,,,,,0,0,0,0,0,82,82,116,316.48495626449585,,,,,,,,,,,,,,,,,,,,,,,,,,,,,,,,,,,,,,,,,,,,,,,,,,,,,,,,,,,,,,,,,,,,,,,,,,,,,,,,,133.0,57.0,78.0,78.0,57.0,133.0,3.0,3.2,-164,-270,0,-11,202,277,316.47033619880676,316.4703757762909,316.4729890823364,316.48495626449585,316.6348958015442,316.6348958015442,316.6348958015442,316.6348958015442,316.6348958015442,316.6348958015442,316.6348958015442,318.26952719688416,1,1.7830536365509033,None,,,,,,,,,,,,,,,,,,129,3,2025-02-26_12h53.23.225,comp,2024.2.4,60.04480844746604,2025-02-26 12h53.34.594061 -0500,
83,83,0,critical,wdh,20.0,1.0,upper,125.0,200.0,141.0,141.0,200.0,125.0,3,2.0845649242401123,None,,,,,0,0,0,0,0,83,83,79,318.28504824638367,,,,,,,,,,,,,,,,,,,,,,,,,,,,,,,,,,,,,,,,,,,,,,,,,,,,,,,,,,,,,,,,,,,,,,,,,,,,,,,,,125.0,200.0,141.0,141.0,200.0,125.0,1.0,1.3,214,-253,480,-274,709,-266,318.27032017707825,318.27036118507385,318.27284717559814,318.28504824638367,318.43504762649536,318.43504762649536,318.43504762649536,318.43504762649536,318.43504762649536,318.43504762649536,318.43504762649536,320.3861734867096,3,2.0845649242401123,None,,,,,,,,,,,,,,,,,,129,3,2025-02-26_12h53.23.225,comp,2024.2.4,60.04480844746604,2025-02-26 12h53.34.594061 -0500,
84,84,0,filler_random,None,None,None,None,None,None,None,None,None,None,3,1.7361347675323486,None,,,,,0,0,0,0,0,84,84,163,320.40150570869446,,,,,,,,,,,,,,,,,,,,,,,,,,,,,,,,,,,,,,,,,,,,,,,,,,,,,,,,,,,,,,,,,,,,,,,,,,,,,,,,,79.37313331235862,148.8840724475819,124.6908590221883,81.89729680355659,156.9015811268792,164.56453838230556,3.0,3.2,-211,-273,0,16,219,269,320.3870816230774,320.38712191581726,320.3900349140167,320.40150570869446,320.55169892311096,320.55169892311096,320.55169892311096,320.55169892311096,320.55169892311096,320.55169892311096,320.55169892311096,322.1527593135834,3,1.7361347675323486,None,,,,,,,,,,,,,,,,,,129,3,2025-02-26_12h53.23.225,comp,2024.2.4,60.04480844746604,2025-02-26 12h53.34.594061 -0500,
85,85,0,filler_square,None,None,None,None,None,None,None,None,None,None,2,0.9854755401611328,None,,,,,0,0,0,0,0,85,85,186,322.1681089401245,,,,,,,,,,,,,,,,,,,,,,,,,,,,,,,,,,,,,,,,,,,,,,,,,,,,,,,,,,,,,,,,,,,,,,,,,,,,,,,,,94.54900191226304,66.0588413186766,116.49441324239146,116.49441324239146,75.50629332494347,69.40222927802222,3.0,3.1,-187,286,0,6,189,-289,322.1537034511566,322.1537435054779,322.15610337257385,322.1681089401245,322.31826519966125,322.31826519966125,322.31826519966125,322.31826519966125,322.31826519966125,322.31826519966125,322.31826519966125,323.1691937446594,2,0.9854755401611328,None,,,,,,,,,,,,,,,,,,129,3,2025-02-26_12h53.23.225,comp,2024.2.4,60.04480844746604,2025-02-26 12h53.34.594061 -0500,
86,86,0,filler_random,None,None,None,None,None,None,None,None,None,None,1,2.5368847846984863,None,,,,,0,0,0,0,0,86,86,130,323.1847822666168,,,,,,,,,,,,,,,,,,,,,,,,,,,,,,,,,,,,,,,,,,,,,,,,,,,,,,,,,,,,,,,,,,,,,,,,,,,,,,,,,109.7972241238908,131.759769324476,103.28189308588088,70.40725985209266,118.22747371296853,91.65136671652908,2.2,2.21,-197,-270,0,280,177,264,323.1701443195343,323.17018270492554,323.172785282135,323.1847822666168,323.3349401950836,323.3349401950836,323.3349401950836,323.3349401950836,323.3349401950836,323.3349401950836,323.3349401950836,325.7360649108887,1,2.5368847846984863,None,,,,,,,,,,,,,,,,,,129,3,2025-02-26_12h53.23.225,comp,2024.2.4,60.04480844746604,2025-02-26 12h53.34.594061 -0500,
87,87,0,critical,whd,20.0,4.0,lower,57.0,133.0,133.0,57.0,78.0,78.0,2,2.0750932693481445,None,,,,,0,0,0,0,0,87,87,94,325.75146532058716,,,,,,,,,,,,,,,,,,,,,,,,,,,,,,,,,,,,,,,,,,,,,,,,,,,,,,,,,,,,,,,,,,,,,,,,,,,,,,,,,57.0,133.0,133.0,57.0,78.0,78.0,4.0,4.2,-191,8,0,-259,164,-15,325.73686027526855,325.73690152168274,325.7393846511841,325.75146532058716,325.9014377593994,325.9014377593994,325.9014377593994,325.9014377593994,325.9014377593994,325.9014377593994,325.9014377593994,327.8358585834503,2,2.0750932693481445,None,,,,,,,,,,,,,,,,,,129,3,2025-02-26_12h53.23.225,comp,2024.2.4,60.04480844746604,2025-02-26 12h53.34.594061 -0500,
88,88,0,critical,wdh,20.0,2.1,lower,57.0,133.0,78.0,78.0,133.0,57.0,3,1.7179815769195557,None,,,,,0,0,0,0,0,88,88,10,327.8516092300415,,,,,,,,,,,,,,,,,,,,,,,,,,,,,,,,,,,,,,,,,,,,,,,,,,,,,,,,,,,,,,,,,,,,,,,,,,,,,,,,,57.0,133.0,78.0,78.0,133.0,57.0,2.1,2.12,-202,-257,0,-255,164,276,327.83663153648376,327.8366701602936,327.83904361724854,327.8516092300415,328.00155377388,328.00155377388,328.00155377388,328.00155377388,328.00155377388,328.00155377388,328.00155377388,329.5858726501465,3,1.7179815769195557,None,,,,,,,,,,,,,,,,,,129,3,2025-02-26_12h53.23.225,comp,2024.2.4,60.04480844746604,2025-02-26 12h53.34.594061 -0500,
89,89,0,critical,dwh,35.0,3.0,upper,127.0,127.0,125.0,200.0,200.0,125.0,3,1.6666522026062012,None,,,,,0,0,0,0,0,89,89,63,329.60138845443726,,,,,,,,,,,,,,,,,,,,,,,,,,,,,,,,,,,,,,,,,,,,,,,,,,,,,,,,,,,,,,,,,,,,,,,,,,,,,,,,,127.0,127.0,125.0,200.0,200.0,125.0,3.0,3.2,-260,-271,0,19,258,274,329.58666920661926,329.5867078304291,329.58916997909546,329.60138845443726,329.75199818611145,329.75199818611145,329.75199818611145,329.75199818611145,329.75199818611145,329.75199818611145,329.75199818611145,331.2696146965027,3,1.6666522026062012,None,,,,,,,,,,,,,,,,,,129,3,2025-02-26_12h53.23.225,comp,2024.2.4,60.04480844746604,2025-02-26 12h53.34.594061 -0500,
90,90,0,critical,hwd,35.0,3.0,upper,200.0,125.0,125.0,200.0,127.0,127.0,1,2.830115795135498,None,,,,,0,0,0,0,0,90,90,99,331.28477597236633,,,,,,,,,,,,,,,,,,,,,,,,,,,,,,,,,,,,,,,,,,,,,,,,,,,,,,,,,,,,,,,,,,,,,,,,,,,,,,,,,200.0,125.0,125.0,200.0,127.0,127.0,3.0,3.2,-258,-256,0,-16,260,266,331.27039980888367,331.27044105529785,331.2727258205414,331.28477597236633,331.43503642082214,331.43503642082214,331.43503642082214,331.43503642082214,331.43503642082214,331.43503642082214,331.43503642082214,334.1196222305298,1,2.830115795135498,None,,,,,,,,,,,,,,,,,,129,3,2025-02-26_12h53.23.225,comp,2024.2.4,60.04480844746604,2025-02-26 12h53.34.594061 -0500,
91,91,0,filler_square,None,None,None,None,None,None,None,None,None,None,3,2.738387107849121,None,,,,,0,0,0,0,0,91,91,185,334.13499760627747,,,,,,,,,,,,,,,,,,,,,,,,,,,,,,,,,,,,,,,,,,,,,,,,,,,,,,,,,,,,,,,,,,,,,,,,,,,,,,,,,83.96984926753325,97.01948708061497,73.9071649718298,93.23074607317683,101.62725285700918,101.62725285700918,1.0,1.1,-671,284,-480,268,-287,260,334.12065839767456,334.1206970214844,334.1231415271759,334.13499760627747,334.2847852706909,334.2847852706909,334.2847852706909,334.2847852706909,334.2847852706909,334.2847852706909,334.2847852706909,336.88601207733154,3,2.738387107849121,None,,,,,,,,,,,,,,,,,,129,3,2025-02-26_12h53.23.225,comp,2024.2.4,60.04480844746604,2025-02-26 12h53.34.594061 -0500,
92,92,0,critical,wdh,20.0,4.0,lower,57.0,133.0,78.0,78.0,133.0,57.0,3,2.166668176651001,None,,,,,0,0,0,0,0,92,92,82,336.9013681411743,,,,,,,,,,,,,,,,,,,,,,,,,,,,,,,,,,,,,,,,,,,,,,,,,,,,,,,,,,,,,,,,,,,,,,,,,,,,,,,,,57.0,133.0,78.0,78.0,133.0,57.0,4.0,4.2,-202,-16,0,-254,164,13,336.88680815696716,336.8868479728699,336.88941049575806,336.9013681411743,337.05133605003357,337.05133605003357,337.05133605003357,337.05133605003357,337.05133605003357,337.05133605003357,337.05133605003357,339.0693693161011,3,2.166668176651001,None,,,,,,,,,,,,,,,,,,129,3,2025-02-26_12h53.23.225,comp,2024.2.4,60.04480844746604,2025-02-26 12h53.34.594061 -0500,
93,93,0,critical,dwh,35.0,4.0,upper,127.0,127.0,125.0,200.0,200.0,125.0,3,1.7836194038391113,None,,,,,0,0,0,0,0,93,93,65,339.08485889434814,,,,,,,,,,,,,,,,,,,,,,,,,,,,,,,,,,,,,,,,,,,,,,,,,,,,,,,,,,,,,,,,,,,,,,,,,,,,,,,,,127.0,127.0,125.0,200.0,200.0,125.0,4.0,4.1,-260,-289,0,9,258,-251,339.07014632225037,339.0701856613159,339.0727958679199,339.08485889434814,339.23494362831116,339.23494362831116,339.23494362831116,339.23494362831116,339.23494362831116,339.23494362831116,339.23494362831116,340.8697655200958,3,1.7836194038391113,None,,,,,,,,,,,,,,,,,,129,3,2025-02-26_12h53.23.225,comp,2024.2.4,60.04480844746604,2025-02-26 12h53.34.594061 -0500,
94,94,0,critical,hwd,20.0,2.1,upper,200.0,125.0,125.0,200.0,141.0,141.0,3,2.0147900581359863,None,,,,,0,0,0,0,0,94,94,43,340.88492941856384,,,,,,,,,,,,,,,,,,,,,,,,,,,,,,,,,,,,,,,,,,,,,,,,,,,,,,,,,,,,,,,,,,,,,,,,,,,,,,,,,200.0,125.0,125.0,200.0,141.0,141.0,2.1,2.12,-258,-267,0,-264,266,282,340.8705677986145,340.8706078529358,340.87298607826233,340.88492941856384,341.0349862575531,341.0349862575531,341.0349862575531,341.0349862575531,341.0349862575531,341.0349862575531,341.0349862575531,342.9028580188751,3,2.0147900581359863,None,,,,,,,,,,,,,,,,,,129,3,2025-02-26_12h53.23.225,comp,2024.2.4,60.04480844746604,2025-02-26 12h53.34.594061 -0500,
95,95,0,filler_square,None,None,None,None,None,None,None,None,None,None,1,3.1814022064208984,None,,,,,0,0,0,0,0,95,95,178,342.9182324409485,,,,,,,,,,,,,,,,,,,,,,,,,,,,,,,,,,,,,,,,,,,,,,,,,,,,,,,,,,,,,,,,,,,,,,,,,,,,,,,,,194.35974489428858,194.35974489428858,89.77456046472662,60.30700436174178,112.4884084389782,192.26561092724438,2.1,2.11,-223,273,0,267,222,-269,342.9038050174713,342.9038450717926,342.9059348106384,342.9182324409485,343.06847310066223,343.06847310066223,343.06847310066223,343.06847310066223,343.06847310066223,343.06847310066223,343.06847310066223,346.10301303863525,1,3.1814022064208984,None,,,,,,,,,,,,,,,,,,129,3,2025-02-26_12h53.23.225,comp,2024.2.4,60.04480844746604,2025-02-26 12h53.34.594061 -0500,
96,96,0,filler_square,None,None,None,None,None,None,None,None,None,None,1,1.2351176738739014,None,,,,,0,0,0,0,0,96,96,200,346.11831498146057,,,,,,,,,,,,,,,,,,,,,,,,,,,,,,,,,,,,,,,,,,,,,,,,,,,,,,,,,,,,,,,,,,,,,,,,,,,,,,,,,113.65029461328132,113.65029461328132,86.43267775813003,67.85599447052432,63.751692657620424,77.36462172735591,4.0,4.1,-187,-264,0,-10,169,-271,346.103967666626,346.1040070056915,346.106121301651,346.11831498146057,346.26820731163025,346.26820731163025,346.26820731163025,346.26820731163025,346.26820731163025,346.26820731163025,346.26820731163025,347.36905884742737,1,1.2351176738739014,None,,,,,,,,,,,,,,,,,,129,3,2025-02-26_12h53.23.225,comp,2024.2.4,60.04480844746604,2025-02-26 12h53.34.594061 -0500,
97,97,0,critical,whd,20.0,3.0,lower,57.0,133.0,133.0,57.0,78.0,78.0,2,1.515636682510376,None,,,,,0,0,0,0,0,97,97,92,347.3845565319061,,,,,,,,,,,,,,,,,,,,,,,,,,,,,,,,,,,,,,,,,,,,,,,,,,,,,,,,,,,,,,,,,,,,,,,,,,,,,,,,,57.0,133.0,133.0,57.0,78.0,78.0,3.0,3.1,-191,287,0,13,164,-263,347.36986112594604,347.3699007034302,347.37238669395447,347.3845565319061,347.5348000526428,347.5348000526428,347.5348000526428,347.5348000526428,347.5348000526428,347.5348000526428,347.5348000526428,348.90250515937805,2,1.515636682510376,None,,,,,,,,,,,,,,,,,,129,3,2025-02-26_12h53.23.225,comp,2024.2.4,60.04480844746604,2025-02-26 12h53.34.594061 -0500,
98,98,0,critical,dwh,20.0,4.0,upper,141.0,141.0,125.0,200.0,200.0,125.0,3,2.428065061569214,None,,,,,0,0,0,0,0,98,98,71,348.91817712783813,,,,,,,,,,,,,,,,,,,,,,,,,,,,,,,,,,,,,,,,,,,,,,,,,,,,,,,,,,,,,,,,,,,,,,,,,,,,,,,,,141.0,141.0,125.0,200.0,200.0,125.0,4.0,4.1,-266,-255,0,-12,258,-263,348.90330481529236,348.9033453464508,348.9054043292999,348.91817712783813,349.0686330795288,349.0686330795288,349.0686330795288,349.0686330795288,349.0686330795288,349.0686330795288,349.0686330795288,351.3526179790497,3,2.428065061569214,None,,,,,,,,,,,,,,,,,,129,3,2025-02-26_12h53.23.225,comp,2024.2.4,60.04480844746604,2025-02-26 12h53.34.594061 -0500,
99,99,0,critical,dwh,20.0,3.0,upper,141.0,141.0,125.0,200.0,200.0,125.0,3,1.7312664985656738,None,,,,,0,0,0,0,0,99,99,69,351.368141412735,,,,,,,,,,,,,,,,,,,,,,,,,,,,,,,,,,,,,,,,,,,,,,,,,,,,,,,,,,,,,,,,,,,,,,,,,,,,,,,,,141.0,141.0,125.0,200.0,200.0,125.0,3.0,3.2,-266,-271,0,18,258,264,351.353392124176,351.3534326553345,351.3554708957672,351.368141412735,351.51814889907837,351.51814889907837,351.51814889907837,351.51814889907837,351.51814889907837,351.51814889907837,351.51814889907837,353.10274505615234,3,1.7312664985656738,None,,,,,,,,,,,,,,,,,,129,3,2025-02-26_12h53.23.225,comp,2024.2.4,60.04480844746604,2025-02-26 12h53.34.594061 -0500,
100,100,0,filler_random,None,None,None,None,None,None,None,None,None,None,3,1.6030385494232178,None,,,,,0,0,0,0,0,100,100,148,353.11840772628784,,,,,,,,,,,,,,,,,,,,,,,,,,,,,,,,,,,,,,,,,,,,,,,,,,,,,,,,,,,,,,,,,,,,,,,,,,,,,,,,,89.35169122527046,66.72422930506632,86.5529345925488,167.49827868268,199.59064017714175,100.55869183029583,3.0,3.1,-213,290,0,16,230,-275,353.103716135025,353.1037564277649,353.1058690547943,353.11840772628784,353.26804876327515,353.26804876327515,353.26804876327515,353.26804876327515,353.26804876327515,353.26804876327515,353.26804876327515,354.73583912849426,3,1.6030385494232178,None,,,,,,,,,,,,,,,,,,129,3,2025-02-26_12h53.23.225,comp,2024.2.4,60.04480844746604,2025-02-26 12h53.34.594061 -0500,
101,101,0,filler_random,None,None,None,None,None,None,None,None,None,None,1,1.753591775894165,None,,,,,0,0,0,0,0,101,101,137,354.7678167819977,,,,,,,,,,,,,,,,,,,,,,,,,,,,,,,,,,,,,,,,,,,,,,,,,,,,,,,,,,,,,,,,,,,,,,,,,,,,,,,,,175.7043085156388,128.9622462981495,180.74455752435293,106.93257406853769,83.60498972203885,129.51221507402812,1.0,1.1,-694,264,-480,286,-266,251,354.73675417900085,354.7367932796478,354.73917531967163,354.7678167819977,354.90143299102783,354.90143299102783,354.90143299102783,354.90143299102783,354.90143299102783,354.90143299102783,354.90143299102783,356.53585410118103,1,1.753591775894165,None,,,,,,,,,,,,,,,,,,129,3,2025-02-26_12h53.23.225,comp,2024.2.4,60.04480844746604,2025-02-26 12h53.34.594061 -0500,
102,102,0,critical,dhw,20.0,4.0,upper,141.0,141.0,200.0,125.0,125.0,200.0,3,2.738097667694092,None,,,,,0,0,0,0,0,102,102,59,356.5511963367462,,,,,,,,,,,,,,,,,,,,,,,,,,,,,,,,,,,,,,,,,,,,,,,,,,,,,,,,,,,,,,,,,,,,,,,,,,,,,,,,,141.0,141.0,200.0,125.0,125.0,200.0,4.0,4.2,-229,19,0,-259,258,10,356.5366451740265,356.5366861820221,356.53911781311035,356.5511963367462,356.7017683982849,356.7017683982849,356.7017683982849,356.7017683982849,356.7017683982849,356.7017683982849,356.7017683982849,359.30256485939026,3,2.738097667694092,None,,,,,,,,,,,,,,,,,,129,3,2025-02-26_12h53.23.225,comp,2024.2.4,60.04480844746604,2025-02-26 12h53.34.594061 -0500,
103,103,0,critical,dhw,35.0,2.1,lower,70.0,70.0,133.0,57.0,57.0,133.0,2,1.3502097129821777,None,,,,,0,0,0,0,0,103,103,24,359.31780433654785,,,,,,,,,,,,,,,,,,,,,,,,,,,,,,,,,,,,,,,,,,,,,,,,,,,,,,,,,,,,,,,,,,,,,,,,,,,,,,,,,70.0,70.0,133.0,57.0,57.0,133.0,2.1,2.11,-160,276,0,253,191,-265,359.303377866745,359.3034164905548,359.3054633140564,359.31780433654785,359.46788477897644,359.46788477897644,359.46788477897644,359.46788477897644,359.46788477897644,359.46788477897644,359.46788477897644,360.66921043395996,2,1.3502097129821777,None,,,,,,,,,,,,,,,,,,129,3,2025-02-26_12h53.23.225,comp,2024.2.4,60.04480844746604,2025-02-26 12h53.34.594061 -0500,
104,104,0,filler_square,None,None,None,None,None,None,None,None,None,None,3,2.3096418380737305,None,,,,,0,0,0,0,0,104,104,194,360.6846146583557,,,,,,,,,,,,,,,,,,,,,,,,,,,,,,,,,,,,,,,,,,,,,,,,,,,,,,,,,,,,,,,,,,,,,,,,,,,,,,,,,70.85137189660092,58.6633458573612,71.21323208578876,80.72163525194433,85.90281691043334,85.90281691043334,3.0,3.2,-166,-288,0,-8,179,276,360.6702275276184,360.670268535614,360.6729166507721,360.6846146583557,360.83453273773193,360.83453273773193,360.83453273773193,360.83453273773193,360.83453273773193,360.83453273773193,360.83453273773193,363.00229597091675,3,2.3096418380737305,None,,,,,,,,,,,,,,,,,,129,3,2025-02-26_12h53.23.225,comp,2024.2.4,60.04480844746604,2025-02-26 12h53.34.594061 -0500,
105,105,0,filler_random,None,None,None,None,None,None,None,None,None,None,2,1.392347812652588,None,,,,,0,0,0,0,0,105,105,134,363.01797699928284,,,,,,,,,,,,,,,,,,,,,,,,,,,,,,,,,,,,,,,,,,,,,,,,,,,,,,,,,,,,,,,,,,,,,,,,,,,,,,,,,117.53184510470497,151.13827017349274,146.4301261584627,131.81016477691878,133.38319719071202,103.33711224016429,3.0,3.1,-237,278,0,-17,214,-258,363.0031943321228,363.0032353401184,363.0057990550995,363.01797699928284,363.1680998802185,363.1680998802185,363.1680998802185,363.1680998802185,363.1680998802185,363.1680998802185,363.1680998802185,364.4191036224365,2,1.392347812652588,None,,,,,,,,,,,,,,,,,,129,3,2025-02-26_12h53.23.225,comp,2024.2.4,60.04480844746604,2025-02-26 12h53.34.594061 -0500,
106,106,0,filler_square,None,None,None,None,None,None,None,None,None,None,1,1.934617280960083,None,,,,,0,0,0,0,0,106,106,202,364.4346489906311,,,,,,,,,,,,,,,,,,,,,,,,,,,,,,,,,,,,,,,,,,,,,,,,,,,,,,,,,,,,,,,,,,,,,,,,,,,,,,,,,121.71628174187933,121.71628174187933,85.71277253727364,115.03003539916206,77.14439328029187,92.89306880674457,3.0,3.1,-214,261,0,-11,200,-258,364.42009353637695,364.420134305954,364.42260456085205,364.4346489906311,364.58469104766846,364.58469104766846,364.58469104766846,364.58469104766846,364.58469104766846,364.58469104766846,364.58469104766846,366.3857183456421,1,1.934617280960083,None,,,,,,,,,,,,,,,,,,129,3,2025-02-26_12h53.23.225,comp,2024.2.4,60.04480844746604,2025-02-26 12h53.34.594061 -0500,
107,107,0,filler_square,None,None,None,None,None,None,None,None,None,None,3,1.304797649383545,None,,,,,0,0,0,0,0,107,107,172,366.4011778831482,,,,,,,,,,,,,,,,,,,,,,,,,,,,,,,,,,,,,,,,,,,,,,,,,,,,,,,,,,,,,,,,,,,,,,,,,,,,,,,,,92.20308418488324,90.23631839314324,69.81152573092822,85.09185768940796,97.19108425962716,97.19108425962716,4.0,4.2,-184,-17,0,-265,187,4,366.3866844177246,366.3867256641388,366.388827085495,366.4011778831482,366.55124139785767,366.55124139785767,366.55124139785767,366.55124139785767,366.55124139785767,366.55124139785767,366.55124139785767,367.71896719932556,3,1.304797649383545,None,,,,,,,,,,,,,,,,,,129,3,2025-02-26_12h53.23.225,comp,2024.2.4,60.04480844746604,2025-02-26 12h53.34.594061 -0500,
108,108,0,filler_random,None,None,None,None,None,None,None,None,None,None,1,1.218994379043579,None,,,,,0,0,0,0,0,108,108,166,367.73444294929504,,,,,,,,,,,,,,,,,,,,,,,,,,,,,,,,,,,,,,,,,,,,,,,,,,,,,,,,,,,,,,,,,,,,,,,,,,,,,,,,,192.44489294701415,194.30385190565488,119.71455877115338,95.8971343311905,98.92034647354369,64.64336234319009,4.0,4.1,-241,-269,0,-11,176,-265,367.719913482666,367.7199537754059,367.7224371433258,367.73444294929504,367.8846170902252,367.8846170902252,367.8846170902252,367.8846170902252,367.8846170902252,367.8846170902252,367.8846170902252,368.9691321849823,1,1.218994379043579,None,,,,,,,,,,,,,,,,,,129,3,2025-02-26_12h53.23.225,comp,2024.2.4,60.04480844746604,2025-02-26 12h53.34.594061 -0500,
109,109,0,filler_square,None,None,None,None,None,None,None,None,None,None,3,1.1301467418670654,None,,,,,0,0,0,0,0,109,109,195,368.9845561981201,,,,,,,,,,,,,,,,,,,,,,,,,,,,,,,,,,,,,,,,,,,,,,,,,,,,,,,,,,,,,,,,,,,,,,,,,,,,,,,,,61.62194961526512,140.57368890945352,118.8002435805848,129.66697897625772,190.82246765779269,190.82246765779269,1.0,1.2,-231,15,0,6,256,-14,368.970091342926,368.97013235092163,368.972599029541,368.9845561981201,369.1347711086273,369.1347711086273,369.1347711086273,369.1347711086273,369.1347711086273,369.1347711086273,369.1347711086273,370.1192100048065,3,1.1301467418670654,None,,,,,,,,,,,,,,,,,,129,3,2025-02-26_12h53.23.225,comp,2024.2.4,60.04480844746604,2025-02-26 12h53.34.594061 -0500,
110,110,0,filler_random,None,None,None,None,None,None,None,None,None,None,1,1.3222293853759766,None,,,,,0,0,0,0,0,110,110,158,370.1349251270294,,,,,,,,,,,,,,,,,,,,,,,,,,,,,,,,,,,,,,,,,,,,,,,,,,,,,,,,,,,,,,,,,,,,,,,,,,,,,,,,,133.43613136643225,137.56961625512105,118.38305533739167,98.55134695741265,72.78466512856176,149.42600864533722,1.0,1.2,-214,-1,0,-20,220,-4,370.120148897171,370.1201891899109,370.12229776382446,370.1349251270294,370.28459191322327,370.28459191322327,370.28459191322327,370.28459191322327,370.28459191322327,370.28459191322327,370.28459191322327,371.46937918663025,1,1.3222293853759766,None,,,,,,,,,,,,,,,,,,129,3,2025-02-26_12h53.23.225,comp,2024.2.4,60.04480844746604,2025-02-26 12h53.34.594061 -0500,
111,111,0,filler_square,None,None,None,None,None,None,None,None,None,None,3,1.1256887912750244,None,,,,,0,0,0,0,0,111,111,189,371.4844284057617,,,,,,,,,,,,,,,,,,,,,,,,,,,,,,,,,,,,,,,,,,,,,,,,,,,,,,,,,,,,,,,,,,,,,,,,,,,,,,,,,134.40519960587574,77.05697419655299,75.9351869715916,75.64197981145935,158.31088573195552,158.31088573195552,3.0,3.2,-172,-265,0,12,213,250,371.4703664779663,371.4704089164734,371.4729497432709,371.4844284057617,371.6345283985138,371.6345283985138,371.6345283985138,371.6345283985138,371.6345283985138,371.6345283985138,371.6345283985138,372.61904525756836,3,1.1256887912750244,None,,,,,,,,,,,,,,,,,,129,3,2025-02-26_12h53.23.225,comp,2024.2.4,60.04480844746604,2025-02-26 12h53.34.594061 -0500,
112,112,0,critical,hwd,35.0,1.0,lower,133.0,57.0,57.0,133.0,70.0,70.0,1,1.3595309257507324,None,,,,,0,0,0,0,0,112,112,96,372.63463854789734,,,,,,,,,,,,,,,,,,,,,,,,,,,,,,,,,,,,,,,,,,,,,,,,,,,,,,,,,,,,,,,,,,,,,,,,,,,,,,,,,133.0,57.0,57.0,133.0,70.0,70.0,1.0,1.1,-671,276,-480,253,-282,254,372.619868516922,372.6199097633362,372.62201166152954,372.63463854789734,372.7844922542572,372.7844922542572,372.7844922542572,372.7844922542572,372.7844922542572,372.7844922542572,372.7844922542572,374.00234293937683,1,1.3595309257507324,None,,,,,,,,,,,,,,,,,,129,3,2025-02-26_12h53.23.225,comp,2024.2.4,60.04480844746604,2025-02-26 12h53.34.594061 -0500,
113,113,0,critical,wdh,20.0,3.0,upper,125.0,200.0,141.0,141.0,200.0,125.0,3,1.4243686199188232,None,,,,,0,0,0,0,0,113,113,81,374.0180597305298,,,,,,,,,,,,,,,,,,,,,,,,,,,,,,,,,,,,,,,,,,,,,,,,,,,,,,,,,,,,,,,,,,,,,,,,,,,,,,,,,125.0,200.0,141.0,141.0,200.0,125.0,3.0,3.1,-266,285,0,-7,229,-259,374.0031795501709,374.0032215118408,374.00524830818176,374.0180597305298,374.1680119037628,374.1680119037628,374.1680119037628,374.1680119037628,374.1680119037628,374.1680119037628,374.1680119037628,375.45267724990845,3,1.4243686199188232,None,,,,,,,,,,,,,,,,,,129,3,2025-02-26_12h53.23.225,comp,2024.2.4,60.04480844746604,2025-02-26 12h53.34.594061 -0500,
114,114,0,critical,dwh,35.0,3.0,lower,70.0,70.0,57.0,133.0,133.0,57.0,3,2.70121169090271,None,,,,,0,0,0,0,0,114,114,62,375.46804094314575,,,,,,,,,,,,,,,,,,,,,,,,,,,,,,,,,,,,,,,,,,,,,,,,,,,,,,,,,,,,,,,,,,,,,,,,,,,,,,,,,70.0,70.0,57.0,133.0,133.0,57.0,3.0,3.2,-198,-273,0,7,191,261,375.4535653591156,375.45360565185547,375.45577096939087,375.46804094314575,375.6180896759033,375.6180896759033,375.6180896759033,375.6180896759033,375.6180896759033,375.6180896759033,375.6180896759033,378.1856367588043,3,2.70121169090271,None,,,,,,,,,,,,,,,,,,129,3,2025-02-26_12h53.23.225,comp,2024.2.4,60.04480844746604,2025-02-26 12h53.34.594061 -0500,
115,115,0,critical,dwh,35.0,1.0,upper,127.0,127.0,125.0,200.0,200.0,125.0,3,1.40889573097229,None,,,,,0,0,0,0,0,115,115,61,378.20126509666443,,,,,,,,,,,,,,,,,,,,,,,,,,,,,,,,,,,,,,,,,,,,,,,,,,,,,,,,,,,,,,,,,,,,,,,,,,,,,,,,,127.0,127.0,125.0,200.0,200.0,125.0,1.0,1.2,-260,0,0,-4,258,7,378.18636655807495,378.18640398979187,378.18833804130554,378.20126509666443,378.3513195514679,378.3513195514679,378.3513195514679,378.3513195514679,378.3513195514679,378.3513195514679,378.3513195514679,379.6192481517792,3,1.40889573097229,None,,,,,,,,,,,,,,,,,,129,3,2025-02-26_12h53.23.225,comp,2024.2.4,60.04480844746604,2025-02-26 12h53.34.594061 -0500,
116,116,0,critical,hdw,35.0,3.0,upper,200.0,125.0,127.0,127.0,125.0,200.0,1,1.3113129138946533,None,,,,,0,0,0,0,0,116,116,111,379.63466691970825,,,,,,,,,,,,,,,,,,,,,,,,,,,,,,,,,,,,,,,,,,,,,,,,,,,,,,,,,,,,,,,,,,,,,,,,,,,,,,,,,200.0,125.0,127.0,127.0,125.0,200.0,3.0,3.2,-222,-286,0,13,260,265,379.6200566291809,379.62009596824646,379.6222004890442,379.63466691970825,379.7847282886505,379.7847282886505,379.7847282886505,379.7847282886505,379.7847282886505,379.7847282886505,379.7847282886505,380.9525110721588,1,1.3113129138946533,None,,,,,,,,,,,,,,,,,,129,3,2025-02-26_12h53.23.225,comp,2024.2.4,60.04480844746604,2025-02-26 12h53.34.594061 -0500,
117,117,0,critical,dhw,20.0,2.1,upper,141.0,141.0,200.0,125.0,125.0,200.0,3,1.2184035778045654,None,,,,,0,0,0,0,0,117,117,3,380.96801018714905,,,,,,,,,,,,,,,,,,,,,,,,,,,,,,,,,,,,,,,,,,,,,,,,,,,,,,,,,,,,,,,,,,,,,,,,,,,,,,,,,141.0,141.0,200.0,125.0,125.0,200.0,2.1,2.11,-229,260,0,257,258,-259,380.9533154964447,380.95335626602173,380.95656657218933,380.96801018714905,381.1183388233185,381.1183388233185,381.1183388233185,381.1183388233185,381.1183388233185,381.1183388233185,381.1183388233185,382.2024507522583,3,1.2184035778045654,None,,,,,,,,,,,,,,,,,,129,3,2025-02-26_12h53.23.225,comp,2024.2.4,60.04480844746604,2025-02-26 12h53.34.594061 -0500,
118,118,0,filler_square,None,None,None,None,None,None,None,None,None,None,3,1.4169621467590332,None,,,,,0,0,0,0,0,118,118,198,382.21772050857544,,,,,,,,,,,,,,,,,,,,,,,,,,,,,,,,,,,,,,,,,,,,,,,,,,,,,,,,,,,,,,,,,,,,,,,,,,,,,,,,,117.15017008669423,121.77690630691845,88.67960485500713,116.83736927333817,124.61072908713533,124.61072908713533,4.0,4.2,-215,-19,0,-274,217,-16,382.2034137248993,382.20345425605774,382.2055480480194,382.21772050857544,382.3679208755493,382.3679208755493,382.3679208755493,382.3679208755493,382.3679208755493,382.3679208755493,382.3679208755493,383.65221881866455,3,1.4169621467590332,None,,,,,,,,,,,,,,,,,,129,3,2025-02-26_12h53.23.225,comp,2024.2.4,60.04480844746604,2025-02-26 12h53.34.594061 -0500,
119,119,0,filler_square,None,None,None,None,None,None,None,None,None,None,3,1.046722173690796,None,,,,,0,0,0,0,0,119,119,175,383.66765546798706,,,,,,,,,,,,,,,,,,,,,,,,,,,,,,,,,,,,,,,,,,,,,,,,,,,,,,,,,,,,,,,,,,,,,,,,,,,,,,,,,159.26051446505875,61.56424714560413,57.183463393047376,92.86770790801955,179.95151659721975,179.95151659721975,2.1,2.12,-173,-282,0,-263,232,257,383.65317606925964,383.6532163619995,383.6557548046112,383.66765546798706,383.81808614730835,383.81808614730835,383.81808614730835,383.81808614730835,383.81808614730835,383.81808614730835,383.81808614730835,384.7190706729889,3,1.046722173690796,None,,,,,,,,,,,,,,,,,,129,3,2025-02-26_12h53.23.225,comp,2024.2.4,60.04480844746604,2025-02-26 12h53.34.594061 -0500,
120,120,0,critical,dwh,20.0,2.1,lower,78.0,78.0,57.0,133.0,133.0,57.0,3,1.2834405899047852,None,,,,,0,0,0,0,0,120,120,30,384.7346119880676,,,,,,,,,,,,,,,,,,,,,,,,,,,,,,,,,,,,,,,,,,,,,,,,,,,,,,,,,,,,,,,,,,,,,,,,,,,,,,,,,78.0,78.0,57.0,133.0,133.0,57.0,2.1,2.11,-202,269,0,280,191,-268,384.7199065685272,384.7199475765228,384.72204756736755,384.7346119880676,384.8845295906067,384.8845295906067,384.8845295906067,384.8845295906067,384.8845295906067,384.8845295906067,384.8845295906067,386.03552532196045,3,1.2834405899047852,None,,,,,,,,,,,,,,,,,,129,3,2025-02-26_12h53.23.225,comp,2024.2.4,60.04480844746604,2025-02-26 12h53.34.594061 -0500,
121,121,0,critical,wdh,20.0,1.0,lower,57.0,133.0,78.0,78.0,133.0,57.0,3,1.3506927490234375,None,,,,,0,0,0,0,0,121,121,78,386.05094623565674,,,,,,,,,,,,,,,,,,,,,,,,,,,,,,,,,,,,,,,,,,,,,,,,,,,,,,,,,,,,,,,,,,,,,,,,,,,,,,,,,57.0,133.0,78.0,78.0,133.0,57.0,1.0,1.3,278,-272,480,-279,644,-278,386.0363383293152,386.0363781452179,386.038699388504,386.05094623565674,386.2012677192688,386.2012677192688,386.2012677192688,386.2012677192688,386.2012677192688,386.2012677192688,386.2012677192688,387.4187443256378,3,1.3506927490234375,None,,,,,,,,,,,,,,,,,,129,3,2025-02-26_12h53.23.225,comp,2024.2.4,60.04480844746604,2025-02-26 12h53.34.594061 -0500,
122,122,0,filler_random,None,None,None,None,None,None,None,None,None,None,2,1.5115668773651123,None,,,,,0,0,0,0,0,122,122,159,387.43433809280396,,,,,,,,,,,,,,,,,,,,,,,,,,,,,,,,,,,,,,,,,,,,,,,,,,,,,,,,,,,,,,,,,,,,,,,,,,,,,,,,,157.62262315258795,82.14413592247426,167.79392804979565,104.94982258750707,140.15431318399789,107.6122763942978,1.0,1.2,-190,-18,0,-16,202,3,387.41964983940125,387.4196894168854,387.4217462539673,387.43433809280396,387.5846347808838,387.5846347808838,387.5846347808838,387.5846347808838,387.5846347808838,387.5846347808838,387.5846347808838,388.95228695869446,2,1.5115668773651123,None,,,,,,,,,,,,,,,,,,129,3,2025-02-26_12h53.23.225,comp,2024.2.4,60.04480844746604,2025-02-26 12h53.34.594061 -0500,
123,123,0,filler_random,None,None,None,None,None,None,None,None,None,None,3,1.9213206768035889,None,,,,,0,0,0,0,0,123,123,155,388.96790409088135,,,,,,,,,,,,,,,,,,,,,,,,,,,,,,,,,,,,,,,,,,,,,,,,,,,,,,,,,,,,,,,,,,,,,,,,,,,,,,,,,161.8712802594501,72.37752692487703,116.53636579882077,116.42184978031798,145.07606677963173,95.71088193078324,2.1,2.12,-190,-262,0,-281,202,253,388.95330357551575,388.95334672927856,388.95602107048035,388.96790409088135,389.1177649497986,389.1177649497986,389.1177649497986,389.1177649497986,389.1177649497986,389.1177649497986,389.1177649497986,390.902400970459,3,1.9213206768035889,None,,,,,,,,,,,,,,,,,,129,3,2025-02-26_12h53.23.225,comp,2024.2.4,60.04480844746604,2025-02-26 12h53.34.594061 -0500,
124,124,0,filler_square,None,None,None,None,None,None,None,None,None,None,3,1.419607162475586,None,,,,,0,0,0,0,0,124,124,209,390.91771626472473,,,,,,,,,,,,,,,,,,,,,,,,,,,,,,,,,,,,,,,,,,,,,,,,,,,,,,,,,,,,,,,,,,,,,,,,,,,,,,,,,120.5657589571428,89.51363637216801,108.75677388619587,89.96577942179508,127.76529956585058,127.76529956585058,2.2,2.22,-186,252,0,-262,205,-289,390.9033930301666,390.90343499183655,390.90552163124084,390.91771626472473,391.0681121349335,391.0681121349335,391.0681121349335,391.0681121349335,391.0681121349335,391.0681121349335,391.0681121349335,392.35214710235596,3,1.419607162475586,None,,,,,,,,,,,,,,,,,,129,3,2025-02-26_12h53.23.225,comp,2024.2.4,60.04480844746604,2025-02-26 12h53.34.594061 -0500,
125,125,0,critical,wdh,20.0,2.1,lower,57.0,133.0,78.0,78.0,133.0,57.0,3,2.2014758586883545,None,,,,,0,0,0,0,0,125,125,34,392.367591381073,,,,,,,,,,,,,,,,,,,,,,,,,,,,,,,,,,,,,,,,,,,,,,,,,,,,,,,,,,,,,,,,,,,,,,,,,,,,,,,,,57.0,133.0,78.0,78.0,133.0,57.0,2.1,2.12,-202,-266,0,-251,164,262,392.35299921035767,392.35303950309753,392.355660200119,392.367591381073,392.5178189277649,392.5178189277649,392.5178189277649,392.5178189277649,392.5178189277649,392.5178189277649,392.5178189277649,394.58538722991943,3,2.2014758586883545,None,,,,,,,,,,,,,,,,,,129,3,2025-02-26_12h53.23.225,comp,2024.2.4,60.04480844746604,2025-02-26 12h53.34.594061 -0500,
126,126,0,critical,hdw,20.0,2.1,lower,133.0,57.0,78.0,78.0,57.0,133.0,3,1.682758092880249,None,,,,,0,0,0,0,0,126,126,22,394.600905418396,,,,,,,,,,,,,,,,,,,,,,,,,,,,,,,,,,,,,,,,,,,,,,,,,,,,,,,,,,,,,,,,,,,,,,,,,,,,,,,,,133.0,57.0,78.0,78.0,57.0,133.0,2.1,2.11,-164,289,0,257,202,-254,394.58618998527527,394.58622789382935,394.5888366699219,394.600905418396,394.75099205970764,394.75099205970764,394.75099205970764,394.75099205970764,394.75099205970764,394.75099205970764,394.75099205970764,396.3021385669708,3,1.682758092880249,None,,,,,,,,,,,,,,,,,,129,3,2025-02-26_12h53.23.225,comp,2024.2.4,60.04480844746604,2025-02-26 12h53.34.594061 -0500,
127,127,0,filler_random,None,None,None,None,None,None,None,None,None,None,3,1.1972758769989014,None,,,,,0,0,0,0,0,127,127,138,396.31764554977417,,,,,,,,,,,,,,,,,,,,,,,,,,,,,,,,,,,,,,,,,,,,,,,,,,,,,,,,,,,,,,,,,,,,,,,,,,,,,,,,,113.0464999267152,192.65303042604458,87.3821512198455,110.63974297984876,169.36024418456105,126.7088070666553,4.0,4.2,-248,-2,0,-252,215,11,396.30306220054626,396.30310249328613,396.3056592941284,396.31764554977417,396.4678564071655,396.4678564071655,396.4678564071655,396.4678564071655,396.4678564071655,396.4678564071655,396.4678564071655,397.51910877227783,3,1.1972758769989014,None,,,,,,,,,,,,,,,,,,129,3,2025-02-26_12h53.23.225,comp,2024.2.4,60.04480844746604,2025-02-26 12h53.34.594061 -0500,
128,128,0,critical,hdw,35.0,2.1,lower,133.0,57.0,70.0,70.0,57.0,133.0,1,3.043463706970215,None,,,,,0,0,0,0,0,128,128,44,397.5344624519348,,,,,,,,,,,,,,,,,,,,,,,,,,,,,,,,,,,,,,,,,,,,,,,,,,,,,,,,,,,,,,,,,,,,,,,,,,,,,,,,,133.0,57.0,70.0,70.0,57.0,133.0,2.1,2.12,-160,-278,0,-285,198,265,397.51992177963257,397.5199615955353,397.52204275131226,397.5344624519348,397.6844148635864,397.6844148635864,397.6844148635864,397.6844148635864,397.6844148635864,397.6844148635864,397.6844148635864,400.58546447753906,1,3.043463706970215,None,,,,,,,,,,,,,,,,,,129,3,2025-02-26_12h53.23.225,comp,2024.2.4,60.04480844746604,2025-02-26 12h53.34.594061 -0500,
129,129,0,critical,dwh,20.0,1.0,lower,78.0,78.0,57.0,133.0,133.0,57.0,3,1.2663838863372803,None,,,,,0,0,0,0,0,129,129,66,400.6012179851532,,,,,,,,,,,,,,,,,,,,,,,,,,,,,,,,,,,,,,,,,,,,,,,,,,,,,,,,,,,,,,,,,,,,,,,,,,,,,,,,,78.0,78.0,57.0,133.0,133.0,57.0,1.0,1.2,-202,-17,0,0,191,10,400.58624935150146,400.5862898826599,400.588830947876,400.6012179851532,400.7510461807251,400.7510461807251,400.7510461807251,400.7510461807251,400.7510461807251,400.7510461807251,400.7510461807251,401.8691132068634,3,1.2663838863372803,None,,,,,,,,,,,,,,,,,,129,3,2025-02-26_12h53.23.225,comp,2024.2.4,60.04480844746604,2025-02-26 12h53.34.594061 -0500,
130,130,0,critical,dhw,35.0,4.0,lower,70.0,70.0,133.0,57.0,57.0,133.0,3,1.245689868927002,None,,,,,0,0,0,0,0,130,130,52,401.8844373226166,,,,,,,,,,,,,,,,,,,,,,,,,,,,,,,,,,,,,,,,,,,,,,,,,,,,,,,,,,,,,,,,,,,,,,,,,,,,,,,,,70.0,70.0,133.0,57.0,57.0,133.0,4.0,4.1,-160,-282,0,-7,191,-252,401.86991238594055,401.86995244026184,401.87205028533936,401.8844373226166,402.03432178497314,402.03432178497314,402.03432178497314,402.03432178497314,402.03432178497314,402.03432178497314,402.03432178497314,403.13538455963135,3,1.245689868927002,None,,,,,,,,,,,,,,,,,,129,3,2025-02-26_12h53.23.225,comp,2024.2.4,60.04480844746604,2025-02-26 12h53.34.594061 -0500,
131,131,0,filler_square,None,None,None,None,None,None,None,None,None,None,3,1.5378756523132324,None,,,,,0,0,0,0,0,131,131,190,403.15122532844543,,,,,,,,,,,,,,,,,,,,,,,,,,,,,,,,,,,,,,,,,,,,,,,,,,,,,,,,,,,,,,,,,,,,,,,,,,,,,,,,,61.98047975908026,61.98047975908026,58.5653049730514,58.658851563648966,59.79523035904236,59.26432974036387,2.2,2.22,-156,287,0,-277,155,-271,403.1364166736603,403.136456489563,403.1391725540161,403.15122532844543,403.3009054660797,403.3009054660797,403.3009054660797,403.3009054660797,403.3009054660797,403.3009054660797,403.3009054660797,404.702445268631,3,1.5378756523132324,None,,,,,,,,,,,,,,,,,,129,3,2025-02-26_12h53.23.225,comp,2024.2.4,60.04480844746604,2025-02-26 12h53.34.594061 -0500,
132,132,0,critical,hdw,35.0,1.0,upper,200.0,125.0,127.0,127.0,125.0,200.0,1,2.6441495418548584,None,,,,,0,0,0,0,0,132,132,109,404.7175998687744,,,,,,,,,,,,,,,,,,,,,,,,,,,,,,,,,,,,,,,,,,,,,,,,,,,,,,,,,,,,,,,,,,,,,,,,,,,,,,,,,200.0,125.0,127.0,127.0,125.0,200.0,1.0,1.2,-222,-8,0,19,260,-2,404.7032308578491,404.7032709121704,404.70576763153076,404.7175998687744,404.86805272102356,404.86805272102356,404.86805272102356,404.86805272102356,404.86805272102356,404.86805272102356,404.86805272102356,407.36887073516846,1,2.6441495418548584,None,,,,,,,,,,,,,,,,,,129,3,2025-02-26_12h53.23.225,comp,2024.2.4,60.04480844746604,2025-02-26 12h53.34.594061 -0500,
133,133,0,filler_square,None,None,None,None,None,None,None,None,None,None,3,1.336543321609497,None,,,,,0,0,0,0,0,133,133,206,407.38447880744934,,,,,,,,,,,,,,,,,,,,,,,,,,,,,,,,,,,,,,,,,,,,,,,,,,,,,,,,,,,,,,,,,,,,,,,,,,,,,,,,,127.84668840752903,123.04377980822912,147.94763044073977,115.80911210230391,153.03611199537906,153.03611199537906,2.1,2.11,-215,266,0,265,230,-271,407.3698239326477,407.3698630332947,407.3719596862793,407.38447880744934,407.53445196151733,407.53445196151733,407.53445196151733,407.53445196151733,407.53445196151733,407.53445196151733,407.53445196151733,408.73549818992615,3,1.336543321609497,None,,,,,,,,,,,,,,,,,,129,3,2025-02-26_12h53.23.225,comp,2024.2.4,60.04480844746604,2025-02-26 12h53.34.594061 -0500,
134,134,0,critical,whd,35.0,1.0,lower,57.0,133.0,133.0,57.0,70.0,70.0,1,2.106215476989746,None,,,,,0,0,0,0,0,134,134,84,408.75069999694824,,,,,,,,,,,,,,,,,,,,,,,,,,,,,,,,,,,,,,,,,,,,,,,,,,,,,,,,,,,,,,,,,,,,,,,,,,,,,,,,,57.0,133.0,133.0,57.0,70.0,70.0,1.0,1.2,-191,-10,0,-12,160,-18,408.736279964447,408.7363176345825,408.73857593536377,408.75069999694824,408.9009938240051,408.9009938240051,408.9009938240051,408.9009938240051,408.9009938240051,408.9009938240051,408.9009938240051,410.86884784698486,1,2.106215476989746,None,,,,,,,,,,,,,,,,,,129,3,2025-02-26_12h53.23.225,comp,2024.2.4,60.04480844746604,2025-02-26 12h53.34.594061 -0500,
135,135,0,critical,whd,20.0,2.1,upper,125.0,200.0,200.0,125.0,141.0,141.0,2,2.1504628658294678,None,,,,,0,0,0,0,0,135,135,39,410.9007680416107,,,,,,,,,,,,,,,,,,,,,,,,,,,,,,,,,,,,,,,,,,,,,,,,,,,,,,,,,,,,,,,,,,,,,,,,,,,,,,,,,125.0,200.0,200.0,125.0,141.0,141.0,2.1,2.12,-258,-253,0,-286,229,262,410.8696448802948,410.86968445777893,410.87205719947815,410.9007680416107,411.0346314907074,411.0346314907074,411.0346314907074,411.0346314907074,411.0346314907074,411.0346314907074,411.0346314907074,413.06885600090027,2,2.1504628658294678,None,,,,,,,,,,,,,,,,,,129,3,2025-02-26_12h53.23.225,comp,2024.2.4,60.04480844746604,2025-02-26 12h53.34.594061 -0500,
136,136,0,critical,wdh,35.0,2.1,upper,125.0,200.0,127.0,127.0,200.0,125.0,3,1.5339467525482178,None,,,,,0,0,0,0,0,136,136,33,413.08413195610046,,,,,,,,,,,,,,,,,,,,,,,,,,,,,,,,,,,,,,,,,,,,,,,,,,,,,,,,,,,,,,,,,,,,,,,,,,,,,,,,,125.0,200.0,127.0,127.0,200.0,125.0,2.1,2.12,-260,-290,0,-277,222,256,413.06964468955994,413.06968450546265,413.0730082988739,413.08413195610046,413.2344698905945,413.2344698905945,413.2344698905945,413.2344698905945,413.2344698905945,413.2344698905945,413.2344698905945,414.63545060157776,3,1.5339467525482178,None,,,,,,,,,,,,,,,,,,129,3,2025-02-26_12h53.23.225,comp,2024.2.4,60.04480844746604,2025-02-26 12h53.34.594061 -0500,
137,137,0,critical,hwd,20.0,4.0,lower,133.0,57.0,57.0,133.0,78.0,78.0,1,1.9750888347625732,None,,,,,0,0,0,0,0,137,137,106,414.6507513523102,,,,,,,,,,,,,,,,,,,,,,,,,,,,,,,,,,,,,,,,,,,,,,,,,,,,,,,,,,,,,,,,,,,,,,,,,,,,,,,,,133.0,57.0,57.0,133.0,78.0,78.0,4.0,4.1,-191,-284,0,14,202,-259,414.6362612247467,414.63630080223083,414.63894486427307,414.6507513523102,414.8008518218994,414.8008518218994,414.8008518218994,414.8008518218994,414.8008518218994,414.8008518218994,414.8008518218994,416.6352903842926,1,1.9750888347625732,None,,,,,,,,,,,,,,,,,,129,3,2025-02-26_12h53.23.225,comp,2024.2.4,60.04480844746604,2025-02-26 12h53.34.594061 -0500,
138,138,0,filler_random,None,None,None,None,None,None,None,None,None,None,3,1.5179190635681152,None,,,,,0,0,0,0,0,138,138,141,416.6510531902313,,,,,,,,,,,,,,,,,,,,,,,,,,,,,,,,,,,,,,,,,,,,,,,,,,,,,,,,,,,,,,,,,,,,,,,,,,,,,,,,,104.22833718953592,68.76251423119758,94.1888970305352,109.53196867750131,152.53724924488432,121.84343540020046,1.0,1.3,295,-268,480,-275,692,-251,416.63617515563965,416.6362147331238,416.63821029663086,416.6510531902313,416.8011176586151,416.8011176586151,416.8011176586151,416.8011176586151,416.8011176586151,416.8011176586151,416.8011176586151,418.18537521362305,3,1.5179190635681152,None,,,,,,,,,,,,,,,,,,129,3,2025-02-26_12h53.23.225,comp,2024.2.4,60.04480844746604,2025-02-26 12h53.34.594061 -0500,
139,139,0,critical,whd,20.0,1.0,upper,125.0,200.0,200.0,125.0,141.0,141.0,2,1.760972499847412,None,,,,,0,0,0,0,0,139,139,91,418.2009108066559,,,,,,,,,,,,,,,,,,,,,,,,,,,,,,,,,,,,,,,,,,,,,,,,,,,,,,,,,,,,,,,,,,,,,,,,,,,,,,,,,125.0,200.0,200.0,125.0,141.0,141.0,1.0,1.1,-738,285,-480,262,-251,273,418.18620204925537,418.18624329566956,418.1887674331665,418.2009108066559,418.3511440753937,418.3511440753937,418.3511440753937,418.3511440753937,418.3511440753937,418.3511440753937,418.3511440753937,419.96944403648376,2,1.760972499847412,None,,,,,,,,,,,,,,,,,,129,3,2025-02-26_12h53.23.225,comp,2024.2.4,60.04480844746604,2025-02-26 12h53.34.594061 -0500,
