thisN,thisTrialN,thisRepN,effect,order,distance,config,diag,h_1,w_1,h_2,w_2,h_3,w_3,rect_choice.keys,rect_choice.rt,rect_choice.duration,instructions_loop.thisRepN,instructions_loop.thisTrialN,instructions_loop.thisN,instructions_loop.thisIndex,blocks.thisRepN,blocks.thisTrialN,blocks.thisN,blocks.thisIndex,trials.thisRepN,trials.thisTrialN,trials.thisN,trials.thisIndex,thisRow.t,notes,consent.started,agree_button.started,decline_button.started,consent_img.started,mouse.started,consent.stopped,agree_button.numClicks,agree_button.timesOn,agree_button.timesOff,decline_button.numClicks,decline_button.timesOn,decline_button.timesOff,mouse.x,mouse.y,mouse.leftButton,mouse.midButton,mouse.rightButton,mouse.time,mouse.clicked_name,exp_params.started,exp_params.stopped,welcome.started,welcome_text.started,welcome.stopped,instructions_1.started,instructions_1_text_1.started,instructions_1_text_2.started,key_resp.started,instructions_1.stopped,instructions_loop.key_resp.keys,instructions_loop.key_resp.rt,instructions_loop.key_resp.duration,instructions_2.started,instructions_2_text_1.started,instructions_2_text_2.started,key_resp_2.started,instructions_2.stopped,instructions_loop.key_resp_2.keys,instructions_loop.key_resp_2.rt,instructions_loop.key_resp_2.duration,instructions_3.started,instructions_3_text_1.started,r1_instr3.started,r2_instr3.started,r3_instr3.started,r1_instr3_label.started,r2_instr3_label.started,r3_instr3_label.started,instructions_3_text_3.started,instructions_3_text_4.started,key_resp_3.started,instructions_3.stopped,instructions_loop.key_resp_3.keys,instructions_loop.key_resp_3.rt,instructions_loop.key_resp_3.duration,instructions_4.started,instructions_4_text_1.started,instructions_4_text_3.started,instructions_4_text_2.started,key_resp_4.started,instructions_4.stopped,instructions_loop.key_resp_4.keys,instructions_loop.key_resp_4.rt,instructions_loop.key_resp_4.duration,instructions_5.started,instructions_5_text_1.started,instructions_5_text_2.started,key_resp_5.started,instructions_5.stopped,instructions_loop.key_resp_5.keys,instructions_loop.key_resp_5.rt,instructions_loop.key_resp_5.duration,start_exp.started,start_exp_text.started,key_resp_6.started,start_exp.stopped,key_resp_6.keys,key_resp_6.rt,key_resp_6.duration,h_1_tmp,w_1_tmp,h_2_tmp,w_2_tmp,h_3_tmp,w_3_tmp,config_tmp,config_tmp_1,r_1_x,r_1_y,r_2_x,r_2_y,r_3_x,r_3_y,pre_trial.started,pre_trial.stopped,choice_trial.started,rect_choice.started,r_1.started,r_2.started,r_3.started,r_1_label.started,r_2_label.started,r_3_label.started,prompt.started,choice_trial.stopped,trials.rect_choice.keys,trials.rect_choice.rt,trials.rect_choice.duration,end_block.started,end_block_text.started,end_block.stopped,end.started,end_text.started,key_resp_7.started,end.stopped,key_resp_7.keys,key_resp_7.rt,key_resp_7.duration,debriefing.started,debrief_form.started,end_debrief.started,debriefing.stopped,end_debrief.keys,end_debrief.rt,end_debrief.duration,participant,computer,date,expName,psychopyVersion,frameRate,expStart,
,,,,,,,,,,,,,,,,,,,,,,,,,,,,,,,0.01425623893737793,0.03394746780395508,0.03394746780395508,0.03394746780395508,0.013996124267578125,12.2587149143219,1,[12.222077131271362],[12.222100257873535],0,,,[-74.0],[-519.0],[1],[0],[0],[12.24392580986023],['agree_button'],,,,,,,,,,,,,,,,,,,,,,,,,,,,,,,,,,,,,,,,,,,,,,,,,,,,,,,,,,,,,,,,,,,,,,,,,,,,,,,,,,,,,,,,,,,,,,,,,,,,,,,,,,,12,1,2025-02-18_14h03.25.196,comp,2024.2.4,57.838826980119165,2025-02-18 14h03.42.013828 -0500,
,,,,,,,,,,,,,,,,,,,,,,,,,,,,,,,,,,,,,,,,,,,,,,,,,,12.259231805801392,12.259299755096436,,,,,,,,,,,,,,,,,,,,,,,,,,,,,,,,,,,,,,,,,,,,,,,,,,,,,,,,,,,,,,,,,,,,,,,,,,,,,,,,,,,,,,,,,,,,,,,,,,,,,,,,,12,1,2025-02-18_14h03.25.196,comp,2024.2.4,57.838826980119165,2025-02-18 14h03.42.013828 -0500,
,,,,,,,,,,,,,,,,,,,,,,,,,,,,,,,,,,,,,,,,,,,,,,,,,,,,12.259343147277832,12.275317430496216,14.266908407211304,,,,,,,,,,,,,,,,,,,,,,,,,,,,,,,,,,,,,,,,,,,,,,,,,,,,,,,,,,,,,,,,,,,,,,,,,,,,,,,,,,,,,,,,,,,,,,,,,,,,,,12,1,2025-02-18_14h03.25.196,comp,2024.2.4,57.838826980119165,2025-02-18 14h03.42.013828 -0500,
0,0,0,,,,,,,,,,,,,,,0,0,0,0,,,,,,,,,14.287253618240356,,,,,,,,,,,,,,,,,,,,,,,,,,14.267806768417358,14.287253618240356,14.287253618240356,15.768653154373169,17.753548860549927,space,1.9661097526550293,None,17.753691911697388,17.769134521484375,17.769134521484375,19.26975417137146,26.29082727432251,space,7.009966850280762,None,26.29097604751587,26.319005727767944,26.319005727767944,26.319005727767944,26.319005727767944,26.319005727767944,26.319005727767944,26.319005727767944,26.319005727767944,26.319005727767944,27.808202505111694,37.54251837730408,space,9.72782850265503,None,37.5426869392395,37.56471586227417,37.56471586227417,37.56471586227417,39.0569703578949,46.714195013046265,space,7.654296875,None,46.71435880661011,46.72963786125183,46.72963786125183,48.21037149429321,50.14835500717163,space,1.926511526107788,None,50.14860463142395,50.16290616989136,50.16290616989136,53.098615884780884,space,2.9320898056030273,None,,,,,,,,,,,,,,,,,,,,,,,,,,,,,,,,,,,,,,,,,,,,,,,12,1,2025-02-18_14h03.25.196,comp,2024.2.4,57.838826980119165,2025-02-18 14h03.42.013828 -0500,
0,0,0,filler_square,None,None,None,None,None,None,None,None,None,None,2,4.544975519180298,None,,,,,0,0,0,0,0,0,0,204,53.17414689064026,,,,,,,,,,,,,,,,,,,,,,,,,,,,,,,,,,,,,,,,,,,,,,,,,,,,,,,,,,,,,,,,,,,,,,,,,,,,,,,,,78.18845211352608,134.70188639402758,138.99178849471213,138.99178849471213,78.63898562211938,73.07655093274728,4.0,4.2,-233,-8,0,-281,202,-2,53.1576783657074,53.15771245956421,53.15889763832092,53.17414689064026,53.32256531715393,53.32256531715393,53.32256531715393,53.32256531715393,53.32256531715393,53.32256531715393,53.32256531715393,57.73277401924133,2,4.544975519180298,None,,,,,,,,,,,,,,,,,,12,1,2025-02-18_14h03.25.196,comp,2024.2.4,57.838826980119165,2025-02-18 14h03.42.013828 -0500,
1,1,0,filler_square,None,None,None,None,None,None,None,None,None,None,1,4.011224985122681,None,,,,,0,0,0,0,0,1,1,194,57.749017000198364,,,,,,,,,,,,,,,,,,,,,,,,,,,,,,,,,,,,,,,,,,,,,,,,,,,,,,,,,,,,,,,,,,,,,,,,,,,,,,,,,75.66781206858465,75.66781206858465,72.45676002738429,70.46055807849196,72.95560159068604,62.52001116672722,2.1,2.12,-169,-289,0,-250,162,282,57.734532833099365,57.734610080718994,57.73788547515869,57.749017000198364,57.88964796066284,57.88964796066284,57.88964796066284,57.88964796066284,57.88964796066284,57.88964796066284,57.88964796066284,61.771116495132446,1,4.011224985122681,None,,,,,,,,,,,,,,,,,,12,1,2025-02-18_14h03.25.196,comp,2024.2.4,57.838826980119165,2025-02-18 14h03.42.013828 -0500,
2,2,0,critical,whd,35.0,4.0,lower,57.0,133.0,133.0,57.0,70.0,70.0,1,4.3253865242004395,None,,,,,0,0,0,0,0,2,2,88,61.78776979446411,,,,,,,,,,,,,,,,,,,,,,,,,,,,,,,,,,,,,,,,,,,,,,,,,,,,,,,,,,,,,,,,,,,,,,,,,,,,,,,,,57.0,133.0,133.0,57.0,70.0,70.0,4.0,4.2,-191,-19,0,-275,160,-14,61.77289366722107,61.77303409576416,61.77693772315979,61.78776979446411,61.93826079368591,61.93826079368591,61.93826079368591,61.93826079368591,61.93826079368591,61.93826079368591,61.93826079368591,66.11841225624084,1,4.3253865242004395,None,,,,,,,,,,,,,,,,,,12,1,2025-02-18_14h03.25.196,comp,2024.2.4,57.838826980119165,2025-02-18 14h03.42.013828 -0500,
3,3,0,filler_random,None,None,None,None,None,None,None,None,None,None,2,2.945314645767212,None,,,,,0,0,0,0,0,3,3,142,66.13487982749939,,,,,,,,,,,,,,,,,,,,,,,,,,,,,,,,,,,,,,,,,,,,,,,,,,,,,,,,,,,,,,,,,,,,,,,,,,,,,,,,,196.95905513226737,126.58794227350486,168.58724960149863,186.57812645754697,161.06318002344454,150.9749509678527,2.2,2.21,-253,-258,0,286,265,252,66.1201560497284,66.12023448944092,66.12328124046326,66.13487982749939,66.28596806526184,66.28596806526184,66.28596806526184,66.28596806526184,66.28596806526184,66.28596806526184,66.28596806526184,69.08559513092041,2,2.945314645767212,None,,,,,,,,,,,,,,,,,,12,1,2025-02-18_14h03.25.196,comp,2024.2.4,57.838826980119165,2025-02-18 14h03.42.013828 -0500,
4,4,0,filler_random,None,None,None,None,None,None,None,None,None,None,1,3.2812235355377197,None,,,,,0,0,0,0,0,4,4,149,69.10211563110352,,,,,,,,,,,,,,,,,,,,,,,,,,,,,,,,,,,,,,,,,,,,,,,,,,,,,,,,,,,,,,,,,,,,,,,,,,,,,,,,,155.47969815291282,133.60705487632015,76.49380849882759,57.04771199415049,72.38361308875588,183.68304973024505,3.0,3.1,-191,284,0,-14,216,-268,69.08727383613586,69.08735370635986,69.0904061794281,69.10211563110352,69.24943280220032,69.24943280220032,69.24943280220032,69.24943280220032,69.24943280220032,69.24943280220032,69.24943280220032,72.39370918273926,1,3.2812235355377197,None,,,,,,,,,,,,,,,,,,12,1,2025-02-18_14h03.25.196,comp,2024.2.4,57.838826980119165,2025-02-18 14h03.42.013828 -0500,
5,5,0,critical,wdh,35.0,3.0,upper,125.0,200.0,127.0,127.0,200.0,125.0,3,7.673173189163208,None,,,,,0,0,0,0,0,5,5,75,72.41460227966309,,,,,,,,,,,,,,,,,,,,,,,,,,,,,,,,,,,,,,,,,,,,,,,,,,,,,,,,,,,,,,,,,,,,,,,,,,,,,,,,,125.0,200.0,127.0,127.0,200.0,125.0,3.0,3.2,-260,-261,0,-2,222,280,72.39536166191101,72.39546918869019,72.39880418777466,72.41460227966309,72.55857229232788,72.55857229232788,72.55857229232788,72.55857229232788,72.55857229232788,72.55857229232788,72.55857229232788,80.09582257270813,3,7.673173189163208,None,,,,,,,,,,,,,,,,,,12,1,2025-02-18_14h03.25.196,comp,2024.2.4,57.838826980119165,2025-02-18 14h03.42.013828 -0500,
6,6,0,filler_square,None,None,None,None,None,None,None,None,None,None,2,2.966146230697632,None,,,,,0,0,0,0,0,6,6,205,80.11390662193298,,,,,,,,,,,,,,,,,,,,,,,,,,,,,,,,,,,,,,,,,,,,,,,,,,,,,,,,,,,,,,,,,,,,,,,,,,,,,,,,,80.83072939081579,64.99427097089993,99.23473459249999,99.23473459249999,97.88370055439711,78.21776617986359,4.0,4.2,-178,-16,0,-256,185,13,80.09827876091003,80.0983624458313,80.10124373435974,80.11390662193298,80.25854969024658,80.25854969024658,80.25854969024658,80.25854969024658,80.25854969024658,80.25854969024658,80.25854969024658,83.09469485282898,2,2.966146230697632,None,,,,,,,,,,,,,,,,,,12,1,2025-02-18_14h03.25.196,comp,2024.2.4,57.838826980119165,2025-02-18 14h03.42.013828 -0500,
7,7,0,filler_random,None,None,None,None,None,None,None,None,None,None,2,2.241070508956909,None,,,,,0,0,0,0,0,7,7,166,83.1111228466034,,,,,,,,,,,,,,,,,,,,,,,,,,,,,,,,,,,,,,,,,,,,,,,,,,,,,,,,,,,,,,,,,,,,,,,,,,,,,,,,,131.11844485557353,119.18195406249002,195.7528772677625,124.59348461156603,65.24211784764817,155.88311724315963,4.0,4.2,-218,-1,0,-263,236,-1,83.09697008132935,83.09705257415771,83.09992098808289,83.1111228466034,83.25836539268494,83.25836539268494,83.25836539268494,83.25836539268494,83.25836539268494,83.25836539268494,83.25836539268494,85.35949230194092,2,2.241070508956909,None,,,,,,,,,,,,,,,,,,12,1,2025-02-18_14h03.25.196,comp,2024.2.4,57.838826980119165,2025-02-18 14h03.42.013828 -0500,
8,8,0,filler_random,None,None,None,None,None,None,None,None,None,None,3,1.8004519939422607,None,,,,,0,0,0,0,0,8,8,169,85.37534189224243,,,,,,,,,,,,,,,,,,,,,,,,,,,,,,,,,,,,,,,,,,,,,,,,,,,,,,,,,,,,,,,,,,,,,,,,,,,,,,,,,110.38852098932556,148.79903776676875,114.40126901015587,63.68595751495607,169.64379406735014,186.73828528878607,2.1,2.12,-202,-288,0,-288,221,290,85.36135411262512,85.36143469810486,85.36448359489441,85.37534189224243,85.52398037910461,85.52398037910461,85.52398037910461,85.52398037910461,85.52398037910461,85.52398037910461,85.52398037910461,87.18282103538513,3,1.8004519939422607,None,,,,,,,,,,,,,,,,,,12,1,2025-02-18_14h03.25.196,comp,2024.2.4,57.838826980119165,2025-02-18 14h03.42.013828 -0500,
9,9,0,critical,hwd,35.0,3.0,lower,133.0,57.0,57.0,133.0,70.0,70.0,2,5.51869535446167,None,,,,,0,0,0,0,0,9,9,98,87.20157480239868,,,,,,,,,,,,,,,,,,,,,,,,,,,,,,,,,,,,,,,,,,,,,,,,,,,,,,,,,,,,,,,,,,,,,,,,,,,,,,,,,133.0,57.0,57.0,133.0,70.0,70.0,3.0,3.1,-191,269,0,-2,198,-284,87.18416213989258,87.18421864509583,87.18627214431763,87.20157480239868,87.34279274940491,87.34279274940491,87.34279274940491,87.34279274940491,87.34279274940491,87.34279274940491,87.34279274940491,92.72896957397461,2,5.51869535446167,None,,,,,,,,,,,,,,,,,,12,1,2025-02-18_14h03.25.196,comp,2024.2.4,57.838826980119165,2025-02-18 14h03.42.013828 -0500,
10,10,0,critical,hwd,20.0,3.0,upper,200.0,125.0,125.0,200.0,141.0,141.0,2,7.463329792022705,None,,,,,0,0,0,0,0,10,10,105,92.74519228935242,,,,,,,,,,,,,,,,,,,,,,,,,,,,,,,,,,,,,,,,,,,,,,,,,,,,,,,,,,,,,,,,,,,,,,,,,,,,,,,,,200.0,125.0,125.0,200.0,141.0,141.0,3.0,3.1,-258,264,0,3,266,-263,92.7306649684906,92.73080325126648,92.7342689037323,92.74519228935242,92.89430379867554,92.89430379867554,92.89430379867554,92.89430379867554,92.89430379867554,92.89430379867554,92.89430379867554,100.21210670471191,2,7.463329792022705,None,,,,,,,,,,,,,,,,,,12,1,2025-02-18_14h03.25.196,comp,2024.2.4,57.838826980119165,2025-02-18 14h03.42.013828 -0500,
11,11,0,filler_square,None,None,None,None,None,None,None,None,None,None,2,4.810302495956421,None,,,,,0,0,0,0,0,11,11,195,100.22956156730652,,,,,,,,,,,,,,,,,,,,,,,,,,,,,,,,,,,,,,,,,,,,,,,,,,,,,,,,,,,,,,,,,,,,,,,,,,,,,,,,,148.94132849469975,148.94132849469975,131.25046610830407,137.5214151858037,68.93391175235227,107.38044186110187,2.2,2.22,-239,281,0,-284,218,-251,100.21423125267029,100.21431231498718,100.2176582813263,100.22956156730652,100.37833952903748,100.37833952903748,100.37833952903748,100.37833952903748,100.37833952903748,100.37833952903748,100.37833952903748,105.04986596107483,2,4.810302495956421,None,,,,,,,,,,,,,,,,,,12,1,2025-02-18_14h03.25.196,comp,2024.2.4,57.838826980119165,2025-02-18 14h03.42.013828 -0500,
12,12,0,filler_random,None,None,None,None,None,None,None,None,None,None,2,18.846771001815796,None,,,,,0,0,0,0,0,12,12,140,105.0658745765686,,,,,,,,,,,,,,,,,,,,,,,,,,,,,,,,,,,,,,,,,,,,,,,,,,,,,,,,,,,,,,,,,,,,,,,,,,,,,,,,,123.53976605479001,99.17482180971595,173.37641209703187,196.17280626723192,126.15757797829835,132.528876679309,4.0,4.2,-244,-16,0,-252,260,-14,105.05161714553833,105.05169701576233,105.05458903312683,105.0658745765686,105.21968507766724,105.21968507766724,105.21968507766724,105.21968507766724,105.21968507766724,105.21968507766724,105.21968507766724,123.92007875442505,2,18.846771001815796,None,,,,,,,,,,,,,,,,,,12,1,2025-02-18_14h03.25.196,comp,2024.2.4,57.838826980119165,2025-02-18 14h03.42.013828 -0500,
13,13,0,critical,hwd,35.0,4.0,upper,200.0,125.0,125.0,200.0,127.0,127.0,2,15.271356582641602,None,,,,,0,0,0,0,0,13,13,101,123.93699789047241,,,,,,,,,,,,,,,,,,,,,,,,,,,,,,,,,,,,,,,,,,,,,,,,,,,,,,,,,,,,,,,,,,,,,,,,,,,,,,,,,200.0,125.0,125.0,200.0,127.0,127.0,4.0,4.1,-258,-271,0,6,260,-288,123.92166090011597,123.92176127433777,123.92510628700256,123.93699789047241,124.07522773742676,124.07522773742676,124.07522773742676,124.07522773742676,124.07522773742676,124.07522773742676,124.07522773742676,139.21113181114197,2,15.271356582641602,None,,,,,,,,,,,,,,,,,,12,1,2025-02-18_14h03.25.196,comp,2024.2.4,57.838826980119165,2025-02-18 14h03.42.013828 -0500,
14,14,0,critical,hwd,20.0,1.0,lower,133.0,57.0,57.0,133.0,78.0,78.0,1,6.636273384094238,None,,,,,0,0,0,0,0,14,14,102,139.22761297225952,,,,,,,,,,,,,,,,,,,,,,,,,,,,,,,,,,,,,,,,,,,,,,,,,,,,,,,,,,,,,,,,,,,,,,,,,,,,,,,,,133.0,57.0,57.0,133.0,78.0,78.0,1.0,1.1,-671,254,-480,266,-278,285,139.21289157867432,139.21297335624695,139.21625089645386,139.22761297225952,139.3756422996521,139.3756422996521,139.3756422996521,139.3756422996521,139.3756422996521,139.3756422996521,139.3756422996521,145.8781476020813,1,6.636273384094238,None,,,,,,,,,,,,,,,,,,12,1,2025-02-18_14h03.25.196,comp,2024.2.4,57.838826980119165,2025-02-18 14h03.42.013828 -0500,
15,15,0,critical,wdh,35.0,4.0,lower,57.0,133.0,70.0,70.0,133.0,57.0,3,3.91401743888855,None,,,,,0,0,0,0,0,15,15,76,145.89446091651917,,,,,,,,,,,,,,,,,,,,,,,,,,,,,,,,,,,,,,,,,,,,,,,,,,,,,,,,,,,,,,,,,,,,,,,,,,,,,,,,,57.0,133.0,70.0,70.0,133.0,57.0,4.0,4.1,-198,-275,0,-19,160,-273,145.8796842098236,145.87976121902466,145.8830645084381,145.89446091651917,146.04689002037048,146.04689002037048,146.04689002037048,146.04689002037048,146.04689002037048,146.04689002037048,146.04689002037048,149.81392288208008,3,3.91401743888855,None,,,,,,,,,,,,,,,,,,12,1,2025-02-18_14h03.25.196,comp,2024.2.4,57.838826980119165,2025-02-18 14h03.42.013828 -0500,
16,16,0,critical,dhw,35.0,3.0,upper,127.0,127.0,200.0,125.0,125.0,200.0,3,1.995023488998413,None,,,,,0,0,0,0,0,16,16,51,149.82974696159363,,,,,,,,,,,,,,,,,,,,,,,,,,,,,,,,,,,,,,,,,,,,,,,,,,,,,,,,,,,,,,,,,,,,,,,,,,,,,,,,,127.0,127.0,200.0,125.0,125.0,200.0,3.0,3.2,-222,-263,0,14,258,251,149.81562399864197,149.81574249267578,149.81901502609253,149.82974696159363,149.97891092300415,149.97891092300415,149.97891092300415,149.97891092300415,149.97891092300415,149.97891092300415,149.97891092300415,151.83002638816833,3,1.995023488998413,None,,,,,,,,,,,,,,,,,,12,1,2025-02-18_14h03.25.196,comp,2024.2.4,57.838826980119165,2025-02-18 14h03.42.013828 -0500,
17,17,0,filler_random,None,None,None,None,None,None,None,None,None,None,2,1.8266513347625732,None,,,,,0,0,0,0,0,17,17,151,151.8458468914032,,,,,,,,,,,,,,,,,,,,,,,,,,,,,,,,,,,,,,,,,,,,,,,,,,,,,,,,,,,,,,,,,,,,,,,,,,,,,,,,,59.59371295033469,130.49428735335624,150.527530819702,182.95447859172282,129.9693796180644,150.82912536513834,1.0,1.3,227,-275,480,-251,743,-277,151.8317472934723,151.83182573318481,151.83525562286377,151.8458468914032,151.998277425766,151.998277425766,151.998277425766,151.998277425766,151.998277425766,151.998277425766,151.998277425766,153.68222546577454,2,1.8266513347625732,None,,,,,,,,,,,,,,,,,,12,1,2025-02-18_14h03.25.196,comp,2024.2.4,57.838826980119165,2025-02-18 14h03.42.013828 -0500,
18,18,0,filler_square,None,None,None,None,None,None,None,None,None,None,3,2.846190929412842,None,,,,,0,0,0,0,0,18,18,185,153.6992917060852,,,,,,,,,,,,,,,,,,,,,,,,,,,,,,,,,,,,,,,,,,,,,,,,,,,,,,,,,,,,,,,,,,,,,,,,,,,,,,,,,90.22458779595831,100.42313120619274,57.678126277003706,64.77570152517158,107.68196645792548,107.68196645792548,1.0,1.3,301,-284,480,-252,662,-278,153.68425846099854,153.68434047698975,153.68720388412476,153.6992917060852,153.84468960762024,153.84468960762024,153.84468960762024,153.84468960762024,153.84468960762024,153.84468960762024,153.84468960762024,156.56594443321228,3,2.846190929412842,None,,,,,,,,,,,,,,,,,,12,1,2025-02-18_14h03.25.196,comp,2024.2.4,57.838826980119165,2025-02-18 14h03.42.013828 -0500,
19,19,0,critical,wdh,20.0,1.0,lower,57.0,133.0,78.0,78.0,133.0,57.0,3,2.9466075897216797,None,,,,,0,0,0,0,0,19,19,78,156.58235549926758,,,,,,,,,,,,,,,,,,,,,,,,,,,,,,,,,,,,,,,,,,,,,,,,,,,,,,,,,,,,,,,,,,,,,,,,,,,,,,,,,57.0,133.0,78.0,78.0,133.0,57.0,1.0,1.1,-682,288,-480,286,-316,262,156.56749939918518,156.56757807731628,156.5706033706665,156.58235549926758,156.73508715629578,156.73508715629578,156.73508715629578,156.73508715629578,156.73508715629578,156.73508715629578,156.73508715629578,159.5329785346985,3,2.9466075897216797,None,,,,,,,,,,,,,,,,,,12,1,2025-02-18_14h03.25.196,comp,2024.2.4,57.838826980119165,2025-02-18 14h03.42.013828 -0500,
20,20,0,filler_square,None,None,None,None,None,None,None,None,None,None,3,1.4757332801818848,None,,,,,0,0,0,0,0,20,20,180,159.5492398738861,,,,,,,,,,,,,,,,,,,,,,,,,,,,,,,,,,,,,,,,,,,,,,,,,,,,,,,,,,,,,,,,,,,,,,,,,,,,,,,,,170.45806965730685,70.97177090718407,139.50451025315323,154.7430436057282,195.9433840623173,195.9433840623173,3.0,3.2,-209,-280,0,-17,271,265,159.53481364250183,159.5348961353302,159.53834748268127,159.5492398738861,159.69983983039856,159.69983983039856,159.69983983039856,159.69983983039856,159.69983983039856,159.69983983039856,159.69983983039856,161.0324695110321,3,1.4757332801818848,None,,,,,,,,,,,,,,,,,,12,1,2025-02-18_14h03.25.196,comp,2024.2.4,57.838826980119165,2025-02-18 14h03.42.013828 -0500,
21,21,0,filler_random,None,None,None,None,None,None,None,None,None,None,3,2.935163736343384,None,,,,,0,0,0,0,0,21,21,160,161.04886937141418,,,,,,,,,,,,,,,,,,,,,,,,,,,,,,,,,,,,,,,,,,,,,,,,,,,,,,,,,,,,,,,,,,,,,,,,,,,,,,,,,78.48134881089905,144.61271518301962,108.51306083757298,149.88692551738234,184.79343427408844,142.0964083378645,2.1,2.12,-243,-289,0,-250,242,285,161.03428840637207,161.03442573547363,161.03768396377563,161.04886937141418,161.20393443107605,161.20393443107605,161.20393443107605,161.20393443107605,161.20393443107605,161.20393443107605,161.20393443107605,164.00083589553833,3,2.935163736343384,None,,,,,,,,,,,,,,,,,,12,1,2025-02-18_14h03.25.196,comp,2024.2.4,57.838826980119165,2025-02-18 14h03.42.013828 -0500,
22,22,0,catch,None,None,None,None,None,None,None,None,None,None,3,1.0639424324035645,None,,,,,0,0,0,0,0,22,22,123,164.01711058616638,,,,,,,,,,,,,,,,,,,,,,,,,,,,,,,,,,,,,,,,,,,,,,,,,,,,,,,,,,,,,,,,,,,,,,,,,,,,,,,,,127,63,132,58,139,186,3.0,3.2,-156,-252,0,-16,218,284,164.00300669670105,164.00308871269226,164.0066728591919,164.01711058616638,164.16823863983154,164.16823863983154,164.16823863983154,164.16823863983154,164.16823863983154,164.16823863983154,164.16823863983154,165.0868444442749,3,1.0639424324035645,None,,,,,,,,,,,,,,,,,,12,1,2025-02-18_14h03.25.196,comp,2024.2.4,57.838826980119165,2025-02-18 14h03.42.013828 -0500,
23,23,0,filler_square,None,None,None,None,None,None,None,None,None,None,3,1.8326666355133057,None,,,,,0,0,0,0,0,23,23,173,165.1034095287323,,,,,,,,,,,,,,,,,,,,,,,,,,,,,,,,,,,,,,,,,,,,,,,,,,,,,,,,,,,,,,,,,,,,,,,,,,,,,,,,,74.35121948440928,80.32634790240695,62.57266816366734,98.7940123792765,129.76838675662668,129.76838675662668,1.0,1.3,294,-269,480,-268,690,-289,165.0888819694519,165.08896350860596,165.09249687194824,165.1034095287323,165.25533270835876,165.25533270835876,165.25533270835876,165.25533270835876,165.25533270835876,165.25533270835876,165.25533270835876,166.9519784450531,3,1.8326666355133057,None,,,,,,,,,,,,,,,,,,12,1,2025-02-18_14h03.25.196,comp,2024.2.4,57.838826980119165,2025-02-18 14h03.42.013828 -0500,
24,24,0,critical,whd,20.0,2.1,lower,57.0,133.0,133.0,57.0,78.0,78.0,2,2.2249019145965576,None,,,,,0,0,0,0,0,24,24,14,166.96801900863647,,,,,,,,,,,,,,,,,,,,,,,,,,,,,,,,,,,,,,,,,,,,,,,,,,,,,,,,,,,,,,,,,,,,,,,,,,,,,,,,,57.0,133.0,133.0,57.0,78.0,78.0,2.1,2.12,-191,-279,0,-251,164,285,166.95352411270142,166.95360231399536,166.9577078819275,166.96801900863647,167.11865735054016,167.11865735054016,167.11865735054016,167.11865735054016,167.11865735054016,167.11865735054016,167.11865735054016,169.20062637329102,2,2.2249019145965576,None,,,,,,,,,,,,,,,,,,12,1,2025-02-18_14h03.25.196,comp,2024.2.4,57.838826980119165,2025-02-18 14h03.42.013828 -0500,
25,25,0,critical,wdh,35.0,2.1,upper,125.0,200.0,127.0,127.0,200.0,125.0,1,4.791319131851196,None,,,,,0,0,0,0,0,25,25,33,169.2167456150055,,,,,,,,,,,,,,,,,,,,,,,,,,,,,,,,,,,,,,,,,,,,,,,,,,,,,,,,,,,,,,,,,,,,,,,,,,,,,,,,,125.0,200.0,127.0,127.0,200.0,125.0,2.1,2.11,-260,289,0,274,222,-279,169.20226955413818,169.2023720741272,169.20559525489807,169.2167456150055,169.36892175674438,169.36892175674438,169.36892175674438,169.36892175674438,169.36892175674438,169.36892175674438,169.36892175674438,174.02373600006104,1,4.791319131851196,None,,,,,,,,,,,,,,,,,,12,1,2025-02-18_14h03.25.196,comp,2024.2.4,57.838826980119165,2025-02-18 14h03.42.013828 -0500,
26,26,0,filler_random,None,None,None,None,None,None,None,None,None,None,2,1.793226957321167,None,,,,,0,0,0,0,0,26,26,146,174.0396044254303,,,,,,,,,,,,,,,,,,,,,,,,,,,,,,,,,,,,,,,,,,,,,,,,,,,,,,,,,,,,,,,,,,,,,,,,,,,,,,,,,92.2916675139852,86.19702273831689,181.73819984630708,193.1340333230783,123.12381975709343,196.736593893879,3.0,3.2,-236,-284,0,5,291,256,174.02571868896484,174.0257966518402,174.02924346923828,174.0396044254303,174.19712042808533,174.19712042808533,174.19712042808533,174.19712042808533,174.19712042808533,174.19712042808533,174.19712042808533,175.84021496772766,2,1.793226957321167,None,,,,,,,,,,,,,,,,,,12,1,2025-02-18_14h03.25.196,comp,2024.2.4,57.838826980119165,2025-02-18 14h03.42.013828 -0500,
27,27,0,critical,wdh,20.0,2.1,upper,125.0,200.0,141.0,141.0,200.0,125.0,1,6.519542932510376,None,,,,,0,0,0,0,0,27,27,35,175.856680393219,,,,,,,,,,,,,,,,,,,,,,,,,,,,,,,,,,,,,,,,,,,,,,,,,,,,,,,,,,,,,,,,,,,,,,,,,,,,,,,,,125.0,200.0,141.0,141.0,200.0,125.0,2.1,2.11,-266,281,0,255,229,-268,175.84187006950378,175.84198117256165,175.8453643321991,175.856680393219,176.0114815235138,176.0114815235138,176.0114815235138,176.0114815235138,176.0114815235138,176.0114815235138,176.0114815235138,182.3910756111145,1,6.519542932510376,None,,,,,,,,,,,,,,,,,,12,1,2025-02-18_14h03.25.196,comp,2024.2.4,57.838826980119165,2025-02-18 14h03.42.013828 -0500,
28,28,0,filler_random,None,None,None,None,None,None,None,None,None,None,3,1.4178972244262695,None,,,,,0,0,0,0,0,28,28,167,182.40658020973206,,,,,,,,,,,,,,,,,,,,,,,,,,,,,,,,,,,,,,,,,,,,,,,,,,,,,,,,,,,,,,,,,,,,,,,,,,,,,,,,,116.68050746939895,160.21560096606885,65.854685083712,120.32513505514862,174.2525084727393,162.8144785802636,2.1,2.12,-236,-286,0,-251,238,251,182.3928472995758,182.39295077323914,182.39594411849976,182.40658020973206,182.55728125572205,182.55728125572205,182.55728125572205,182.55728125572205,182.55728125572205,182.55728125572205,182.55728125572205,183.8399841785431,3,1.4178972244262695,None,,,,,,,,,,,,,,,,,,12,1,2025-02-18_14h03.25.196,comp,2024.2.4,57.838826980119165,2025-02-18 14h03.42.013828 -0500,
29,29,0,critical,dwh,20.0,2.1,upper,141.0,141.0,125.0,200.0,200.0,125.0,2,2.70106840133667,None,,,,,0,0,0,0,0,29,29,7,183.8592231273651,,,,,,,,,,,,,,,,,,,,,,,,,,,,,,,,,,,,,,,,,,,,,,,,,,,,,,,,,,,,,,,,,,,,,,,,,,,,,,,,,141.0,141.0,125.0,200.0,200.0,125.0,2.1,2.12,-266,-262,0,-260,258,279,183.84168887138367,183.8417670726776,183.84501147270203,183.8592231273651,184.00696897506714,184.00696897506714,184.00696897506714,184.00696897506714,184.00696897506714,184.00696897506714,184.00696897506714,186.57829904556274,2,2.70106840133667,None,,,,,,,,,,,,,,,,,,12,1,2025-02-18_14h03.25.196,comp,2024.2.4,57.838826980119165,2025-02-18 14h03.42.013828 -0500,
30,30,0,critical,hdw,35.0,2.1,lower,133.0,57.0,70.0,70.0,57.0,133.0,3,1.5510592460632324,None,,,,,0,0,0,0,0,30,30,20,186.5931751728058,,,,,,,,,,,,,,,,,,,,,,,,,,,,,,,,,,,,,,,,,,,,,,,,,,,,,,,,,,,,,,,,,,,,,,,,,,,,,,,,,133.0,57.0,70.0,70.0,57.0,133.0,2.1,2.11,-160,272,0,273,198,-260,186.57997012138367,186.58004784584045,186.58293318748474,186.5931751728058,186.74090695381165,186.74090695381165,186.74090695381165,186.74090695381165,186.74090695381165,186.74090695381165,186.74090695381165,188.16519379615784,3,1.5510592460632324,None,,,,,,,,,,,,,,,,,,12,1,2025-02-18_14h03.25.196,comp,2024.2.4,57.838826980119165,2025-02-18 14h03.42.013828 -0500,
31,31,0,filler_random,None,None,None,None,None,None,None,None,None,None,2,1.8412346839904785,None,,,,,0,0,0,0,0,31,31,143,188.18303751945496,,,,,,,,,,,,,,,,,,,,,,,,,,,,,,,,,,,,,,,,,,,,,,,,,,,,,,,,,,,,,,,,,,,,,,,,,,,,,,,,,102.13816683805122,98.9439440960012,191.68799027813475,92.4647985399896,134.62887482278842,109.76987279303376,2.1,2.12,-192,-288,0,-265,197,279,188.1670560836792,188.16719126701355,188.17037510871887,188.18303751945496,188.325119972229,188.325119972229,188.325119972229,188.325119972229,188.325119972229,188.325119972229,188.325119972229,190.02697229385376,2,1.8412346839904785,None,,,,,,,,,,,,,,,,,,12,1,2025-02-18_14h03.25.196,comp,2024.2.4,57.838826980119165,2025-02-18 14h03.42.013828 -0500,
32,32,0,filler_random,None,None,None,None,None,None,None,None,None,None,2,1.293868064880371,None,,,,,0,0,0,0,0,32,32,161,190.04327487945557,,,,,,,,,,,,,,,,,,,,,,,,,,,,,,,,,,,,,,,,,,,,,,,,,,,,,,,,,,,,,,,,,,,,,,,,,,,,,,,,,174.2270719482961,65.06518443689653,195.83107396827447,127.21724013997688,145.117530124182,115.73601076889116,2.2,2.22,-192,264,0,-276,217,-277,190.0289487838745,190.02903389930725,190.03236484527588,190.04327487945557,190.19259881973267,190.19259881973267,190.19259881973267,190.19259881973267,190.19259881973267,190.19259881973267,190.19259881973267,191.3419065475464,2,1.293868064880371,None,,,,,,,,,,,,,,,,,,12,1,2025-02-18_14h03.25.196,comp,2024.2.4,57.838826980119165,2025-02-18 14h03.42.013828 -0500,
33,33,0,filler_square,None,None,None,None,None,None,None,None,None,None,1,2.6424808502197266,None,,,,,0,0,0,0,0,33,33,186,191.35903000831604,,,,,,,,,,,,,,,,,,,,,,,,,,,,,,,,,,,,,,,,,,,,,,,,,,,,,,,,,,,,,,,,,,,,,,,,,,,,,,,,,84.53026947609243,84.53026947609243,78.81294864506681,58.30080571745838,64.6839029903571,75.49742866922655,2.1,2.11,-167,253,0,275,163,-275,191.34394645690918,191.3440248966217,191.34733200073242,191.35903000831604,191.50936913490295,191.50936913490295,191.50936913490295,191.50936913490295,191.50936913490295,191.50936913490295,191.50936913490295,194.00960683822632,1,2.6424808502197266,None,,,,,,,,,,,,,,,,,,12,1,2025-02-18_14h03.25.196,comp,2024.2.4,57.838826980119165,2025-02-18 14h03.42.013828 -0500,
34,34,0,critical,hwd,35.0,1.0,lower,133.0,57.0,57.0,133.0,70.0,70.0,1,3.678342580795288,None,,,,,0,0,0,0,0,34,34,96,194.0263352394104,,,,,,,,,,,,,,,,,,,,,,,,,,,,,,,,,,,,,,,,,,,,,,,,,,,,,,,,,,,,,,,,,,,,,,,,,,,,,,,,,133.0,57.0,57.0,133.0,70.0,70.0,1.0,1.2,-191,-13,0,-16,198,2,194.01115131378174,194.0112292766571,194.01467037200928,194.0263352394104,194.17712330818176,194.17712330818176,194.17712330818176,194.17712330818176,194.17712330818176,194.17712330818176,194.17712330818176,197.71064615249634,1,3.678342580795288,None,,,,,,,,,,,,,,,,,,12,1,2025-02-18_14h03.25.196,comp,2024.2.4,57.838826980119165,2025-02-18 14h03.42.013828 -0500,
35,35,0,filler_square,None,None,None,None,None,None,None,None,None,None,3,2.7622697353363037,None,,,,,0,0,0,0,0,35,35,171,197.72657084465027,,,,,,,,,,,,,,,,,,,,,,,,,,,,,,,,,,,,,,,,,,,,,,,,,,,,,,,,,,,,,,,,,,,,,,,,,,,,,,,,,101.4248532052037,98.37469853612029,105.51992113834939,64.91770342462168,120.74900686949593,120.74900686949593,2.2,2.22,-178,257,0,-254,189,-265,197.71146869659424,197.7115273475647,197.7128758430481,197.72657084465027,197.8626847267151,197.8626847267151,197.8626847267151,197.8626847267151,197.8626847267151,197.8626847267151,197.8626847267151,200.49689936637878,3,2.7622697353363037,None,,,,,,,,,,,,,,,,,,12,1,2025-02-18_14h03.25.196,comp,2024.2.4,57.838826980119165,2025-02-18 14h03.42.013828 -0500,
36,36,0,critical,whd,20.0,2.1,lower,57.0,133.0,133.0,57.0,78.0,78.0,1,2.279305934906006,None,,,,,0,0,0,0,0,36,36,38,200.5140619277954,,,,,,,,,,,,,,,,,,,,,,,,,,,,,,,,,,,,,,,,,,,,,,,,,,,,,,,,,,,,,,,,,,,,,,,,,,,,,,,,,57.0,133.0,133.0,57.0,78.0,78.0,2.1,2.12,-191,-275,0,-281,164,252,200.49851489067078,200.49859642982483,200.50174403190613,200.5140619277954,200.66719770431519,200.66719770431519,200.66719770431519,200.66719770431519,200.66719770431519,200.66719770431519,200.66719770431519,202.79773449897766,1,2.279305934906006,None,,,,,,,,,,,,,,,,,,12,1,2025-02-18_14h03.25.196,comp,2024.2.4,57.838826980119165,2025-02-18 14h03.42.013828 -0500,
37,37,0,critical,wdh,35.0,2.1,lower,57.0,133.0,70.0,70.0,133.0,57.0,3,2.4348063468933105,None,,,,,0,0,0,0,0,37,37,32,202.81352853775024,,,,,,,,,,,,,,,,,,,,,,,,,,,,,,,,,,,,,,,,,,,,,,,,,,,,,,,,,,,,,,,,,,,,,,,,,,,,,,,,,57.0,133.0,70.0,70.0,133.0,57.0,2.1,2.11,-198,276,0,257,160,-254,202.7993757724762,202.79952383041382,202.802800655365,202.81352853775024,202.96154069900513,202.96154069900513,202.96154069900513,202.96154069900513,202.96154069900513,202.96154069900513,202.96154069900513,205.26569938659668,3,2.4348063468933105,None,,,,,,,,,,,,,,,,,,12,1,2025-02-18_14h03.25.196,comp,2024.2.4,57.838826980119165,2025-02-18 14h03.42.013828 -0500,
38,38,0,critical,hdw,35.0,3.0,lower,133.0,57.0,70.0,70.0,57.0,133.0,3,2.4539270401000977,None,,,,,0,0,0,0,0,38,38,110,205.28240084648132,,,,,,,,,,,,,,,,,,,,,,,,,,,,,,,,,,,,,,,,,,,,,,,,,,,,,,,,,,,,,,,,,,,,,,,,,,,,,,,,,133.0,57.0,70.0,70.0,57.0,133.0,3.0,3.2,-160,-274,0,-16,198,286,205.26766276359558,205.26774382591248,205.27109479904175,205.28240084648132,205.43099761009216,205.43099761009216,205.43099761009216,205.43099761009216,205.43099761009216,205.43099761009216,205.43099761009216,207.74757432937622,3,2.4539270401000977,None,,,,,,,,,,,,,,,,,,12,1,2025-02-18_14h03.25.196,comp,2024.2.4,57.838826980119165,2025-02-18 14h03.42.013828 -0500,
39,39,0,critical,hwd,35.0,2.1,lower,133.0,57.0,57.0,133.0,70.0,70.0,2,2.651409864425659,None,,,,,0,0,0,0,0,39,39,16,207.76509618759155,,,,,,,,,,,,,,,,,,,,,,,,,,,,,,,,,,,,,,,,,,,,,,,,,,,,,,,,,,,,,,,,,,,,,,,,,,,,,,,,,133.0,57.0,57.0,133.0,70.0,70.0,2.1,2.12,-191,-258,0,-262,198,273,207.74909377098083,207.7491705417633,207.75209712982178,207.76509618759155,207.9045958518982,207.9045958518982,207.9045958518982,207.9045958518982,207.9045958518982,207.9045958518982,207.9045958518982,210.4321162700653,2,2.651409864425659,None,,,,,,,,,,,,,,,,,,12,1,2025-02-18_14h03.25.196,comp,2024.2.4,57.838826980119165,2025-02-18 14h03.42.013828 -0500,
40,40,0,critical,whd,35.0,2.1,lower,57.0,133.0,133.0,57.0,70.0,70.0,2,2.561579704284668,None,,,,,0,0,0,0,0,40,40,12,210.44771099090576,,,,,,,,,,,,,,,,,,,,,,,,,,,,,,,,,,,,,,,,,,,,,,,,,,,,,,,,,,,,,,,,,,,,,,,,,,,,,,,,,57.0,133.0,133.0,57.0,70.0,70.0,2.1,2.12,-191,-261,0,-262,160,282,210.43364000320435,210.43371844291687,210.4369513988495,210.44771099090576,210.59719610214233,210.59719610214233,210.59719610214233,210.59719610214233,210.59719610214233,210.59719610214233,210.59719610214233,213.01718950271606,2,2.561579704284668,None,,,,,,,,,,,,,,,,,,12,1,2025-02-18_14h03.25.196,comp,2024.2.4,57.838826980119165,2025-02-18 14h03.42.013828 -0500,
41,41,0,critical,wdh,35.0,1.0,lower,57.0,133.0,70.0,70.0,133.0,57.0,3,3.8004138469696045,None,,,,,0,0,0,0,0,41,41,72,213.0330400466919,,,,,,,,,,,,,,,,,,,,,,,,,,,,,,,,,,,,,,,,,,,,,,,,,,,,,,,,,,,,,,,,,,,,,,,,,,,,,,,,,57.0,133.0,70.0,70.0,133.0,57.0,1.0,1.3,282,-273,480,-264,640,-271,213.01874470710754,213.0188262462616,213.02228236198425,213.0330400466919,213.18072390556335,213.18072390556335,213.18072390556335,213.18072390556335,213.18072390556335,213.18072390556335,213.18072390556335,216.84286093711853,3,3.8004138469696045,None,,,,,,,,,,,,,,,,,,12,1,2025-02-18_14h03.25.196,comp,2024.2.4,57.838826980119165,2025-02-18 14h03.42.013828 -0500,
42,42,0,filler_square,None,None,None,None,None,None,None,None,None,None,3,1.2916676998138428,None,,,,,0,0,0,0,0,42,42,174,216.86083340644836,,,,,,,,,,,,,,,,,,,,,,,,,,,,,,,,,,,,,,,,,,,,,,,,,,,,,,,,,,,,,,,,,,,,,,,,,,,,,,,,,139.16489327282267,62.694703375715996,66.4940335810721,67.88672465894759,144.98237790899466,144.98237790899466,2.2,2.21,-161,-259,0,271,202,285,216.84477305412292,216.84485411643982,216.84769105911255,216.86083340644836,217.00220823287964,217.00220823287964,217.00220823287964,217.00220823287964,217.00220823287964,217.00220823287964,217.00220823287964,218.17080450057983,3,1.2916676998138428,None,,,,,,,,,,,,,,,,,,12,1,2025-02-18_14h03.25.196,comp,2024.2.4,57.838826980119165,2025-02-18 14h03.42.013828 -0500,
43,43,0,filler_square,None,None,None,None,None,None,None,None,None,None,3,1.2113778591156006,None,,,,,0,0,0,0,0,43,43,187,218.18969583511353,,,,,,,,,,,,,,,,,,,,,,,,,,,,,,,,,,,,,,,,,,,,,,,,,,,,,,,,,,,,,,,,,,,,,,,,,,,,,,,,,118.56910230576075,73.57058248332112,109.16642934594961,100.26199811548162,130.64194300266456,130.64194300266456,2.1,2.12,-183,-274,0,-286,211,255,218.17293334007263,218.17302179336548,218.1759970188141,218.18969583511353,218.33438920974731,218.33438920974731,218.33438920974731,218.33438920974731,218.33438920974731,218.33438920974731,218.33438920974731,219.4055905342102,3,1.2113778591156006,None,,,,,,,,,,,,,,,,,,12,1,2025-02-18_14h03.25.196,comp,2024.2.4,57.838826980119165,2025-02-18 14h03.42.013828 -0500,
44,44,0,critical,hdw,35.0,4.0,upper,200.0,125.0,127.0,127.0,125.0,200.0,1,3.859863519668579,None,,,,,0,0,0,0,0,44,44,113,219.42163491249084,,,,,,,,,,,,,,,,,,,,,,,,,,,,,,,,,,,,,,,,,,,,,,,,,,,,,,,,,,,,,,,,,,,,,,,,,,,,,,,,,200.0,125.0,127.0,127.0,125.0,200.0,4.0,4.1,-222,-287,0,-9,260,-274,219.40734362602234,219.40750980377197,219.41078352928162,219.42163491249084,219.5685522556305,219.5685522556305,219.5685522556305,219.5685522556305,219.5685522556305,219.5685522556305,219.5685522556305,223.2870786190033,1,3.859863519668579,None,,,,,,,,,,,,,,,,,,12,1,2025-02-18_14h03.25.196,comp,2024.2.4,57.838826980119165,2025-02-18 14h03.42.013828 -0500,
45,45,0,filler_random,None,None,None,None,None,None,None,None,None,None,2,1.4329955577850342,None,,,,,0,0,0,0,0,45,45,141,223.30364513397217,,,,,,,,,,,,,,,,,,,,,,,,,,,,,,,,,,,,,,,,,,,,,,,,,,,,,,,,,,,,,,,,,,,,,,,,,,,,,,,,,59.81397525439724,192.98009265595056,147.25790638837617,171.96824378830803,59.29216505011795,179.75864897514867,1.0,1.1,-758,267,-480,264,-208,290,223.2888059616089,223.2888867855072,223.2928969860077,223.30364513397217,223.4598786830902,223.4598786830902,223.4598786830902,223.4598786830902,223.4598786830902,223.4598786830902,223.4598786830902,224.75348138809204,2,1.4329955577850342,None,,,,,,,,,,,,,,,,,,12,1,2025-02-18_14h03.25.196,comp,2024.2.4,57.838826980119165,2025-02-18 14h03.42.013828 -0500,
46,46,0,filler_random,None,None,None,None,None,None,None,None,None,None,2,3.0318613052368164,None,,,,,0,0,0,0,0,46,46,138,224.7690932750702,,,,,,,,,,,,,,,,,,,,,,,,,,,,,,,,,,,,,,,,,,,,,,,,,,,,,,,,,,,,,,,,,,,,,,,,,,,,,,,,,126.53619527786188,66.18783610354953,159.11711010861904,165.8102220259601,136.28231244789058,143.21637372022215,3.0,3.1,-212,269,0,-15,251,-282,224.7552192211151,224.75529861450195,224.75869870185852,224.7690932750702,224.92206192016602,224.92206192016602,224.92206192016602,224.92206192016602,224.92206192016602,224.92206192016602,224.92206192016602,227.8070845603943,2,3.0318613052368164,None,,,,,,,,,,,,,,,,,,12,1,2025-02-18_14h03.25.196,comp,2024.2.4,57.838826980119165,2025-02-18 14h03.42.013828 -0500,
47,47,0,critical,dwh,20.0,1.0,lower,78.0,78.0,57.0,133.0,133.0,57.0,3,3.0874879360198975,None,,,,,0,0,0,0,0,47,47,66,227.82633137702942,,,,,,,,,,,,,,,,,,,,,,,,,,,,,,,,,,,,,,,,,,,,,,,,,,,,,,,,,,,,,,,,,,,,,,,,,,,,,,,,,78.0,78.0,57.0,133.0,133.0,57.0,1.0,1.2,-202,8,0,-19,191,-19,227.80872511863708,227.80881023406982,227.81196427345276,227.82633137702942,227.97112250328064,227.97112250328064,227.97112250328064,227.97112250328064,227.97112250328064,227.97112250328064,227.97112250328064,230.92077732086182,3,3.0874879360198975,None,,,,,,,,,,,,,,,,,,12,1,2025-02-18_14h03.25.196,comp,2024.2.4,57.838826980119165,2025-02-18 14h03.42.013828 -0500,
48,48,0,filler_square,None,None,None,None,None,None,None,None,None,None,1,1.9994559288024902,None,,,,,0,0,0,0,0,48,48,196,230.93718576431274,,,,,,,,,,,,,,,,,,,,,,,,,,,,,,,,,,,,,,,,,,,,,,,,,,,,,,,,,,,,,,,,,,,,,,,,,,,,,,,,,120.6862974090784,120.6862974090784,112.51693510751298,100.41999983824842,84.31734735170912,77.40218516809702,2.2,2.21,-207,-284,0,286,185,258,230.9227912425995,230.9228720664978,230.92604446411133,230.93718576431274,231.08098697662354,231.08098697662354,231.08098697662354,231.08098697662354,231.08098697662354,231.08098697662354,231.08098697662354,232.93942499160767,1,1.9994559288024902,None,,,,,,,,,,,,,,,,,,12,1,2025-02-18_14h03.25.196,comp,2024.2.4,57.838826980119165,2025-02-18 14h03.42.013828 -0500,
49,49,0,critical,dwh,35.0,2.1,upper,127.0,127.0,125.0,200.0,200.0,125.0,2,1.5013372898101807,None,,,,,0,0,0,0,0,49,49,5,232.9555811882019,,,,,,,,,,,,,,,,,,,,,,,,,,,,,,,,,,,,,,,,,,,,,,,,,,,,,,,,,,,,,,,,,,,,,,,,,,,,,,,,,127.0,127.0,125.0,200.0,200.0,125.0,2.1,2.11,-260,271,0,280,258,-271,232.94114995002747,232.9412865638733,232.94471049308777,232.9555811882019,233.1062023639679,233.1062023639679,233.1062023639679,233.1062023639679,233.1062023639679,233.1062023639679,233.1062023639679,234.4735836982727,2,1.5013372898101807,None,,,,,,,,,,,,,,,,,,12,1,2025-02-18_14h03.25.196,comp,2024.2.4,57.838826980119165,2025-02-18 14h03.42.013828 -0500,
50,50,0,filler_square,None,None,None,None,None,None,None,None,None,None,3,2.681270122528076,None,,,,,0,0,0,0,0,50,50,183,234.48989343643188,,,,,,,,,,,,,,,,,,,,,,,,,,,,,,,,,,,,,,,,,,,,,,,,,,,,,,,,,,,,,,,,,,,,,,,,,,,,,,,,,59.52789688609117,72.4961886821813,67.15334913949764,58.40175925632813,81.13275644439881,81.13275644439881,1.0,1.1,-641,256,-480,270,-314,261,234.47538375854492,234.47551321983337,234.4786877632141,234.48989343643188,234.64329075813293,234.64329075813293,234.64329075813293,234.64329075813293,234.64329075813293,234.64329075813293,234.64329075813293,237.18936729431152,3,2.681270122528076,None,,,,,,,,,,,,,,,,,,12,1,2025-02-18_14h03.25.196,comp,2024.2.4,57.838826980119165,2025-02-18 14h03.42.013828 -0500,
51,51,0,filler_square,None,None,None,None,None,None,None,None,None,None,2,2.4260735511779785,None,,,,,0,0,0,0,0,51,51,177,237.206524848938,,,,,,,,,,,,,,,,,,,,,,,,,,,,,,,,,,,,,,,,,,,,,,,,,,,,,,,,,,,,,,,,,,,,,,,,,,,,,,,,,63.03738752979836,62.41256267507194,72.83916086380994,72.83916086380994,61.07492693955938,58.963246096699024,2.2,2.22,-164,270,0,-256,162,-251,237.19117641448975,237.19125390052795,237.1944682598114,237.206524848938,237.35804200172424,237.35804200172424,237.35804200172424,237.35804200172424,237.35804200172424,237.35804200172424,237.35804200172424,239.65259742736816,2,2.4260735511779785,None,,,,,,,,,,,,,,,,,,12,1,2025-02-18_14h03.25.196,comp,2024.2.4,57.838826980119165,2025-02-18 14h03.42.013828 -0500,
52,52,0,critical,whd,20.0,3.0,upper,125.0,200.0,200.0,125.0,141.0,141.0,1,4.529378414154053,None,,,,,0,0,0,0,0,52,52,93,239.672269821167,,,,,,,,,,,,,,,,,,,,,,,,,,,,,,,,,,,,,,,,,,,,,,,,,,,,,,,,,,,,,,,,,,,,,,,,,,,,,,,,,125.0,200.0,200.0,125.0,141.0,141.0,3.0,3.2,-258,-281,0,11,229,283,239.65412425994873,239.65420293807983,239.6570520401001,239.672269821167,239.80860257148743,239.80860257148743,239.80860257148743,239.80860257148743,239.80860257148743,239.80860257148743,239.80860257148743,244.2121148109436,1,4.529378414154053,None,,,,,,,,,,,,,,,,,,12,1,2025-02-18_14h03.25.196,comp,2024.2.4,57.838826980119165,2025-02-18 14h03.42.013828 -0500,
53,53,0,filler_random,None,None,None,None,None,None,None,None,None,None,3,1.5881907939910889,None,,,,,0,0,0,0,0,53,53,168,244.22871732711792,,,,,,,,,,,,,,,,,,,,,,,,,,,,,,,,,,,,,,,,,,,,,,,,,,,,,,,,,,,,,,,,,,,,,,,,,,,,,,,,,172.36646543262893,98.46625020657063,115.58101023797852,181.9534673751095,167.42784130868634,158.03208716543395,2.2,2.22,-236,276,0,-256,266,-254,244.21408939361572,244.21419429779053,244.2179594039917,244.22871732711792,244.37669587135315,244.37669587135315,244.37669587135315,244.37669587135315,244.37669587135315,244.37669587135315,244.37669587135315,245.82640671730042,3,1.5881907939910889,None,,,,,,,,,,,,,,,,,,12,1,2025-02-18_14h03.25.196,comp,2024.2.4,57.838826980119165,2025-02-18 14h03.42.013828 -0500,
54,54,0,critical,whd,20.0,2.1,upper,125.0,200.0,200.0,125.0,141.0,141.0,2,2.8280913829803467,None,,,,,0,0,0,0,0,54,54,39,245.84517407417297,,,,,,,,,,,,,,,,,,,,,,,,,,,,,,,,,,,,,,,,,,,,,,,,,,,,,,,,,,,,,,,,,,,,,,,,,,,,,,,,,125.0,200.0,200.0,125.0,141.0,141.0,2.1,2.12,-258,-277,0,-271,229,256,245.82799172401428,245.8280689716339,245.8312530517578,245.84517407417297,245.9946413040161,245.9946413040161,245.9946413040161,245.9946413040161,245.9946413040161,245.9946413040161,245.9946413040161,248.6780321598053,2,2.8280913829803467,None,,,,,,,,,,,,,,,,,,12,1,2025-02-18_14h03.25.196,comp,2024.2.4,57.838826980119165,2025-02-18 14h03.42.013828 -0500,
55,55,0,critical,wdh,20.0,4.0,upper,125.0,200.0,141.0,141.0,200.0,125.0,3,3.54729962348938,None,,,,,0,0,0,0,0,55,55,83,248.6939024925232,,,,,,,,,,,,,,,,,,,,,,,,,,,,,,,,,,,,,,,,,,,,,,,,,,,,,,,,,,,,,,,,,,,,,,,,,,,,,,,,,125.0,200.0,141.0,141.0,200.0,125.0,4.0,4.2,-266,-6,0,-277,229,-8,248.67968583106995,248.67976903915405,248.6831350326538,248.6939024925232,248.84465837478638,248.84465837478638,248.84465837478638,248.84465837478638,248.84465837478638,248.84465837478638,248.84465837478638,252.24578261375427,3,3.54729962348938,None,,,,,,,,,,,,,,,,,,12,1,2025-02-18_14h03.25.196,comp,2024.2.4,57.838826980119165,2025-02-18 14h03.42.013828 -0500,
56,56,0,filler_random,None,None,None,None,None,None,None,None,None,None,3,2.17881178855896,None,,,,,0,0,0,0,0,56,56,155,252.26198840141296,,,,,,,,,,,,,,,,,,,,,,,,,,,,,,,,,,,,,,,,,,,,,,,,,,,,,,,,,,,,,,,,,,,,,,,,,,,,,,,,,140.94234962973687,114.32028085076284,169.29643851540618,105.30693518458745,111.48837456492578,175.36775247971855,4.0,4.1,-206,-279,0,3,236,-256,252.24763798713684,252.24771976470947,252.25112867355347,252.26198840141296,252.41865181922913,252.41865181922913,252.41865181922913,252.41865181922913,252.41865181922913,252.41865181922913,252.41865181922913,254.45871996879578,3,2.17881178855896,None,,,,,,,,,,,,,,,,,,12,1,2025-02-18_14h03.25.196,comp,2024.2.4,57.838826980119165,2025-02-18 14h03.42.013828 -0500,
57,57,0,critical,dhw,35.0,3.0,lower,70.0,70.0,133.0,57.0,57.0,133.0,3,3.897726058959961,None,,,,,0,0,0,0,0,57,57,50,254.47910904884338,,,,,,,,,,,,,,,,,,,,,,,,,,,,,,,,,,,,,,,,,,,,,,,,,,,,,,,,,,,,,,,,,,,,,,,,,,,,,,,,,70.0,70.0,133.0,57.0,57.0,133.0,3.0,3.2,-160,-290,0,10,191,264,254.46037077903748,254.46048188209534,254.46378016471863,254.47910904884338,254.61452198028564,254.61452198028564,254.61452198028564,254.61452198028564,254.61452198028564,254.61452198028564,254.61452198028564,258.38697052001953,3,3.897726058959961,None,,,,,,,,,,,,,,,,,,12,1,2025-02-18_14h03.25.196,comp,2024.2.4,57.838826980119165,2025-02-18 14h03.42.013828 -0500,
58,58,0,critical,hdw,20.0,3.0,upper,200.0,125.0,141.0,141.0,125.0,200.0,3,2.182382822036743,None,,,,,0,0,0,0,0,58,58,117,258.40264105796814,,,,,,,,,,,,,,,,,,,,,,,,,,,,,,,,,,,,,,,,,,,,,,,,,,,,,,,,,,,,,,,,,,,,,,,,,,,,,,,,,200.0,125.0,141.0,141.0,125.0,200.0,3.0,3.2,-229,-270,0,-6,266,272,258.3884880542755,258.38856840133667,258.3913764953613,258.40264105796814,258.54555463790894,258.54555463790894,258.54555463790894,258.54555463790894,258.54555463790894,258.54555463790894,258.54555463790894,260.58710646629333,3,2.182382822036743,None,,,,,,,,,,,,,,,,,,12,1,2025-02-18_14h03.25.196,comp,2024.2.4,57.838826980119165,2025-02-18 14h03.42.013828 -0500,
59,59,0,filler_random,None,None,None,None,None,None,None,None,None,None,1,1.289703607559204,None,,,,,0,0,0,0,0,59,59,164,260.6071472167969,,,,,,,,,,,,,,,,,,,,,,,,,,,,,,,,,,,,,,,,,,,,,,,,,,,,,,,,,,,,,,,,,,,,,,,,,,,,,,,,,124.76668453866807,142.11476674729403,89.77553980992056,86.53014724989222,133.0072813380835,75.41795476947627,4.0,4.2,-210,-19,0,-268,177,5,260.58882308006287,260.5889058113098,260.59173917770386,260.6071472167969,260.7503685951233,260.7503685951233,260.7503685951233,260.7503685951233,260.7503685951233,260.7503685951233,260.7503685951233,261.8989362716675,1,1.289703607559204,None,,,,,,,,,,,,,,,,,,12,1,2025-02-18_14h03.25.196,comp,2024.2.4,57.838826980119165,2025-02-18 14h03.42.013828 -0500,
60,60,0,critical,wdh,35.0,4.0,upper,125.0,200.0,127.0,127.0,200.0,125.0,1,16.88644766807556,None,,,,,0,0,0,0,0,60,60,77,261.9146363735199,,,,,,,,,,,,,,,,,,,,,,,,,,,,,,,,,,,,,,,,,,,,,,,,,,,,,,,,,,,,,,,,,,,,,,,,,,,,,,,,,125.0,200.0,127.0,127.0,200.0,125.0,4.0,4.1,-260,-283,0,-19,222,-267,261.9005069732666,261.90063524246216,261.90404748916626,261.9146363735199,262.0645821094513,262.0645821094513,262.0645821094513,262.0645821094513,262.0645821094513,262.0645821094513,262.0645821094513,278.82049441337585,1,16.88644766807556,None,,,,,,,,,,,,,,,,,,12,1,2025-02-18_14h03.25.196,comp,2024.2.4,57.838826980119165,2025-02-18 14h03.42.013828 -0500,
61,61,0,filler_square,None,None,None,None,None,None,None,None,None,None,2,3.687893867492676,None,,,,,0,0,0,0,0,61,61,176,278.8412706851959,,,,,,,,,,,,,,,,,,,,,,,,,,,,,,,,,,,,,,,,,,,,,,,,,,,,,,,,,,,,,,,,,,,,,,,,,,,,,,,,,68.1993702668184,95.91225512947446,105.57991352562175,105.57991352562175,74.50250141602748,61.597013515504635,2.2,2.22,-197,258,0,-250,180,-254,278.82255268096924,278.82263135910034,278.825856924057,278.8412706851959,278.9876401424408,278.9876401424408,278.9876401424408,278.9876401424408,278.9876401424408,278.9876401424408,278.9876401424408,282.5468544960022,2,3.687893867492676,None,,,,,,,,,,,,,,,,,,12,1,2025-02-18_14h03.25.196,comp,2024.2.4,57.838826980119165,2025-02-18 14h03.42.013828 -0500,
62,62,0,catch,None,None,None,None,None,None,None,None,None,None,3,1.5150203704833984,None,,,,,0,0,0,0,0,62,62,120,282.567095041275,,,,,,,,,,,,,,,,,,,,,,,,,,,,,,,,,,,,,,,,,,,,,,,,,,,,,,,,,,,,,,,,,,,,,,,,,,,,,,,,,82,108,122,68,193,132,2.1,2.12,-184,-287,0,-288,196,274,282.54881954193115,282.5488977432251,282.5518252849579,282.567095041275,282.705539226532,282.705539226532,282.705539226532,282.705539226532,282.705539226532,282.705539226532,282.705539226532,284.0905964374542,3,1.5150203704833984,None,,,,,,,,,,,,,,,,,,12,1,2025-02-18_14h03.25.196,comp,2024.2.4,57.838826980119165,2025-02-18 14h03.42.013828 -0500,
63,63,0,critical,hdw,20.0,4.0,lower,133.0,57.0,78.0,78.0,57.0,133.0,3,1.717883825302124,None,,,,,0,0,0,0,0,63,63,118,284.1072630882263,,,,,,,,,,,,,,,,,,,,,,,,,,,,,,,,,,,,,,,,,,,,,,,,,,,,,,,,,,,,,,,,,,,,,,,,,,,,,,,,,133.0,57.0,78.0,78.0,57.0,133.0,4.0,4.2,-164,11,0,-287,202,11,284.0923082828522,284.09243845939636,284.0964925289154,284.1072630882263,284.266220331192,284.266220331192,284.266220331192,284.266220331192,284.266220331192,284.266220331192,284.266220331192,285.8391168117523,3,1.717883825302124,None,,,,,,,,,,,,,,,,,,12,1,2025-02-18_14h03.25.196,comp,2024.2.4,57.838826980119165,2025-02-18 14h03.42.013828 -0500,
64,64,0,critical,hwd,35.0,2.1,upper,200.0,125.0,125.0,200.0,127.0,127.0,2,1.8505160808563232,None,,,,,0,0,0,0,0,64,64,17,285.8551688194275,,,,,,,,,,,,,,,,,,,,,,,,,,,,,,,,,,,,,,,,,,,,,,,,,,,,,,,,,,,,,,,,,,,,,,,,,,,,,,,,,200.0,125.0,125.0,200.0,127.0,127.0,2.1,2.11,-258,266,0,269,260,-253,285.8407006263733,285.8407781124115,285.84395003318787,285.8551688194275,285.9959533214569,285.9959533214569,285.9959533214569,285.9959533214569,285.9959533214569,285.9959533214569,285.9959533214569,287.7148780822754,2,1.8505160808563232,None,,,,,,,,,,,,,,,,,,12,1,2025-02-18_14h03.25.196,comp,2024.2.4,57.838826980119165,2025-02-18 14h03.42.013828 -0500,
65,65,0,filler_random,None,None,None,None,None,None,None,None,None,None,2,1.4741647243499756,None,,,,,0,0,0,0,0,65,65,157,287.7351493835449,,,,,,,,,,,,,,,,,,,,,,,,,,,,,,,,,,,,,,,,,,,,,,,,,,,,,,,,,,,,,,,,,,,,,,,,,,,,,,,,,137.4870311648631,62.829739936630915,142.7609017115435,192.95427543311683,72.18703219000211,160.50326878542154,2.1,2.12,-224,-277,0,-267,273,262,287.7165696620941,287.71665048599243,287.71949315071106,287.7351493835449,287.87396240234375,287.87396240234375,287.87396240234375,287.87396240234375,287.87396240234375,287.87396240234375,287.87396240234375,289.2116436958313,2,1.4741647243499756,None,,,,,,,,,,,,,,,,,,12,1,2025-02-18_14h03.25.196,comp,2024.2.4,57.838826980119165,2025-02-18 14h03.42.013828 -0500,
66,66,0,filler_square,None,None,None,None,None,None,None,None,None,None,1,1.4570884704589844,None,,,,,0,0,0,0,0,66,66,191,289.2320580482483,,,,,,,,,,,,,,,,,,,,,,,,,,,,,,,,,,,,,,,,,,,,,,,,,,,,,,,,,,,,,,,,,,,,,,,,,,,,,,,,,166.89778700187577,166.89778700187577,107.96331211380152,129.8639429228214,139.66085054084226,72.37438376191926,3.0,3.2,-244,-271,0,-18,197,250,289.2134325504303,289.2135374546051,289.216335773468,289.2320580482483,289.3737778663635,289.3737778663635,289.3737778663635,289.3737778663635,289.3737778663635,289.3737778663635,289.3737778663635,290.6916856765747,1,1.4570884704589844,None,,,,,,,,,,,,,,,,,,12,1,2025-02-18_14h03.25.196,comp,2024.2.4,57.838826980119165,2025-02-18 14h03.42.013828 -0500,
67,67,0,critical,hdw,20.0,2.1,upper,200.0,125.0,141.0,141.0,125.0,200.0,3,1.5168862342834473,None,,,,,0,0,0,0,0,67,67,47,290.70854473114014,,,,,,,,,,,,,,,,,,,,,,,,,,,,,,,,,,,,,,,,,,,,,,,,,,,,,,,,,,,,,,,,,,,,,,,,,,,,,,,,,200.0,125.0,141.0,141.0,125.0,200.0,2.1,2.12,-229,-273,0,-253,266,261,290.6934070587158,290.6935567855835,290.69771218299866,290.70854473114014,290.8585331439972,290.8585331439972,290.8585331439972,290.8585331439972,290.8585331439972,290.8585331439972,290.8585331439972,292.2419664859772,3,1.5168862342834473,None,,,,,,,,,,,,,,,,,,12,1,2025-02-18_14h03.25.196,comp,2024.2.4,57.838826980119165,2025-02-18 14h03.42.013828 -0500,
68,68,0,filler_random,None,None,None,None,None,None,None,None,None,None,3,3.023641586303711,None,,,,,0,0,0,0,0,68,68,145,292.2579336166382,,,,,,,,,,,,,,,,,,,,,,,,,,,,,,,,,,,,,,,,,,,,,,,,,,,,,,,,,,,,,,,,,,,,,,,,,,,,,,,,,173.99780295001443,96.72141151087541,120.97372859967203,132.34552737695495,129.7693309067339,119.602258964087,2.1,2.11,-211,283,0,285,222,-282,292.24367356300354,292.2437515258789,292.24709033966064,292.2579336166382,292.40757966041565,292.40757966041565,292.40757966041565,292.40757966041565,292.40757966041565,292.40757966041565,292.40757966041565,295.2965292930603,3,3.023641586303711,None,,,,,,,,,,,,,,,,,,12,1,2025-02-18_14h03.25.196,comp,2024.2.4,57.838826980119165,2025-02-18 14h03.42.013828 -0500,
69,69,0,filler_random,None,None,None,None,None,None,None,None,None,None,2,1.1684188842773438,None,,,,,0,0,0,0,0,69,69,131,295.3132779598236,,,,,,,,,,,,,,,,,,,,,,,,,,,,,,,,,,,,,,,,,,,,,,,,,,,,,,,,,,,,,,,,,,,,,,,,,,,,,,,,,155.61663532660367,91.04701040360672,138.9024226397684,194.11195338933058,79.39816256781083,121.13769981865605,4.0,4.1,-239,-266,0,-2,254,-255,295.2986283302307,295.2987103462219,295.301997423172,295.3132779598236,295.4593176841736,295.4593176841736,295.4593176841736,295.4593176841736,295.4593176841736,295.4593176841736,295.4593176841736,296.50138759613037,2,1.1684188842773438,None,,,,,,,,,,,,,,,,,,12,1,2025-02-18_14h03.25.196,comp,2024.2.4,57.838826980119165,2025-02-18 14h03.42.013828 -0500,
70,70,0,critical,whd,20.0,1.0,upper,125.0,200.0,200.0,125.0,141.0,141.0,2,2.1478641033172607,None,,,,,0,0,0,0,0,70,70,91,296.51869797706604,,,,,,,,,,,,,,,,,,,,,,,,,,,,,,,,,,,,,,,,,,,,,,,,,,,,,,,,,,,,,,,,,,,,,,,,,,,,,,,,,125.0,200.0,200.0,125.0,141.0,141.0,1.0,1.3,222,-251,480,-277,709,-286,296.50293469429016,296.50301146507263,296.505934715271,296.51869797706604,296.6592972278595,296.6592972278595,296.6592972278595,296.6592972278595,296.6592972278595,296.6592972278595,296.6592972278595,298.6710138320923,2,2.1478641033172607,None,,,,,,,,,,,,,,,,,,12,1,2025-02-18_14h03.25.196,comp,2024.2.4,57.838826980119165,2025-02-18 14h03.42.013828 -0500,
71,71,0,filler_square,None,None,None,None,None,None,None,None,None,None,1,1.258547306060791,None,,,,,0,0,0,0,0,71,71,172,298.68670320510864,,,,,,,,,,,,,,,,,,,,,,,,,,,,,,,,,,,,,,,,,,,,,,,,,,,,,,,,,,,,,,,,,,,,,,,,,,,,,,,,,164.03124541104006,164.03124541104006,162.87491303070624,61.43349167157596,130.98237150214987,89.58131874465823,1.0,1.2,-209,-10,0,-8,172,-7,298.6728322505951,298.6729118824005,298.6757481098175,298.68670320510864,298.828008890152,298.828008890152,298.828008890152,298.828008890152,298.828008890152,298.828008890152,298.828008890152,299.95995140075684,1,1.258547306060791,None,,,,,,,,,,,,,,,,,,12,1,2025-02-18_14h03.25.196,comp,2024.2.4,57.838826980119165,2025-02-18 14h03.42.013828 -0500,
72,72,0,filler_square,None,None,None,None,None,None,None,None,None,None,3,1.369055986404419,None,,,,,0,0,0,0,0,72,72,189,299.97616386413574,,,,,,,,,,,,,,,,,,,,,,,,,,,,,,,,,,,,,,,,,,,,,,,,,,,,,,,,,,,,,,,,,,,,,,,,,,,,,,,,,110.59136287526185,98.04573138753517,63.40454983106541,98.0563155915815,125.43822848842318,125.43822848842318,2.1,2.11,-194,274,0,268,208,-255,299.96178436279297,299.96186327934265,299.9648947715759,299.97616386413574,300.1276595592499,300.1276595592499,300.1276595592499,300.1276595592499,300.1276595592499,300.1276595592499,300.1276595592499,301.3613107204437,3,1.369055986404419,None,,,,,,,,,,,,,,,,,,12,1,2025-02-18_14h03.25.196,comp,2024.2.4,57.838826980119165,2025-02-18 14h03.42.013828 -0500,
73,73,0,critical,whd,20.0,1.0,lower,57.0,133.0,133.0,57.0,78.0,78.0,2,3.041672945022583,None,,,,,0,0,0,0,0,73,73,90,301.3771102428436,,,,,,,,,,,,,,,,,,,,,,,,,,,,,,,,,,,,,,,,,,,,,,,,,,,,,,,,,,,,,,,,,,,,,,,,,,,,,,,,,57.0,133.0,133.0,57.0,78.0,78.0,1.0,1.1,-671,274,-480,260,-316,261,301.3629331588745,301.3630106449127,301.36640977859497,301.3771102428436,301.531542301178,301.531542301178,301.531542301178,301.531542301178,301.531542301178,301.531542301178,301.531542301178,304.43024492263794,2,3.041672945022583,None,,,,,,,,,,,,,,,,,,12,1,2025-02-18_14h03.25.196,comp,2024.2.4,57.838826980119165,2025-02-18 14h03.42.013828 -0500,
74,74,0,critical,hwd,20.0,2.1,upper,200.0,125.0,125.0,200.0,141.0,141.0,2,1.7712421417236328,None,,,,,0,0,0,0,0,74,74,19,304.44596886634827,,,,,,,,,,,,,,,,,,,,,,,,,,,,,,,,,,,,,,,,,,,,,,,,,,,,,,,,,,,,,,,,,,,,,,,,,,,,,,,,,200.0,125.0,125.0,200.0,141.0,141.0,2.1,2.12,-258,-270,0,-258,266,257,304.4318540096283,304.4319348335266,304.4352219104767,304.44596886634827,304.59765458106995,304.59765458106995,304.59765458106995,304.59765458106995,304.59765458106995,304.59765458106995,304.59765458106995,306.2267737388611,2,1.7712421417236328,None,,,,,,,,,,,,,,,,,,12,1,2025-02-18_14h03.25.196,comp,2024.2.4,57.838826980119165,2025-02-18 14h03.42.013828 -0500,
75,75,0,critical,whd,20.0,2.1,upper,125.0,200.0,200.0,125.0,141.0,141.0,1,2.429633855819702,None,,,,,0,0,0,0,0,75,75,15,306.24434423446655,,,,,,,,,,,,,,,,,,,,,,,,,,,,,,,,,,,,,,,,,,,,,,,,,,,,,,,,,,,,,,,,,,,,,,,,,,,,,,,,,125.0,200.0,200.0,125.0,141.0,141.0,2.1,2.12,-258,-280,0,-255,229,257,306.228399515152,306.2285068035126,306.23179721832275,306.24434423446655,306.3961355686188,306.3961355686188,306.3961355686188,306.3961355686188,306.3961355686188,306.3961355686188,306.3961355686188,308.6811559200287,1,2.429633855819702,None,,,,,,,,,,,,,,,,,,12,1,2025-02-18_14h03.25.196,comp,2024.2.4,57.838826980119165,2025-02-18 14h03.42.013828 -0500,
76,76,0,filler_random,None,None,None,None,None,None,None,None,None,None,1,1.4955191612243652,None,,,,,0,0,0,0,0,76,76,132,308.6982316970825,,,,,,,,,,,,,,,,,,,,,,,,,,,,,,,,,,,,,,,,,,,,,,,,,,,,,,,,,,,,,,,,,,,,,,,,,,,,,,,,,167.10269574917783,91.33199633732457,103.01755951711093,67.74851630177164,110.81058805825057,58.65302885985431,2.1,2.11,-176,280,0,283,159,-258,308.68297815322876,308.6830577850342,308.6871602535248,308.6982316970825,308.84682035446167,308.84682035446167,308.84682035446167,308.84682035446167,308.84682035446167,308.84682035446167,308.84682035446167,310.19684863090515,1,1.4955191612243652,None,,,,,,,,,,,,,,,,,,12,1,2025-02-18_14h03.25.196,comp,2024.2.4,57.838826980119165,2025-02-18 14h03.42.013828 -0500,
77,77,0,critical,wdh,35.0,2.1,lower,57.0,133.0,70.0,70.0,133.0,57.0,1,8.483747720718384,None,,,,,0,0,0,0,0,77,77,8,310.22321009635925,,,,,,,,,,,,,,,,,,,,,,,,,,,,,,,,,,,,,,,,,,,,,,,,,,,,,,,,,,,,,,,,,,,,,,,,,,,,,,,,,57.0,133.0,70.0,70.0,133.0,57.0,2.1,2.12,-198,-261,0,-278,160,259,310.1984236240387,310.1985363960266,310.2017934322357,310.22321009635925,310.3645474910736,310.3645474910736,310.3645474910736,310.3645474910736,310.3645474910736,310.3645474910736,310.3645474910736,318.717707157135,1,8.483747720718384,None,,,,,,,,,,,,,,,,,,12,1,2025-02-18_14h03.25.196,comp,2024.2.4,57.838826980119165,2025-02-18 14h03.42.013828 -0500,
78,78,0,critical,hdw,20.0,2.1,lower,133.0,57.0,78.0,78.0,57.0,133.0,3,6.078214883804321,None,,,,,0,0,0,0,0,78,78,22,318.7321197986603,,,,,,,,,,,,,,,,,,,,,,,,,,,,,,,,,,,,,,,,,,,,,,,,,,,,,,,,,,,,,,,,,,,,,,,,,,,,,,,,,133.0,57.0,78.0,78.0,57.0,133.0,2.1,2.11,-164,261,0,262,202,-252,318.71928310394287,318.7193636894226,318.7225275039673,318.7321197986603,318.8866972923279,318.8866972923279,318.8866972923279,318.8866972923279,318.8866972923279,318.8866972923279,318.8866972923279,324.8171992301941,3,6.078214883804321,None,,,,,,,,,,,,,,,,,,12,1,2025-02-18_14h03.25.196,comp,2024.2.4,57.838826980119165,2025-02-18 14h03.42.013828 -0500,
79,79,0,filler_random,None,None,None,None,None,None,None,None,None,None,1,3.744860887527466,None,,,,,0,0,0,0,0,79,79,133,324.8334312438965,,,,,,,,,,,,,,,,,,,,,,,,,,,,,,,,,,,,,,,,,,,,,,,,,,,,,,,,,,,,,,,,,,,,,,,,,,,,,,,,,170.7032542629221,142.22579142759776,122.38626667428534,96.35774484411806,139.17277062754187,96.5521566353842,4.0,4.2,-215,-6,0,-266,192,-5,324.8191180229187,324.81920051574707,324.82256531715393,324.8334312438965,324.9756350517273,324.9756350517273,324.9756350517273,324.9756350517273,324.9756350517273,324.9756350517273,324.9756350517273,328.58909463882446,1,3.744860887527466,None,,,,,,,,,,,,,,,,,,12,1,2025-02-18_14h03.25.196,comp,2024.2.4,57.838826980119165,2025-02-18 14h03.42.013828 -0500,
80,80,0,critical,dhw,20.0,3.0,upper,141.0,141.0,200.0,125.0,125.0,200.0,3,4.943556785583496,None,,,,,0,0,0,0,0,80,80,57,328.60561513900757,,,,,,,,,,,,,,,,,,,,,,,,,,,,,,,,,,,,,,,,,,,,,,,,,,,,,,,,,,,,,,,,,,,,,,,,,,,,,,,,,141.0,141.0,200.0,125.0,125.0,200.0,3.0,3.2,-229,-273,0,8,258,281,328.5907869338989,328.59086751937866,328.59423184394836,328.60561513900757,328.7541015148163,328.7541015148163,328.7541015148163,328.7541015148163,328.7541015148163,328.7541015148163,328.7541015148163,333.55451488494873,3,4.943556785583496,None,,,,,,,,,,,,,,,,,,12,1,2025-02-18_14h03.25.196,comp,2024.2.4,57.838826980119165,2025-02-18 14h03.42.013828 -0500,
81,81,0,critical,hdw,20.0,1.0,lower,133.0,57.0,78.0,78.0,57.0,133.0,3,2.866666793823242,None,,,,,0,0,0,0,0,81,81,114,333.57493448257446,,,,,,,,,,,,,,,,,,,,,,,,,,,,,,,,,,,,,,,,,,,,,,,,,,,,,,,,,,,,,,,,,,,,,,,,,,,,,,,,,133.0,57.0,78.0,78.0,57.0,133.0,1.0,1.3,316,-280,480,-264,682,-279,333.5560781955719,333.55615878105164,333.55919122695923,333.57493448257446,333.72221064567566,333.72221064567566,333.72221064567566,333.72221064567566,333.72221064567566,333.72221064567566,333.72221064567566,336.457067489624,3,2.866666793823242,None,,,,,,,,,,,,,,,,,,12,1,2025-02-18_14h03.25.196,comp,2024.2.4,57.838826980119165,2025-02-18 14h03.42.013828 -0500,
82,82,0,critical,dwh,35.0,2.1,lower,70.0,70.0,57.0,133.0,133.0,57.0,2,2.761986017227173,None,,,,,0,0,0,0,0,82,82,28,336.4724209308624,,,,,,,,,,,,,,,,,,,,,,,,,,,,,,,,,,,,,,,,,,,,,,,,,,,,,,,,,,,,,,,,,,,,,,,,,,,,,,,,,70.0,70.0,57.0,133.0,133.0,57.0,2.1,2.12,-198,-256,0,-264,191,287,336.4587297439575,336.45881175994873,336.46216654777527,336.4724209308624,336.6269495487213,336.6269495487213,336.6269495487213,336.6269495487213,336.6269495487213,336.6269495487213,336.6269495487213,339.2421844005585,2,2.761986017227173,None,,,,,,,,,,,,,,,,,,12,1,2025-02-18_14h03.25.196,comp,2024.2.4,57.838826980119165,2025-02-18 14h03.42.013828 -0500,
83,83,0,critical,dhw,35.0,4.0,upper,127.0,127.0,200.0,125.0,125.0,200.0,3,3.473717212677002,None,,,,,0,0,0,0,0,83,83,53,339.25794744491577,,,,,,,,,,,,,,,,,,,,,,,,,,,,,,,,,,,,,,,,,,,,,,,,,,,,,,,,,,,,,,,,,,,,,,,,,,,,,,,,,127.0,127.0,200.0,125.0,125.0,200.0,4.0,4.1,-222,-251,0,20,258,-253,339.2438552379608,339.24394035339355,339.24717354774475,339.25794744491577,339.40731143951416,339.40731143951416,339.40731143951416,339.40731143951416,339.40731143951416,339.40731143951416,339.40731143951416,342.74211406707764,3,3.473717212677002,None,,,,,,,,,,,,,,,,,,12,1,2025-02-18_14h03.25.196,comp,2024.2.4,57.838826980119165,2025-02-18 14h03.42.013828 -0500,
84,84,0,critical,dhw,20.0,3.0,lower,78.0,78.0,133.0,57.0,57.0,133.0,2,2.419110059738159,None,,,,,0,0,0,0,0,84,84,56,342.7586078643799,,,,,,,,,,,,,,,,,,,,,,,,,,,,,,,,,,,,,,,,,,,,,,,,,,,,,,,,,,,,,,,,,,,,,,,,,,,,,,,,,78.0,78.0,133.0,57.0,57.0,133.0,3.0,3.2,-164,-251,0,4,191,272,342.7436535358429,342.7437334060669,342.7478244304657,342.7586078643799,342.91177201271057,342.91177201271057,342.91177201271057,342.91177201271057,342.91177201271057,342.91177201271057,342.91177201271057,345.1945185661316,2,2.419110059738159,None,,,,,,,,,,,,,,,,,,12,1,2025-02-18_14h03.25.196,comp,2024.2.4,57.838826980119165,2025-02-18 14h03.42.013828 -0500,
85,85,0,filler_random,None,None,None,None,None,None,None,None,None,None,2,5.830082893371582,None,,,,,0,0,0,0,0,85,85,150,345.2115669250488,,,,,,,,,,,,,,,,,,,,,,,,,,,,,,,,,,,,,,,,,,,,,,,,,,,,,,,,,,,,,,,,,,,,,,,,,,,,,,,,,187.0212282697924,183.88525651560195,191.70402268741893,149.55518636466823,168.39230497988694,192.8998941284926,3.0,3.1,-263,270,0,-14,267,-276,345.1966471672058,345.19673109054565,345.20008397102356,345.2115669250488,345.36363220214844,345.36363220214844,345.36363220214844,345.36363220214844,345.36363220214844,345.36363220214844,345.36363220214844,351.04435777664185,2,5.830082893371582,None,,,,,,,,,,,,,,,,,,12,1,2025-02-18_14h03.25.196,comp,2024.2.4,57.838826980119165,2025-02-18 14h03.42.013828 -0500,
86,86,0,filler_square,None,None,None,None,None,None,None,None,None,None,2,5.8206727504730225,None,,,,,0,0,0,0,0,86,86,198,351.0610308647156,,,,,,,,,,,,,,,,,,,,,,,,,,,,,,,,,,,,,,,,,,,,,,,,,,,,,,,,,,,,,,,,,,,,,,,,,,,,,,,,,147.63645630317262,147.63645630317262,61.160623915499556,127.16643450504577,70.7441838785877,103.72301270751785,3.0,3.2,-233,-260,0,-16,211,284,351.04647946357727,351.0465660095215,351.04994678497314,351.0610308647156,351.20946431159973,351.20946431159973,351.20946431159973,351.20946431159973,351.20946431159973,351.20946431159973,351.20946431159973,356.89808440208435,2,5.8206727504730225,None,,,,,,,,,,,,,,,,,,12,1,2025-02-18_14h03.25.196,comp,2024.2.4,57.838826980119165,2025-02-18 14h03.42.013828 -0500,
87,87,0,filler_random,None,None,None,None,None,None,None,None,None,None,1,3.680473804473877,None,,,,,0,0,0,0,0,87,87,165,356.9141743183136,,,,,,,,,,,,,,,,,,,,,,,,,,,,,,,,,,,,,,,,,,,,,,,,,,,,,,,,,,,,,,,,,,,,,,,,,,,,,,,,,194.76147342228893,128.30380610153605,153.12512762833222,183.12079007147292,97.43535702543912,60.86586476117907,3.0,3.2,-252,-286,0,-4,218,283,356.89989829063416,356.8999764919281,356.903076171875,356.9141743183136,357.06177735328674,357.06177735328674,357.06177735328674,357.06177735328674,357.06177735328674,357.06177735328674,357.06177735328674,360.5974202156067,1,3.680473804473877,None,,,,,,,,,,,,,,,,,,12,1,2025-02-18_14h03.25.196,comp,2024.2.4,57.838826980119165,2025-02-18 14h03.42.013828 -0500,
88,88,0,critical,hdw,35.0,4.0,lower,133.0,57.0,70.0,70.0,57.0,133.0,1,4.084724187850952,None,,,,,0,0,0,0,0,88,88,112,360.61309361457825,,,,,,,,,,,,,,,,,,,,,,,,,,,,,,,,,,,,,,,,,,,,,,,,,,,,,,,,,,,,,,,,,,,,,,,,,,,,,,,,,133.0,57.0,70.0,70.0,57.0,133.0,4.0,4.2,-160,0,0,-266,198,7,360.5989465713501,360.5990273952484,360.6023235321045,360.61309361457825,360.763281583786,360.763281583786,360.763281583786,360.763281583786,360.763281583786,360.763281583786,360.763281583786,364.71465396881104,1,4.084724187850952,None,,,,,,,,,,,,,,,,,,12,1,2025-02-18_14h03.25.196,comp,2024.2.4,57.838826980119165,2025-02-18 14h03.42.013828 -0500,
89,89,0,filler_random,None,None,None,None,None,None,None,None,None,None,3,3.0589547157287598,None,,,,,0,0,0,0,0,89,89,130,364.7353277206421,,,,,,,,,,,,,,,,,,,,,,,,,,,,,,,,,,,,,,,,,,,,,,,,,,,,,,,,,,,,,,,,,,,,,,,,,,,,,,,,,187.59214654264278,151.3307399582038,180.9502167297206,138.22609194016354,74.84462368465064,141.22406030270804,2.1,2.12,-241,-276,0,-267,236,277,364.7166440486908,364.7167282104492,364.7200036048889,364.7353277206421,364.8828504085541,364.8828504085541,364.8828504085541,364.8828504085541,364.8828504085541,364.8828504085541,364.8828504085541,367.8011214733124,3,3.0589547157287598,None,,,,,,,,,,,,,,,,,,12,1,2025-02-18_14h03.25.196,comp,2024.2.4,57.838826980119165,2025-02-18 14h03.42.013828 -0500,
90,90,0,critical,dhw,20.0,4.0,lower,78.0,78.0,133.0,57.0,57.0,133.0,3,1.6811516284942627,None,,,,,0,0,0,0,0,90,90,58,367.81677412986755,,,,,,,,,,,,,,,,,,,,,,,,,,,,,,,,,,,,,,,,,,,,,,,,,,,,,,,,,,,,,,,,,,,,,,,,,,,,,,,,,78.0,78.0,133.0,57.0,57.0,133.0,4.0,4.2,-164,15,0,-277,191,15,367.802677154541,367.80279302597046,367.80602049827576,367.81677412986755,367.96888494491577,367.96888494491577,367.96888494491577,367.96888494491577,367.96888494491577,367.96888494491577,367.96888494491577,369.51612424850464,3,1.6811516284942627,None,,,,,,,,,,,,,,,,,,12,1,2025-02-18_14h03.25.196,comp,2024.2.4,57.838826980119165,2025-02-18 14h03.42.013828 -0500,
91,91,0,critical,hwd,20.0,2.1,lower,133.0,57.0,57.0,133.0,78.0,78.0,1,1.8783855438232422,None,,,,,0,0,0,0,0,91,91,18,369.53228402137756,,,,,,,,,,,,,,,,,,,,,,,,,,,,,,,,,,,,,,,,,,,,,,,,,,,,,,,,,,,,,,,,,,,,,,,,,,,,,,,,,133.0,57.0,57.0,133.0,78.0,78.0,2.1,2.11,-191,286,0,275,202,-277,369.517831325531,369.51796436309814,369.5212116241455,369.53228402137756,369.6867353916168,369.6867353916168,369.6867353916168,369.6867353916168,369.6867353916168,369.6867353916168,369.6867353916168,371.41638135910034,1,1.8783855438232422,None,,,,,,,,,,,,,,,,,,12,1,2025-02-18_14h03.25.196,comp,2024.2.4,57.838826980119165,2025-02-18 14h03.42.013828 -0500,
92,92,0,filler_random,None,None,None,None,None,None,None,None,None,None,2,2.2327871322631836,None,,,,,0,0,0,0,0,92,92,162,371.43386602401733,,,,,,,,,,,,,,,,,,,,,,,,,,,,,,,,,,,,,,,,,,,,,,,,,,,,,,,,,,,,,,,,,,,,,,,,,,,,,,,,,152.309754621236,196.63974296629297,94.24238114025223,181.041225169241,58.43740250027987,150.51589386158508,1.0,1.2,-285,-13,0,-13,262,14,371.41837549209595,371.41851353645325,371.4222877025604,371.43386602401733,371.5839641094208,371.5839641094208,371.5839641094208,371.5839641094208,371.5839641094208,371.5839641094208,371.5839641094208,373.67240262031555,2,2.2327871322631836,None,,,,,,,,,,,,,,,,,,12,1,2025-02-18_14h03.25.196,comp,2024.2.4,57.838826980119165,2025-02-18 14h03.42.013828 -0500,
93,93,0,filler_square,None,None,None,None,None,None,None,None,None,None,2,1.8073933124542236,None,,,,,0,0,0,0,0,93,93,197,373.6912934780121,,,,,,,,,,,,,,,,,,,,,,,,,,,,,,,,,,,,,,,,,,,,,,,,,,,,,,,,,,,,,,,,,,,,,,,,,,,,,,,,,148.87522856437596,96.02668708571328,109.50153407247575,70.51443005344254,150.11990057337758,150.11990057337758,2.1,2.11,-179,277,0,261,206,-266,373.67454838752747,373.6746325492859,373.677939414978,373.6912934780121,373.83442425727844,373.83442425727844,373.83442425727844,373.83442425727844,373.83442425727844,373.83442425727844,373.83442425727844,375.50239515304565,2,1.8073933124542236,None,,,,,,,,,,,,,,,,,,12,1,2025-02-18_14h03.25.196,comp,2024.2.4,57.838826980119165,2025-02-18 14h03.42.013828 -0500,
94,94,0,critical,dhw,20.0,1.0,lower,78.0,78.0,133.0,57.0,57.0,133.0,2,1.5718498229980469,None,,,,,0,0,0,0,0,94,94,54,375.5180003643036,,,,,,,,,,,,,,,,,,,,,,,,,,,,,,,,,,,,,,,,,,,,,,,,,,,,,,,,,,,,,,,,,,,,,,,,,,,,,,,,,78.0,78.0,133.0,57.0,57.0,133.0,1.0,1.3,316,-268,480,-267,671,-289,375.503958940506,375.50404143333435,375.50731801986694,375.5180003643036,375.657511472702,375.657511472702,375.657511472702,375.657511472702,375.657511472702,375.657511472702,375.657511472702,377.1087191104889,2,1.5718498229980469,None,,,,,,,,,,,,,,,,,,12,1,2025-02-18_14h03.25.196,comp,2024.2.4,57.838826980119165,2025-02-18 14h03.42.013828 -0500,
95,95,0,critical,whd,35.0,2.1,upper,125.0,200.0,200.0,125.0,127.0,127.0,2,0.9745559692382812,None,,,,,0,0,0,0,0,95,95,37,377.1242697238922,,,,,,,,,,,,,,,,,,,,,,,,,,,,,,,,,,,,,,,,,,,,,,,,,,,,,,,,,,,,,,,,,,,,,,,,,,,,,,,,,125.0,200.0,200.0,125.0,127.0,127.0,2.1,2.11,-258,281,0,258,222,-276,377.1103370189667,377.1104612350464,377.11378812789917,377.1242697238922,377.2687957286835,377.2687957286835,377.2687957286835,377.2687957286835,377.2687957286835,377.2687957286835,377.2687957286835,378.1032409667969,2,0.9745559692382812,None,,,,,,,,,,,,,,,,,,12,1,2025-02-18_14h03.25.196,comp,2024.2.4,57.838826980119165,2025-02-18 14h03.42.013828 -0500,
96,96,0,filler_random,None,None,None,None,None,None,None,None,None,None,3,1.7077152729034424,None,,,,,0,0,0,0,0,96,96,148,378.1190094947815,,,,,,,,,,,,,,,,,,,,,,,,,,,,,,,,,,,,,,,,,,,,,,,,,,,,,,,,,,,,,,,,,,,,,,,,,,,,,,,,,127.85882604797399,90.81743492253193,99.57041580104304,180.74843241681964,175.95884431933658,71.41260002800185,1.0,1.3,248,-272,480,-286,702,-289,378.10497856140137,378.10505986213684,378.1082649230957,378.1190094947815,378.2702126502991,378.2702126502991,378.2702126502991,378.2702126502991,378.2702126502991,378.2702126502991,378.2702126502991,379.8369834423065,3,1.7077152729034424,None,,,,,,,,,,,,,,,,,,12,1,2025-02-18_14h03.25.196,comp,2024.2.4,57.838826980119165,2025-02-18 14h03.42.013828 -0500,
97,97,0,critical,dhw,35.0,2.1,lower,70.0,70.0,133.0,57.0,57.0,133.0,3,2.045686721801758,None,,,,,0,0,0,0,0,97,97,24,379.85300517082214,,,,,,,,,,,,,,,,,,,,,,,,,,,,,,,,,,,,,,,,,,,,,,,,,,,,,,,,,,,,,,,,,,,,,,,,,,,,,,,,,70.0,70.0,133.0,57.0,57.0,133.0,2.1,2.12,-160,-277,0,-250,191,270,379.8387532234192,379.83886790275574,379.8422782421112,379.85300517082214,380.0031180381775,380.0031180381775,380.0031180381775,380.0031180381775,380.0031180381775,380.0031180381775,380.0031180381775,381.9058184623718,3,2.045686721801758,None,,,,,,,,,,,,,,,,,,12,1,2025-02-18_14h03.25.196,comp,2024.2.4,57.838826980119165,2025-02-18 14h03.42.013828 -0500,
98,98,0,filler_random,None,None,None,None,None,None,None,None,None,None,2,2.49617338180542,None,,,,,0,0,0,0,0,98,98,134,381.9224925041199,,,,,,,,,,,,,,,,,,,,,,,,,,,,,,,,,,,,,,,,,,,,,,,,,,,,,,,,,,,,,,,,,,,,,,,,,,,,,,,,,82.41131776108341,150.50651607736597,153.21699703283826,88.29520927977534,188.22642781840932,181.99483723657391,2.2,2.22,-215,263,0,-288,231,-289,381.9078776836395,381.9079620838165,381.9118287563324,381.9224925041199,382.07413601875305,382.07413601875305,382.07413601875305,382.07413601875305,382.07413601875305,382.07413601875305,382.07413601875305,384.4210674762726,2,2.49617338180542,None,,,,,,,,,,,,,,,,,,12,1,2025-02-18_14h03.25.196,comp,2024.2.4,57.838826980119165,2025-02-18 14h03.42.013828 -0500,
99,99,0,catch,None,None,None,None,None,None,None,None,None,None,1,1.538646936416626,None,,,,,0,0,0,0,0,99,99,125,384.4401376247406,,,,,,,,,,,,,,,,,,,,,,,,,,,,,,,,,,,,,,,,,,,,,,,,,,,,,,,,,,,,,,,,,,,,,,,,,,,,,,,,,118,72,66,124,187,138,2.1,2.11,-194,265,0,286,227,-269,384.4229476451874,384.4230275154114,384.4259464740753,384.4401376247406,384.58738899230957,384.58738899230957,384.58738899230957,384.58738899230957,384.58738899230957,384.58738899230957,384.58738899230957,385.98918414115906,1,1.538646936416626,None,,,,,,,,,,,,,,,,,,12,1,2025-02-18_14h03.25.196,comp,2024.2.4,57.838826980119165,2025-02-18 14h03.42.013828 -0500,
100,100,0,critical,dwh,20.0,4.0,lower,78.0,78.0,57.0,133.0,133.0,57.0,2,1.813096046447754,None,,,,,0,0,0,0,0,100,100,70,386.0050196647644,,,,,,,,,,,,,,,,,,,,,,,,,,,,,,,,,,,,,,,,,,,,,,,,,,,,,,,,,,,,,,,,,,,,,,,,,,,,,,,,,78.0,78.0,57.0,133.0,133.0,57.0,4.0,4.1,-202,-277,0,12,191,-261,385.99080634117126,385.99088621139526,385.99423027038574,386.0050196647644,386.15582942962646,386.15582942962646,386.15582942962646,386.15582942962646,386.15582942962646,386.15582942962646,386.15582942962646,387.8226056098938,2,1.813096046447754,None,,,,,,,,,,,,,,,,,,12,1,2025-02-18_14h03.25.196,comp,2024.2.4,57.838826980119165,2025-02-18 14h03.42.013828 -0500,
101,101,0,filler_square,None,None,None,None,None,None,None,None,None,None,2,2.379300355911255,None,,,,,0,0,0,0,0,101,101,203,387.83883118629456,,,,,,,,,,,,,,,,,,,,,,,,,,,,,,,,,,,,,,,,,,,,,,,,,,,,,,,,,,,,,,,,,,,,,,,,,,,,,,,,,161.6405382919743,161.6405382919743,161.263639624924,112.53492746264632,58.092097900305795,71.37153173946334,2.2,2.22,-233,265,0,-270,188,-268,387.8244323730469,387.82453536987305,387.8278810977936,387.83883118629456,387.98773980140686,387.98773980140686,387.98773980140686,387.98773980140686,387.98773980140686,387.98773980140686,387.98773980140686,390.2315731048584,2,2.379300355911255,None,,,,,,,,,,,,,,,,,,12,1,2025-02-18_14h03.25.196,comp,2024.2.4,57.838826980119165,2025-02-18 14h03.42.013828 -0500,
102,102,0,filler_random,None,None,None,None,None,None,None,None,None,None,2,1.700634241104126,None,,,,,0,0,0,0,0,102,102,144,390.24674463272095,,,,,,,,,,,,,,,,,,,,,,,,,,,,,,,,,,,,,,,,,,,,,,,,,,,,,,,,,,,,,,,,,,,,,,,,,,,,,,,,,70.04431758009711,110.46447298757977,60.52664798696145,157.59098773580843,120.9662039345429,65.70029847790691,2.2,2.21,-230,-276,0,282,208,252,390.23328828811646,390.233366727829,390.2362184524536,390.24674463272095,390.39048647880554,390.39048647880554,390.39048647880554,390.39048647880554,390.39048647880554,390.39048647880554,390.39048647880554,391.9587950706482,2,1.700634241104126,None,,,,,,,,,,,,,,,,,,12,1,2025-02-18_14h03.25.196,comp,2024.2.4,57.838826980119165,2025-02-18 14h03.42.013828 -0500,
103,103,0,filler_random,None,None,None,None,None,None,None,None,None,None,1,1.2437591552734375,None,,,,,0,0,0,0,0,103,103,163,391.9752109050751,,,,,,,,,,,,,,,,,,,,,,,,,,,,,,,,,,,,,,,,,,,,,,,,,,,,,,,,,,,,,,,,,,,,,,,,,,,,,,,,,183.40279928211527,93.91313046047833,69.68411986178036,173.31406167456294,105.1366351496456,138.0355907941244,3.0,3.1,-230,273,0,-9,252,-258,391.96083211898804,391.96096634864807,391.9644367694855,391.9752109050751,392.12711119651794,392.12711119651794,392.12711119651794,392.12711119651794,392.12711119651794,392.12711119651794,392.12711119651794,393.22583174705505,1,1.2437591552734375,None,,,,,,,,,,,,,,,,,,12,1,2025-02-18_14h03.25.196,comp,2024.2.4,57.838826980119165,2025-02-18 14h03.42.013828 -0500,
104,104,0,critical,hdw,20.0,1.0,upper,200.0,125.0,141.0,141.0,125.0,200.0,1,3.7429747581481934,None,,,,,0,0,0,0,0,104,104,115,393.2430763244629,,,,,,,,,,,,,,,,,,,,,,,,,,,,,,,,,,,,,,,,,,,,,,,,,,,,,,,,,,,,,,,,,,,,,,,,,,,,,,,,,200.0,125.0,141.0,141.0,125.0,200.0,1.0,1.3,251,-256,480,-281,746,-284,393.22750306129456,393.2276427745819,393.231360912323,393.2430763244629,393.391503572464,393.391503572464,393.391503572464,393.391503572464,393.391503572464,393.391503572464,393.391503572464,396.9979934692383,1,3.7429747581481934,None,,,,,,,,,,,,,,,,,,12,1,2025-02-18_14h03.25.196,comp,2024.2.4,57.838826980119165,2025-02-18 14h03.42.013828 -0500,
105,105,0,filler_square,None,None,None,None,None,None,None,None,None,None,1,4.20235538482666,None,,,,,0,0,0,0,0,105,105,207,397.0159604549408,,,,,,,,,,,,,,,,,,,,,,,,,,,,,,,,,,,,,,,,,,,,,,,,,,,,,,,,,,,,,,,,,,,,,,,,,,,,,,,,,92.90602586923448,69.31306112450866,129.33199209004385,129.33199209004385,78.79657658035057,93.66465569578969,3.0,3.2,-195,-286,0,11,207,284,396.99986743927,396.99995040893555,397.00280833244324,397.0159604549408,397.1557779312134,397.1557779312134,397.1557779312134,397.1557779312134,397.1557779312134,397.1557779312134,397.1557779312134,401.23443484306335,1,4.20235538482666,None,,,,,,,,,,,,,,,,,,12,1,2025-02-18_14h03.25.196,comp,2024.2.4,57.838826980119165,2025-02-18 14h03.42.013828 -0500,
106,106,0,critical,dhw,20.0,1.0,upper,141.0,141.0,200.0,125.0,125.0,200.0,2,2.184957981109619,None,,,,,0,0,0,0,0,106,106,55,401.2493140697479,,,,,,,,,,,,,,,,,,,,,,,,,,,,,,,,,,,,,,,,,,,,,,,,,,,,,,,,,,,,,,,,,,,,,,,,,,,,,,,,,141.0,141.0,200.0,125.0,125.0,200.0,1.0,1.1,-709,269,-480,256,-222,281,401.2359929084778,401.2360701560974,401.23891019821167,401.2493140697479,401.3932509422302,401.3932509422302,401.3932509422302,401.3932509422302,401.3932509422302,401.3932509422302,401.3932509422302,403.4433717727661,2,2.184957981109619,None,,,,,,,,,,,,,,,,,,12,1,2025-02-18_14h03.25.196,comp,2024.2.4,57.838826980119165,2025-02-18 14h03.42.013828 -0500,
107,107,0,critical,dwh,20.0,2.1,lower,78.0,78.0,57.0,133.0,133.0,57.0,3,1.7657999992370605,None,,,,,0,0,0,0,0,107,107,30,403.46036767959595,,,,,,,,,,,,,,,,,,,,,,,,,,,,,,,,,,,,,,,,,,,,,,,,,,,,,,,,,,,,,,,,,,,,,,,,,,,,,,,,,78.0,78.0,57.0,133.0,133.0,57.0,2.1,2.12,-202,-261,0,-267,191,270,403.44503378868103,403.4451138973236,403.44858956336975,403.46036767959595,403.6112308502197,403.6112308502197,403.6112308502197,403.6112308502197,403.6112308502197,403.6112308502197,403.6112308502197,405.24764585494995,3,1.7657999992370605,None,,,,,,,,,,,,,,,,,,12,1,2025-02-18_14h03.25.196,comp,2024.2.4,57.838826980119165,2025-02-18 14h03.42.013828 -0500,
108,108,0,critical,hdw,20.0,2.1,lower,133.0,57.0,78.0,78.0,57.0,133.0,1,1.5100152492523193,None,,,,,0,0,0,0,0,108,108,46,405.26813864707947,,,,,,,,,,,,,,,,,,,,,,,,,,,,,,,,,,,,,,,,,,,,,,,,,,,,,,,,,,,,,,,,,,,,,,,,,,,,,,,,,133.0,57.0,78.0,78.0,57.0,133.0,2.1,2.11,-164,288,0,268,202,-258,405.2492582798004,405.24936389923096,405.2527709007263,405.26813864707947,405.4128348827362,405.4128348827362,405.4128348827362,405.4128348827362,405.4128348827362,405.4128348827362,405.4128348827362,406.79425144195557,1,1.5100152492523193,None,,,,,,,,,,,,,,,,,,12,1,2025-02-18_14h03.25.196,comp,2024.2.4,57.838826980119165,2025-02-18 14h03.42.013828 -0500,
109,109,0,critical,wdh,35.0,1.0,upper,125.0,200.0,127.0,127.0,200.0,125.0,3,2.2965362071990967,None,,,,,0,0,0,0,0,109,109,73,406.81038093566895,,,,,,,,,,,,,,,,,,,,,,,,,,,,,,,,,,,,,,,,,,,,,,,,,,,,,,,,,,,,,,,,,,,,,,,,,,,,,,,,,125.0,200.0,127.0,127.0,200.0,125.0,1.0,1.3,220,-260,480,-258,702,-270,406.7957887649536,406.7958619594574,406.7990276813507,406.81038093566895,406.9645457267761,406.9645457267761,406.9645457267761,406.9645457267761,406.9645457267761,406.9645457267761,406.9645457267761,409.1119725704193,3,2.2965362071990967,None,,,,,,,,,,,,,,,,,,12,1,2025-02-18_14h03.25.196,comp,2024.2.4,57.838826980119165,2025-02-18 14h03.42.013828 -0500,
110,110,0,critical,hdw,35.0,3.0,upper,200.0,125.0,127.0,127.0,125.0,200.0,1,1.7797088623046875,None,,,,,0,0,0,0,0,110,110,111,409.127498626709,,,,,,,,,,,,,,,,,,,,,,,,,,,,,,,,,,,,,,,,,,,,,,,,,,,,,,,,,,,,,,,,,,,,,,,,,,,,,,,,,200.0,125.0,127.0,127.0,125.0,200.0,3.0,3.1,-222,259,0,0,260,-270,409.1135239601135,409.11360216140747,409.1166262626648,409.127498626709,409.26855301856995,409.26855301856995,409.26855301856995,409.26855301856995,409.26855301856995,409.26855301856995,409.26855301856995,410.91398453712463,1,1.7797088623046875,None,,,,,,,,,,,,,,,,,,12,1,2025-02-18_14h03.25.196,comp,2024.2.4,57.838826980119165,2025-02-18 14h03.42.013828 -0500,
111,111,0,critical,hwd,35.0,2.1,upper,200.0,125.0,125.0,200.0,127.0,127.0,1,1.7125160694122314,None,,,,,0,0,0,0,0,111,111,41,410.93056297302246,,,,,,,,,,,,,,,,,,,,,,,,,,,,,,,,,,,,,,,,,,,,,,,,,,,,,,,,,,,,,,,,,,,,,,,,,,,,,,,,,200.0,125.0,125.0,200.0,127.0,127.0,2.1,2.12,-258,-286,0,-261,260,288,410.9155640602112,410.91564655303955,410.9197096824646,410.93056297302246,411.0858232975006,411.0858232975006,411.0858232975006,411.0858232975006,411.0858232975006,411.0858232975006,411.0858232975006,412.6487681865692,1,1.7125160694122314,None,,,,,,,,,,,,,,,,,,12,1,2025-02-18_14h03.25.196,comp,2024.2.4,57.838826980119165,2025-02-18 14h03.42.013828 -0500,
112,112,0,filler_random,None,None,None,None,None,None,None,None,None,None,2,3.009796142578125,None,,,,,0,0,0,0,0,112,112,135,412.6654009819031,,,,,,,,,,,,,,,,,,,,,,,,,,,,,,,,,,,,,,,,,,,,,,,,,,,,,,,,,,,,,,,,,,,,,,,,,,,,,,,,,145.93881886429367,175.37696425720682,146.19373973441435,68.12287666564582,194.23972821476718,131.4511043954106,2.2,2.21,-218,-281,0,281,196,282,412.650758266449,412.65084075927734,412.65419912338257,412.6654009819031,412.81399607658386,412.81399607658386,412.81399607658386,412.81399607658386,412.81399607658386,412.81399607658386,412.81399607658386,415.6818599700928,2,3.009796142578125,None,,,,,,,,,,,,,,,,,,12,1,2025-02-18_14h03.25.196,comp,2024.2.4,57.838826980119165,2025-02-18 14h03.42.013828 -0500,
113,113,0,catch,None,None,None,None,None,None,None,None,None,None,1,1.5945463180541992,None,,,,,0,0,0,0,0,113,113,129,415.6985197067261,,,,,,,,,,,,,,,,,,,,,,,,,,,,,,,,,,,,,,,,,,,,,,,,,,,,,,,,,,,,,,,,,,,,,,,,,,,,,,,,,129,61,140,185,110,80,1.0,1.3,261,-287,480,-288,708,-270,415.68398571014404,415.6840648651123,415.68762946128845,415.6985197067261,415.847697019577,415.847697019577,415.847697019577,415.847697019577,415.847697019577,415.847697019577,415.847697019577,417.2969386577606,1,1.5945463180541992,None,,,,,,,,,,,,,,,,,,12,1,2025-02-18_14h03.25.196,comp,2024.2.4,57.838826980119165,2025-02-18 14h03.42.013828 -0500,
114,114,0,critical,hwd,35.0,4.0,lower,133.0,57.0,57.0,133.0,70.0,70.0,1,1.5046160221099854,None,,,,,0,0,0,0,0,114,114,100,417.31361150741577,,,,,,,,,,,,,,,,,,,,,,,,,,,,,,,,,,,,,,,,,,,,,,,,,,,,,,,,,,,,,,,,,,,,,,,,,,,,,,,,,133.0,57.0,57.0,133.0,70.0,70.0,4.0,4.1,-191,-264,0,13,198,-272,417.2985591888428,417.2986435890198,417.3019187450409,417.31361150741577,417.4632616043091,417.4632616043091,417.4632616043091,417.4632616043091,417.4632616043091,417.4632616043091,417.4632616043091,418.83280754089355,1,1.5046160221099854,None,,,,,,,,,,,,,,,,,,12,1,2025-02-18_14h03.25.196,comp,2024.2.4,57.838826980119165,2025-02-18 14h03.42.013828 -0500,
115,115,0,filler_square,None,None,None,None,None,None,None,None,None,None,2,2.9779696464538574,None,,,,,0,0,0,0,0,115,115,178,418.8491473197937,,,,,,,,,,,,,,,,,,,,,,,,,,,,,,,,,,,,,,,,,,,,,,,,,,,,,,,,,,,,,,,,,,,,,,,,,,,,,,,,,85.53015613428883,67.16236366088827,91.52448302541546,58.39739672449809,121.07057403381998,121.07057403381998,3.0,3.2,-159,-268,0,-11,186,288,418.83474135398865,418.8348186016083,418.83890175819397,418.8491473197937,418.99823021888733,418.99823021888733,418.99823021888733,418.99823021888733,418.99823021888733,418.99823021888733,418.99823021888733,421.83483362197876,2,2.9779696464538574,None,,,,,,,,,,,,,,,,,,12,1,2025-02-18_14h03.25.196,comp,2024.2.4,57.838826980119165,2025-02-18 14h03.42.013828 -0500,
116,116,0,critical,dwh,35.0,1.0,lower,70.0,70.0,57.0,133.0,133.0,57.0,2,1.767618179321289,None,,,,,0,0,0,0,0,116,116,60,421.8509428501129,,,,,,,,,,,,,,,,,,,,,,,,,,,,,,,,,,,,,,,,,,,,,,,,,,,,,,,,,,,,,,,,,,,,,,,,,,,,,,,,,70.0,70.0,57.0,133.0,133.0,57.0,1.0,1.2,-198,-3,0,-15,191,4,421.8363883495331,421.83650612831116,421.8399829864502,421.8509428501129,422.00071263313293,422.00071263313293,422.00071263313293,422.00071263313293,422.00071263313293,422.00071263313293,422.00071263313293,423.63422083854675,2,1.767618179321289,None,,,,,,,,,,,,,,,,,,12,1,2025-02-18_14h03.25.196,comp,2024.2.4,57.838826980119165,2025-02-18 14h03.42.013828 -0500,
117,117,0,critical,dwh,35.0,4.0,upper,127.0,127.0,125.0,200.0,200.0,125.0,3,1.5368688106536865,None,,,,,0,0,0,0,0,117,117,65,423.6502950191498,,,,,,,,,,,,,,,,,,,,,,,,,,,,,,,,,,,,,,,,,,,,,,,,,,,,,,,,,,,,,,,,,,,,,,,,,,,,,,,,,127.0,127.0,125.0,200.0,200.0,125.0,4.0,4.2,-260,16,0,-280,258,-5,423.6357843875885,423.635861158371,423.63987374305725,423.6502950191498,423.79849433898926,423.79849433898926,423.79849433898926,423.79849433898926,423.79849433898926,423.79849433898926,423.79849433898926,425.2040774822235,3,1.5368688106536865,None,,,,,,,,,,,,,,,,,,12,1,2025-02-18_14h03.25.196,comp,2024.2.4,57.838826980119165,2025-02-18 14h03.42.013828 -0500,
118,118,0,critical,dhw,35.0,1.0,upper,127.0,127.0,200.0,125.0,125.0,200.0,2,2.038228988647461,None,,,,,0,0,0,0,0,118,118,49,425.22038865089417,,,,,,,,,,,,,,,,,,,,,,,,,,,,,,,,,,,,,,,,,,,,,,,,,,,,,,,,,,,,,,,,,,,,,,,,,,,,,,,,,127.0,127.0,200.0,125.0,125.0,200.0,1.0,1.3,258,-260,480,-276,738,-278,425.20578598976135,425.2059214115143,425.20913195610046,425.22038865089417,425.368821144104,425.368821144104,425.368821144104,425.368821144104,425.368821144104,425.368821144104,425.368821144104,427.26803278923035,2,2.038228988647461,None,,,,,,,,,,,,,,,,,,12,1,2025-02-18_14h03.25.196,comp,2024.2.4,57.838826980119165,2025-02-18 14h03.42.013828 -0500,
119,119,0,catch,None,None,None,None,None,None,None,None,None,None,1,1.594223976135254,None,,,,,0,0,0,0,0,119,119,127,427.2883915901184,,,,,,,,,,,,,,,,,,,,,,,,,,,,,,,,,,,,,,,,,,,,,,,,,,,,,,,,,,,,,,,,,,,,,,,,,,,,,,,,,71,119,134,191,98,92,3.0,3.1,-251,280,0,-12,238,-264,427.2701766490936,427.2702567577362,427.27362966537476,427.2883915901184,427.4359338283539,427.4359338283539,427.4359338283539,427.4359338283539,427.4359338283539,427.4359338283539,427.4359338283539,428.88483786582947,1,1.594223976135254,None,,,,,,,,,,,,,,,,,,12,1,2025-02-18_14h03.25.196,comp,2024.2.4,57.838826980119165,2025-02-18 14h03.42.013828 -0500,
120,120,0,critical,wdh,20.0,3.0,upper,125.0,200.0,141.0,141.0,200.0,125.0,3,3.764066457748413,None,,,,,0,0,0,0,0,120,120,81,428.9030704498291,,,,,,,,,,,,,,,,,,,,,,,,,,,,,,,,,,,,,,,,,,,,,,,,,,,,,,,,,,,,,,,,,,,,,,,,,,,,,,,,,125.0,200.0,141.0,141.0,200.0,125.0,3.0,3.2,-266,-269,0,19,229,289,428.88646960258484,428.8866055011749,428.8898973464966,428.9030704498291,429.04968094825745,429.04968094825745,429.04968094825745,429.04968094825745,429.04968094825745,429.04968094825745,429.04968094825745,432.6708517074585,3,3.764066457748413,None,,,,,,,,,,,,,,,,,,12,1,2025-02-18_14h03.25.196,comp,2024.2.4,57.838826980119165,2025-02-18 14h03.42.013828 -0500,
121,121,0,filler_square,None,None,None,None,None,None,None,None,None,None,2,2.0774779319763184,None,,,,,0,0,0,0,0,121,121,182,432.68761825561523,,,,,,,,,,,,,,,,,,,,,,,,,,,,,,,,,,,,,,,,,,,,,,,,,,,,,,,,,,,,,,,,,,,,,,,,,,,,,,,,,199.2377237168615,199.2377237168615,156.63100152893276,112.66565849722983,83.81651456290439,79.8299718701649,4.0,4.2,-252,-16,0,-274,192,-14,432.6726338863373,432.67271518707275,432.67676997184753,432.68761825561523,432.8368151187897,432.8368151187897,432.8368151187897,432.8368151187897,432.8368151187897,432.8368151187897,432.8368151187897,434.7699122428894,2,2.0774779319763184,None,,,,,,,,,,,,,,,,,,12,1,2025-02-18_14h03.25.196,comp,2024.2.4,57.838826980119165,2025-02-18 14h03.42.013828 -0500,
122,122,0,catch,None,None,None,None,None,None,None,None,None,None,1,4.631777286529541,None,,,,,0,0,0,0,0,122,122,121,434.7869498729706,,,,,,,,,,,,,,,,,,,,,,,,,,,,,,,,,,,,,,,,,,,,,,,,,,,,,,,,,,,,,,,,,,,,,,,,,,,,,,,,,141,184,72,118,70,120,1.0,1.2,-247,-4,0,9,215,-14,434.7718439102173,434.771924495697,434.7751078605652,434.7869498729706,434.9344050884247,434.9344050884247,434.9344050884247,434.9344050884247,434.9344050884247,434.9344050884247,434.9344050884247,439.42389845848083,1,4.631777286529541,None,,,,,,,,,,,,,,,,,,12,1,2025-02-18_14h03.25.196,comp,2024.2.4,57.838826980119165,2025-02-18 14h03.42.013828 -0500,
123,123,0,critical,wdh,20.0,1.0,upper,125.0,200.0,141.0,141.0,200.0,125.0,3,2.6778314113616943,None,,,,,0,0,0,0,0,123,123,79,439.44487857818604,,,,,,,,,,,,,,,,,,,,,,,,,,,,,,,,,,,,,,,,,,,,,,,,,,,,,,,,,,,,,,,,,,,,,,,,,,,,,,,,,125.0,200.0,141.0,141.0,200.0,125.0,1.0,1.3,214,-284,480,-260,709,-253,439.42548871040344,439.425573348999,439.4289937019348,439.44487857818604,439.5912563800812,439.5912563800812,439.5912563800812,439.5912563800812,439.5912563800812,439.5912563800812,439.5912563800812,442.1278040409088,3,2.6778314113616943,None,,,,,,,,,,,,,,,,,,12,1,2025-02-18_14h03.25.196,comp,2024.2.4,57.838826980119165,2025-02-18 14h03.42.013828 -0500,
124,124,0,critical,hwd,20.0,1.0,upper,200.0,125.0,125.0,200.0,141.0,141.0,1,1.787452220916748,None,,,,,0,0,0,0,0,124,124,103,442.1435980796814,,,,,,,,,,,,,,,,,,,,,,,,,,,,,,,,,,,,,,,,,,,,,,,,,,,,,,,,,,,,,,,,,,,,,,,,,,,,,,,,,200.0,125.0,125.0,200.0,141.0,141.0,1.0,1.2,-258,-16,0,-12,266,13,442.12943029403687,442.12954592704773,442.13285207748413,442.1435980796814,442.29288148880005,442.29288148880005,442.29288148880005,442.29288148880005,442.29288148880005,442.29288148880005,442.29288148880005,443.93993377685547,1,1.787452220916748,None,,,,,,,,,,,,,,,,,,12,1,2025-02-18_14h03.25.196,comp,2024.2.4,57.838826980119165,2025-02-18 14h03.42.013828 -0500,
125,125,0,critical,hwd,20.0,2.1,lower,133.0,57.0,57.0,133.0,78.0,78.0,1,1.7553114891052246,None,,,,,0,0,0,0,0,125,125,42,443.95937991142273,,,,,,,,,,,,,,,,,,,,,,,,,,,,,,,,,,,,,,,,,,,,,,,,,,,,,,,,,,,,,,,,,,,,,,,,,,,,,,,,,133.0,57.0,57.0,133.0,78.0,78.0,2.1,2.12,-191,-270,0,-288,202,288,443.94149827957153,443.9415817260742,443.94459557533264,443.95937991142273,444.1067478656769,444.1067478656769,444.1067478656769,444.1067478656769,444.1067478656769,444.1067478656769,444.1067478656769,445.7264652252197,1,1.7553114891052246,None,,,,,,,,,,,,,,,,,,12,1,2025-02-18_14h03.25.196,comp,2024.2.4,57.838826980119165,2025-02-18 14h03.42.013828 -0500,
126,126,0,critical,wdh,35.0,2.1,upper,125.0,200.0,127.0,127.0,200.0,125.0,3,1.9785652160644531,None,,,,,0,0,0,0,0,126,126,9,445.7447180747986,,,,,,,,,,,,,,,,,,,,,,,,,,,,,,,,,,,,,,,,,,,,,,,,,,,,,,,,,,,,,,,,,,,,,,,,,,,,,,,,,125.0,200.0,127.0,127.0,200.0,125.0,2.1,2.11,-260,258,0,288,222,-290,445.7281301021576,445.72821164131165,445.73118138313293,445.7447180747986,445.89114332199097,445.89114332199097,445.89114332199097,445.89114332199097,445.89114332199097,445.89114332199097,445.89114332199097,447.73117232322693,3,1.9785652160644531,None,,,,,,,,,,,,,,,,,,12,1,2025-02-18_14h03.25.196,comp,2024.2.4,57.838826980119165,2025-02-18 14h03.42.013828 -0500,
127,127,0,critical,dwh,20.0,3.0,lower,78.0,78.0,57.0,133.0,133.0,57.0,2,3.0255253314971924,None,,,,,0,0,0,0,0,127,127,68,447.74557852745056,,,,,,,,,,,,,,,,,,,,,,,,,,,,,,,,,,,,,,,,,,,,,,,,,,,,,,,,,,,,,,,,,,,,,,,,,,,,,,,,,78.0,78.0,57.0,133.0,133.0,57.0,3.0,3.1,-202,289,0,-20,191,-256,447.73280787467957,447.7328917980194,447.73575353622437,447.74557852745056,447.8924705982208,447.8924705982208,447.8924705982208,447.8924705982208,447.8924705982208,447.8924705982208,447.8924705982208,450.78104162216187,2,3.0255253314971924,None,,,,,,,,,,,,,,,,,,12,1,2025-02-18_14h03.25.196,comp,2024.2.4,57.838826980119165,2025-02-18 14h03.42.013828 -0500,
128,128,0,critical,hdw,35.0,1.0,lower,133.0,57.0,70.0,70.0,57.0,133.0,1,3.3774337768554688,None,,,,,0,0,0,0,0,128,128,108,450.80120635032654,,,,,,,,,,,,,,,,,,,,,,,,,,,,,,,,,,,,,,,,,,,,,,,,,,,,,,,,,,,,,,,,,,,,,,,,,,,,,,,,,133.0,57.0,70.0,70.0,57.0,133.0,1.0,1.3,320,-261,480,-265,678,-260,450.7826454639435,450.7827396392822,450.78561329841614,450.80120635032654,450.9443805217743,450.9443805217743,450.9443805217743,450.9443805217743,450.9443805217743,450.9443805217743,450.9443805217743,454.1926500797272,1,3.3774337768554688,None,,,,,,,,,,,,,,,,,,12,1,2025-02-18_14h03.25.196,comp,2024.2.4,57.838826980119165,2025-02-18 14h03.42.013828 -0500,
129,129,0,filler_square,None,None,None,None,None,None,None,None,None,None,3,10.337615013122559,None,,,,,0,0,0,0,0,129,129,190,454.20897126197815,,,,,,,,,,,,,,,,,,,,,,,,,,,,,,,,,,,,,,,,,,,,,,,,,,,,,,,,,,,,,,,,,,,,,,,,,,,,,,,,,132.79404928196612,139.32947519426295,115.11337777121885,119.50299855855958,150.91421679063131,150.91421679063131,2.1,2.12,-225,-278,0,-288,231,261,454.19443368911743,454.19453620910645,454.1976857185364,454.20897126197815,454.35825657844543,454.35825657844543,454.35825657844543,454.35825657844543,454.35825657844543,454.35825657844543,454.35825657844543,464.5623588562012,3,10.337615013122559,None,,,,,,,,,,,,,,,,,,12,1,2025-02-18_14h03.25.196,comp,2024.2.4,57.838826980119165,2025-02-18 14h03.42.013828 -0500,
130,130,0,critical,whd,35.0,3.0,upper,125.0,200.0,200.0,125.0,127.0,127.0,2,1.6325139999389648,None,,,,,0,0,0,0,0,130,130,87,464.57867336273193,,,,,,,,,,,,,,,,,,,,,,,,,,,,,,,,,,,,,,,,,,,,,,,,,,,,,,,,,,,,,,,,,,,,,,,,,,,,,,,,,125.0,200.0,200.0,125.0,127.0,127.0,3.0,3.2,-258,-281,0,1,222,277,464.5640654563904,464.56414341926575,464.56739807128906,464.57867336273193,464.73356103897095,464.73356103897095,464.73356103897095,464.73356103897095,464.73356103897095,464.73356103897095,464.73356103897095,466.21556997299194,2,1.6325139999389648,None,,,,,,,,,,,,,,,,,,12,1,2025-02-18_14h03.25.196,comp,2024.2.4,57.838826980119165,2025-02-18 14h03.42.013828 -0500,
131,131,0,critical,whd,20.0,4.0,upper,125.0,200.0,200.0,125.0,141.0,141.0,1,2.2590489387512207,None,,,,,0,0,0,0,0,131,131,95,466.2320718765259,,,,,,,,,,,,,,,,,,,,,,,,,,,,,,,,,,,,,,,,,,,,,,,,,,,,,,,,,,,,,,,,,,,,,,,,,,,,,,,,,125.0,200.0,200.0,125.0,141.0,141.0,4.0,4.1,-258,-265,0,-9,229,-253,466.21720695495605,466.2172884941101,466.2212998867035,466.2320718765259,466.3817181587219,466.3817181587219,466.3817181587219,466.3817181587219,466.3817181587219,466.3817181587219,466.3817181587219,468.5014133453369,1,2.2590489387512207,None,,,,,,,,,,,,,,,,,,12,1,2025-02-18_14h03.25.196,comp,2024.2.4,57.838826980119165,2025-02-18 14h03.42.013828 -0500,
132,132,0,critical,dwh,20.0,4.0,upper,141.0,141.0,125.0,200.0,200.0,125.0,2,1.7388567924499512,None,,,,,0,0,0,0,0,132,132,71,468.51989483833313,,,,,,,,,,,,,,,,,,,,,,,,,,,,,,,,,,,,,,,,,,,,,,,,,,,,,,,,,,,,,,,,,,,,,,,,,,,,,,,,,141.0,141.0,125.0,200.0,200.0,125.0,4.0,4.2,-266,6,0,-251,258,-11,468.5032284259796,468.50336146354675,468.5065333843231,468.51989483833313,468.6654975414276,468.6654975414276,468.6654975414276,468.6654975414276,468.6654975414276,468.6654975414276,468.6654975414276,470.2748601436615,2,1.7388567924499512,None,,,,,,,,,,,,,,,,,,12,1,2025-02-18_14h03.25.196,comp,2024.2.4,57.838826980119165,2025-02-18 14h03.42.013828 -0500,
133,133,0,critical,dwh,35.0,3.0,upper,127.0,127.0,125.0,200.0,200.0,125.0,3,2.073092222213745,None,,,,,0,0,0,0,0,133,133,63,470.2900540828705,,,,,,,,,,,,,,,,,,,,,,,,,,,,,,,,,,,,,,,,,,,,,,,,,,,,,,,,,,,,,,,,,,,,,,,,,,,,,,,,,127.0,127.0,125.0,200.0,200.0,125.0,3.0,3.2,-260,-271,0,-1,258,258,470.27636909484863,470.2764627933502,470.2792639732361,470.2900540828705,470.43294501304626,470.43294501304626,470.43294501304626,470.43294501304626,470.43294501304626,470.43294501304626,470.43294501304626,472.36575269699097,3,2.073092222213745,None,,,,,,,,,,,,,,,,,,12,1,2025-02-18_14h03.25.196,comp,2024.2.4,57.838826980119165,2025-02-18 14h03.42.013828 -0500,
134,134,0,critical,dwh,20.0,2.1,lower,78.0,78.0,57.0,133.0,133.0,57.0,3,3.129239082336426,None,,,,,0,0,0,0,0,134,134,6,472.3855764865875,,,,,,,,,,,,,,,,,,,,,,,,,,,,,,,,,,,,,,,,,,,,,,,,,,,,,,,,,,,,,,,,,,,,,,,,,,,,,,,,,78.0,78.0,57.0,133.0,133.0,57.0,2.1,2.12,-202,-286,0,-261,191,282,472.36726999282837,472.3673474788666,472.37051129341125,472.3855764865875,472.5332808494568,472.5332808494568,472.5332808494568,472.5332808494568,472.5332808494568,472.5332808494568,472.5332808494568,475.51771092414856,3,3.129239082336426,None,,,,,,,,,,,,,,,,,,12,1,2025-02-18_14h03.25.196,comp,2024.2.4,57.838826980119165,2025-02-18 14h03.42.013828 -0500,
135,135,0,critical,dhw,35.0,1.0,lower,70.0,70.0,133.0,57.0,57.0,133.0,2,2.4637255668640137,None,,,,,0,0,0,0,0,135,135,48,475.53210258483887,,,,,,,,,,,,,,,,,,,,,,,,,,,,,,,,,,,,,,,,,,,,,,,,,,,,,,,,,,,,,,,,,,,,,,,,,,,,,,,,,70.0,70.0,133.0,57.0,57.0,133.0,1.0,1.3,320,-268,480,-287,671,-257,475.5192651748657,475.5193419456482,475.52261996269226,475.53210258483887,475.68453788757324,475.68453788757324,475.68453788757324,475.68453788757324,475.68453788757324,475.68453788757324,475.68453788757324,478.0034327507019,2,2.4637255668640137,None,,,,,,,,,,,,,,,,,,12,1,2025-02-18_14h03.25.196,comp,2024.2.4,57.838826980119165,2025-02-18 14h03.42.013828 -0500,
136,136,0,filler_random,None,None,None,None,None,None,None,None,None,None,2,2.8630197048187256,None,,,,,0,0,0,0,0,136,136,147,478.019743680954,,,,,,,,,,,,,,,,,,,,,,,,,,,,,,,,,,,,,,,,,,,,,,,,,,,,,,,,,,,,,,,,,,,,,,,,,,,,,,,,,120.70368167654101,83.05740205265282,93.56133455270111,136.74591676992674,172.83866505814558,195.92520627356703,4.0,4.1,-206,-264,0,5,262,-262,478.00556802749634,478.00570607185364,478.0089638233185,478.019743680954,478.1681363582611,478.1681363582611,478.1681363582611,478.1681363582611,478.1681363582611,478.1681363582611,478.1681363582611,480.8865180015564,2,2.8630197048187256,None,,,,,,,,,,,,,,,,,,12,1,2025-02-18_14h03.25.196,comp,2024.2.4,57.838826980119165,2025-02-18 14h03.42.013828 -0500,
137,137,0,filler_random,None,None,None,None,None,None,None,None,None,None,2,1.0922904014587402,None,,,,,0,0,0,0,0,137,137,159,480.9032220840454,,,,,,,,,,,,,,,,,,,,,,,,,,,,,,,,,,,,,,,,,,,,,,,,,,,,,,,,,,,,,,,,,,,,,,,,,,,,,,,,,106.38706480579441,160.77688427760734,67.20931898442555,196.68475074204858,171.34753801901104,140.35667866893593,2.1,2.11,-275,271,0,282,265,-278,480.88827896118164,480.8883605003357,480.892418384552,480.9032220840454,481.05110597610474,481.05110597610474,481.05110597610474,481.05110597610474,481.05110597610474,481.05110597610474,481.05110597610474,482.00189781188965,2,1.0922904014587402,None,,,,,,,,,,,,,,,,,,12,1,2025-02-18_14h03.25.196,comp,2024.2.4,57.838826980119165,2025-02-18 14h03.42.013828 -0500,
138,138,0,filler_square,None,None,None,None,None,None,None,None,None,None,2,1.832090139389038,None,,,,,0,0,0,0,0,138,138,170,482.02710366249084,,,,,,,,,,,,,,,,,,,,,,,,,,,,,,,,,,,,,,,,,,,,,,,,,,,,,,,,,,,,,,,,,,,,,,,,,,,,,,,,,80.62882404755108,81.03919595915126,81.5582197539622,57.34903019230561,87.6871511375035,87.6871511375035,2.1,2.12,-165,-283,0,-288,169,284,482.00382447242737,482.00393438339233,482.00726675987244,482.02710366249084,482.16953587532043,482.16953587532043,482.16953587532043,482.16953587532043,482.16953587532043,482.16953587532043,482.16953587532043,483.86116003990173,2,1.832090139389038,None,,,,,,,,,,,,,,,,,,12,1,2025-02-18_14h03.25.196,comp,2024.2.4,57.838826980119165,2025-02-18 14h03.42.013828 -0500,
139,139,0,critical,wdh,20.0,2.1,lower,57.0,133.0,78.0,78.0,133.0,57.0,3,1.898735761642456,None,,,,,0,0,0,0,0,139,139,10,483.88053798675537,,,,,,,,,,,,,,,,,,,,,,,,,,,,,,,,,,,,,,,,,,,,,,,,,,,,,,,,,,,,,,,,,,,,,,,,,,,,,,,,,57.0,133.0,78.0,78.0,133.0,57.0,2.1,2.12,-202,-280,0,-263,164,256,483.86272716522217,483.86280703544617,483.8656611442566,483.88053798675537,484.0213747024536,484.0213747024536,484.0213747024536,484.0213747024536,484.0213747024536,484.0213747024536,484.0213747024536,485.787517786026,3,1.898735761642456,None,,,,,,,,,,,,,,,,,,12,1,2025-02-18_14h03.25.196,comp,2024.2.4,57.838826980119165,2025-02-18 14h03.42.013828 -0500,
