thisN,thisTrialN,thisRepN,effect,order,distance,config,diag,h_1,w_1,h_2,w_2,h_3,w_3,rect_choice.keys,rect_choice.rt,rect_choice.duration,instructions_loop.thisRepN,instructions_loop.thisTrialN,instructions_loop.thisN,instructions_loop.thisIndex,blocks.thisRepN,blocks.thisTrialN,blocks.thisN,blocks.thisIndex,trials.thisRepN,trials.thisTrialN,trials.thisN,trials.thisIndex,thisRow.t,notes,consent.started,agree_button.started,decline_button.started,consent_img.started,mouse.started,consent.stopped,agree_button.numClicks,agree_button.timesOn,agree_button.timesOff,decline_button.numClicks,decline_button.timesOn,decline_button.timesOff,mouse.x,mouse.y,mouse.leftButton,mouse.midButton,mouse.rightButton,mouse.time,mouse.clicked_name,exp_params.started,exp_params.stopped,welcome.started,welcome_text.started,welcome.stopped,instructions_1.started,instructions_1_text_1.started,instructions_1_text_2.started,key_resp.started,instructions_1.stopped,instructions_loop.key_resp.keys,instructions_loop.key_resp.rt,instructions_loop.key_resp.duration,instructions_2.started,instructions_2_text_1.started,instructions_2_text_2.started,key_resp_2.started,instructions_2.stopped,instructions_loop.key_resp_2.keys,instructions_loop.key_resp_2.rt,instructions_loop.key_resp_2.duration,instructions_3.started,instructions_3_text_1.started,r1_instr3.started,r2_instr3.started,r3_instr3.started,r1_instr3_label.started,r2_instr3_label.started,r3_instr3_label.started,instructions_3_text_3.started,instructions_3_text_4.started,key_resp_3.started,instructions_3.stopped,instructions_loop.key_resp_3.keys,instructions_loop.key_resp_3.rt,instructions_loop.key_resp_3.duration,instructions_4.started,instructions_4_text_1.started,instructions_4_text_3.started,instructions_4_text_2.started,key_resp_4.started,instructions_4.stopped,instructions_loop.key_resp_4.keys,instructions_loop.key_resp_4.rt,instructions_loop.key_resp_4.duration,instructions_5.started,instructions_5_text_1.started,instructions_5_text_2.started,key_resp_5.started,instructions_5.stopped,instructions_loop.key_resp_5.keys,instructions_loop.key_resp_5.rt,instructions_loop.key_resp_5.duration,start_exp.started,start_exp_text.started,key_resp_6.started,start_exp.stopped,key_resp_6.keys,key_resp_6.rt,key_resp_6.duration,h_1_tmp,w_1_tmp,h_2_tmp,w_2_tmp,h_3_tmp,w_3_tmp,config_tmp,config_tmp_1,r_1_x,r_1_y,r_2_x,r_2_y,r_3_x,r_3_y,pre_trial.started,pre_trial.stopped,choice_trial.started,rect_choice.started,r_1.started,r_2.started,r_3.started,r_1_label.started,r_2_label.started,r_3_label.started,prompt.started,choice_trial.stopped,trials.rect_choice.keys,trials.rect_choice.rt,trials.rect_choice.duration,end_block.started,end_block_text.started,end_block.stopped,end.started,end_text.started,key_resp_7.started,end.stopped,key_resp_7.keys,key_resp_7.rt,key_resp_7.duration,debriefing.started,debrief_form.started,end_debrief.started,debriefing.stopped,end_debrief.keys,end_debrief.rt,end_debrief.duration,participant,computer,date,expName,psychopyVersion,frameRate,expStart,
,,,,,,,,,,,,,,,,,,,,,,,,,,,,,,,0.014764070510864258,0.037813425064086914,0.037813425064086914,0.037813425064086914,0.014553070068359375,7.643486976623535,1,[7.603373765945435],[7.603394985198975],0,,,[-85.0],[-503.0],[1],[0],[0],[7.628159046173096],['agree_button'],,,,,,,,,,,,,,,,,,,,,,,,,,,,,,,,,,,,,,,,,,,,,,,,,,,,,,,,,,,,,,,,,,,,,,,,,,,,,,,,,,,,,,,,,,,,,,,,,,,,,,,,,,,130,4,2025-02-26_13h02.44.831,comp,2024.2.4,57.856538873769054,2025-02-26 13h02.51.040816 -0500,
,,,,,,,,,,,,,,,,,,,,,,,,,,,,,,,,,,,,,,,,,,,,,,,,,,7.643994092941284,7.644059181213379,,,,,,,,,,,,,,,,,,,,,,,,,,,,,,,,,,,,,,,,,,,,,,,,,,,,,,,,,,,,,,,,,,,,,,,,,,,,,,,,,,,,,,,,,,,,,,,,,,,,,,,,,130,4,2025-02-26_13h02.44.831,comp,2024.2.4,57.856538873769054,2025-02-26 13h02.51.040816 -0500,
,,,,,,,,,,,,,,,,,,,,,,,,,,,,,,,,,,,,,,,,,,,,,,,,,,,,7.644100666046143,7.659411191940308,9.650031566619873,,,,,,,,,,,,,,,,,,,,,,,,,,,,,,,,,,,,,,,,,,,,,,,,,,,,,,,,,,,,,,,,,,,,,,,,,,,,,,,,,,,,,,,,,,,,,,,,,,,,,,130,4,2025-02-26_13h02.44.831,comp,2024.2.4,57.856538873769054,2025-02-26 13h02.51.040816 -0500,
0,0,0,,,,,,,,,,,,,,,0,0,0,0,,,,,,,,,9.671040296554565,,,,,,,,,,,,,,,,,,,,,,,,,,9.651001214981079,9.671040296554565,9.671040296554565,11.151729583740234,12.70424485206604,space,1.5438807010650635,None,12.704429864883423,12.722344160079956,12.722344160079956,14.21945595741272,20.221699714660645,space,5.987302303314209,None,20.221844911575317,20.25720715522766,20.25720715522766,20.25720715522766,20.25720715522766,20.25720715522766,20.25720715522766,20.25720715522766,20.25720715522766,20.25720715522766,21.718952417373657,24.47667908668518,space,2.743793487548828,None,24.47683620452881,24.493834733963013,24.493834733963013,24.493834733963013,25.989981174468994,31.19286274909973,space,5.193493843078613,None,31.19300937652588,31.208560705184937,31.208560705184937,32.70841598510742,33.944578886032104,space,1.2342772483825684,None,33.94477391242981,33.95853400230408,33.95853400230408,35.27674579620361,space,1.304152011871338,None,,,,,,,,,,,,,,,,,,,,,,,,,,,,,,,,,,,,,,,,,,,,,,,130,4,2025-02-26_13h02.44.831,comp,2024.2.4,57.856538873769054,2025-02-26 13h02.51.040816 -0500,
0,0,0,critical,wdh,35.0,2.1,upper,125.0,200.0,127.0,127.0,200.0,125.0,3,2.1387906074523926,None,,,,,0,0,0,0,0,0,0,33,35.35593128204346,,,,,,,,,,,,,,,,,,,,,,,,,,,,,,,,,,,,,,,,,,,,,,,,,,,,,,,,,,,,,,,,,,,,,,,,,,,,,,,,,125.0,200.0,127.0,127.0,200.0,125.0,2.1,2.11,-260,275,0,263,222,-274,35.33904576301575,35.3390908241272,35.34099721908569,35.35593128204346,35.50126838684082,35.50126838684082,35.50126838684082,35.50126838684082,35.50126838684082,35.50126838684082,35.50126838684082,37.50935363769531,3,2.1387906074523926,None,,,,,,,,,,,,,,,,,,130,4,2025-02-26_13h02.44.831,comp,2024.2.4,57.856538873769054,2025-02-26 13h02.51.040816 -0500,
1,1,0,critical,dwh,20.0,2.1,upper,141.0,141.0,125.0,200.0,200.0,125.0,2,1.8894219398498535,None,,,,,0,0,0,0,0,1,1,31,37.52556657791138,,,,,,,,,,,,,,,,,,,,,,,,,,,,,,,,,,,,,,,,,,,,,,,,,,,,,,,,,,,,,,,,,,,,,,,,,,,,,,,,,141.0,141.0,125.0,200.0,200.0,125.0,2.1,2.12,-266,-257,0,-254,258,286,37.510831356048584,37.51089835166931,37.51388716697693,37.52556657791138,37.67698550224304,37.67698550224304,37.67698550224304,37.67698550224304,37.67698550224304,37.67698550224304,37.67698550224304,39.4287314414978,2,1.8894219398498535,None,,,,,,,,,,,,,,,,,,130,4,2025-02-26_13h02.44.831,comp,2024.2.4,57.856538873769054,2025-02-26 13h02.51.040816 -0500,
2,2,0,critical,dwh,35.0,3.0,lower,70.0,70.0,57.0,133.0,133.0,57.0,2,1.7314848899841309,None,,,,,0,0,0,0,0,2,2,62,39.44423270225525,,,,,,,,,,,,,,,,,,,,,,,,,,,,,,,,,,,,,,,,,,,,,,,,,,,,,,,,,,,,,,,,,,,,,,,,,,,,,,,,,70.0,70.0,57.0,133.0,133.0,57.0,3.0,3.2,-198,-268,0,-5,191,264,39.4303240776062,39.430402755737305,39.43389320373535,39.44423270225525,39.59375524520874,39.59375524520874,39.59375524520874,39.59375524520874,39.59375524520874,39.59375524520874,39.59375524520874,41.183836698532104,2,1.7314848899841309,None,,,,,,,,,,,,,,,,,,130,4,2025-02-26_13h02.44.831,comp,2024.2.4,57.856538873769054,2025-02-26 13h02.51.040816 -0500,
3,3,0,filler_random,None,None,None,None,None,None,None,None,None,None,1,1.366150140762329,None,,,,,0,0,0,0,0,3,3,152,41.20065093040466,,,,,,,,,,,,,,,,,,,,,,,,,,,,,,,,,,,,,,,,,,,,,,,,,,,,,,,,,,,,,,,,,,,,,,,,,,,,,,,,,148.13043211011285,125.31480428377361,63.307408994493,70.02731386499528,60.904268039721885,92.05919865101644,3.0,3.1,-194,268,0,16,177,-275,41.18555927276611,41.18563747406006,41.188560247421265,41.20065093040466,41.34421443939209,41.34421443939209,41.34421443939209,41.34421443939209,41.34421443939209,41.34421443939209,41.34421443939209,42.584630250930786,1,1.366150140762329,None,,,,,,,,,,,,,,,,,,130,4,2025-02-26_13h02.44.831,comp,2024.2.4,57.856538873769054,2025-02-26 13h02.51.040816 -0500,
4,4,0,filler_square,None,None,None,None,None,None,None,None,None,None,2,1.2196238040924072,None,,,,,0,0,0,0,0,4,4,207,42.60547590255737,,,,,,,,,,,,,,,,,,,,,,,,,,,,,,,,,,,,,,,,,,,,,,,,,,,,,,,,,,,,,,,,,,,,,,,,,,,,,,,,,87.72335270296567,92.07411394965806,176.96559683023807,176.96559683023807,173.48045058339136,60.801955976873046,1.0,1.1,-711,283,-480,279,-265,259,42.58670377731323,42.586780071258545,42.59007382392883,42.60547590255737,42.74805998802185,42.74805998802185,42.74805998802185,42.74805998802185,42.74805998802185,42.74805998802185,42.74805998802185,43.83027195930481,2,1.2196238040924072,None,,,,,,,,,,,,,,,,,,130,4,2025-02-26_13h02.44.831,comp,2024.2.4,57.856538873769054,2025-02-26 13h02.51.040816 -0500,
5,5,0,critical,whd,35.0,2.1,upper,125.0,200.0,200.0,125.0,127.0,127.0,1,1.5001139640808105,None,,,,,0,0,0,0,0,5,5,37,43.850815773010254,,,,,,,,,,,,,,,,,,,,,,,,,,,,,,,,,,,,,,,,,,,,,,,,,,,,,,,,,,,,,,,,,,,,,,,,,,,,,,,,,125.0,200.0,200.0,125.0,127.0,127.0,2.1,2.11,-258,266,0,283,222,-290,43.831873416900635,43.831950187683105,43.83514881134033,43.850815773010254,43.99681639671326,43.99681639671326,43.99681639671326,43.99681639671326,43.99681639671326,43.99681639671326,43.99681639671326,45.36288404464722,1,1.5001139640808105,None,,,,,,,,,,,,,,,,,,130,4,2025-02-26_13h02.44.831,comp,2024.2.4,57.856538873769054,2025-02-26 13h02.51.040816 -0500,
6,6,0,filler_random,None,None,None,None,None,None,None,None,None,None,3,1.2925233840942383,None,,,,,0,0,0,0,0,6,6,162,45.379162073135376,,,,,,,,,,,,,,,,,,,,,,,,,,,,,,,,,,,,,,,,,,,,,,,,,,,,,,,,,,,,,,,,,,,,,,,,,,,,,,,,,134.3361242126961,69.37643190606491,70.27801178860766,59.907058440629555,191.05412045962797,138.75890800137915,1.0,1.2,-161,5,0,9,195,12,45.36469006538391,45.36479353904724,45.36811375617981,45.379162073135376,45.52663016319275,45.52663016319275,45.52663016319275,45.52663016319275,45.52663016319275,45.52663016319275,45.52663016319275,46.680320739746094,3,1.2925233840942383,None,,,,,,,,,,,,,,,,,,130,4,2025-02-26_13h02.44.831,comp,2024.2.4,57.856538873769054,2025-02-26 13h02.51.040816 -0500,
7,7,0,critical,dwh,20.0,1.0,upper,141.0,141.0,125.0,200.0,200.0,125.0,2,1.5433168411254883,None,,,,,0,0,0,0,0,7,7,67,46.69625520706177,,,,,,,,,,,,,,,,,,,,,,,,,,,,,,,,,,,,,,,,,,,,,,,,,,,,,,,,,,,,,,,,,,,,,,,,,,,,,,,,,141.0,141.0,125.0,200.0,200.0,125.0,1.0,1.1,-746,256,-480,281,-222,265,46.68180727958679,46.68188142776489,46.68499255180359,46.69625520706177,46.85210990905762,46.85210990905762,46.85210990905762,46.85210990905762,46.85210990905762,46.85210990905762,46.85210990905762,48.24816703796387,2,1.5433168411254883,None,,,,,,,,,,,,,,,,,,130,4,2025-02-26_13h02.44.831,comp,2024.2.4,57.856538873769054,2025-02-26 13h02.51.040816 -0500,
8,8,0,critical,dhw,20.0,4.0,upper,141.0,141.0,200.0,125.0,125.0,200.0,3,1.4714479446411133,None,,,,,0,0,0,0,0,8,8,59,48.26385855674744,,,,,,,,,,,,,,,,,,,,,,,,,,,,,,,,,,,,,,,,,,,,,,,,,,,,,,,,,,,,,,,,,,,,,,,,,,,,,,,,,141.0,141.0,200.0,125.0,125.0,200.0,4.0,4.1,-229,-279,0,-18,258,-285,48.24969005584717,48.24976682662964,48.253106117248535,48.26385855674744,48.41612648963928,48.41612648963928,48.41612648963928,48.41612648963928,48.41612648963928,48.41612648963928,48.41612648963928,49.74198293685913,3,1.4714479446411133,None,,,,,,,,,,,,,,,,,,130,4,2025-02-26_13h02.44.831,comp,2024.2.4,57.856538873769054,2025-02-26 13h02.51.040816 -0500,
9,9,0,critical,dwh,35.0,2.1,lower,70.0,70.0,57.0,133.0,133.0,57.0,2,1.6045920848846436,None,,,,,0,0,0,0,0,9,9,28,49.762409925460815,,,,,,,,,,,,,,,,,,,,,,,,,,,,,,,,,,,,,,,,,,,,,,,,,,,,,,,,,,,,,,,,,,,,,,,,,,,,,,,,,70.0,70.0,57.0,133.0,133.0,57.0,2.1,2.11,-198,262,0,264,191,-276,49.74350953102112,49.743587255477905,49.74659252166748,49.762409925460815,49.89898324012756,49.89898324012756,49.89898324012756,49.89898324012756,49.89898324012756,49.89898324012756,49.89898324012756,51.36969757080078,2,1.6045920848846436,None,,,,,,,,,,,,,,,,,,130,4,2025-02-26_13h02.44.831,comp,2024.2.4,57.856538873769054,2025-02-26 13h02.51.040816 -0500,
10,10,0,critical,dwh,20.0,4.0,upper,141.0,141.0,125.0,200.0,200.0,125.0,2,1.480724573135376,None,,,,,0,0,0,0,0,10,10,71,51.39008545875549,,,,,,,,,,,,,,,,,,,,,,,,,,,,,,,,,,,,,,,,,,,,,,,,,,,,,,,,,,,,,,,,,,,,,,,,,,,,,,,,,141.0,141.0,125.0,200.0,200.0,125.0,4.0,4.2,-266,-12,0,-273,258,10,51.37138247489929,51.371464252471924,51.37483811378479,51.39008545875549,51.53356099128723,51.53356099128723,51.53356099128723,51.53356099128723,51.53356099128723,51.53356099128723,51.53356099128723,52.88172721862793,2,1.480724573135376,None,,,,,,,,,,,,,,,,,,130,4,2025-02-26_13h02.44.831,comp,2024.2.4,57.856538873769054,2025-02-26 13h02.51.040816 -0500,
11,11,0,catch,None,None,None,None,None,None,None,None,None,None,3,1.2841718196868896,None,,,,,0,0,0,0,0,11,11,128,52.90874433517456,,,,,,,,,,,,,,,,,,,,,,,,,,,,,,,,,,,,,,,,,,,,,,,,,,,,,,,,,,,,,,,,,,,,,,,,,,,,,,,,,83,107,112,78,177,148,2.2,2.22,-188,265,0,-251,209,-262,52.88368535041809,52.88376593589783,52.887033224105835,52.90874433517456,53.0491418838501,53.0491418838501,53.0491418838501,53.0491418838501,53.0491418838501,53.0491418838501,53.0491418838501,54.19920253753662,3,1.2841718196868896,None,,,,,,,,,,,,,,,,,,130,4,2025-02-26_13h02.44.831,comp,2024.2.4,57.856538873769054,2025-02-26 13h02.51.040816 -0500,
12,12,0,critical,hwd,20.0,1.0,lower,133.0,57.0,57.0,133.0,78.0,78.0,2,1.4432735443115234,None,,,,,0,0,0,0,0,12,12,102,54.219610929489136,,,,,,,,,,,,,,,,,,,,,,,,,,,,,,,,,,,,,,,,,,,,,,,,,,,,,,,,,,,,,,,,,,,,,,,,,,,,,,,,,133.0,57.0,57.0,133.0,78.0,78.0,1.0,1.3,289,-272,480,-282,682,-251,54.20075750350952,54.200836181640625,54.203843116760254,54.219610929489136,54.366114139556885,54.366114139556885,54.366114139556885,54.366114139556885,54.366114139556885,54.366114139556885,54.366114139556885,55.66722869873047,2,1.4432735443115234,None,,,,,,,,,,,,,,,,,,130,4,2025-02-26_13h02.44.831,comp,2024.2.4,57.856538873769054,2025-02-26 13h02.51.040816 -0500,
13,13,0,filler_square,None,None,None,None,None,None,None,None,None,None,1,1.298614501953125,None,,,,,0,0,0,0,0,13,13,187,55.6841824054718,,,,,,,,,,,,,,,,,,,,,,,,,,,,,,,,,,,,,,,,,,,,,,,,,,,,,,,,,,,,,,,,,,,,,,,,,,,,,,,,,143.49341292148227,143.49341292148227,88.35971941601343,116.67356429654149,140.17008422039262,106.22016971603844,2.2,2.21,-226,-259,0,267,207,267,55.66943097114563,55.66951012611389,55.67318272590637,55.6841824054718,55.83248996734619,55.83248996734619,55.83248996734619,55.83248996734619,55.83248996734619,55.83248996734619,55.83248996734619,57.00073313713074,1,1.298614501953125,None,,,,,,,,,,,,,,,,,,130,4,2025-02-26_13h02.44.831,comp,2024.2.4,57.856538873769054,2025-02-26 13h02.51.040816 -0500,
14,14,0,filler_square,None,None,None,None,None,None,None,None,None,None,2,1.0623226165771484,None,,,,,0,0,0,0,0,14,14,188,57.0164589881897,,,,,,,,,,,,,,,,,,,,,,,,,,,,,,,,,,,,,,,,,,,,,,,,,,,,,,,,,,,,,,,,,,,,,,,,,,,,,,,,,71.80933957020397,57.871035569450086,117.70768707550158,117.70768707550158,82.90809512655198,91.27263528541783,1.0,1.2,-184,12,0,-2,200,10,57.00261902809143,57.0026957988739,57.00614857673645,57.0164589881897,57.16825866699219,57.16825866699219,57.16825866699219,57.16825866699219,57.16825866699219,57.16825866699219,57.16825866699219,58.09220814704895,2,1.0623226165771484,None,,,,,,,,,,,,,,,,,,130,4,2025-02-26_13h02.44.831,comp,2024.2.4,57.856538873769054,2025-02-26 13h02.51.040816 -0500,
15,15,0,critical,whd,20.0,2.1,lower,57.0,133.0,133.0,57.0,78.0,78.0,2,1.1788134574890137,None,,,,,0,0,0,0,0,15,15,14,58.10746765136719,,,,,,,,,,,,,,,,,,,,,,,,,,,,,,,,,,,,,,,,,,,,,,,,,,,,,,,,,,,,,,,,,,,,,,,,,,,,,,,,,57.0,133.0,133.0,57.0,78.0,78.0,2.1,2.12,-191,-284,0,-257,164,277,58.09370994567871,58.093785762786865,58.09712100028992,58.10746765136719,58.24818658828735,58.24818658828735,58.24818658828735,58.24818658828735,58.24818658828735,58.24818658828735,58.24818658828735,59.29995369911194,2,1.1788134574890137,None,,,,,,,,,,,,,,,,,,130,4,2025-02-26_13h02.44.831,comp,2024.2.4,57.856538873769054,2025-02-26 13h02.51.040816 -0500,
16,16,0,critical,hwd,20.0,2.1,upper,200.0,125.0,125.0,200.0,141.0,141.0,2,1.211439609527588,None,,,,,0,0,0,0,0,16,16,19,59.316717863082886,,,,,,,,,,,,,,,,,,,,,,,,,,,,,,,,,,,,,,,,,,,,,,,,,,,,,,,,,,,,,,,,,,,,,,,,,,,,,,,,,200.0,125.0,125.0,200.0,141.0,141.0,2.1,2.12,-258,-254,0,-269,266,286,59.30039596557617,59.300414085388184,59.3012216091156,59.316717863082886,59.45190739631653,59.45190739631653,59.45190739631653,59.45190739631653,59.45190739631653,59.45190739631653,59.45190739631653,60.53634858131409,2,1.211439609527588,None,,,,,,,,,,,,,,,,,,130,4,2025-02-26_13h02.44.831,comp,2024.2.4,57.856538873769054,2025-02-26 13h02.51.040816 -0500,
17,17,0,critical,wdh,20.0,3.0,lower,57.0,133.0,78.0,78.0,133.0,57.0,3,1.3110547065734863,None,,,,,0,0,0,0,0,17,17,80,60.5523567199707,,,,,,,,,,,,,,,,,,,,,,,,,,,,,,,,,,,,,,,,,,,,,,,,,,,,,,,,,,,,,,,,,,,,,,,,,,,,,,,,,57.0,133.0,78.0,78.0,133.0,57.0,3.0,3.1,-202,266,0,0,164,-290,60.537964820861816,60.53808927536011,60.54148745536804,60.5523567199707,60.69860363006592,60.69860363006592,60.69860363006592,60.69860363006592,60.69860363006592,60.69860363006592,60.69860363006592,61.86797261238098,3,1.3110547065734863,None,,,,,,,,,,,,,,,,,,130,4,2025-02-26_13h02.44.831,comp,2024.2.4,57.856538873769054,2025-02-26 13h02.51.040816 -0500,
18,18,0,critical,hdw,20.0,2.1,upper,200.0,125.0,141.0,141.0,125.0,200.0,1,1.0546724796295166,None,,,,,0,0,0,0,0,18,18,23,61.888128995895386,,,,,,,,,,,,,,,,,,,,,,,,,,,,,,,,,,,,,,,,,,,,,,,,,,,,,,,,,,,,,,,,,,,,,,,,,,,,,,,,,200.0,125.0,141.0,141.0,125.0,200.0,2.1,2.12,-229,-276,0,-283,266,253,61.86957406997681,61.86965084075928,61.87310171127319,61.888128995895386,62.03577446937561,62.03577446937561,62.03577446937561,62.03577446937561,62.03577446937561,62.03577446937561,62.03577446937561,62.952346086502075,1,1.0546724796295166,None,,,,,,,,,,,,,,,,,,130,4,2025-02-26_13h02.44.831,comp,2024.2.4,57.856538873769054,2025-02-26 13h02.51.040816 -0500,
19,19,0,critical,dhw,35.0,1.0,upper,127.0,127.0,200.0,125.0,125.0,200.0,3,1.1991586685180664,None,,,,,0,0,0,0,0,19,19,49,62.967812299728394,,,,,,,,,,,,,,,,,,,,,,,,,,,,,,,,,,,,,,,,,,,,,,,,,,,,,,,,,,,,,,,,,,,,,,,,,,,,,,,,,127.0,127.0,200.0,125.0,125.0,200.0,1.0,1.2,-222,-15,0,17,258,-4,62.95378351211548,62.953861951828,62.957112550735474,62.967812299728394,63.11978340148926,63.11978340148926,63.11978340148926,63.11978340148926,63.11978340148926,63.11978340148926,63.11978340148926,64.18595170974731,3,1.1991586685180664,None,,,,,,,,,,,,,,,,,,130,4,2025-02-26_13h02.44.831,comp,2024.2.4,57.856538873769054,2025-02-26 13h02.51.040816 -0500,
20,20,0,critical,dhw,20.0,2.1,lower,78.0,78.0,133.0,57.0,57.0,133.0,2,1.3577070236206055,None,,,,,0,0,0,0,0,20,20,2,64.20200896263123,,,,,,,,,,,,,,,,,,,,,,,,,,,,,,,,,,,,,,,,,,,,,,,,,,,,,,,,,,,,,,,,,,,,,,,,,,,,,,,,,78.0,78.0,133.0,57.0,57.0,133.0,2.1,2.12,-164,-283,0,-272,191,260,64.18752074241638,64.18759632110596,64.19087433815002,64.20200896263123,64.35271787643433,64.35271787643433,64.35271787643433,64.35271787643433,64.35271787643433,64.35271787643433,64.35271787643433,65.5752215385437,2,1.3577070236206055,None,,,,,,,,,,,,,,,,,,130,4,2025-02-26_13h02.44.831,comp,2024.2.4,57.856538873769054,2025-02-26 13h02.51.040816 -0500,
21,21,0,critical,hwd,20.0,2.1,lower,133.0,57.0,57.0,133.0,78.0,78.0,1,1.3205382823944092,None,,,,,0,0,0,0,0,21,21,42,65.59112906455994,,,,,,,,,,,,,,,,,,,,,,,,,,,,,,,,,,,,,,,,,,,,,,,,,,,,,,,,,,,,,,,,,,,,,,,,,,,,,,,,,133.0,57.0,57.0,133.0,78.0,78.0,2.1,2.11,-191,251,0,274,202,-255,65.57683420181274,65.57691097259521,65.57989287376404,65.59112906455994,65.73637413978577,65.73637413978577,65.73637413978577,65.73637413978577,65.73637413978577,65.73637413978577,65.73637413978577,66.92148423194885,1,1.3205382823944092,None,,,,,,,,,,,,,,,,,,130,4,2025-02-26_13h02.44.831,comp,2024.2.4,57.856538873769054,2025-02-26 13h02.51.040816 -0500,
22,22,0,critical,dhw,20.0,1.0,upper,141.0,141.0,200.0,125.0,125.0,200.0,2,1.0695724487304688,None,,,,,0,0,0,0,0,22,22,55,66.93747401237488,,,,,,,,,,,,,,,,,,,,,,,,,,,,,,,,,,,,,,,,,,,,,,,,,,,,,,,,,,,,,,,,,,,,,,,,,,,,,,,,,141.0,141.0,200.0,125.0,125.0,200.0,1.0,1.2,-229,-15,0,-14,258,-8,66.92302894592285,66.92310762405396,66.92661213874817,66.93747401237488,67.0940089225769,67.0940089225769,67.0940089225769,67.0940089225769,67.0940089225769,67.0940089225769,67.0940089225769,68.01254081726074,2,1.0695724487304688,None,,,,,,,,,,,,,,,,,,130,4,2025-02-26_13h02.44.831,comp,2024.2.4,57.856538873769054,2025-02-26 13h02.51.040816 -0500,
23,23,0,critical,whd,20.0,3.0,lower,57.0,133.0,133.0,57.0,78.0,78.0,1,1.513671875,None,,,,,0,0,0,0,0,23,23,92,68.03082537651062,,,,,,,,,,,,,,,,,,,,,,,,,,,,,,,,,,,,,,,,,,,,,,,,,,,,,,,,,,,,,,,,,,,,,,,,,,,,,,,,,57.0,133.0,133.0,57.0,78.0,78.0,3.0,3.1,-191,286,0,-16,164,-266,68.01409935951233,68.01417946815491,68.01755905151367,68.03082537651062,68.1708779335022,68.1708779335022,68.1708779335022,68.1708779335022,68.1708779335022,68.1708779335022,68.1708779335022,69.55493497848511,1,1.513671875,None,,,,,,,,,,,,,,,,,,130,4,2025-02-26_13h02.44.831,comp,2024.2.4,57.856538873769054,2025-02-26 13h02.51.040816 -0500,
24,24,0,critical,whd,35.0,1.0,upper,125.0,200.0,200.0,125.0,127.0,127.0,2,1.3262429237365723,None,,,,,0,0,0,0,0,24,24,85,69.57096934318542,,,,,,,,,,,,,,,,,,,,,,,,,,,,,,,,,,,,,,,,,,,,,,,,,,,,,,,,,,,,,,,,,,,,,,,,,,,,,,,,,125.0,200.0,200.0,125.0,127.0,127.0,1.0,1.3,222,-285,480,-272,702,-251,69.55654406547546,69.55662250518799,69.56003403663635,69.57096934318542,69.7210202217102,69.7210202217102,69.7210202217102,69.7210202217102,69.7210202217102,69.7210202217102,69.7210202217102,70.90780091285706,2,1.3262429237365723,None,,,,,,,,,,,,,,,,,,130,4,2025-02-26_13h02.44.831,comp,2024.2.4,57.856538873769054,2025-02-26 13h02.51.040816 -0500,
25,25,0,filler_random,None,None,None,None,None,None,None,None,None,None,3,1.1234066486358643,None,,,,,0,0,0,0,0,25,25,156,70.92398881912231,,,,,,,,,,,,,,,,,,,,,,,,,,,,,,,,,,,,,,,,,,,,,,,,,,,,,,,,,,,,,,,,,,,,,,,,,,,,,,,,,183.17715818970115,141.37417856444893,57.88743573085648,90.42186746888143,145.09162060118678,190.09220663931526,4.0,4.2,-212,-1,0,-272,236,0,70.9097580909729,70.90983581542969,70.91312837600708,70.92398881912231,71.07144117355347,71.07144117355347,71.07144117355347,71.07144117355347,71.07144117355347,71.07144117355347,71.07144117355347,72.04978394508362,3,1.1234066486358643,None,,,,,,,,,,,,,,,,,,130,4,2025-02-26_13h02.44.831,comp,2024.2.4,57.856538873769054,2025-02-26 13h02.51.040816 -0500,
26,26,0,filler_square,None,None,None,None,None,None,None,None,None,None,3,1.180467128753662,None,,,,,0,0,0,0,0,26,26,185,72.06625461578369,,,,,,,,,,,,,,,,,,,,,,,,,,,,,,,,,,,,,,,,,,,,,,,,,,,,,,,,,,,,,,,,,,,,,,,,,,,,,,,,,102.48824963527147,123.07575905704967,127.62915537146218,143.62677785832017,154.088819982773,154.088819982773,2.1,2.12,-229,-254,0,-253,245,279,72.05166816711426,72.051748752594,72.05510306358337,72.06625461578369,72.20400929450989,72.20400929450989,72.20400929450989,72.20400929450989,72.20400929450989,72.20400929450989,72.20400929450989,73.25610160827637,3,1.180467128753662,None,,,,,,,,,,,,,,,,,,130,4,2025-02-26_13h02.44.831,comp,2024.2.4,57.856538873769054,2025-02-26 13h02.51.040816 -0500,
27,27,0,filler_square,None,None,None,None,None,None,None,None,None,None,3,1.1110267639160156,None,,,,,0,0,0,0,0,27,27,181,73.27262020111084,,,,,,,,,,,,,,,,,,,,,,,,,,,,,,,,,,,,,,,,,,,,,,,,,,,,,,,,,,,,,,,,,,,,,,,,,,,,,,,,,80.95244686730939,145.53920707433076,143.82642715655066,142.9675444359048,184.85838208267631,184.85838208267631,2.1,2.11,-240,276,0,262,260,-271,73.2579288482666,73.25800681114197,73.26163816452026,73.27262020111084,73.41046667098999,73.41046667098999,73.41046667098999,73.41046667098999,73.41046667098999,73.41046667098999,73.41046667098999,74.38889336585999,3,1.1110267639160156,None,,,,,,,,,,,,,,,,,,130,4,2025-02-26_13h02.44.831,comp,2024.2.4,57.856538873769054,2025-02-26 13h02.51.040816 -0500,
28,28,0,critical,whd,20.0,2.1,upper,125.0,200.0,200.0,125.0,141.0,141.0,1,1.3375005722045898,None,,,,,0,0,0,0,0,28,28,15,74.40537738800049,,,,,,,,,,,,,,,,,,,,,,,,,,,,,,,,,,,,,,,,,,,,,,,,,,,,,,,,,,,,,,,,,,,,,,,,,,,,,,,,,125.0,200.0,200.0,125.0,141.0,141.0,2.1,2.12,-258,-266,0,-285,229,265,74.39046740531921,74.39054489135742,74.39381384849548,74.40537738800049,74.5570764541626,74.5570764541626,74.5570764541626,74.5570764541626,74.5570764541626,74.5570764541626,74.5570764541626,75.75653290748596,1,1.3375005722045898,None,,,,,,,,,,,,,,,,,,130,4,2025-02-26_13h02.44.831,comp,2024.2.4,57.856538873769054,2025-02-26 13h02.51.040816 -0500,
29,29,0,critical,hwd,20.0,2.1,upper,200.0,125.0,125.0,200.0,141.0,141.0,2,1.1492528915405273,None,,,,,0,0,0,0,0,29,29,43,75.77178025245667,,,,,,,,,,,,,,,,,,,,,,,,,,,,,,,,,,,,,,,,,,,,,,,,,,,,,,,,,,,,,,,,,,,,,,,,,,,,,,,,,200.0,125.0,125.0,200.0,141.0,141.0,2.1,2.12,-258,-272,0,-269,266,259,75.75812578201294,75.75821685791016,75.7615418434143,75.77178025245667,75.92995500564575,75.92995500564575,75.92995500564575,75.92995500564575,75.92995500564575,75.92995500564575,75.92995500564575,76.93990635871887,2,1.1492528915405273,None,,,,,,,,,,,,,,,,,,130,4,2025-02-26_13h02.44.831,comp,2024.2.4,57.856538873769054,2025-02-26 13h02.51.040816 -0500,
30,30,0,critical,dwh,35.0,2.1,upper,127.0,127.0,125.0,200.0,200.0,125.0,2,1.8586359024047852,None,,,,,0,0,0,0,0,30,30,5,76.95613169670105,,,,,,,,,,,,,,,,,,,,,,,,,,,,,,,,,,,,,,,,,,,,,,,,,,,,,,,,,,,,,,,,,,,,,,,,,,,,,,,,,127.0,127.0,125.0,200.0,200.0,125.0,2.1,2.11,-260,288,0,289,258,-254,76.9414610862732,76.94153618812561,76.9447066783905,76.95613169670105,77.10975527763367,77.10975527763367,77.10975527763367,77.10975527763367,77.10975527763367,77.10975527763367,77.10975527763367,78.82425808906555,2,1.8586359024047852,None,,,,,,,,,,,,,,,,,,130,4,2025-02-26_13h02.44.831,comp,2024.2.4,57.856538873769054,2025-02-26 13h02.51.040816 -0500,
31,31,0,critical,hwd,20.0,3.0,upper,200.0,125.0,125.0,200.0,141.0,141.0,2,0.8061928749084473,None,,,,,0,0,0,0,0,31,31,105,78.84054017066956,,,,,,,,,,,,,,,,,,,,,,,,,,,,,,,,,,,,,,,,,,,,,,,,,,,,,,,,,,,,,,,,,,,,,,,,,,,,,,,,,200.0,125.0,125.0,200.0,141.0,141.0,3.0,3.1,-258,285,0,17,266,-260,78.82584404945374,78.82592487335205,78.82954573631287,78.84054017066956,78.98074221611023,78.98074221611023,78.98074221611023,78.98074221611023,78.98074221611023,78.98074221611023,78.98074221611023,79.65648603439331,2,0.8061928749084473,None,,,,,,,,,,,,,,,,,,130,4,2025-02-26_13h02.44.831,comp,2024.2.4,57.856538873769054,2025-02-26 13h02.51.040816 -0500,
32,32,0,filler_random,None,None,None,None,None,None,None,None,None,None,1,1.0865497589111328,None,,,,,0,0,0,0,0,32,32,168,79.67267203330994,,,,,,,,,,,,,,,,,,,,,,,,,,,,,,,,,,,,,,,,,,,,,,,,,,,,,,,,,,,,,,,,,,,,,,,,,,,,,,,,,99.19716688850383,199.02548061074012,140.65990917574516,59.3196776635254,91.03557234678921,190.75008819591724,1.0,1.3,255,-266,480,-272,701,-257,79.65830659866333,79.6584198474884,79.66170525550842,79.67267203330994,79.81482648849487,79.81482648849487,79.81482648849487,79.81482648849487,79.81482648849487,79.81482648849487,79.81482648849487,80.77725267410278,1,1.0865497589111328,None,,,,,,,,,,,,,,,,,,130,4,2025-02-26_13h02.44.831,comp,2024.2.4,57.856538873769054,2025-02-26 13h02.51.040816 -0500,
33,33,0,critical,dwh,35.0,4.0,lower,70.0,70.0,57.0,133.0,133.0,57.0,2,1.006026268005371,None,,,,,0,0,0,0,0,33,33,64,80.79340553283691,,,,,,,,,,,,,,,,,,,,,,,,,,,,,,,,,,,,,,,,,,,,,,,,,,,,,,,,,,,,,,,,,,,,,,,,,,,,,,,,,70.0,70.0,57.0,133.0,133.0,57.0,4.0,4.1,-198,-265,0,-10,191,-287,80.77911353111267,80.77923607826233,80.78304362297058,80.79340553283691,80.94126462936401,80.94126462936401,80.94126462936401,80.94126462936401,80.94126462936401,80.94126462936401,80.94126462936401,81.81076979637146,2,1.006026268005371,None,,,,,,,,,,,,,,,,,,130,4,2025-02-26_13h02.44.831,comp,2024.2.4,57.856538873769054,2025-02-26 13h02.51.040816 -0500,
34,34,0,filler_random,None,None,None,None,None,None,None,None,None,None,3,0.9953131675720215,None,,,,,0,0,0,0,0,34,34,167,81.82740783691406,,,,,,,,,,,,,,,,,,,,,,,,,,,,,,,,,,,,,,,,,,,,,,,,,,,,,,,,,,,,,,,,,,,,,,,,,,,,,,,,,130.05569805358806,120.36409790620922,107.78995948947646,69.27286199498909,164.63473332010545,164.0514617210404,3.0,3.2,-191,-272,0,5,213,255,81.8126847743988,81.81276321411133,81.81668019294739,81.82740783691406,81.97514820098877,81.97514820098877,81.97514820098877,81.97514820098877,81.97514820098877,81.97514820098877,81.97514820098877,82.82578611373901,3,0.9953131675720215,None,,,,,,,,,,,,,,,,,,130,4,2025-02-26_13h02.44.831,comp,2024.2.4,57.856538873769054,2025-02-26 13h02.51.040816 -0500,
35,35,0,critical,whd,35.0,4.0,upper,125.0,200.0,200.0,125.0,127.0,127.0,1,0.852250337600708,None,,,,,0,0,0,0,0,35,35,89,82.8425235748291,,,,,,,,,,,,,,,,,,,,,,,,,,,,,,,,,,,,,,,,,,,,,,,,,,,,,,,,,,,,,,,,,,,,,,,,,,,,,,,,,125.0,200.0,200.0,125.0,127.0,127.0,4.0,4.2,-258,-4,0,-276,222,-18,82.82741975784302,82.82754945755005,82.83108830451965,82.8425235748291,82.99759531021118,82.99759531021118,82.99759531021118,82.99759531021118,82.99759531021118,82.99759531021118,82.99759531021118,83.70875668525696,1,0.852250337600708,None,,,,,,,,,,,,,,,,,,130,4,2025-02-26_13h02.44.831,comp,2024.2.4,57.856538873769054,2025-02-26 13h02.51.040816 -0500,
36,36,0,critical,hdw,20.0,3.0,lower,133.0,57.0,78.0,78.0,57.0,133.0,3,1.306901454925537,None,,,,,0,0,0,0,0,36,36,116,83.72455883026123,,,,,,,,,,,,,,,,,,,,,,,,,,,,,,,,,,,,,,,,,,,,,,,,,,,,,,,,,,,,,,,,,,,,,,,,,,,,,,,,,133.0,57.0,78.0,78.0,57.0,133.0,3.0,3.1,-164,254,0,-7,202,-285,83.71039271354675,83.71050000190735,83.71396708488464,83.72455883026123,83.87238073348999,83.87238073348999,83.87238073348999,83.87238073348999,83.87238073348999,83.87238073348999,83.87238073348999,85.04312014579773,3,1.306901454925537,None,,,,,,,,,,,,,,,,,,130,4,2025-02-26_13h02.44.831,comp,2024.2.4,57.856538873769054,2025-02-26 13h02.51.040816 -0500,
37,37,0,critical,dwh,35.0,2.1,lower,70.0,70.0,57.0,133.0,133.0,57.0,2,1.043588399887085,None,,,,,0,0,0,0,0,37,37,4,85.0597894191742,,,,,,,,,,,,,,,,,,,,,,,,,,,,,,,,,,,,,,,,,,,,,,,,,,,,,,,,,,,,,,,,,,,,,,,,,,,,,,,,,70.0,70.0,57.0,133.0,133.0,57.0,2.1,2.11,-198,280,0,262,191,-279,85.04468441009521,85.04476404190063,85.04891633987427,85.0597894191742,85.20957350730896,85.20957350730896,85.20957350730896,85.20957350730896,85.20957350730896,85.20957350730896,85.20957350730896,86.11170077323914,2,1.043588399887085,None,,,,,,,,,,,,,,,,,,130,4,2025-02-26_13h02.44.831,comp,2024.2.4,57.856538873769054,2025-02-26 13h02.51.040816 -0500,
38,38,0,critical,wdh,35.0,1.0,lower,57.0,133.0,70.0,70.0,133.0,57.0,1,1.069471836090088,None,,,,,0,0,0,0,0,38,38,72,86.12935996055603,,,,,,,,,,,,,,,,,,,,,,,,,,,,,,,,,,,,,,,,,,,,,,,,,,,,,,,,,,,,,,,,,,,,,,,,,,,,,,,,,57.0,133.0,70.0,70.0,133.0,57.0,1.0,1.1,-678,262,-480,278,-320,257,86.11320066452026,86.11330842971802,86.11633443832397,86.12935996055603,86.27573466300964,86.27573466300964,86.27573466300964,86.27573466300964,86.27573466300964,86.27573466300964,86.27573466300964,87.21191716194153,1,1.069471836090088,None,,,,,,,,,,,,,,,,,,130,4,2025-02-26_13h02.44.831,comp,2024.2.4,57.856538873769054,2025-02-26 13h02.51.040816 -0500,
39,39,0,critical,dhw,20.0,3.0,lower,78.0,78.0,133.0,57.0,57.0,133.0,2,0.9080085754394531,None,,,,,0,0,0,0,0,39,39,56,87.22778463363647,,,,,,,,,,,,,,,,,,,,,,,,,,,,,,,,,,,,,,,,,,,,,,,,,,,,,,,,,,,,,,,,,,,,,,,,,,,,,,,,,78.0,78.0,133.0,57.0,57.0,133.0,3.0,3.2,-164,-288,0,2,191,269,87.21346521377563,87.2135636806488,87.21675252914429,87.22778463363647,87.38180041313171,87.38180041313171,87.38180041313171,87.38180041313171,87.38180041313171,87.38180041313171,87.38180041313171,88.14443588256836,2,0.9080085754394531,None,,,,,,,,,,,,,,,,,,130,4,2025-02-26_13h02.44.831,comp,2024.2.4,57.856538873769054,2025-02-26 13h02.51.040816 -0500,
40,40,0,filler_square,None,None,None,None,None,None,None,None,None,None,1,0.8266620635986328,None,,,,,0,0,0,0,0,40,40,205,88.1641275882721,,,,,,,,,,,,,,,,,,,,,,,,,,,,,,,,,,,,,,,,,,,,,,,,,,,,,,,,,,,,,,,,,,,,,,,,,,,,,,,,,133.14975484866545,133.14975484866545,85.84067809214643,64.07857836292033,65.30752329928704,72.14348143299509,4.0,4.2,-195,13,0,-277,164,4,88.14646816253662,88.14654874801636,88.15011787414551,88.1641275882721,88.31313037872314,88.31313037872314,88.31313037872314,88.31313037872314,88.31313037872314,88.31313037872314,88.31313037872314,88.99469923973083,1,0.8266620635986328,None,,,,,,,,,,,,,,,,,,130,4,2025-02-26_13h02.44.831,comp,2024.2.4,57.856538873769054,2025-02-26 13h02.51.040816 -0500,
41,41,0,catch,None,None,None,None,None,None,None,None,None,None,3,1.068566083908081,None,,,,,0,0,0,0,0,41,41,121,89.01076149940491,,,,,,,,,,,,,,,,,,,,,,,,,,,,,,,,,,,,,,,,,,,,,,,,,,,,,,,,,,,,,,,,,,,,,,,,,,,,,,,,,80,110,58,132,182,143,1.0,1.2,-217,11,0,14,234,12,88.9965603351593,88.99663782119751,89.00007271766663,89.01076149940491,89.15937209129333,89.15937209129333,89.15937209129333,89.15937209129333,89.15937209129333,89.15937209129333,89.15937209129333,90.0969488620758,3,1.068566083908081,None,,,,,,,,,,,,,,,,,,130,4,2025-02-26_13h02.44.831,comp,2024.2.4,57.856538873769054,2025-02-26 13h02.51.040816 -0500,
42,42,0,critical,dwh,35.0,4.0,upper,127.0,127.0,125.0,200.0,200.0,125.0,2,0.9252798557281494,None,,,,,0,0,0,0,0,42,42,65,90.11350178718567,,,,,,,,,,,,,,,,,,,,,,,,,,,,,,,,,,,,,,,,,,,,,,,,,,,,,,,,,,,,,,,,,,,,,,,,,,,,,,,,,127.0,127.0,125.0,200.0,200.0,125.0,4.0,4.1,-260,-285,0,-13,258,-260,90.0987069606781,90.09878706932068,90.1021683216095,90.11350178718567,90.26037812232971,90.26037812232971,90.26037812232971,90.26037812232971,90.26037812232971,90.26037812232971,90.26037812232971,91.05540180206299,2,0.9252798557281494,None,,,,,,,,,,,,,,,,,,130,4,2025-02-26_13h02.44.831,comp,2024.2.4,57.856538873769054,2025-02-26 13h02.51.040816 -0500,
43,43,0,critical,whd,20.0,3.0,upper,125.0,200.0,200.0,125.0,141.0,141.0,2,0.8141312599182129,None,,,,,0,0,0,0,0,43,43,93,91.07353496551514,,,,,,,,,,,,,,,,,,,,,,,,,,,,,,,,,,,,,,,,,,,,,,,,,,,,,,,,,,,,,,,,,,,,,,,,,,,,,,,,,125.0,200.0,200.0,125.0,141.0,141.0,3.0,3.1,-258,270,0,2,229,-261,91.05699753761292,91.05710935592651,91.06053233146667,91.07353496551514,91.20877814292908,91.20877814292908,91.20877814292908,91.20877814292908,91.20877814292908,91.20877814292908,91.20877814292908,91.89616084098816,2,0.8141312599182129,None,,,,,,,,,,,,,,,,,,130,4,2025-02-26_13h02.44.831,comp,2024.2.4,57.856538873769054,2025-02-26 13h02.51.040816 -0500,
44,44,0,critical,wdh,35.0,4.0,upper,125.0,200.0,127.0,127.0,200.0,125.0,1,0.9112396240234375,None,,,,,0,0,0,0,0,44,44,77,91.91207718849182,,,,,,,,,,,,,,,,,,,,,,,,,,,,,,,,,,,,,,,,,,,,,,,,,,,,,,,,,,,,,,,,,,,,,,,,,,,,,,,,,125.0,200.0,127.0,127.0,200.0,125.0,4.0,4.1,-260,-270,0,6,222,-260,91.89768695831299,91.89776563644409,91.90118074417114,91.91207718849182,92.06091690063477,92.06091690063477,92.06091690063477,92.06091690063477,92.06091690063477,92.06091690063477,92.06091690063477,92.83132863044739,1,0.9112396240234375,None,,,,,,,,,,,,,,,,,,130,4,2025-02-26_13h02.44.831,comp,2024.2.4,57.856538873769054,2025-02-26 13h02.51.040816 -0500,
45,45,0,critical,hwd,35.0,2.1,upper,200.0,125.0,125.0,200.0,127.0,127.0,3,0.9759271144866943,None,,,,,0,0,0,0,0,45,45,17,92.84750127792358,,,,,,,,,,,,,,,,,,,,,,,,,,,,,,,,,,,,,,,,,,,,,,,,,,,,,,,,,,,,,,,,,,,,,,,,,,,,,,,,,200.0,125.0,125.0,200.0,127.0,127.0,2.1,2.11,-258,260,0,268,260,-270,92.8328902721405,92.83296871185303,92.83606100082397,92.84750127792358,92.99789452552795,92.99789452552795,92.99789452552795,92.99789452552795,92.99789452552795,92.99789452552795,92.99789452552795,93.83548521995544,3,0.9759271144866943,None,,,,,,,,,,,,,,,,,,130,4,2025-02-26_13h02.44.831,comp,2024.2.4,57.856538873769054,2025-02-26 13h02.51.040816 -0500,
46,46,0,filler_random,None,None,None,None,None,None,None,None,None,None,1,1.1172399520874023,None,,,,,0,0,0,0,0,46,46,134,93.85133028030396,,,,,,,,,,,,,,,,,,,,,,,,,,,,,,,,,,,,,,,,,,,,,,,,,,,,,,,,,,,,,,,,,,,,,,,,,,,,,,,,,186.0786412677826,175.86028360453275,130.44743099224445,68.69765221521617,158.64924535502945,121.79977226214227,2.1,2.12,-218,-250,0,-274,191,257,93.83740663528442,93.83751559257507,93.84088587760925,93.85133028030396,94.00077986717224,94.00077986717224,94.00077986717224,94.00077986717224,94.00077986717224,94.00077986717224,94.00077986717224,94.97980260848999,1,1.1172399520874023,None,,,,,,,,,,,,,,,,,,130,4,2025-02-26_13h02.44.831,comp,2024.2.4,57.856538873769054,2025-02-26 13h02.51.040816 -0500,
47,47,0,filler_square,None,None,None,None,None,None,None,None,None,None,1,0.9628534317016602,None,,,,,0,0,0,0,0,47,47,189,94.99638748168945,,,,,,,,,,,,,,,,,,,,,,,,,,,,,,,,,,,,,,,,,,,,,,,,,,,,,,,,,,,,,,,,,,,,,,,,,,,,,,,,,186.37474411040404,186.37474411040404,57.47710836934942,67.79213427246056,157.4703823252632,154.8747941889995,1.0,1.3,257,-275,480,-252,687,-255,94.98188757896423,94.98196530342102,94.98546576499939,94.99638748168945,95.14356446266174,95.14356446266174,95.14356446266174,95.14356446266174,95.14356446266174,95.14356446266174,95.14356446266174,95.97911190986633,1,0.9628534317016602,None,,,,,,,,,,,,,,,,,,130,4,2025-02-26_13h02.44.831,comp,2024.2.4,57.856538873769054,2025-02-26 13h02.51.040816 -0500,
48,48,0,filler_square,None,None,None,None,None,None,None,None,None,None,2,0.9804174900054932,None,,,,,0,0,0,0,0,48,48,173,95.99508833885193,,,,,,,,,,,,,,,,,,,,,,,,,,,,,,,,,,,,,,,,,,,,,,,,,,,,,,,,,,,,,,,,,,,,,,,,,,,,,,,,,170.81063433100132,173.86678728422038,182.22485491766926,182.22485491766926,58.74206988232504,134.29576667435424,3.0,3.1,-274,289,0,-2,254,-260,95.981116771698,95.98119139671326,95.98440217971802,95.99508833885193,96.14639782905579,96.14639782905579,96.14639782905579,96.14639782905579,96.14639782905579,96.14639782905579,96.14639782905579,96.98150300979614,2,0.9804174900054932,None,,,,,,,,,,,,,,,,,,130,4,2025-02-26_13h02.44.831,comp,2024.2.4,57.856538873769054,2025-02-26 13h02.51.040816 -0500,
49,49,0,filler_random,None,None,None,None,None,None,None,None,None,None,3,1.0687239170074463,None,,,,,0,0,0,0,0,49,49,139,97.00278735160828,,,,,,,,,,,,,,,,,,,,,,,,,,,,,,,,,,,,,,,,,,,,,,,,,,,,,,,,,,,,,,,,,,,,,,,,,,,,,,,,,138.26133753945783,107.7081981320932,111.07104432950413,117.53072464292993,170.93831500757744,174.69514914194733,4.0,4.1,-209,-267,0,13,242,-280,96.98339700698853,96.98347425460815,96.98711943626404,97.00278735160828,97.14646434783936,97.14646434783936,97.14646434783936,97.14646434783936,97.14646434783936,97.14646434783936,97.14646434783936,98.07940244674683,3,1.0687239170074463,None,,,,,,,,,,,,,,,,,,130,4,2025-02-26_13h02.44.831,comp,2024.2.4,57.856538873769054,2025-02-26 13h02.51.040816 -0500,
50,50,0,filler_square,None,None,None,None,None,None,None,None,None,None,1,0.9738104343414307,None,,,,,0,0,0,0,0,50,50,203,98.09699535369873,,,,,,,,,,,,,,,,,,,,,,,,,,,,,,,,,,,,,,,,,,,,,,,,,,,,,,,,,,,,,,,,,,,,,,,,,,,,,,,,,122.59365660963329,122.59365660963329,68.25392302683369,108.482062024808,99.49803769483482,94.4042096706945,4.0,4.1,-212,-258,0,-4,197,-259,98.08122420310974,98.0813307762146,98.0852518081665,98.09699535369873,98.24537777900696,98.24537777900696,98.24537777900696,98.24537777900696,98.24537777900696,98.24537777900696,98.24537777900696,99.08512687683105,1,0.9738104343414307,None,,,,,,,,,,,,,,,,,,130,4,2025-02-26_13h02.44.831,comp,2024.2.4,57.856538873769054,2025-02-26 13h02.51.040816 -0500,
51,51,0,critical,hwd,20.0,1.0,upper,200.0,125.0,125.0,200.0,141.0,141.0,1,1.3395135402679443,None,,,,,0,0,0,0,0,51,51,103,99.10254979133606,,,,,,,,,,,,,,,,,,,,,,,,,,,,,,,,,,,,,,,,,,,,,,,,,,,,,,,,,,,,,,,,,,,,,,,,,,,,,,,,,200.0,125.0,125.0,200.0,141.0,141.0,1.0,1.3,222,-289,480,-285,746,-253,99.08666253089905,99.08673667907715,99.08964371681213,99.10254979133606,99.24743723869324,99.24743723869324,99.24743723869324,99.24743723869324,99.24743723869324,99.24743723869324,99.24743723869324,100.44717526435852,1,1.3395135402679443,None,,,,,,,,,,,,,,,,,,130,4,2025-02-26_13h02.44.831,comp,2024.2.4,57.856538873769054,2025-02-26 13h02.51.040816 -0500,
52,52,0,critical,wdh,35.0,3.0,lower,57.0,133.0,70.0,70.0,133.0,57.0,3,1.3190548419952393,None,,,,,0,0,0,0,0,52,52,74,100.46371483802795,,,,,,,,,,,,,,,,,,,,,,,,,,,,,,,,,,,,,,,,,,,,,,,,,,,,,,,,,,,,,,,,,,,,,,,,,,,,,,,,,57.0,133.0,70.0,70.0,133.0,57.0,3.0,3.1,-198,256,0,0,160,-273,100.44869542121887,100.44877457618713,100.45203828811646,100.46371483802795,100.61781430244446,100.61781430244446,100.61781430244446,100.61781430244446,100.61781430244446,100.61781430244446,100.61781430244446,101.79658651351929,3,1.3190548419952393,None,,,,,,,,,,,,,,,,,,130,4,2025-02-26_13h02.44.831,comp,2024.2.4,57.856538873769054,2025-02-26 13h02.51.040816 -0500,
53,53,0,filler_random,None,None,None,None,None,None,None,None,None,None,1,1.226027250289917,None,,,,,0,0,0,0,0,53,53,140,101.81278657913208,,,,,,,,,,,,,,,,,,,,,,,,,,,,,,,,,,,,,,,,,,,,,,,,,,,,,,,,,,,,,,,,,,,,,,,,,,,,,,,,,136.38346054996327,167.41443631463494,125.80249753028204,152.95724369832902,166.71621185139358,113.1026032375089,2.2,2.22,-256,263,0,-275,229,-277,101.7984459400177,101.79854393005371,101.80182814598083,101.81278657913208,101.96451425552368,101.96451425552368,101.96451425552368,101.96451425552368,101.96451425552368,101.96451425552368,101.96451425552368,103.0570592880249,1,1.226027250289917,None,,,,,,,,,,,,,,,,,,130,4,2025-02-26_13h02.44.831,comp,2024.2.4,57.856538873769054,2025-02-26 13h02.51.040816 -0500,
54,54,0,catch,None,None,None,None,None,None,None,None,None,None,1,1.0206127166748047,None,,,,,0,0,0,0,0,54,54,120,103.0747799873352,,,,,,,,,,,,,,,,,,,,,,,,,,,,,,,,,,,,,,,,,,,,,,,,,,,,,,,,,,,,,,,,,,,,,,,,,,,,,,,,,162,163,69,121,82,108,2.1,2.12,-238,-272,0,-263,210,287,103.05901098251343,103.05908823013306,103.06199955940247,103.0747799873352,103.21600484848022,103.21600484848022,103.21600484848022,103.21600484848022,103.21600484848022,103.21600484848022,103.21600484848022,104.10052061080933,1,1.0206127166748047,None,,,,,,,,,,,,,,,,,,130,4,2025-02-26_13h02.44.831,comp,2024.2.4,57.856538873769054,2025-02-26 13h02.51.040816 -0500,
55,55,0,filler_random,None,None,None,None,None,None,None,None,None,None,1,0.8744397163391113,None,,,,,0,0,0,0,0,55,55,144,104.117192029953,,,,,,,,,,,,,,,,,,,,,,,,,,,,,,,,,,,,,,,,,,,,,,,,,,,,,,,,,,,,,,,,,,,,,,,,,,,,,,,,,131.76573040103946,194.67173647834798,106.2502237860886,88.04106725207163,69.26222639070959,150.59741088064584,1.0,1.1,-717,281,-480,268,-265,272,104.10244560241699,104.10252928733826,104.10614848136902,104.117192029953,104.26525902748108,104.26525902748108,104.26525902748108,104.26525902748108,104.26525902748108,104.26525902748108,104.26525902748108,105.00098538398743,1,0.8744397163391113,None,,,,,,,,,,,,,,,,,,130,4,2025-02-26_13h02.44.831,comp,2024.2.4,57.856538873769054,2025-02-26 13h02.51.040816 -0500,
56,56,0,critical,dhw,35.0,3.0,lower,70.0,70.0,133.0,57.0,57.0,133.0,3,1.1771492958068848,None,,,,,0,0,0,0,0,56,56,50,105.01742839813232,,,,,,,,,,,,,,,,,,,,,,,,,,,,,,,,,,,,,,,,,,,,,,,,,,,,,,,,,,,,,,,,,,,,,,,,,,,,,,,,,70.0,70.0,133.0,57.0,57.0,133.0,3.0,3.1,-160,259,0,15,191,-264,105.0026695728302,105.00274848937988,105.00668692588806,105.01742839813232,105.16802501678467,105.16802501678467,105.16802501678467,105.16802501678467,105.16802501678467,105.16802501678467,105.16802501678467,106.19766616821289,3,1.1771492958068848,None,,,,,,,,,,,,,,,,,,130,4,2025-02-26_13h02.44.831,comp,2024.2.4,57.856538873769054,2025-02-26 13h02.51.040816 -0500,
57,57,0,catch,None,None,None,None,None,None,None,None,None,None,3,1.1609885692596436,None,,,,,0,0,0,0,0,57,57,129,106.2144033908844,,,,,,,,,,,,,,,,,,,,,,,,,,,,,,,,,,,,,,,,,,,,,,,,,,,,,,,,,,,,,,,,,,,,,,,,,,,,,,,,,73,117,117,73,196,129,2.1,2.11,-191,288,0,276,197,-283,106.19953608512878,106.19961547851562,106.20256876945496,106.2144033908844,106.35023474693298,106.35023474693298,106.35023474693298,106.35023474693298,106.35023474693298,106.35023474693298,106.35023474693298,107.3862714767456,3,1.1609885692596436,None,,,,,,,,,,,,,,,,,,130,4,2025-02-26_13h02.44.831,comp,2024.2.4,57.856538873769054,2025-02-26 13h02.51.040816 -0500,
58,58,0,filler_square,None,None,None,None,None,None,None,None,None,None,2,1.3754315376281738,None,,,,,0,0,0,0,0,58,58,197,107.40772438049316,,,,,,,,,,,,,,,,,,,,,,,,,,,,,,,,,,,,,,,,,,,,,,,,,,,,,,,,,,,,,,,,,,,,,,,,,,,,,,,,,77.02282183333962,77.02282183333962,76.13920553193714,68.93145137454914,62.35756903585628,59.47528527394518,2.2,2.22,-169,272,0,-273,160,-267,107.38845753669739,107.38854241371155,107.3919129371643,107.40772438049316,107.55044984817505,107.55044984817505,107.55044984817505,107.55044984817505,107.55044984817505,107.55044984817505,107.55044984817505,108.80250000953674,2,1.3754315376281738,None,,,,,,,,,,,,,,,,,,130,4,2025-02-26_13h02.44.831,comp,2024.2.4,57.856538873769054,2025-02-26 13h02.51.040816 -0500,
59,59,0,filler_square,None,None,None,None,None,None,None,None,None,None,1,1.1083519458770752,None,,,,,0,0,0,0,0,59,59,175,108.81933808326721,,,,,,,,,,,,,,,,,,,,,,,,,,,,,,,,,,,,,,,,,,,,,,,,,,,,,,,,,,,,,,,,,,,,,,,,,,,,,,,,,134.2116348226795,134.2116348226795,119.30411459026126,123.82742458073048,99.10612270613395,122.97532190538162,1.0,1.1,-705,263,-480,278,-261,282,108.80456209182739,108.80464172363281,108.80802249908447,108.81933808326721,108.96704983711243,108.96704983711243,108.96704983711243,108.96704983711243,108.96704983711243,108.96704983711243,108.96704983711243,109.934490442276,1,1.1083519458770752,None,,,,,,,,,,,,,,,,,,130,4,2025-02-26_13h02.44.831,comp,2024.2.4,57.856538873769054,2025-02-26 13h02.51.040816 -0500,
60,60,0,filler_random,None,None,None,None,None,None,None,None,None,None,1,1.0563533306121826,None,,,,,0,0,0,0,0,60,60,151,109.95049333572388,,,,,,,,,,,,,,,,,,,,,,,,,,,,,,,,,,,,,,,,,,,,,,,,,,,,,,,,,,,,,,,,,,,,,,,,,,,,,,,,,191.6490746822737,157.84650610842942,127.37327020334907,175.1981324679104,174.6000729648713,177.59494448190182,2.1,2.11,-263,276,0,279,272,-259,109.93623638153076,109.93633794784546,109.9397521018982,109.95049333572388,110.0999014377594,110.0999014377594,110.0999014377594,110.0999014377594,110.0999014377594,110.0999014377594,110.0999014377594,111.01793479919434,1,1.0563533306121826,None,,,,,,,,,,,,,,,,,,130,4,2025-02-26_13h02.44.831,comp,2024.2.4,57.856538873769054,2025-02-26 13h02.51.040816 -0500,
61,61,0,critical,dhw,35.0,4.0,lower,70.0,70.0,133.0,57.0,57.0,133.0,3,1.315154790878296,None,,,,,0,0,0,0,0,61,61,52,111.03560090065002,,,,,,,,,,,,,,,,,,,,,,,,,,,,,,,,,,,,,,,,,,,,,,,,,,,,,,,,,,,,,,,,,,,,,,,,,,,,,,,,,70.0,70.0,133.0,57.0,57.0,133.0,4.0,4.1,-160,-277,0,-7,191,-267,111.01957440376282,111.01965284347534,111.0239360332489,111.03560090065002,111.18426132202148,111.18426132202148,111.18426132202148,111.18426132202148,111.18426132202148,111.18426132202148,111.18426132202148,112.36257791519165,3,1.315154790878296,None,,,,,,,,,,,,,,,,,,130,4,2025-02-26_13h02.44.831,comp,2024.2.4,57.856538873769054,2025-02-26 13h02.51.040816 -0500,
62,62,0,filler_square,None,None,None,None,None,None,None,None,None,None,3,1.0528647899627686,None,,,,,0,0,0,0,0,62,62,202,112.37898993492126,,,,,,,,,,,,,,,,,,,,,,,,,,,,,,,,,,,,,,,,,,,,,,,,,,,,,,,,,,,,,,,,,,,,,,,,,,,,,,,,,168.45385787921452,125.88999518817907,97.72812937146044,60.850460470529804,172.4984340820663,172.4984340820663,4.0,4.2,-189,-15,0,-287,213,18,112.36439371109009,112.36447191238403,112.3673939704895,112.37898993492126,112.51783919334412,112.51783919334412,112.51783919334412,112.51783919334412,112.51783919334412,112.51783919334412,112.51783919334412,113.44023394584656,3,1.0528647899627686,None,,,,,,,,,,,,,,,,,,130,4,2025-02-26_13h02.44.831,comp,2024.2.4,57.856538873769054,2025-02-26 13h02.51.040816 -0500,
63,63,0,catch,None,None,None,None,None,None,None,None,None,None,3,1.14204740524292,None,,,,,0,0,0,0,0,63,63,126,113.4572126865387,,,,,,,,,,,,,,,,,,,,,,,,,,,,,,,,,,,,,,,,,,,,,,,,,,,,,,,,,,,,,,,,,,,,,,,,,,,,,,,,,118,72,96,94,171,154,1.0,1.1,-659,253,-480,262,-260,253,113.44262218475342,113.4427535533905,113.4464213848114,113.4572126865387,113.6023428440094,113.6023428440094,113.6023428440094,113.6023428440094,113.6023428440094,113.6023428440094,113.6023428440094,114.60382604598999,3,1.14204740524292,None,,,,,,,,,,,,,,,,,,130,4,2025-02-26_13h02.44.831,comp,2024.2.4,57.856538873769054,2025-02-26 13h02.51.040816 -0500,
64,64,0,filler_random,None,None,None,None,None,None,None,None,None,None,1,1.0743658542633057,None,,,,,0,0,0,0,0,64,64,164,114.62051486968994,,,,,,,,,,,,,,,,,,,,,,,,,,,,,,,,,,,,,,,,,,,,,,,,,,,,,,,,,,,,,,,,,,,,,,,,,,,,,,,,,177.55041849546586,124.21135021234858,94.11933799076934,171.06291276790108,63.662656644481736,136.95623650505956,2.1,2.12,-244,-261,0,-284,250,284,114.60578799247742,114.60586643218994,114.60940718650818,114.62051486968994,114.7690954208374,114.7690954208374,114.7690954208374,114.7690954208374,114.7690954208374,114.7690954208374,114.7690954208374,115.7088770866394,1,1.0743658542633057,None,,,,,,,,,,,,,,,,,,130,4,2025-02-26_13h02.44.831,comp,2024.2.4,57.856538873769054,2025-02-26 13h02.51.040816 -0500,
65,65,0,filler_random,None,None,None,None,None,None,None,None,None,None,2,0.9871795177459717,None,,,,,0,0,0,0,0,65,65,147,115.72482466697693,,,,,,,,,,,,,,,,,,,,,,,,,,,,,,,,,,,,,,,,,,,,,,,,,,,,,,,,,,,,,,,,,,,,,,,,,,,,,,,,,71.4395702131999,101.62748685964615,185.1614248194392,194.13274125819706,121.78041818373266,95.24303864744664,2.2,2.21,-244,-263,0,265,241,269,115.71053171157837,115.71060633659363,115.71354484558105,115.72482466697693,115.86943578720093,115.86943578720093,115.86943578720093,115.86943578720093,115.86943578720093,115.86943578720093,115.86943578720093,116.72201895713806,2,0.9871795177459717,None,,,,,,,,,,,,,,,,,,130,4,2025-02-26_13h02.44.831,comp,2024.2.4,57.856538873769054,2025-02-26 13h02.51.040816 -0500,
66,66,0,filler_random,None,None,None,None,None,None,None,None,None,None,3,1.082174301147461,None,,,,,0,0,0,0,0,66,66,169,116.74076628684998,,,,,,,,,,,,,,,,,,,,,,,,,,,,,,,,,,,,,,,,,,,,,,,,,,,,,,,,,,,,,,,,,,,,,,,,,,,,,,,,,82.1775108508632,75.4821194368043,72.50876878929454,162.90216503032826,170.04503557544086,167.0747843670674,2.2,2.22,-215,284,0,-265,261,-253,116.72423696517944,116.72440123558044,116.72746992111206,116.74076628684998,116.88533568382263,116.88533568382263,116.88533568382263,116.88533568382263,116.88533568382263,116.88533568382263,116.88533568382263,117.836745262146,3,1.082174301147461,None,,,,,,,,,,,,,,,,,,130,4,2025-02-26_13h02.44.831,comp,2024.2.4,57.856538873769054,2025-02-26 13h02.51.040816 -0500,
67,67,0,filler_random,None,None,None,None,None,None,None,None,None,None,3,0.9949839115142822,None,,,,,0,0,0,0,0,67,67,142,117.85258936882019,,,,,,,,,,,,,,,,,,,,,,,,,,,,,,,,,,,,,,,,,,,,,,,,,,,,,,,,,,,,,,,,,,,,,,,,,,,,,,,,,85.8987855657688,80.10027884111963,75.35257630386813,128.8253161695031,82.54202077979083,148.61553146123993,1.0,1.2,-200,-1,0,-7,235,1,117.83832836151123,117.8384051322937,117.84225988388062,117.85258936882019,118.00167346000671,118.00167346000671,118.00167346000671,118.00167346000671,118.00167346000671,118.00167346000671,118.00167346000671,118.85272073745728,3,0.9949839115142822,None,,,,,,,,,,,,,,,,,,130,4,2025-02-26_13h02.44.831,comp,2024.2.4,57.856538873769054,2025-02-26 13h02.51.040816 -0500,
68,68,0,critical,hdw,20.0,1.0,upper,200.0,125.0,141.0,141.0,125.0,200.0,1,0.6901936531066895,None,,,,,0,0,0,0,0,68,68,115,118.8689866065979,,,,,,,,,,,,,,,,,,,,,,,,,,,,,,,,,,,,,,,,,,,,,,,,,,,,,,,,,,,,,,,,,,,,,,,,,,,,,,,,,200.0,125.0,141.0,141.0,125.0,200.0,1.0,1.2,-229,11,0,-7,266,-11,118.85420322418213,118.8542993068695,118.85753011703491,118.8689866065979,119.01932716369629,119.01932716369629,119.01932716369629,119.01932716369629,119.01932716369629,119.01932716369629,119.01932716369629,119.57251524925232,1,0.6901936531066895,None,,,,,,,,,,,,,,,,,,130,4,2025-02-26_13h02.44.831,comp,2024.2.4,57.856538873769054,2025-02-26 13h02.51.040816 -0500,
69,69,0,filler_square,None,None,None,None,None,None,None,None,None,None,1,1.0427143573760986,None,,,,,0,0,0,0,0,69,69,196,119.58892869949341,,,,,,,,,,,,,,,,,,,,,,,,,,,,,,,,,,,,,,,,,,,,,,,,,,,,,,,,,,,,,,,,,,,,,,,,,,,,,,,,,191.75501857509113,191.75501857509113,173.5439294557293,144.2617312134457,75.18460416136685,85.50369875065155,4.0,4.1,-264,-251,0,11,211,-263,119.57456803321838,119.57464838027954,119.57859945297241,119.58892869949341,119.73594522476196,119.73594522476196,119.73594522476196,119.73594522476196,119.73594522476196,119.73594522476196,119.73594522476196,120.6381368637085,1,1.0427143573760986,None,,,,,,,,,,,,,,,,,,130,4,2025-02-26_13h02.44.831,comp,2024.2.4,57.856538873769054,2025-02-26 13h02.51.040816 -0500,
70,70,0,critical,dhw,20.0,2.1,upper,141.0,141.0,200.0,125.0,125.0,200.0,3,1.1116535663604736,None,,,,,0,0,0,0,0,70,70,27,120.65512347221375,,,,,,,,,,,,,,,,,,,,,,,,,,,,,,,,,,,,,,,,,,,,,,,,,,,,,,,,,,,,,,,,,,,,,,,,,,,,,,,,,141.0,141.0,200.0,125.0,125.0,200.0,2.1,2.11,-229,270,0,276,258,-255,120.63971376419067,120.63979053497314,120.64330720901489,120.65512347221375,120.80423188209534,120.80423188209534,120.80423188209534,120.80423188209534,120.80423188209534,120.80423188209534,120.80423188209534,121.78571128845215,3,1.1116535663604736,None,,,,,,,,,,,,,,,,,,130,4,2025-02-26_13h02.44.831,comp,2024.2.4,57.856538873769054,2025-02-26 13h02.51.040816 -0500,
71,71,0,filler_square,None,None,None,None,None,None,None,None,None,None,2,1.1283621788024902,None,,,,,0,0,0,0,0,71,71,179,121.8064136505127,,,,,,,,,,,,,,,,,,,,,,,,,,,,,,,,,,,,,,,,,,,,,,,,,,,,,,,,,,,,,,,,,,,,,,,,,,,,,,,,,59.95518945740241,59.891327511173465,61.71158147796445,61.71158147796445,58.3146003231667,58.37406303622349,3.0,3.2,-157,-281,0,-8,156,264,121.78769707679749,121.78780508041382,121.7910807132721,121.8064136505127,121.93900394439697,121.93900394439697,121.93900394439697,121.93900394439697,121.93900394439697,121.93900394439697,121.93900394439697,122.93815541267395,2,1.1283621788024902,None,,,,,,,,,,,,,,,,,,130,4,2025-02-26_13h02.44.831,comp,2024.2.4,57.856538873769054,2025-02-26 13h02.51.040816 -0500,
72,72,0,filler_random,None,None,None,None,None,None,None,None,None,None,1,0.7391664981842041,None,,,,,0,0,0,0,0,72,72,166,122.95669651031494,,,,,,,,,,,,,,,,,,,,,,,,,,,,,,,,,,,,,,,,,,,,,,,,,,,,,,,,,,,,,,,,,,,,,,,,,,,,,,,,,190.68019373864118,179.2707146040006,130.6879205672139,92.87764374406414,160.35977885600775,141.114291194336,2.1,2.11,-232,264,0,279,213,-261,122.94002032279968,122.94012689590454,122.94356918334961,122.95669651031494,123.10572528839111,123.10572528839111,123.10572528839111,123.10572528839111,123.10572528839111,123.10572528839111,123.10572528839111,123.70381760597229,1,0.7391664981842041,None,,,,,,,,,,,,,,,,,,130,4,2025-02-26_13h02.44.831,comp,2024.2.4,57.856538873769054,2025-02-26 13h02.51.040816 -0500,
73,73,0,filler_square,None,None,None,None,None,None,None,None,None,None,2,1.382538080215454,None,,,,,0,0,0,0,0,73,73,177,123.72033858299255,,,,,,,,,,,,,,,,,,,,,,,,,,,,,,,,,,,,,,,,,,,,,,,,,,,,,,,,,,,,,,,,,,,,,,,,,,,,,,,,,65.72415852186863,65.72415852186863,64.88307326095902,59.10145707043945,61.76455328907739,60.322662210452414,4.0,4.2,-158,-19,0,-285,156,14,123.70563101768494,123.70570874214172,123.70864677429199,123.72033858299255,123.87140440940857,123.87140440940857,123.87140440940857,123.87140440940857,123.87140440940857,123.87140440940857,123.87140440940857,125.11719417572021,2,1.382538080215454,None,,,,,,,,,,,,,,,,,,130,4,2025-02-26_13h02.44.831,comp,2024.2.4,57.856538873769054,2025-02-26 13h02.51.040816 -0500,
74,74,0,critical,whd,35.0,2.1,lower,57.0,133.0,133.0,57.0,70.0,70.0,1,0.8346724510192871,None,,,,,0,0,0,0,0,74,74,36,125.13290858268738,,,,,,,,,,,,,,,,,,,,,,,,,,,,,,,,,,,,,,,,,,,,,,,,,,,,,,,,,,,,,,,,,,,,,,,,,,,,,,,,,57.0,133.0,133.0,57.0,70.0,70.0,2.1,2.11,-191,289,0,266,160,-277,125.11871814727783,125.11878991127014,125.1216995716095,125.13290858268738,125.2718734741211,125.2718734741211,125.2718734741211,125.2718734741211,125.2718734741211,125.2718734741211,125.2718734741211,125.97367119789124,1,0.8346724510192871,None,,,,,,,,,,,,,,,,,,130,4,2025-02-26_13h02.44.831,comp,2024.2.4,57.856538873769054,2025-02-26 13h02.51.040816 -0500,
75,75,0,critical,hdw,20.0,4.0,lower,133.0,57.0,78.0,78.0,57.0,133.0,1,0.889340877532959,None,,,,,0,0,0,0,0,75,75,118,125.99033403396606,,,,,,,,,,,,,,,,,,,,,,,,,,,,,,,,,,,,,,,,,,,,,,,,,,,,,,,,,,,,,,,,,,,,,,,,,,,,,,,,,133.0,57.0,78.0,78.0,57.0,133.0,4.0,4.2,-164,-4,0,-256,202,-7,125.9753828048706,125.97551274299622,125.97954678535461,125.99033403396606,126.14661026000977,126.14661026000977,126.14661026000977,126.14661026000977,126.14661026000977,126.14661026000977,126.14661026000977,126.88994002342224,1,0.889340877532959,None,,,,,,,,,,,,,,,,,,130,4,2025-02-26_13h02.44.831,comp,2024.2.4,57.856538873769054,2025-02-26 13h02.51.040816 -0500,
76,76,0,critical,dhw,20.0,1.0,lower,78.0,78.0,133.0,57.0,57.0,133.0,2,0.88313889503479,None,,,,,0,0,0,0,0,76,76,54,126.90766835212708,,,,,,,,,,,,,,,,,,,,,,,,,,,,,,,,,,,,,,,,,,,,,,,,,,,,,,,,,,,,,,,,,,,,,,,,,,,,,,,,,78.0,78.0,133.0,57.0,57.0,133.0,1.0,1.1,-644,268,-480,260,-289,268,126.8916609287262,126.89179253578186,126.89523148536682,126.90766835212708,127.05415987968445,127.05415987968445,127.05415987968445,127.05415987968445,127.05415987968445,127.05415987968445,127.05415987968445,127.8072657585144,2,0.88313889503479,None,,,,,,,,,,,,,,,,,,130,4,2025-02-26_13h02.44.831,comp,2024.2.4,57.856538873769054,2025-02-26 13h02.51.040816 -0500,
77,77,0,critical,whd,20.0,1.0,lower,57.0,133.0,133.0,57.0,78.0,78.0,1,0.737401008605957,None,,,,,0,0,0,0,0,77,77,90,127.82193732261658,,,,,,,,,,,,,,,,,,,,,,,,,,,,,,,,,,,,,,,,,,,,,,,,,,,,,,,,,,,,,,,,,,,,,,,,,,,,,,,,,57.0,133.0,133.0,57.0,78.0,78.0,1.0,1.2,-191,-14,0,20,164,17,127.80894041061401,127.80906128883362,127.81255602836609,127.82193732261658,127.97145175933838,127.97145175933838,127.97145175933838,127.97145175933838,127.97145175933838,127.97145175933838,127.97145175933838,128.5643413066864,1,0.737401008605957,None,,,,,,,,,,,,,,,,,,130,4,2025-02-26_13h02.44.831,comp,2024.2.4,57.856538873769054,2025-02-26 13h02.51.040816 -0500,
78,78,0,critical,wdh,20.0,4.0,upper,125.0,200.0,141.0,141.0,200.0,125.0,3,1.4346976280212402,None,,,,,0,0,0,0,0,78,78,83,128.58036375045776,,,,,,,,,,,,,,,,,,,,,,,,,,,,,,,,,,,,,,,,,,,,,,,,,,,,,,,,,,,,,,,,,,,,,,,,,,,,,,,,,125.0,200.0,141.0,141.0,200.0,125.0,4.0,4.1,-266,-261,0,-10,229,-259,128.56594157218933,128.56605052947998,128.5693953037262,128.58036375045776,128.72360277175903,128.72360277175903,128.72360277175903,128.72360277175903,128.72360277175903,128.72360277175903,128.72360277175903,130.02391695976257,3,1.4346976280212402,None,,,,,,,,,,,,,,,,,,130,4,2025-02-26_13h02.44.831,comp,2024.2.4,57.856538873769054,2025-02-26 13h02.51.040816 -0500,
79,79,0,filler_square,None,None,None,None,None,None,None,None,None,None,2,0.8472239971160889,None,,,,,0,0,0,0,0,79,79,172,130.04037380218506,,,,,,,,,,,,,,,,,,,,,,,,,,,,,,,,,,,,,,,,,,,,,,,,,,,,,,,,,,,,,,,,,,,,,,,,,,,,,,,,,65.75048154236868,114.5708854627378,175.24153656026738,175.24153656026738,85.45375096903285,69.77887867307771,4.0,4.2,-241,-6,0,-278,219,5,130.02574253082275,130.0258207321167,130.02923941612244,130.04037380218506,130.18983507156372,130.18983507156372,130.18983507156372,130.18983507156372,130.18983507156372,130.18983507156372,130.18983507156372,130.892192363739,2,0.8472239971160889,None,,,,,,,,,,,,,,,,,,130,4,2025-02-26_13h02.44.831,comp,2024.2.4,57.856538873769054,2025-02-26 13h02.51.040816 -0500,
80,80,0,critical,dhw,20.0,4.0,lower,78.0,78.0,133.0,57.0,57.0,133.0,3,1.2909843921661377,None,,,,,0,0,0,0,0,80,80,58,130.9086196422577,,,,,,,,,,,,,,,,,,,,,,,,,,,,,,,,,,,,,,,,,,,,,,,,,,,,,,,,,,,,,,,,,,,,,,,,,,,,,,,,,78.0,78.0,133.0,57.0,57.0,133.0,4.0,4.2,-164,-14,0,-288,191,7,130.89385986328125,130.8939368724823,130.8975887298584,130.9086196422577,131.05833840370178,131.05833840370178,131.05833840370178,131.05833840370178,131.05833840370178,131.05833840370178,131.05833840370178,132.20819282531738,3,1.2909843921661377,None,,,,,,,,,,,,,,,,,,130,4,2025-02-26_13h02.44.831,comp,2024.2.4,57.856538873769054,2025-02-26 13h02.51.040816 -0500,
81,81,0,critical,dwh,20.0,3.0,upper,141.0,141.0,125.0,200.0,200.0,125.0,2,1.0196480751037598,None,,,,,0,0,0,0,0,81,81,69,132.22711372375488,,,,,,,,,,,,,,,,,,,,,,,,,,,,,,,,,,,,,,,,,,,,,,,,,,,,,,,,,,,,,,,,,,,,,,,,,,,,,,,,,141.0,141.0,125.0,200.0,200.0,125.0,3.0,3.1,-266,262,0,12,258,-281,132.20971369743347,132.20978999137878,132.2129807472229,132.22711372375488,132.3679714202881,132.3679714202881,132.3679714202881,132.3679714202881,132.3679714202881,132.3679714202881,132.3679714202881,133.2610900402069,2,1.0196480751037598,None,,,,,,,,,,,,,,,,,,130,4,2025-02-26_13h02.44.831,comp,2024.2.4,57.856538873769054,2025-02-26 13h02.51.040816 -0500,
82,82,0,critical,hdw,35.0,4.0,lower,133.0,57.0,70.0,70.0,57.0,133.0,3,1.2057077884674072,None,,,,,0,0,0,0,0,82,82,112,133.28166246414185,,,,,,,,,,,,,,,,,,,,,,,,,,,,,,,,,,,,,,,,,,,,,,,,,,,,,,,,,,,,,,,,,,,,,,,,,,,,,,,,,133.0,57.0,70.0,70.0,57.0,133.0,4.0,4.1,-160,-283,0,-10,198,-269,133.26252913475037,133.26262831687927,133.26585960388184,133.28166246414185,133.42434668540955,133.42434668540955,133.42434668540955,133.42434668540955,133.42434668540955,133.42434668540955,133.42434668540955,134.49091577529907,3,1.2057077884674072,None,,,,,,,,,,,,,,,,,,130,4,2025-02-26_13h02.44.831,comp,2024.2.4,57.856538873769054,2025-02-26 13h02.51.040816 -0500,
83,83,0,filler_random,None,None,None,None,None,None,None,None,None,None,1,0.681727409362793,None,,,,,0,0,0,0,0,83,83,131,134.50913882255554,,,,,,,,,,,,,,,,,,,,,,,,,,,,,,,,,,,,,,,,,,,,,,,,,,,,,,,,,,,,,,,,,,,,,,,,,,,,,,,,,183.89515489141246,108.83130064521592,101.9748971778888,57.89336074308868,96.43652179964697,95.44313845528642,2.1,2.12,-179,-276,0,-279,173,256,134.49265241622925,134.4927315711975,134.4957640171051,134.50913882255554,134.6592721939087,134.6592721939087,134.6592721939087,134.6592721939087,134.6592721939087,134.6592721939087,134.6592721939087,135.20956921577454,1,0.681727409362793,None,,,,,,,,,,,,,,,,,,130,4,2025-02-26_13h02.44.831,comp,2024.2.4,57.856538873769054,2025-02-26 13h02.51.040816 -0500,
84,84,0,critical,hwd,35.0,1.0,upper,200.0,125.0,125.0,200.0,127.0,127.0,1,0.9013502597808838,None,,,,,0,0,0,0,0,84,84,97,135.22561931610107,,,,,,,,,,,,,,,,,,,,,,,,,,,,,,,,,,,,,,,,,,,,,,,,,,,,,,,,,,,,,,,,,,,,,,,,,,,,,,,,,200.0,125.0,125.0,200.0,127.0,127.0,1.0,1.1,-738,281,-480,280,-220,267,135.21109199523926,135.2111678123474,135.21522569656372,135.22561931610107,135.37366795539856,135.37366795539856,135.37366795539856,135.37366795539856,135.37366795539856,135.37366795539856,135.37366795539856,136.14223289489746,1,0.9013502597808838,None,,,,,,,,,,,,,,,,,,130,4,2025-02-26_13h02.44.831,comp,2024.2.4,57.856538873769054,2025-02-26 13h02.51.040816 -0500,
85,85,0,filler_square,None,None,None,None,None,None,None,None,None,None,3,1.2257368564605713,None,,,,,0,0,0,0,0,85,85,191,136.15837240219116,,,,,,,,,,,,,,,,,,,,,,,,,,,,,,,,,,,,,,,,,,,,,,,,,,,,,,,,,,,,,,,,,,,,,,,,,,,,,,,,,128.46147943358073,128.46147943358073,96.76310995767375,88.87693773815302,126.35663465566465,116.01652052000796,3.0,3.1,-205,290,0,0,198,-287,136.14420127868652,136.14430260658264,136.1479516029358,136.15837240219116,136.3074004650116,136.3074004650116,136.3074004650116,136.3074004650116,136.3074004650116,136.3074004650116,136.3074004650116,137.3884243965149,3,1.2257368564605713,None,,,,,,,,,,,,,,,,,,130,4,2025-02-26_13h02.44.831,comp,2024.2.4,57.856538873769054,2025-02-26 13h02.51.040816 -0500,
86,86,0,critical,hwd,20.0,4.0,upper,200.0,125.0,125.0,200.0,141.0,141.0,2,0.9781007766723633,None,,,,,0,0,0,0,0,86,86,107,137.4048571586609,,,,,,,,,,,,,,,,,,,,,,,,,,,,,,,,,,,,,,,,,,,,,,,,,,,,,,,,,,,,,,,,,,,,,,,,,,,,,,,,,200.0,125.0,125.0,200.0,141.0,141.0,4.0,4.1,-258,-256,0,16,266,-277,137.3899359703064,137.3900134563446,137.3929922580719,137.4048571586609,137.56149649620056,137.56149649620056,137.56149649620056,137.56149649620056,137.56149649620056,137.56149649620056,137.56149649620056,138.3865294456482,2,0.9781007766723633,None,,,,,,,,,,,,,,,,,,130,4,2025-02-26_13h02.44.831,comp,2024.2.4,57.856538873769054,2025-02-26 13h02.51.040816 -0500,
87,87,0,critical,dwh,20.0,3.0,lower,78.0,78.0,57.0,133.0,133.0,57.0,3,1.1363842487335205,None,,,,,0,0,0,0,0,87,87,68,138.4067394733429,,,,,,,,,,,,,,,,,,,,,,,,,,,,,,,,,,,,,,,,,,,,,,,,,,,,,,,,,,,,,,,,,,,,,,,,,,,,,,,,,78.0,78.0,57.0,133.0,133.0,57.0,3.0,3.1,-202,287,0,7,191,-282,138.38804817199707,138.38812589645386,138.39106917381287,138.4067394733429,138.54362630844116,138.54362630844116,138.54362630844116,138.54362630844116,138.54362630844116,138.54362630844116,138.54362630844116,139.54683113098145,3,1.1363842487335205,None,,,,,,,,,,,,,,,,,,130,4,2025-02-26_13h02.44.831,comp,2024.2.4,57.856538873769054,2025-02-26 13h02.51.040816 -0500,
88,88,0,critical,whd,35.0,3.0,lower,57.0,133.0,133.0,57.0,70.0,70.0,2,1.0843322277069092,None,,,,,0,0,0,0,0,88,88,86,139.56290793418884,,,,,,,,,,,,,,,,,,,,,,,,,,,,,,,,,,,,,,,,,,,,,,,,,,,,,,,,,,,,,,,,,,,,,,,,,,,,,,,,,57.0,133.0,133.0,57.0,70.0,70.0,3.0,3.2,-191,-288,0,1,160,284,139.5485017299652,139.54858207702637,139.55195140838623,139.56290793418884,139.7093048095703,139.7093048095703,139.7093048095703,139.7093048095703,139.7093048095703,139.7093048095703,139.7093048095703,140.66382145881653,2,1.0843322277069092,None,,,,,,,,,,,,,,,,,,130,4,2025-02-26_13h02.44.831,comp,2024.2.4,57.856538873769054,2025-02-26 13h02.51.040816 -0500,
89,89,0,filler_random,None,None,None,None,None,None,None,None,None,None,3,1.3265318870544434,None,,,,,0,0,0,0,0,89,89,148,140.6808578968048,,,,,,,,,,,,,,,,,,,,,,,,,,,,,,,,,,,,,,,,,,,,,,,,,,,,,,,,,,,,,,,,,,,,,,,,,,,,,,,,,166.8390420136064,82.46445182163592,114.16139910981124,61.076943780789236,101.200748080491,169.3990277451828,3.0,3.2,-168,-284,0,-19,211,267,140.66559195518494,140.66567158699036,140.66880083084106,140.6808578968048,140.8290627002716,140.8290627002716,140.8290627002716,140.8290627002716,140.8290627002716,140.8290627002716,140.8290627002716,142.00992918014526,3,1.3265318870544434,None,,,,,,,,,,,,,,,,,,130,4,2025-02-26_13h02.44.831,comp,2024.2.4,57.856538873769054,2025-02-26 13h02.51.040816 -0500,
90,90,0,critical,whd,20.0,2.1,lower,57.0,133.0,133.0,57.0,78.0,78.0,3,1.4198620319366455,None,,,,,0,0,0,0,0,90,90,38,142.02692413330078,,,,,,,,,,,,,,,,,,,,,,,,,,,,,,,,,,,,,,,,,,,,,,,,,,,,,,,,,,,,,,,,,,,,,,,,,,,,,,,,,57.0,133.0,133.0,57.0,78.0,78.0,2.1,2.12,-191,-275,0,-274,164,273,142.01164174079895,142.01171827316284,142.01522636413574,142.02692413330078,142.17716550827026,142.17716550827026,142.17716550827026,142.17716550827026,142.17716550827026,142.17716550827026,142.17716550827026,143.46214413642883,3,1.4198620319366455,None,,,,,,,,,,,,,,,,,,130,4,2025-02-26_13h02.44.831,comp,2024.2.4,57.856538873769054,2025-02-26 13h02.51.040816 -0500,
91,91,0,filler_random,None,None,None,None,None,None,None,None,None,None,3,1.0974769592285156,None,,,,,0,0,0,0,0,91,91,150,143.4778392314911,,,,,,,,,,,,,,,,,,,,,,,,,,,,,,,,,,,,,,,,,,,,,,,,,,,,,,,,,,,,,,,,,,,,,,,,,,,,,,,,,190.88597611558004,66.37449313779534,97.86340500451806,88.90747819511039,160.13835907632173,149.2250021182107,2.2,2.22,-174,265,0,-289,215,-286,143.4638819694519,143.4639811515808,143.46749091148376,143.4778392314911,143.62787294387817,143.62787294387817,143.62787294387817,143.62787294387817,143.62787294387817,143.62787294387817,143.62787294387817,144.59406566619873,3,1.0974769592285156,None,,,,,,,,,,,,,,,,,,130,4,2025-02-26_13h02.44.831,comp,2024.2.4,57.856538873769054,2025-02-26 13h02.51.040816 -0500,
92,92,0,filler_random,None,None,None,None,None,None,None,None,None,None,1,0.7975795269012451,None,,,,,0,0,0,0,0,92,92,146,144.61020255088806,,,,,,,,,,,,,,,,,,,,,,,,,,,,,,,,,,,,,,,,,,,,,,,,,,,,,,,,,,,,,,,,,,,,,,,,,,,,,,,,,178.11549437975188,179.55224045228215,81.38516791029275,199.25205051242784,144.55034819668677,120.03270916231128,4.0,4.2,-285,-15,0,-287,256,-1,144.5957543849945,144.59582805633545,144.59893345832825,144.61020255088806,144.76103496551514,144.76103496551514,144.76103496551514,144.76103496551514,144.76103496551514,144.76103496551514,144.76103496551514,145.4123637676239,1,0.7975795269012451,None,,,,,,,,,,,,,,,,,,130,4,2025-02-26_13h02.44.831,comp,2024.2.4,57.856538873769054,2025-02-26 13h02.51.040816 -0500,
93,93,0,filler_square,None,None,None,None,None,None,None,None,None,None,1,0.7250030040740967,None,,,,,0,0,0,0,0,93,93,206,145.42762732505798,,,,,,,,,,,,,,,,,,,,,,,,,,,,,,,,,,,,,,,,,,,,,,,,,,,,,,,,,,,,,,,,,,,,,,,,,,,,,,,,,118.30134978178066,118.30134978178066,69.511612100972,104.31015390799296,76.8405446796126,69.80331129697932,2.2,2.22,-207,273,0,-275,183,-270,145.41424751281738,145.41435289382935,145.4176721572876,145.42762732505798,145.56890654563904,145.56890654563904,145.56890654563904,145.56890654563904,145.56890654563904,145.56890654563904,145.56890654563904,146.1627321243286,1,0.7250030040740967,None,,,,,,,,,,,,,,,,,,130,4,2025-02-26_13h02.44.831,comp,2024.2.4,57.856538873769054,2025-02-26 13h02.51.040816 -0500,
94,94,0,critical,dhw,35.0,2.1,lower,70.0,70.0,133.0,57.0,57.0,133.0,3,1.385899543762207,None,,,,,0,0,0,0,0,94,94,0,146.18096375465393,,,,,,,,,,,,,,,,,,,,,,,,,,,,,,,,,,,,,,,,,,,,,,,,,,,,,,,,,,,,,,,,,,,,,,,,,,,,,,,,,70.0,70.0,133.0,57.0,57.0,133.0,2.1,2.11,-160,260,0,265,191,-258,146.16422605514526,146.1643304824829,146.16755557060242,146.18096375465393,146.329749584198,146.329749584198,146.329749584198,146.329749584198,146.329749584198,146.329749584198,146.329749584198,147.57764625549316,3,1.385899543762207,None,,,,,,,,,,,,,,,,,,130,4,2025-02-26_13h02.44.831,comp,2024.2.4,57.856538873769054,2025-02-26 13h02.51.040816 -0500,
95,95,0,critical,wdh,20.0,1.0,upper,125.0,200.0,141.0,141.0,200.0,125.0,3,1.0045561790466309,None,,,,,0,0,0,0,0,95,95,79,147.5942211151123,,,,,,,,,,,,,,,,,,,,,,,,,,,,,,,,,,,,,,,,,,,,,,,,,,,,,,,,,,,,,,,,,,,,,,,,,,,,,,,,,125.0,200.0,141.0,141.0,200.0,125.0,1.0,1.1,-746,255,-480,253,-251,269,147.5791518688202,147.57923102378845,147.5824236869812,147.5942211151123,147.73041558265686,147.73041558265686,147.73041558265686,147.73041558265686,147.73041558265686,147.73041558265686,147.73041558265686,148.61214232444763,3,1.0045561790466309,None,,,,,,,,,,,,,,,,,,130,4,2025-02-26_13h02.44.831,comp,2024.2.4,57.856538873769054,2025-02-26 13h02.51.040816 -0500,
96,96,0,filler_square,None,None,None,None,None,None,None,None,None,None,1,0.7859299182891846,None,,,,,0,0,0,0,0,96,96,208,148.62886929512024,,,,,,,,,,,,,,,,,,,,,,,,,,,,,,,,,,,,,,,,,,,,,,,,,,,,,,,,,,,,,,,,,,,,,,,,,,,,,,,,,154.42189343046593,154.42189343046593,121.52639001004654,85.1279021970317,122.32637392724025,152.02284340914915,4.0,4.2,-216,9,0,-289,215,17,148.61413621902466,148.6142134666443,148.61756491661072,148.62886929512024,148.77941799163818,148.77941799163818,148.77941799163818,148.77941799163818,148.77941799163818,148.77941799163818,148.77941799163818,149.42859196662903,1,0.7859299182891846,None,,,,,,,,,,,,,,,,,,130,4,2025-02-26_13h02.44.831,comp,2024.2.4,57.856538873769054,2025-02-26 13h02.51.040816 -0500,
97,97,0,critical,dhw,35.0,1.0,lower,70.0,70.0,133.0,57.0,57.0,133.0,2,1.338061809539795,None,,,,,0,0,0,0,0,97,97,48,149.44474911689758,,,,,,,,,,,,,,,,,,,,,,,,,,,,,,,,,,,,,,,,,,,,,,,,,,,,,,,,,,,,,,,,,,,,,,,,,,,,,,,,,70.0,70.0,133.0,57.0,57.0,133.0,1.0,1.2,-160,15,0,-4,191,-17,149.4301598072052,149.4302351474762,149.43366622924805,149.44474911689758,149.59276604652405,149.59276604652405,149.59276604652405,149.59276604652405,149.59276604652405,149.59276604652405,149.59276604652405,150.79605269432068,2,1.338061809539795,None,,,,,,,,,,,,,,,,,,130,4,2025-02-26_13h02.44.831,comp,2024.2.4,57.856538873769054,2025-02-26 13h02.51.040816 -0500,
98,98,0,critical,hwd,35.0,2.1,lower,133.0,57.0,57.0,133.0,70.0,70.0,2,1.066948652267456,None,,,,,0,0,0,0,0,98,98,40,150.81212449073792,,,,,,,,,,,,,,,,,,,,,,,,,,,,,,,,,,,,,,,,,,,,,,,,,,,,,,,,,,,,,,,,,,,,,,,,,,,,,,,,,133.0,57.0,57.0,133.0,70.0,70.0,2.1,2.12,-191,-281,0,-277,198,289,150.79765462875366,150.79772925376892,150.80092573165894,150.81212449073792,150.9630687236786,150.9630687236786,150.9630687236786,150.9630687236786,150.9630687236786,150.9630687236786,150.9630687236786,151.88185262680054,2,1.066948652267456,None,,,,,,,,,,,,,,,,,,130,4,2025-02-26_13h02.44.831,comp,2024.2.4,57.856538873769054,2025-02-26 13h02.51.040816 -0500,
99,99,0,critical,wdh,20.0,2.1,lower,57.0,133.0,78.0,78.0,133.0,57.0,1,0.7404947280883789,None,,,,,0,0,0,0,0,99,99,10,151.8984546661377,,,,,,,,,,,,,,,,,,,,,,,,,,,,,,,,,,,,,,,,,,,,,,,,,,,,,,,,,,,,,,,,,,,,,,,,,,,,,,,,,57.0,133.0,78.0,78.0,133.0,57.0,2.1,2.11,-202,284,0,269,164,-271,151.88358569145203,151.8836967945099,151.88749957084656,151.8984546661377,152.04563975334167,152.04563975334167,152.04563975334167,152.04563975334167,152.04563975334167,152.04563975334167,152.04563975334167,152.65224432945251,1,0.7404947280883789,None,,,,,,,,,,,,,,,,,,130,4,2025-02-26_13h02.44.831,comp,2024.2.4,57.856538873769054,2025-02-26 13h02.51.040816 -0500,
100,100,0,critical,whd,35.0,4.0,lower,57.0,133.0,133.0,57.0,70.0,70.0,2,1.3829500675201416,None,,,,,0,0,0,0,0,100,100,88,152.67318725585938,,,,,,,,,,,,,,,,,,,,,,,,,,,,,,,,,,,,,,,,,,,,,,,,,,,,,,,,,,,,,,,,,,,,,,,,,,,,,,,,,57.0,133.0,133.0,57.0,70.0,70.0,4.0,4.1,-191,-257,0,-11,160,-272,152.65388011932373,152.65397930145264,152.65743136405945,152.67318725585938,152.81734442710876,152.81734442710876,152.81734442710876,152.81734442710876,152.81734442710876,152.81734442710876,152.81734442710876,154.0624132156372,2,1.3829500675201416,None,,,,,,,,,,,,,,,,,,130,4,2025-02-26_13h02.44.831,comp,2024.2.4,57.856538873769054,2025-02-26 13h02.51.040816 -0500,
101,101,0,critical,wdh,20.0,2.1,lower,57.0,133.0,78.0,78.0,133.0,57.0,1,0.8808202743530273,None,,,,,0,0,0,0,0,101,101,34,154.07886409759521,,,,,,,,,,,,,,,,,,,,,,,,,,,,,,,,,,,,,,,,,,,,,,,,,,,,,,,,,,,,,,,,,,,,,,,,,,,,,,,,,57.0,133.0,78.0,78.0,133.0,57.0,2.1,2.11,-202,261,0,279,164,-288,154.0639283657074,154.06400775909424,154.0669515132904,154.07886409759521,154.21684670448303,154.21684670448303,154.21684670448303,154.21684670448303,154.21684670448303,154.21684670448303,154.21684670448303,154.96330571174622,1,0.8808202743530273,None,,,,,,,,,,,,,,,,,,130,4,2025-02-26_13h02.44.831,comp,2024.2.4,57.856538873769054,2025-02-26 13h02.51.040816 -0500,
102,102,0,critical,hdw,35.0,3.0,lower,133.0,57.0,70.0,70.0,57.0,133.0,3,1.0460290908813477,None,,,,,0,0,0,0,0,102,102,110,154.97951745986938,,,,,,,,,,,,,,,,,,,,,,,,,,,,,,,,,,,,,,,,,,,,,,,,,,,,,,,,,,,,,,,,,,,,,,,,,,,,,,,,,133.0,57.0,70.0,70.0,57.0,133.0,3.0,3.2,-160,-283,0,-18,198,257,154.96500301361084,154.96509099006653,154.96845388412476,154.97951745986938,155.12140798568726,155.12140798568726,155.12140798568726,155.12140798568726,155.12140798568726,155.12140798568726,155.12140798568726,156.03356671333313,3,1.0460290908813477,None,,,,,,,,,,,,,,,,,,130,4,2025-02-26_13h02.44.831,comp,2024.2.4,57.856538873769054,2025-02-26 13h02.51.040816 -0500,
103,103,0,critical,hdw,35.0,4.0,upper,200.0,125.0,127.0,127.0,125.0,200.0,3,0.9079737663269043,None,,,,,0,0,0,0,0,103,103,113,156.05143189430237,,,,,,,,,,,,,,,,,,,,,,,,,,,,,,,,,,,,,,,,,,,,,,,,,,,,,,,,,,,,,,,,,,,,,,,,,,,,,,,,,200.0,125.0,127.0,127.0,125.0,200.0,4.0,4.2,-222,-19,0,-262,260,14,156.03516793251038,156.03524804115295,156.03823328018188,156.05143189430237,156.19734382629395,156.19734382629395,156.19734382629395,156.19734382629395,156.19734382629395,156.19734382629395,156.19734382629395,156.96679162979126,3,0.9079737663269043,None,,,,,,,,,,,,,,,,,,130,4,2025-02-26_13h02.44.831,comp,2024.2.4,57.856538873769054,2025-02-26 13h02.51.040816 -0500,
104,104,0,filler_random,None,None,None,None,None,None,None,None,None,None,2,0.8718845844268799,None,,,,,0,0,0,0,0,104,104,161,156.9830174446106,,,,,,,,,,,,,,,,,,,,,,,,,,,,,,,,,,,,,,,,,,,,,,,,,,,,,,,,,,,,,,,,,,,,,,,,,,,,,,,,,71.22062635115881,194.9979382833369,168.10915892417626,149.8074567389989,128.53637827027984,193.01064807763404,4.0,4.1,-268,-288,0,-12,267,-286,156.96854901313782,156.9686312675476,156.97212600708008,156.9830174446106,157.13185334205627,157.13185334205627,157.13185334205627,157.13185334205627,157.13185334205627,157.13185334205627,157.13185334205627,157.8669319152832,2,0.8718845844268799,None,,,,,,,,,,,,,,,,,,130,4,2025-02-26_13h02.44.831,comp,2024.2.4,57.856538873769054,2025-02-26 13h02.51.040816 -0500,
105,105,0,filler_square,None,None,None,None,None,None,None,None,None,None,3,1.1479942798614502,None,,,,,0,0,0,0,0,105,105,178,157.8829083442688,,,,,,,,,,,,,,,,,,,,,,,,,,,,,,,,,,,,,,,,,,,,,,,,,,,,,,,,,,,,,,,,,,,,,,,,,,,,,,,,,117.21301590671085,98.36301354783126,88.92705666054984,67.44628460433111,176.35849058339738,176.35849058339738,2.1,2.11,-179,285,0,278,218,-280,157.8689353466034,157.8690140247345,157.8724594116211,157.8829083442688,158.03303599357605,158.03303599357605,158.03303599357605,158.03303599357605,158.03303599357605,158.03303599357605,158.03303599357605,159.03291130065918,3,1.1479942798614502,None,,,,,,,,,,,,,,,,,,130,4,2025-02-26_13h02.44.831,comp,2024.2.4,57.856538873769054,2025-02-26 13h02.51.040816 -0500,
106,106,0,critical,wdh,20.0,1.0,lower,57.0,133.0,78.0,78.0,133.0,57.0,3,1.0117509365081787,None,,,,,0,0,0,0,0,106,106,78,159.05119037628174,,,,,,,,,,,,,,,,,,,,,,,,,,,,,,,,,,,,,,,,,,,,,,,,,,,,,,,,,,,,,,,,,,,,,,,,,,,,,,,,,57.0,133.0,78.0,78.0,133.0,57.0,1.0,1.1,-682,290,-480,251,-316,278,159.03463578224182,159.03471732139587,159.0380916595459,159.05119037628174,159.19885063171387,159.19885063171387,159.19885063171387,159.19885063171387,159.19885063171387,159.19885063171387,159.19885063171387,160.06646060943604,3,1.0117509365081787,None,,,,,,,,,,,,,,,,,,130,4,2025-02-26_13h02.44.831,comp,2024.2.4,57.856538873769054,2025-02-26 13h02.51.040816 -0500,
107,107,0,critical,dhw,35.0,2.1,lower,70.0,70.0,133.0,57.0,57.0,133.0,3,1.324913501739502,None,,,,,0,0,0,0,0,107,107,24,160.08235597610474,,,,,,,,,,,,,,,,,,,,,,,,,,,,,,,,,,,,,,,,,,,,,,,,,,,,,,,,,,,,,,,,,,,,,,,,,,,,,,,,,70.0,70.0,133.0,57.0,57.0,133.0,2.1,2.12,-160,-260,0,-260,191,277,160.06805801391602,160.06813669204712,160.0716097354889,160.08235597610474,160.23702692985535,160.23702692985535,160.23702692985535,160.23702692985535,160.23702692985535,160.23702692985535,160.23702692985535,161.41884088516235,3,1.324913501739502,None,,,,,,,,,,,,,,,,,,130,4,2025-02-26_13h02.44.831,comp,2024.2.4,57.856538873769054,2025-02-26 13h02.51.040816 -0500,
108,108,0,critical,hwd,35.0,4.0,upper,200.0,125.0,125.0,200.0,127.0,127.0,2,0.9403278827667236,None,,,,,0,0,0,0,0,108,108,101,161.4346947669983,,,,,,,,,,,,,,,,,,,,,,,,,,,,,,,,,,,,,,,,,,,,,,,,,,,,,,,,,,,,,,,,,,,,,,,,,,,,,,,,,200.0,125.0,125.0,200.0,127.0,127.0,4.0,4.1,-258,-273,0,15,260,-277,161.42037534713745,161.42045521736145,161.42374968528748,161.4346947669983,161.57203245162964,161.57203245162964,161.57203245162964,161.57203245162964,161.57203245162964,161.57203245162964,161.57203245162964,162.3787009716034,2,0.9403278827667236,None,,,,,,,,,,,,,,,,,,130,4,2025-02-26_13h02.44.831,comp,2024.2.4,57.856538873769054,2025-02-26 13h02.51.040816 -0500,
109,109,0,critical,hdw,35.0,1.0,lower,133.0,57.0,70.0,70.0,57.0,133.0,3,0.9718823432922363,None,,,,,0,0,0,0,0,109,109,108,162.39514350891113,,,,,,,,,,,,,,,,,,,,,,,,,,,,,,,,,,,,,,,,,,,,,,,,,,,,,,,,,,,,,,,,,,,,,,,,,,,,,,,,,133.0,57.0,70.0,70.0,57.0,133.0,1.0,1.1,-640,255,-480,276,-282,254,162.38020658493042,162.38031196594238,162.38321733474731,162.39514350891113,162.53999948501587,162.53999948501587,162.53999948501587,162.53999948501587,162.53999948501587,162.53999948501587,162.53999948501587,163.38464260101318,3,0.9718823432922363,None,,,,,,,,,,,,,,,,,,130,4,2025-02-26_13h02.44.831,comp,2024.2.4,57.856538873769054,2025-02-26 13h02.51.040816 -0500,
110,110,0,filler_square,None,None,None,None,None,None,None,None,None,None,1,0.998598575592041,None,,,,,0,0,0,0,0,110,110,180,163.40113258361816,,,,,,,,,,,,,,,,,,,,,,,,,,,,,,,,,,,,,,,,,,,,,,,,,,,,,,,,,,,,,,,,,,,,,,,,,,,,,,,,,105.48000077998358,105.48000077998358,77.78025120462007,70.03559641721789,75.90314196852954,58.97214569056622,4.0,4.2,-184,7,0,-290,161,2,163.3864209651947,163.38649892807007,163.39075446128845,163.40113258361816,163.55182337760925,163.55182337760925,163.55182337760925,163.55182337760925,163.55182337760925,163.55182337760925,163.55182337760925,164.41760897636414,1,0.998598575592041,None,,,,,,,,,,,,,,,,,,130,4,2025-02-26_13h02.44.831,comp,2024.2.4,57.856538873769054,2025-02-26 13h02.51.040816 -0500,
111,111,0,critical,dhw,20.0,2.1,lower,78.0,78.0,133.0,57.0,57.0,133.0,3,1.101586103439331,None,,,,,0,0,0,0,0,111,111,26,164.43405318260193,,,,,,,,,,,,,,,,,,,,,,,,,,,,,,,,,,,,,,,,,,,,,,,,,,,,,,,,,,,,,,,,,,,,,,,,,,,,,,,,,78.0,78.0,133.0,57.0,57.0,133.0,2.1,2.12,-164,-285,0,-277,191,270,164.41932463645935,164.41946005821228,164.42299270629883,164.43405318260193,164.58244848251343,164.58244848251343,164.58244848251343,164.58244848251343,164.58244848251343,164.58244848251343,164.58244848251343,165.54072523117065,3,1.101586103439331,None,,,,,,,,,,,,,,,,,,130,4,2025-02-26_13h02.44.831,comp,2024.2.4,57.856538873769054,2025-02-26 13h02.51.040816 -0500,
112,112,0,filler_random,None,None,None,None,None,None,None,None,None,None,1,0.8423876762390137,None,,,,,0,0,0,0,0,112,112,143,165.557119846344,,,,,,,,,,,,,,,,,,,,,,,,,,,,,,,,,,,,,,,,,,,,,,,,,,,,,,,,,,,,,,,,,,,,,,,,,,,,,,,,,141.7755105164569,185.34723359116236,146.09173078538782,95.81997780185617,62.97477437952623,96.8699753092966,3.0,3.1,-237,278,0,-4,192,-287,165.54250597953796,165.54258394241333,165.54555869102478,165.557119846344,165.70167136192322,165.70167136192322,165.70167136192322,165.70167136192322,165.70167136192322,165.70167136192322,165.70167136192322,166.40434288978577,1,0.8423876762390137,None,,,,,,,,,,,,,,,,,,130,4,2025-02-26_13h02.44.831,comp,2024.2.4,57.856538873769054,2025-02-26 13h02.51.040816 -0500,
113,113,0,catch,None,None,None,None,None,None,None,None,None,None,3,0.8906958103179932,None,,,,,0,0,0,0,0,113,113,122,166.4201261997223,,,,,,,,,,,,,,,,,,,,,,,,,,,,,,,,,,,,,,,,,,,,,,,,,,,,,,,,,,,,,,,,,,,,,,,,,,,,,,,,,69,121,129,61,165,160,3.0,3.2,-187,-280,0,-3,206,268,166.4065124988556,166.40659070014954,166.40948724746704,166.4201261997223,166.57086539268494,166.57086539268494,166.57086539268494,166.57086539268494,166.57086539268494,166.57086539268494,166.57086539268494,167.32338118553162,3,0.8906958103179932,None,,,,,,,,,,,,,,,,,,130,4,2025-02-26_13h02.44.831,comp,2024.2.4,57.856538873769054,2025-02-26 13h02.51.040816 -0500,
114,114,0,filler_random,None,None,None,None,None,None,None,None,None,None,2,0.7679212093353271,None,,,,,0,0,0,0,0,114,114,130,167.34321761131287,,,,,,,,,,,,,,,,,,,,,,,,,,,,,,,,,,,,,,,,,,,,,,,,,,,,,,,,,,,,,,,,,,,,,,,,,,,,,,,,,92.52668798770632,145.32568484888577,189.3056023562197,158.4938996137069,68.61951472957382,143.77806931565254,1.0,1.2,-248,-14,0,1,247,12,167.32497763633728,167.32504987716675,167.3279948234558,167.34321761131287,167.48604941368103,167.48604941368103,167.48604941368103,167.48604941368103,167.48604941368103,167.48604941368103,167.48604941368103,168.12690353393555,2,0.7679212093353271,None,,,,,,,,,,,,,,,,,,130,4,2025-02-26_13h02.44.831,comp,2024.2.4,57.856538873769054,2025-02-26 13h02.51.040816 -0500,
115,115,0,filler_square,None,None,None,None,None,None,None,None,None,None,1,0.8343203067779541,None,,,,,0,0,0,0,0,115,115,195,168.14193081855774,,,,,,,,,,,,,,,,,,,,,,,,,,,,,,,,,,,,,,,,,,,,,,,,,,,,,,,,,,,,,,,,,,,,,,,,,,,,,,,,,66.88847904470995,66.88847904470995,57.088855814994794,60.98549977407789,59.281648487712694,66.37388589749112,2.1,2.11,-160,258,0,289,160,-253,168.1288857460022,168.12897300720215,168.13220834732056,168.14193081855774,168.28257274627686,168.28257274627686,168.28257274627686,168.28257274627686,168.28257274627686,168.28257274627686,168.28257274627686,168.98326778411865,1,0.8343203067779541,None,,,,,,,,,,,,,,,,,,130,4,2025-02-26_13h02.44.831,comp,2024.2.4,57.856538873769054,2025-02-26 13h02.51.040816 -0500,
116,116,0,critical,hwd,20.0,4.0,lower,133.0,57.0,57.0,133.0,78.0,78.0,3,0.759753942489624,None,,,,,0,0,0,0,0,116,116,106,169.00010228157043,,,,,,,,,,,,,,,,,,,,,,,,,,,,,,,,,,,,,,,,,,,,,,,,,,,,,,,,,,,,,,,,,,,,,,,,,,,,,,,,,133.0,57.0,57.0,133.0,78.0,78.0,4.0,4.1,-191,-255,0,13,202,-265,168.98477578163147,168.98485231399536,168.98782539367676,169.00010228157043,169.1403729915619,169.1403729915619,169.1403729915619,169.1403729915619,169.1403729915619,169.1403729915619,169.1403729915619,169.77160811424255,3,0.759753942489624,None,,,,,,,,,,,,,,,,,,130,4,2025-02-26_13h02.44.831,comp,2024.2.4,57.856538873769054,2025-02-26 13h02.51.040816 -0500,
117,117,0,critical,whd,35.0,2.1,lower,57.0,133.0,133.0,57.0,70.0,70.0,2,1.1551220417022705,None,,,,,0,0,0,0,0,117,117,12,169.78775453567505,,,,,,,,,,,,,,,,,,,,,,,,,,,,,,,,,,,,,,,,,,,,,,,,,,,,,,,,,,,,,,,,,,,,,,,,,,,,,,,,,57.0,133.0,133.0,57.0,70.0,70.0,2.1,2.12,-191,-262,0,-253,160,284,169.77332472801208,169.7734100818634,169.77692294120789,169.78775453567505,169.93701815605164,169.93701815605164,169.93701815605164,169.93701815605164,169.93701815605164,169.93701815605164,169.93701815605164,170.95292925834656,2,1.1551220417022705,None,,,,,,,,,,,,,,,,,,130,4,2025-02-26_13h02.44.831,comp,2024.2.4,57.856538873769054,2025-02-26 13h02.51.040816 -0500,
118,118,0,critical,hwd,35.0,2.1,lower,133.0,57.0,57.0,133.0,70.0,70.0,2,0.9581935405731201,None,,,,,0,0,0,0,0,118,118,16,170.96872568130493,,,,,,,,,,,,,,,,,,,,,,,,,,,,,,,,,,,,,,,,,,,,,,,,,,,,,,,,,,,,,,,,,,,,,,,,,,,,,,,,,133.0,57.0,57.0,133.0,70.0,70.0,2.1,2.11,-191,264,0,254,198,-280,170.95451092720032,170.95458984375,170.9578640460968,170.96872568130493,171.11978363990784,171.11978363990784,171.11978363990784,171.11978363990784,171.11978363990784,171.11978363990784,171.11978363990784,171.92914462089539,2,0.9581935405731201,None,,,,,,,,,,,,,,,,,,130,4,2025-02-26_13h02.44.831,comp,2024.2.4,57.856538873769054,2025-02-26 13h02.51.040816 -0500,
119,119,0,critical,hdw,35.0,2.1,lower,133.0,57.0,70.0,70.0,57.0,133.0,3,1.0921483039855957,None,,,,,0,0,0,0,0,119,119,44,171.94689798355103,,,,,,,,,,,,,,,,,,,,,,,,,,,,,,,,,,,,,,,,,,,,,,,,,,,,,,,,,,,,,,,,,,,,,,,,,,,,,,,,,133.0,57.0,70.0,70.0,57.0,133.0,2.1,2.11,-160,262,0,282,198,-269,171.93068528175354,171.93076276779175,171.93371868133545,171.94689798355103,172.08719754219055,172.08719754219055,172.08719754219055,172.08719754219055,172.08719754219055,172.08719754219055,172.08719754219055,173.05538821220398,3,1.0921483039855957,None,,,,,,,,,,,,,,,,,,130,4,2025-02-26_13h02.44.831,comp,2024.2.4,57.856538873769054,2025-02-26 13h02.51.040816 -0500,
120,120,0,critical,dwh,20.0,2.1,upper,141.0,141.0,125.0,200.0,200.0,125.0,3,0.8875110149383545,None,,,,,0,0,0,0,0,120,120,7,173.07122135162354,,,,,,,,,,,,,,,,,,,,,,,,,,,,,,,,,,,,,,,,,,,,,,,,,,,,,,,,,,,,,,,,,,,,,,,,,,,,,,,,,141.0,141.0,125.0,200.0,200.0,125.0,2.1,2.12,-266,-257,0,-275,258,264,173.05700016021729,173.05707597732544,173.0607807636261,173.07122135162354,173.22021865844727,173.22021865844727,173.22021865844727,173.22021865844727,173.22021865844727,173.22021865844727,173.22021865844727,173.96989369392395,3,0.8875110149383545,None,,,,,,,,,,,,,,,,,,130,4,2025-02-26_13h02.44.831,comp,2024.2.4,57.856538873769054,2025-02-26 13h02.51.040816 -0500,
121,121,0,filler_random,None,None,None,None,None,None,None,None,None,None,3,1.2483577728271484,None,,,,,0,0,0,0,0,121,121,133,173.99054718017578,,,,,,,,,,,,,,,,,,,,,,,,,,,,,,,,,,,,,,,,,,,,,,,,,,,,,,,,,,,,,,,,,,,,,,,,,,,,,,,,,135.86963585514525,69.45503733857223,99.3334151961249,61.599093647908134,198.43747077831654,99.00272475075093,2.2,2.22,-162,262,0,-258,176,-283,173.9717435836792,173.97187566757202,173.97521018981934,173.99054718017578,174.13742232322693,174.13742232322693,174.13742232322693,174.13742232322693,174.13742232322693,174.13742232322693,174.13742232322693,175.25421571731567,3,1.2483577728271484,None,,,,,,,,,,,,,,,,,,130,4,2025-02-26_13h02.44.831,comp,2024.2.4,57.856538873769054,2025-02-26 13h02.51.040816 -0500,
122,122,0,filler_square,None,None,None,None,None,None,None,None,None,None,2,0.9919900894165039,None,,,,,0,0,0,0,0,122,122,201,175.27082633972168,,,,,,,,,,,,,,,,,,,,,,,,,,,,,,,,,,,,,,,,,,,,,,,,,,,,,,,,,,,,,,,,,,,,,,,,,,,,,,,,,120.18653336443444,103.03019246727396,134.47644605751503,134.47644605751503,71.99614487443431,127.01615237969784,2.2,2.21,-215,-252,0,266,227,254,175.2561972141266,175.25627398490906,175.25964069366455,175.27082633972168,175.42103028297424,175.42103028297424,175.42103028297424,175.42103028297424,175.42103028297424,175.42103028297424,175.42103028297424,176.27249813079834,2,0.9919900894165039,None,,,,,,,,,,,,,,,,,,130,4,2025-02-26_13h02.44.831,comp,2024.2.4,57.856538873769054,2025-02-26 13h02.51.040816 -0500,
123,123,0,filler_random,None,None,None,None,None,None,None,None,None,None,2,1.2462594509124756,None,,,,,0,0,0,0,0,123,123,145,176.28937697410583,,,,,,,,,,,,,,,,,,,,,,,,,,,,,,,,,,,,,,,,,,,,,,,,,,,,,,,,,,,,,,,,,,,,,,,,,,,,,,,,,66.82879051435589,133.92383995841544,161.69214660639392,107.34686890344733,74.02446612651978,95.76740274780994,2.1,2.12,-217,-270,0,-289,198,258,176.27446842193604,176.27455043792725,176.2784731388092,176.28937697410583,176.438574552536,176.438574552536,176.438574552536,176.438574552536,176.438574552536,176.438574552536,176.438574552536,177.53878092765808,2,1.2462594509124756,None,,,,,,,,,,,,,,,,,,130,4,2025-02-26_13h02.44.831,comp,2024.2.4,57.856538873769054,2025-02-26 13h02.51.040816 -0500,
124,124,0,critical,dwh,20.0,2.1,lower,78.0,78.0,57.0,133.0,133.0,57.0,2,0.8599350452423096,None,,,,,0,0,0,0,0,124,124,6,177.55509305000305,,,,,,,,,,,,,,,,,,,,,,,,,,,,,,,,,,,,,,,,,,,,,,,,,,,,,,,,,,,,,,,,,,,,,,,,,,,,,,,,,78.0,78.0,57.0,133.0,133.0,57.0,2.1,2.12,-202,-283,0,-259,191,266,177.54043841362,177.5405626296997,177.54407858848572,177.55509305000305,177.70506143569946,177.70506143569946,177.70506143569946,177.70506143569946,177.70506143569946,177.70506143569946,177.70506143569946,178.42648029327393,2,0.8599350452423096,None,,,,,,,,,,,,,,,,,,130,4,2025-02-26_13h02.44.831,comp,2024.2.4,57.856538873769054,2025-02-26 13h02.51.040816 -0500,
125,125,0,critical,wdh,35.0,2.1,upper,125.0,200.0,127.0,127.0,200.0,125.0,1,1.1223204135894775,None,,,,,0,0,0,0,0,125,125,9,178.44550395011902,,,,,,,,,,,,,,,,,,,,,,,,,,,,,,,,,,,,,,,,,,,,,,,,,,,,,,,,,,,,,,,,,,,,,,,,,,,,,,,,,125.0,200.0,127.0,127.0,200.0,125.0,2.1,2.11,-260,254,0,280,222,-266,178.4281520843506,178.4282500743866,178.43162631988525,178.44550395011902,178.5887794494629,178.5887794494629,178.5887794494629,178.5887794494629,178.5887794494629,178.5887794494629,178.5887794494629,179.57354164123535,1,1.1223204135894775,None,,,,,,,,,,,,,,,,,,130,4,2025-02-26_13h02.44.831,comp,2024.2.4,57.856538873769054,2025-02-26 13h02.51.040816 -0500,
126,126,0,filler_square,None,None,None,None,None,None,None,None,None,None,2,0.8406567573547363,None,,,,,0,0,0,0,0,126,126,198,179.59035229682922,,,,,,,,,,,,,,,,,,,,,,,,,,,,,,,,,,,,,,,,,,,,,,,,,,,,,,,,,,,,,,,,,,,,,,,,,,,,,,,,,82.26207826554271,68.3582561360556,88.47472320356584,88.47472320356584,81.57270963902067,65.12332804733575,3.0,3.2,-174,-258,0,-7,173,274,179.57543468475342,179.57556986808777,179.57943534851074,179.59035229682922,179.7384352684021,179.7384352684021,179.7384352684021,179.7384352684021,179.7384352684021,179.7384352684021,179.7384352684021,180.44942712783813,2,0.8406567573547363,None,,,,,,,,,,,,,,,,,,130,4,2025-02-26_13h02.44.831,comp,2024.2.4,57.856538873769054,2025-02-26 13h02.51.040816 -0500,
127,127,0,critical,hdw,20.0,2.1,upper,200.0,125.0,141.0,141.0,125.0,200.0,1,0.7487688064575195,None,,,,,0,0,0,0,0,127,127,47,180.4672110080719,,,,,,,,,,,,,,,,,,,,,,,,,,,,,,,,,,,,,,,,,,,,,,,,,,,,,,,,,,,,,,,,,,,,,,,,,,,,,,,,,200.0,125.0,141.0,141.0,125.0,200.0,2.1,2.11,-229,261,0,263,266,-281,180.45098733901978,180.4510645866394,180.45401310920715,180.4672110080719,180.60552787780762,180.60552787780762,180.60552787780762,180.60552787780762,180.60552787780762,180.60552787780762,180.60552787780762,181.22369122505188,1,0.7487688064575195,None,,,,,,,,,,,,,,,,,,130,4,2025-02-26_13h02.44.831,comp,2024.2.4,57.856538873769054,2025-02-26 13h02.51.040816 -0500,
128,128,0,filler_square,None,None,None,None,None,None,None,None,None,None,1,0.9672191143035889,None,,,,,0,0,0,0,0,128,128,182,181.24018049240112,,,,,,,,,,,,,,,,,,,,,,,,,,,,,,,,,,,,,,,,,,,,,,,,,,,,,,,,,,,,,,,,,,,,,,,,,,,,,,,,,153.00255301415223,153.00255301415223,61.75526318768673,91.71375301688224,75.82394672781648,102.78411165264154,2.1,2.12,-218,-254,0,-283,193,286,181.22562551498413,181.2257034778595,181.2290859222412,181.24018049240112,181.39247870445251,181.39247870445251,181.39247870445251,181.39247870445251,181.39247870445251,181.39247870445251,181.39247870445251,182.22393584251404,1,0.9672191143035889,None,,,,,,,,,,,,,,,,,,130,4,2025-02-26_13h02.44.831,comp,2024.2.4,57.856538873769054,2025-02-26 13h02.51.040816 -0500,
129,129,0,filler_square,None,None,None,None,None,None,None,None,None,None,2,0.7937774658203125,None,,,,,0,0,0,0,0,129,129,193,182.24034786224365,,,,,,,,,,,,,,,,,,,,,,,,,,,,,,,,,,,,,,,,,,,,,,,,,,,,,,,,,,,,,,,,,,,,,,,,,,,,,,,,,117.13090082856732,119.55712765215128,154.34212673086023,154.34212673086023,136.61947860341814,145.24947749797423,4.0,4.1,-233,-251,0,14,246,-268,182.22572422027588,182.22580361366272,182.2292287349701,182.24034786224365,182.3785047531128,182.3785047531128,182.3785047531128,182.3785047531128,182.3785047531128,182.3785047531128,182.3785047531128,183.0391104221344,2,0.7937774658203125,None,,,,,,,,,,,,,,,,,,130,4,2025-02-26_13h02.44.831,comp,2024.2.4,57.856538873769054,2025-02-26 13h02.51.040816 -0500,
130,130,0,critical,hdw,35.0,2.1,upper,200.0,125.0,127.0,127.0,125.0,200.0,3,1.2638328075408936,None,,,,,0,0,0,0,0,130,130,45,183.05563879013062,,,,,,,,,,,,,,,,,,,,,,,,,,,,,,,,,,,,,,,,,,,,,,,,,,,,,,,,,,,,,,,,,,,,,,,,,,,,,,,,,200.0,125.0,127.0,127.0,125.0,200.0,2.1,2.12,-222,-265,0,-265,260,289,183.0406539440155,183.04073548316956,183.04388999938965,183.05563879013062,183.21564483642578,183.21564483642578,183.21564483642578,183.21564483642578,183.21564483642578,183.21564483642578,183.21564483642578,184.3220934867859,3,1.2638328075408936,None,,,,,,,,,,,,,,,,,,130,4,2025-02-26_13h02.44.831,comp,2024.2.4,57.856538873769054,2025-02-26 13h02.51.040816 -0500,
131,131,0,critical,hdw,35.0,2.1,lower,133.0,57.0,70.0,70.0,57.0,133.0,1,1.3813233375549316,None,,,,,0,0,0,0,0,131,131,20,184.33859133720398,,,,,,,,,,,,,,,,,,,,,,,,,,,,,,,,,,,,,,,,,,,,,,,,,,,,,,,,,,,,,,,,,,,,,,,,,,,,,,,,,133.0,57.0,70.0,70.0,57.0,133.0,2.1,2.11,-160,250,0,278,198,-270,184.32364296913147,184.32371926307678,184.32666611671448,184.33859133720398,184.47762823104858,184.47762823104858,184.47762823104858,184.47762823104858,184.47762823104858,184.47762823104858,184.47762823104858,185.72461032867432,1,1.3813233375549316,None,,,,,,,,,,,,,,,,,,130,4,2025-02-26_13h02.44.831,comp,2024.2.4,57.856538873769054,2025-02-26 13h02.51.040816 -0500,
132,132,0,critical,wdh,35.0,1.0,upper,125.0,200.0,127.0,127.0,200.0,125.0,3,0.9288721084594727,None,,,,,0,0,0,0,0,132,132,73,185.7423813343048,,,,,,,,,,,,,,,,,,,,,,,,,,,,,,,,,,,,,,,,,,,,,,,,,,,,,,,,,,,,,,,,,,,,,,,,,,,,,,,,,125.0,200.0,127.0,127.0,200.0,125.0,1.0,1.1,-740,271,-480,266,-258,266,185.72635197639465,185.7264895439148,185.73068523406982,185.7423813343048,185.8915786743164,185.8915786743164,185.8915786743164,185.8915786743164,185.8915786743164,185.8915786743164,185.8915786743164,186.67796182632446,3,0.9288721084594727,None,,,,,,,,,,,,,,,,,,130,4,2025-02-26_13h02.44.831,comp,2024.2.4,57.856538873769054,2025-02-26 13h02.51.040816 -0500,
133,133,0,critical,dwh,35.0,1.0,lower,70.0,70.0,57.0,133.0,133.0,57.0,3,0.8158814907073975,None,,,,,0,0,0,0,0,133,133,60,186.6959376335144,,,,,,,,,,,,,,,,,,,,,,,,,,,,,,,,,,,,,,,,,,,,,,,,,,,,,,,,,,,,,,,,,,,,,,,,,,,,,,,,,70.0,70.0,57.0,133.0,133.0,57.0,1.0,1.1,-678,263,-480,286,-289,272,186.67955899238586,186.6796395778656,186.68280506134033,186.6959376335144,186.8462450504303,186.8462450504303,186.8462450504303,186.8462450504303,186.8462450504303,186.8462450504303,186.8462450504303,187.51610565185547,3,0.8158814907073975,None,,,,,,,,,,,,,,,,,,130,4,2025-02-26_13h02.44.831,comp,2024.2.4,57.856538873769054,2025-02-26 13h02.51.040816 -0500,
134,134,0,critical,hdw,20.0,2.1,lower,133.0,57.0,78.0,78.0,57.0,133.0,1,0.7311837673187256,None,,,,,0,0,0,0,0,134,134,22,187.53166937828064,,,,,,,,,,,,,,,,,,,,,,,,,,,,,,,,,,,,,,,,,,,,,,,,,,,,,,,,,,,,,,,,,,,,,,,,,,,,,,,,,133.0,57.0,78.0,78.0,57.0,133.0,2.1,2.11,-164,254,0,285,202,-289,187.51765537261963,187.517733335495,187.5206618309021,187.53166937828064,187.67364263534546,187.67364263534546,187.67364263534546,187.67364263534546,187.67364263534546,187.67364263534546,187.67364263534546,188.27549624443054,1,0.7311837673187256,None,,,,,,,,,,,,,,,,,,130,4,2025-02-26_13h02.44.831,comp,2024.2.4,57.856538873769054,2025-02-26 13h02.51.040816 -0500,
135,135,0,filler_random,None,None,None,None,None,None,None,None,None,None,1,0.760993242263794,None,,,,,0,0,0,0,0,135,135,160,188.2940022945404,,,,,,,,,,,,,,,,,,,,,,,,,,,,,,,,,,,,,,,,,,,,,,,,,,,,,,,,,,,,,,,,,,,,,,,,,,,,,,,,,93.73067637792643,172.6446115011364,102.59300389898962,106.18268290709494,97.79096429554619,118.00433433923028,1.0,1.3,245,-252,480,-288,688,-255,188.27732133865356,188.27745914459229,188.28095984458923,188.2940022945404,188.44218111038208,188.44218111038208,188.44218111038208,188.44218111038208,188.44218111038208,188.44218111038208,188.44218111038208,189.06748509407043,1,0.760993242263794,None,,,,,,,,,,,,,,,,,,130,4,2025-02-26_13h02.44.831,comp,2024.2.4,57.856538873769054,2025-02-26 13h02.51.040816 -0500,
136,136,0,critical,dwh,35.0,3.0,upper,127.0,127.0,125.0,200.0,200.0,125.0,2,0.8114018440246582,None,,,,,0,0,0,0,0,136,136,63,189.0836420059204,,,,,,,,,,,,,,,,,,,,,,,,,,,,,,,,,,,,,,,,,,,,,,,,,,,,,,,,,,,,,,,,,,,,,,,,,,,,,,,,,127.0,127.0,125.0,200.0,200.0,125.0,3.0,3.1,-260,274,0,-11,258,-253,189.06893730163574,189.0690176486969,189.07198429107666,189.0836420059204,189.22568535804749,189.22568535804749,189.22568535804749,189.22568535804749,189.22568535804749,189.22568535804749,189.22568535804749,189.9089469909668,2,0.8114018440246582,None,,,,,,,,,,,,,,,,,,130,4,2025-02-26_13h02.44.831,comp,2024.2.4,57.856538873769054,2025-02-26 13h02.51.040816 -0500,
137,137,0,filler_random,None,None,None,None,None,None,None,None,None,None,1,0.9540205001831055,None,,,,,0,0,0,0,0,137,137,132,189.92504024505615,,,,,,,,,,,,,,,,,,,,,,,,,,,,,,,,,,,,,,,,,,,,,,,,,,,,,,,,,,,,,,,,,,,,,,,,,,,,,,,,,150.378299251238,194.790576503794,83.44931690549922,83.56880790549943,165.80563049441858,69.3932008168569,2.1,2.11,-235,282,0,263,172,-283,189.91053771972656,189.91061210632324,189.91469049453735,189.92504024505615,190.07688927650452,190.07688927650452,190.07688927650452,190.07688927650452,190.07688927650452,190.07688927650452,190.07688927650452,190.89398574829102,1,0.9540205001831055,None,,,,,,,,,,,,,,,,,,130,4,2025-02-26_13h02.44.831,comp,2024.2.4,57.856538873769054,2025-02-26 13h02.51.040816 -0500,
138,138,0,critical,dwh,35.0,2.1,upper,127.0,127.0,125.0,200.0,200.0,125.0,3,0.7626242637634277,None,,,,,0,0,0,0,0,138,138,29,190.90858936309814,,,,,,,,,,,,,,,,,,,,,,,,,,,,,,,,,,,,,,,,,,,,,,,,,,,,,,,,,,,,,,,,,,,,,,,,,,,,,,,,,127.0,127.0,125.0,200.0,200.0,125.0,2.1,2.12,-260,-290,0,-288,258,283,190.89576244354248,190.89589190483093,190.8990297317505,190.90858936309814,191.05973362922668,191.05973362922668,191.05973362922668,191.05973362922668,191.05973362922668,191.05973362922668,191.05973362922668,191.67535519599915,3,0.7626242637634277,None,,,,,,,,,,,,,,,,,,130,4,2025-02-26_13h02.44.831,comp,2024.2.4,57.856538873769054,2025-02-26 13h02.51.040816 -0500,
139,139,0,critical,wdh,20.0,4.0,lower,57.0,133.0,78.0,78.0,133.0,57.0,1,1.2765069007873535,None,,,,,0,0,0,0,0,139,139,82,191.69334363937378,,,,,,,,,,,,,,,,,,,,,,,,,,,,,,,,,,,,,,,,,,,,,,,,,,,,,,,,,,,,,,,,,,,,,,,,,,,,,,,,,57.0,133.0,78.0,78.0,133.0,57.0,4.0,4.2,-202,3,0,-284,164,-15,191.6768434047699,191.6769232749939,191.6800456047058,191.69334363937378,191.83322620391846,191.83322620391846,191.83322620391846,191.83322620391846,191.83322620391846,191.83322620391846,191.83322620391846,192.97717022895813,1,1.2765069007873535,None,,,,,,,,,,,,,,,,,,130,4,2025-02-26_13h02.44.831,comp,2024.2.4,57.856538873769054,2025-02-26 13h02.51.040816 -0500,
