thisN,thisTrialN,thisRepN,effect,order,distance,config,diag,h_1,w_1,h_2,w_2,h_3,w_3,rect_choice.keys,rect_choice.rt,rect_choice.duration,instructions_loop.thisRepN,instructions_loop.thisTrialN,instructions_loop.thisN,instructions_loop.thisIndex,blocks.thisRepN,blocks.thisTrialN,blocks.thisN,blocks.thisIndex,trials.thisRepN,trials.thisTrialN,trials.thisN,trials.thisIndex,thisRow.t,notes,consent.started,agree_button.started,decline_button.started,consent_img.started,mouse.started,consent.stopped,agree_button.numClicks,agree_button.timesOn,agree_button.timesOff,decline_button.numClicks,decline_button.timesOn,decline_button.timesOff,mouse.x,mouse.y,mouse.leftButton,mouse.midButton,mouse.rightButton,mouse.time,mouse.clicked_name,exp_params.started,exp_params.stopped,welcome.started,welcome_text.started,welcome_text.stopped,welcome.stopped,instructions_1.started,instructions_1_text_1.started,instructions_1_text_2.started,key_resp.started,instructions_1.stopped,instructions_loop.key_resp.keys,instructions_loop.key_resp.rt,instructions_loop.key_resp.duration,instructions_2.started,instructions_2_text_1.started,instructions_2_text_2.started,key_resp_2.started,instructions_2.stopped,instructions_loop.key_resp_2.keys,instructions_loop.key_resp_2.rt,instructions_loop.key_resp_2.duration,instructions_3.started,instructions_3_text_1.started,r1_instr3.started,r2_instr3.started,r3_instr3.started,r1_instr3_label.started,r2_instr3_label.started,r3_instr3_label.started,instructions_3_text_3.started,instructions_3_text_4.started,key_resp_3.started,instructions_3.stopped,instructions_loop.key_resp_3.keys,instructions_loop.key_resp_3.rt,instructions_loop.key_resp_3.duration,instructions_4.started,instructions_4_text_1.started,instructions_4_text_3.started,instructions_4_text_2.started,key_resp_4.started,instructions_4.stopped,instructions_loop.key_resp_4.keys,instructions_loop.key_resp_4.rt,instructions_loop.key_resp_4.duration,instructions_5.started,instructions_5_text_1.started,instructions_5_text_2.started,key_resp_5.started,instructions_5.stopped,instructions_loop.key_resp_5.keys,instructions_loop.key_resp_5.rt,instructions_loop.key_resp_5.duration,start_exp.started,start_exp_text.started,key_resp_6.started,start_exp.stopped,key_resp_6.keys,key_resp_6.rt,key_resp_6.duration,h_1_tmp,w_1_tmp,h_2_tmp,w_2_tmp,h_3_tmp,w_3_tmp,config_tmp,config_tmp_1,r_1_x,r_1_y,r_2_x,r_2_y,r_3_x,r_3_y,pre_trial.started,pre_trial.stopped,choice_trial.started,rect_choice.started,r_1.started,r_2.started,r_3.started,r_1_label.started,r_2_label.started,r_3_label.started,prompt.started,choice_trial.stopped,trials.rect_choice.keys,trials.rect_choice.rt,trials.rect_choice.duration,end_block.started,end_block_text.started,end_block.stopped,end.started,end_text.started,key_resp_7.started,end.stopped,key_resp_7.keys,key_resp_7.rt,key_resp_7.duration,debriefing.started,debrief_form.started,end_debrief.started,debriefing.stopped,end_debrief.keys,end_debrief.rt,end_debrief.duration,participant,computer,date,expName,psychopyVersion,frameRate,expStart,
,,,,,,,,,,,,,,,,,,,,,,,,,,,,,,,0.019536495208740234,0.035376787185668945,0.035376787185668945,0.035376787185668945,0.019336462020874023,52.34405255317688,1,[52.306116580963135],[52.306140661239624],0,,,[-59.0],[-520.0],[1],[0],[0],[52.324079751968384],['agree_button'],,,,,,,,,,,,,,,,,,,,,,,,,,,,,,,,,,,,,,,,,,,,,,,,,,,,,,,,,,,,,,,,,,,,,,,,,,,,,,,,,,,,,,,,,,,,,,,,,,,,,,,,,,,,131,1,2025-02-26_15h47.27.022,comp,2024.2.4,54.531677826171745,2025-02-26 15h47.39.457542 -0500,
,,,,,,,,,,,,,,,,,,,,,,,,,,,,,,,,,,,,,,,,,,,,,,,,,,52.34455895423889,52.34462356567383,,,,,,,,,,,,,,,,,,,,,,,,,,,,,,,,,,,,,,,,,,,,,,,,,,,,,,,,,,,,,,,,,,,,,,,,,,,,,,,,,,,,,,,,,,,,,,,,,,,,,,,,,,131,1,2025-02-26_15h47.27.022,comp,2024.2.4,54.531677826171745,2025-02-26 15h47.39.457542 -0500,
,,,,,,,,,,,,,,,,,,,,,,,,,,,,,,,,,,,,,,,,,,,,,,,,,,,,52.34468460083008,52.358710527420044,54.35693860054016,54.341331481933594,,,,,,,,,,,,,,,,,,,,,,,,,,,,,,,,,,,,,,,,,,,,,,,,,,,,,,,,,,,,,,,,,,,,,,,,,,,,,,,,,,,,,,,,,,,,,,,,,,,,,,131,1,2025-02-26_15h47.27.022,comp,2024.2.4,54.531677826171745,2025-02-26 15h47.39.457542 -0500,
0,0,0,,,,,,,,,,,,,,,0,0,0,0,,,,,,,,,54.35693860054016,,,,,,,,,,,,,,,,,,,,,,,,,,,54.34230279922485,54.35693860054016,54.35693860054016,55.85734987258911,57.97716784477234,space,2.1124472618103027,None,57.97734308242798,57.99131393432617,57.99131393432617,59.48938989639282,68.39631605148315,space,8.89561939239502,None,68.39648175239563,68.4299864768982,68.4299864768982,68.4299864768982,68.4299864768982,68.4299864768982,68.4299864768982,68.4299864768982,68.4299864768982,68.4299864768982,69.90205097198486,71.83530616760254,space,1.9154891967773438,None,71.8354640007019,71.8532829284668,71.8532829284668,71.8532829284668,73.3546130657196,82.9318323135376,space,9.558739423751831,None,82.93198657035828,82.94688510894775,82.94688510894775,84.43338775634766,84.50074601173401,space,0.0637044906616211,None,84.50093984603882,84.51719212532043,84.51719212532043,86.70438289642334,space,2.1718251705169678,None,,,,,,,,,,,,,,,,,,,,,,,,,,,,,,,,,,,,,,,,,,,,,,,131,1,2025-02-26_15h47.27.022,comp,2024.2.4,54.531677826171745,2025-02-26 15h47.39.457542 -0500,
0,0,0,critical,dwh,35.0,3.0,upper,127.0,127.0,125.0,200.0,200.0,125.0,2,6.407628059387207,None,,,,,0,0,0,0,0,0,0,63,86.78588318824768,,,,,,,,,,,,,,,,,,,,,,,,,,,,,,,,,,,,,,,,,,,,,,,,,,,,,,,,,,,,,,,,,,,,,,,,,,,,,,,,,,127.0,127.0,125.0,200.0,200.0,125.0,3.0,3.2,-260,-286,0,-10,258,258,86.76830506324768,86.76834321022034,86.76994752883911,86.78588318824768,86.93073654174805,86.93073654174805,86.93073654174805,86.93073654174805,86.93073654174805,86.93073654174805,86.93073654174805,93.20555090904236,2,6.407628059387207,None,,,,,,,,,,,,,,,,,,131,1,2025-02-26_15h47.27.022,comp,2024.2.4,54.531677826171745,2025-02-26 15h47.39.457542 -0500,
1,1,0,filler_random,None,None,None,None,None,None,None,None,None,None,3,1.5408823490142822,None,,,,,0,0,0,0,0,1,1,161,93.22093915939331,,,,,,,,,,,,,,,,,,,,,,,,,,,,,,,,,,,,,,,,,,,,,,,,,,,,,,,,,,,,,,,,,,,,,,,,,,,,,,,,,,143.95519850303734,67.08140117776563,75.79515257736814,61.0662479458271,177.26781303681494,177.90209656828847,3.0,3.2,-160,-253,0,-13,215,259,93.20725393295288,93.20732474327087,93.21006369590759,93.22093915939331,93.36883068084717,93.36883068084717,93.36883068084717,93.36883068084717,93.36883068084717,93.36883068084717,93.36883068084717,94.76908707618713,3,1.5408823490142822,None,,,,,,,,,,,,,,,,,,131,1,2025-02-26_15h47.27.022,comp,2024.2.4,54.531677826171745,2025-02-26 15h47.39.457542 -0500,
2,2,0,critical,dhw,35.0,2.1,upper,127.0,127.0,200.0,125.0,125.0,200.0,3,7.38840126991272,None,,,,,0,0,0,0,0,2,2,25,94.78868365287781,,,,,,,,,,,,,,,,,,,,,,,,,,,,,,,,,,,,,,,,,,,,,,,,,,,,,,,,,,,,,,,,,,,,,,,,,,,,,,,,,,127.0,127.0,200.0,125.0,125.0,200.0,2.1,2.11,-222,290,0,275,258,-255,94.76951813697815,94.76953721046448,94.77034759521484,94.78868365287781,94.92115545272827,94.92115545272827,94.92115545272827,94.92115545272827,94.92115545272827,94.92115545272827,94.92115545272827,102.1924741268158,3,7.38840126991272,None,,,,,,,,,,,,,,,,,,131,1,2025-02-26_15h47.27.022,comp,2024.2.4,54.531677826171745,2025-02-26 15h47.39.457542 -0500,
3,3,0,filler_random,None,None,None,None,None,None,None,None,None,None,1,9.585394859313965,None,,,,,0,0,0,0,0,3,3,168,102.2082052230835,,,,,,,,,,,,,,,,,,,,,,,,,,,,,,,,,,,,,,,,,,,,,,,,,,,,,,,,,,,,,,,,,,,,,,,,,,,,,,,,,,168.5507317592375,185.601869265209,168.23575506533345,178.27614856262858,132.1330373195275,115.82510654185415,1.0,1.3,202,-258,480,-280,723,-284,102.1942892074585,102.19443011283875,102.19783401489258,102.2082052230835,102.34869766235352,102.34869766235352,102.34869766235352,102.34869766235352,102.34869766235352,102.34869766235352,102.34869766235352,111.81102347373962,1,9.585394859313965,None,,,,,,,,,,,,,,,,,,131,1,2025-02-26_15h47.27.022,comp,2024.2.4,54.531677826171745,2025-02-26 15h47.39.457542 -0500,
4,4,0,filler_square,None,None,None,None,None,None,None,None,None,None,1,2.2230050563812256,None,,,,,0,0,0,0,0,4,4,200,111.82702565193176,,,,,,,,,,,,,,,,,,,,,,,,,,,,,,,,,,,,,,,,,,,,,,,,,,,,,,,,,,,,,,,,,,,,,,,,,,,,,,,,,,100.02949345716527,100.02949345716527,90.99431735178811,82.62911508209298,72.35682080988482,98.12164446480487,4.0,4.2,-187,-20,0,-268,186,16,111.81298542022705,111.81310772895813,111.81675839424133,111.82702565193176,111.97655367851257,111.97655367851257,111.97655367851257,111.97655367851257,111.97655367851257,111.97655367851257,111.97655367851257,114.0603997707367,1,2.2230050563812256,None,,,,,,,,,,,,,,,,,,131,1,2025-02-26_15h47.27.022,comp,2024.2.4,54.531677826171745,2025-02-26 15h47.39.457542 -0500,
5,5,0,filler_random,None,None,None,None,None,None,None,None,None,None,2,1.4928970336914062,None,,,,,0,0,0,0,0,5,5,147,114.07616519927979,,,,,,,,,,,,,,,,,,,,,,,,,,,,,,,,,,,,,,,,,,,,,,,,,,,,,,,,,,,,,,,,,,,,,,,,,,,,,,,,,,127.02945676740177,107.31145063297939,128.6317127450561,142.11322499096434,70.06459122695077,114.32048716122168,2.1,2.11,-221,253,0,253,224,-273,114.06203126907349,114.06210732460022,114.06546640396118,114.07616519927979,114.22735238075256,114.22735238075256,114.22735238075256,114.22735238075256,114.22735238075256,114.22735238075256,114.22735238075256,115.58168983459473,2,1.4928970336914062,None,,,,,,,,,,,,,,,,,,131,1,2025-02-26_15h47.27.022,comp,2024.2.4,54.531677826171745,2025-02-26 15h47.39.457542 -0500,
6,6,0,filler_square,None,None,None,None,None,None,None,None,None,None,3,2.1502749919891357,None,,,,,0,0,0,0,0,6,6,204,115.60277390480042,,,,,,,,,,,,,,,,,,,,,,,,,,,,,,,,,,,,,,,,,,,,,,,,,,,,,,,,,,,,,,,,,,,,,,,,,,,,,,,,,,76.59379449949361,95.30508942500535,78.16258058095684,110.51968296406463,111.3207272711644,111.3207272711644,1.0,1.1,-679,289,-480,269,-273,283,115.58357167243958,115.58370614051819,115.58692121505737,115.60277390480042,115.74464178085327,115.74464178085327,115.74464178085327,115.74464178085327,115.74464178085327,115.74464178085327,115.74464178085327,117.76847314834595,3,2.1502749919891357,None,,,,,,,,,,,,,,,,,,131,1,2025-02-26_15h47.27.022,comp,2024.2.4,54.531677826171745,2025-02-26 15h47.39.457542 -0500,
7,7,0,catch,None,None,None,None,None,None,None,None,None,None,3,1.4880008697509766,None,,,,,0,0,0,0,0,7,7,123,117.7858054637909,,,,,,,,,,,,,,,,,,,,,,,,,,,,,,,,,,,,,,,,,,,,,,,,,,,,,,,,,,,,,,,,,,,,,,,,,,,,,,,,,,102,88,61,129,197,128,1.0,1.1,-684,270,-480,275,-256,281,117.77040791511536,117.77048325538635,117.77335453033447,117.7858054637909,117.93078637123108,117.93078637123108,117.93078637123108,117.93078637123108,117.93078637123108,117.93078637123108,117.93078637123108,119.28167700767517,3,1.4880008697509766,None,,,,,,,,,,,,,,,,,,131,1,2025-02-26_15h47.27.022,comp,2024.2.4,54.531677826171745,2025-02-26 15h47.39.457542 -0500,
8,8,0,critical,hwd,20.0,2.1,upper,200.0,125.0,125.0,200.0,141.0,141.0,1,14.768763780593872,None,,,,,0,0,0,0,0,8,8,19,119.29711198806763,,,,,,,,,,,,,,,,,,,,,,,,,,,,,,,,,,,,,,,,,,,,,,,,,,,,,,,,,,,,,,,,,,,,,,,,,,,,,,,,,,200.0,125.0,125.0,200.0,141.0,141.0,2.1,2.12,-258,-254,0,-253,266,289,119.28352785110474,119.28361010551453,119.28656816482544,119.29711198806763,119.44653296470642,119.44653296470642,119.44653296470642,119.44653296470642,119.44653296470642,119.44653296470642,119.44653296470642,134.0742588043213,1,14.768763780593872,None,,,,,,,,,,,,,,,,,,131,1,2025-02-26_15h47.27.022,comp,2024.2.4,54.531677826171745,2025-02-26 15h47.39.457542 -0500,
9,9,0,filler_square,None,None,None,None,None,None,None,None,None,None,2,1.3964121341705322,None,,,,,0,0,0,0,0,9,9,171,134.0931797027588,,,,,,,,,,,,,,,,,,,,,,,,,,,,,,,,,,,,,,,,,,,,,,,,,,,,,,,,,,,,,,,,,,,,,,,,,,,,,,,,,,97.71548011496435,71.52283714239533,129.94447407093386,129.94447407093386,125.68070388687923,115.93419149760958,2.1,2.12,-197,-262,0,-270,219,257,134.07607293128967,134.07614994049072,134.07905220985413,134.0931797027588,134.23331093788147,134.23331093788147,134.23331093788147,134.23331093788147,134.23331093788147,134.23331093788147,134.23331093788147,135.49939918518066,2,1.3964121341705322,None,,,,,,,,,,,,,,,,,,131,1,2025-02-26_15h47.27.022,comp,2024.2.4,54.531677826171745,2025-02-26 15h47.39.457542 -0500,
10,10,0,critical,hwd,20.0,4.0,lower,133.0,57.0,57.0,133.0,78.0,78.0,1,6.219655275344849,None,,,,,0,0,0,0,0,10,10,106,135.51759433746338,,,,,,,,,,,,,,,,,,,,,,,,,,,,,,,,,,,,,,,,,,,,,,,,,,,,,,,,,,,,,,,,,,,,,,,,,,,,,,,,,,133.0,57.0,57.0,133.0,78.0,78.0,4.0,4.1,-191,-262,0,0,202,-277,135.50102996826172,135.50113654136658,135.5044960975647,135.51759433746338,135.66806173324585,135.66806173324585,135.66806173324585,135.66806173324585,135.66806173324585,135.66806173324585,135.66806173324585,141.75206899642944,1,6.219655275344849,None,,,,,,,,,,,,,,,,,,131,1,2025-02-26_15h47.27.022,comp,2024.2.4,54.531677826171745,2025-02-26 15h47.39.457542 -0500,
11,11,0,critical,dhw,20.0,1.0,lower,78.0,78.0,133.0,57.0,57.0,133.0,2,4.2816643714904785,None,,,,,0,0,0,0,0,11,11,54,141.76790261268616,,,,,,,,,,,,,,,,,,,,,,,,,,,,,,,,,,,,,,,,,,,,,,,,,,,,,,,,,,,,,,,,,,,,,,,,,,,,,,,,,,78.0,78.0,133.0,57.0,57.0,133.0,1.0,1.3,316,-253,480,-251,671,-258,141.75368547439575,141.75377750396729,141.75729179382324,141.76790261268616,141.91729760169983,141.91729760169983,141.91729760169983,141.91729760169983,141.91729760169983,141.91729760169983,141.91729760169983,146.05594563484192,2,4.2816643714904785,None,,,,,,,,,,,,,,,,,,131,1,2025-02-26_15h47.27.022,comp,2024.2.4,54.531677826171745,2025-02-26 15h47.39.457542 -0500,
12,12,0,critical,whd,20.0,2.1,lower,57.0,133.0,133.0,57.0,78.0,78.0,1,9.022072315216064,None,,,,,0,0,0,0,0,12,12,38,146.075110912323,,,,,,,,,,,,,,,,,,,,,,,,,,,,,,,,,,,,,,,,,,,,,,,,,,,,,,,,,,,,,,,,,,,,,,,,,,,,,,,,,,57.0,133.0,133.0,57.0,78.0,78.0,2.1,2.12,-191,-272,0,-258,164,284,146.05763936042786,146.05771803855896,146.0607352256775,146.075110912323,146.22244024276733,146.22244024276733,146.22244024276733,146.22244024276733,146.22244024276733,146.22244024276733,146.22244024276733,155.10894417762756,1,9.022072315216064,None,,,,,,,,,,,,,,,,,,131,1,2025-02-26_15h47.27.022,comp,2024.2.4,54.531677826171745,2025-02-26 15h47.39.457542 -0500,
13,13,0,critical,hdw,35.0,2.1,lower,133.0,57.0,70.0,70.0,57.0,133.0,1,2.7540457248687744,None,,,,,0,0,0,0,0,13,13,44,155.12793135643005,,,,,,,,,,,,,,,,,,,,,,,,,,,,,,,,,,,,,,,,,,,,,,,,,,,,,,,,,,,,,,,,,,,,,,,,,,,,,,,,,,133.0,57.0,70.0,70.0,57.0,133.0,2.1,2.12,-160,-260,0,-276,198,290,155.1106698513031,155.11075687408447,155.11414670944214,155.12793135643005,155.27347207069397,155.27347207069397,155.27347207069397,155.27347207069397,155.27347207069397,155.27347207069397,155.27347207069397,157.88928985595703,1,2.7540457248687744,None,,,,,,,,,,,,,,,,,,131,1,2025-02-26_15h47.27.022,comp,2024.2.4,54.531677826171745,2025-02-26 15h47.39.457542 -0500,
14,14,0,critical,whd,35.0,3.0,lower,57.0,133.0,133.0,57.0,70.0,70.0,2,3.4633772373199463,None,,,,,0,0,0,0,0,14,14,86,157.90575671195984,,,,,,,,,,,,,,,,,,,,,,,,,,,,,,,,,,,,,,,,,,,,,,,,,,,,,,,,,,,,,,,,,,,,,,,,,,,,,,,,,,57.0,133.0,133.0,57.0,70.0,70.0,3.0,3.1,-191,260,0,-4,160,-264,157.8908441066742,157.8909204006195,157.8939299583435,157.90575671195984,158.05877828598022,158.05877828598022,158.05877828598022,158.05877828598022,158.05877828598022,158.05877828598022,158.05877828598022,161.38646245002747,2,3.4633772373199463,None,,,,,,,,,,,,,,,,,,131,1,2025-02-26_15h47.27.022,comp,2024.2.4,54.531677826171745,2025-02-26 15h47.39.457542 -0500,
15,15,0,critical,hdw,35.0,2.1,lower,133.0,57.0,70.0,70.0,57.0,133.0,1,6.4052159786224365,None,,,,,0,0,0,0,0,15,15,20,161.40420770645142,,,,,,,,,,,,,,,,,,,,,,,,,,,,,,,,,,,,,,,,,,,,,,,,,,,,,,,,,,,,,,,,,,,,,,,,,,,,,,,,,,133.0,57.0,70.0,70.0,57.0,133.0,2.1,2.11,-160,260,0,264,198,-259,161.38802790641785,161.3881015777588,161.39147424697876,161.40420770645142,161.5405912399292,161.5405912399292,161.5405912399292,161.5405912399292,161.5405912399292,161.5405912399292,161.5405912399292,167.81406545639038,1,6.4052159786224365,None,,,,,,,,,,,,,,,,,,131,1,2025-02-26_15h47.27.022,comp,2024.2.4,54.531677826171745,2025-02-26 15h47.39.457542 -0500,
16,16,0,filler_random,None,None,None,None,None,None,None,None,None,None,2,4.203880310058594,None,,,,,0,0,0,0,0,16,16,160,167.82964706420898,,,,,,,,,,,,,,,,,,,,,,,,,,,,,,,,,,,,,,,,,,,,,,,,,,,,,,,,,,,,,,,,,,,,,,,,,,,,,,,,,,168.4170504833574,74.44460358152268,116.96530490265368,166.0703884490701,160.8093553622822,113.9207247950369,4.0,4.2,-216,9,0,-271,236,12,167.8158643245697,167.8159430027008,167.8188841342926,167.82964706420898,167.97749519348145,167.97749519348145,167.97749519348145,167.97749519348145,167.97749519348145,167.97749519348145,167.97749519348145,172.03562092781067,2,4.203880310058594,None,,,,,,,,,,,,,,,,,,131,1,2025-02-26_15h47.27.022,comp,2024.2.4,54.531677826171745,2025-02-26 15h47.39.457542 -0500,
17,17,0,catch,None,None,None,None,None,None,None,None,None,None,1,1.3372905254364014,None,,,,,0,0,0,0,0,17,17,127,172.05609893798828,,,,,,,,,,,,,,,,,,,,,,,,,,,,,,,,,,,,,,,,,,,,,,,,,,,,,,,,,,,,,,,,,,,,,,,,,,,,,,,,,,196,129,81,109,94,96,2.1,2.12,-215,-256,0,-273,198,253,172.03747391700745,172.03755116462708,172.0404303073883,172.05609893798828,172.19504570960999,172.19504570960999,172.19504570960999,172.19504570960999,172.19504570960999,172.19504570960999,172.19504570960999,173.41159915924072,1,1.3372905254364014,None,,,,,,,,,,,,,,,,,,131,1,2025-02-26_15h47.27.022,comp,2024.2.4,54.531677826171745,2025-02-26 15h47.39.457542 -0500,
18,18,0,critical,hwd,35.0,2.1,lower,133.0,57.0,57.0,133.0,70.0,70.0,1,7.717459440231323,None,,,,,0,0,0,0,0,18,18,40,173.42790246009827,,,,,,,,,,,,,,,,,,,,,,,,,,,,,,,,,,,,,,,,,,,,,,,,,,,,,,,,,,,,,,,,,,,,,,,,,,,,,,,,,,133.0,57.0,57.0,133.0,70.0,70.0,2.1,2.12,-191,-282,0,-285,198,267,173.41323566436768,173.4133243560791,173.41669845581055,173.42790246009827,173.5680456161499,173.5680456161499,173.5680456161499,173.5680456161499,173.5680456161499,173.5680456161499,173.5680456161499,181.14928340911865,1,7.717459440231323,None,,,,,,,,,,,,,,,,,,131,1,2025-02-26_15h47.27.022,comp,2024.2.4,54.531677826171745,2025-02-26 15h47.39.457542 -0500,
19,19,0,filler_square,None,None,None,None,None,None,None,None,None,None,2,2.0634281635284424,None,,,,,0,0,0,0,0,19,19,172,181.16990447044373,,,,,,,,,,,,,,,,,,,,,,,,,,,,,,,,,,,,,,,,,,,,,,,,,,,,,,,,,,,,,,,,,,,,,,,,,,,,,,,,,,87.5372716543997,73.52323612687962,88.86185807234182,88.86185807234182,76.69750320658173,67.18387907078927,4.0,4.2,-177,3,0,-261,174,-11,181.15106844902039,181.15114545822144,181.15426087379456,181.16990447044373,181.31497383117676,181.31497383117676,181.31497383117676,181.31497383117676,181.31497383117676,181.31497383117676,181.31497383117676,183.23743510246277,2,2.0634281635284424,None,,,,,,,,,,,,,,,,,,131,1,2025-02-26_15h47.27.022,comp,2024.2.4,54.531677826171745,2025-02-26 15h47.39.457542 -0500,
20,20,0,critical,wdh,20.0,2.1,upper,125.0,200.0,141.0,141.0,200.0,125.0,1,8.606770038604736,None,,,,,0,0,0,0,0,20,20,35,183.25848245620728,,,,,,,,,,,,,,,,,,,,,,,,,,,,,,,,,,,,,,,,,,,,,,,,,,,,,,,,,,,,,,,,,,,,,,,,,,,,,,,,,,125.0,200.0,141.0,141.0,200.0,125.0,2.1,2.12,-266,-270,0,-257,229,257,183.23903226852417,183.23911952972412,183.2427065372467,183.25848245620728,183.4000174999237,183.4000174999237,183.4000174999237,183.4000174999237,183.4000174999237,183.4000174999237,183.4000174999237,191.86811590194702,1,8.606770038604736,None,,,,,,,,,,,,,,,,,,131,1,2025-02-26_15h47.27.022,comp,2024.2.4,54.531677826171745,2025-02-26 15h47.39.457542 -0500,
21,21,0,critical,dwh,20.0,4.0,lower,78.0,78.0,57.0,133.0,133.0,57.0,2,2.877391815185547,None,,,,,0,0,0,0,0,21,21,70,191.88392996788025,,,,,,,,,,,,,,,,,,,,,,,,,,,,,,,,,,,,,,,,,,,,,,,,,,,,,,,,,,,,,,,,,,,,,,,,,,,,,,,,,,78.0,78.0,57.0,133.0,133.0,57.0,4.0,4.2,-202,15,0,-256,191,12,191.86968612670898,191.86976194381714,191.87320041656494,191.88392996788025,192.03454160690308,192.03454160690308,192.03454160690308,192.03454160690308,192.03454160690308,192.03454160690308,192.03454160690308,194.77064752578735,2,2.877391815185547,None,,,,,,,,,,,,,,,,,,131,1,2025-02-26_15h47.27.022,comp,2024.2.4,54.531677826171745,2025-02-26 15h47.39.457542 -0500,
22,22,0,critical,dwh,35.0,2.1,lower,70.0,70.0,57.0,133.0,133.0,57.0,3,10.173463582992554,None,,,,,0,0,0,0,0,22,22,28,194.7879183292389,,,,,,,,,,,,,,,,,,,,,,,,,,,,,,,,,,,,,,,,,,,,,,,,,,,,,,,,,,,,,,,,,,,,,,,,,,,,,,,,,,70.0,70.0,57.0,133.0,133.0,57.0,2.1,2.12,-198,-255,0,-288,191,270,194.77218961715698,194.7722933292389,194.775652885437,194.7879183292389,194.9359097480774,194.9359097480774,194.9359097480774,194.9359097480774,194.9359097480774,194.9359097480774,194.9359097480774,204.97567343711853,3,10.173463582992554,None,,,,,,,,,,,,,,,,,,131,1,2025-02-26_15h47.27.022,comp,2024.2.4,54.531677826171745,2025-02-26 15h47.39.457542 -0500,
23,23,0,critical,dhw,20.0,3.0,upper,141.0,141.0,200.0,125.0,125.0,200.0,3,9.429093360900879,None,,,,,0,0,0,0,0,23,23,57,204.99055409431458,,,,,,,,,,,,,,,,,,,,,,,,,,,,,,,,,,,,,,,,,,,,,,,,,,,,,,,,,,,,,,,,,,,,,,,,,,,,,,,,,,141.0,141.0,200.0,125.0,125.0,200.0,3.0,3.1,-229,265,0,8,258,-279,204.97729992866516,204.97737622261047,204.98033928871155,204.99055409431458,205.1387631893158,205.1387631893158,205.1387631893158,205.1387631893158,205.1387631893158,205.1387631893158,205.1387631893158,214.42424535751343,3,9.429093360900879,None,,,,,,,,,,,,,,,,,,131,1,2025-02-26_15h47.27.022,comp,2024.2.4,54.531677826171745,2025-02-26 15h47.39.457542 -0500,
24,24,0,critical,wdh,20.0,4.0,upper,125.0,200.0,141.0,141.0,200.0,125.0,1,3.1692698001861572,None,,,,,0,0,0,0,0,24,24,83,214.43999981880188,,,,,,,,,,,,,,,,,,,,,,,,,,,,,,,,,,,,,,,,,,,,,,,,,,,,,,,,,,,,,,,,,,,,,,,,,,,,,,,,,,125.0,200.0,141.0,141.0,200.0,125.0,4.0,4.1,-266,-266,0,10,229,-254,214.42582511901855,214.4259009361267,214.42920923233032,214.43999981880188,214.58825016021729,214.58825016021729,214.58825016021729,214.58825016021729,214.58825016021729,214.58825016021729,214.58825016021729,217.62554693222046,1,3.1692698001861572,None,,,,,,,,,,,,,,,,,,131,1,2025-02-26_15h47.27.022,comp,2024.2.4,54.531677826171745,2025-02-26 15h47.39.457542 -0500,
25,25,0,critical,wdh,35.0,4.0,lower,57.0,133.0,70.0,70.0,133.0,57.0,3,3.3072688579559326,None,,,,,0,0,0,0,0,25,25,76,217.64607548713684,,,,,,,,,,,,,,,,,,,,,,,,,,,,,,,,,,,,,,,,,,,,,,,,,,,,,,,,,,,,,,,,,,,,,,,,,,,,,,,,,,57.0,133.0,70.0,70.0,133.0,57.0,4.0,4.1,-198,-276,0,-16,160,-256,217.62713718414307,217.62726306915283,217.63059186935425,217.64607548713684,217.79305291175842,217.79305291175842,217.79305291175842,217.79305291175842,217.79305291175842,217.79305291175842,217.79305291175842,220.96194863319397,3,3.3072688579559326,None,,,,,,,,,,,,,,,,,,131,1,2025-02-26_15h47.27.022,comp,2024.2.4,54.531677826171745,2025-02-26 15h47.39.457542 -0500,
26,26,0,critical,hdw,35.0,3.0,upper,200.0,125.0,127.0,127.0,125.0,200.0,3,10.391382932662964,None,,,,,0,0,0,0,0,26,26,111,220.97876119613647,,,,,,,,,,,,,,,,,,,,,,,,,,,,,,,,,,,,,,,,,,,,,,,,,,,,,,,,,,,,,,,,,,,,,,,,,,,,,,,,,,200.0,125.0,127.0,127.0,125.0,200.0,3.0,3.1,-222,263,0,-20,260,-286,220.96355843544006,220.96364092826843,220.96717500686646,220.97876119613647,221.1280484199524,221.1280484199524,221.1280484199524,221.1280484199524,221.1280484199524,221.1280484199524,221.1280484199524,231.3814516067505,3,10.391382932662964,None,,,,,,,,,,,,,,,,,,131,1,2025-02-26_15h47.27.022,comp,2024.2.4,54.531677826171745,2025-02-26 15h47.39.457542 -0500,
27,27,0,critical,dhw,35.0,3.0,lower,70.0,70.0,133.0,57.0,57.0,133.0,2,3.083970546722412,None,,,,,0,0,0,0,0,27,27,50,231.39792704582214,,,,,,,,,,,,,,,,,,,,,,,,,,,,,,,,,,,,,,,,,,,,,,,,,,,,,,,,,,,,,,,,,,,,,,,,,,,,,,,,,,70.0,70.0,133.0,57.0,57.0,133.0,3.0,3.1,-160,286,0,6,191,-284,231.38301181793213,231.3830897808075,231.38712430000305,231.39792704582214,231.55699467658997,231.55699467658997,231.55699467658997,231.55699467658997,231.55699467658997,231.55699467658997,231.55699467658997,234.48416805267334,2,3.083970546722412,None,,,,,,,,,,,,,,,,,,131,1,2025-02-26_15h47.27.022,comp,2024.2.4,54.531677826171745,2025-02-26 15h47.39.457542 -0500,
28,28,0,filler_random,None,None,None,None,None,None,None,None,None,None,1,13.46862268447876,None,,,,,0,0,0,0,0,28,28,130,234.50069880485535,,,,,,,,,,,,,,,,,,,,,,,,,,,,,,,,,,,,,,,,,,,,,,,,,,,,,,,,,,,,,,,,,,,,,,,,,,,,,,,,,,130.86197345390295,146.83824138106223,75.30112311116528,71.88330557952933,171.16675715363925,103.3089236685644,1.0,1.3,275,-277,480,-281,664,-285,234.4860155582428,234.486093044281,234.4891860485077,234.50069880485535,234.64161825180054,234.64161825180054,234.64161825180054,234.64161825180054,234.64161825180054,234.64161825180054,234.64161825180054,247.985533952713,1,13.46862268447876,None,,,,,,,,,,,,,,,,,,131,1,2025-02-26_15h47.27.022,comp,2024.2.4,54.531677826171745,2025-02-26 15h47.39.457542 -0500,
29,29,0,critical,hwd,35.0,2.1,upper,200.0,125.0,125.0,200.0,127.0,127.0,2,9.479358673095703,None,,,,,0,0,0,0,0,29,29,41,248.00192832946777,,,,,,,,,,,,,,,,,,,,,,,,,,,,,,,,,,,,,,,,,,,,,,,,,,,,,,,,,,,,,,,,,,,,,,,,,,,,,,,,,,200.0,125.0,125.0,200.0,127.0,127.0,2.1,2.11,-258,256,0,251,260,-284,247.9872100353241,247.98736715316772,247.99091720581055,248.00192832946777,248.156879901886,248.156879901886,248.156879901886,248.156879901886,248.156879901886,248.156879901886,248.156879901886,257.4924235343933,2,9.479358673095703,None,,,,,,,,,,,,,,,,,,131,1,2025-02-26_15h47.27.022,comp,2024.2.4,54.531677826171745,2025-02-26 15h47.39.457542 -0500,
30,30,0,filler_square,None,None,None,None,None,None,None,None,None,None,1,2.8182730674743652,None,,,,,0,0,0,0,0,30,30,207,257.51102781295776,,,,,,,,,,,,,,,,,,,,,,,,,,,,,,,,,,,,,,,,,,,,,,,,,,,,,,,,,,,,,,,,,,,,,,,,,,,,,,,,,,138.23207234756296,138.23207234756296,86.29929156984625,98.66994532456768,128.95828264441684,127.16349601328109,3.0,3.2,-214,-251,0,1,209,274,257.494343996048,257.49446988105774,257.4977786540985,257.51102781295776,257.6570165157318,257.6570165157318,257.6570165157318,257.6570165157318,257.6570165157318,257.6570165157318,257.6570165157318,260.33935594558716,1,2.8182730674743652,None,,,,,,,,,,,,,,,,,,131,1,2025-02-26_15h47.27.022,comp,2024.2.4,54.531677826171745,2025-02-26 15h47.39.457542 -0500,
31,31,0,critical,dhw,20.0,4.0,upper,141.0,141.0,200.0,125.0,125.0,200.0,2,2.9443206787109375,None,,,,,0,0,0,0,0,31,31,59,260.35395550727844,,,,,,,,,,,,,,,,,,,,,,,,,,,,,,,,,,,,,,,,,,,,,,,,,,,,,,,,,,,,,,,,,,,,,,,,,,,,,,,,,,141.0,141.0,200.0,125.0,125.0,200.0,4.0,4.2,-229,5,0,-268,258,-14,260.3409504890442,260.3410294055939,260.3442325592041,260.35395550727844,260.5100951194763,260.5100951194763,260.5100951194763,260.5100951194763,260.5100951194763,260.5100951194763,260.5100951194763,263.3079710006714,2,2.9443206787109375,None,,,,,,,,,,,,,,,,,,131,1,2025-02-26_15h47.27.022,comp,2024.2.4,54.531677826171745,2025-02-26 15h47.39.457542 -0500,
32,32,0,critical,hdw,35.0,4.0,upper,200.0,125.0,127.0,127.0,125.0,200.0,1,2.148988962173462,None,,,,,0,0,0,0,0,32,32,113,263.3243215084076,,,,,,,,,,,,,,,,,,,,,,,,,,,,,,,,,,,,,,,,,,,,,,,,,,,,,,,,,,,,,,,,,,,,,,,,,,,,,,,,,,200.0,125.0,127.0,127.0,125.0,200.0,4.0,4.2,-222,-12,0,-262,260,-16,263.3094711303711,263.3095495700836,263.3135950565338,263.3243215084076,263.48193621635437,263.48193621635437,263.48193621635437,263.48193621635437,263.48193621635437,263.48193621635437,263.48193621635437,265.4900059700012,1,2.148988962173462,None,,,,,,,,,,,,,,,,,,131,1,2025-02-26_15h47.27.022,comp,2024.2.4,54.531677826171745,2025-02-26 15h47.39.457542 -0500,
33,33,0,filler_square,None,None,None,None,None,None,None,None,None,None,2,1.2708914279937744,None,,,,,0,0,0,0,0,33,33,174,265.50667667388916,,,,,,,,,,,,,,,,,,,,,,,,,,,,,,,,,,,,,,,,,,,,,,,,,,,,,,,,,,,,,,,,,,,,,,,,,,,,,,,,,,90.1623467666455,164.5854616863303,198.30322503187602,198.30322503187602,137.06858477565902,103.4944216615761,4.0,4.1,-277,-268,0,15,247,-268,265.49194955825806,265.4920253753662,265.4952313899994,265.50667667388916,265.65808749198914,265.65808749198914,265.65808749198914,265.65808749198914,265.65808749198914,265.65808749198914,265.65808749198914,266.7798671722412,2,1.2708914279937744,None,,,,,,,,,,,,,,,,,,131,1,2025-02-26_15h47.27.022,comp,2024.2.4,54.531677826171745,2025-02-26 15h47.39.457542 -0500,
34,34,0,filler_square,None,None,None,None,None,None,None,None,None,None,2,1.4591612815856934,None,,,,,0,0,0,0,0,34,34,192,266.7981412410736,,,,,,,,,,,,,,,,,,,,,,,,,,,,,,,,,,,,,,,,,,,,,,,,,,,,,,,,,,,,,,,,,,,,,,,,,,,,,,,,,,98.01861805165946,64.95612344259797,179.44565862623116,179.44565862623116,60.999313507113435,62.58691762588803,2.1,2.11,-218,270,0,284,217,-289,266.78175711631775,266.78186321258545,266.7851583957672,266.7981412410736,266.9423568248749,266.9423568248749,266.9423568248749,266.9423568248749,266.9423568248749,266.9423568248749,266.9423568248749,268.2596433162689,2,1.4591612815856934,None,,,,,,,,,,,,,,,,,,131,1,2025-02-26_15h47.27.022,comp,2024.2.4,54.531677826171745,2025-02-26 15h47.39.457542 -0500,
35,35,0,filler_square,None,None,None,None,None,None,None,None,None,None,2,4.372938871383667,None,,,,,0,0,0,0,0,35,35,170,268.2764685153961,,,,,,,,,,,,,,,,,,,,,,,,,,,,,,,,,,,,,,,,,,,,,,,,,,,,,,,,,,,,,,,,,,,,,,,,,,,,,,,,,,90.75058231822359,116.01072481134206,117.64668395239028,117.64668395239028,77.34067152817684,82.16271492770514,2.1,2.11,-213,257,0,288,196,-257,268.26170897483826,268.26183819770813,268.26570749282837,268.2764685153961,268.428019285202,268.428019285202,268.428019285202,268.428019285202,268.428019285202,268.428019285202,268.428019285202,272.66187381744385,2,4.372938871383667,None,,,,,,,,,,,,,,,,,,131,1,2025-02-26_15h47.27.022,comp,2024.2.4,54.531677826171745,2025-02-26 15h47.39.457542 -0500,
36,36,0,critical,wdh,35.0,3.0,lower,57.0,133.0,70.0,70.0,133.0,57.0,3,3.985799789428711,None,,,,,0,0,0,0,0,36,36,74,272.6796307563782,,,,,,,,,,,,,,,,,,,,,,,,,,,,,,,,,,,,,,,,,,,,,,,,,,,,,,,,,,,,,,,,,,,,,,,,,,,,,,,,,,57.0,133.0,70.0,70.0,133.0,57.0,3.0,3.1,-198,286,0,-16,160,-287,272.6634306907654,272.6635310649872,272.6666901111603,272.6796307563782,272.82626128196716,272.82626128196716,272.82626128196716,272.82626128196716,272.82626128196716,272.82626128196716,272.82626128196716,276.6749711036682,3,3.985799789428711,None,,,,,,,,,,,,,,,,,,131,1,2025-02-26_15h47.27.022,comp,2024.2.4,54.531677826171745,2025-02-26 15h47.39.457542 -0500,
37,37,0,filler_random,None,None,None,None,None,None,None,None,None,None,1,7.566016674041748,None,,,,,0,0,0,0,0,37,37,154,276.6919631958008,,,,,,,,,,,,,,,,,,,,,,,,,,,,,,,,,,,,,,,,,,,,,,,,,,,,,,,,,,,,,,,,,,,,,,,,,,,,,,,,,,102.50408245142256,154.9546239404621,172.00144985407232,61.746665463321506,62.620701053243515,164.51542607925705,2.1,2.12,-204,-256,0,-250,209,276,276.6766631603241,276.67674136161804,276.67966318130493,276.6919631958008,276.8284275531769,276.8284275531769,276.8284275531769,276.8284275531769,276.8284275531769,276.8284275531769,276.8284275531769,284.2627582550049,1,7.566016674041748,None,,,,,,,,,,,,,,,,,,131,1,2025-02-26_15h47.27.022,comp,2024.2.4,54.531677826171745,2025-02-26 15h47.39.457542 -0500,
38,38,0,critical,hdw,35.0,3.0,lower,133.0,57.0,70.0,70.0,57.0,133.0,1,4.9631733894348145,None,,,,,0,0,0,0,0,38,38,110,284.2788324356079,,,,,,,,,,,,,,,,,,,,,,,,,,,,,,,,,,,,,,,,,,,,,,,,,,,,,,,,,,,,,,,,,,,,,,,,,,,,,,,,,,133.0,57.0,70.0,70.0,57.0,133.0,3.0,3.2,-160,-251,0,-11,198,288,284.26431131362915,284.26438879966736,284.26779222488403,284.2788324356079,284.4309756755829,284.4309756755829,284.4309756755829,284.4309756755829,284.4309756755829,284.4309756755829,284.4309756755829,289.2504229545593,1,4.9631733894348145,None,,,,,,,,,,,,,,,,,,131,1,2025-02-26_15h47.27.022,comp,2024.2.4,54.531677826171745,2025-02-26 15h47.39.457542 -0500,
39,39,0,critical,dhw,20.0,4.0,lower,78.0,78.0,133.0,57.0,57.0,133.0,2,3.9502177238464355,None,,,,,0,0,0,0,0,39,39,58,289.2672669887543,,,,,,,,,,,,,,,,,,,,,,,,,,,,,,,,,,,,,,,,,,,,,,,,,,,,,,,,,,,,,,,,,,,,,,,,,,,,,,,,,,78.0,78.0,133.0,57.0,57.0,133.0,4.0,4.2,-164,19,0,-262,191,-4,289.25200843811035,289.2521188259125,289.2555420398712,289.2672669887543,289.41524744033813,289.41524744033813,289.41524744033813,289.41524744033813,289.41524744033813,289.41524744033813,289.41524744033813,293.21940302848816,2,3.9502177238464355,None,,,,,,,,,,,,,,,,,,131,1,2025-02-26_15h47.27.022,comp,2024.2.4,54.531677826171745,2025-02-26 15h47.39.457542 -0500,
40,40,0,critical,whd,20.0,1.0,upper,125.0,200.0,200.0,125.0,141.0,141.0,2,13.82838487625122,None,,,,,0,0,0,0,0,40,40,91,293.23743724823,,,,,,,,,,,,,,,,,,,,,,,,,,,,,,,,,,,,,,,,,,,,,,,,,,,,,,,,,,,,,,,,,,,,,,,,,,,,,,,,,,125.0,200.0,200.0,125.0,141.0,141.0,1.0,1.3,222,-263,480,-272,709,-250,293.2210533618927,293.221129655838,293.2244818210602,293.23743724823,293.3832070827484,293.3832070827484,293.3832070827484,293.3832070827484,293.3832070827484,293.3832070827484,293.3832070827484,307.06989002227783,2,13.82838487625122,None,,,,,,,,,,,,,,,,,,131,1,2025-02-26_15h47.27.022,comp,2024.2.4,54.531677826171745,2025-02-26 15h47.39.457542 -0500,
41,41,0,filler_square,None,None,None,None,None,None,None,None,None,None,1,2.307626724243164,None,,,,,0,0,0,0,0,41,41,196,307.08580112457275,,,,,,,,,,,,,,,,,,,,,,,,,,,,,,,,,,,,,,,,,,,,,,,,,,,,,,,,,,,,,,,,,,,,,,,,,,,,,,,,,,89.72057695150525,89.72057695150525,85.9549560725863,70.56580191008985,72.39705401284598,74.53064622132531,3.0,3.2,-176,-278,0,11,169,268,307.07163286209106,307.07170844078064,307.0747752189636,307.08580112457275,307.2412095069885,307.2412095069885,307.2412095069885,307.2412095069885,307.2412095069885,307.2412095069885,307.2412095069885,309.40373826026917,1,2.307626724243164,None,,,,,,,,,,,,,,,,,,131,1,2025-02-26_15h47.27.022,comp,2024.2.4,54.531677826171745,2025-02-26 15h47.39.457542 -0500,
42,42,0,critical,dwh,20.0,2.1,upper,141.0,141.0,125.0,200.0,200.0,125.0,2,11.237417221069336,None,,,,,0,0,0,0,0,42,42,31,309.42065501213074,,,,,,,,,,,,,,,,,,,,,,,,,,,,,,,,,,,,,,,,,,,,,,,,,,,,,,,,,,,,,,,,,,,,,,,,,,,,,,,,,,141.0,141.0,125.0,200.0,200.0,125.0,2.1,2.12,-266,-278,0,-258,258,281,309.40531969070435,309.4053945541382,309.4087038040161,309.42065501213074,309.5745258331299,309.5745258331299,309.5745258331299,309.5745258331299,309.5745258331299,309.5745258331299,309.5745258331299,320.6657249927521,2,11.237417221069336,None,,,,,,,,,,,,,,,,,,131,1,2025-02-26_15h47.27.022,comp,2024.2.4,54.531677826171745,2025-02-26 15h47.39.457542 -0500,
43,43,0,critical,whd,35.0,1.0,upper,125.0,200.0,200.0,125.0,127.0,127.0,1,2.419278144836426,None,,,,,0,0,0,0,0,43,43,85,320.68652844429016,,,,,,,,,,,,,,,,,,,,,,,,,,,,,,,,,,,,,,,,,,,,,,,,,,,,,,,,,,,,,,,,,,,,,,,,,,,,,,,,,,125.0,200.0,200.0,125.0,127.0,127.0,1.0,1.3,222,-250,480,-263,702,-261,320.6673140525818,320.6673917770386,320.6707673072815,320.68652844429016,320.82529163360596,320.82529163360596,320.82529163360596,320.82529163360596,320.82529163360596,320.82529163360596,320.82529163360596,323.108549118042,1,2.419278144836426,None,,,,,,,,,,,,,,,,,,131,1,2025-02-26_15h47.27.022,comp,2024.2.4,54.531677826171745,2025-02-26 15h47.39.457542 -0500,
44,44,0,filler_random,None,None,None,None,None,None,None,None,None,None,3,6.379547357559204,None,,,,,0,0,0,0,0,44,44,159,323.12641191482544,,,,,,,,,,,,,,,,,,,,,,,,,,,,,,,,,,,,,,,,,,,,,,,,,,,,,,,,,,,,,,,,,,,,,,,,,,,,,,,,,,133.2084930647373,118.71731113320695,60.451496906049286,183.8528404479141,188.98447157635525,116.1957430092826,1.0,1.2,-247,-4,0,-11,246,6,323.1101813316345,323.1102957725525,323.1133680343628,323.12641191482544,323.27803206443787,323.27803206443787,323.27803206443787,323.27803206443787,323.27803206443787,323.27803206443787,323.27803206443787,329.512140750885,3,6.379547357559204,None,,,,,,,,,,,,,,,,,,131,1,2025-02-26_15h47.27.022,comp,2024.2.4,54.531677826171745,2025-02-26 15h47.39.457542 -0500,
45,45,0,critical,wdh,20.0,1.0,lower,57.0,133.0,78.0,78.0,133.0,57.0,1,8.919459581375122,None,,,,,0,0,0,0,0,45,45,78,329.53030824661255,,,,,,,,,,,,,,,,,,,,,,,,,,,,,,,,,,,,,,,,,,,,,,,,,,,,,,,,,,,,,,,,,,,,,,,,,,,,,,,,,,57.0,133.0,78.0,78.0,133.0,57.0,1.0,1.1,-682,265,-480,286,-316,256,329.5138053894043,329.5138826370239,329.51730465888977,329.53030824661255,329.6691572666168,329.6691572666168,329.6691572666168,329.6691572666168,329.6691572666168,329.6691572666168,329.6691572666168,338.46540880203247,1,8.919459581375122,None,,,,,,,,,,,,,,,,,,131,1,2025-02-26_15h47.27.022,comp,2024.2.4,54.531677826171745,2025-02-26 15h47.39.457542 -0500,
46,46,0,critical,hdw,20.0,2.1,upper,200.0,125.0,141.0,141.0,125.0,200.0,1,12.192053079605103,None,,,,,0,0,0,0,0,46,46,47,338.4813015460968,,,,,,,,,,,,,,,,,,,,,,,,,,,,,,,,,,,,,,,,,,,,,,,,,,,,,,,,,,,,,,,,,,,,,,,,,,,,,,,,,,200.0,125.0,141.0,141.0,125.0,200.0,2.1,2.11,-229,280,0,263,266,-287,338.46697092056274,338.467080116272,338.4710478782654,338.4813015460968,338.6295199394226,338.6295199394226,338.6295199394226,338.6295199394226,338.6295199394226,338.6295199394226,338.6295199394226,350.68449568748474,1,12.192053079605103,None,,,,,,,,,,,,,,,,,,131,1,2025-02-26_15h47.27.022,comp,2024.2.4,54.531677826171745,2025-02-26 15h47.39.457542 -0500,
47,47,0,critical,dwh,35.0,4.0,upper,127.0,127.0,125.0,200.0,200.0,125.0,3,6.748874664306641,None,,,,,0,0,0,0,0,47,47,65,350.7009336948395,,,,,,,,,,,,,,,,,,,,,,,,,,,,,,,,,,,,,,,,,,,,,,,,,,,,,,,,,,,,,,,,,,,,,,,,,,,,,,,,,,127.0,127.0,125.0,200.0,200.0,125.0,4.0,4.1,-260,-269,0,-15,258,-288,350.6861581802368,350.68631505966187,350.6898012161255,350.7009336948395,350.8393132686615,350.8393132686615,350.8393132686615,350.8393132686615,350.8393132686615,350.8393132686615,350.8393132686615,357.4524371623993,3,6.748874664306641,None,,,,,,,,,,,,,,,,,,131,1,2025-02-26_15h47.27.022,comp,2024.2.4,54.531677826171745,2025-02-26 15h47.39.457542 -0500,
48,48,0,filler_random,None,None,None,None,None,None,None,None,None,None,2,2.2680070400238037,None,,,,,0,0,0,0,0,48,48,149,357.46952843666077,,,,,,,,,,,,,,,,,,,,,,,,,,,,,,,,,,,,,,,,,,,,,,,,,,,,,,,,,,,,,,,,,,,,,,,,,,,,,,,,,,58.75093293172394,168.97052162557011,166.61091361698755,101.67133619795709,79.80342720143729,83.76298981979805,4.0,4.1,-231,-285,0,-1,189,-252,357.4543442726135,357.45443534851074,357.45769119262695,357.46952843666077,357.61890149116516,357.61890149116516,357.61890149116516,357.61890149116516,357.61890149116516,357.61890149116516,357.61890149116516,359.75376749038696,2,2.2680070400238037,None,,,,,,,,,,,,,,,,,,131,1,2025-02-26_15h47.27.022,comp,2024.2.4,54.531677826171745,2025-02-26 15h47.39.457542 -0500,
49,49,0,critical,dwh,35.0,3.0,lower,70.0,70.0,57.0,133.0,133.0,57.0,3,12.872186422348022,None,,,,,0,0,0,0,0,49,49,62,359.769357919693,,,,,,,,,,,,,,,,,,,,,,,,,,,,,,,,,,,,,,,,,,,,,,,,,,,,,,,,,,,,,,,,,,,,,,,,,,,,,,,,,,70.0,70.0,57.0,133.0,133.0,57.0,3.0,3.2,-198,-260,0,18,191,270,359.75538897514343,359.7555077075958,359.7590296268463,359.769357919693,359.9179050922394,359.9179050922394,359.9179050922394,359.9179050922394,359.9179050922394,359.9179050922394,359.9179050922394,372.65760016441345,3,12.872186422348022,None,,,,,,,,,,,,,,,,,,131,1,2025-02-26_15h47.27.022,comp,2024.2.4,54.531677826171745,2025-02-26 15h47.39.457542 -0500,
50,50,0,filler_random,None,None,None,None,None,None,None,None,None,None,1,40.65327429771423,None,,,,,0,0,0,0,0,50,50,141,372.67672300338745,,,,,,,,,,,,,,,,,,,,,,,,,,,,,,,,,,,,,,,,,,,,,,,,,,,,,,,,,,,,,,,,,,,,,,,,,,,,,,,,,,116.47046457836802,97.41631457535833,135.25480316868712,76.21890006806608,80.4958584799232,130.41018828298434,2.2,2.22,-183,282,0,-270,199,-267,372.6591958999634,372.6592938899994,372.6623532772064,372.67672300338745,372.8249776363373,372.8249776363373,372.8249776363373,372.8249776363373,372.8249776363373,372.8249776363373,372.8249776363373,413.33840131759644,1,40.65327429771423,None,,,,,,,,,,,,,,,,,,131,1,2025-02-26_15h47.27.022,comp,2024.2.4,54.531677826171745,2025-02-26 15h47.39.457542 -0500,
51,51,0,filler_random,None,None,None,None,None,None,None,None,None,None,3,2.2154598236083984,None,,,,,0,0,0,0,0,51,51,169,413.3544888496399,,,,,,,,,,,,,,,,,,,,,,,,,,,,,,,,,,,,,,,,,,,,,,,,,,,,,,,,,,,,,,,,,,,,,,,,,,,,,,,,,,132.98255868373215,64.04647304329177,57.03025014228812,81.26580570738905,170.11392274015435,84.15973684507766,3.0,3.2,-169,-284,0,-2,179,267,413.34012269973755,413.34020256996155,413.34360361099243,413.3544888496399,413.5042896270752,413.5042896270752,413.5042896270752,413.5042896270752,413.5042896270752,413.5042896270752,413.5042896270752,415.5734930038452,3,2.2154598236083984,None,,,,,,,,,,,,,,,,,,131,1,2025-02-26_15h47.27.022,comp,2024.2.4,54.531677826171745,2025-02-26 15h47.39.457542 -0500,
52,52,0,critical,dhw,35.0,2.1,lower,70.0,70.0,133.0,57.0,57.0,133.0,2,2.3675003051757812,None,,,,,0,0,0,0,0,52,52,0,415.594042301178,,,,,,,,,,,,,,,,,,,,,,,,,,,,,,,,,,,,,,,,,,,,,,,,,,,,,,,,,,,,,,,,,,,,,,,,,,,,,,,,,,70.0,70.0,133.0,57.0,57.0,133.0,2.1,2.12,-160,-284,0,-286,191,278,415.5750880241394,415.5751667022705,415.57825779914856,415.594042301178,415.73849296569824,415.73849296569824,415.73849296569824,415.73849296569824,415.73849296569824,415.73849296569824,415.73849296569824,417.97274231910706,2,2.3675003051757812,None,,,,,,,,,,,,,,,,,,131,1,2025-02-26_15h47.27.022,comp,2024.2.4,54.531677826171745,2025-02-26 15h47.39.457542 -0500,
53,53,0,critical,wdh,35.0,3.0,upper,125.0,200.0,127.0,127.0,200.0,125.0,1,6.7624287605285645,None,,,,,0,0,0,0,0,53,53,75,417.99208521842957,,,,,,,,,,,,,,,,,,,,,,,,,,,,,,,,,,,,,,,,,,,,,,,,,,,,,,,,,,,,,,,,,,,,,,,,,,,,,,,,,,125.0,200.0,127.0,127.0,200.0,125.0,3.0,3.2,-260,-286,0,-11,222,273,417.9743437767029,417.9744219779968,417.97773003578186,417.99208521842957,418.1398594379425,418.1398594379425,418.1398594379425,418.1398594379425,418.1398594379425,418.1398594379425,418.1398594379425,424.7592968940735,1,6.7624287605285645,None,,,,,,,,,,,,,,,,,,131,1,2025-02-26_15h47.27.022,comp,2024.2.4,54.531677826171745,2025-02-26 15h47.39.457542 -0500,
54,54,0,critical,dhw,35.0,2.1,upper,127.0,127.0,200.0,125.0,125.0,200.0,3,2.4427080154418945,None,,,,,0,0,0,0,0,54,54,1,424.77584433555603,,,,,,,,,,,,,,,,,,,,,,,,,,,,,,,,,,,,,,,,,,,,,,,,,,,,,,,,,,,,,,,,,,,,,,,,,,,,,,,,,,127.0,127.0,200.0,125.0,125.0,200.0,2.1,2.11,-222,267,0,268,258,-282,424.7608814239502,424.76095938682556,424.764169216156,424.77584433555603,424.92497992515564,424.92497992515564,424.92497992515564,424.92497992515564,424.92497992515564,424.92497992515564,424.92497992515564,427.2244200706482,3,2.4427080154418945,None,,,,,,,,,,,,,,,,,,131,1,2025-02-26_15h47.27.022,comp,2024.2.4,54.531677826171745,2025-02-26 15h47.39.457542 -0500,
55,55,0,catch,None,None,None,None,None,None,None,None,None,None,2,1.055408000946045,None,,,,,0,0,0,0,0,55,55,124,427.24268102645874,,,,,,,,,,,,,,,,,,,,,,,,,,,,,,,,,,,,,,,,,,,,,,,,,,,,,,,,,,,,,,,,,,,,,,,,,,,,,,,,,,131,59,181,144,74,116,2.1,2.11,-198,270,0,251,226,-264,427.2262670993805,427.22634387016296,427.2294170856476,427.24268102645874,427.3934700489044,427.3934700489044,427.3934700489044,427.3934700489044,427.3934700489044,427.3934700489044,427.3934700489044,428.31299781799316,2,1.055408000946045,None,,,,,,,,,,,,,,,,,,131,1,2025-02-26_15h47.27.022,comp,2024.2.4,54.531677826171745,2025-02-26 15h47.39.457542 -0500,
56,56,0,critical,wdh,20.0,3.0,lower,57.0,133.0,78.0,78.0,133.0,57.0,3,5.978079080581665,None,,,,,0,0,0,0,0,56,56,80,428.3278920650482,,,,,,,,,,,,,,,,,,,,,,,,,,,,,,,,,,,,,,,,,,,,,,,,,,,,,,,,,,,,,,,,,,,,,,,,,,,,,,,,,,57.0,133.0,78.0,78.0,133.0,57.0,3.0,3.1,-202,274,0,-4,164,-282,428.31464648246765,428.3147325515747,428.3176386356354,428.3278920650482,428.4793610572815,428.4793610572815,428.4793610572815,428.4793610572815,428.4793610572815,428.4793610572815,428.4793610572815,434.3094599246979,3,5.978079080581665,None,,,,,,,,,,,,,,,,,,131,1,2025-02-26_15h47.27.022,comp,2024.2.4,54.531677826171745,2025-02-26 15h47.39.457542 -0500,
57,57,0,critical,hdw,20.0,4.0,upper,200.0,125.0,141.0,141.0,125.0,200.0,1,2.3559021949768066,None,,,,,0,0,0,0,0,57,57,119,434.32577562332153,,,,,,,,,,,,,,,,,,,,,,,,,,,,,,,,,,,,,,,,,,,,,,,,,,,,,,,,,,,,,,,,,,,,,,,,,,,,,,,,,,200.0,125.0,141.0,141.0,125.0,200.0,4.0,4.1,-229,-260,0,15,266,-251,434.311003446579,434.31108021736145,434.31407856941223,434.32577562332153,434.48060274124146,434.48060274124146,434.48060274124146,434.48060274124146,434.48060274124146,434.48060274124146,434.48060274124146,436.69650959968567,1,2.3559021949768066,None,,,,,,,,,,,,,,,,,,131,1,2025-02-26_15h47.27.022,comp,2024.2.4,54.531677826171745,2025-02-26 15h47.39.457542 -0500,
58,58,0,filler_square,None,None,None,None,None,None,None,None,None,None,1,1.5137391090393066,None,,,,,0,0,0,0,0,58,58,175,436.71246910095215,,,,,,,,,,,,,,,,,,,,,,,,,,,,,,,,,,,,,,,,,,,,,,,,,,,,,,,,,,,,,,,,,,,,,,,,,,,,,,,,,,159.68015905142158,159.68015905142158,116.62311468287132,105.76223181102361,135.16956682495433,58.23587944948471,4.0,4.2,-229,4,0,-269,178,12,436.6984736919403,436.6986038684845,436.702134847641,436.71246910095215,436.8620889186859,436.8620889186859,436.8620889186859,436.8620889186859,436.8620889186859,436.8620889186859,436.8620889186859,438.2308256626129,1,1.5137391090393066,None,,,,,,,,,,,,,,,,,,131,1,2025-02-26_15h47.27.022,comp,2024.2.4,54.531677826171745,2025-02-26 15h47.39.457542 -0500,
59,59,0,critical,hwd,35.0,4.0,lower,133.0,57.0,57.0,133.0,70.0,70.0,2,6.771078824996948,None,,,,,0,0,0,0,0,59,59,100,438.2466082572937,,,,,,,,,,,,,,,,,,,,,,,,,,,,,,,,,,,,,,,,,,,,,,,,,,,,,,,,,,,,,,,,,,,,,,,,,,,,,,,,,,133.0,57.0,57.0,133.0,70.0,70.0,4.0,4.2,-191,-14,0,-265,198,9,438.23250579833984,438.2325894832611,438.2358191013336,438.2466082572937,438.39396238327026,438.39396238327026,438.39396238327026,438.39396238327026,438.39396238327026,438.39396238327026,438.39396238327026,445.0356249809265,2,6.771078824996948,None,,,,,,,,,,,,,,,,,,131,1,2025-02-26_15h47.27.022,comp,2024.2.4,54.531677826171745,2025-02-26 15h47.39.457542 -0500,
60,60,0,catch,None,None,None,None,None,None,None,None,None,None,2,1.1576697826385498,None,,,,,0,0,0,0,0,60,60,128,445.0523200035095,,,,,,,,,,,,,,,,,,,,,,,,,,,,,,,,,,,,,,,,,,,,,,,,,,,,,,,,,,,,,,,,,,,,,,,,,,,,,,,,,,102,88,131,194,95,95,3.0,3.1,-237,276,0,-17,240,-274,445.03746914863586,445.03754591941833,445.0411946773529,445.0523200035095,445.1997253894806,445.1997253894806,445.1997253894806,445.1997253894806,445.1997253894806,445.1997253894806,445.1997253894806,446.21350169181824,2,1.1576697826385498,None,,,,,,,,,,,,,,,,,,131,1,2025-02-26_15h47.27.022,comp,2024.2.4,54.531677826171745,2025-02-26 15h47.39.457542 -0500,
61,61,0,critical,hwd,20.0,1.0,upper,200.0,125.0,125.0,200.0,141.0,141.0,2,13.920216798782349,None,,,,,0,0,0,0,0,61,61,103,446.2333953380585,,,,,,,,,,,,,,,,,,,,,,,,,,,,,,,,,,,,,,,,,,,,,,,,,,,,,,,,,,,,,,,,,,,,,,,,,,,,,,,,,,200.0,125.0,125.0,200.0,141.0,141.0,1.0,1.3,222,-268,480,-253,746,-251,446.21500420570374,446.2150819301605,446.21828532218933,446.2333953380585,446.3818576335907,446.3818576335907,446.3818576335907,446.3818576335907,446.3818576335907,446.3818576335907,446.3818576335907,460.16991901397705,2,13.920216798782349,None,,,,,,,,,,,,,,,,,,131,1,2025-02-26_15h47.27.022,comp,2024.2.4,54.531677826171745,2025-02-26 15h47.39.457542 -0500,
62,62,0,critical,dwh,35.0,1.0,lower,70.0,70.0,57.0,133.0,133.0,57.0,2,28.312285900115967,None,,,,,0,0,0,0,0,62,62,60,460.1854865550995,,,,,,,,,,,,,,,,,,,,,,,,,,,,,,,,,,,,,,,,,,,,,,,,,,,,,,,,,,,,,,,,,,,,,,,,,,,,,,,,,,70.0,70.0,57.0,133.0,133.0,57.0,1.0,1.3,282,-276,480,-257,671,-268,460.17160630226135,460.17168378829956,460.1751353740692,460.1854865550995,460.3390076160431,460.3390076160431,460.3390076160431,460.3390076160431,460.3390076160431,460.3390076160431,460.3390076160431,488.5086295604706,2,28.312285900115967,None,,,,,,,,,,,,,,,,,,131,1,2025-02-26_15h47.27.022,comp,2024.2.4,54.531677826171745,2025-02-26 15h47.39.457542 -0500,
63,63,0,critical,whd,20.0,4.0,upper,125.0,200.0,200.0,125.0,141.0,141.0,1,3.197115182876587,None,,,,,0,0,0,0,0,63,63,95,488.5249264240265,,,,,,,,,,,,,,,,,,,,,,,,,,,,,,,,,,,,,,,,,,,,,,,,,,,,,,,,,,,,,,,,,,,,,,,,,,,,,,,,,,125.0,200.0,200.0,125.0,141.0,141.0,4.0,4.1,-258,-284,0,-12,229,-285,488.5101935863495,488.51029539108276,488.5136811733246,488.5249264240265,488.6770534515381,488.6770534515381,488.6770534515381,488.6770534515381,488.6770534515381,488.6770534515381,488.6770534515381,491.73193550109863,1,3.197115182876587,None,,,,,,,,,,,,,,,,,,131,1,2025-02-26_15h47.27.022,comp,2024.2.4,54.531677826171745,2025-02-26 15h47.39.457542 -0500,
64,64,0,filler_square,None,None,None,None,None,None,None,None,None,None,2,1.7080419063568115,None,,,,,0,0,0,0,0,64,64,195,491.7500674724579,,,,,,,,,,,,,,,,,,,,,,,,,,,,,,,,,,,,,,,,,,,,,,,,,,,,,,,,,,,,,,,,,,,,,,,,,,,,,,,,,,77.86112303505365,86.52440595674759,112.45991065691621,112.45991065691621,62.480740911340455,65.86861777997203,4.0,4.1,-195,-275,0,-12,185,-276,491.7338767051697,491.7339572906494,491.7368757724762,491.7500674724579,491.8959209918976,491.8959209918976,491.8959209918976,491.8959209918976,491.8959209918976,491.8959209918976,491.8959209918976,493.4628257751465,2,1.7080419063568115,None,,,,,,,,,,,,,,,,,,131,1,2025-02-26_15h47.27.022,comp,2024.2.4,54.531677826171745,2025-02-26 15h47.39.457542 -0500,
65,65,0,filler_random,None,None,None,None,None,None,None,None,None,None,2,2.627131223678589,None,,,,,0,0,0,0,0,65,65,135,493.4794466495514,,,,,,,,,,,,,,,,,,,,,,,,,,,,,,,,,,,,,,,,,,,,,,,,,,,,,,,,,,,,,,,,,,,,,,,,,,,,,,,,,,127.73424299743031,86.60479657964673,150.72315971746076,120.42084516386109,93.27229821625686,80.3230989307159,2.1,2.12,-200,-264,0,-254,196,277,493.4645776748657,493.4646556377411,493.46867299079895,493.4794466495514,493.6297311782837,493.6297311782837,493.6297311782837,493.6297311782837,493.6297311782837,493.6297311782837,493.6297311782837,496.1158723831177,2,2.627131223678589,None,,,,,,,,,,,,,,,,,,131,1,2025-02-26_15h47.27.022,comp,2024.2.4,54.531677826171745,2025-02-26 15h47.39.457542 -0500,
66,66,0,critical,whd,20.0,2.1,upper,125.0,200.0,200.0,125.0,141.0,141.0,1,12.582890748977661,None,,,,,0,0,0,0,0,66,66,39,496.13164710998535,,,,,,,,,,,,,,,,,,,,,,,,,,,,,,,,,,,,,,,,,,,,,,,,,,,,,,,,,,,,,,,,,,,,,,,,,,,,,,,,,,125.0,200.0,200.0,125.0,141.0,141.0,2.1,2.12,-258,-287,0,-266,229,274,496.11749243736267,496.117568731308,496.12083864212036,496.13164710998535,496.28049397468567,496.28049397468567,496.28049397468567,496.28049397468567,496.28049397468567,496.28049397468567,496.28049397468567,508.71743631362915,1,12.582890748977661,None,,,,,,,,,,,,,,,,,,131,1,2025-02-26_15h47.27.022,comp,2024.2.4,54.531677826171745,2025-02-26 15h47.39.457542 -0500,
67,67,0,critical,dwh,20.0,3.0,upper,141.0,141.0,125.0,200.0,200.0,125.0,2,16.92470145225525,None,,,,,0,0,0,0,0,67,67,69,508.73313784599304,,,,,,,,,,,,,,,,,,,,,,,,,,,,,,,,,,,,,,,,,,,,,,,,,,,,,,,,,,,,,,,,,,,,,,,,,,,,,,,,,,141.0,141.0,125.0,200.0,200.0,125.0,3.0,3.2,-266,-274,0,-18,258,252,508.71896147727966,508.7190396785736,508.7224278450012,508.73313784599304,508.8905885219574,508.8905885219574,508.8905885219574,508.8905885219574,508.8905885219574,508.8905885219574,508.8905885219574,525.672397851944,2,16.92470145225525,None,,,,,,,,,,,,,,,,,,131,1,2025-02-26_15h47.27.022,comp,2024.2.4,54.531677826171745,2025-02-26 15h47.39.457542 -0500,
68,68,0,filler_square,None,None,None,None,None,None,None,None,None,None,1,2.406959295272827,None,,,,,0,0,0,0,0,68,68,184,525.6921079158783,,,,,,,,,,,,,,,,,,,,,,,,,,,,,,,,,,,,,,,,,,,,,,,,,,,,,,,,,,,,,,,,,,,,,,,,,,,,,,,,,,117.03053852731725,117.03053852731725,59.269751086818864,109.9120664360409,101.23149466750769,96.1963448193006,1.0,1.1,-689,257,-480,268,-281,286,525.6743021011353,525.674427986145,525.677677154541,525.6921079158783,525.8395581245422,525.8395581245422,525.8395581245422,525.8395581245422,525.8395581245422,525.8395581245422,525.8395581245422,528.1041331291199,1,2.406959295272827,None,,,,,,,,,,,,,,,,,,131,1,2025-02-26_15h47.27.022,comp,2024.2.4,54.531677826171745,2025-02-26 15h47.39.457542 -0500,
69,69,0,filler_square,None,None,None,None,None,None,None,None,None,None,2,1.6017956733703613,None,,,,,0,0,0,0,0,69,69,201,528.1205761432648,,,,,,,,,,,,,,,,,,,,,,,,,,,,,,,,,,,,,,,,,,,,,,,,,,,,,,,,,,,,,,,,,,,,,,,,,,,,,,,,,,64.47112048921346,73.73626943875028,94.39786577599455,94.39786577599455,76.83392316357583,74.92989725930497,1.0,1.3,300,-265,480,-257,661,-251,528.1061568260193,528.1062643527985,528.1094605922699,528.1205761432648,528.2716624736786,528.2716624736786,528.2716624736786,528.2716624736786,528.2716624736786,528.2716624736786,528.2716624736786,529.7245979309082,2,1.6017956733703613,None,,,,,,,,,,,,,,,,,,131,1,2025-02-26_15h47.27.022,comp,2024.2.4,54.531677826171745,2025-02-26 15h47.39.457542 -0500,
70,70,0,critical,hdw,20.0,4.0,lower,133.0,57.0,78.0,78.0,57.0,133.0,1,3.7170817852020264,None,,,,,0,0,0,0,0,70,70,118,529.7408964633942,,,,,,,,,,,,,,,,,,,,,,,,,,,,,,,,,,,,,,,,,,,,,,,,,,,,,,,,,,,,,,,,,,,,,,,,,,,,,,,,,,133.0,57.0,78.0,78.0,57.0,133.0,4.0,4.2,-164,-5,0,-290,202,-14,529.7260785102844,529.7261562347412,529.7302403450012,529.7408964633942,529.8891410827637,529.8891410827637,529.8891410827637,529.8891410827637,529.8891410827637,529.8891410827637,529.8891410827637,533.4770712852478,1,3.7170817852020264,None,,,,,,,,,,,,,,,,,,131,1,2025-02-26_15h47.27.022,comp,2024.2.4,54.531677826171745,2025-02-26 15h47.39.457542 -0500,
71,71,0,critical,hwd,20.0,2.1,lower,133.0,57.0,57.0,133.0,78.0,78.0,1,3.900800943374634,None,,,,,0,0,0,0,0,71,71,42,533.4929730892181,,,,,,,,,,,,,,,,,,,,,,,,,,,,,,,,,,,,,,,,,,,,,,,,,,,,,,,,,,,,,,,,,,,,,,,,,,,,,,,,,,133.0,57.0,57.0,133.0,78.0,78.0,2.1,2.12,-191,-288,0,-288,202,287,533.4787425994873,533.4788203239441,533.4817533493042,533.4929730892181,533.6409261226654,533.6409261226654,533.6409261226654,533.6409261226654,533.6409261226654,533.6409261226654,533.6409261226654,537.4088268280029,1,3.900800943374634,None,,,,,,,,,,,,,,,,,,131,1,2025-02-26_15h47.27.022,comp,2024.2.4,54.531677826171745,2025-02-26 15h47.39.457542 -0500,
72,72,0,filler_random,None,None,None,None,None,None,None,None,None,None,3,2.3683650493621826,None,,,,,0,0,0,0,0,72,72,157,537.4253675937653,,,,,,,,,,,,,,,,,,,,,,,,,,,,,,,,,,,,,,,,,,,,,,,,,,,,,,,,,,,,,,,,,,,,,,,,,,,,,,,,,,90.53831746393848,190.47966934395123,189.81686271574645,119.01023165144096,178.07594174720896,153.28729700985625,2.2,2.22,-251,278,0,-261,232,-282,537.410630941391,537.4107604026794,537.4140231609344,537.4253675937653,537.5617878437042,537.5617878437042,537.5617878437042,537.5617878437042,537.5617878437042,537.5617878437042,537.5617878437042,539.8062016963959,3,2.3683650493621826,None,,,,,,,,,,,,,,,,,,131,1,2025-02-26_15h47.27.022,comp,2024.2.4,54.531677826171745,2025-02-26 15h47.39.457542 -0500,
73,73,0,critical,hwd,20.0,1.0,lower,133.0,57.0,57.0,133.0,78.0,78.0,2,8.276113748550415,None,,,,,0,0,0,0,0,73,73,102,539.821849822998,,,,,,,,,,,,,,,,,,,,,,,,,,,,,,,,,,,,,,,,,,,,,,,,,,,,,,,,,,,,,,,,,,,,,,,,,,,,,,,,,,133.0,57.0,57.0,133.0,78.0,78.0,1.0,1.2,-191,-18,0,8,202,9,539.8077280521393,539.807802438736,539.8106908798218,539.821849822998,539.9609632492065,539.9609632492065,539.9609632492065,539.9609632492065,539.9609632492065,539.9609632492065,539.9609632492065,548.1164109706879,2,8.276113748550415,None,,,,,,,,,,,,,,,,,,131,1,2025-02-26_15h47.27.022,comp,2024.2.4,54.531677826171745,2025-02-26 15h47.39.457542 -0500,
74,74,0,filler_random,None,None,None,None,None,None,None,None,None,None,1,8.715397596359253,None,,,,,0,0,0,0,0,74,74,144,548.134566783905,,,,,,,,,,,,,,,,,,,,,,,,,,,,,,,,,,,,,,,,,,,,,,,,,,,,,,,,,,,,,,,,,,,,,,,,,,,,,,,,,,133.80777223623548,198.46487168861836,182.78953256948955,60.28511617872599,178.4940894686299,132.11397347565145,2.2,2.21,-225,-281,0,258,192,279,548.1181633472443,548.1182775497437,548.121331691742,548.134566783905,548.2810044288635,548.2810044288635,548.2810044288635,548.2810044288635,548.2810044288635,548.2810044288635,548.2810044288635,556.8527476787567,1,8.715397596359253,None,,,,,,,,,,,,,,,,,,131,1,2025-02-26_15h47.27.022,comp,2024.2.4,54.531677826171745,2025-02-26 15h47.39.457542 -0500,
75,75,0,filler_square,None,None,None,None,None,None,None,None,None,None,3,1.3378174304962158,None,,,,,0,0,0,0,0,75,75,197,556.8725552558899,,,,,,,,,,,,,,,,,,,,,,,,,,,,,,,,,,,,,,,,,,,,,,,,,,,,,,,,,,,,,,,,,,,,,,,,,,,,,,,,,,87.84727435750705,57.124310440415115,93.72273553181549,98.90436238218902,149.07736787470117,149.07736787470117,1.0,1.2,-174,4,0,7,220,8,556.854814529419,556.8548958301544,556.858119726181,556.8725552558899,557.0169587135315,557.0169587135315,557.0169587135315,557.0169587135315,557.0169587135315,557.0169587135315,557.0169587135315,558.2152645587921,3,1.3378174304962158,None,,,,,,,,,,,,,,,,,,131,1,2025-02-26_15h47.27.022,comp,2024.2.4,54.531677826171745,2025-02-26 15h47.39.457542 -0500,
76,76,0,filler_random,None,None,None,None,None,None,None,None,None,None,2,15.71021056175232,None,,,,,0,0,0,0,0,76,76,163,558.236261844635,,,,,,,,,,,,,,,,,,,,,,,,,,,,,,,,,,,,,,,,,,,,,,,,,,,,,,,,,,,,,,,,,,,,,,,,,,,,,,,,,,111.4138269969242,117.27158934728298,59.10711633459904,199.52809417706231,136.99082203894835,84.76919021187291,4.0,4.2,-254,12,0,-275,238,1,558.2168958187103,558.2169733047485,558.2201175689697,558.236261844635,558.3855454921722,558.3855454921722,558.3855454921722,558.3855454921722,558.3855454921722,558.3855454921722,558.3855454921722,573.9536683559418,2,15.71021056175232,None,,,,,,,,,,,,,,,,,,131,1,2025-02-26_15h47.27.022,comp,2024.2.4,54.531677826171745,2025-02-26 15h47.39.457542 -0500,
77,77,0,critical,hdw,20.0,1.0,lower,133.0,57.0,78.0,78.0,57.0,133.0,1,7.412919282913208,None,,,,,0,0,0,0,0,77,77,114,573.9734473228455,,,,,,,,,,,,,,,,,,,,,,,,,,,,,,,,,,,,,,,,,,,,,,,,,,,,,,,,,,,,,,,,,,,,,,,,,,,,,,,,,,133.0,57.0,78.0,78.0,57.0,133.0,1.0,1.3,316,-259,480,-253,682,-255,573.9551784992218,573.9552962779999,573.9583964347839,573.9734473228455,574.121887922287,574.121887922287,574.121887922287,574.121887922287,574.121887922287,574.121887922287,574.121887922287,581.4056715965271,1,7.412919282913208,None,,,,,,,,,,,,,,,,,,131,1,2025-02-26_15h47.27.022,comp,2024.2.4,54.531677826171745,2025-02-26 15h47.39.457542 -0500,
78,78,0,filler_random,None,None,None,None,None,None,None,None,None,None,3,1.2681100368499756,None,,,,,0,0,0,0,0,78,78,164,581.4216973781586,,,,,,,,,,,,,,,,,,,,,,,,,,,,,,,,,,,,,,,,,,,,,,,,,,,,,,,,,,,,,,,,,,,,,,,,,,,,,,,,,,104.3613646947058,118.4926025539906,128.45220498756646,136.55455151391678,188.43303733323353,161.69882556287945,1.0,1.2,-224,2,0,2,245,-8,581.4073262214661,581.4074001312256,581.4104235172272,581.4216973781586,581.5781276226044,581.5781276226044,581.5781276226044,581.5781276226044,581.5781276226044,581.5781276226044,581.5781276226044,582.6917684078217,3,1.2681100368499756,None,,,,,,,,,,,,,,,,,,131,1,2025-02-26_15h47.27.022,comp,2024.2.4,54.531677826171745,2025-02-26 15h47.39.457542 -0500,
79,79,0,critical,wdh,20.0,2.1,lower,57.0,133.0,78.0,78.0,133.0,57.0,1,10.054023742675781,None,,,,,0,0,0,0,0,79,79,34,582.7078592777252,,,,,,,,,,,,,,,,,,,,,,,,,,,,,,,,,,,,,,,,,,,,,,,,,,,,,,,,,,,,,,,,,,,,,,,,,,,,,,,,,,57.0,133.0,78.0,78.0,133.0,57.0,2.1,2.12,-202,-288,0,-266,164,253,582.6934735774994,582.6936116218567,582.6970026493073,582.7078592777252,582.8608849048615,582.8608849048615,582.8608849048615,582.8608849048615,582.8608849048615,582.8608849048615,582.8608849048615,592.7770276069641,1,10.054023742675781,None,,,,,,,,,,,,,,,,,,131,1,2025-02-26_15h47.27.022,comp,2024.2.4,54.531677826171745,2025-02-26 15h47.39.457542 -0500,
80,80,0,filler_square,None,None,None,None,None,None,None,None,None,None,3,1.8906834125518799,None,,,,,0,0,0,0,0,80,80,187,592.792601108551,,,,,,,,,,,,,,,,,,,,,,,,,,,,,,,,,,,,,,,,,,,,,,,,,,,,,,,,,,,,,,,,,,,,,,,,,,,,,,,,,,75.10437695564087,71.2103384601231,85.02283063863956,75.00443005609573,91.10180866418705,91.10180866418705,2.1,2.11,-169,257,0,288,179,-271,592.7788696289062,592.7789483070374,592.7823576927185,592.792601108551,592.9432752132416,592.9432752132416,592.9432752132416,592.9432752132416,592.9432752132416,592.9432752132416,592.9432752132416,594.6945700645447,3,1.8906834125518799,None,,,,,,,,,,,,,,,,,,131,1,2025-02-26_15h47.27.022,comp,2024.2.4,54.531677826171745,2025-02-26 15h47.39.457542 -0500,
81,81,0,critical,dhw,20.0,2.1,upper,141.0,141.0,200.0,125.0,125.0,200.0,3,14.564172744750977,None,,,,,0,0,0,0,0,81,81,3,594.7096378803253,,,,,,,,,,,,,,,,,,,,,,,,,,,,,,,,,,,,,,,,,,,,,,,,,,,,,,,,,,,,,,,,,,,,,,,,,,,,,,,,,,141.0,141.0,200.0,125.0,125.0,200.0,2.1,2.11,-229,280,0,276,258,-257,594.696191072464,594.6963357925415,594.6997604370117,594.7096378803253,594.8616800308228,594.8616800308228,594.8616800308228,594.8616800308228,594.8616800308228,594.8616800308228,594.8616800308228,609.2877593040466,3,14.564172744750977,None,,,,,,,,,,,,,,,,,,131,1,2025-02-26_15h47.27.022,comp,2024.2.4,54.531677826171745,2025-02-26 15h47.39.457542 -0500,
82,82,0,critical,hwd,35.0,2.1,lower,133.0,57.0,57.0,133.0,70.0,70.0,1,29.713765859603882,None,,,,,0,0,0,0,0,82,82,16,609.3040912151337,,,,,,,,,,,,,,,,,,,,,,,,,,,,,,,,,,,,,,,,,,,,,,,,,,,,,,,,,,,,,,,,,,,,,,,,,,,,,,,,,,133.0,57.0,57.0,133.0,70.0,70.0,2.1,2.12,-191,-254,0,-274,198,286,609.2893307209015,609.2894055843353,609.2927839756012,609.3040912151337,609.4495198726654,609.4495198726654,609.4495198726654,609.4495198726654,609.4495198726654,609.4495198726654,609.4495198726654,639.0297617912292,1,29.713765859603882,None,,,,,,,,,,,,,,,,,,131,1,2025-02-26_15h47.27.022,comp,2024.2.4,54.531677826171745,2025-02-26 15h47.39.457542 -0500,
83,83,0,filler_random,None,None,None,None,None,None,None,None,None,None,2,1.263537883758545,None,,,,,0,0,0,0,0,83,83,143,639.050840139389,,,,,,,,,,,,,,,,,,,,,,,,,,,,,,,,,,,,,,,,,,,,,,,,,,,,,,,,,,,,,,,,,,,,,,,,,,,,,,,,,,70.65868870269058,129.2732453639253,95.02775516579365,193.88410299415,147.8144309163904,83.95761191733799,4.0,4.2,-258,4,0,-282,235,17,639.0316295623779,639.0317294597626,639.0349586009979,639.050840139389,639.192391872406,639.192391872406,639.192391872406,639.192391872406,639.192391872406,639.192391872406,639.192391872406,640.3295543193817,2,1.263537883758545,None,,,,,,,,,,,,,,,,,,131,1,2025-02-26_15h47.27.022,comp,2024.2.4,54.531677826171745,2025-02-26 15h47.39.457542 -0500,
84,84,0,filler_square,None,None,None,None,None,None,None,None,None,None,1,2.016289234161377,None,,,,,0,0,0,0,0,84,84,183,640.3456547260284,,,,,,,,,,,,,,,,,,,,,,,,,,,,,,,,,,,,,,,,,,,,,,,,,,,,,,,,,,,,,,,,,,,,,,,,,,,,,,,,,,126.23552752188846,126.23552752188846,91.9350621178587,109.70580688320386,111.85515537772675,113.44876417112164,2.1,2.11,-214,260,0,285,208,-281,640.3316731452942,640.3317539691925,640.3351032733917,640.3456547260284,640.4927706718445,640.4927706718445,640.4927706718445,640.4927706718445,640.4927706718445,640.4927706718445,640.4927706718445,642.3768811225891,1,2.016289234161377,None,,,,,,,,,,,,,,,,,,131,1,2025-02-26_15h47.27.022,comp,2024.2.4,54.531677826171745,2025-02-26 15h47.39.457542 -0500,
85,85,0,filler_random,None,None,None,None,None,None,None,None,None,None,1,5.737044095993042,None,,,,,0,0,0,0,0,85,85,151,642.3929817676544,,,,,,,,,,,,,,,,,,,,,,,,,,,,,,,,,,,,,,,,,,,,,,,,,,,,,,,,,,,,,,,,,,,,,,,,,,,,,,,,,,128.87066615065146,138.84914001971563,163.70859241949802,79.23769987363957,171.13185782460738,83.14140976434366,2.1,2.11,-205,265,0,260,177,-275,642.3785922527313,642.3786678314209,642.3827052116394,642.3929817676544,642.5457508563995,642.5457508563995,642.5457508563995,642.5457508563995,642.5457508563995,642.5457508563995,642.5457508563995,648.1441423892975,1,5.737044095993042,None,,,,,,,,,,,,,,,,,,131,1,2025-02-26_15h47.27.022,comp,2024.2.4,54.531677826171745,2025-02-26 15h47.39.457542 -0500,
86,86,0,critical,dhw,35.0,2.1,lower,70.0,70.0,133.0,57.0,57.0,133.0,2,4.790437698364258,None,,,,,0,0,0,0,0,86,86,24,648.1641178131104,,,,,,,,,,,,,,,,,,,,,,,,,,,,,,,,,,,,,,,,,,,,,,,,,,,,,,,,,,,,,,,,,,,,,,,,,,,,,,,,,,70.0,70.0,133.0,57.0,57.0,133.0,2.1,2.11,-160,270,0,278,191,-274,648.1456604003906,648.1457345485687,648.1488406658173,648.1641178131104,648.3113224506378,648.3113224506378,648.3113224506378,648.3113224506378,648.3113224506378,648.3113224506378,648.3113224506378,652.9617948532104,2,4.790437698364258,None,,,,,,,,,,,,,,,,,,131,1,2025-02-26_15h47.27.022,comp,2024.2.4,54.531677826171745,2025-02-26 15h47.39.457542 -0500,
87,87,0,filler_square,None,None,None,None,None,None,None,None,None,None,2,1.0434768199920654,None,,,,,0,0,0,0,0,87,87,179,652.982460975647,,,,,,,,,,,,,,,,,,,,,,,,,,,,,,,,,,,,,,,,,,,,,,,,,,,,,,,,,,,,,,,,,,,,,,,,,,,,,,,,,,95.02726960767947,162.00063117967161,163.75690661788127,163.75690661788127,109.72587518836437,100.36025280105156,1.0,1.2,-259,-2,0,0,228,-17,652.963564157486,652.9636421203613,652.9667081832886,652.982460975647,653.1292910575867,653.1292910575867,653.1292910575867,653.1292910575867,653.1292910575867,653.1292910575867,653.1292910575867,654.030125617981,2,1.0434768199920654,None,,,,,,,,,,,,,,,,,,131,1,2025-02-26_15h47.27.022,comp,2024.2.4,54.531677826171745,2025-02-26 15h47.39.457542 -0500,
88,88,0,critical,wdh,35.0,2.1,upper,125.0,200.0,127.0,127.0,200.0,125.0,1,13.835747241973877,None,,,,,0,0,0,0,0,88,88,9,654.046395778656,,,,,,,,,,,,,,,,,,,,,,,,,,,,,,,,,,,,,,,,,,,,,,,,,,,,,,,,,,,,,,,,,,,,,,,,,,,,,,,,,,125.0,200.0,127.0,127.0,200.0,125.0,2.1,2.12,-260,-289,0,-255,222,254,654.0317437648773,654.0318202972412,654.0355105400085,654.046395778656,654.201110124588,654.201110124588,654.201110124588,654.201110124588,654.201110124588,654.201110124588,654.201110124588,667.8846845626831,1,13.835747241973877,None,,,,,,,,,,,,,,,,,,131,1,2025-02-26_15h47.27.022,comp,2024.2.4,54.531677826171745,2025-02-26 15h47.39.457542 -0500,
89,89,0,critical,dwh,35.0,2.1,lower,70.0,70.0,57.0,133.0,133.0,57.0,3,14.248820543289185,None,,,,,0,0,0,0,0,89,89,4,667.9053144454956,,,,,,,,,,,,,,,,,,,,,,,,,,,,,,,,,,,,,,,,,,,,,,,,,,,,,,,,,,,,,,,,,,,,,,,,,,,,,,,,,,70.0,70.0,57.0,133.0,133.0,57.0,2.1,2.12,-198,-254,0,-283,191,261,667.8861453533173,667.8862411975861,667.8893249034882,667.9053144454956,668.0511350631714,668.0511350631714,668.0511350631714,668.0511350631714,668.0511350631714,668.0511350631714,668.0511350631714,682.174480676651,3,14.248820543289185,None,,,,,,,,,,,,,,,,,,131,1,2025-02-26_15h47.27.022,comp,2024.2.4,54.531677826171745,2025-02-26 15h47.39.457542 -0500,
90,90,0,critical,hwd,35.0,4.0,upper,200.0,125.0,125.0,200.0,127.0,127.0,2,10.023789644241333,None,,,,,0,0,0,0,0,90,90,101,682.1949739456177,,,,,,,,,,,,,,,,,,,,,,,,,,,,,,,,,,,,,,,,,,,,,,,,,,,,,,,,,,,,,,,,,,,,,,,,,,,,,,,,,,200.0,125.0,125.0,200.0,127.0,127.0,4.0,4.1,-258,-274,0,-4,260,-250,682.1760656833649,682.1761474609375,682.179563999176,682.1949739456177,682.3381631374359,682.3381631374359,682.3381631374359,682.3381631374359,682.3381631374359,682.3381631374359,682.3381631374359,692.2268462181091,2,10.023789644241333,None,,,,,,,,,,,,,,,,,,131,1,2025-02-26_15h47.27.022,comp,2024.2.4,54.531677826171745,2025-02-26 15h47.39.457542 -0500,
91,91,0,critical,whd,35.0,2.1,lower,57.0,133.0,133.0,57.0,70.0,70.0,2,11.813241481781006,None,,,,,0,0,0,0,0,91,91,12,692.245153427124,,,,,,,,,,,,,,,,,,,,,,,,,,,,,,,,,,,,,,,,,,,,,,,,,,,,,,,,,,,,,,,,,,,,,,,,,,,,,,,,,,57.0,133.0,133.0,57.0,70.0,70.0,2.1,2.11,-191,270,0,273,160,-288,692.2285575866699,692.228634595871,692.2315752506256,692.245153427124,692.3924071788788,692.3924071788788,692.3924071788788,692.3924071788788,692.3924071788788,692.3924071788788,692.3924071788788,704.0611100196838,2,11.813241481781006,None,,,,,,,,,,,,,,,,,,131,1,2025-02-26_15h47.27.022,comp,2024.2.4,54.531677826171745,2025-02-26 15h47.39.457542 -0500,
92,92,0,critical,dwh,35.0,4.0,lower,70.0,70.0,57.0,133.0,133.0,57.0,3,8.245042562484741,None,,,,,0,0,0,0,0,92,92,64,704.0775232315063,,,,,,,,,,,,,,,,,,,,,,,,,,,,,,,,,,,,,,,,,,,,,,,,,,,,,,,,,,,,,,,,,,,,,,,,,,,,,,,,,,70.0,70.0,57.0,133.0,133.0,57.0,4.0,4.2,-198,6,0,-254,191,17,704.0626010894775,704.0626800060272,704.0658361911774,704.0775232315063,704.2350764274597,704.2350764274597,704.2350764274597,704.2350764274597,704.2350764274597,704.2350764274597,704.2350764274597,712.3330328464508,3,8.245042562484741,None,,,,,,,,,,,,,,,,,,131,1,2025-02-26_15h47.27.022,comp,2024.2.4,54.531677826171745,2025-02-26 15h47.39.457542 -0500,
93,93,0,critical,wdh,20.0,2.1,upper,125.0,200.0,141.0,141.0,200.0,125.0,1,5.96380615234375,None,,,,,0,0,0,0,0,93,93,11,712.3508434295654,,,,,,,,,,,,,,,,,,,,,,,,,,,,,,,,,,,,,,,,,,,,,,,,,,,,,,,,,,,,,,,,,,,,,,,,,,,,,,,,,,125.0,200.0,141.0,141.0,200.0,125.0,2.1,2.11,-266,259,0,280,229,-266,712.334609746933,712.3347346782684,712.3376684188843,712.3508434295654,712.4982616901398,712.4982616901398,712.4982616901398,712.4982616901398,712.4982616901398,712.4982616901398,712.4982616901398,718.3168947696686,1,5.96380615234375,None,,,,,,,,,,,,,,,,,,131,1,2025-02-26_15h47.27.022,comp,2024.2.4,54.531677826171745,2025-02-26 15h47.39.457542 -0500,
94,94,0,critical,whd,20.0,4.0,lower,57.0,133.0,133.0,57.0,78.0,78.0,2,5.772719144821167,None,,,,,0,0,0,0,0,94,94,94,718.3333718776703,,,,,,,,,,,,,,,,,,,,,,,,,,,,,,,,,,,,,,,,,,,,,,,,,,,,,,,,,,,,,,,,,,,,,,,,,,,,,,,,,,57.0,133.0,133.0,57.0,78.0,78.0,4.0,4.1,-191,-266,0,-15,164,-254,718.3185360431671,718.3186235427856,718.3221614360809,718.3333718776703,718.4866530895233,718.4866530895233,718.4866530895233,718.4866530895233,718.4866530895233,718.4866530895233,718.4866530895233,724.1193799972534,2,5.772719144821167,None,,,,,,,,,,,,,,,,,,131,1,2025-02-26_15h47.27.022,comp,2024.2.4,54.531677826171745,2025-02-26 15h47.39.457542 -0500,
95,95,0,filler_random,None,None,None,None,None,None,None,None,None,None,2,11.008737087249756,None,,,,,0,0,0,0,0,95,95,156,724.1373987197876,,,,,,,,,,,,,,,,,,,,,,,,,,,,,,,,,,,,,,,,,,,,,,,,,,,,,,,,,,,,,,,,,,,,,,,,,,,,,,,,,,187.13710788515488,64.68080862516862,137.1137975398495,130.47570347602993,60.54632224555071,134.81797668589556,1.0,1.3,286,-253,480,-289,709,-271,724.1210947036743,724.1211712360382,724.1242954730988,724.1373987197876,724.2843461036682,724.2843461036682,724.2843461036682,724.2843461036682,724.2843461036682,724.2843461036682,724.2843461036682,735.1589703559875,2,11.008737087249756,None,,,,,,,,,,,,,,,,,,131,1,2025-02-26_15h47.27.022,comp,2024.2.4,54.531677826171745,2025-02-26 15h47.39.457542 -0500,
96,96,0,critical,hwd,35.0,1.0,upper,200.0,125.0,125.0,200.0,127.0,127.0,2,18.435701370239258,None,,,,,0,0,0,0,0,96,96,97,735.1749105453491,,,,,,,,,,,,,,,,,,,,,,,,,,,,,,,,,,,,,,,,,,,,,,,,,,,,,,,,,,,,,,,,,,,,,,,,,,,,,,,,,,200.0,125.0,125.0,200.0,127.0,127.0,1.0,1.2,-258,-17,0,20,260,14,735.1605627536774,735.1606402397156,735.1640648841858,735.1749105453491,735.3262958526611,735.3262958526611,735.3262958526611,735.3262958526611,735.3262958526611,735.3262958526611,735.3262958526611,753.6276841163635,2,18.435701370239258,None,,,,,,,,,,,,,,,,,,131,1,2025-02-26_15h47.27.022,comp,2024.2.4,54.531677826171745,2025-02-26 15h47.39.457542 -0500,
97,97,0,critical,whd,20.0,2.1,lower,57.0,133.0,133.0,57.0,78.0,78.0,2,8.983206510543823,None,,,,,0,0,0,0,0,97,97,14,753.643141746521,,,,,,,,,,,,,,,,,,,,,,,,,,,,,,,,,,,,,,,,,,,,,,,,,,,,,,,,,,,,,,,,,,,,,,,,,,,,,,,,,,57.0,133.0,133.0,57.0,78.0,78.0,2.1,2.11,-191,254,0,255,164,-263,753.62939286232,753.6295247077942,753.6328663825989,753.643141746521,753.7935667037964,753.7935667037964,753.7935667037964,753.7935667037964,753.7935667037964,753.7935667037964,753.7935667037964,762.6328482627869,2,8.983206510543823,None,,,,,,,,,,,,,,,,,,131,1,2025-02-26_15h47.27.022,comp,2024.2.4,54.531677826171745,2025-02-26 15h47.39.457542 -0500,
98,98,0,critical,whd,35.0,2.1,upper,125.0,200.0,200.0,125.0,127.0,127.0,2,15.399474382400513,None,,,,,0,0,0,0,0,98,98,13,762.6510560512543,,,,,,,,,,,,,,,,,,,,,,,,,,,,,,,,,,,,,,,,,,,,,,,,,,,,,,,,,,,,,,,,,,,,,,,,,,,,,,,,,,125.0,200.0,200.0,125.0,127.0,127.0,2.1,2.12,-258,-276,0,-262,222,288,762.6344962120056,762.6345744132996,762.6377685070038,762.6510560512543,762.8020074367523,762.8020074367523,762.8020074367523,762.8020074367523,762.8020074367523,762.8020074367523,762.8020074367523,778.0527153015137,2,15.399474382400513,None,,,,,,,,,,,,,,,,,,131,1,2025-02-26_15h47.27.022,comp,2024.2.4,54.531677826171745,2025-02-26 15h47.39.457542 -0500,
99,99,0,filler_square,None,None,None,None,None,None,None,None,None,None,2,1.2258803844451904,None,,,,,0,0,0,0,0,99,99,199,778.0724010467529,,,,,,,,,,,,,,,,,,,,,,,,,,,,,,,,,,,,,,,,,,,,,,,,,,,,,,,,,,,,,,,,,,,,,,,,,,,,,,,,,,86.58783288142472,120.82026476382092,168.69625085151574,168.69625085151574,72.05071909996364,96.05423544056886,2.2,2.21,-241,-283,0,277,228,262,778.0547544956207,778.0548367500305,778.0581798553467,778.0724010467529,778.2194309234619,778.2194309234619,778.2194309234619,778.2194309234619,778.2194309234619,778.2194309234619,778.2194309234619,779.302332162857,2,1.2258803844451904,None,,,,,,,,,,,,,,,,,,131,1,2025-02-26_15h47.27.022,comp,2024.2.4,54.531677826171745,2025-02-26 15h47.39.457542 -0500,
100,100,0,filler_random,None,None,None,None,None,None,None,None,None,None,3,4.829547882080078,None,,,,,0,0,0,0,0,100,100,146,779.3181872367859,,,,,,,,,,,,,,,,,,,,,,,,,,,,,,,,,,,,,,,,,,,,,,,,,,,,,,,,,,,,,,,,,,,,,,,,,,,,,,,,,,110.90512125179606,127.83488166193413,69.7883421417486,168.8186168275817,83.85394984385503,164.86561152992047,2.1,2.12,-244,-255,0,-268,263,284,779.3040063381195,779.3040833473206,779.3074786663055,779.3181872367859,779.4706633090973,779.4706633090973,779.4706633090973,779.4706633090973,779.4706633090973,779.4706633090973,779.4706633090973,784.1506140232086,3,4.829547882080078,None,,,,,,,,,,,,,,,,,,131,1,2025-02-26_15h47.27.022,comp,2024.2.4,54.531677826171745,2025-02-26 15h47.39.457542 -0500,
101,101,0,critical,hdw,20.0,3.0,lower,133.0,57.0,78.0,78.0,57.0,133.0,1,3.3382534980773926,None,,,,,0,0,0,0,0,101,101,116,784.1679327487946,,,,,,,,,,,,,,,,,,,,,,,,,,,,,,,,,,,,,,,,,,,,,,,,,,,,,,,,,,,,,,,,,,,,,,,,,,,,,,,,,,133.0,57.0,78.0,78.0,57.0,133.0,3.0,3.1,-164,250,0,8,202,-252,784.1521928310394,784.1523044109344,784.1556234359741,784.1679327487946,784.3035709857941,784.3035709857941,784.3035709857941,784.3035709857941,784.3035709857941,784.3035709857941,784.3035709857941,787.5101408958435,1,3.3382534980773926,None,,,,,,,,,,,,,,,,,,131,1,2025-02-26_15h47.27.022,comp,2024.2.4,54.531677826171745,2025-02-26 15h47.39.457542 -0500,
102,102,0,filler_square,None,None,None,None,None,None,None,None,None,None,1,1.0971252918243408,None,,,,,0,0,0,0,0,102,102,205,787.5308518409729,,,,,,,,,,,,,,,,,,,,,,,,,,,,,,,,,,,,,,,,,,,,,,,,,,,,,,,,,,,,,,,,,,,,,,,,,,,,,,,,,,138.2610500146307,138.2610500146307,62.55752106931259,57.10045350795193,113.10274007260341,136.17185080971595,2.2,2.22,-194,257,0,-283,193,-263,787.5120582580566,787.5121877193451,787.5151426792145,787.5308518409729,787.6713955402374,787.6713955402374,787.6713955402374,787.6713955402374,787.6713955402374,787.6713955402374,787.6713955402374,788.6392488479614,1,1.0971252918243408,None,,,,,,,,,,,,,,,,,,131,1,2025-02-26_15h47.27.022,comp,2024.2.4,54.531677826171745,2025-02-26 15h47.39.457542 -0500,
103,103,0,critical,dwh,20.0,1.0,lower,78.0,78.0,57.0,133.0,133.0,57.0,2,5.531268119812012,None,,,,,0,0,0,0,0,103,103,66,788.6551902294159,,,,,,,,,,,,,,,,,,,,,,,,,,,,,,,,,,,,,,,,,,,,,,,,,,,,,,,,,,,,,,,,,,,,,,,,,,,,,,,,,,78.0,78.0,57.0,133.0,133.0,57.0,1.0,1.1,-682,283,-480,253,-289,258,788.640754699707,788.6408321857452,788.6445710659027,788.6551902294159,788.8038277626038,788.8038277626038,788.8038277626038,788.8038277626038,788.8038277626038,788.8038277626038,788.8038277626038,794.1894419193268,2,5.531268119812012,None,,,,,,,,,,,,,,,,,,131,1,2025-02-26_15h47.27.022,comp,2024.2.4,54.531677826171745,2025-02-26 15h47.39.457542 -0500,
104,104,0,filler_random,None,None,None,None,None,None,None,None,None,None,2,1.1879746913909912,None,,,,,0,0,0,0,0,104,104,155,794.2063357830048,,,,,,,,,,,,,,,,,,,,,,,,,,,,,,,,,,,,,,,,,,,,,,,,,,,,,,,,,,,,,,,,,,,,,,,,,,,,,,,,,,105.23053109071924,82.09349828320009,150.50329473166508,149.84516102525433,106.2257681495138,107.04723422068881,4.0,4.2,-212,-5,0,-280,224,0,794.1912770271301,794.1914041042328,794.1946680545807,794.2063357830048,794.3530957698822,794.3530957698822,794.3530957698822,794.3530957698822,794.3530957698822,794.3530957698822,794.3530957698822,795.4068531990051,2,1.1879746913909912,None,,,,,,,,,,,,,,,,,,131,1,2025-02-26_15h47.27.022,comp,2024.2.4,54.531677826171745,2025-02-26 15h47.39.457542 -0500,
105,105,0,filler_random,None,None,None,None,None,None,None,None,None,None,2,12.112956047058105,None,,,,,0,0,0,0,0,105,105,137,795.4262428283691,,,,,,,,,,,,,,,,,,,,,,,,,,,,,,,,,,,,,,,,,,,,,,,,,,,,,,,,,,,,,,,,,,,,,,,,,,,,,,,,,,139.75644761063234,99.05026511903333,111.05693086509277,181.90256343139646,105.47147305303602,84.39817643624578,2.2,2.22,-236,262,0,-252,229,-267,795.4085073471069,795.4085841178894,795.4116334915161,795.4262428283691,795.5738642215729,795.5738642215729,795.5738642215729,795.5738642215729,795.5738642215729,795.5738642215729,795.5738642215729,807.5456478595734,2,12.112956047058105,None,,,,,,,,,,,,,,,,,,131,1,2025-02-26_15h47.27.022,comp,2024.2.4,54.531677826171745,2025-02-26 15h47.39.457542 -0500,
106,106,0,critical,dwh,20.0,2.1,lower,78.0,78.0,57.0,133.0,133.0,57.0,3,10.007099390029907,None,,,,,0,0,0,0,0,106,106,6,807.5630459785461,,,,,,,,,,,,,,,,,,,,,,,,,,,,,,,,,,,,,,,,,,,,,,,,,,,,,,,,,,,,,,,,,,,,,,,,,,,,,,,,,,78.0,78.0,57.0,133.0,133.0,57.0,2.1,2.11,-202,286,0,266,191,-256,807.5472390651703,807.5473177433014,807.5514402389526,807.5630459785461,807.7104690074921,807.7104690074921,807.7104690074921,807.7104690074921,807.7104690074921,807.7104690074921,807.7104690074921,817.5797445774078,3,10.007099390029907,None,,,,,,,,,,,,,,,,,,131,1,2025-02-26_15h47.27.022,comp,2024.2.4,54.531677826171745,2025-02-26 15h47.39.457542 -0500,
107,107,0,filler_square,None,None,None,None,None,None,None,None,None,None,3,2.182192087173462,None,,,,,0,0,0,0,0,107,107,203,817.5965709686279,,,,,,,,,,,,,,,,,,,,,,,,,,,,,,,,,,,,,,,,,,,,,,,,,,,,,,,,,,,,,,,,,,,,,,,,,,,,,,,,,,117.14057449163138,75.11457557723222,104.36863482587965,80.01806356048559,119.00472140214919,119.00472140214919,2.2,2.22,-174,285,0,-257,196,-256,817.5815036296844,817.5815808773041,817.5847554206848,817.5965709686279,817.7516982555389,817.7516982555389,817.7516982555389,817.7516982555389,817.7516982555389,817.7516982555389,817.7516982555389,819.7821192741394,3,2.182192087173462,None,,,,,,,,,,,,,,,,,,131,1,2025-02-26_15h47.27.022,comp,2024.2.4,54.531677826171745,2025-02-26 15h47.39.457542 -0500,
108,108,0,critical,hwd,20.0,3.0,lower,133.0,57.0,57.0,133.0,78.0,78.0,1,23.47517418861389,None,,,,,0,0,0,0,0,108,108,104,819.799375295639,,,,,,,,,,,,,,,,,,,,,,,,,,,,,,,,,,,,,,,,,,,,,,,,,,,,,,,,,,,,,,,,,,,,,,,,,,,,,,,,,,133.0,57.0,57.0,133.0,78.0,78.0,3.0,3.2,-191,-278,0,20,202,261,819.7836549282074,819.7837326526642,819.7877907752991,819.799375295639,819.9486880302429,819.9486880302429,819.9486880302429,819.9486880302429,819.9486880302429,819.9486880302429,819.9486880302429,843.2770175933838,1,23.47517418861389,None,,,,,,,,,,,,,,,,,,131,1,2025-02-26_15h47.27.022,comp,2024.2.4,54.531677826171745,2025-02-26 15h47.39.457542 -0500,
109,109,0,critical,wdh,35.0,1.0,lower,57.0,133.0,70.0,70.0,133.0,57.0,1,8.661186456680298,None,,,,,0,0,0,0,0,109,109,72,843.2936925888062,,,,,,,,,,,,,,,,,,,,,,,,,,,,,,,,,,,,,,,,,,,,,,,,,,,,,,,,,,,,,,,,,,,,,,,,,,,,,,,,,,57.0,133.0,70.0,70.0,133.0,57.0,1.0,1.2,-198,7,0,16,160,-10,843.2785913944244,843.2786662578583,843.2819662094116,843.2936925888062,843.4425630569458,843.4425630569458,843.4425630569458,843.4425630569458,843.4425630569458,843.4425630569458,843.4425630569458,851.959657907486,1,8.661186456680298,None,,,,,,,,,,,,,,,,,,131,1,2025-02-26_15h47.27.022,comp,2024.2.4,54.531677826171745,2025-02-26 15h47.39.457542 -0500,
110,110,0,critical,dhw,35.0,1.0,lower,70.0,70.0,133.0,57.0,57.0,133.0,2,21.706191301345825,None,,,,,0,0,0,0,0,110,110,48,851.9761526584625,,,,,,,,,,,,,,,,,,,,,,,,,,,,,,,,,,,,,,,,,,,,,,,,,,,,,,,,,,,,,,,,,,,,,,,,,,,,,,,,,,70.0,70.0,133.0,57.0,57.0,133.0,1.0,1.2,-160,-14,0,10,191,6,851.9611237049103,851.9611999988556,851.965193271637,851.9761526584625,852.122921705246,852.122921705246,852.122921705246,852.122921705246,852.122921705246,852.122921705246,852.122921705246,873.7017297744751,2,21.706191301345825,None,,,,,,,,,,,,,,,,,,131,1,2025-02-26_15h47.27.022,comp,2024.2.4,54.531677826171745,2025-02-26 15h47.39.457542 -0500,
111,111,0,filler_square,None,None,None,None,None,None,None,None,None,None,2,12.38551139831543,None,,,,,0,0,0,0,0,111,111,208,873.7208371162415,,,,,,,,,,,,,,,,,,,,,,,,,,,,,,,,,,,,,,,,,,,,,,,,,,,,,,,,,,,,,,,,,,,,,,,,,,,,,,,,,,80.69579905548822,81.36008029627234,82.7787065218601,82.7787065218601,75.5489218803009,63.30639411274461,3.0,3.2,-178,-272,0,5,169,259,873.7037246227264,873.7038550376892,873.7074453830719,873.7208371162415,873.8665838241577,873.8665838241577,873.8665838241577,873.8665838241577,873.8665838241577,873.8665838241577,873.8665838241577,886.1166174411774,2,12.38551139831543,None,,,,,,,,,,,,,,,,,,131,1,2025-02-26_15h47.27.022,comp,2024.2.4,54.531677826171745,2025-02-26 15h47.39.457542 -0500,
112,112,0,filler_square,None,None,None,None,None,None,None,None,None,None,2,1.725445032119751,None,,,,,0,0,0,0,0,112,112,194,886.1336579322815,,,,,,,,,,,,,,,,,,,,,,,,,,,,,,,,,,,,,,,,,,,,,,,,,,,,,,,,,,,,,,,,,,,,,,,,,,,,,,,,,,58.75526269714217,92.51008420145328,128.00680839413747,128.00680839413747,125.44615591588652,115.01603881592854,3.0,3.1,-206,273,0,-17,218,-277,886.1185572147369,886.1186330318451,886.121960401535,886.1336579322815,886.2868249416351,886.2868249416351,886.2868249416351,886.2868249416351,886.2868249416351,886.2868249416351,886.2868249416351,887.8698279857635,2,1.725445032119751,None,,,,,,,,,,,,,,,,,,131,1,2025-02-26_15h47.27.022,comp,2024.2.4,54.531677826171745,2025-02-26 15h47.39.457542 -0500,
113,113,0,critical,dhw,35.0,4.0,upper,127.0,127.0,200.0,125.0,125.0,200.0,3,5.068965911865234,None,,,,,0,0,0,0,0,113,113,53,887.8856172561646,,,,,,,,,,,,,,,,,,,,,,,,,,,,,,,,,,,,,,,,,,,,,,,,,,,,,,,,,,,,,,,,,,,,,,,,,,,,,,,,,,127.0,127.0,200.0,125.0,125.0,200.0,4.0,4.2,-222,6,0,-277,258,-3,887.8713035583496,887.8713808059692,887.8747522830963,887.8856172561646,888.0270609855652,888.0270609855652,888.0270609855652,888.0270609855652,888.0270609855652,888.0270609855652,888.0270609855652,892.9583332538605,3,5.068965911865234,None,,,,,,,,,,,,,,,,,,131,1,2025-02-26_15h47.27.022,comp,2024.2.4,54.531677826171745,2025-02-26 15h47.39.457542 -0500,
114,114,0,critical,hdw,35.0,2.1,upper,200.0,125.0,127.0,127.0,125.0,200.0,3,4.026489496231079,None,,,,,0,0,0,0,0,114,114,21,892.9760875701904,,,,,,,,,,,,,,,,,,,,,,,,,,,,,,,,,,,,,,,,,,,,,,,,,,,,,,,,,,,,,,,,,,,,,,,,,,,,,,,,,,200.0,125.0,127.0,127.0,125.0,200.0,2.1,2.12,-222,-286,0,-267,260,287,892.9598813056946,892.9599604606628,892.9629051685333,892.9760875701904,893.121244430542,893.121244430542,893.121244430542,893.121244430542,893.121244430542,893.121244430542,893.121244430542,897.005384683609,3,4.026489496231079,None,,,,,,,,,,,,,,,,,,131,1,2025-02-26_15h47.27.022,comp,2024.2.4,54.531677826171745,2025-02-26 15h47.39.457542 -0500,
115,115,0,filler_random,None,None,None,None,None,None,None,None,None,None,3,3.4750471115112305,None,,,,,0,0,0,0,0,115,115,162,897.0238904953003,,,,,,,,,,,,,,,,,,,,,,,,,,,,,,,,,,,,,,,,,,,,,,,,,,,,,,,,,,,,,,,,,,,,,,,,,,,,,,,,,,173.83914925933857,70.65713915273858,166.070054846941,90.39703828842111,161.2053818310659,122.86727943536137,3.0,3.2,-177,-288,0,-8,203,254,897.0070834159851,897.0071794986725,897.010650396347,897.0238904953003,897.176278591156,897.176278591156,897.176278591156,897.176278591156,897.176278591156,897.176278591156,897.176278591156,900.5078177452087,3,3.4750471115112305,None,,,,,,,,,,,,,,,,,,131,1,2025-02-26_15h47.27.022,comp,2024.2.4,54.531677826171745,2025-02-26 15h47.39.457542 -0500,
116,116,0,critical,dwh,20.0,2.1,lower,78.0,78.0,57.0,133.0,133.0,57.0,3,6.798701763153076,None,,,,,0,0,0,0,0,116,116,30,900.5236504077911,,,,,,,,,,,,,,,,,,,,,,,,,,,,,,,,,,,,,,,,,,,,,,,,,,,,,,,,,,,,,,,,,,,,,,,,,,,,,,,,,,78.0,78.0,57.0,133.0,133.0,57.0,2.1,2.11,-202,284,0,275,191,-260,900.5093228816986,900.5094211101532,900.5127956867218,900.5236504077911,900.6769664287567,900.6769664287567,900.6769664287567,900.6769664287567,900.6769664287567,900.6769664287567,900.6769664287567,907.3325462341309,3,6.798701763153076,None,,,,,,,,,,,,,,,,,,131,1,2025-02-26_15h47.27.022,comp,2024.2.4,54.531677826171745,2025-02-26 15h47.39.457542 -0500,
117,117,0,filler_square,None,None,None,None,None,None,None,None,None,None,2,1.7742137908935547,None,,,,,0,0,0,0,0,117,117,202,907.3481757640839,,,,,,,,,,,,,,,,,,,,,,,,,,,,,,,,,,,,,,,,,,,,,,,,,,,,,,,,,,,,,,,,,,,,,,,,,,,,,,,,,,106.20172519699258,122.05902175646128,149.83670516414287,149.83670516414287,105.23170590677313,82.05667954745749,4.0,4.2,-232,20,0,-274,212,14,907.3342614173889,907.3343410491943,907.3372333049774,907.3481757640839,907.4935719966888,907.4935719966888,907.4935719966888,907.4935719966888,907.4935719966888,907.4935719966888,907.4935719966888,909.140070438385,2,1.7742137908935547,None,,,,,,,,,,,,,,,,,,131,1,2025-02-26_15h47.27.022,comp,2024.2.4,54.531677826171745,2025-02-26 15h47.39.457542 -0500,
118,118,0,critical,whd,20.0,3.0,lower,57.0,133.0,133.0,57.0,78.0,78.0,1,21.31093192100525,None,,,,,0,0,0,0,0,118,118,92,909.1555972099304,,,,,,,,,,,,,,,,,,,,,,,,,,,,,,,,,,,,,,,,,,,,,,,,,,,,,,,,,,,,,,,,,,,,,,,,,,,,,,,,,,57.0,133.0,133.0,57.0,78.0,78.0,3.0,3.2,-191,-277,0,19,164,253,909.1415748596191,909.1416511535645,909.1445128917694,909.1555972099304,909.2927038669586,909.2927038669586,909.2927038669586,909.2927038669586,909.2927038669586,909.2927038669586,909.2927038669586,930.472945690155,1,21.31093192100525,None,,,,,,,,,,,,,,,,,,131,1,2025-02-26_15h47.27.022,comp,2024.2.4,54.531677826171745,2025-02-26 15h47.39.457542 -0500,
119,119,0,catch,None,None,None,None,None,None,None,None,None,None,1,1.3778643608093262,None,,,,,0,0,0,0,0,119,119,122,930.4885087013245,,,,,,,,,,,,,,,,,,,,,,,,,,,,,,,,,,,,,,,,,,,,,,,,,,,,,,,,,,,,,,,,,,,,,,,,,,,,,,,,,,198,127,115,75,73,117,3.0,3.2,-197,-256,0,13,192,267,930.4747769832611,930.4748549461365,930.477730512619,930.4885087013245,930.633528470993,930.633528470993,930.633528470993,930.633528470993,930.633528470993,930.633528470993,930.633528470993,931.8822946548462,1,1.3778643608093262,None,,,,,,,,,,,,,,,,,,131,1,2025-02-26_15h47.27.022,comp,2024.2.4,54.531677826171745,2025-02-26 15h47.39.457542 -0500,
120,120,0,critical,whd,35.0,2.1,lower,57.0,133.0,133.0,57.0,70.0,70.0,2,8.87239694595337,None,,,,,0,0,0,0,0,120,120,36,931.8980848789215,,,,,,,,,,,,,,,,,,,,,,,,,,,,,,,,,,,,,,,,,,,,,,,,,,,,,,,,,,,,,,,,,,,,,,,,,,,,,,,,,,57.0,133.0,133.0,57.0,70.0,70.0,2.1,2.12,-191,-285,0,-257,160,282,931.8837790489197,931.8838529586792,931.8867781162262,931.8980848789215,932.0473182201385,932.0473182201385,932.0473182201385,932.0473182201385,932.0473182201385,932.0473182201385,932.0473182201385,940.786917924881,2,8.87239694595337,None,,,,,,,,,,,,,,,,,,131,1,2025-02-26_15h47.27.022,comp,2024.2.4,54.531677826171745,2025-02-26 15h47.39.457542 -0500,
121,121,0,critical,dwh,20.0,1.0,upper,141.0,141.0,125.0,200.0,200.0,125.0,3,2.951694965362549,None,,,,,0,0,0,0,0,121,121,67,940.8028130531311,,,,,,,,,,,,,,,,,,,,,,,,,,,,,,,,,,,,,,,,,,,,,,,,,,,,,,,,,,,,,,,,,,,,,,,,,,,,,,,,,,141.0,141.0,125.0,200.0,200.0,125.0,1.0,1.3,214,-275,480,-277,738,-277,940.7883787155151,940.7884759902954,940.7925262451172,940.8028130531311,940.952915430069,940.952915430069,940.952915430069,940.952915430069,940.952915430069,940.952915430069,940.952915430069,943.7724859714508,3,2.951694965362549,None,,,,,,,,,,,,,,,,,,131,1,2025-02-26_15h47.27.022,comp,2024.2.4,54.531677826171745,2025-02-26 15h47.39.457542 -0500,
122,122,0,filler_random,None,None,None,None,None,None,None,None,None,None,3,3.022597312927246,None,,,,,0,0,0,0,0,122,122,165,943.7884781360626,,,,,,,,,,,,,,,,,,,,,,,,,,,,,,,,,,,,,,,,,,,,,,,,,,,,,,,,,,,,,,,,,,,,,,,,,,,,,,,,,,102.96058082415279,142.43848687793678,64.01007953639945,175.68120444248885,123.33700833810438,143.31218768467738,4.0,4.1,-255,-269,0,-17,255,-279,943.7743241786957,943.7744007110596,943.778235912323,943.7884781360626,943.9370119571686,943.9370119571686,943.9370119571686,943.9370119571686,943.9370119571686,943.9370119571686,943.9370119571686,946.822074174881,3,3.022597312927246,None,,,,,,,,,,,,,,,,,,131,1,2025-02-26_15h47.27.022,comp,2024.2.4,54.531677826171745,2025-02-26 15h47.39.457542 -0500,
123,123,0,filler_square,None,None,None,None,None,None,None,None,None,None,2,17.26837420463562,None,,,,,0,0,0,0,0,123,123,176,946.8387215137482,,,,,,,,,,,,,,,,,,,,,,,,,,,,,,,,,,,,,,,,,,,,,,,,,,,,,,,,,,,,,,,,,,,,,,,,,,,,,,,,,,57.50152351747678,58.042013357292795,60.514017839056066,60.514017839056066,59.76041880693171,58.80124252104109,4.0,4.2,-155,5,0,-268,156,16,946.8238282203674,946.8239057064056,946.8274133205414,946.8387215137482,946.9876894950867,946.9876894950867,946.9876894950867,946.9876894950867,946.9876894950867,946.9876894950867,946.9876894950867,964.1107487678528,2,17.26837420463562,None,,,,,,,,,,,,,,,,,,131,1,2025-02-26_15h47.27.022,comp,2024.2.4,54.531677826171745,2025-02-26 15h47.39.457542 -0500,
124,124,0,filler_random,None,None,None,None,None,None,None,None,None,None,1,1.9476065635681152,None,,,,,0,0,0,0,0,124,124,167,964.126725435257,,,,,,,,,,,,,,,,,,,,,,,,,,,,,,,,,,,,,,,,,,,,,,,,,,,,,,,,,,,,,,,,,,,,,,,,,,,,,,,,,,196.43176082628813,180.64733993503523,126.80825028765705,156.82903645885676,93.04315401150228,190.2757324944421,1.0,1.1,-745,282,-480,276,-210,250,964.1124589443207,964.1125366687775,964.1158928871155,964.126725435257,964.2775053977966,964.2775053977966,964.2775053977966,964.2775053977966,964.2775053977966,964.2775053977966,964.2775053977966,966.0881297588348,1,1.9476065635681152,None,,,,,,,,,,,,,,,,,,131,1,2025-02-26_15h47.27.022,comp,2024.2.4,54.531677826171745,2025-02-26 15h47.39.457542 -0500,
125,125,0,critical,dhw,35.0,3.0,upper,127.0,127.0,200.0,125.0,125.0,200.0,3,9.895063400268555,None,,,,,0,0,0,0,0,125,125,51,966.1088984012604,,,,,,,,,,,,,,,,,,,,,,,,,,,,,,,,,,,,,,,,,,,,,,,,,,,,,,,,,,,,,,,,,,,,,,,,,,,,,,,,,,127.0,127.0,200.0,125.0,125.0,200.0,3.0,3.2,-222,-282,0,-17,258,268,966.0897617340088,966.0898401737213,966.0931282043457,966.1088984012604,966.2464325428009,966.2464325428009,966.2464325428009,966.2464325428009,966.2464325428009,966.2464325428009,966.2464325428009,976.0146844387054,3,9.895063400268555,None,,,,,,,,,,,,,,,,,,131,1,2025-02-26_15h47.27.022,comp,2024.2.4,54.531677826171745,2025-02-26 15h47.39.457542 -0500,
126,126,0,critical,hwd,20.0,2.1,lower,133.0,57.0,57.0,133.0,78.0,78.0,1,9.891444206237793,None,,,,,0,0,0,0,0,126,126,18,976.0310218334198,,,,,,,,,,,,,,,,,,,,,,,,,,,,,,,,,,,,,,,,,,,,,,,,,,,,,,,,,,,,,,,,,,,,,,,,,,,,,,,,,,133.0,57.0,57.0,133.0,78.0,78.0,2.1,2.12,-191,-270,0,-288,202,267,976.0161936283112,976.0162901878357,976.0203015804291,976.0310218334198,976.1828048229218,976.1828048229218,976.1828048229218,976.1828048229218,976.1828048229218,976.1828048229218,976.1828048229218,985.9376437664032,1,9.891444206237793,None,,,,,,,,,,,,,,,,,,131,1,2025-02-26_15h47.27.022,comp,2024.2.4,54.531677826171745,2025-02-26 15h47.39.457542 -0500,
127,127,0,critical,dhw,20.0,1.0,upper,141.0,141.0,200.0,125.0,125.0,200.0,2,4.314323425292969,None,,,,,0,0,0,0,0,127,127,55,985.9527423381805,,,,,,,,,,,,,,,,,,,,,,,,,,,,,,,,,,,,,,,,,,,,,,,,,,,,,,,,,,,,,,,,,,,,,,,,,,,,,,,,,,141.0,141.0,200.0,125.0,125.0,200.0,1.0,1.3,251,-278,480,-257,738,-261,985.9391782283783,985.9392786026001,985.9424633979797,985.9527423381805,986.1034018993378,986.1034018993378,986.1034018993378,986.1034018993378,986.1034018993378,986.1034018993378,986.1034018993378,990.269070148468,2,4.314323425292969,None,,,,,,,,,,,,,,,,,,131,1,2025-02-26_15h47.27.022,comp,2024.2.4,54.531677826171745,2025-02-26 15h47.39.457542 -0500,
128,128,0,filler_square,None,None,None,None,None,None,None,None,None,None,3,1.1883442401885986,None,,,,,0,0,0,0,0,128,128,177,990.2860224246979,,,,,,,,,,,,,,,,,,,,,,,,,,,,,,,,,,,,,,,,,,,,,,,,,,,,,,,,,,,,,,,,,,,,,,,,,,,,,,,,,,77.20101261200085,179.56235135931684,76.06539137292921,132.28000684791942,184.36047333094362,184.36047333094362,2.2,2.22,-252,262,0,-265,254,-273,990.2711598873138,990.2712678909302,990.2753009796143,990.2860224246979,990.4355595111847,990.4355595111847,990.4355595111847,990.4355595111847,990.4355595111847,990.4355595111847,990.4355595111847,991.4918293952942,3,1.1883442401885986,None,,,,,,,,,,,,,,,,,,131,1,2025-02-26_15h47.27.022,comp,2024.2.4,54.531677826171745,2025-02-26 15h47.39.457542 -0500,
129,129,0,critical,dhw,35.0,1.0,upper,127.0,127.0,200.0,125.0,125.0,200.0,3,1.877373456954956,None,,,,,0,0,0,0,0,129,129,49,991.50901055336,,,,,,,,,,,,,,,,,,,,,,,,,,,,,,,,,,,,,,,,,,,,,,,,,,,,,,,,,,,,,,,,,,,,,,,,,,,,,,,,,,127.0,127.0,200.0,125.0,125.0,200.0,1.0,1.3,258,-254,480,-254,738,-276,991.49338555336,991.4934618473053,991.4963302612305,991.50901055336,991.6513595581055,991.6513595581055,991.6513595581055,991.6513595581055,991.6513595581055,991.6513595581055,991.6513595581055,993.4028379917145,3,1.877373456954956,None,,,,,,,,,,,,,,,,,,131,1,2025-02-26_15h47.27.022,comp,2024.2.4,54.531677826171745,2025-02-26 15h47.39.457542 -0500,
130,130,0,critical,wdh,20.0,3.0,upper,125.0,200.0,141.0,141.0,200.0,125.0,1,8.984739542007446,None,,,,,0,0,0,0,0,130,130,81,993.4179990291595,,,,,,,,,,,,,,,,,,,,,,,,,,,,,,,,,,,,,,,,,,,,,,,,,,,,,,,,,,,,,,,,,,,,,,,,,,,,,,,,,,125.0,200.0,141.0,141.0,200.0,125.0,3.0,3.2,-266,-262,0,2,229,259,993.4042756557465,993.4043521881104,993.4077610969543,993.4179990291595,993.5595059394836,993.5595059394836,993.5595059394836,993.5595059394836,993.5595059394836,993.5595059394836,993.5595059394836,1002.4048445224762,1,8.984739542007446,None,,,,,,,,,,,,,,,,,,131,1,2025-02-26_15h47.27.022,comp,2024.2.4,54.531677826171745,2025-02-26 15h47.39.457542 -0500,
131,131,0,critical,hwd,35.0,3.0,upper,200.0,125.0,125.0,200.0,127.0,127.0,2,3.516233205795288,None,,,,,0,0,0,0,0,131,131,99,1002.4226875305176,,,,,,,,,,,,,,,,,,,,,,,,,,,,,,,,,,,,,,,,,,,,,,,,,,,,,,,,,,,,,,,,,,,,,,,,,,,,,,,,,,200.0,125.0,125.0,200.0,127.0,127.0,3.0,3.2,-258,-252,0,-16,260,261,1002.4064035415649,1002.4064803123474,1002.4098353385925,1002.4226875305176,1002.5723595619202,1002.5723595619202,1002.5723595619202,1002.5723595619202,1002.5723595619202,1002.5723595619202,1002.5723595619202,1005.9474658966064,2,3.516233205795288,None,,,,,,,,,,,,,,,,,,131,1,2025-02-26_15h47.27.022,comp,2024.2.4,54.531677826171745,2025-02-26 15h47.39.457542 -0500,
132,132,0,critical,hwd,35.0,2.1,upper,200.0,125.0,125.0,200.0,127.0,127.0,2,1.8902301788330078,None,,,,,0,0,0,0,0,132,132,17,1005.9683170318604,,,,,,,,,,,,,,,,,,,,,,,,,,,,,,,,,,,,,,,,,,,,,,,,,,,,,,,,,,,,,,,,,,,,,,,,,,,,,,,,,,200.0,125.0,125.0,200.0,127.0,127.0,2.1,2.11,-258,258,0,263,260,-262,1005.9490950107574,1005.9492018222809,1005.9524974822998,1005.9683170318604,1006.107476234436,1006.107476234436,1006.107476234436,1006.107476234436,1006.107476234436,1006.107476234436,1006.107476234436,1007.8740904331207,2,1.8902301788330078,None,,,,,,,,,,,,,,,,,,131,1,2025-02-26_15h47.27.022,comp,2024.2.4,54.531677826171745,2025-02-26 15h47.39.457542 -0500,
133,133,0,critical,wdh,35.0,2.1,upper,125.0,200.0,127.0,127.0,200.0,125.0,1,3.369338274002075,None,,,,,0,0,0,0,0,133,133,33,1007.8892912864685,,,,,,,,,,,,,,,,,,,,,,,,,,,,,,,,,,,,,,,,,,,,,,,,,,,,,,,,,,,,,,,,,,,,,,,,,,,,,,,,,,125.0,200.0,127.0,127.0,200.0,125.0,2.1,2.11,-260,282,0,251,222,-262,1007.8755748271942,1007.8756518363953,1007.8790354728699,1007.8892912864685,1008.042489528656,1008.042489528656,1008.042489528656,1008.042489528656,1008.042489528656,1008.042489528656,1008.042489528656,1011.2748124599457,1,3.369338274002075,None,,,,,,,,,,,,,,,,,,131,1,2025-02-26_15h47.27.022,comp,2024.2.4,54.531677826171745,2025-02-26 15h47.39.457542 -0500,
134,134,0,critical,hdw,20.0,2.1,lower,133.0,57.0,78.0,78.0,57.0,133.0,1,7.564446687698364,None,,,,,0,0,0,0,0,134,134,22,1011.2941064834595,,,,,,,,,,,,,,,,,,,,,,,,,,,,,,,,,,,,,,,,,,,,,,,,,,,,,,,,,,,,,,,,,,,,,,,,,,,,,,,,,,133.0,57.0,78.0,78.0,57.0,133.0,2.1,2.11,-164,282,0,268,202,-272,1011.2763278484344,1011.2764024734497,1011.2795653343201,1011.2941064834595,1011.4422950744629,1011.4422950744629,1011.4422950744629,1011.4422950744629,1011.4422950744629,1011.4422950744629,1011.4422950744629,1018.8610467910767,1,7.564446687698364,None,,,,,,,,,,,,,,,,,,131,1,2025-02-26_15h47.27.022,comp,2024.2.4,54.531677826171745,2025-02-26 15h47.39.457542 -0500,
135,135,0,critical,hdw,20.0,2.1,upper,200.0,125.0,141.0,141.0,125.0,200.0,3,2.7168545722961426,None,,,,,0,0,0,0,0,135,135,23,1018.8776679039001,,,,,,,,,,,,,,,,,,,,,,,,,,,,,,,,,,,,,,,,,,,,,,,,,,,,,,,,,,,,,,,,,,,,,,,,,,,,,,,,,,200.0,125.0,141.0,141.0,125.0,200.0,2.1,2.12,-229,-281,0,-263,266,280,1018.8626272678375,1018.8627038002014,1018.8668982982635,1018.8776679039001,1019.0248935222626,1019.0248935222626,1019.0248935222626,1019.0248935222626,1019.0248935222626,1019.0248935222626,1019.0248935222626,1021.6113705635071,3,2.7168545722961426,None,,,,,,,,,,,,,,,,,,131,1,2025-02-26_15h47.27.022,comp,2024.2.4,54.531677826171745,2025-02-26 15h47.39.457542 -0500,
136,136,0,critical,hwd,35.0,1.0,lower,133.0,57.0,57.0,133.0,70.0,70.0,1,7.391735553741455,None,,,,,0,0,0,0,0,136,136,96,1021.626806974411,,,,,,,,,,,,,,,,,,,,,,,,,,,,,,,,,,,,,,,,,,,,,,,,,,,,,,,,,,,,,,,,,,,,,,,,,,,,,,,,,,133.0,57.0,57.0,133.0,70.0,70.0,1.0,1.1,-671,281,-480,267,-282,264,1021.6128313541412,1021.6129043102264,1021.6159591674805,1021.626806974411,1021.7750358581543,1021.7750358581543,1021.7750358581543,1021.7750358581543,1021.7750358581543,1021.7750358581543,1021.7750358581543,1029.0299036502838,1,7.391735553741455,None,,,,,,,,,,,,,,,,,,131,1,2025-02-26_15h47.27.022,comp,2024.2.4,54.531677826171745,2025-02-26 15h47.39.457542 -0500,
137,137,0,critical,dhw,20.0,2.1,lower,78.0,78.0,133.0,57.0,57.0,133.0,2,1.6102294921875,None,,,,,0,0,0,0,0,137,137,2,1029.0488131046295,,,,,,,,,,,,,,,,,,,,,,,,,,,,,,,,,,,,,,,,,,,,,,,,,,,,,,,,,,,,,,,,,,,,,,,,,,,,,,,,,,78.0,78.0,133.0,57.0,57.0,133.0,2.1,2.12,-164,-277,0,-285,191,286,1029.031513929367,1029.031613111496,1029.0349357128143,1029.0488131046295,1029.1861107349396,1029.1861107349396,1029.1861107349396,1029.1861107349396,1029.1861107349396,1029.1861107349396,1029.1861107349396,1030.66472864151,2,1.6102294921875,None,,,,,,,,,,,,,,,,,,131,1,2025-02-26_15h47.27.022,comp,2024.2.4,54.531677826171745,2025-02-26 15h47.39.457542 -0500,
138,138,0,catch,None,None,None,None,None,None,None,None,None,None,3,1.6102032661437988,None,,,,,0,0,0,0,0,138,138,125,1030.6812107563019,,,,,,,,,,,,,,,,,,,,,,,,,,,,,,,,,,,,,,,,,,,,,,,,,,,,,,,,,,,,,,,,,,,,,,,,,,,,,,,,,,132,58,90,100,193,132,3.0,3.1,-175,260,0,-6,212,-284,1030.6665842533112,1030.6666638851166,1030.6699681282043,1030.6812107563019,1030.833966255188,1030.833966255188,1030.833966255188,1030.833966255188,1030.833966255188,1030.833966255188,1030.833966255188,1032.2996709346771,3,1.6102032661437988,None,,,,,,,,,,,,,,,,,,131,1,2025-02-26_15h47.27.022,comp,2024.2.4,54.531677826171745,2025-02-26 15h47.39.457542 -0500,
139,139,0,filler_square,None,None,None,None,None,None,None,None,None,None,1,1.7868750095367432,None,,,,,0,0,0,0,0,139,139,190,1032.3195617198944,,,,,,,,,,,,,,,,,,,,,,,,,,,,,,,,,,,,,,,,,,,,,,,,,,,,,,,,,,,,,,,,,,,,,,,,,,,,,,,,,,167.18309831603096,167.18309831603096,129.3852417920939,77.46828026595166,92.98200908416499,143.04284677357873,3.0,3.2,-218,-250,0,-10,206,289,1032.3015294075012,1032.30166888237,1032.304913520813,1032.3195617198944,1032.4703073501587,1032.4703073501587,1032.4703073501587,1032.4703073501587,1032.4703073501587,1032.4703073501587,1032.4703073501587,1034.1186287403107,1,1.7868750095367432,None,,,,,,,,,,,,,,,,,,131,1,2025-02-26_15h47.27.022,comp,2024.2.4,54.531677826171745,2025-02-26 15h47.39.457542 -0500,
140,140,0,critical,hdw,20.0,3.0,upper,200.0,125.0,141.0,141.0,125.0,200.0,3,8.154195785522461,None,,,,,0,0,0,0,0,140,140,117,1034.136798620224,,,,,,,,,,,,,,,,,,,,,,,,,,,,,,,,,,,,,,,,,,,,,,,,,,,,,,,,,,,,,,,,,,,,,,,,,,,,,,,,,,200.0,125.0,141.0,141.0,125.0,200.0,3.0,3.1,-229,281,0,-11,266,-279,1034.1201512813568,1034.1202642917633,1034.12371301651,1034.136798620224,1034.2833368778229,1034.2833368778229,1034.2833368778229,1034.2833368778229,1034.2833368778229,1034.2833368778229,1034.2833368778229,1042.3006024360657,3,8.154195785522461,None,,,,,,,,,,,,,,,,,,131,1,2025-02-26_15h47.27.022,comp,2024.2.4,54.531677826171745,2025-02-26 15h47.39.457542 -0500,
