thisN,thisTrialN,thisRepN,effect,order,distance,config,diag,h_1,w_1,h_2,w_2,h_3,w_3,rect_choice.keys,rect_choice.rt,rect_choice.duration,instructions_loop.thisRepN,instructions_loop.thisTrialN,instructions_loop.thisN,instructions_loop.thisIndex,blocks.thisRepN,blocks.thisTrialN,blocks.thisN,blocks.thisIndex,trials.thisRepN,trials.thisTrialN,trials.thisN,trials.thisIndex,thisRow.t,notes,consent.started,agree_button.started,decline_button.started,consent_img.started,mouse.started,consent.stopped,agree_button.numClicks,agree_button.timesOn,agree_button.timesOff,decline_button.numClicks,decline_button.timesOn,decline_button.timesOff,mouse.x,mouse.y,mouse.leftButton,mouse.midButton,mouse.rightButton,mouse.time,mouse.clicked_name,exp_params.started,exp_params.stopped,welcome.started,welcome_text.started,welcome.stopped,instructions_1.started,instructions_1_text_1.started,instructions_1_text_2.started,key_resp.started,instructions_1.stopped,instructions_loop.key_resp.keys,instructions_loop.key_resp.rt,instructions_loop.key_resp.duration,instructions_2.started,instructions_2_text_1.started,instructions_2_text_2.started,key_resp_2.started,instructions_2.stopped,instructions_loop.key_resp_2.keys,instructions_loop.key_resp_2.rt,instructions_loop.key_resp_2.duration,instructions_3.started,instructions_3_text_1.started,r1_instr3.started,r2_instr3.started,r3_instr3.started,r1_instr3_label.started,r2_instr3_label.started,r3_instr3_label.started,instructions_3_text_3.started,instructions_3_text_4.started,key_resp_3.started,instructions_3.stopped,instructions_loop.key_resp_3.keys,instructions_loop.key_resp_3.rt,instructions_loop.key_resp_3.duration,instructions_4.started,instructions_4_text_1.started,instructions_4_text_3.started,instructions_4_text_2.started,key_resp_4.started,instructions_4.stopped,instructions_loop.key_resp_4.keys,instructions_loop.key_resp_4.rt,instructions_loop.key_resp_4.duration,instructions_5.started,instructions_5_text_1.started,instructions_5_text_2.started,key_resp_5.started,instructions_5.stopped,instructions_loop.key_resp_5.keys,instructions_loop.key_resp_5.rt,instructions_loop.key_resp_5.duration,start_exp.started,start_exp_text.started,key_resp_6.started,start_exp.stopped,key_resp_6.keys,key_resp_6.rt,key_resp_6.duration,h_1_tmp,w_1_tmp,h_2_tmp,w_2_tmp,h_3_tmp,w_3_tmp,config_tmp,config_tmp_1,r_1_x,r_1_y,r_2_x,r_2_y,r_3_x,r_3_y,pre_trial.started,pre_trial.stopped,choice_trial.started,rect_choice.started,r_1.started,r_2.started,r_3.started,r_1_label.started,r_2_label.started,r_3_label.started,prompt.started,choice_trial.stopped,trials.rect_choice.keys,trials.rect_choice.rt,trials.rect_choice.duration,end_block.started,end_block_text.started,end_block.stopped,end.started,end_text.started,key_resp_7.started,end.stopped,key_resp_7.keys,key_resp_7.rt,key_resp_7.duration,debriefing.started,debrief_form.started,end_debrief.started,debriefing.stopped,end_debrief.keys,end_debrief.rt,end_debrief.duration,participant,computer,date,expName,psychopyVersion,frameRate,expStart,
,,,,,,,,,,,,,,,,,,,,,,,,,,,,,,,0.014576196670532227,0.03824114799499512,0.03824114799499512,0.03824114799499512,0.014385223388671875,5.111355304718018,1,[5.070250988006592],[5.070285081863403],0,,,[-94.0],[-500.0],[1],[0],[0],[5.0962042808532715],['agree_button'],,,,,,,,,,,,,,,,,,,,,,,,,,,,,,,,,,,,,,,,,,,,,,,,,,,,,,,,,,,,,,,,,,,,,,,,,,,,,,,,,,,,,,,,,,,,,,,,,,,,,,,,,,,132,2,2025-02-26_15h48.46.616,comp,2024.2.4,56.62973534200855,2025-02-26 15h48.55.604983 -0500,
,,,,,,,,,,,,,,,,,,,,,,,,,,,,,,,,,,,,,,,,,,,,,,,,,,5.111915111541748,5.111983060836792,,,,,,,,,,,,,,,,,,,,,,,,,,,,,,,,,,,,,,,,,,,,,,,,,,,,,,,,,,,,,,,,,,,,,,,,,,,,,,,,,,,,,,,,,,,,,,,,,,,,,,,,,132,2,2025-02-26_15h48.46.616,comp,2024.2.4,56.62973534200855,2025-02-26 15h48.55.604983 -0500,
,,,,,,,,,,,,,,,,,,,,,,,,,,,,,,,,,,,,,,,,,,,,,,,,,,,,5.112028121948242,5.130166292190552,7.112459659576416,,,,,,,,,,,,,,,,,,,,,,,,,,,,,,,,,,,,,,,,,,,,,,,,,,,,,,,,,,,,,,,,,,,,,,,,,,,,,,,,,,,,,,,,,,,,,,,,,,,,,,132,2,2025-02-26_15h48.46.616,comp,2024.2.4,56.62973534200855,2025-02-26 15h48.55.604983 -0500,
0,0,0,,,,,,,,,,,,,,,0,0,0,0,,,,,,,,,7.129396915435791,,,,,,,,,,,,,,,,,,,,,,,,,,7.113413333892822,7.129396915435791,7.129396915435791,8.613720178604126,16.883922815322876,space,8.262956142425537,None,16.884068727493286,16.903687477111816,16.903687477111816,18.385560035705566,31.35571312904358,space,12.96325159072876,None,31.355860948562622,31.39036798477173,31.39036798477173,31.39036798477173,31.39036798477173,31.39036798477173,31.39036798477173,31.39036798477173,31.39036798477173,31.39036798477173,32.85919404029846,40.475117683410645,space,7.609318256378174,None,40.47528791427612,40.49419188499451,40.49419188499451,40.49419188499451,41.972155809402466,46.414047718048096,space,4.431802034378052,None,46.41419553756714,46.43130707740784,46.43130707740784,47.92751336097717,49.793904304504395,space,1.8522019386291504,None,49.79409432411194,49.809447288513184,49.809447288513184,50.7635293006897,space,0.9383058547973633,None,,,,,,,,,,,,,,,,,,,,,,,,,,,,,,,,,,,,,,,,,,,,,,,132,2,2025-02-26_15h48.46.616,comp,2024.2.4,56.62973534200855,2025-02-26 15h48.55.604983 -0500,
0,0,0,critical,whd,35.0,4.0,lower,57.0,133.0,133.0,57.0,70.0,70.0,2,5.729828119277954,None,,,,,0,0,0,0,0,0,0,88,50.84196329116821,,,,,,,,,,,,,,,,,,,,,,,,,,,,,,,,,,,,,,,,,,,,,,,,,,,,,,,,,,,,,,,,,,,,,,,,,,,,,,,,,57.0,133.0,133.0,57.0,70.0,70.0,4.0,4.2,-191,-15,0,-285,160,19,50.82537317276001,50.82540488243103,50.826534032821655,50.84196329116821,50.98291325569153,50.98291325569153,50.98291325569153,50.98291325569153,50.98291325569153,50.98291325569153,50.98291325569153,56.58177304267883,2,5.729828119277954,None,,,,,,,,,,,,,,,,,,132,2,2025-02-26_15h48.46.616,comp,2024.2.4,56.62973534200855,2025-02-26 15h48.55.604983 -0500,
1,1,0,critical,whd,20.0,1.0,lower,57.0,133.0,133.0,57.0,78.0,78.0,3,4.182502269744873,None,,,,,0,0,0,0,0,1,1,90,56.59756255149841,,,,,,,,,,,,,,,,,,,,,,,,,,,,,,,,,,,,,,,,,,,,,,,,,,,,,,,,,,,,,,,,,,,,,,,,,,,,,,,,,57.0,133.0,133.0,57.0,78.0,78.0,1.0,1.2,-191,-17,0,0,164,-5,56.58330535888672,56.5833854675293,56.586769104003906,56.59756255149841,56.74747323989868,56.74747323989868,56.74747323989868,56.74747323989868,56.74747323989868,56.74747323989868,56.74747323989868,60.782280921936035,3,4.182502269744873,None,,,,,,,,,,,,,,,,,,132,2,2025-02-26_15h48.46.616,comp,2024.2.4,56.62973534200855,2025-02-26 15h48.55.604983 -0500,
2,2,0,critical,hwd,20.0,4.0,upper,200.0,125.0,125.0,200.0,141.0,141.0,2,3.1887078285217285,None,,,,,0,0,0,0,0,2,2,107,60.79910326004028,,,,,,,,,,,,,,,,,,,,,,,,,,,,,,,,,,,,,,,,,,,,,,,,,,,,,,,,,,,,,,,,,,,,,,,,,,,,,,,,,200.0,125.0,125.0,200.0,141.0,141.0,4.0,4.2,-258,15,0,-263,266,18,60.783942461013794,60.784069538116455,60.78734016418457,60.79910326004028,60.95190382003784,60.95190382003784,60.95190382003784,60.95190382003784,60.95190382003784,60.95190382003784,60.95190382003784,64.00305581092834,2,3.1887078285217285,None,,,,,,,,,,,,,,,,,,132,2,2025-02-26_15h48.46.616,comp,2024.2.4,56.62973534200855,2025-02-26 15h48.55.604983 -0500,
3,3,0,filler_random,None,None,None,None,None,None,None,None,None,None,3,2.4092609882354736,None,,,,,0,0,0,0,0,3,3,138,64.01862001419067,,,,,,,,,,,,,,,,,,,,,,,,,,,,,,,,,,,,,,,,,,,,,,,,,,,,,,,,,,,,,,,,,,,,,,,,,,,,,,,,,136.5814831448152,174.3290457168576,128.0459842738519,165.41371379789507,163.18003832794545,172.28958050954935,4.0,4.2,-266,-4,0,-286,265,-12,64.00489377975464,64.00497436523438,64.00829911231995,64.01862001419067,64.16734743118286,64.16734743118286,64.16734743118286,64.16734743118286,64.16734743118286,64.16734743118286,64.16734743118286,66.44116854667664,3,2.4092609882354736,None,,,,,,,,,,,,,,,,,,132,2,2025-02-26_15h48.46.616,comp,2024.2.4,56.62973534200855,2025-02-26 15h48.55.604983 -0500,
4,4,0,critical,wdh,20.0,2.1,upper,125.0,200.0,141.0,141.0,200.0,125.0,3,2.2591452598571777,None,,,,,0,0,0,0,0,4,4,35,66.4565782546997,,,,,,,,,,,,,,,,,,,,,,,,,,,,,,,,,,,,,,,,,,,,,,,,,,,,,,,,,,,,,,,,,,,,,,,,,,,,,,,,,125.0,200.0,141.0,141.0,200.0,125.0,2.1,2.12,-266,-268,0,-260,229,258,66.44284415245056,66.44292140007019,66.44618082046509,66.4565782546997,66.60105347633362,66.60105347633362,66.60105347633362,66.60105347633362,66.60105347633362,66.60105347633362,66.60105347633362,68.72935247421265,3,2.2591452598571777,None,,,,,,,,,,,,,,,,,,132,2,2025-02-26_15h48.46.616,comp,2024.2.4,56.62973534200855,2025-02-26 15h48.55.604983 -0500,
5,5,0,critical,wdh,35.0,4.0,lower,57.0,133.0,70.0,70.0,133.0,57.0,3,2.8821520805358887,None,,,,,0,0,0,0,0,5,5,76,68.74858617782593,,,,,,,,,,,,,,,,,,,,,,,,,,,,,,,,,,,,,,,,,,,,,,,,,,,,,,,,,,,,,,,,,,,,,,,,,,,,,,,,,57.0,133.0,70.0,70.0,133.0,57.0,4.0,4.1,-198,-258,0,4,160,-253,68.7309079170227,68.73098659515381,68.73393225669861,68.74858617782593,68.88157200813293,68.88157200813293,68.88157200813293,68.88157200813293,68.88157200813293,68.88157200813293,68.88157200813293,71.63306283950806,3,2.8821520805358887,None,,,,,,,,,,,,,,,,,,132,2,2025-02-26_15h48.46.616,comp,2024.2.4,56.62973534200855,2025-02-26 15h48.55.604983 -0500,
6,6,0,critical,hdw,20.0,4.0,upper,200.0,125.0,141.0,141.0,125.0,200.0,3,3.569173812866211,None,,,,,0,0,0,0,0,6,6,119,71.65092325210571,,,,,,,,,,,,,,,,,,,,,,,,,,,,,,,,,,,,,,,,,,,,,,,,,,,,,,,,,,,,,,,,,,,,,,,,,,,,,,,,,200.0,125.0,141.0,141.0,125.0,200.0,4.0,4.1,-229,-269,0,-9,266,-253,71.6346549987793,71.63473391532898,71.63805770874023,71.65092325210571,71.800288438797,71.800288438797,71.800288438797,71.800288438797,71.800288438797,71.800288438797,71.800288438797,75.22519183158875,3,3.569173812866211,None,,,,,,,,,,,,,,,,,,132,2,2025-02-26_15h48.46.616,comp,2024.2.4,56.62973534200855,2025-02-26 15h48.55.604983 -0500,
7,7,0,filler_random,None,None,None,None,None,None,None,None,None,None,3,3.572019100189209,None,,,,,0,0,0,0,0,7,7,167,75.24039387702942,,,,,,,,,,,,,,,,,,,,,,,,,,,,,,,,,,,,,,,,,,,,,,,,,,,,,,,,,,,,,,,,,,,,,,,,,,,,,,,,,184.98219009041776,83.48917044978599,141.12575198224704,124.32952137610584,167.1778335663942,178.39925151235144,1.0,1.1,-680,268,-480,274,-233,267,75.22685837745667,75.2269356250763,75.22978091239929,75.24039387702942,75.38683915138245,75.38683915138245,75.38683915138245,75.38683915138245,75.38683915138245,75.38683915138245,75.38683915138245,78.82007098197937,3,3.572019100189209,None,,,,,,,,,,,,,,,,,,132,2,2025-02-26_15h48.46.616,comp,2024.2.4,56.62973534200855,2025-02-26 15h48.55.604983 -0500,
8,8,0,critical,dhw,35.0,4.0,lower,70.0,70.0,133.0,57.0,57.0,133.0,3,2.6629812717437744,None,,,,,0,0,0,0,0,8,8,52,78.83693218231201,,,,,,,,,,,,,,,,,,,,,,,,,,,,,,,,,,,,,,,,,,,,,,,,,,,,,,,,,,,,,,,,,,,,,,,,,,,,,,,,,70.0,70.0,133.0,57.0,57.0,133.0,4.0,4.2,-160,17,0,-281,191,-8,78.82158732414246,78.82168650627136,78.82464337348938,78.83693218231201,78.98936176300049,78.98936176300049,78.98936176300049,78.98936176300049,78.98936176300049,78.98936176300049,78.98936176300049,81.50221037864685,3,2.6629812717437744,None,,,,,,,,,,,,,,,,,,132,2,2025-02-26_15h48.46.616,comp,2024.2.4,56.62973534200855,2025-02-26 15h48.55.604983 -0500,
9,9,0,critical,whd,35.0,3.0,upper,125.0,200.0,200.0,125.0,127.0,127.0,2,4.004182815551758,None,,,,,0,0,0,0,0,9,9,87,81.52054023742676,,,,,,,,,,,,,,,,,,,,,,,,,,,,,,,,,,,,,,,,,,,,,,,,,,,,,,,,,,,,,,,,,,,,,,,,,,,,,,,,,125.0,200.0,200.0,125.0,127.0,127.0,3.0,3.2,-258,-278,0,11,222,289,81.50391817092896,81.50405716896057,81.50735783576965,81.52054023742676,81.65600085258484,81.65600085258484,81.65600085258484,81.65600085258484,81.65600085258484,81.65600085258484,81.65600085258484,85.53003931045532,2,4.004182815551758,None,,,,,,,,,,,,,,,,,,132,2,2025-02-26_15h48.46.616,comp,2024.2.4,56.62973534200855,2025-02-26 15h48.55.604983 -0500,
10,10,0,critical,hwd,35.0,3.0,upper,200.0,125.0,125.0,200.0,127.0,127.0,2,2.745206117630005,None,,,,,0,0,0,0,0,10,10,99,85.54658055305481,,,,,,,,,,,,,,,,,,,,,,,,,,,,,,,,,,,,,,,,,,,,,,,,,,,,,,,,,,,,,,,,,,,,,,,,,,,,,,,,,200.0,125.0,125.0,200.0,127.0,127.0,3.0,3.2,-258,-279,0,-2,260,284,85.53160834312439,85.53168606758118,85.53497433662415,85.54658055305481,85.69124102592468,85.69124102592468,85.69124102592468,85.69124102592468,85.69124102592468,85.69124102592468,85.69124102592468,88.30862522125244,2,2.745206117630005,None,,,,,,,,,,,,,,,,,,132,2,2025-02-26_15h48.46.616,comp,2024.2.4,56.62973534200855,2025-02-26 15h48.55.604983 -0500,
11,11,0,filler_random,None,None,None,None,None,None,None,None,None,None,1,2.567537307739258,None,,,,,0,0,0,0,0,11,11,141,88.32432794570923,,,,,,,,,,,,,,,,,,,,,,,,,,,,,,,,,,,,,,,,,,,,,,,,,,,,,,,,,,,,,,,,,,,,,,,,,,,,,,,,,84.03802793339064,158.2896235942049,74.95628550466122,165.04036736820538,119.25305646213889,72.48583399055126,2.1,2.12,-258,-267,0,-258,215,269,88.31046676635742,88.31062769889832,88.31399822235107,88.32432794570923,88.48258304595947,88.48258304595947,88.48258304595947,88.48258304595947,88.48258304595947,88.48258304595947,88.48258304595947,90.9090940952301,1,2.567537307739258,None,,,,,,,,,,,,,,,,,,132,2,2025-02-26_15h48.46.616,comp,2024.2.4,56.62973534200855,2025-02-26 15h48.55.604983 -0500,
12,12,0,filler_square,None,None,None,None,None,None,None,None,None,None,3,3.015155792236328,None,,,,,0,0,0,0,0,12,12,181,90.92523074150085,,,,,,,,,,,,,,,,,,,,,,,,,,,,,,,,,,,,,,,,,,,,,,,,,,,,,,,,,,,,,,,,,,,,,,,,,,,,,,,,,88.43438708964902,111.78231295578051,91.35819019115013,133.54678384837757,136.16379693661037,136.16379693661037,2.1,2.11,-219,253,0,274,231,-253,90.91115260124207,90.91124868392944,90.91498136520386,90.92523074150085,91.07655239105225,91.07655239105225,91.07655239105225,91.07655239105225,91.07655239105225,91.07655239105225,91.07655239105225,93.94258880615234,3,3.015155792236328,None,,,,,,,,,,,,,,,,,,132,2,2025-02-26_15h48.46.616,comp,2024.2.4,56.62973534200855,2025-02-26 15h48.55.604983 -0500,
13,13,0,filler_random,None,None,None,None,None,None,None,None,None,None,3,1.6749954223632812,None,,,,,0,0,0,0,0,13,13,157,93.96157383918762,,,,,,,,,,,,,,,,,,,,,,,,,,,,,,,,,,,,,,,,,,,,,,,,,,,,,,,,,,,,,,,,,,,,,,,,,,,,,,,,,81.08171479255269,74.33254230678742,85.64762577908837,157.84594896397184,140.30514300170245,142.0027195677501,2.2,2.22,-212,277,0,-287,246,-285,93.9442412853241,93.94431686401367,93.94727897644043,93.96157383918762,94.10912084579468,94.10912084579468,94.10912084579468,94.10912084579468,94.10912084579468,94.10912084579468,94.10912084579468,95.64388227462769,3,1.6749954223632812,None,,,,,,,,,,,,,,,,,,132,2,2025-02-26_15h48.46.616,comp,2024.2.4,56.62973534200855,2025-02-26 15h48.55.604983 -0500,
14,14,0,critical,whd,35.0,3.0,lower,57.0,133.0,133.0,57.0,70.0,70.0,2,2.7278881072998047,None,,,,,0,0,0,0,0,14,14,86,95.66042041778564,,,,,,,,,,,,,,,,,,,,,,,,,,,,,,,,,,,,,,,,,,,,,,,,,,,,,,,,,,,,,,,,,,,,,,,,,,,,,,,,,57.0,133.0,133.0,57.0,70.0,70.0,3.0,3.2,-191,-253,0,6,160,279,95.64556407928467,95.6456937789917,95.64917063713074,95.66042041778564,95.81195878982544,95.81195878982544,95.81195878982544,95.81195878982544,95.81195878982544,95.81195878982544,95.81195878982544,98.39618253707886,2,2.7278881072998047,None,,,,,,,,,,,,,,,,,,132,2,2025-02-26_15h48.46.616,comp,2024.2.4,56.62973534200855,2025-02-26 15h48.55.604983 -0500,
15,15,0,critical,dhw,20.0,2.1,lower,78.0,78.0,133.0,57.0,57.0,133.0,2,3.68599271774292,None,,,,,0,0,0,0,0,15,15,26,98.41393780708313,,,,,,,,,,,,,,,,,,,,,,,,,,,,,,,,,,,,,,,,,,,,,,,,,,,,,,,,,,,,,,,,,,,,,,,,,,,,,,,,,78.0,78.0,133.0,57.0,57.0,133.0,2.1,2.11,-164,275,0,252,191,-275,98.3977632522583,98.39789509773254,98.40106439590454,98.41393780708313,98.56041049957275,98.56041049957275,98.56041049957275,98.56041049957275,98.56041049957275,98.56041049957275,98.56041049957275,102.11534714698792,2,3.68599271774292,None,,,,,,,,,,,,,,,,,,132,2,2025-02-26_15h48.46.616,comp,2024.2.4,56.62973534200855,2025-02-26 15h48.55.604983 -0500,
16,16,0,filler_square,None,None,None,None,None,None,None,None,None,None,1,1.4298217296600342,None,,,,,0,0,0,0,0,16,16,173,102.13424754142761,,,,,,,,,,,,,,,,,,,,,,,,,,,,,,,,,,,,,,,,,,,,,,,,,,,,,,,,,,,,,,,,,,,,,,,,,,,,,,,,,167.07826942772306,167.07826942772306,133.78108157682522,75.89010040169103,138.16538649323354,62.958792524053194,2.1,2.11,-217,277,0,267,165,-267,102.11737942695618,102.11745810508728,102.12041664123535,102.13424754142761,102.28121638298035,102.28121638298035,102.28121638298035,102.28121638298035,102.28121638298035,102.28121638298035,102.28121638298035,103.56933045387268,1,1.4298217296600342,None,,,,,,,,,,,,,,,,,,132,2,2025-02-26_15h48.46.616,comp,2024.2.4,56.62973534200855,2025-02-26 15h48.55.604983 -0500,
17,17,0,filler_square,None,None,None,None,None,None,None,None,None,None,1,2.944817066192627,None,,,,,0,0,0,0,0,17,17,182,103.58718657493591,,,,,,,,,,,,,,,,,,,,,,,,,,,,,,,,,,,,,,,,,,,,,,,,,,,,,,,,,,,,,,,,,,,,,,,,,,,,,,,,,126.6383848423049,126.6383848423049,107.41521349688725,110.21093074417392,69.45625517036261,57.76882645991161,4.0,4.1,-214,-253,0,14,180,-252,103.57121157646179,103.57129216194153,103.57421469688416,103.58718657493591,103.7293770313263,103.7293770313263,103.7293770313263,103.7293770313263,103.7293770313263,103.7293770313263,103.7293770313263,106.53493571281433,1,2.944817066192627,None,,,,,,,,,,,,,,,,,,132,2,2025-02-26_15h48.46.616,comp,2024.2.4,56.62973534200855,2025-02-26 15h48.55.604983 -0500,
18,18,0,critical,wdh,35.0,4.0,upper,125.0,200.0,127.0,127.0,200.0,125.0,3,3.040942907333374,None,,,,,0,0,0,0,0,18,18,77,106.55489158630371,,,,,,,,,,,,,,,,,,,,,,,,,,,,,,,,,,,,,,,,,,,,,,,,,,,,,,,,,,,,,,,,,,,,,,,,,,,,,,,,,125.0,200.0,127.0,127.0,200.0,125.0,4.0,4.2,-260,-6,0,-252,222,-3,106.53652453422546,106.53660702705383,106.53950619697571,106.55489158630371,106.69761633872986,106.69761633872986,106.69761633872986,106.69761633872986,106.69761633872986,106.69761633872986,106.69761633872986,109.60984921455383,3,3.040942907333374,None,,,,,,,,,,,,,,,,,,132,2,2025-02-26_15h48.46.616,comp,2024.2.4,56.62973534200855,2025-02-26 15h48.55.604983 -0500,
19,19,0,filler_square,None,None,None,None,None,None,None,None,None,None,2,2.698611259460449,None,,,,,0,0,0,0,0,19,19,186,109.62596368789673,,,,,,,,,,,,,,,,,,,,,,,,,,,,,,,,,,,,,,,,,,,,,,,,,,,,,,,,,,,,,,,,,,,,,,,,,,,,,,,,,101.97903295754114,97.49477757323965,114.04785488283001,114.04785488283001,105.6519992719912,89.85233814582573,4.0,4.1,-202,-262,0,-9,198,-286,109.61167073249817,109.61174535751343,109.61460018157959,109.62596368789673,109.76362204551697,109.76362204551697,109.76362204551697,109.76362204551697,109.76362204551697,109.76362204551697,109.76362204551697,112.33381366729736,2,2.698611259460449,None,,,,,,,,,,,,,,,,,,132,2,2025-02-26_15h48.46.616,comp,2024.2.4,56.62973534200855,2025-02-26 15h48.55.604983 -0500,
20,20,0,filler_random,None,None,None,None,None,None,None,None,None,None,3,1.6380937099456787,None,,,,,0,0,0,0,0,20,20,135,112.3498010635376,,,,,,,,,,,,,,,,,,,,,,,,,,,,,,,,,,,,,,,,,,,,,,,,,,,,,,,,,,,,,,,,,,,,,,,,,,,,,,,,,145.12635000369534,118.76003568685275,123.68344165207314,118.88612417722649,172.48160551993058,181.9999401757327,4.0,4.2,-215,13,0,-256,246,19,112.3355987071991,112.33573031425476,112.33907055854797,112.3498010635376,112.49895691871643,112.49895691871643,112.49895691871643,112.49895691871643,112.49895691871643,112.49895691871643,112.49895691871643,114.00041604042053,3,1.6380937099456787,None,,,,,,,,,,,,,,,,,,132,2,2025-02-26_15h48.46.616,comp,2024.2.4,56.62973534200855,2025-02-26 15h48.55.604983 -0500,
21,21,0,catch,None,None,None,None,None,None,None,None,None,None,1,2.025499105453491,None,,,,,0,0,0,0,0,21,21,126,114.01904487609863,,,,,,,,,,,,,,,,,,,,,,,,,,,,,,,,,,,,,,,,,,,,,,,,,,,,,,,,,,,,,,,,,,,,,,,,,,,,,,,,,129,196,96,94,73,117,2.2,2.21,-241,-263,0,259,202,261,114.0023934841156,114.00246977806091,114.00538110733032,114.01904487609863,114.16699242591858,114.16699242591858,114.16699242591858,114.16699242591858,114.16699242591858,114.16699242591858,114.16699242591858,116.0502245426178,1,2.025499105453491,None,,,,,,,,,,,,,,,,,,132,2,2025-02-26_15h48.46.616,comp,2024.2.4,56.62973534200855,2025-02-26 15h48.55.604983 -0500,
22,22,0,critical,dhw,20.0,2.1,upper,141.0,141.0,200.0,125.0,125.0,200.0,3,1.6094505786895752,None,,,,,0,0,0,0,0,22,22,3,116.06669878959656,,,,,,,,,,,,,,,,,,,,,,,,,,,,,,,,,,,,,,,,,,,,,,,,,,,,,,,,,,,,,,,,,,,,,,,,,,,,,,,,,141.0,141.0,200.0,125.0,125.0,200.0,2.1,2.12,-229,-281,0,-250,258,252,116.05184650421143,116.05192518234253,116.05608487129211,116.06669878959656,116.21359896659851,116.21359896659851,116.21359896659851,116.21359896659851,116.21359896659851,116.21359896659851,116.21359896659851,117.68350076675415,3,1.6094505786895752,None,,,,,,,,,,,,,,,,,,132,2,2025-02-26_15h48.46.616,comp,2024.2.4,56.62973534200855,2025-02-26 15h48.55.604983 -0500,
23,23,0,critical,dwh,35.0,4.0,upper,127.0,127.0,125.0,200.0,200.0,125.0,2,2.7371912002563477,None,,,,,0,0,0,0,0,23,23,65,117.6988582611084,,,,,,,,,,,,,,,,,,,,,,,,,,,,,,,,,,,,,,,,,,,,,,,,,,,,,,,,,,,,,,,,,,,,,,,,,,,,,,,,,127.0,127.0,125.0,200.0,200.0,125.0,4.0,4.2,-260,-12,0,-259,258,20,117.68442726135254,117.68447518348694,117.68659591674805,117.6988582611084,117.8472192287445,117.8472192287445,117.8472192287445,117.8472192287445,117.8472192287445,117.8472192287445,117.8472192287445,120.43816351890564,2,2.7371912002563477,None,,,,,,,,,,,,,,,,,,132,2,2025-02-26_15h48.46.616,comp,2024.2.4,56.62973534200855,2025-02-26 15h48.55.604983 -0500,
24,24,0,critical,wdh,35.0,2.1,lower,57.0,133.0,70.0,70.0,133.0,57.0,2,3.298029661178589,None,,,,,0,0,0,0,0,24,24,32,120.45796871185303,,,,,,,,,,,,,,,,,,,,,,,,,,,,,,,,,,,,,,,,,,,,,,,,,,,,,,,,,,,,,,,,,,,,,,,,,,,,,,,,,57.0,133.0,70.0,70.0,133.0,57.0,2.1,2.12,-198,-286,0,-277,160,251,120.4400486946106,120.44013142585754,120.44335293769836,120.45796871185303,120.60253357887268,120.60253357887268,120.60253357887268,120.60253357887268,120.60253357887268,120.60253357887268,120.60253357887268,123.77154541015625,2,3.298029661178589,None,,,,,,,,,,,,,,,,,,132,2,2025-02-26_15h48.46.616,comp,2024.2.4,56.62973534200855,2025-02-26 15h48.55.604983 -0500,
25,25,0,critical,whd,35.0,2.1,lower,57.0,133.0,133.0,57.0,70.0,70.0,1,4.37620997428894,None,,,,,0,0,0,0,0,25,25,36,123.78846025466919,,,,,,,,,,,,,,,,,,,,,,,,,,,,,,,,,,,,,,,,,,,,,,,,,,,,,,,,,,,,,,,,,,,,,,,,,,,,,,,,,57.0,133.0,133.0,57.0,70.0,70.0,2.1,2.11,-191,262,0,266,160,-282,123.77326655387878,123.77337002754211,123.77684664726257,123.78846025466919,123.93488454818726,123.93488454818726,123.93488454818726,123.93488454818726,123.93488454818726,123.93488454818726,123.93488454818726,128.17132234573364,1,4.37620997428894,None,,,,,,,,,,,,,,,,,,132,2,2025-02-26_15h48.46.616,comp,2024.2.4,56.62973534200855,2025-02-26 15h48.55.604983 -0500,
26,26,0,filler_random,None,None,None,None,None,None,None,None,None,None,2,2.2399609088897705,None,,,,,0,0,0,0,0,26,26,147,128.1879482269287,,,,,,,,,,,,,,,,,,,,,,,,,,,,,,,,,,,,,,,,,,,,,,,,,,,,,,,,,,,,,,,,,,,,,,,,,,,,,,,,,72.6944418609169,129.93886503981776,165.4212251379603,75.79926314021608,158.72613225790695,82.26381343140018,2.1,2.11,-199,279,0,279,175,-281,128.17307496070862,128.1731572151184,128.17720818519592,128.1879482269287,128.33680701255798,128.33680701255798,128.33680701255798,128.33680701255798,128.33680701255798,128.33680701255798,128.33680701255798,130.4413857460022,2,2.2399609088897705,None,,,,,,,,,,,,,,,,,,132,2,2025-02-26_15h48.46.616,comp,2024.2.4,56.62973534200855,2025-02-26 15h48.55.604983 -0500,
27,27,0,filler_random,None,None,None,None,None,None,None,None,None,None,3,3.9204671382904053,None,,,,,0,0,0,0,0,27,27,151,130.46027326583862,,,,,,,,,,,,,,,,,,,,,,,,,,,,,,,,,,,,,,,,,,,,,,,,,,,,,,,,,,,,,,,,,,,,,,,,,,,,,,,,,189.64310985780546,90.78587256360012,90.38467649819299,150.9741023833093,94.62500262950516,157.3753752099983,3.0,3.1,-217,257,0,-19,250,-286,130.44356393814087,130.44366788864136,130.44725680351257,130.46027326583862,130.60623741149902,130.60623741149902,130.60623741149902,130.60623741149902,130.60623741149902,130.60623741149902,130.60623741149902,134.38941049575806,3,3.9204671382904053,None,,,,,,,,,,,,,,,,,,132,2,2025-02-26_15h48.46.616,comp,2024.2.4,56.62973534200855,2025-02-26 15h48.55.604983 -0500,
28,28,0,critical,wdh,35.0,2.1,upper,125.0,200.0,127.0,127.0,200.0,125.0,1,2.3256938457489014,None,,,,,0,0,0,0,0,28,28,33,134.4062535762787,,,,,,,,,,,,,,,,,,,,,,,,,,,,,,,,,,,,,,,,,,,,,,,,,,,,,,,,,,,,,,,,,,,,,,,,,,,,,,,,,125.0,200.0,127.0,127.0,200.0,125.0,2.1,2.11,-260,254,0,268,222,-261,134.3909523487091,134.39103150367737,134.3955647945404,134.4062535762787,134.54343605041504,134.54343605041504,134.54343605041504,134.54343605041504,134.54343605041504,134.54343605041504,134.54343605041504,136.74714255332947,1,2.3256938457489014,None,,,,,,,,,,,,,,,,,,132,2,2025-02-26_15h48.46.616,comp,2024.2.4,56.62973534200855,2025-02-26 15h48.55.604983 -0500,
29,29,0,filler_square,None,None,None,None,None,None,None,None,None,None,2,2.6249585151672363,None,,,,,0,0,0,0,0,29,29,171,136.76333212852478,,,,,,,,,,,,,,,,,,,,,,,,,,,,,,,,,,,,,,,,,,,,,,,,,,,,,,,,,,,,,,,,,,,,,,,,,,,,,,,,,80.36646584827454,65.34254014239833,98.12687138893598,98.12687138893598,78.68385720587622,97.02517538527395,4.0,4.2,-178,1,0,-268,194,15,136.7489755153656,136.74905371665955,136.75218415260315,136.76333212852478,136.90594482421875,136.90594482421875,136.90594482421875,136.90594482421875,136.90594482421875,136.90594482421875,136.90594482421875,139.3904631137848,2,2.6249585151672363,None,,,,,,,,,,,,,,,,,,132,2,2025-02-26_15h48.46.616,comp,2024.2.4,56.62973534200855,2025-02-26 15h48.55.604983 -0500,
30,30,0,critical,hdw,20.0,1.0,upper,200.0,125.0,141.0,141.0,125.0,200.0,3,2.3711769580841064,None,,,,,0,0,0,0,0,30,30,115,139.409752368927,,,,,,,,,,,,,,,,,,,,,,,,,,,,,,,,,,,,,,,,,,,,,,,,,,,,,,,,,,,,,,,,,,,,,,,,,,,,,,,,,200.0,125.0,141.0,141.0,125.0,200.0,1.0,1.3,251,-264,480,-278,746,-261,139.39199209213257,139.392071723938,139.3952922821045,139.409752368927,139.55692338943481,139.55692338943481,139.55692338943481,139.55692338943481,139.55692338943481,139.55692338943481,139.55692338943481,141.79292106628418,3,2.3711769580841064,None,,,,,,,,,,,,,,,,,,132,2,2025-02-26_15h48.46.616,comp,2024.2.4,56.62973534200855,2025-02-26 15h48.55.604983 -0500,
31,31,0,filler_square,None,None,None,None,None,None,None,None,None,None,3,1.406712532043457,None,,,,,0,0,0,0,0,31,31,185,141.8139626979828,,,,,,,,,,,,,,,,,,,,,,,,,,,,,,,,,,,,,,,,,,,,,,,,,,,,,,,,,,,,,,,,,,,,,,,,,,,,,,,,,88.74134171817619,113.7232898693928,83.03085787246339,90.55690632519618,172.41493025605027,172.41493025605027,1.0,1.2,-198,-9,0,-6,227,18,141.79482531547546,141.79490518569946,141.79818844795227,141.8139626979828,141.95877027511597,141.95877027511597,141.95877027511597,141.95877027511597,141.95877027511597,141.95877027511597,141.95877027511597,143.22790551185608,3,1.406712532043457,None,,,,,,,,,,,,,,,,,,132,2,2025-02-26_15h48.46.616,comp,2024.2.4,56.62973534200855,2025-02-26 15h48.55.604983 -0500,
32,32,0,critical,wdh,35.0,2.1,lower,57.0,133.0,70.0,70.0,133.0,57.0,1,2.1222305297851562,None,,,,,0,0,0,0,0,32,32,8,143.24343252182007,,,,,,,,,,,,,,,,,,,,,,,,,,,,,,,,,,,,,,,,,,,,,,,,,,,,,,,,,,,,,,,,,,,,,,,,,,,,,,,,,57.0,133.0,70.0,70.0,133.0,57.0,2.1,2.11,-198,268,0,264,160,-287,143.22973370552063,143.22981762886047,143.2328703403473,143.24343252182007,143.38930344581604,143.38930344581604,143.38930344581604,143.38930344581604,143.38930344581604,143.38930344581604,143.38930344581604,145.37724232673645,1,2.1222305297851562,None,,,,,,,,,,,,,,,,,,132,2,2025-02-26_15h48.46.616,comp,2024.2.4,56.62973534200855,2025-02-26 15h48.55.604983 -0500,
33,33,0,critical,hdw,35.0,2.1,upper,200.0,125.0,127.0,127.0,125.0,200.0,3,1.6114304065704346,None,,,,,0,0,0,0,0,33,33,21,145.393057346344,,,,,,,,,,,,,,,,,,,,,,,,,,,,,,,,,,,,,,,,,,,,,,,,,,,,,,,,,,,,,,,,,,,,,,,,,,,,,,,,,200.0,125.0,127.0,127.0,125.0,200.0,2.1,2.11,-222,289,0,253,260,-276,145.37901902198792,145.37909841537476,145.38237142562866,145.393057346344,145.54105854034424,145.54105854034424,145.54105854034424,145.54105854034424,145.54105854034424,145.54105854034424,145.54105854034424,147.00836443901062,3,1.6114304065704346,None,,,,,,,,,,,,,,,,,,132,2,2025-02-26_15h48.46.616,comp,2024.2.4,56.62973534200855,2025-02-26 15h48.55.604983 -0500,
34,34,0,critical,hdw,20.0,4.0,lower,133.0,57.0,78.0,78.0,57.0,133.0,3,4.130237579345703,None,,,,,0,0,0,0,0,34,34,118,147.02604222297668,,,,,,,,,,,,,,,,,,,,,,,,,,,,,,,,,,,,,,,,,,,,,,,,,,,,,,,,,,,,,,,,,,,,,,,,,,,,,,,,,133.0,57.0,78.0,78.0,57.0,133.0,4.0,4.2,-164,5,0,-270,202,-13,147.0099310874939,147.01000952720642,147.01307559013367,147.02604222297668,147.17603135108948,147.17603135108948,147.17603135108948,147.17603135108948,147.17603135108948,147.17603135108948,147.17603135108948,151.15990209579468,3,4.130237579345703,None,,,,,,,,,,,,,,,,,,132,2,2025-02-26_15h48.46.616,comp,2024.2.4,56.62973534200855,2025-02-26 15h48.55.604983 -0500,
35,35,0,critical,wdh,20.0,4.0,upper,125.0,200.0,141.0,141.0,200.0,125.0,2,3.0041584968566895,None,,,,,0,0,0,0,0,35,35,83,151.17596912384033,,,,,,,,,,,,,,,,,,,,,,,,,,,,,,,,,,,,,,,,,,,,,,,,,,,,,,,,,,,,,,,,,,,,,,,,,,,,,,,,,125.0,200.0,141.0,141.0,200.0,125.0,4.0,4.1,-266,-278,0,13,229,-255,151.16144061088562,151.1615674495697,151.1645770072937,151.17596912384033,151.33068251609802,151.33068251609802,151.33068251609802,151.33068251609802,151.33068251609802,151.33068251609802,151.33068251609802,154.18224334716797,2,3.0041584968566895,None,,,,,,,,,,,,,,,,,,132,2,2025-02-26_15h48.46.616,comp,2024.2.4,56.62973534200855,2025-02-26 15h48.55.604983 -0500,
36,36,0,filler_random,None,None,None,None,None,None,None,None,None,None,3,2.245849847793579,None,,,,,0,0,0,0,0,36,36,169,154.1983139514923,,,,,,,,,,,,,,,,,,,,,,,,,,,,,,,,,,,,,,,,,,,,,,,,,,,,,,,,,,,,,,,,,,,,,,,,,,,,,,,,,132.6281192486621,138.0045828066185,154.10241407407932,138.68378683081227,175.97559161000726,169.14928850887992,2.1,2.12,-234,-282,0,-281,250,277,154.18406796455383,154.18420219421387,154.1875295639038,154.1983139514923,154.34637928009033,154.34637928009033,154.34637928009033,154.34637928009033,154.34637928009033,154.34637928009033,154.34637928009033,156.44972276687622,3,2.245849847793579,None,,,,,,,,,,,,,,,,,,132,2,2025-02-26_15h48.46.616,comp,2024.2.4,56.62973534200855,2025-02-26 15h48.55.604983 -0500,
37,37,0,critical,whd,20.0,2.1,lower,57.0,133.0,133.0,57.0,78.0,78.0,3,3.9103119373321533,None,,,,,0,0,0,0,0,37,37,38,156.46985793113708,,,,,,,,,,,,,,,,,,,,,,,,,,,,,,,,,,,,,,,,,,,,,,,,,,,,,,,,,,,,,,,,,,,,,,,,,,,,,,,,,57.0,133.0,133.0,57.0,78.0,78.0,2.1,2.11,-191,259,0,275,164,-274,156.45155310630798,156.45168924331665,156.4548659324646,156.46985793113708,156.61198377609253,156.61198377609253,156.61198377609253,156.61198377609253,156.61198377609253,156.61198377609253,156.61198377609253,160.39900517463684,3,3.9103119373321533,None,,,,,,,,,,,,,,,,,,132,2,2025-02-26_15h48.46.616,comp,2024.2.4,56.62973534200855,2025-02-26 15h48.55.604983 -0500,
38,38,0,critical,dwh,35.0,1.0,upper,127.0,127.0,125.0,200.0,200.0,125.0,2,1.9934663772583008,None,,,,,0,0,0,0,0,38,38,61,160.41925716400146,,,,,,,,,,,,,,,,,,,,,,,,,,,,,,,,,,,,,,,,,,,,,,,,,,,,,,,,,,,,,,,,,,,,,,,,,,,,,,,,,127.0,127.0,125.0,200.0,200.0,125.0,1.0,1.2,-260,17,0,12,258,-1,160.4006404876709,160.40071439743042,160.4039590358734,160.41925716400146,160.56299686431885,160.56299686431885,160.56299686431885,160.56299686431885,160.56299686431885,160.56299686431885,160.56299686431885,162.41511702537537,2,1.9934663772583008,None,,,,,,,,,,,,,,,,,,132,2,2025-02-26_15h48.46.616,comp,2024.2.4,56.62973534200855,2025-02-26 15h48.55.604983 -0500,
39,39,0,filler_random,None,None,None,None,None,None,None,None,None,None,3,0.9559841156005859,None,,,,,0,0,0,0,0,39,39,160,162.43211770057678,,,,,,,,,,,,,,,,,,,,,,,,,,,,,,,,,,,,,,,,,,,,,,,,,,,,,,,,,,,,,,,,,,,,,,,,,,,,,,,,,65.67318103710687,118.75002376221565,151.36134660622486,113.03721255927212,152.9231471800833,178.08938822748877,1.0,1.1,-692,260,-480,269,-238,253,162.4168345928192,162.41691422462463,162.42100715637207,162.43211770057678,162.5868377685547,162.5868377685547,162.5868377685547,162.5868377685547,162.5868377685547,162.5868377685547,162.5868377685547,163.3990182876587,3,0.9559841156005859,None,,,,,,,,,,,,,,,,,,132,2,2025-02-26_15h48.46.616,comp,2024.2.4,56.62973534200855,2025-02-26 15h48.55.604983 -0500,
40,40,0,filler_square,None,None,None,None,None,None,None,None,None,None,2,1.2403881549835205,None,,,,,0,0,0,0,0,40,40,197,163.42002940177917,,,,,,,,,,,,,,,,,,,,,,,,,,,,,,,,,,,,,,,,,,,,,,,,,,,,,,,,,,,,,,,,,,,,,,,,,,,,,,,,,72.26755967372644,111.80756931723977,116.21314256853908,116.21314256853908,91.15791459098813,102.84794877163424,4.0,4.1,-210,-282,0,-7,206,-263,163.40103316307068,163.40112042427063,163.4043312072754,163.42002940177917,163.5696156024933,163.5696156024933,163.5696156024933,163.5696156024933,163.5696156024933,163.5696156024933,163.5696156024933,164.66430139541626,2,1.2403881549835205,None,,,,,,,,,,,,,,,,,,132,2,2025-02-26_15h48.46.616,comp,2024.2.4,56.62973534200855,2025-02-26 15h48.55.604983 -0500,
41,41,0,critical,wdh,20.0,1.0,lower,57.0,133.0,78.0,78.0,133.0,57.0,1,2.8798043727874756,None,,,,,0,0,0,0,0,41,41,78,164.6841742992401,,,,,,,,,,,,,,,,,,,,,,,,,,,,,,,,,,,,,,,,,,,,,,,,,,,,,,,,,,,,,,,,,,,,,,,,,,,,,,,,,57.0,133.0,78.0,78.0,133.0,57.0,1.0,1.3,278,-266,480,-285,644,-277,164.66585326194763,164.665931224823,164.66908288002014,164.6841742992401,164.8328185081482,164.8328185081482,164.8328185081482,164.8328185081482,164.8328185081482,164.8328185081482,164.8328185081482,167.5661871433258,1,2.8798043727874756,None,,,,,,,,,,,,,,,,,,132,2,2025-02-26_15h48.46.616,comp,2024.2.4,56.62973534200855,2025-02-26 15h48.55.604983 -0500,
42,42,0,critical,hwd,20.0,3.0,lower,133.0,57.0,57.0,133.0,78.0,78.0,3,1.31734299659729,None,,,,,0,0,0,0,0,42,42,104,167.5825912952423,,,,,,,,,,,,,,,,,,,,,,,,,,,,,,,,,,,,,,,,,,,,,,,,,,,,,,,,,,,,,,,,,,,,,,,,,,,,,,,,,133.0,57.0,57.0,133.0,78.0,78.0,3.0,3.1,-191,268,0,-16,202,-287,167.5679156780243,167.56804752349854,167.5716688632965,167.5825912952423,167.73304414749146,167.73304414749146,167.73304414749146,167.73304414749146,167.73304414749146,167.73304414749146,167.73304414749146,168.9165816307068,3,1.31734299659729,None,,,,,,,,,,,,,,,,,,132,2,2025-02-26_15h48.46.616,comp,2024.2.4,56.62973534200855,2025-02-26 15h48.55.604983 -0500,
43,43,0,critical,hdw,20.0,2.1,lower,133.0,57.0,78.0,78.0,57.0,133.0,2,2.1200571060180664,None,,,,,0,0,0,0,0,43,43,46,168.93192434310913,,,,,,,,,,,,,,,,,,,,,,,,,,,,,,,,,,,,,,,,,,,,,,,,,,,,,,,,,,,,,,,,,,,,,,,,,,,,,,,,,133.0,57.0,78.0,78.0,57.0,133.0,2.1,2.12,-164,-260,0,-263,202,271,168.91817355155945,168.9182538986206,168.92172741889954,168.93192434310913,169.07626271247864,169.07626271247864,169.07626271247864,169.07626271247864,169.07626271247864,169.07626271247864,169.07626271247864,171.07131004333496,2,2.1200571060180664,None,,,,,,,,,,,,,,,,,,132,2,2025-02-26_15h48.46.616,comp,2024.2.4,56.62973534200855,2025-02-26 15h48.55.604983 -0500,
44,44,0,filler_square,None,None,None,None,None,None,None,None,None,None,1,1.0684175491333008,None,,,,,0,0,0,0,0,44,44,193,171.08883047103882,,,,,,,,,,,,,,,,,,,,,,,,,,,,,,,,,,,,,,,,,,,,,,,,,,,,,,,,,,,,,,,,,,,,,,,,,,,,,,,,,118.24806158716481,118.24806158716481,94.80977745057204,85.03886656077552,112.63396640465234,67.28742111553728,3.0,3.2,-198,-280,0,-12,172,285,171.0732877254486,171.07336711883545,171.0762927532196,171.08883047103882,171.23384952545166,171.23384952545166,171.23384952545166,171.23384952545166,171.23384952545166,171.23384952545166,171.23384952545166,172.16860818862915,1,1.0684175491333008,None,,,,,,,,,,,,,,,,,,132,2,2025-02-26_15h48.46.616,comp,2024.2.4,56.62973534200855,2025-02-26 15h48.55.604983 -0500,
45,45,0,critical,dwh,35.0,2.1,upper,127.0,127.0,125.0,200.0,200.0,125.0,2,2.0039279460906982,None,,,,,0,0,0,0,0,45,45,5,172.18436789512634,,,,,,,,,,,,,,,,,,,,,,,,,,,,,,,,,,,,,,,,,,,,,,,,,,,,,,,,,,,,,,,,,,,,,,,,,,,,,,,,,127.0,127.0,125.0,200.0,200.0,125.0,2.1,2.12,-260,-255,0,-288,258,282,172.17021775245667,172.17029857635498,172.17379212379456,172.18436789512634,172.33243680000305,172.33243680000305,172.33243680000305,172.33243680000305,172.33243680000305,172.33243680000305,172.33243680000305,174.1942389011383,2,2.0039279460906982,None,,,,,,,,,,,,,,,,,,132,2,2025-02-26_15h48.46.616,comp,2024.2.4,56.62973534200855,2025-02-26 15h48.55.604983 -0500,
46,46,0,critical,hwd,20.0,2.1,lower,133.0,57.0,57.0,133.0,78.0,78.0,3,3.2487287521362305,None,,,,,0,0,0,0,0,46,46,18,174.21186757087708,,,,,,,,,,,,,,,,,,,,,,,,,,,,,,,,,,,,,,,,,,,,,,,,,,,,,,,,,,,,,,,,,,,,,,,,,,,,,,,,,133.0,57.0,57.0,133.0,78.0,78.0,2.1,2.12,-191,-275,0,-288,202,288,174.1958453655243,174.19592237472534,174.19878935813904,174.21186757087708,174.35253882408142,174.35253882408142,174.35253882408142,174.35253882408142,174.35253882408142,174.35253882408142,174.35253882408142,177.46736669540405,3,3.2487287521362305,None,,,,,,,,,,,,,,,,,,132,2,2025-02-26_15h48.46.616,comp,2024.2.4,56.62973534200855,2025-02-26 15h48.55.604983 -0500,
47,47,0,filler_square,None,None,None,None,None,None,None,None,None,None,3,1.4012603759765625,None,,,,,0,0,0,0,0,47,47,174,177.4829659461975,,,,,,,,,,,,,,,,,,,,,,,,,,,,,,,,,,,,,,,,,,,,,,,,,,,,,,,,,,,,,,,,,,,,,,,,,,,,,,,,,144.77340074644218,192.77612031380184,79.29177550610436,195.36164749756222,198.67682639650735,198.67682639650735,4.0,4.1,-290,-265,0,16,293,-266,177.4691572189331,177.46923565864563,177.47217416763306,177.4829659461975,177.64093923568726,177.64093923568726,177.64093923568726,177.64093923568726,177.64093923568726,177.64093923568726,177.64093923568726,178.90289402008057,3,1.4012603759765625,None,,,,,,,,,,,,,,,,,,132,2,2025-02-26_15h48.46.616,comp,2024.2.4,56.62973534200855,2025-02-26 15h48.55.604983 -0500,
48,48,0,filler_square,None,None,None,None,None,None,None,None,None,None,1,1.0099623203277588,None,,,,,0,0,0,0,0,48,48,176,178.9221842288971,,,,,,,,,,,,,,,,,,,,,,,,,,,,,,,,,,,,,,,,,,,,,,,,,,,,,,,,,,,,,,,,,,,,,,,,,,,,,,,,,140.93847002726966,140.93847002726966,82.02455208918462,76.14219336036669,69.56795740935493,131.11658034395344,1.0,1.2,-205,-16,0,13,200,-10,178.9045205116272,178.90459656715393,178.9077274799347,178.9221842288971,179.06987857818604,179.06987857818604,179.06987857818604,179.06987857818604,179.06987857818604,179.06987857818604,179.06987857818604,179.93692588806152,1,1.0099623203277588,None,,,,,,,,,,,,,,,,,,132,2,2025-02-26_15h48.46.616,comp,2024.2.4,56.62973534200855,2025-02-26 15h48.55.604983 -0500,
49,49,0,critical,hwd,35.0,4.0,upper,200.0,125.0,125.0,200.0,127.0,127.0,2,1.6234931945800781,None,,,,,0,0,0,0,0,49,49,101,179.95714497566223,,,,,,,,,,,,,,,,,,,,,,,,,,,,,,,,,,,,,,,,,,,,,,,,,,,,,,,,,,,,,,,,,,,,,,,,,,,,,,,,,200.0,125.0,125.0,200.0,127.0,127.0,4.0,4.1,-258,-285,0,-1,260,-266,179.93856263160706,179.93867683410645,179.94216299057007,179.95714497566223,180.10388112068176,180.10388112068176,180.10388112068176,180.10388112068176,180.10388112068176,180.10388112068176,180.10388112068176,181.58640098571777,2,1.6234931945800781,None,,,,,,,,,,,,,,,,,,132,2,2025-02-26_15h48.46.616,comp,2024.2.4,56.62973534200855,2025-02-26 15h48.55.604983 -0500,
50,50,0,critical,hwd,20.0,2.1,upper,200.0,125.0,125.0,200.0,141.0,141.0,1,1.7919471263885498,None,,,,,0,0,0,0,0,50,50,43,181.60395193099976,,,,,,,,,,,,,,,,,,,,,,,,,,,,,,,,,,,,,,,,,,,,,,,,,,,,,,,,,,,,,,,,,,,,,,,,,,,,,,,,,200.0,125.0,125.0,200.0,141.0,141.0,2.1,2.12,-258,-286,0,-277,266,284,181.58808755874634,181.58817553520203,181.59173107147217,181.60395193099976,181.7407054901123,181.7407054901123,181.7407054901123,181.7407054901123,181.7407054901123,181.7407054901123,181.7407054901123,183.40824246406555,1,1.7919471263885498,None,,,,,,,,,,,,,,,,,,132,2,2025-02-26_15h48.46.616,comp,2024.2.4,56.62973534200855,2025-02-26 15h48.55.604983 -0500,
51,51,0,filler_square,None,None,None,None,None,None,None,None,None,None,2,2.251659870147705,None,,,,,0,0,0,0,0,51,51,198,183.42422533035278,,,,,,,,,,,,,,,,,,,,,,,,,,,,,,,,,,,,,,,,,,,,,,,,,,,,,,,,,,,,,,,,,,,,,,,,,,,,,,,,,89.37266028723869,77.03219017407109,93.96918347737403,93.96918347737403,83.76604824840501,68.83308607832353,2.1,2.11,-182,260,0,252,177,-278,183.41045761108398,183.41061973571777,183.41401529312134,183.42422533035278,183.57499527931213,183.57499527931213,183.57499527931213,183.57499527931213,183.57499527931213,183.57499527931213,183.57499527931213,185.6897041797638,2,2.251659870147705,None,,,,,,,,,,,,,,,,,,132,2,2025-02-26_15h48.46.616,comp,2024.2.4,56.62973534200855,2025-02-26 15h48.55.604983 -0500,
52,52,0,filler_random,None,None,None,None,None,None,None,None,None,None,2,2.5105199813842773,None,,,,,0,0,0,0,0,52,52,137,185.70992636680603,,,,,,,,,,,,,,,,,,,,,,,,,,,,,,,,,,,,,,,,,,,,,,,,,,,,,,,,,,,,,,,,,,,,,,,,,,,,,,,,,164.10634064719608,101.9076961389479,118.21101766718107,126.79056773112134,64.33527889771993,87.93048932613553,1.0,1.3,270,-285,480,-282,683,-269,185.69133186340332,185.69140911102295,185.69482278823853,185.70992636680603,185.85872411727905,185.85872411727905,185.85872411727905,185.85872411727905,185.85872411727905,185.85872411727905,185.85872411727905,188.22329139709473,2,2.5105199813842773,None,,,,,,,,,,,,,,,,,,132,2,2025-02-26_15h48.46.616,comp,2024.2.4,56.62973534200855,2025-02-26 15h48.55.604983 -0500,
53,53,0,critical,dhw,35.0,2.1,upper,127.0,127.0,200.0,125.0,125.0,200.0,3,1.5806047916412354,None,,,,,0,0,0,0,0,53,53,25,188.23951363563538,,,,,,,,,,,,,,,,,,,,,,,,,,,,,,,,,,,,,,,,,,,,,,,,,,,,,,,,,,,,,,,,,,,,,,,,,,,,,,,,,127.0,127.0,200.0,125.0,125.0,200.0,2.1,2.12,-222,-262,0,-266,258,269,188.22487258911133,188.22494745254517,188.2286729812622,188.23951363563538,188.38797426223755,188.38797426223755,188.38797426223755,188.38797426223755,188.38797426223755,188.38797426223755,188.38797426223755,189.82308959960938,3,1.5806047916412354,None,,,,,,,,,,,,,,,,,,132,2,2025-02-26_15h48.46.616,comp,2024.2.4,56.62973534200855,2025-02-26 15h48.55.604983 -0500,
54,54,0,critical,dhw,35.0,2.1,lower,70.0,70.0,133.0,57.0,57.0,133.0,3,2.06201171875,None,,,,,0,0,0,0,0,54,54,24,189.8387589454651,,,,,,,,,,,,,,,,,,,,,,,,,,,,,,,,,,,,,,,,,,,,,,,,,,,,,,,,,,,,,,,,,,,,,,,,,,,,,,,,,70.0,70.0,133.0,57.0,57.0,133.0,2.1,2.11,-160,281,0,274,191,-286,189.82458758354187,189.82468247413635,189.82803797721863,189.8387589454651,189.98873209953308,189.98873209953308,189.98873209953308,189.98873209953308,189.98873209953308,189.98873209953308,189.98873209953308,191.9064164161682,3,2.06201171875,None,,,,,,,,,,,,,,,,,,132,2,2025-02-26_15h48.46.616,comp,2024.2.4,56.62973534200855,2025-02-26 15h48.55.604983 -0500,
55,55,0,filler_square,None,None,None,None,None,None,None,None,None,None,1,1.716860294342041,None,,,,,0,0,0,0,0,55,55,172,191.92712306976318,,,,,,,,,,,,,,,,,,,,,,,,,,,,,,,,,,,,,,,,,,,,,,,,,,,,,,,,,,,,,,,,,,,,,,,,,,,,,,,,,112.47608182358573,112.47608182358573,61.37843563753632,72.38986481835676,112.37672903763607,72.47491134929311,4.0,4.1,-188,-264,0,9,168,-290,191.9081747531891,191.9082534313202,191.91131734848022,191.92712306976318,192.05972981452942,192.05972981452942,192.05972981452942,192.05972981452942,192.05972981452942,192.05972981452942,192.05972981452942,193.66154408454895,1,1.716860294342041,None,,,,,,,,,,,,,,,,,,132,2,2025-02-26_15h48.46.616,comp,2024.2.4,56.62973534200855,2025-02-26 15h48.55.604983 -0500,
56,56,0,critical,hwd,35.0,1.0,lower,133.0,57.0,57.0,133.0,70.0,70.0,2,2.038142442703247,None,,,,,0,0,0,0,0,56,56,96,193.67859816551208,,,,,,,,,,,,,,,,,,,,,,,,,,,,,,,,,,,,,,,,,,,,,,,,,,,,,,,,,,,,,,,,,,,,,,,,,,,,,,,,,133.0,57.0,57.0,133.0,70.0,70.0,1.0,1.2,-191,13,0,-10,198,9,193.66316866874695,193.66324710845947,193.66617441177368,193.67859816551208,193.8240442276001,193.8240442276001,193.8240442276001,193.8240442276001,193.8240442276001,193.8240442276001,193.8240442276001,195.7241644859314,2,2.038142442703247,None,,,,,,,,,,,,,,,,,,132,2,2025-02-26_15h48.46.616,comp,2024.2.4,56.62973534200855,2025-02-26 15h48.55.604983 -0500,
57,57,0,filler_square,None,None,None,None,None,None,None,None,None,None,3,1.452653408050537,None,,,,,0,0,0,0,0,57,57,191,195.7434060573578,,,,,,,,,,,,,,,,,,,,,,,,,,,,,,,,,,,,,,,,,,,,,,,,,,,,,,,,,,,,,,,,,,,,,,,,,,,,,,,,,67.32874060815318,74.51853884578357,85.23378501193733,72.20977850971694,87.6951548529769,87.6951548529769,2.1,2.11,-169,276,0,281,176,-290,195.72592973709106,195.7260103225708,195.72905921936035,195.7434060573578,195.89112186431885,195.89112186431885,195.89112186431885,195.89112186431885,195.89112186431885,195.89112186431885,195.89112186431885,197.20913577079773,3,1.452653408050537,None,,,,,,,,,,,,,,,,,,132,2,2025-02-26_15h48.46.616,comp,2024.2.4,56.62973534200855,2025-02-26 15h48.55.604983 -0500,
58,58,0,filler_random,None,None,None,None,None,None,None,None,None,None,1,1.2587547302246094,None,,,,,0,0,0,0,0,58,58,168,197.22519278526306,,,,,,,,,,,,,,,,,,,,,,,,,,,,,,,,,,,,,,,,,,,,,,,,,,,,,,,,,,,,,,,,,,,,,,,,,,,,,,,,,119.66617640517849,111.79185323026329,66.29170338343094,69.75908960494324,63.145270729890434,107.85190020492422,2.1,2.12,-187,-263,0,-266,185,266,197.21079206466675,197.21087098121643,197.21492505073547,197.22519278526306,197.37587928771973,197.37587928771973,197.37587928771973,197.37587928771973,197.37587928771973,197.37587928771973,197.37587928771973,198.5018391609192,1,1.2587547302246094,None,,,,,,,,,,,,,,,,,,132,2,2025-02-26_15h48.46.616,comp,2024.2.4,56.62973534200855,2025-02-26 15h48.55.604983 -0500,
59,59,0,critical,whd,20.0,2.1,lower,57.0,133.0,133.0,57.0,78.0,78.0,2,2.3386738300323486,None,,,,,0,0,0,0,0,59,59,14,198.52146530151367,,,,,,,,,,,,,,,,,,,,,,,,,,,,,,,,,,,,,,,,,,,,,,,,,,,,,,,,,,,,,,,,,,,,,,,,,,,,,,,,,57.0,133.0,133.0,57.0,78.0,78.0,2.1,2.12,-191,-284,0,-271,164,274,198.50333452224731,198.5034098625183,198.50627994537354,198.52146530151367,198.66277027130127,198.66277027130127,198.66277027130127,198.66277027130127,198.66277027130127,198.66277027130127,198.66277027130127,200.8624725341797,2,2.3386738300323486,None,,,,,,,,,,,,,,,,,,132,2,2025-02-26_15h48.46.616,comp,2024.2.4,56.62973534200855,2025-02-26 15h48.55.604983 -0500,
60,60,0,critical,whd,35.0,2.1,upper,125.0,200.0,200.0,125.0,127.0,127.0,2,2.522048234939575,None,,,,,0,0,0,0,0,60,60,13,200.88266611099243,,,,,,,,,,,,,,,,,,,,,,,,,,,,,,,,,,,,,,,,,,,,,,,,,,,,,,,,,,,,,,,,,,,,,,,,,,,,,,,,,125.0,200.0,200.0,125.0,127.0,127.0,2.1,2.12,-258,-276,0,-273,222,271,200.86442065238953,200.8646366596222,200.8677785396576,200.88266611099243,201.02802109718323,201.02802109718323,201.02802109718323,201.02802109718323,201.02802109718323,201.02802109718323,201.02802109718323,203.41098618507385,2,2.522048234939575,None,,,,,,,,,,,,,,,,,,132,2,2025-02-26_15h48.46.616,comp,2024.2.4,56.62973534200855,2025-02-26 15h48.55.604983 -0500,
61,61,0,filler_square,None,None,None,None,None,None,None,None,None,None,2,0.985306978225708,None,,,,,0,0,0,0,0,61,61,178,203.42676520347595,,,,,,,,,,,,,,,,,,,,,,,,,,,,,,,,,,,,,,,,,,,,,,,,,,,,,,,,,,,,,,,,,,,,,,,,,,,,,,,,,125.99267646012657,111.62944121986061,175.1054681146491,175.1054681146491,88.52289075218143,151.02193730367196,3.0,3.1,-239,258,0,4,259,-282,203.41275763511658,203.41283559799194,203.41612458229065,203.42676520347595,203.58506655693054,203.58506655693054,203.58506655693054,203.58506655693054,203.58506655693054,203.58506655693054,203.58506655693054,204.42743062973022,2,0.985306978225708,None,,,,,,,,,,,,,,,,,,132,2,2025-02-26_15h48.46.616,comp,2024.2.4,56.62973534200855,2025-02-26 15h48.55.604983 -0500,
62,62,0,critical,hdw,35.0,2.1,lower,133.0,57.0,70.0,70.0,57.0,133.0,3,2.824591875076294,None,,,,,0,0,0,0,0,62,62,44,204.44337821006775,,,,,,,,,,,,,,,,,,,,,,,,,,,,,,,,,,,,,,,,,,,,,,,,,,,,,,,,,,,,,,,,,,,,,,,,,,,,,,,,,133.0,57.0,70.0,70.0,57.0,133.0,2.1,2.12,-160,-258,0,-281,198,267,204.42903327941895,204.42910766601562,204.43243980407715,204.44337821006775,204.59730696678162,204.59730696678162,204.59730696678162,204.59730696678162,204.59730696678162,204.59730696678162,204.59730696678162,207.2810525894165,3,2.824591875076294,None,,,,,,,,,,,,,,,,,,132,2,2025-02-26_15h48.46.616,comp,2024.2.4,56.62973534200855,2025-02-26 15h48.55.604983 -0500,
63,63,0,critical,hdw,20.0,3.0,upper,200.0,125.0,141.0,141.0,125.0,200.0,3,1.4999117851257324,None,,,,,0,0,0,0,0,63,63,117,207.29659795761108,,,,,,,,,,,,,,,,,,,,,,,,,,,,,,,,,,,,,,,,,,,,,,,,,,,,,,,,,,,,,,,,,,,,,,,,,,,,,,,,,200.0,125.0,141.0,141.0,125.0,200.0,3.0,3.1,-229,251,0,9,266,-285,207.28319549560547,207.28332448005676,207.28634023666382,207.29659795761108,207.4459409713745,207.4459409713745,207.4459409713745,207.4459409713745,207.4459409713745,207.4459409713745,207.4459409713745,208.80028557777405,3,1.4999117851257324,None,,,,,,,,,,,,,,,,,,132,2,2025-02-26_15h48.46.616,comp,2024.2.4,56.62973534200855,2025-02-26 15h48.55.604983 -0500,
64,64,0,filler_square,None,None,None,None,None,None,None,None,None,None,3,1.5560672283172607,None,,,,,0,0,0,0,0,64,64,190,208.81676077842712,,,,,,,,,,,,,,,,,,,,,,,,,,,,,,,,,,,,,,,,,,,,,,,,,,,,,,,,,,,,,,,,,,,,,,,,,,,,,,,,,89.55185412080246,129.50882786282088,97.0911761642536,120.33292852689563,150.11534797467058,150.11534797467058,1.0,1.2,-221,2,0,17,231,-18,208.80216646194458,208.80224466323853,208.80521202087402,208.81676077842712,208.96347403526306,208.96347403526306,208.96347403526306,208.96347403526306,208.96347403526306,208.96347403526306,208.96347403526306,210.38006138801575,3,1.5560672283172607,None,,,,,,,,,,,,,,,,,,132,2,2025-02-26_15h48.46.616,comp,2024.2.4,56.62973534200855,2025-02-26 15h48.55.604983 -0500,
65,65,0,critical,dhw,35.0,3.0,upper,127.0,127.0,200.0,125.0,125.0,200.0,3,1.888432502746582,None,,,,,0,0,0,0,0,65,65,51,210.3956480026245,,,,,,,,,,,,,,,,,,,,,,,,,,,,,,,,,,,,,,,,,,,,,,,,,,,,,,,,,,,,,,,,,,,,,,,,,,,,,,,,,127.0,127.0,200.0,125.0,125.0,200.0,3.0,3.2,-222,-289,0,-19,258,258,210.3815565109253,210.38163566589355,210.38496327400208,210.3956480026245,210.55241537094116,210.55241537094116,210.55241537094116,210.55241537094116,210.55241537094116,210.55241537094116,210.55241537094116,212.29695630073547,3,1.888432502746582,None,,,,,,,,,,,,,,,,,,132,2,2025-02-26_15h48.46.616,comp,2024.2.4,56.62973534200855,2025-02-26 15h48.55.604983 -0500,
66,66,0,filler_square,None,None,None,None,None,None,None,None,None,None,2,1.8121168613433838,None,,,,,0,0,0,0,0,66,66,194,212.31282925605774,,,,,,,,,,,,,,,,,,,,,,,,,,,,,,,,,,,,,,,,,,,,,,,,,,,,,,,,,,,,,,,,,,,,,,,,,,,,,,,,,113.84184026963258,85.77420615526442,115.5111995216086,115.5111995216086,93.06495954653326,102.16724765402756,1.0,1.1,-677,269,-480,282,-275,259,212.2987310886383,212.29880499839783,212.3019208908081,212.31282925605774,212.46709847450256,212.46709847450256,212.46709847450256,212.46709847450256,212.46709847450256,212.46709847450256,212.46709847450256,214.12998390197754,2,1.8121168613433838,None,,,,,,,,,,,,,,,,,,132,2,2025-02-26_15h48.46.616,comp,2024.2.4,56.62973534200855,2025-02-26 15h48.55.604983 -0500,
67,67,0,critical,dwh,20.0,4.0,lower,78.0,78.0,57.0,133.0,133.0,57.0,3,2.695303440093994,None,,,,,0,0,0,0,0,67,67,70,214.1493489742279,,,,,,,,,,,,,,,,,,,,,,,,,,,,,,,,,,,,,,,,,,,,,,,,,,,,,,,,,,,,,,,,,,,,,,,,,,,,,,,,,78.0,78.0,57.0,133.0,133.0,57.0,4.0,4.2,-202,-4,0,-256,191,13,214.13144302368164,214.13155364990234,214.13478994369507,214.1493489742279,214.29730772972107,214.29730772972107,214.29730772972107,214.29730772972107,214.29730772972107,214.29730772972107,214.29730772972107,216.85231614112854,3,2.695303440093994,None,,,,,,,,,,,,,,,,,,132,2,2025-02-26_15h48.46.616,comp,2024.2.4,56.62973534200855,2025-02-26 15h48.55.604983 -0500,
68,68,0,critical,wdh,20.0,2.1,lower,57.0,133.0,78.0,78.0,133.0,57.0,2,1.7765119075775146,None,,,,,0,0,0,0,0,68,68,10,216.86815738677979,,,,,,,,,,,,,,,,,,,,,,,,,,,,,,,,,,,,,,,,,,,,,,,,,,,,,,,,,,,,,,,,,,,,,,,,,,,,,,,,,57.0,133.0,78.0,78.0,133.0,57.0,2.1,2.11,-202,290,0,271,164,-286,216.85392355918884,216.8540005683899,216.85726714134216,216.86815738677979,217.01712107658386,217.01712107658386,217.01712107658386,217.01712107658386,217.01712107658386,217.01712107658386,217.01712107658386,218.64677667617798,2,1.7765119075775146,None,,,,,,,,,,,,,,,,,,132,2,2025-02-26_15h48.46.616,comp,2024.2.4,56.62973534200855,2025-02-26 15h48.55.604983 -0500,
69,69,0,catch,None,None,None,None,None,None,None,None,None,None,2,0.861990213394165,None,,,,,0,0,0,0,0,69,69,122,218.66256833076477,,,,,,,,,,,,,,,,,,,,,,,,,,,,,,,,,,,,,,,,,,,,,,,,,,,,,,,,,,,,,,,,,,,,,,,,,,,,,,,,,117,73,180,145,114,76,2.1,2.11,-205,277,0,282,206,-276,218.64863514900208,218.64871287345886,218.65164160728455,218.66256833076477,218.80847334861755,218.80847334861755,218.80847334861755,218.80847334861755,218.80847334861755,218.80847334861755,218.80847334861755,219.52939987182617,2,0.861990213394165,None,,,,,,,,,,,,,,,,,,132,2,2025-02-26_15h48.46.616,comp,2024.2.4,56.62973534200855,2025-02-26 15h48.55.604983 -0500,
70,70,0,filler_square,None,None,None,None,None,None,None,None,None,None,2,1.04097580909729,None,,,,,0,0,0,0,0,70,70,202,219.54701566696167,,,,,,,,,,,,,,,,,,,,,,,,,,,,,,,,,,,,,,,,,,,,,,,,,,,,,,,,,,,,,,,,,,,,,,,,,,,,,,,,,87.68351394140704,102.00730277931592,155.13201899760082,155.13201899760082,75.37692420868879,123.82126966428977,4.0,4.2,-225,0,0,-277,235,-4,219.53131771087646,219.53140306472778,219.53461456298828,219.54701566696167,219.6841595172882,219.6841595172882,219.6841595172882,219.6841595172882,219.6841595172882,219.6841595172882,219.6841595172882,220.60030221939087,2,1.04097580909729,None,,,,,,,,,,,,,,,,,,132,2,2025-02-26_15h48.46.616,comp,2024.2.4,56.62973534200855,2025-02-26 15h48.55.604983 -0500,
71,71,0,catch,None,None,None,None,None,None,None,None,None,None,2,0.8647012710571289,None,,,,,0,0,0,0,0,71,71,128,220.6193368434906,,,,,,,,,,,,,,,,,,,,,,,,,,,,,,,,,,,,,,,,,,,,,,,,,,,,,,,,,,,,,,,,,,,,,,,,,,,,,,,,,81,109,195,130,78,112,1.0,1.1,-696,253,-480,255,-263,287,220.602543592453,220.60262727737427,220.60611295700073,220.6193368434906,220.76423478126526,220.76423478126526,220.76423478126526,220.76423478126526,220.76423478126526,220.76423478126526,220.76423478126526,221.5012276172638,2,0.8647012710571289,None,,,,,,,,,,,,,,,,,,132,2,2025-02-26_15h48.46.616,comp,2024.2.4,56.62973534200855,2025-02-26 15h48.55.604983 -0500,
72,72,0,critical,wdh,35.0,3.0,lower,57.0,133.0,70.0,70.0,133.0,57.0,3,1.682189702987671,None,,,,,0,0,0,0,0,72,72,74,221.52172589302063,,,,,,,,,,,,,,,,,,,,,,,,,,,,,,,,,,,,,,,,,,,,,,,,,,,,,,,,,,,,,,,,,,,,,,,,,,,,,,,,,57.0,133.0,70.0,70.0,133.0,57.0,3.0,3.2,-198,-282,0,4,160,275,221.50290250778198,221.50303268432617,221.50633716583252,221.52172589302063,221.6658492088318,221.6658492088318,221.6658492088318,221.6658492088318,221.6658492088318,221.6658492088318,221.6658492088318,223.21667051315308,3,1.682189702987671,None,,,,,,,,,,,,,,,,,,132,2,2025-02-26_15h48.46.616,comp,2024.2.4,56.62973534200855,2025-02-26 15h48.55.604983 -0500,
73,73,0,critical,dhw,35.0,4.0,upper,127.0,127.0,200.0,125.0,125.0,200.0,3,1.6520726680755615,None,,,,,0,0,0,0,0,73,73,53,223.2320272922516,,,,,,,,,,,,,,,,,,,,,,,,,,,,,,,,,,,,,,,,,,,,,,,,,,,,,,,,,,,,,,,,,,,,,,,,,,,,,,,,,127.0,127.0,200.0,125.0,125.0,200.0,4.0,4.1,-222,-289,0,8,258,-263,223.21817445755005,223.21824836730957,223.2212839126587,223.2320272922516,223.38401651382446,223.38401651382446,223.38401651382446,223.38401651382446,223.38401651382446,223.38401651382446,223.38401651382446,224.88715147972107,3,1.6520726680755615,None,,,,,,,,,,,,,,,,,,132,2,2025-02-26_15h48.46.616,comp,2024.2.4,56.62973534200855,2025-02-26 15h48.55.604983 -0500,
74,74,0,filler_random,None,None,None,None,None,None,None,None,None,None,3,1.722029447555542,None,,,,,0,0,0,0,0,74,74,159,224.9065864086151,,,,,,,,,,,,,,,,,,,,,,,,,,,,,,,,,,,,,,,,,,,,,,,,,,,,,,,,,,,,,,,,,,,,,,,,,,,,,,,,,62.37668605071856,187.84693656021506,178.64107671826525,73.85437822420272,171.4235389414728,78.29538772605041,1.0,1.1,-707,286,-480,290,-308,279,224.8890516757965,224.8891303539276,224.89199542999268,224.9065864086151,225.0513699054718,225.0513699054718,225.0513699054718,225.0513699054718,225.0513699054718,225.0513699054718,225.0513699054718,226.6322784423828,3,1.722029447555542,None,,,,,,,,,,,,,,,,,,132,2,2025-02-26_15h48.46.616,comp,2024.2.4,56.62973534200855,2025-02-26 15h48.55.604983 -0500,
75,75,0,critical,dhw,20.0,1.0,lower,78.0,78.0,133.0,57.0,57.0,133.0,2,2.043337106704712,None,,,,,0,0,0,0,0,75,75,54,226.64907884597778,,,,,,,,,,,,,,,,,,,,,,,,,,,,,,,,,,,,,,,,,,,,,,,,,,,,,,,,,,,,,,,,,,,,,,,,,,,,,,,,,78.0,78.0,133.0,57.0,57.0,133.0,1.0,1.1,-644,278,-480,287,-289,269,226.63383507728577,226.63391089439392,226.63674068450928,226.64907884597778,226.78747153282166,226.78747153282166,226.78747153282166,226.78747153282166,226.78747153282166,226.78747153282166,226.78747153282166,228.7011148929596,2,2.043337106704712,None,,,,,,,,,,,,,,,,,,132,2,2025-02-26_15h48.46.616,comp,2024.2.4,56.62973534200855,2025-02-26 15h48.55.604983 -0500,
76,76,0,filler_random,None,None,None,None,None,None,None,None,None,None,1,1.150759220123291,None,,,,,0,0,0,0,0,76,76,132,228.71746110916138,,,,,,,,,,,,,,,,,,,,,,,,,,,,,,,,,,,,,,,,,,,,,,,,,,,,,,,,,,,,,,,,,,,,,,,,,,,,,,,,,136.5569756836499,176.24126270194358,157.51756103742898,129.58652057307816,177.7802796617375,155.81630070942248,2.2,2.22,-249,250,0,-261,239,-286,228.70284271240234,228.70292353630066,228.70600414276123,228.71746110916138,228.86956787109375,228.86956787109375,228.86956787109375,228.86956787109375,228.86956787109375,228.86956787109375,228.86956787109375,229.87112712860107,1,1.150759220123291,None,,,,,,,,,,,,,,,,,,132,2,2025-02-26_15h48.46.616,comp,2024.2.4,56.62973534200855,2025-02-26 15h48.55.604983 -0500,
77,77,0,filler_square,None,None,None,None,None,None,None,None,None,None,2,1.1637635231018066,None,,,,,0,0,0,0,0,77,77,188,229.88826251029968,,,,,,,,,,,,,,,,,,,,,,,,,,,,,,,,,,,,,,,,,,,,,,,,,,,,,,,,,,,,,,,,,,,,,,,,,,,,,,,,,129.09627377563015,98.92186888643407,197.28883475272423,197.28883475272423,79.28211576267174,99.89539241764817,1.0,1.1,-724,257,-480,265,-235,277,229.87300038337708,229.8730764389038,229.87678408622742,229.88826251029968,230.03608226776123,230.03608226776123,230.03608226776123,230.03608226776123,230.03608226776123,230.03608226776123,230.03608226776123,231.06809067726135,2,1.1637635231018066,None,,,,,,,,,,,,,,,,,,132,2,2025-02-26_15h48.46.616,comp,2024.2.4,56.62973534200855,2025-02-26 15h48.55.604983 -0500,
78,78,0,critical,whd,35.0,2.1,upper,125.0,200.0,200.0,125.0,127.0,127.0,2,2.0810251235961914,None,,,,,0,0,0,0,0,78,78,37,231.08356618881226,,,,,,,,,,,,,,,,,,,,,,,,,,,,,,,,,,,,,,,,,,,,,,,,,,,,,,,,,,,,,,,,,,,,,,,,,,,,,,,,,125.0,200.0,200.0,125.0,127.0,127.0,2.1,2.12,-258,-270,0,-277,222,271,231.0695276260376,231.0696017742157,231.0723774433136,231.08356618881226,231.22261810302734,231.22261810302734,231.22261810302734,231.22261810302734,231.22261810302734,231.22261810302734,231.22261810302734,233.1692590713501,2,2.0810251235961914,None,,,,,,,,,,,,,,,,,,132,2,2025-02-26_15h48.46.616,comp,2024.2.4,56.62973534200855,2025-02-26 15h48.55.604983 -0500,
79,79,0,critical,whd,35.0,2.1,lower,57.0,133.0,133.0,57.0,70.0,70.0,2,2.254075288772583,None,,,,,0,0,0,0,0,79,79,12,233.19081616401672,,,,,,,,,,,,,,,,,,,,,,,,,,,,,,,,,,,,,,,,,,,,,,,,,,,,,,,,,,,,,,,,,,,,,,,,,,,,,,,,,57.0,133.0,133.0,57.0,70.0,70.0,2.1,2.12,-191,-266,0,-256,160,276,233.17072081565857,233.17079830169678,233.17373085021973,233.19081616401672,233.34341263771057,233.34341263771057,233.34341263771057,233.34341263771057,233.34341263771057,233.34341263771057,233.34341263771057,235.4557819366455,2,2.254075288772583,None,,,,,,,,,,,,,,,,,,132,2,2025-02-26_15h48.46.616,comp,2024.2.4,56.62973534200855,2025-02-26 15h48.55.604983 -0500,
80,80,0,filler_square,None,None,None,None,None,None,None,None,None,None,3,2.3389792442321777,None,,,,,0,0,0,0,0,80,80,177,235.47461867332458,,,,,,,,,,,,,,,,,,,,,,,,,,,,,,,,,,,,,,,,,,,,,,,,,,,,,,,,,,,,,,,,,,,,,,,,,,,,,,,,,89.35311709851266,61.50114473535112,68.94863990977574,84.72666218352049,97.47597673892051,97.47597673892051,2.1,2.12,-169,-251,0,-277,187,252,235.45793199539185,235.45801091194153,235.46135926246643,235.47461867332458,235.62628769874573,235.62628769874573,235.62628769874573,235.62628769874573,235.62628769874573,235.62628769874573,235.62628769874573,237.82489657402039,3,2.3389792442321777,None,,,,,,,,,,,,,,,,,,132,2,2025-02-26_15h48.46.616,comp,2024.2.4,56.62973534200855,2025-02-26 15h48.55.604983 -0500,
81,81,0,critical,hwd,20.0,4.0,lower,133.0,57.0,57.0,133.0,78.0,78.0,2,2.6482372283935547,None,,,,,0,0,0,0,0,81,81,106,237.84400248527527,,,,,,,,,,,,,,,,,,,,,,,,,,,,,,,,,,,,,,,,,,,,,,,,,,,,,,,,,,,,,,,,,,,,,,,,,,,,,,,,,133.0,57.0,57.0,133.0,78.0,78.0,4.0,4.2,-191,11,0,-275,202,-3,237.82654666900635,237.82666993141174,237.8300976753235,237.84400248527527,237.98818182945251,237.98818182945251,237.98818182945251,237.98818182945251,237.98818182945251,237.98818182945251,237.98818182945251,240.50605273246765,2,2.6482372283935547,None,,,,,,,,,,,,,,,,,,132,2,2025-02-26_15h48.46.616,comp,2024.2.4,56.62973534200855,2025-02-26 15h48.55.604983 -0500,
82,82,0,filler_square,None,None,None,None,None,None,None,None,None,None,1,2.225789785385132,None,,,,,0,0,0,0,0,82,82,208,240.52225542068481,,,,,,,,,,,,,,,,,,,,,,,,,,,,,,,,,,,,,,,,,,,,,,,,,,,,,,,,,,,,,,,,,,,,,,,,,,,,,,,,,140.6552252233007,140.6552252233007,121.61070987043453,114.73366260779632,121.79003363773735,65.70801407349371,2.1,2.11,-224,255,0,287,186,-270,240.5079026222229,240.50798320770264,240.51200008392334,240.52225542068481,240.67229199409485,240.67229199409485,240.67229199409485,240.67229199409485,240.67229199409485,240.67229199409485,240.67229199409485,242.76208662986755,1,2.225789785385132,None,,,,,,,,,,,,,,,,,,132,2,2025-02-26_15h48.46.616,comp,2024.2.4,56.62973534200855,2025-02-26 15h48.55.604983 -0500,
83,83,0,catch,None,None,None,None,None,None,None,None,None,None,2,1.1894192695617676,None,,,,,0,0,0,0,0,83,83,121,242.78257417678833,,,,,,,,,,,,,,,,,,,,,,,,,,,,,,,,,,,,,,,,,,,,,,,,,,,,,,,,,,,,,,,,,,,,,,,,,,,,,,,,,128,62,154,171,109,81,4.0,4.1,-212,-281,0,-4,222,-264,242.76394724845886,242.76402497291565,242.76686096191406,242.78257417678833,242.92318534851074,242.92318534851074,242.92318534851074,242.92318534851074,242.92318534851074,242.92318534851074,242.92318534851074,243.9891016483307,2,1.1894192695617676,None,,,,,,,,,,,,,,,,,,132,2,2025-02-26_15h48.46.616,comp,2024.2.4,56.62973534200855,2025-02-26 15h48.55.604983 -0500,
84,84,0,critical,wdh,20.0,2.1,lower,57.0,133.0,78.0,78.0,133.0,57.0,2,2.7271347045898438,None,,,,,0,0,0,0,0,84,84,34,244.0048804283142,,,,,,,,,,,,,,,,,,,,,,,,,,,,,,,,,,,,,,,,,,,,,,,,,,,,,,,,,,,,,,,,,,,,,,,,,,,,,,,,,57.0,133.0,78.0,78.0,133.0,57.0,2.1,2.12,-202,-268,0,-266,164,255,243.9907431602478,243.99087858200073,243.9941279888153,244.0048804283142,244.14606189727783,244.14606189727783,244.14606189727783,244.14606189727783,244.14606189727783,244.14606189727783,244.14606189727783,246.7465784549713,2,2.7271347045898438,None,,,,,,,,,,,,,,,,,,132,2,2025-02-26_15h48.46.616,comp,2024.2.4,56.62973534200855,2025-02-26 15h48.55.604983 -0500,
85,85,0,critical,dhw,20.0,1.0,upper,141.0,141.0,200.0,125.0,125.0,200.0,3,1.8453457355499268,None,,,,,0,0,0,0,0,85,85,55,246.76700091362,,,,,,,,,,,,,,,,,,,,,,,,,,,,,,,,,,,,,,,,,,,,,,,,,,,,,,,,,,,,,,,,,,,,,,,,,,,,,,,,,141.0,141.0,200.0,125.0,125.0,200.0,1.0,1.2,-229,-16,0,-19,258,15,246.7480504512787,246.74812746047974,246.7512822151184,246.76700091362,246.9085841178894,246.9085841178894,246.9085841178894,246.9085841178894,246.9085841178894,246.9085841178894,246.9085841178894,248.62566828727722,3,1.8453457355499268,None,,,,,,,,,,,,,,,,,,132,2,2025-02-26_15h48.46.616,comp,2024.2.4,56.62973534200855,2025-02-26 15h48.55.604983 -0500,
86,86,0,critical,dwh,20.0,1.0,lower,78.0,78.0,57.0,133.0,133.0,57.0,3,2.7881529331207275,None,,,,,0,0,0,0,0,86,86,66,248.64000630378723,,,,,,,,,,,,,,,,,,,,,,,,,,,,,,,,,,,,,,,,,,,,,,,,,,,,,,,,,,,,,,,,,,,,,,,,,,,,,,,,,78.0,78.0,57.0,133.0,133.0,57.0,1.0,1.3,278,-290,480,-279,671,-255,248.6272211074829,248.62729692459106,248.63058805465698,248.64000630378723,248.79255056381226,248.79255056381226,248.79255056381226,248.79255056381226,248.79255056381226,248.79255056381226,248.79255056381226,251.4307837486267,3,2.7881529331207275,None,,,,,,,,,,,,,,,,,,132,2,2025-02-26_15h48.46.616,comp,2024.2.4,56.62973534200855,2025-02-26 15h48.55.604983 -0500,
87,87,0,critical,hdw,35.0,2.1,upper,200.0,125.0,127.0,127.0,125.0,200.0,3,1.5702524185180664,None,,,,,0,0,0,0,0,87,87,45,251.45086407661438,,,,,,,,,,,,,,,,,,,,,,,,,,,,,,,,,,,,,,,,,,,,,,,,,,,,,,,,,,,,,,,,,,,,,,,,,,,,,,,,,200.0,125.0,127.0,127.0,125.0,200.0,2.1,2.11,-222,263,0,251,260,-280,251.43228006362915,251.43235635757446,251.43523025512695,251.45086407661438,251.5931692123413,251.5931692123413,251.5931692123413,251.5931692123413,251.5931692123413,251.5931692123413,251.5931692123413,253.0281081199646,3,1.5702524185180664,None,,,,,,,,,,,,,,,,,,132,2,2025-02-26_15h48.46.616,comp,2024.2.4,56.62973534200855,2025-02-26 15h48.55.604983 -0500,
88,88,0,filler_square,None,None,None,None,None,None,None,None,None,None,3,0.8710219860076904,None,,,,,0,0,0,0,0,88,88,203,253.04524660110474,,,,,,,,,,,,,,,,,,,,,,,,,,,,,,,,,,,,,,,,,,,,,,,,,,,,,,,,,,,,,,,,,,,,,,,,,,,,,,,,,101.32892410842464,85.89145383105604,116.76368365870495,65.01103600989691,130.5620228484709,130.5620228484709,3.0,3.2,-171,-276,0,9,194,287,253.03002953529358,253.0301332473755,253.0335123538971,253.04524660110474,253.1926019191742,253.1926019191742,253.1926019191742,253.1926019191742,253.1926019191742,253.1926019191742,253.1926019191742,253.929771900177,3,0.8710219860076904,None,,,,,,,,,,,,,,,,,,132,2,2025-02-26_15h48.46.616,comp,2024.2.4,56.62973534200855,2025-02-26 15h48.55.604983 -0500,
89,89,0,filler_random,None,None,None,None,None,None,None,None,None,None,2,1.2908961772918701,None,,,,,0,0,0,0,0,89,89,148,253.94559025764465,,,,,,,,,,,,,,,,,,,,,,,,,,,,,,,,,,,,,,,,,,,,,,,,,,,,,,,,,,,,,,,,,,,,,,,,,,,,,,,,,140.4897572844267,121.17976930442752,145.32979814064106,168.097756595837,130.6682643922287,86.04697304173507,2.2,2.22,-241,278,0,-273,223,-283,253.93157982826233,253.93165826797485,253.93452334403992,253.94559025764465,254.09287190437317,254.09287190437317,254.09287190437317,254.09287190437317,254.09287190437317,254.09287190437317,254.09287190437317,255.24461817741394,2,1.2908961772918701,None,,,,,,,,,,,,,,,,,,132,2,2025-02-26_15h48.46.616,comp,2024.2.4,56.62973534200855,2025-02-26 15h48.55.604983 -0500,
90,90,0,filler_random,None,None,None,None,None,None,None,None,None,None,3,1.6229736804962158,None,,,,,0,0,0,0,0,90,90,161,255.26136708259583,,,,,,,,,,,,,,,,,,,,,,,,,,,,,,,,,,,,,,,,,,,,,,,,,,,,,,,,,,,,,,,,,,,,,,,,,,,,,,,,,166.6316103978781,90.65186370965563,147.610090544756,105.66974351991686,187.326770828128,100.02545013557221,3.0,3.1,-194,271,0,3,199,-287,255.24625039100647,255.24632501602173,255.24981451034546,255.26136708259583,255.41040992736816,255.41040992736816,255.41040992736816,255.41040992736816,255.41040992736816,255.41040992736816,255.41040992736816,256.8884744644165,3,1.6229736804962158,None,,,,,,,,,,,,,,,,,,132,2,2025-02-26_15h48.46.616,comp,2024.2.4,56.62973534200855,2025-02-26 15h48.55.604983 -0500,
91,91,0,critical,whd,20.0,4.0,lower,57.0,133.0,133.0,57.0,78.0,78.0,2,1.4745352268218994,None,,,,,0,0,0,0,0,91,91,94,256.9059782028198,,,,,,,,,,,,,,,,,,,,,,,,,,,,,,,,,,,,,,,,,,,,,,,,,,,,,,,,,,,,,,,,,,,,,,,,,,,,,,,,,57.0,133.0,133.0,57.0,78.0,78.0,4.0,4.2,-191,6,0,-289,164,7,256.88996601104736,256.8900444507599,256.89293932914734,256.9059782028198,257.04353761672974,257.04353761672974,257.04353761672974,257.04353761672974,257.04353761672974,257.04353761672974,257.04353761672974,258.3882637023926,2,1.4745352268218994,None,,,,,,,,,,,,,,,,,,132,2,2025-02-26_15h48.46.616,comp,2024.2.4,56.62973534200855,2025-02-26 15h48.55.604983 -0500,
92,92,0,filler_random,None,None,None,None,None,None,None,None,None,None,2,0.860466718673706,None,,,,,0,0,0,0,0,92,92,140,258.4075586795807,,,,,,,,,,,,,,,,,,,,,,,,,,,,,,,,,,,,,,,,,,,,,,,,,,,,,,,,,,,,,,,,,,,,,,,,,,,,,,,,,98.69401408517089,117.59495604676614,198.78060813385332,161.8634005574998,60.80771036301612,99.41679851282171,2.2,2.21,-236,-277,0,271,227,256,258.3898968696594,258.38997292518616,258.3928551673889,258.4075586795807,258.547150850296,258.547150850296,258.547150850296,258.547150850296,258.547150850296,258.547150850296,258.547150850296,259.28311491012573,2,0.860466718673706,None,,,,,,,,,,,,,,,,,,132,2,2025-02-26_15h48.46.616,comp,2024.2.4,56.62973534200855,2025-02-26 15h48.55.604983 -0500,
93,93,0,filler_random,None,None,None,None,None,None,None,None,None,None,1,1.617567777633667,None,,,,,0,0,0,0,0,93,93,146,259.2987473011017,,,,,,,,,,,,,,,,,,,,,,,,,,,,,,,,,,,,,,,,,,,,,,,,,,,,,,,,,,,,,,,,,,,,,,,,,,,,,,,,,186.89506189889445,187.5806164868842,70.36162657917625,141.3194748749725,131.025113096981,145.9829379001534,2.1,2.12,-260,-253,0,-264,240,282,259.28499269485474,259.2850730419159,259.2882754802704,259.2987473011017,259.44603991508484,259.44603991508484,259.44603991508484,259.44603991508484,259.44603991508484,259.44603991508484,259.44603991508484,260.91909074783325,1,1.617567777633667,None,,,,,,,,,,,,,,,,,,132,2,2025-02-26_15h48.46.616,comp,2024.2.4,56.62973534200855,2025-02-26 15h48.55.604983 -0500,
94,94,0,critical,dwh,20.0,2.1,lower,78.0,78.0,57.0,133.0,133.0,57.0,1,1.811002492904663,None,,,,,0,0,0,0,0,94,94,30,260.93731665611267,,,,,,,,,,,,,,,,,,,,,,,,,,,,,,,,,,,,,,,,,,,,,,,,,,,,,,,,,,,,,,,,,,,,,,,,,,,,,,,,,78.0,78.0,57.0,133.0,133.0,57.0,2.1,2.12,-202,-264,0,-271,191,262,260.9206111431122,260.9206874370575,260.9235780239105,260.93731665611267,261.07860493659973,261.07860493659973,261.07860493659973,261.07860493659973,261.07860493659973,261.07860493659973,261.07860493659973,262.7681837081909,1,1.811002492904663,None,,,,,,,,,,,,,,,,,,132,2,2025-02-26_15h48.46.616,comp,2024.2.4,56.62973534200855,2025-02-26 15h48.55.604983 -0500,
95,95,0,critical,dwh,35.0,2.1,upper,127.0,127.0,125.0,200.0,200.0,125.0,2,2.0004184246063232,None,,,,,0,0,0,0,0,95,95,29,262.7879490852356,,,,,,,,,,,,,,,,,,,,,,,,,,,,,,,,,,,,,,,,,,,,,,,,,,,,,,,,,,,,,,,,,,,,,,,,,,,,,,,,,127.0,127.0,125.0,200.0,200.0,125.0,2.1,2.11,-260,257,0,254,258,-273,262.7696797847748,262.76975536346436,262.772766828537,262.7879490852356,262.92987847328186,262.92987847328186,262.92987847328186,262.92987847328186,262.92987847328186,262.92987847328186,262.92987847328186,264.80318784713745,2,2.0004184246063232,None,,,,,,,,,,,,,,,,,,132,2,2025-02-26_15h48.46.616,comp,2024.2.4,56.62973534200855,2025-02-26 15h48.55.604983 -0500,
96,96,0,critical,whd,35.0,1.0,upper,125.0,200.0,200.0,125.0,127.0,127.0,1,3.3426711559295654,None,,,,,0,0,0,0,0,96,96,85,264.82173323631287,,,,,,,,,,,,,,,,,,,,,,,,,,,,,,,,,,,,,,,,,,,,,,,,,,,,,,,,,,,,,,,,,,,,,,,,,,,,,,,,,125.0,200.0,200.0,125.0,127.0,127.0,1.0,1.1,-738,265,-480,261,-258,264,264.80485558509827,264.80496430397034,264.80819368362427,264.82173323631287,264.9636652469635,264.9636652469635,264.9636652469635,264.9636652469635,264.9636652469635,264.9636652469635,264.9636652469635,268.1811089515686,1,3.3426711559295654,None,,,,,,,,,,,,,,,,,,132,2,2025-02-26_15h48.46.616,comp,2024.2.4,56.62973534200855,2025-02-26 15h48.55.604983 -0500,
97,97,0,filler_random,None,None,None,None,None,None,None,None,None,None,1,3.2961230278015137,None,,,,,0,0,0,0,0,97,97,163,268.1967716217041,,,,,,,,,,,,,,,,,,,,,,,,,,,,,,,,,,,,,,,,,,,,,,,,,,,,,,,,,,,,,,,,,,,,,,,,,,,,,,,,,163.3308768528052,182.17489752878035,199.7356479633883,135.67185979792458,123.80112242901077,186.93838854583115,2.1,2.12,-255,-266,0,-268,257,256,268.182813167572,268.18289160728455,268.1862840652466,268.1967716217041,268.34716057777405,268.34716057777405,268.34716057777405,268.34716057777405,268.34716057777405,268.34716057777405,268.34716057777405,271.50040006637573,1,3.2961230278015137,None,,,,,,,,,,,,,,,,,,132,2,2025-02-26_15h48.46.616,comp,2024.2.4,56.62973534200855,2025-02-26 15h48.55.604983 -0500,
98,98,0,filler_square,None,None,None,None,None,None,None,None,None,None,1,0.9510781764984131,None,,,,,0,0,0,0,0,98,98,183,271.5170443058014,,,,,,,,,,,,,,,,,,,,,,,,,,,,,,,,,,,,,,,,,,,,,,,,,,,,,,,,,,,,,,,,,,,,,,,,,,,,,,,,,173.92627093775843,173.92627093775843,87.42074549071282,165.2328585110138,62.96471615734296,69.30179288310921,3.0,3.2,-266,-266,0,0,213,273,271.5025632381439,271.50264620780945,271.5062482357025,271.5170443058014,271.66357827186584,271.66357827186584,271.66357827186584,271.66357827186584,271.66357827186584,271.66357827186584,271.66357827186584,272.4826309680939,1,0.9510781764984131,None,,,,,,,,,,,,,,,,,,132,2,2025-02-26_15h48.46.616,comp,2024.2.4,56.62973534200855,2025-02-26 15h48.55.604983 -0500,
99,99,0,filler_random,None,None,None,None,None,None,None,None,None,None,3,0.8824992179870605,None,,,,,0,0,0,0,0,99,99,145,272.4978575706482,,,,,,,,,,,,,,,,,,,,,,,,,,,,,,,,,,,,,,,,,,,,,,,,,,,,,,,,,,,,,,,,,,,,,,,,,,,,,,,,,193.70951369616932,65.68890105653894,164.30594348477135,89.1638633594545,199.1961432808936,184.53273383188477,4.0,4.1,-173,-268,0,2,233,-253,272.4843134880066,272.4843924045563,272.4874804019928,272.4978575706482,272.6518807411194,272.6518807411194,272.6518807411194,272.6518807411194,272.6518807411194,272.6518807411194,272.6518807411194,273.3995735645294,3,0.8824992179870605,None,,,,,,,,,,,,,,,,,,132,2,2025-02-26_15h48.46.616,comp,2024.2.4,56.62973534200855,2025-02-26 15h48.55.604983 -0500,
100,100,0,filler_square,None,None,None,None,None,None,None,None,None,None,2,0.8422808647155762,None,,,,,0,0,0,0,0,100,100,192,273.4178099632263,,,,,,,,,,,,,,,,,,,,,,,,,,,,,,,,,,,,,,,,,,,,,,,,,,,,,,,,,,,,,,,,,,,,,,,,,,,,,,,,,95.57704102680009,173.46391591215104,198.91171672423235,198.91171672423235,170.97238704659384,168.9992080783818,2.2,2.21,-282,-268,0,279,280,283,273.40133833885193,273.4014151096344,273.4052195549011,273.4178099632263,273.5690152645111,273.5690152645111,273.5690152645111,273.5690152645111,273.5690152645111,273.5690152645111,273.5690152645111,274.27630734443665,2,0.8422808647155762,None,,,,,,,,,,,,,,,,,,132,2,2025-02-26_15h48.46.616,comp,2024.2.4,56.62973534200855,2025-02-26 15h48.55.604983 -0500,
101,101,0,critical,hwd,20.0,2.1,upper,200.0,125.0,125.0,200.0,141.0,141.0,1,3.049053430557251,None,,,,,0,0,0,0,0,101,101,19,274.2911584377289,,,,,,,,,,,,,,,,,,,,,,,,,,,,,,,,,,,,,,,,,,,,,,,,,,,,,,,,,,,,,,,,,,,,,,,,,,,,,,,,,200.0,125.0,125.0,200.0,141.0,141.0,2.1,2.11,-258,279,0,252,266,-281,274.27783727645874,274.2779142856598,274.28080773353577,274.2911584377289,274.4338719844818,274.4338719844818,274.4338719844818,274.4338719844818,274.4338719844818,274.4338719844818,274.4338719844818,277.35347270965576,1,3.049053430557251,None,,,,,,,,,,,,,,,,,,132,2,2025-02-26_15h48.46.616,comp,2024.2.4,56.62973534200855,2025-02-26 15h48.55.604983 -0500,
102,102,0,filler_square,None,None,None,None,None,None,None,None,None,None,2,1.0500068664550781,None,,,,,0,0,0,0,0,102,102,189,277.37008714675903,,,,,,,,,,,,,,,,,,,,,,,,,,,,,,,,,,,,,,,,,,,,,,,,,,,,,,,,,,,,,,,,,,,,,,,,,,,,,,,,,62.52433785704626,84.11911574701061,100.67305681333414,100.67305681333414,75.16943068142945,70.99281001278095,4.0,4.2,-188,-1,0,-252,182,16,277.35555720329285,277.3556363582611,277.3591549396515,277.37008714675903,277.52156710624695,277.52156710624695,277.52156710624695,277.52156710624695,277.52156710624695,277.52156710624695,277.52156710624695,278.4351601600647,2,1.0500068664550781,None,,,,,,,,,,,,,,,,,,132,2,2025-02-26_15h48.46.616,comp,2024.2.4,56.62973534200855,2025-02-26 15h48.55.604983 -0500,
103,103,0,critical,hwd,35.0,4.0,lower,133.0,57.0,57.0,133.0,70.0,70.0,2,1.6271634101867676,None,,,,,0,0,0,0,0,103,103,100,278.4515173435211,,,,,,,,,,,,,,,,,,,,,,,,,,,,,,,,,,,,,,,,,,,,,,,,,,,,,,,,,,,,,,,,,,,,,,,,,,,,,,,,,133.0,57.0,57.0,133.0,70.0,70.0,4.0,4.2,-191,-7,0,-252,198,-3,278.43674993515015,278.4368255138397,278.44118762016296,278.4515173435211,278.60137391090393,278.60137391090393,278.60137391090393,278.60137391090393,278.60137391090393,278.60137391090393,278.60137391090393,280.0836007595062,2,1.6271634101867676,None,,,,,,,,,,,,,,,,,,132,2,2025-02-26_15h48.46.616,comp,2024.2.4,56.62973534200855,2025-02-26 15h48.55.604983 -0500,
104,104,0,filler_random,None,None,None,None,None,None,None,None,None,None,3,1.087428092956543,None,,,,,0,0,0,0,0,104,104,136,280.10067439079285,,,,,,,,,,,,,,,,,,,,,,,,,,,,,,,,,,,,,,,,,,,,,,,,,,,,,,,,,,,,,,,,,,,,,,,,,,,,,,,,,80.9100093493493,104.31660864521376,94.58367245554462,153.1578544581111,133.29818807856955,189.74249074796785,1.0,1.2,-225,-12,0,4,267,-15,280.0853359699249,280.0854666233063,280.0888395309448,280.10067439079285,280.2595157623291,280.2595157623291,280.2595157623291,280.2595157623291,280.2595157623291,280.2595157623291,280.2595157623291,281.2023231983185,3,1.087428092956543,None,,,,,,,,,,,,,,,,,,132,2,2025-02-26_15h48.46.616,comp,2024.2.4,56.62973534200855,2025-02-26 15h48.55.604983 -0500,
105,105,0,critical,whd,35.0,1.0,lower,57.0,133.0,133.0,57.0,70.0,70.0,2,2.042673349380493,None,,,,,0,0,0,0,0,105,105,84,281.21839570999146,,,,,,,,,,,,,,,,,,,,,,,,,,,,,,,,,,,,,,,,,,,,,,,,,,,,,,,,,,,,,,,,,,,,,,,,,,,,,,,,,57.0,133.0,133.0,57.0,70.0,70.0,1.0,1.3,289,-273,480,-267,640,-250,281.20394229888916,281.20402121543884,281.2080852985382,281.21839570999146,281.36803340911865,281.36803340911865,281.36803340911865,281.36803340911865,281.36803340911865,281.36803340911865,281.36803340911865,283.27123188972473,2,2.042673349380493,None,,,,,,,,,,,,,,,,,,132,2,2025-02-26_15h48.46.616,comp,2024.2.4,56.62973534200855,2025-02-26 15h48.55.604983 -0500,
106,106,0,filler_square,None,None,None,None,None,None,None,None,None,None,3,1.5401942729949951,None,,,,,0,0,0,0,0,106,106,205,283.28788590431213,,,,,,,,,,,,,,,,,,,,,,,,,,,,,,,,,,,,,,,,,,,,,,,,,,,,,,,,,,,,,,,,,,,,,,,,,,,,,,,,,74.67440184482577,70.52697645339163,70.64158412238015,58.14531763898514,94.67453675779517,94.67453675779517,2.2,2.22,-160,261,0,-266,172,-281,283.2733018398285,283.2733781337738,283.2769966125488,283.28788590431213,283.43586230278015,283.43586230278015,283.43586230278015,283.43586230278015,283.43586230278015,283.43586230278015,283.43586230278015,284.8418519496918,3,1.5401942729949951,None,,,,,,,,,,,,,,,,,,132,2,2025-02-26_15h48.46.616,comp,2024.2.4,56.62973534200855,2025-02-26 15h48.55.604983 -0500,
107,107,0,critical,hwd,35.0,2.1,upper,200.0,125.0,125.0,200.0,127.0,127.0,1,1.0065503120422363,None,,,,,0,0,0,0,0,107,107,41,284.8619968891144,,,,,,,,,,,,,,,,,,,,,,,,,,,,,,,,,,,,,,,,,,,,,,,,,,,,,,,,,,,,,,,,,,,,,,,,,,,,,,,,,200.0,125.0,125.0,200.0,127.0,127.0,2.1,2.11,-258,275,0,274,260,-278,284.8433647155762,284.84344482421875,284.84635853767395,284.8619968891144,285.0008599758148,285.0008599758148,285.0008599758148,285.0008599758148,285.0008599758148,285.0008599758148,285.0008599758148,285.87820386886597,1,1.0065503120422363,None,,,,,,,,,,,,,,,,,,132,2,2025-02-26_15h48.46.616,comp,2024.2.4,56.62973534200855,2025-02-26 15h48.55.604983 -0500,
108,108,0,critical,hwd,20.0,1.0,lower,133.0,57.0,57.0,133.0,78.0,78.0,2,2.0535764694213867,None,,,,,0,0,0,0,0,108,108,102,285.8945322036743,,,,,,,,,,,,,,,,,,,,,,,,,,,,,,,,,,,,,,,,,,,,,,,,,,,,,,,,,,,,,,,,,,,,,,,,,,,,,,,,,133.0,57.0,57.0,133.0,78.0,78.0,1.0,1.3,289,-252,480,-288,682,-289,285.879842042923,285.8799521923065,285.88326478004456,285.8945322036743,286.03607201576233,286.03607201576233,286.03607201576233,286.03607201576233,286.03607201576233,286.03607201576233,286.03607201576233,287.9613687992096,2,2.0535764694213867,None,,,,,,,,,,,,,,,,,,132,2,2025-02-26_15h48.46.616,comp,2024.2.4,56.62973534200855,2025-02-26 15h48.55.604983 -0500,
109,109,0,critical,dwh,35.0,3.0,upper,127.0,127.0,125.0,200.0,200.0,125.0,2,1.0728590488433838,None,,,,,0,0,0,0,0,109,109,63,287.97924971580505,,,,,,,,,,,,,,,,,,,,,,,,,,,,,,,,,,,,,,,,,,,,,,,,,,,,,,,,,,,,,,,,,,,,,,,,,,,,,,,,,127.0,127.0,125.0,200.0,200.0,125.0,3.0,3.1,-260,254,0,10,258,-272,287.9629342556,287.96301436424255,287.9658896923065,287.97924971580505,288.12262320518494,288.12262320518494,288.12262320518494,288.12262320518494,288.12262320518494,288.12262320518494,288.12262320518494,289.054518699646,2,1.0728590488433838,None,,,,,,,,,,,,,,,,,,132,2,2025-02-26_15h48.46.616,comp,2024.2.4,56.62973534200855,2025-02-26 15h48.55.604983 -0500,
110,110,0,critical,whd,35.0,4.0,upper,125.0,200.0,200.0,125.0,127.0,127.0,2,0.8537414073944092,None,,,,,0,0,0,0,0,110,110,89,289.0704114437103,,,,,,,,,,,,,,,,,,,,,,,,,,,,,,,,,,,,,,,,,,,,,,,,,,,,,,,,,,,,,,,,,,,,,,,,,,,,,,,,,125.0,200.0,200.0,125.0,127.0,127.0,4.0,4.1,-258,-281,0,5,222,-267,289.05612778663635,289.0562081336975,289.0596263408661,289.0704114437103,289.22245264053345,289.22245264053345,289.22245264053345,289.22245264053345,289.22245264053345,289.22245264053345,289.22245264053345,289.94058060646057,2,0.8537414073944092,None,,,,,,,,,,,,,,,,,,132,2,2025-02-26_15h48.46.616,comp,2024.2.4,56.62973534200855,2025-02-26 15h48.55.604983 -0500,
111,111,0,filler_random,None,None,None,None,None,None,None,None,None,None,1,1.2675604820251465,None,,,,,0,0,0,0,0,111,111,154,289.9612033367157,,,,,,,,,,,,,,,,,,,,,,,,,,,,,,,,,,,,,,,,,,,,,,,,,,,,,,,,,,,,,,,,,,,,,,,,,,,,,,,,,136.10317200771397,180.0778211250452,85.77054872009224,170.64719810600798,176.9337823397749,61.07292303606991,2.2,2.22,-271,254,0,-284,212,-267,289.9425277709961,289.94261264801025,289.94585609436035,289.9612033367157,290.1061861515045,290.1061861515045,290.1061861515045,290.1061861515045,290.1061861515045,290.1061861515045,290.1061861515045,291.2390649318695,1,1.2675604820251465,None,,,,,,,,,,,,,,,,,,132,2,2025-02-26_15h48.46.616,comp,2024.2.4,56.62973534200855,2025-02-26 15h48.55.604983 -0500,
112,112,0,filler_random,None,None,None,None,None,None,None,None,None,None,3,0.8681972026824951,None,,,,,0,0,0,0,0,112,112,155,291.25586795806885,,,,,,,,,,,,,,,,,,,,,,,,,,,,,,,,,,,,,,,,,,,,,,,,,,,,,,,,,,,,,,,,,,,,,,,,,,,,,,,,,97.0228329681623,100.46607063655301,101.50064233122097,167.8668507047521,194.1224618879038,108.37053138005501,1.0,1.2,-230,8,0,20,234,-8,291.24084186553955,291.24092388153076,291.24499130249023,291.25586795806885,291.40790820121765,291.40790820121765,291.40790820121765,291.40790820121765,291.40790820121765,291.40790820121765,291.40790820121765,292.13790798187256,3,0.8681972026824951,None,,,,,,,,,,,,,,,,,,132,2,2025-02-26_15h48.46.616,comp,2024.2.4,56.62973534200855,2025-02-26 15h48.55.604983 -0500,
113,113,0,filler_random,None,None,None,None,None,None,None,None,None,None,2,1.0003933906555176,None,,,,,0,0,0,0,0,113,113,156,292.1557340621948,,,,,,,,,,,,,,,,,,,,,,,,,,,,,,,,,,,,,,,,,,,,,,,,,,,,,,,,,,,,,,,,,,,,,,,,,,,,,,,,,155.98260070407875,97.10729129468423,144.0399343283418,191.2869446107969,159.26155961693144,176.75437209766392,3.0,3.1,-240,262,0,7,280,-267,292.13959312438965,292.1396698951721,292.1433103084564,292.1557340621948,292.3076481819153,292.3076481819153,292.3076481819153,292.3076481819153,292.3076481819153,292.3076481819153,292.3076481819153,293.15829610824585,2,1.0003933906555176,None,,,,,,,,,,,,,,,,,,132,2,2025-02-26_15h48.46.616,comp,2024.2.4,56.62973534200855,2025-02-26 15h48.55.604983 -0500,
114,114,0,filler_square,None,None,None,None,None,None,None,None,None,None,1,0.8617057800292969,None,,,,,0,0,0,0,0,114,114,206,293.17482829093933,,,,,,,,,,,,,,,,,,,,,,,,,,,,,,,,,,,,,,,,,,,,,,,,,,,,,,,,,,,,,,,,,,,,,,,,,,,,,,,,,195.63769296933273,195.63769296933273,88.31443783366699,116.2266470810952,78.3727444504815,63.27178212269228,3.0,3.1,-252,279,0,13,186,-251,293.16070771217346,293.16083312034607,293.1641926765442,293.17482829093933,293.325612783432,293.325612783432,293.325612783432,293.325612783432,293.325612783432,293.325612783432,293.325612783432,294.03867053985596,1,0.8617057800292969,None,,,,,,,,,,,,,,,,,,132,2,2025-02-26_15h48.46.616,comp,2024.2.4,56.62973534200855,2025-02-26 15h48.55.604983 -0500,
115,115,0,catch,None,None,None,None,None,None,None,None,None,None,2,0.8978474140167236,None,,,,,0,0,0,0,0,115,115,120,294.0583293437958,,,,,,,,,,,,,,,,,,,,,,,,,,,,,,,,,,,,,,,,,,,,,,,,,,,,,,,,,,,,,,,,,,,,,,,,,,,,,,,,,115,75,178,147,74,116,1.0,1.1,-687,272,-480,272,-252,280,294.0405819416046,294.04066252708435,294.0439009666443,294.0583293437958,294.20579767227173,294.20579767227173,294.20579767227173,294.20579767227173,294.20579767227173,294.20579767227173,294.20579767227173,294.9722514152527,2,0.8978474140167236,None,,,,,,,,,,,,,,,,,,132,2,2025-02-26_15h48.46.616,comp,2024.2.4,56.62973534200855,2025-02-26 15h48.55.604983 -0500,
116,116,0,filler_random,None,None,None,None,None,None,None,None,None,None,2,1.6245503425598145,None,,,,,0,0,0,0,0,116,116,158,294.9884250164032,,,,,,,,,,,,,,,,,,,,,,,,,,,,,,,,,,,,,,,,,,,,,,,,,,,,,,,,,,,,,,,,,,,,,,,,,,,,,,,,,84.05504436389187,81.85944222161987,184.71226499876872,163.19707838353338,175.9919739564421,134.20549809718716,2.2,2.21,-219,-278,0,265,245,258,294.97397804260254,294.9740569591522,294.9772205352783,294.9884250164032,295.138466835022,295.138466835022,295.138466835022,295.138466835022,295.138466835022,295.138466835022,295.138466835022,296.6250727176666,2,1.6245503425598145,None,,,,,,,,,,,,,,,,,,132,2,2025-02-26_15h48.46.616,comp,2024.2.4,56.62973534200855,2025-02-26 15h48.55.604983 -0500,
117,117,0,filler_random,None,None,None,None,None,None,None,None,None,None,2,1.8987469673156738,None,,,,,0,0,0,0,0,117,117,130,296.64137983322144,,,,,,,,,,,,,,,,,,,,,,,,,,,,,,,,,,,,,,,,,,,,,,,,,,,,,,,,,,,,,,,,,,,,,,,,,,,,,,,,,91.75066507757002,158.18824242122434,106.77184211178503,186.89473000576257,114.78540475395478,94.91693577157434,2.2,2.22,-269,281,0,-277,237,-283,296.6269340515137,296.62707018852234,296.6305329799652,296.64137983322144,296.7873840332031,296.7873840332031,296.7873840332031,296.7873840332031,296.7873840332031,296.7873840332031,296.7873840332031,298.55691623687744,2,1.8987469673156738,None,,,,,,,,,,,,,,,,,,132,2,2025-02-26_15h48.46.616,comp,2024.2.4,56.62973534200855,2025-02-26 15h48.55.604983 -0500,
118,118,0,critical,hwd,20.0,1.0,upper,200.0,125.0,125.0,200.0,141.0,141.0,2,2.8872554302215576,None,,,,,0,0,0,0,0,118,118,103,298.5729146003723,,,,,,,,,,,,,,,,,,,,,,,,,,,,,,,,,,,,,,,,,,,,,,,,,,,,,,,,,,,,,,,,,,,,,,,,,,,,,,,,,200.0,125.0,125.0,200.0,141.0,141.0,1.0,1.3,222,-280,480,-289,746,-270,298.55840826034546,298.5585072040558,298.5616683959961,298.5729146003723,298.72613310813904,298.72613310813904,298.72613310813904,298.72613310813904,298.72613310813904,298.72613310813904,298.72613310813904,301.4777355194092,2,2.8872554302215576,None,,,,,,,,,,,,,,,,,,132,2,2025-02-26_15h48.46.616,comp,2024.2.4,56.62973534200855,2025-02-26 15h48.55.604983 -0500,
119,119,0,critical,hdw,20.0,2.1,lower,133.0,57.0,78.0,78.0,57.0,133.0,3,2.439685583114624,None,,,,,0,0,0,0,0,119,119,22,301.4928240776062,,,,,,,,,,,,,,,,,,,,,,,,,,,,,,,,,,,,,,,,,,,,,,,,,,,,,,,,,,,,,,,,,,,,,,,,,,,,,,,,,133.0,57.0,78.0,78.0,57.0,133.0,2.1,2.11,-164,265,0,271,202,-276,301.4792845249176,301.47936248779297,301.4826147556305,301.4928240776062,301.6404392719269,301.6404392719269,301.6404392719269,301.6404392719269,301.6404392719269,301.6404392719269,301.6404392719269,303.93572783470154,3,2.439685583114624,None,,,,,,,,,,,,,,,,,,132,2,2025-02-26_15h48.46.616,comp,2024.2.4,56.62973534200855,2025-02-26 15h48.55.604983 -0500,
120,120,0,critical,wdh,35.0,2.1,upper,125.0,200.0,127.0,127.0,200.0,125.0,1,1.074958086013794,None,,,,,0,0,0,0,0,120,120,9,303.9533305168152,,,,,,,,,,,,,,,,,,,,,,,,,,,,,,,,,,,,,,,,,,,,,,,,,,,,,,,,,,,,,,,,,,,,,,,,,,,,,,,,,125.0,200.0,127.0,127.0,200.0,125.0,2.1,2.11,-260,257,0,265,222,-261,303.9372396469116,303.9373173713684,303.94021224975586,303.9533305168152,304.088623046875,304.088623046875,304.088623046875,304.088623046875,304.088623046875,304.088623046875,304.088623046875,305.04390144348145,1,1.074958086013794,None,,,,,,,,,,,,,,,,,,132,2,2025-02-26_15h48.46.616,comp,2024.2.4,56.62973534200855,2025-02-26 15h48.55.604983 -0500,
121,121,0,critical,hdw,35.0,1.0,upper,200.0,125.0,127.0,127.0,125.0,200.0,3,1.3452363014221191,None,,,,,0,0,0,0,0,121,121,109,305.0593183040619,,,,,,,,,,,,,,,,,,,,,,,,,,,,,,,,,,,,,,,,,,,,,,,,,,,,,,,,,,,,,,,,,,,,,,,,,,,,,,,,,200.0,125.0,127.0,127.0,125.0,200.0,1.0,1.1,-702,286,-480,270,-220,281,305.0454635620117,305.0455710887909,305.04899621009827,305.0593183040619,305.2077524662018,305.2077524662018,305.2077524662018,305.2077524662018,305.2077524662018,305.2077524662018,305.2077524662018,306.4091012477875,3,1.3452363014221191,None,,,,,,,,,,,,,,,,,,132,2,2025-02-26_15h48.46.616,comp,2024.2.4,56.62973534200855,2025-02-26 15h48.55.604983 -0500,
122,122,0,critical,whd,20.0,1.0,upper,125.0,200.0,200.0,125.0,141.0,141.0,2,3.7298812866210938,None,,,,,0,0,0,0,0,122,122,91,306.42688035964966,,,,,,,,,,,,,,,,,,,,,,,,,,,,,,,,,,,,,,,,,,,,,,,,,,,,,,,,,,,,,,,,,,,,,,,,,,,,,,,,,125.0,200.0,200.0,125.0,141.0,141.0,1.0,1.1,-738,279,-480,288,-251,270,306.41060280799866,306.41067814826965,306.41385650634766,306.42688035964966,306.5767948627472,306.5767948627472,306.5767948627472,306.5767948627472,306.5767948627472,306.5767948627472,306.5767948627472,310.16626381874084,2,3.7298812866210938,None,,,,,,,,,,,,,,,,,,132,2,2025-02-26_15h48.46.616,comp,2024.2.4,56.62973534200855,2025-02-26 15h48.55.604983 -0500,
123,123,0,filler_random,None,None,None,None,None,None,None,None,None,None,1,2.136977195739746,None,,,,,0,0,0,0,0,123,123,131,310.18726873397827,,,,,,,,,,,,,,,,,,,,,,,,,,,,,,,,,,,,,,,,,,,,,,,,,,,,,,,,,,,,,,,,,,,,,,,,,,,,,,,,,144.06129148126212,136.7608472062862,103.86999775721944,138.4013284952612,128.48872526516334,120.57065440175799,2.1,2.12,-234,-281,0,-251,225,267,310.16811513900757,310.16822052001953,310.1713914871216,310.18726873397827,310.32831835746765,310.32831835746765,310.32831835746765,310.32831835746765,310.32831835746765,310.32831835746765,310.32831835746765,312.3287265300751,1,2.136977195739746,None,,,,,,,,,,,,,,,,,,132,2,2025-02-26_15h48.46.616,comp,2024.2.4,56.62973534200855,2025-02-26 15h48.55.604983 -0500,
124,124,0,critical,wdh,35.0,1.0,lower,57.0,133.0,70.0,70.0,133.0,57.0,3,1.5301082134246826,None,,,,,0,0,0,0,0,124,124,72,312.3465909957886,,,,,,,,,,,,,,,,,,,,,,,,,,,,,,,,,,,,,,,,,,,,,,,,,,,,,,,,,,,,,,,,,,,,,,,,,,,,,,,,,57.0,133.0,70.0,70.0,133.0,57.0,1.0,1.2,-198,13,0,-17,160,-19,312.33015275001526,312.3302321434021,312.3334712982178,312.3465909957886,312.4914665222168,312.4914665222168,312.4914665222168,312.4914665222168,312.4914665222168,312.4914665222168,312.4914665222168,313.88234400749207,3,1.5301082134246826,None,,,,,,,,,,,,,,,,,,132,2,2025-02-26_15h48.46.616,comp,2024.2.4,56.62973534200855,2025-02-26 15h48.55.604983 -0500,
125,125,0,filler_random,None,None,None,None,None,None,None,None,None,None,2,1.0624885559082031,None,,,,,0,0,0,0,0,125,125,150,313.9016230106354,,,,,,,,,,,,,,,,,,,,,,,,,,,,,,,,,,,,,,,,,,,,,,,,,,,,,,,,,,,,,,,,,,,,,,,,,,,,,,,,,136.4707016655334,183.9303123450191,194.42483754034834,135.44356491051246,152.51204247503014,107.8058168165058,3.0,3.1,-256,285,0,-4,218,-277,313.8842604160309,313.8843607902527,313.8876721858978,313.9016230106354,314.0466911792755,314.0466911792755,314.0466911792755,314.0466911792755,314.0466911792755,314.0466911792755,314.0466911792755,314.9786853790283,2,1.0624885559082031,None,,,,,,,,,,,,,,,,,,132,2,2025-02-26_15h48.46.616,comp,2024.2.4,56.62973534200855,2025-02-26 15h48.55.604983 -0500,
126,126,0,filler_random,None,None,None,None,None,None,None,None,None,None,2,1.624755859375,None,,,,,0,0,0,0,0,126,126,134,314.9975950717926,,,,,,,,,,,,,,,,,,,,,,,,,,,,,,,,,,,,,,,,,,,,,,,,,,,,,,,,,,,,,,,,,,,,,,,,,,,,,,,,,177.35887577896028,104.143490450883,87.49700372494274,155.4748695974391,67.77867857158859,168.5374081902899,1.0,1.2,-226,-2,0,-7,258,-12,314.9803946018219,314.98051357269287,314.9838318824768,314.9975950717926,315.13377714157104,315.13377714157104,315.13377714157104,315.13377714157104,315.13377714157104,315.13377714157104,315.13377714157104,316.6289665699005,2,1.624755859375,None,,,,,,,,,,,,,,,,,,132,2,2025-02-26_15h48.46.616,comp,2024.2.4,56.62973534200855,2025-02-26 15h48.55.604983 -0500,
127,127,0,critical,whd,20.0,2.1,upper,125.0,200.0,200.0,125.0,141.0,141.0,3,1.542468786239624,None,,,,,0,0,0,0,0,127,127,15,316.6465845108032,,,,,,,,,,,,,,,,,,,,,,,,,,,,,,,,,,,,,,,,,,,,,,,,,,,,,,,,,,,,,,,,,,,,,,,,,,,,,,,,,125.0,200.0,200.0,125.0,141.0,141.0,2.1,2.12,-258,-272,0,-261,229,270,316.6304569244385,316.6305727958679,316.63356947898865,316.6465845108032,316.801296710968,316.801296710968,316.801296710968,316.801296710968,316.801296710968,316.801296710968,316.801296710968,318.19834303855896,3,1.542468786239624,None,,,,,,,,,,,,,,,,,,132,2,2025-02-26_15h48.46.616,comp,2024.2.4,56.62973534200855,2025-02-26 15h48.55.604983 -0500,
128,128,0,critical,dwh,20.0,2.1,upper,141.0,141.0,125.0,200.0,200.0,125.0,3,1.1420118808746338,None,,,,,0,0,0,0,0,128,128,7,318.2143883705139,,,,,,,,,,,,,,,,,,,,,,,,,,,,,,,,,,,,,,,,,,,,,,,,,,,,,,,,,,,,,,,,,,,,,,,,,,,,,,,,,141.0,141.0,125.0,200.0,200.0,125.0,2.1,2.12,-266,-259,0,-264,258,251,318.2000255584717,318.2001140117645,318.2036621570587,318.2143883705139,318.37155652046204,318.37155652046204,318.37155652046204,318.37155652046204,318.37155652046204,318.37155652046204,318.37155652046204,319.37163162231445,3,1.1420118808746338,None,,,,,,,,,,,,,,,,,,132,2,2025-02-26_15h48.46.616,comp,2024.2.4,56.62973534200855,2025-02-26 15h48.55.604983 -0500,
129,129,0,critical,hdw,35.0,4.0,upper,200.0,125.0,127.0,127.0,125.0,200.0,3,1.7035136222839355,None,,,,,0,0,0,0,0,129,129,113,319.38904190063477,,,,,,,,,,,,,,,,,,,,,,,,,,,,,,,,,,,,,,,,,,,,,,,,,,,,,,,,,,,,,,,,,,,,,,,,,,,,,,,,,200.0,125.0,127.0,127.0,125.0,200.0,4.0,4.2,-222,-3,0,-280,260,-6,319.3731336593628,319.3732132911682,319.3761248588562,319.38904190063477,319.53317284584045,319.53317284584045,319.53317284584045,319.53317284584045,319.53317284584045,319.53317284584045,319.53317284584045,321.0986306667328,3,1.7035136222839355,None,,,,,,,,,,,,,,,,,,132,2,2025-02-26_15h48.46.616,comp,2024.2.4,56.62973534200855,2025-02-26 15h48.55.604983 -0500,
130,130,0,critical,dhw,20.0,2.1,upper,141.0,141.0,200.0,125.0,125.0,200.0,3,1.5296781063079834,None,,,,,0,0,0,0,0,130,130,27,321.11443877220154,,,,,,,,,,,,,,,,,,,,,,,,,,,,,,,,,,,,,,,,,,,,,,,,,,,,,,,,,,,,,,,,,,,,,,,,,,,,,,,,,141.0,141.0,200.0,125.0,125.0,200.0,2.1,2.12,-229,-267,0,-276,258,268,321.10017919540405,321.10026240348816,321.103755235672,321.11443877220154,321.2673530578613,321.2673530578613,321.2673530578613,321.2673530578613,321.2673530578613,321.2673530578613,321.2673530578613,322.6604723930359,3,1.5296781063079834,None,,,,,,,,,,,,,,,,,,132,2,2025-02-26_15h48.46.616,comp,2024.2.4,56.62973534200855,2025-02-26 15h48.55.604983 -0500,
131,131,0,critical,dhw,20.0,4.0,lower,78.0,78.0,133.0,57.0,57.0,133.0,1,3.143340826034546,None,,,,,0,0,0,0,0,131,131,58,322.6762709617615,,,,,,,,,,,,,,,,,,,,,,,,,,,,,,,,,,,,,,,,,,,,,,,,,,,,,,,,,,,,,,,,,,,,,,,,,,,,,,,,,78.0,78.0,133.0,57.0,57.0,133.0,4.0,4.1,-164,-272,0,-10,191,-265,322.66203808784485,322.66211795806885,322.6650879383087,322.6762709617615,322.8137664794922,322.8137664794922,322.8137664794922,322.8137664794922,322.8137664794922,322.8137664794922,322.8137664794922,325.8309328556061,1,3.143340826034546,None,,,,,,,,,,,,,,,,,,132,2,2025-02-26_15h48.46.616,comp,2024.2.4,56.62973534200855,2025-02-26 15h48.55.604983 -0500,
132,132,0,critical,dhw,20.0,3.0,upper,141.0,141.0,200.0,125.0,125.0,200.0,3,3.1583712100982666,None,,,,,0,0,0,0,0,132,132,57,325.8468406200409,,,,,,,,,,,,,,,,,,,,,,,,,,,,,,,,,,,,,,,,,,,,,,,,,,,,,,,,,,,,,,,,,,,,,,,,,,,,,,,,,141.0,141.0,200.0,125.0,125.0,200.0,3.0,3.1,-229,268,0,17,258,-274,325.8324761390686,325.83258056640625,325.8354320526123,325.8468406200409,325.99957728385925,325.99957728385925,325.99957728385925,325.99957728385925,325.99957728385925,325.99957728385925,325.99957728385925,329.02339267730713,3,3.1583712100982666,None,,,,,,,,,,,,,,,,,,132,2,2025-02-26_15h48.46.616,comp,2024.2.4,56.62973534200855,2025-02-26 15h48.55.604983 -0500,
133,133,0,critical,hdw,20.0,2.1,upper,200.0,125.0,141.0,141.0,125.0,200.0,3,1.6404776573181152,None,,,,,0,0,0,0,0,133,133,23,329.043803691864,,,,,,,,,,,,,,,,,,,,,,,,,,,,,,,,,,,,,,,,,,,,,,,,,,,,,,,,,,,,,,,,,,,,,,,,,,,,,,,,,200.0,125.0,141.0,141.0,125.0,200.0,2.1,2.11,-229,276,0,258,266,-263,329.02504086494446,329.0251190662384,329.02844977378845,329.043803691864,329.1838011741638,329.1838011741638,329.1838011741638,329.1838011741638,329.1838011741638,329.1838011741638,329.1838011741638,330.70423555374146,3,1.6404776573181152,None,,,,,,,,,,,,,,,,,,132,2,2025-02-26_15h48.46.616,comp,2024.2.4,56.62973534200855,2025-02-26 15h48.55.604983 -0500,
134,134,0,critical,wdh,20.0,1.0,upper,125.0,200.0,141.0,141.0,200.0,125.0,3,1.5625994205474854,None,,,,,0,0,0,0,0,134,134,79,330.72174549102783,,,,,,,,,,,,,,,,,,,,,,,,,,,,,,,,,,,,,,,,,,,,,,,,,,,,,,,,,,,,,,,,,,,,,,,,,,,,,,,,,125.0,200.0,141.0,141.0,200.0,125.0,1.0,1.3,214,-253,480,-282,709,-271,330.7058084011078,330.7058861255646,330.7090857028961,330.72174549102783,330.8677763938904,330.8677763938904,330.8677763938904,330.8677763938904,330.8677763938904,330.8677763938904,330.8677763938904,332.2872064113617,3,1.5625994205474854,None,,,,,,,,,,,,,,,,,,132,2,2025-02-26_15h48.46.616,comp,2024.2.4,56.62973534200855,2025-02-26 15h48.55.604983 -0500,
135,135,0,critical,wdh,20.0,3.0,lower,57.0,133.0,78.0,78.0,133.0,57.0,3,3.6176838874816895,None,,,,,0,0,0,0,0,135,135,80,332.30638575553894,,,,,,,,,,,,,,,,,,,,,,,,,,,,,,,,,,,,,,,,,,,,,,,,,,,,,,,,,,,,,,,,,,,,,,,,,,,,,,,,,57.0,133.0,78.0,78.0,133.0,57.0,3.0,3.1,-202,278,0,-20,164,-251,332.28889536857605,332.2889759540558,332.2920799255371,332.30638575553894,332.45145869255066,332.45145869255066,332.45145869255066,332.45145869255066,332.45145869255066,332.45145869255066,332.45145869255066,335.93667364120483,3,3.6176838874816895,None,,,,,,,,,,,,,,,,,,132,2,2025-02-26_15h48.46.616,comp,2024.2.4,56.62973534200855,2025-02-26 15h48.55.604983 -0500,
136,136,0,filler_square,None,None,None,None,None,None,None,None,None,None,1,4.289709568023682,None,,,,,0,0,0,0,0,136,136,199,335.9549660682678,,,,,,,,,,,,,,,,,,,,,,,,,,,,,,,,,,,,,,,,,,,,,,,,,,,,,,,,,,,,,,,,,,,,,,,,,,,,,,,,,94.25360181923037,93.24764063900221,98.13281446950558,98.13281446950558,76.91550399613543,76.42722885999264,4.0,4.2,-192,10,0,-283,183,12,335.93840289115906,335.93848061561584,335.9416084289551,335.9549660682678,336.1002285480499,336.1002285480499,336.1002285480499,336.1002285480499,336.1002285480499,336.1002285480499,336.1002285480499,340.25617933273315,1,4.289709568023682,None,,,,,,,,,,,,,,,,,,132,2,2025-02-26_15h48.46.616,comp,2024.2.4,56.62973534200855,2025-02-26 15h48.55.604983 -0500,
137,137,0,catch,None,None,None,None,None,None,None,None,None,None,3,0.8032338619232178,None,,,,,0,0,0,0,0,137,137,124,340.27291536331177,,,,,,,,,,,,,,,,,,,,,,,,,,,,,,,,,,,,,,,,,,,,,,,,,,,,,,,,,,,,,,,,,,,,,,,,,,,,,,,,,81,109,128,62,192,133,1.0,1.2,-182,-3,0,9,194,11,340.2582173347473,340.25830149650574,340.26158022880554,340.27291536331177,340.41076946258545,340.41076946258545,340.41076946258545,340.41076946258545,340.41076946258545,340.41076946258545,340.41076946258545,341.08794474601746,3,0.8032338619232178,None,,,,,,,,,,,,,,,,,,132,2,2025-02-26_15h48.46.616,comp,2024.2.4,56.62973534200855,2025-02-26 15h48.55.604983 -0500,
138,138,0,critical,whd,20.0,4.0,upper,125.0,200.0,200.0,125.0,141.0,141.0,1,1.3897619247436523,None,,,,,0,0,0,0,0,138,138,95,341.1033763885498,,,,,,,,,,,,,,,,,,,,,,,,,,,,,,,,,,,,,,,,,,,,,,,,,,,,,,,,,,,,,,,,,,,,,,,,,,,,,,,,,125.0,200.0,200.0,125.0,141.0,141.0,4.0,4.1,-258,-266,0,2,229,-282,341.0894613265991,341.08957147598267,341.0924639701843,341.1033763885498,341.2575833797455,341.2575833797455,341.2575833797455,341.2575833797455,341.2575833797455,341.2575833797455,341.2575833797455,342.5047631263733,1,1.3897619247436523,None,,,,,,,,,,,,,,,,,,132,2,2025-02-26_15h48.46.616,comp,2024.2.4,56.62973534200855,2025-02-26 15h48.55.604983 -0500,
139,139,0,critical,hdw,35.0,2.1,lower,133.0,57.0,70.0,70.0,57.0,133.0,3,1.9147584438323975,None,,,,,0,0,0,0,0,139,139,20,342.52145767211914,,,,,,,,,,,,,,,,,,,,,,,,,,,,,,,,,,,,,,,,,,,,,,,,,,,,,,,,,,,,,,,,,,,,,,,,,,,,,,,,,133.0,57.0,70.0,70.0,57.0,133.0,2.1,2.12,-160,-270,0,-282,198,275,342.50635981559753,342.50644183158875,342.50994992256165,342.52145767211914,342.6712508201599,342.6712508201599,342.6712508201599,342.6712508201599,342.6712508201599,342.6712508201599,342.6712508201599,344.4384331703186,3,1.9147584438323975,None,,,,,,,,,,,,,,,,,,132,2,2025-02-26_15h48.46.616,comp,2024.2.4,56.62973534200855,2025-02-26 15h48.55.604983 -0500,
