thisN,thisTrialN,thisRepN,effect,order,distance,config,diag,h_1,w_1,h_2,w_2,h_3,w_3,rect_choice.keys,rect_choice.rt,rect_choice.duration,instructions_loop.thisRepN,instructions_loop.thisTrialN,instructions_loop.thisN,instructions_loop.thisIndex,blocks.thisRepN,blocks.thisTrialN,blocks.thisN,blocks.thisIndex,trials.thisRepN,trials.thisTrialN,trials.thisN,trials.thisIndex,thisRow.t,notes,consent.started,agree_button.started,decline_button.started,consent_img.started,mouse.started,consent.stopped,agree_button.numClicks,agree_button.timesOn,agree_button.timesOff,decline_button.numClicks,decline_button.timesOn,decline_button.timesOff,mouse.x,mouse.y,mouse.leftButton,mouse.midButton,mouse.rightButton,mouse.time,mouse.clicked_name,exp_params.started,exp_params.stopped,welcome.started,welcome_text.started,welcome.stopped,instructions_1.started,instructions_1_text_1.started,instructions_1_text_2.started,key_resp.started,instructions_1.stopped,instructions_loop.key_resp.keys,instructions_loop.key_resp.rt,instructions_loop.key_resp.duration,instructions_2.started,instructions_2_text_1.started,instructions_2_text_2.started,key_resp_2.started,instructions_2.stopped,instructions_loop.key_resp_2.keys,instructions_loop.key_resp_2.rt,instructions_loop.key_resp_2.duration,instructions_3.started,instructions_3_text_1.started,r1_instr3.started,r2_instr3.started,r3_instr3.started,r1_instr3_label.started,r2_instr3_label.started,r3_instr3_label.started,instructions_3_text_3.started,instructions_3_text_4.started,key_resp_3.started,instructions_3.stopped,instructions_loop.key_resp_3.keys,instructions_loop.key_resp_3.rt,instructions_loop.key_resp_3.duration,instructions_4.started,instructions_4_text_1.started,instructions_4_text_3.started,instructions_4_text_2.started,key_resp_4.started,instructions_4.stopped,instructions_loop.key_resp_4.keys,instructions_loop.key_resp_4.rt,instructions_loop.key_resp_4.duration,instructions_5.started,instructions_5_text_1.started,instructions_5_text_2.started,key_resp_5.started,instructions_5.stopped,instructions_loop.key_resp_5.keys,instructions_loop.key_resp_5.rt,instructions_loop.key_resp_5.duration,start_exp.started,start_exp_text.started,key_resp_6.started,start_exp.stopped,key_resp_6.keys,key_resp_6.rt,key_resp_6.duration,h_1_tmp,w_1_tmp,h_2_tmp,w_2_tmp,h_3_tmp,w_3_tmp,config_tmp,config_tmp_1,r_1_x,r_1_y,r_2_x,r_2_y,r_3_x,r_3_y,pre_trial.started,pre_trial.stopped,choice_trial.started,rect_choice.started,r_1.started,r_2.started,r_3.started,r_1_label.started,r_2_label.started,r_3_label.started,prompt.started,choice_trial.stopped,trials.rect_choice.keys,trials.rect_choice.rt,trials.rect_choice.duration,end_block.started,end_block_text.started,end_block.stopped,end.started,end_text.started,key_resp_7.started,end.stopped,key_resp_7.keys,key_resp_7.rt,key_resp_7.duration,debriefing.started,debrief_form.started,end_debrief.started,debriefing.stopped,end_debrief.keys,end_debrief.rt,end_debrief.duration,participant,computer,date,expName,psychopyVersion,frameRate,expStart,
,,,,,,,,,,,,,,,,,,,,,,,,,,,,,,,0.01546478271484375,0.041595458984375,0.041595458984375,0.041595458984375,0.015070676803588867,52.93506073951721,1,[52.89227247238159],[52.892284631729126],0,,,[-56.0],[-495.0],[1],[0],[0],[52.9190354347229],['agree_button'],,,,,,,,,,,,,,,,,,,,,,,,,,,,,,,,,,,,,,,,,,,,,,,,,,,,,,,,,,,,,,,,,,,,,,,,,,,,,,,,,,,,,,,,,,,,,,,,,,,,,,,,,,,133,3,2025-02-26_15h50.30.095,comp,2024.2.4,60.79406307977737,2025-02-26 15h50.40.304846 -0500,
,,,,,,,,,,,,,,,,,,,,,,,,,,,,,,,,,,,,,,,,,,,,,,,,,,52.935330629348755,52.93536424636841,,,,,,,,,,,,,,,,,,,,,,,,,,,,,,,,,,,,,,,,,,,,,,,,,,,,,,,,,,,,,,,,,,,,,,,,,,,,,,,,,,,,,,,,,,,,,,,,,,,,,,,,,133,3,2025-02-26_15h50.30.095,comp,2024.2.4,60.79406307977737,2025-02-26 15h50.40.304846 -0500,
,,,,,,,,,,,,,,,,,,,,,,,,,,,,,,,,,,,,,,,,,,,,,,,,,,,,52.93538808822632,52.94873595237732,54.937772274017334,,,,,,,,,,,,,,,,,,,,,,,,,,,,,,,,,,,,,,,,,,,,,,,,,,,,,,,,,,,,,,,,,,,,,,,,,,,,,,,,,,,,,,,,,,,,,,,,,,,,,,133,3,2025-02-26_15h50.30.095,comp,2024.2.4,60.79406307977737,2025-02-26 15h50.40.304846 -0500,
0,0,0,,,,,,,,,,,,,,,0,0,0,0,,,,,,,,,54.95462441444397,,,,,,,,,,,,,,,,,,,,,,,,,,54.938323736190796,54.95462441444397,54.95462441444397,56.437700510025024,59.072572469711304,space,2.6169466972351074,None,59.07265257835388,59.08801627159119,59.08801627159119,60.587796688079834,71.60558104515076,space,11.001528263092041,None,71.60566782951355,71.6273922920227,71.6273922920227,71.6273922920227,71.6273922920227,71.6273922920227,71.6273922920227,71.6273922920227,71.6273922920227,71.6273922920227,73.10480642318726,83.47266578674316,space,10.350142240524292,None,83.47275733947754,83.48804974555969,83.48804974555969,83.48804974555969,84.9877781867981,89.83876299858093,space,4.842376947402954,None,89.8388683795929,89.85458755493164,89.85458755493164,91.3542549610138,92.67209768295288,space,1.3084275722503662,None,92.67221283912659,92.68786549568176,92.68786549568176,94.03899002075195,space,1.3500621318817139,None,,,,,,,,,,,,,,,,,,,,,,,,,,,,,,,,,,,,,,,,,,,,,,,133,3,2025-02-26_15h50.30.095,comp,2024.2.4,60.79406307977737,2025-02-26 15h50.40.304846 -0500,
0,0,0,critical,hwd,35.0,3.0,upper,200.0,125.0,125.0,200.0,127.0,127.0,2,3.5312070846557617,None,,,,,0,0,0,0,0,0,0,99,94.09871864318848,,,,,,,,,,,,,,,,,,,,,,,,,,,,,,,,,,,,,,,,,,,,,,,,,,,,,,,,,,,,,,,,,,,,,,,,,,,,,,,,,200.0,125.0,125.0,200.0,127.0,127.0,3.0,3.1,-258,277,0,15,260,-272,94.0848617553711,94.08491158485413,94.0869255065918,94.09871864318848,94.24407148361206,94.24407148361206,94.24407148361206,94.24407148361206,94.24407148361206,94.24407148361206,94.24407148361206,97.63894820213318,2,3.5312070846557617,None,,,,,,,,,,,,,,,,,,133,3,2025-02-26_15h50.30.095,comp,2024.2.4,60.79406307977737,2025-02-26 15h50.40.304846 -0500,
1,1,0,catch,None,None,None,None,None,None,None,None,None,None,2,1.975628137588501,None,,,,,0,0,0,0,0,1,1,126,97.65444707870483,,,,,,,,,,,,,,,,,,,,,,,,,,,,,,,,,,,,,,,,,,,,,,,,,,,,,,,,,,,,,,,,,,,,,,,,,,,,,,,,,112,78,200,125,120,70,2.1,2.11,-198,277,0,260,194,-287,97.6399757862091,97.64001655578613,97.64209961891174,97.65444707870483,97.80433464050293,97.80433464050293,97.80433464050293,97.80433464050293,97.80433464050293,97.80433464050293,97.80433464050293,99.6387767791748,2,1.975628137588501,None,,,,,,,,,,,,,,,,,,133,3,2025-02-26_15h50.30.095,comp,2024.2.4,60.79406307977737,2025-02-26 15h50.40.304846 -0500,
2,2,0,filler_random,None,None,None,None,None,None,None,None,None,None,1,2.3032517433166504,None,,,,,0,0,0,0,0,2,2,144,99.65438985824585,,,,,,,,,,,,,,,,,,,,,,,,,,,,,,,,,,,,,,,,,,,,,,,,,,,,,,,,,,,,,,,,,,,,,,,,,,,,,,,,,190.78113207735916,181.06129785413492,82.10175143736113,163.6912713232887,88.11854027433559,132.36211970420865,2.2,2.22,-268,283,0,-267,244,-262,99.63970184326172,99.63974094390869,99.64171314239502,99.65438985824585,99.80448484420776,99.80448484420776,99.80448484420776,99.80448484420776,99.80448484420776,99.80448484420776,99.80448484420776,101.97234988212585,1,2.3032517433166504,None,,,,,,,,,,,,,,,,,,133,3,2025-02-26_15h50.30.095,comp,2024.2.4,60.79406307977737,2025-02-26 15h50.40.304846 -0500,
3,3,0,critical,dwh,35.0,4.0,lower,70.0,70.0,57.0,133.0,133.0,57.0,3,3.2173776626586914,None,,,,,0,0,0,0,0,3,3,64,101.98757290840149,,,,,,,,,,,,,,,,,,,,,,,,,,,,,,,,,,,,,,,,,,,,,,,,,,,,,,,,,,,,,,,,,,,,,,,,,,,,,,,,,70.0,70.0,57.0,133.0,133.0,57.0,4.0,4.2,-198,13,0,-275,191,15,101.97316813468933,101.97320914268494,101.97560548782349,101.98757290840149,102.13756084442139,102.13756084442139,102.13756084442139,102.13756084442139,102.13756084442139,102.13756084442139,102.13756084442139,105.22202897071838,3,3.2173776626586914,None,,,,,,,,,,,,,,,,,,133,3,2025-02-26_15h50.30.095,comp,2024.2.4,60.79406307977737,2025-02-26 15h50.40.304846 -0500,
4,4,0,critical,dwh,20.0,1.0,lower,78.0,78.0,57.0,133.0,133.0,57.0,3,4.008204221725464,None,,,,,0,0,0,0,0,4,4,66,105.2375237941742,,,,,,,,,,,,,,,,,,,,,,,,,,,,,,,,,,,,,,,,,,,,,,,,,,,,,,,,,,,,,,,,,,,,,,,,,,,,,,,,,78.0,78.0,57.0,133.0,133.0,57.0,1.0,1.1,-682,289,-480,259,-289,262,105.22283482551575,105.22287631034851,105.22527647018433,105.2375237941742,105.38762998580933,105.38762998580933,105.38762998580933,105.38762998580933,105.38762998580933,105.38762998580933,105.38762998580933,109.25549602508545,3,4.008204221725464,None,,,,,,,,,,,,,,,,,,133,3,2025-02-26_15h50.30.095,comp,2024.2.4,60.79406307977737,2025-02-26 15h50.40.304846 -0500,
5,5,0,critical,wdh,20.0,3.0,lower,57.0,133.0,78.0,78.0,133.0,57.0,2,5.142845153808594,None,,,,,0,0,0,0,0,5,5,80,109.27108693122864,,,,,,,,,,,,,,,,,,,,,,,,,,,,,,,,,,,,,,,,,,,,,,,,,,,,,,,,,,,,,,,,,,,,,,,,,,,,,,,,,57.0,133.0,78.0,78.0,133.0,57.0,3.0,3.2,-202,-269,0,9,164,270,109.25630831718445,109.25635147094727,109.25880360603333,109.27108693122864,109.42091822624207,109.42091822624207,109.42091822624207,109.42091822624207,109.42091822624207,109.42091822624207,109.42091822624207,114.42195725440979,2,5.142845153808594,None,,,,,,,,,,,,,,,,,,133,3,2025-02-26_15h50.30.095,comp,2024.2.4,60.79406307977737,2025-02-26 15h50.40.304846 -0500,
6,6,0,critical,wdh,35.0,4.0,lower,57.0,133.0,70.0,70.0,133.0,57.0,3,4.466135025024414,None,,,,,0,0,0,0,0,6,6,76,114.43757510185242,,,,,,,,,,,,,,,,,,,,,,,,,,,,,,,,,,,,,,,,,,,,,,,,,,,,,,,,,,,,,,,,,,,,,,,,,,,,,,,,,57.0,133.0,70.0,70.0,133.0,57.0,4.0,4.2,-198,5,0,-284,160,12,114.42272877693176,114.42277002334595,114.42504715919495,114.43757510185242,114.58749151229858,114.58749151229858,114.58749151229858,114.58749151229858,114.58749151229858,114.58749151229858,114.58749151229858,118.92206740379333,3,4.466135025024414,None,,,,,,,,,,,,,,,,,,133,3,2025-02-26_15h50.30.095,comp,2024.2.4,60.79406307977737,2025-02-26 15h50.40.304846 -0500,
7,7,0,filler_random,None,None,None,None,None,None,None,None,None,None,2,3.5170114040374756,None,,,,,0,0,0,0,0,7,7,164,118.93740558624268,,,,,,,,,,,,,,,,,,,,,,,,,,,,,,,,,,,,,,,,,,,,,,,,,,,,,,,,,,,,,,,,,,,,,,,,,,,,,,,,,171.609265975036,88.51766724550207,103.47036581279727,183.88215342861895,61.370246635928346,183.08228587416744,4.0,4.1,-232,-269,0,7,279,-274,118.92297577857971,118.92301726341248,118.92541670799255,118.93740558624268,119.08755850791931,119.08755850791931,119.08755850791931,119.08755850791931,119.08755850791931,119.08755850791931,119.08755850791931,122.45556926727295,2,3.5170114040374756,None,,,,,,,,,,,,,,,,,,133,3,2025-02-26_15h50.30.095,comp,2024.2.4,60.79406307977737,2025-02-26 15h50.40.304846 -0500,
8,8,0,catch,None,None,None,None,None,None,None,None,None,None,3,1.7588763236999512,None,,,,,0,0,0,0,0,8,8,124,122.47088098526001,,,,,,,,,,,,,,,,,,,,,,,,,,,,,,,,,,,,,,,,,,,,,,,,,,,,,,,,,,,,,,,,,,,,,,,,,,,,,,,,,133,57,75,115,166,159,1.0,1.3,298,-263,480,-260,713,-272,122.45657348632812,122.4566125869751,122.45864486694336,122.47088098526001,122.62098717689514,122.62098717689514,122.62098717689514,122.62098717689514,122.62098717689514,122.62098717689514,122.62098717689514,124.23868179321289,3,1.7588763236999512,None,,,,,,,,,,,,,,,,,,133,3,2025-02-26_15h50.30.095,comp,2024.2.4,60.79406307977737,2025-02-26 15h50.40.304846 -0500,
9,9,0,filler_random,None,None,None,None,None,None,None,None,None,None,3,2.01678466796875,None,,,,,0,0,0,0,0,9,9,160,124.25437450408936,,,,,,,,,,,,,,,,,,,,,,,,,,,,,,,,,,,,,,,,,,,,,,,,,,,,,,,,,,,,,,,,,,,,,,,,,,,,,,,,,156.07550169051453,152.6238133947548,129.40691536313523,93.87611790287518,148.88206280265885,186.55607473777332,2.1,2.12,-219,-251,0,-262,236,272,124.23964810371399,124.23969054222107,124.24219012260437,124.25437450408936,124.4042649269104,124.4042649269104,124.4042649269104,124.4042649269104,124.4042649269104,124.4042649269104,124.4042649269104,126.28874731063843,3,2.01678466796875,None,,,,,,,,,,,,,,,,,,133,3,2025-02-26_15h50.30.095,comp,2024.2.4,60.79406307977737,2025-02-26 15h50.40.304846 -0500,
10,10,0,critical,whd,20.0,3.0,upper,125.0,200.0,200.0,125.0,141.0,141.0,1,5.77265477180481,None,,,,,0,0,0,0,0,10,10,93,126.3040223121643,,,,,,,,,,,,,,,,,,,,,,,,,,,,,,,,,,,,,,,,,,,,,,,,,,,,,,,,,,,,,,,,,,,,,,,,,,,,,,,,,125.0,200.0,200.0,125.0,141.0,141.0,3.0,3.1,-258,276,0,4,229,-279,126.28957915306091,126.28962087631226,126.29220342636108,126.3040223121643,126.45427393913269,126.45427393913269,126.45427393913269,126.45427393913269,126.45427393913269,126.45427393913269,126.45427393913269,132.08898830413818,1,5.77265477180481,None,,,,,,,,,,,,,,,,,,133,3,2025-02-26_15h50.30.095,comp,2024.2.4,60.79406307977737,2025-02-26 15h50.40.304846 -0500,
11,11,0,critical,whd,35.0,3.0,lower,57.0,133.0,133.0,57.0,70.0,70.0,2,2.693567991256714,None,,,,,0,0,0,0,0,11,11,86,132.1041600704193,,,,,,,,,,,,,,,,,,,,,,,,,,,,,,,,,,,,,,,,,,,,,,,,,,,,,,,,,,,,,,,,,,,,,,,,,,,,,,,,,57.0,133.0,133.0,57.0,70.0,70.0,3.0,3.2,-191,-266,0,12,160,251,132.0897877216339,132.0898416042328,132.09180116653442,132.1041600704193,132.25420689582825,132.25420689582825,132.25420689582825,132.25420689582825,132.25420689582825,132.25420689582825,132.25420689582825,134.80508375167847,2,2.693567991256714,None,,,,,,,,,,,,,,,,,,133,3,2025-02-26_15h50.30.095,comp,2024.2.4,60.79406307977737,2025-02-26 15h50.40.304846 -0500,
12,12,0,filler_random,None,None,None,None,None,None,None,None,None,None,3,2.62518572807312,None,,,,,0,0,0,0,0,12,12,166,134.82084155082703,,,,,,,,,,,,,,,,,,,,,,,,,,,,,,,,,,,,,,,,,,,,,,,,,,,,,,,,,,,,,,,,,,,,,,,,,,,,,,,,,69.08508500650997,142.98603039625252,121.62671006905515,161.29306536265628,153.03082648774247,167.8976038920258,2.2,2.22,-248,256,0,-290,261,-257,134.80605101585388,134.8060920238495,134.80866479873657,134.82084155082703,134.97091245651245,134.97091245651245,134.97091245651245,134.97091245651245,134.97091245651245,134.97091245651245,134.97091245651245,137.4552459716797,3,2.62518572807312,None,,,,,,,,,,,,,,,,,,133,3,2025-02-26_15h50.30.095,comp,2024.2.4,60.79406307977737,2025-02-26 15h50.40.304846 -0500,
13,13,0,filler_random,None,None,None,None,None,None,None,None,None,None,3,8.799971103668213,None,,,,,0,0,0,0,0,13,13,142,137.47093319892883,,,,,,,,,,,,,,,,,,,,,,,,,,,,,,,,,,,,,,,,,,,,,,,,,,,,,,,,,,,,,,,,,,,,,,,,,,,,,,,,,78.15672691985853,78.53004015523949,171.18616716724222,63.84202272326298,91.54382359762936,141.53393265559498,2.2,2.21,-167,-267,0,267,199,272,137.45613622665405,137.45617771148682,137.45859622955322,137.47093319892883,137.62076687812805,137.62076687812805,137.62076687812805,137.62076687812805,137.62076687812805,137.62076687812805,137.62076687812805,146.27208185195923,3,8.799971103668213,None,,,,,,,,,,,,,,,,,,133,3,2025-02-26_15h50.30.095,comp,2024.2.4,60.79406307977737,2025-02-26 15h50.40.304846 -0500,
14,14,0,critical,wdh,35.0,3.0,lower,57.0,133.0,70.0,70.0,133.0,57.0,1,4.669102907180786,None,,,,,0,0,0,0,0,14,14,74,146.2876660823822,,,,,,,,,,,,,,,,,,,,,,,,,,,,,,,,,,,,,,,,,,,,,,,,,,,,,,,,,,,,,,,,,,,,,,,,,,,,,,,,,57.0,133.0,70.0,70.0,133.0,57.0,3.0,3.2,-198,-284,0,-7,160,282,146.27288556098938,146.27292728424072,146.27505207061768,146.2876660823822,146.43739557266235,146.43739557266235,146.43739557266235,146.43739557266235,146.43739557266235,146.43739557266235,146.43739557266235,150.9718041419983,1,4.669102907180786,None,,,,,,,,,,,,,,,,,,133,3,2025-02-26_15h50.30.095,comp,2024.2.4,60.79406307977737,2025-02-26 15h50.40.304846 -0500,
15,15,0,filler_square,None,None,None,None,None,None,None,None,None,None,3,6.050386428833008,None,,,,,0,0,0,0,0,15,15,171,150.98723030090332,,,,,,,,,,,,,,,,,,,,,,,,,,,,,,,,,,,,,,,,,,,,,,,,,,,,,,,,,,,,,,,,,,,,,,,,,,,,,,,,,58.36893864163684,59.911263722914704,61.94203436733106,57.25883895804498,62.3510571757959,62.3510571757959,3.0,3.2,-155,-257,0,7,156,266,150.9727590084076,150.9728012084961,150.97540140151978,150.98723030090332,151.13719129562378,151.13719129562378,151.13719129562378,151.13719129562378,151.13719129562378,151.13719129562378,151.13719129562378,157.05490255355835,3,6.050386428833008,None,,,,,,,,,,,,,,,,,,133,3,2025-02-26_15h50.30.095,comp,2024.2.4,60.79406307977737,2025-02-26 15h50.40.304846 -0500,
16,16,0,critical,hwd,35.0,1.0,upper,200.0,125.0,125.0,200.0,127.0,127.0,1,6.016739130020142,None,,,,,0,0,0,0,0,16,16,97,157.070405960083,,,,,,,,,,,,,,,,,,,,,,,,,,,,,,,,,,,,,,,,,,,,,,,,,,,,,,,,,,,,,,,,,,,,,,,,,,,,,,,,,200.0,125.0,125.0,200.0,127.0,127.0,1.0,1.1,-738,262,-480,266,-220,265,157.05568957328796,157.05572962760925,157.05804085731506,157.070405960083,157.2208342552185,157.2208342552185,157.2208342552185,157.2208342552185,157.2208342552185,157.2208342552185,157.2208342552185,163.08868527412415,1,6.016739130020142,None,,,,,,,,,,,,,,,,,,133,3,2025-02-26_15h50.30.095,comp,2024.2.4,60.79406307977737,2025-02-26 15h50.40.304846 -0500,
17,17,0,filler_random,None,None,None,None,None,None,None,None,None,None,1,3.533712148666382,None,,,,,0,0,0,0,0,17,17,158,163.1039538383484,,,,,,,,,,,,,,,,,,,,,,,,,,,,,,,,,,,,,,,,,,,,,,,,,,,,,,,,,,,,,,,,,,,,,,,,,,,,,,,,,194.22576993857837,183.28502635208963,169.6950870635834,199.98702640859474,60.03880464361083,88.17365128089175,2.2,2.21,-288,-278,0,262,240,256,163.08959317207336,163.0896339416504,163.0921926498413,163.1039538383484,163.2541172504425,163.2541172504425,163.2541172504425,163.2541172504425,163.2541172504425,163.2541172504425,163.2541172504425,166.63878774642944,1,3.533712148666382,None,,,,,,,,,,,,,,,,,,133,3,2025-02-26_15h50.30.095,comp,2024.2.4,60.79406307977737,2025-02-26 15h50.40.304846 -0500,
18,18,0,critical,hwd,35.0,2.1,lower,133.0,57.0,57.0,133.0,70.0,70.0,2,4.511268138885498,None,,,,,0,0,0,0,0,18,18,40,166.65413856506348,,,,,,,,,,,,,,,,,,,,,,,,,,,,,,,,,,,,,,,,,,,,,,,,,,,,,,,,,,,,,,,,,,,,,,,,,,,,,,,,,133.0,57.0,57.0,133.0,70.0,70.0,2.1,2.12,-191,-255,0,-281,198,265,166.6396040916443,166.639643907547,166.64248704910278,166.65413856506348,166.8039689064026,166.8039689064026,166.8039689064026,166.8039689064026,166.8039689064026,166.8039689064026,166.8039689064026,171.17164707183838,2,4.511268138885498,None,,,,,,,,,,,,,,,,,,133,3,2025-02-26_15h50.30.095,comp,2024.2.4,60.79406307977737,2025-02-26 15h50.40.304846 -0500,
19,19,0,filler_random,None,None,None,None,None,None,None,None,None,None,2,2.8340232372283936,None,,,,,0,0,0,0,0,19,19,140,171.18719720840454,,,,,,,,,,,,,,,,,,,,,,,,,,,,,,,,,,,,,,,,,,,,,,,,,,,,,,,,,,,,,,,,,,,,,,,,,,,,,,,,,65.19558522125281,162.03225431692942,188.2651344572255,101.38531042319866,107.28026425345772,63.462918457263264,1.0,1.2,-228,-5,0,-5,178,11,171.17251682281494,171.17255806922913,171.17517590522766,171.18719720840454,171.33725929260254,171.33725929260254,171.33725929260254,171.33725929260254,171.33725929260254,171.33725929260254,171.33725929260254,174.03842854499817,2,2.8340232372283936,None,,,,,,,,,,,,,,,,,,133,3,2025-02-26_15h50.30.095,comp,2024.2.4,60.79406307977737,2025-02-26 15h50.40.304846 -0500,
20,20,0,filler_random,None,None,None,None,None,None,None,None,None,None,2,4.008062124252319,None,,,,,0,0,0,0,0,20,20,162,174.0536561012268,,,,,,,,,,,,,,,,,,,,,,,,,,,,,,,,,,,,,,,,,,,,,,,,,,,,,,,,,,,,,,,,,,,,,,,,,,,,,,,,,110.98361560489329,153.51654346582677,180.93666820732375,116.1935257876467,73.51994766590312,163.49962202602435,2.2,2.22,-231,283,0,-282,236,-254,174.0393669605255,174.03940796852112,174.041912317276,174.0536561012268,174.20398879051208,174.20398879051208,174.20398879051208,174.20398879051208,174.20398879051208,174.20398879051208,174.20398879051208,178.07159209251404,2,4.008062124252319,None,,,,,,,,,,,,,,,,,,133,3,2025-02-26_15h50.30.095,comp,2024.2.4,60.79406307977737,2025-02-26 15h50.40.304846 -0500,
21,21,0,critical,dwh,20.0,2.1,lower,78.0,78.0,57.0,133.0,133.0,57.0,2,3.9667792320251465,None,,,,,0,0,0,0,0,21,21,6,178.08721470832825,,,,,,,,,,,,,,,,,,,,,,,,,,,,,,,,,,,,,,,,,,,,,,,,,,,,,,,,,,,,,,,,,,,,,,,,,,,,,,,,,78.0,78.0,57.0,133.0,133.0,57.0,2.1,2.12,-202,-252,0,-258,191,254,178.0723569393158,178.0723967552185,178.0748267173767,178.08721470832825,178.23702836036682,178.23702836036682,178.23702836036682,178.23702836036682,178.23702836036682,178.23702836036682,178.23702836036682,182.0715456008911,2,3.9667792320251465,None,,,,,,,,,,,,,,,,,,133,3,2025-02-26_15h50.30.095,comp,2024.2.4,60.79406307977737,2025-02-26 15h50.40.304846 -0500,
22,22,0,filler_square,None,None,None,None,None,None,None,None,None,None,3,2.367178201675415,None,,,,,0,0,0,0,0,22,22,198,182.086909532547,,,,,,,,,,,,,,,,,,,,,,,,,,,,,,,,,,,,,,,,,,,,,,,,,,,,,,,,,,,,,,,,,,,,,,,,,,,,,,,,,100.07892946431238,98.8925175764017,103.90634863023932,73.58509706967729,113.67945612276336,113.67945612276336,3.0,3.1,-182,284,0,17,190,-255,182.0725109577179,182.07255125045776,182.07513642311096,182.086909532547,182.23712182044983,182.23712182044983,182.23712182044983,182.23712182044983,182.23712182044983,182.23712182044983,182.23712182044983,184.47152090072632,3,2.367178201675415,None,,,,,,,,,,,,,,,,,,133,3,2025-02-26_15h50.30.095,comp,2024.2.4,60.79406307977737,2025-02-26 15h50.40.304846 -0500,
23,23,0,filler_random,None,None,None,None,None,None,None,None,None,None,2,5.57461404800415,None,,,,,0,0,0,0,0,23,23,153,184.48697972297668,,,,,,,,,,,,,,,,,,,,,,,,,,,,,,,,,,,,,,,,,,,,,,,,,,,,,,,,,,,,,,,,,,,,,,,,,,,,,,,,,112.41164844444485,143.3543585163923,139.5687668316154,143.79201412903416,96.13114511023338,138.7331886254707,4.0,4.1,-240,-286,0,-5,237,-263,184.47245264053345,184.47249269485474,184.4750530719757,184.48697972297668,184.63737320899963,184.63737320899963,184.63737320899963,184.63737320899963,184.63737320899963,184.63737320899963,184.63737320899963,190.07144284248352,2,5.57461404800415,None,,,,,,,,,,,,,,,,,,133,3,2025-02-26_15h50.30.095,comp,2024.2.4,60.79406307977737,2025-02-26 15h50.40.304846 -0500,
24,24,0,filler_square,None,None,None,None,None,None,None,None,None,None,2,2.2694742679595947,None,,,,,0,0,0,0,0,24,24,185,190.08718633651733,,,,,,,,,,,,,,,,,,,,,,,,,,,,,,,,,,,,,,,,,,,,,,,,,,,,,,,,,,,,,,,,,,,,,,,,,,,,,,,,,77.70272700350186,96.00858165153528,107.7464568798305,107.7464568798305,60.1175191697414,61.59824900010315,2.2,2.21,-198,-251,0,273,181,258,190.07242965698242,190.07247114181519,190.0748929977417,190.08718633651733,190.23699712753296,190.23699712753296,190.23699712753296,190.23699712753296,190.23699712753296,190.23699712753296,190.23699712753296,192.37146735191345,2,2.2694742679595947,None,,,,,,,,,,,,,,,,,,133,3,2025-02-26_15h50.30.095,comp,2024.2.4,60.79406307977737,2025-02-26 15h50.40.304846 -0500,
25,25,0,filler_square,None,None,None,None,None,None,None,None,None,None,1,2.458279609680176,None,,,,,0,0,0,0,0,25,25,205,192.3869378566742,,,,,,,,,,,,,,,,,,,,,,,,,,,,,,,,,,,,,,,,,,,,,,,,,,,,,,,,,,,,,,,,,,,,,,,,,,,,,,,,,87.88865921616369,87.88865921616369,80.99625186788587,61.52551953211373,59.22130406908026,84.96116819456178,2.1,2.12,-171,-255,0,-277,169,260,192.3724274635315,192.37246918678284,192.37506461143494,192.3869378566742,192.53701829910278,192.53701829910278,192.53701829910278,192.53701829910278,192.53701829910278,192.53701829910278,192.53701829910278,194.8547055721283,1,2.458279609680176,None,,,,,,,,,,,,,,,,,,133,3,2025-02-26_15h50.30.095,comp,2024.2.4,60.79406307977737,2025-02-26 15h50.40.304846 -0500,
26,26,0,filler_random,None,None,None,None,None,None,None,None,None,None,1,3.048171043395996,None,,,,,0,0,0,0,0,26,26,168,194.8705632686615,,,,,,,,,,,,,,,,,,,,,,,,,,,,,,,,,,,,,,,,,,,,,,,,,,,,,,,,,,,,,,,,,,,,,,,,,,,,,,,,,138.8091779867867,110.93197317241645,101.96397555665602,81.80614161200279,121.75158825437813,95.38315810935259,3.0,3.1,-192,269,0,20,185,-262,194.85559105873108,194.85563230514526,194.85817909240723,194.8705632686615,195.02045035362244,195.02045035362244,195.02045035362244,195.02045035362244,195.02045035362244,195.02045035362244,195.02045035362244,197.921626329422,1,3.048171043395996,None,,,,,,,,,,,,,,,,,,133,3,2025-02-26_15h50.30.095,comp,2024.2.4,60.79406307977737,2025-02-26 15h50.40.304846 -0500,
27,27,0,filler_square,None,None,None,None,None,None,None,None,None,None,2,2.133523464202881,None,,,,,0,0,0,0,0,27,27,195,197.93714094161987,,,,,,,,,,,,,,,,,,,,,,,,,,,,,,,,,,,,,,,,,,,,,,,,,,,,,,,,,,,,,,,,,,,,,,,,,,,,,,,,,80.7301814642601,85.82121135586814,193.74935119216647,193.74935119216647,158.35060003613043,181.31699139894576,1.0,1.3,244,-279,480,-251,764,-263,197.92259049415588,197.92263102531433,197.9251344203949,197.93714094161987,198.08718371391296,198.08718371391296,198.08718371391296,198.08718371391296,198.08718371391296,198.08718371391296,198.08718371391296,200.07179021835327,2,2.133523464202881,None,,,,,,,,,,,,,,,,,,133,3,2025-02-26_15h50.30.095,comp,2024.2.4,60.79406307977737,2025-02-26 15h50.40.304846 -0500,
28,28,0,critical,wdh,20.0,2.1,upper,125.0,200.0,141.0,141.0,200.0,125.0,1,6.2781007289886475,None,,,,,0,0,0,0,0,28,28,35,200.08711314201355,,,,,,,,,,,,,,,,,,,,,,,,,,,,,,,,,,,,,,,,,,,,,,,,,,,,,,,,,,,,,,,,,,,,,,,,,,,,,,,,,125.0,200.0,141.0,141.0,200.0,125.0,2.1,2.12,-266,-262,0,-268,229,272,200.07262253761292,200.07266306877136,200.0751826763153,200.08711314201355,200.23737716674805,200.23737716674805,200.23737716674805,200.23737716674805,200.23737716674805,200.23737716674805,200.23737716674805,206.3715648651123,1,6.2781007289886475,None,,,,,,,,,,,,,,,,,,133,3,2025-02-26_15h50.30.095,comp,2024.2.4,60.79406307977737,2025-02-26 15h50.40.304846 -0500,
29,29,0,filler_square,None,None,None,None,None,None,None,None,None,None,2,2.4745006561279297,None,,,,,0,0,0,0,0,29,29,203,206.3870906829834,,,,,,,,,,,,,,,,,,,,,,,,,,,,,,,,,,,,,,,,,,,,,,,,,,,,,,,,,,,,,,,,,,,,,,,,,,,,,,,,,68.64304234392044,63.69695356167763,81.31260086130624,81.31260086130624,69.62791996869215,74.66178418384672,4.0,4.2,-169,-5,0,-280,174,0,206.37245893478394,206.3724982738495,206.37501788139343,206.3870906829834,206.5369050502777,206.5369050502777,206.5369050502777,206.5369050502777,206.5369050502777,206.5369050502777,206.5369050502777,208.87137818336487,2,2.4745006561279297,None,,,,,,,,,,,,,,,,,,133,3,2025-02-26_15h50.30.095,comp,2024.2.4,60.79406307977737,2025-02-26 15h50.40.304846 -0500,
30,30,0,critical,hdw,35.0,2.1,lower,133.0,57.0,70.0,70.0,57.0,133.0,3,6.766618728637695,None,,,,,0,0,0,0,0,30,30,44,208.88705563545227,,,,,,,,,,,,,,,,,,,,,,,,,,,,,,,,,,,,,,,,,,,,,,,,,,,,,,,,,,,,,,,,,,,,,,,,,,,,,,,,,133.0,57.0,70.0,70.0,57.0,133.0,2.1,2.12,-160,-269,0,-286,198,265,208.8721764087677,208.8722174167633,208.8745949268341,208.88705563545227,209.03701972961426,209.03701972961426,209.03701972961426,209.03701972961426,209.03701972961426,209.03701972961426,209.03701972961426,215.67129802703857,3,6.766618728637695,None,,,,,,,,,,,,,,,,,,133,3,2025-02-26_15h50.30.095,comp,2024.2.4,60.79406307977737,2025-02-26 15h50.40.304846 -0500,
31,31,0,critical,dwh,35.0,1.0,lower,70.0,70.0,57.0,133.0,133.0,57.0,2,3.101661443710327,None,,,,,0,0,0,0,0,31,31,60,215.68668460845947,,,,,,,,,,,,,,,,,,,,,,,,,,,,,,,,,,,,,,,,,,,,,,,,,,,,,,,,,,,,,,,,,,,,,,,,,,,,,,,,,70.0,70.0,57.0,133.0,133.0,57.0,1.0,1.2,-198,-2,0,-5,191,16,215.6721031665802,215.67214488983154,215.67457914352417,215.68668460845947,215.83678126335144,215.83678126335144,215.83678126335144,215.83678126335144,215.83678126335144,215.83678126335144,215.83678126335144,218.80475211143494,2,3.101661443710327,None,,,,,,,,,,,,,,,,,,133,3,2025-02-26_15h50.30.095,comp,2024.2.4,60.79406307977737,2025-02-26 15h50.40.304846 -0500,
32,32,0,critical,dhw,20.0,3.0,lower,78.0,78.0,133.0,57.0,57.0,133.0,3,2.2881312370300293,None,,,,,0,0,0,0,0,32,32,56,218.82015991210938,,,,,,,,,,,,,,,,,,,,,,,,,,,,,,,,,,,,,,,,,,,,,,,,,,,,,,,,,,,,,,,,,,,,,,,,,,,,,,,,,78.0,78.0,133.0,57.0,57.0,133.0,3.0,3.2,-164,-270,0,8,191,278,218.8055555820465,218.80559659004211,218.80926895141602,218.82015991210938,218.97008275985718,218.97008275985718,218.97008275985718,218.97008275985718,218.97008275985718,218.97008275985718,218.97008275985718,221.12133288383484,3,2.2881312370300293,None,,,,,,,,,,,,,,,,,,133,3,2025-02-26_15h50.30.095,comp,2024.2.4,60.79406307977737,2025-02-26 15h50.40.304846 -0500,
33,33,0,filler_random,None,None,None,None,None,None,None,None,None,None,1,3.3085169792175293,None,,,,,0,0,0,0,0,33,33,159,221.13657093048096,,,,,,,,,,,,,,,,,,,,,,,,,,,,,,,,,,,,,,,,,,,,,,,,,,,,,,,,,,,,,,,,,,,,,,,,,,,,,,,,,106.19093290780943,177.98735421208616,68.01225213561642,192.5451684131822,97.24486313951662,106.25747261697404,2.2,2.22,-281,274,0,-260,245,-265,221.1222288608551,221.12227034568787,221.12471723556519,221.13657093048096,221.28687453269958,221.28687453269958,221.28687453269958,221.28687453269958,221.28687453269958,221.28687453269958,221.28687453269958,224.45462036132812,1,3.3085169792175293,None,,,,,,,,,,,,,,,,,,133,3,2025-02-26_15h50.30.095,comp,2024.2.4,60.79406307977737,2025-02-26 15h50.40.304846 -0500,
34,34,0,filler_random,None,None,None,None,None,None,None,None,None,None,2,2.902045488357544,None,,,,,0,0,0,0,0,34,34,151,224.47033214569092,,,,,,,,,,,,,,,,,,,,,,,,,,,,,,,,,,,,,,,,,,,,,,,,,,,,,,,,,,,,,,,,,,,,,,,,,,,,,,,,,179.00918440994238,109.10341921162109,177.8525469401058,137.61130743875512,157.34569604800305,108.68112148194142,3.0,3.2,-219,-287,0,-10,219,264,224.4555377960205,224.45558094978333,224.4580955505371,224.47033214569092,224.62033486366272,224.62033486366272,224.62033486366272,224.62033486366272,224.62033486366272,224.62033486366272,224.62033486366272,227.38806772232056,2,2.902045488357544,None,,,,,,,,,,,,,,,,,,133,3,2025-02-26_15h50.30.095,comp,2024.2.4,60.79406307977737,2025-02-26 15h50.40.304846 -0500,
35,35,0,filler_square,None,None,None,None,None,None,None,None,None,None,1,2.6009361743927,None,,,,,0,0,0,0,0,35,35,177,227.40328454971313,,,,,,,,,,,,,,,,,,,,,,,,,,,,,,,,,,,,,,,,,,,,,,,,,,,,,,,,,,,,,,,,,,,,,,,,,,,,,,,,,199.99080428261095,199.99080428261095,66.94703419091499,69.17972223168212,174.67790208818758,172.76632405168272,2.2,2.21,-231,-286,0,253,217,254,227.38903164863586,227.3890733718872,227.39144229888916,227.40328454971313,227.55364155769348,227.55364155769348,227.55364155769348,227.55364155769348,227.55364155769348,227.55364155769348,227.55364155769348,230.02132749557495,1,2.6009361743927,None,,,,,,,,,,,,,,,,,,133,3,2025-02-26_15h50.30.095,comp,2024.2.4,60.79406307977737,2025-02-26 15h50.40.304846 -0500,
36,36,0,critical,wdh,20.0,4.0,lower,57.0,133.0,78.0,78.0,133.0,57.0,1,10.56046724319458,None,,,,,0,0,0,0,0,36,36,82,230.03661704063416,,,,,,,,,,,,,,,,,,,,,,,,,,,,,,,,,,,,,,,,,,,,,,,,,,,,,,,,,,,,,,,,,,,,,,,,,,,,,,,,,57.0,133.0,78.0,78.0,133.0,57.0,4.0,4.2,-202,20,0,-260,164,5,230.02213287353516,230.02217316627502,230.02458333969116,230.03661704063416,230.1867551803589,230.1867551803589,230.1867551803589,230.1867551803589,230.1867551803589,230.1867551803589,230.1867551803589,240.60441660881042,1,10.56046724319458,None,,,,,,,,,,,,,,,,,,133,3,2025-02-26_15h50.30.095,comp,2024.2.4,60.79406307977737,2025-02-26 15h50.40.304846 -0500,
37,37,0,filler_random,None,None,None,None,None,None,None,None,None,None,1,2.1288223266601562,None,,,,,0,0,0,0,0,37,37,167,240.62016534805298,,,,,,,,,,,,,,,,,,,,,,,,,,,,,,,,,,,,,,,,,,,,,,,,,,,,,,,,,,,,,,,,,,,,,,,,,,,,,,,,,196.73328658219862,163.9709866625713,125.86114824269558,115.99076776483874,177.9354627086209,129.4301164891219,2.2,2.21,-236,-282,0,261,219,268,240.6053056716919,240.6053442955017,240.60779452323914,240.62016534805298,240.77022790908813,240.77022790908813,240.77022790908813,240.77022790908813,240.77022790908813,240.77022790908813,240.77022790908813,242.75467157363892,1,2.1288223266601562,None,,,,,,,,,,,,,,,,,,133,3,2025-02-26_15h50.30.095,comp,2024.2.4,60.79406307977737,2025-02-26 15h50.40.304846 -0500,
38,38,0,filler_square,None,None,None,None,None,None,None,None,None,None,2,1.6268079280853271,None,,,,,0,0,0,0,0,38,38,192,242.77025485038757,,,,,,,,,,,,,,,,,,,,,,,,,,,,,,,,,,,,,,,,,,,,,,,,,,,,,,,,,,,,,,,,,,,,,,,,,,,,,,,,,76.26574071548839,89.03163273072188,122.81149112859272,122.81149112859272,67.34849232783972,90.82127298533182,2.1,2.12,-202,-252,0,-265,203,251,242.75558614730835,242.755624294281,242.75812220573425,242.77025485038757,242.91990685462952,242.91990685462952,242.91990685462952,242.91990685462952,242.91990685462952,242.91990685462952,242.91990685462952,244.4043574333191,2,1.6268079280853271,None,,,,,,,,,,,,,,,,,,133,3,2025-02-26_15h50.30.095,comp,2024.2.4,60.79406307977737,2025-02-26 15h50.40.304846 -0500,
39,39,0,critical,hwd,35.0,2.1,upper,200.0,125.0,125.0,200.0,127.0,127.0,1,4.416942358016968,None,,,,,0,0,0,0,0,39,39,41,244.4201021194458,,,,,,,,,,,,,,,,,,,,,,,,,,,,,,,,,,,,,,,,,,,,,,,,,,,,,,,,,,,,,,,,,,,,,,,,,,,,,,,,,200.0,125.0,125.0,200.0,127.0,127.0,2.1,2.11,-258,277,0,264,260,-262,244.40519785881042,244.40523958206177,244.40772438049316,244.4201021194458,244.5701127052307,244.5701127052307,244.5701127052307,244.5701127052307,244.5701127052307,244.5701127052307,244.5701127052307,248.85475158691406,1,4.416942358016968,None,,,,,,,,,,,,,,,,,,133,3,2025-02-26_15h50.30.095,comp,2024.2.4,60.79406307977737,2025-02-26 15h50.40.304846 -0500,
40,40,0,filler_square,None,None,None,None,None,None,None,None,None,None,2,4.605949640274048,None,,,,,0,0,0,0,0,40,40,172,248.86995005607605,,,,,,,,,,,,,,,,,,,,,,,,,,,,,,,,,,,,,,,,,,,,,,,,,,,,,,,,,,,,,,,,,,,,,,,,,,,,,,,,,57.47054746939322,57.55920252454416,58.576852615592976,58.576852615592976,57.43507291675713,57.12435994239524,4.0,4.2,-154,-7,0,-273,154,-19,248.8557357788086,248.85577774047852,248.85838794708252,248.86995005607605,249.02003812789917,249.02003812789917,249.02003812789917,249.02003812789917,249.02003812789917,249.02003812789917,249.02003812789917,253.48815393447876,2,4.605949640274048,None,,,,,,,,,,,,,,,,,,133,3,2025-02-26_15h50.30.095,comp,2024.2.4,60.79406307977737,2025-02-26 15h50.40.304846 -0500,
41,41,0,filler_random,None,None,None,None,None,None,None,None,None,None,2,2.998816728591919,None,,,,,0,0,0,0,0,41,41,130,253.50354099273682,,,,,,,,,,,,,,,,,,,,,,,,,,,,,,,,,,,,,,,,,,,,,,,,,,,,,,,,,,,,,,,,,,,,,,,,,,,,,,,,,180.57345190330062,113.2815027456034,162.0748194716467,140.66010713942484,87.11850170567169,69.86885422934442,1.0,1.3,257,-259,480,-276,681,-266,253.48908734321594,253.48913025856018,253.49260473251343,253.50354099273682,253.65342783927917,253.65342783927917,253.65342783927917,253.65342783927917,253.65342783927917,253.65342783927917,253.65342783927917,256.50463104248047,2,2.998816728591919,None,,,,,,,,,,,,,,,,,,133,3,2025-02-26_15h50.30.095,comp,2024.2.4,60.79406307977737,2025-02-26 15h50.40.304846 -0500,
42,42,0,filler_square,None,None,None,None,None,None,None,None,None,None,3,2.3248257637023926,None,,,,,0,0,0,0,0,42,42,204,256.5200457572937,,,,,,,,,,,,,,,,,,,,,,,,,,,,,,,,,,,,,,,,,,,,,,,,,,,,,,,,,,,,,,,,,,,,,,,,,,,,,,,,,58.9975659250908,67.08378088433288,89.60793340750703,83.37560413431979,92.65176608619629,92.65176608619629,1.0,1.1,-651,276,-480,251,-296,274,256.50569915771484,256.50573992729187,256.5079917907715,256.5200457572937,256.6699151992798,256.6699151992798,256.6699151992798,256.6699151992798,256.6699151992798,256.6699151992798,256.6699151992798,258.85433077812195,3,2.3248257637023926,None,,,,,,,,,,,,,,,,,,133,3,2025-02-26_15h50.30.095,comp,2024.2.4,60.79406307977737,2025-02-26 15h50.40.304846 -0500,
43,43,0,critical,dhw,35.0,2.1,upper,127.0,127.0,200.0,125.0,125.0,200.0,2,2.8631041049957275,None,,,,,0,0,0,0,0,43,43,1,258.870201587677,,,,,,,,,,,,,,,,,,,,,,,,,,,,,,,,,,,,,,,,,,,,,,,,,,,,,,,,,,,,,,,,,,,,,,,,,,,,,,,,,127.0,127.0,200.0,125.0,125.0,200.0,2.1,2.12,-222,-263,0,-270,258,268,258.85513520240784,258.8551766872406,258.85760474205017,258.870201587677,259.02009177207947,259.02009177207947,259.02009177207947,259.02009177207947,259.02009177207947,259.02009177207947,259.02009177207947,261.7379355430603,2,2.8631041049957275,None,,,,,,,,,,,,,,,,,,133,3,2025-02-26_15h50.30.095,comp,2024.2.4,60.79406307977737,2025-02-26 15h50.40.304846 -0500,
44,44,0,critical,hdw,20.0,4.0,lower,133.0,57.0,78.0,78.0,57.0,133.0,1,6.700040340423584,None,,,,,0,0,0,0,0,44,44,118,261.7533264160156,,,,,,,,,,,,,,,,,,,,,,,,,,,,,,,,,,,,,,,,,,,,,,,,,,,,,,,,,,,,,,,,,,,,,,,,,,,,,,,,,133.0,57.0,78.0,78.0,57.0,133.0,4.0,4.2,-164,-11,0,-278,202,-6,261.73872590065,261.73876571655273,261.74091601371765,261.7533264160156,261.90325379371643,261.90325379371643,261.90325379371643,261.90325379371643,261.90325379371643,261.90325379371643,261.90325379371643,268.45449137687683,1,6.700040340423584,None,,,,,,,,,,,,,,,,,,133,3,2025-02-26_15h50.30.095,comp,2024.2.4,60.79406307977737,2025-02-26 15h50.40.304846 -0500,
45,45,0,filler_random,None,None,None,None,None,None,None,None,None,None,3,3.1428520679473877,None,,,,,0,0,0,0,0,45,45,148,268.46991205215454,,,,,,,,,,,,,,,,,,,,,,,,,,,,,,,,,,,,,,,,,,,,,,,,,,,,,,,,,,,,,,,,,,,,,,,,,,,,,,,,,139.3826987470347,128.48960266496363,90.87539484466214,160.7652174784016,96.80169960764353,197.20554864106896,3.0,3.2,-241,-289,0,19,275,287,268.45535230636597,268.45539259910583,268.4578559398651,268.46991205215454,268.62002205848694,268.62002205848694,268.62002205848694,268.62002205848694,268.62002205848694,268.62002205848694,268.62002205848694,271.6209831237793,3,3.1428520679473877,None,,,,,,,,,,,,,,,,,,133,3,2025-02-26_15h50.30.095,comp,2024.2.4,60.79406307977737,2025-02-26 15h50.40.304846 -0500,
46,46,0,filler_random,None,None,None,None,None,None,None,None,None,None,2,1.6820623874664307,None,,,,,0,0,0,0,0,46,46,136,271.6365616321564,,,,,,,,,,,,,,,,,,,,,,,,,,,,,,,,,,,,,,,,,,,,,,,,,,,,,,,,,,,,,,,,,,,,,,,,,,,,,,,,,76.50587330604044,123.20912599933935,197.6180697718782,141.3438398221675,91.89147598795293,85.63593665034534,4.0,4.1,-228,-277,0,8,209,-275,271.62189292907715,271.6219336986542,271.6243040561676,271.6365616321564,271.78653860092163,271.78653860092163,271.78653860092163,271.78653860092163,271.78653860092163,271.78653860092163,271.78653860092163,273.3213093280792,2,1.6820623874664307,None,,,,,,,,,,,,,,,,,,133,3,2025-02-26_15h50.30.095,comp,2024.2.4,60.79406307977737,2025-02-26 15h50.40.304846 -0500,
47,47,0,critical,dwh,20.0,4.0,upper,141.0,141.0,125.0,200.0,200.0,125.0,2,9.619172096252441,None,,,,,0,0,0,0,0,47,47,71,273.33659291267395,,,,,,,,,,,,,,,,,,,,,,,,,,,,,,,,,,,,,,,,,,,,,,,,,,,,,,,,,,,,,,,,,,,,,,,,,,,,,,,,,141.0,141.0,125.0,200.0,200.0,125.0,4.0,4.2,-266,-19,0,-269,258,7,273.3220980167389,273.32213950157166,273.32451152801514,273.33659291267395,273.4866590499878,273.4866590499878,273.4866590499878,273.4866590499878,273.4866590499878,273.4866590499878,273.4866590499878,282.9711389541626,2,9.619172096252441,None,,,,,,,,,,,,,,,,,,133,3,2025-02-26_15h50.30.095,comp,2024.2.4,60.79406307977737,2025-02-26 15h50.40.304846 -0500,
48,48,0,critical,hwd,35.0,2.1,lower,133.0,57.0,57.0,133.0,70.0,70.0,1,7.817481994628906,None,,,,,0,0,0,0,0,48,48,16,282.9863474369049,,,,,,,,,,,,,,,,,,,,,,,,,,,,,,,,,,,,,,,,,,,,,,,,,,,,,,,,,,,,,,,,,,,,,,,,,,,,,,,,,133.0,57.0,57.0,133.0,70.0,70.0,2.1,2.12,-191,-268,0,-261,198,257,282.9719760417938,282.9720182418823,282.9744322299957,282.9863474369049,283.1365165710449,283.1365165710449,283.1365165710449,283.1365165710449,283.1365165710449,283.1365165710449,283.1365165710449,290.82071828842163,1,7.817481994628906,None,,,,,,,,,,,,,,,,,,133,3,2025-02-26_15h50.30.095,comp,2024.2.4,60.79406307977737,2025-02-26 15h50.40.304846 -0500,
49,49,0,filler_random,None,None,None,None,None,None,None,None,None,None,3,1.9675936698913574,None,,,,,0,0,0,0,0,49,49,154,290.8362081050873,,,,,,,,,,,,,,,,,,,,,,,,,,,,,,,,,,,,,,,,,,,,,,,,,,,,,,,,,,,,,,,,,,,,,,,,,,,,,,,,,142.39546166908423,103.02147747318608,117.18662996333146,164.1172127476944,189.3790075531917,158.4680234870405,1.0,1.2,-230,11,0,-14,257,8,290.8215866088867,290.82162594795227,290.82391834259033,290.8362081050873,290.9864935874939,290.9864935874939,290.9864935874939,290.9864935874939,290.9864935874939,290.9864935874939,290.9864935874939,292.82091879844666,3,1.9675936698913574,None,,,,,,,,,,,,,,,,,,133,3,2025-02-26_15h50.30.095,comp,2024.2.4,60.79406307977737,2025-02-26 15h50.40.304846 -0500,
50,50,0,filler_random,None,None,None,None,None,None,None,None,None,None,1,2.2251079082489014,None,,,,,0,0,0,0,0,50,50,156,292.83622002601624,,,,,,,,,,,,,,,,,,,,,,,,,,,,,,,,,,,,,,,,,,,,,,,,,,,,,,,,,,,,,,,,,,,,,,,,,,,,,,,,,163.0436221648797,135.15069171458563,126.25258065013419,102.24323212239275,104.83346841216269,182.28795261272188,4.0,4.1,-215,-262,0,-12,238,-273,292.8218586444855,292.82189989089966,292.8242630958557,292.83622002601624,292.9864284992218,292.9864284992218,292.9864284992218,292.9864284992218,292.9864284992218,292.9864284992218,292.9864284992218,295.0708737373352,1,2.2251079082489014,None,,,,,,,,,,,,,,,,,,133,3,2025-02-26_15h50.30.095,comp,2024.2.4,60.79406307977737,2025-02-26 15h50.40.304846 -0500,
51,51,0,filler_square,None,None,None,None,None,None,None,None,None,None,2,1.88517165184021,None,,,,,0,0,0,0,0,51,51,170,295.0865662097931,,,,,,,,,,,,,,,,,,,,,,,,,,,,,,,,,,,,,,,,,,,,,,,,,,,,,,,,,,,,,,,,,,,,,,,,,,,,,,,,,75.14632516770169,74.61120834714335,76.95887143226896,76.95887143226896,70.4238088704576,59.4069015959698,2.2,2.22,-172,277,0,-285,164,-272,295.0718297958374,295.07187366485596,295.07394003868103,295.0865662097931,295.23635506629944,295.23635506629944,295.23635506629944,295.23635506629944,295.23635506629944,295.23635506629944,295.23635506629944,296.9873857498169,2,1.88517165184021,None,,,,,,,,,,,,,,,,,,133,3,2025-02-26_15h50.30.095,comp,2024.2.4,60.79406307977737,2025-02-26 15h50.40.304846 -0500,
52,52,0,critical,hdw,20.0,3.0,upper,200.0,125.0,141.0,141.0,125.0,200.0,3,5.809833288192749,None,,,,,0,0,0,0,0,52,52,117,297.0027997493744,,,,,,,,,,,,,,,,,,,,,,,,,,,,,,,,,,,,,,,,,,,,,,,,,,,,,,,,,,,,,,,,,,,,,,,,,,,,,,,,,200.0,125.0,141.0,141.0,125.0,200.0,3.0,3.1,-229,290,0,15,266,-268,296.9881920814514,296.988233089447,296.9908676147461,297.0027997493744,297.1532561779022,297.1532561779022,297.1532561779022,297.1532561779022,297.1532561779022,297.1532561779022,297.1532561779022,302.82096695899963,3,5.809833288192749,None,,,,,,,,,,,,,,,,,,133,3,2025-02-26_15h50.30.095,comp,2024.2.4,60.79406307977737,2025-02-26 15h50.40.304846 -0500,
53,53,0,critical,hdw,20.0,2.1,upper,200.0,125.0,141.0,141.0,125.0,200.0,3,5.616971492767334,None,,,,,0,0,0,0,0,53,53,23,302.83641362190247,,,,,,,,,,,,,,,,,,,,,,,,,,,,,,,,,,,,,,,,,,,,,,,,,,,,,,,,,,,,,,,,,,,,,,,,,,,,,,,,,200.0,125.0,141.0,141.0,125.0,200.0,2.1,2.12,-229,-281,0,-289,266,260,302.82177782058716,302.82182908058167,302.8241629600525,302.83641362190247,302.98653864860535,302.98653864860535,302.98653864860535,302.98653864860535,302.98653864860535,302.98653864860535,302.98653864860535,308.4709026813507,3,5.616971492767334,None,,,,,,,,,,,,,,,,,,133,3,2025-02-26_15h50.30.095,comp,2024.2.4,60.79406307977737,2025-02-26 15h50.40.304846 -0500,
54,54,0,critical,whd,35.0,2.1,lower,57.0,133.0,133.0,57.0,70.0,70.0,2,4.310476064682007,None,,,,,0,0,0,0,0,54,54,12,308.4861207008362,,,,,,,,,,,,,,,,,,,,,,,,,,,,,,,,,,,,,,,,,,,,,,,,,,,,,,,,,,,,,,,,,,,,,,,,,,,,,,,,,57.0,133.0,133.0,57.0,70.0,70.0,2.1,2.12,-191,-261,0,-286,160,273,308.4717011451721,308.47174310684204,308.47390365600586,308.4861207008362,308.6361677646637,308.6361677646637,308.6361677646637,308.6361677646637,308.6361677646637,308.6361677646637,308.6361677646637,312.80398869514465,2,4.310476064682007,None,,,,,,,,,,,,,,,,,,133,3,2025-02-26_15h50.30.095,comp,2024.2.4,60.79406307977737,2025-02-26 15h50.40.304846 -0500,
55,55,0,catch,None,None,None,None,None,None,None,None,None,None,3,2.2557923793792725,None,,,,,0,0,0,0,0,55,55,128,312.8196954727173,,,,,,,,,,,,,,,,,,,,,,,,,,,,,,,,,,,,,,,,,,,,,,,,,,,,,,,,,,,,,,,,,,,,,,,,,,,,,,,,,74,116,80,110,191,134,3.0,3.2,-209,-250,0,-6,218,274,312.80502939224243,312.80507040023804,312.8074297904968,312.8196954727173,312.9695327281952,312.9695327281952,312.9695327281952,312.9695327281952,312.9695327281952,312.9695327281952,312.9695327281952,315.0879330635071,3,2.2557923793792725,None,,,,,,,,,,,,,,,,,,133,3,2025-02-26_15h50.30.095,comp,2024.2.4,60.79406307977737,2025-02-26 15h50.40.304846 -0500,
56,56,0,critical,wdh,20.0,1.0,lower,57.0,133.0,78.0,78.0,133.0,57.0,1,11.199292421340942,None,,,,,0,0,0,0,0,56,56,78,315.1026978492737,,,,,,,,,,,,,,,,,,,,,,,,,,,,,,,,,,,,,,,,,,,,,,,,,,,,,,,,,,,,,,,,,,,,,,,,,,,,,,,,,57.0,133.0,78.0,78.0,133.0,57.0,1.0,1.2,-202,14,0,17,164,9,315.0887236595154,315.0887644290924,315.09129071235657,315.1026978492737,315.25288486480713,315.25288486480713,315.25288486480713,315.25288486480713,315.25288486480713,315.25288486480713,315.25288486480713,326.3041045665741,1,11.199292421340942,None,,,,,,,,,,,,,,,,,,133,3,2025-02-26_15h50.30.095,comp,2024.2.4,60.79406307977737,2025-02-26 15h50.40.304846 -0500,
57,57,0,catch,None,None,None,None,None,None,None,None,None,None,3,1.5085716247558594,None,,,,,0,0,0,0,0,57,57,121,326.3199429512024,,,,,,,,,,,,,,,,,,,,,,,,,,,,,,,,,,,,,,,,,,,,,,,,,,,,,,,,,,,,,,,,,,,,,,,,,,,,,,,,,104,86,96,94,159,166,3.0,3.2,-186,-275,0,16,226,290,326.3051371574402,326.30517864227295,326.30727887153625,326.3199429512024,326.4694221019745,326.4694221019745,326.4694221019745,326.4694221019745,326.4694221019745,326.4694221019745,326.4694221019745,327.8372390270233,3,1.5085716247558594,None,,,,,,,,,,,,,,,,,,133,3,2025-02-26_15h50.30.095,comp,2024.2.4,60.79406307977737,2025-02-26 15h50.40.304846 -0500,
58,58,0,filler_random,None,None,None,None,None,None,None,None,None,None,1,4.991942882537842,None,,,,,0,0,0,0,0,58,58,152,327.85296535491943,,,,,,,,,,,,,,,,,,,,,,,,,,,,,,,,,,,,,,,,,,,,,,,,,,,,,,,,,,,,,,,,,,,,,,,,,,,,,,,,,169.85390499028017,174.68116365724035,180.64044160061843,146.28690829333874,140.37408378281924,124.77742049429425,1.0,1.2,-256,7,0,19,232,18,327.83812284469604,327.83816504478455,327.8402578830719,327.85296535491943,328.003045797348,328.003045797348,328.003045797348,328.003045797348,328.003045797348,328.003045797348,328.003045797348,332.8540985584259,1,4.991942882537842,None,,,,,,,,,,,,,,,,,,133,3,2025-02-26_15h50.30.095,comp,2024.2.4,60.79406307977737,2025-02-26 15h50.40.304846 -0500,
59,59,0,filler_random,None,None,None,None,None,None,None,None,None,None,1,2.343076467514038,None,,,,,0,0,0,0,0,59,59,135,332.8695385456085,,,,,,,,,,,,,,,,,,,,,,,,,,,,,,,,,,,,,,,,,,,,,,,,,,,,,,,,,,,,,,,,,,,,,,,,,,,,,,,,,181.17733245464808,151.10063330236474,126.7763020300641,67.55737601665214,143.6576703006323,165.56617021124543,4.0,4.2,-205,-9,0,-268,213,-7,332.8549773693085,332.8550205230713,332.8574073314667,332.8695385456085,333.01966667175293,333.01966667175293,333.01966667175293,333.01966667175293,333.01966667175293,333.01966667175293,333.01966667175293,335.22065782546997,1,2.343076467514038,None,,,,,,,,,,,,,,,,,,133,3,2025-02-26_15h50.30.095,comp,2024.2.4,60.79406307977737,2025-02-26 15h50.40.304846 -0500,
60,60,0,critical,dhw,20.0,2.1,upper,141.0,141.0,200.0,125.0,125.0,200.0,3,2.7603135108947754,None,,,,,0,0,0,0,0,60,60,3,335.236093044281,,,,,,,,,,,,,,,,,,,,,,,,,,,,,,,,,,,,,,,,,,,,,,,,,,,,,,,,,,,,,,,,,,,,,,,,,,,,,,,,,141.0,141.0,200.0,125.0,125.0,200.0,2.1,2.11,-229,286,0,261,258,-252,335.2214615345001,335.22150230407715,335.2240514755249,335.236093044281,335.3861835002899,335.3861835002899,335.3861835002899,335.3861835002899,335.3861835002899,335.3861835002899,335.3861835002899,338.0040934085846,3,2.7603135108947754,None,,,,,,,,,,,,,,,,,,133,3,2025-02-26_15h50.30.095,comp,2024.2.4,60.79406307977737,2025-02-26 15h50.40.304846 -0500,
61,61,0,critical,wdh,35.0,1.0,upper,125.0,200.0,127.0,127.0,200.0,125.0,3,3.8557608127593994,None,,,,,0,0,0,0,0,61,61,73,338.0195894241333,,,,,,,,,,,,,,,,,,,,,,,,,,,,,,,,,,,,,,,,,,,,,,,,,,,,,,,,,,,,,,,,,,,,,,,,,,,,,,,,,125.0,200.0,127.0,127.0,200.0,125.0,1.0,1.3,220,-255,480,-264,702,-257,338.00492882728577,338.00496888160706,338.00705909729004,338.0195894241333,338.1697690486908,338.1697690486908,338.1697690486908,338.1697690486908,338.1697690486908,338.1697690486908,338.1697690486908,341.8873043060303,3,3.8557608127593994,None,,,,,,,,,,,,,,,,,,133,3,2025-02-26_15h50.30.095,comp,2024.2.4,60.79406307977737,2025-02-26 15h50.40.304846 -0500,
62,62,0,filler_square,None,None,None,None,None,None,None,None,None,None,2,2.15054988861084,None,,,,,0,0,0,0,0,62,62,178,341.9024701118469,,,,,,,,,,,,,,,,,,,,,,,,,,,,,,,,,,,,,,,,,,,,,,,,,,,,,,,,,,,,,,,,,,,,,,,,,,,,,,,,,85.1545022723131,110.13102804953758,144.83801533474343,144.83801533474343,105.89635912124987,112.86537758205179,4.0,4.1,-223,-274,0,6,225,-260,341.88822388648987,341.88826274871826,341.890652179718,341.9024701118469,342.05283761024475,342.05283761024475,342.05283761024475,342.05283761024475,342.05283761024475,342.05283761024475,342.05283761024475,344.07058119773865,2,2.15054988861084,None,,,,,,,,,,,,,,,,,,133,3,2025-02-26_15h50.30.095,comp,2024.2.4,60.79406307977737,2025-02-26 15h50.40.304846 -0500,
63,63,0,filler_square,None,None,None,None,None,None,None,None,None,None,2,1.6937990188598633,None,,,,,0,0,0,0,0,63,63,208,344.0864984989166,,,,,,,,,,,,,,,,,,,,,,,,,,,,,,,,,,,,,,,,,,,,,,,,,,,,,,,,,,,,,,,,,,,,,,,,,,,,,,,,,96.36316350655562,68.97640398234734,115.51626758094656,115.51626758094656,60.604567083967225,57.72715539784626,3.0,3.2,-188,-257,0,-19,183,273,344.0715432167053,344.0715844631195,344.0754351615906,344.0864984989166,344.23589158058167,344.23589158058167,344.23589158058167,344.23589158058167,344.23589158058167,344.23589158058167,344.23589158058167,345.787002325058,2,1.6937990188598633,None,,,,,,,,,,,,,,,,,,133,3,2025-02-26_15h50.30.095,comp,2024.2.4,60.79406307977737,2025-02-26 15h50.40.304846 -0500,
64,64,0,critical,hwd,20.0,4.0,upper,200.0,125.0,125.0,200.0,141.0,141.0,2,3.8989179134368896,None,,,,,0,0,0,0,0,64,64,107,345.8027732372284,,,,,,,,,,,,,,,,,,,,,,,,,,,,,,,,,,,,,,,,,,,,,,,,,,,,,,,,,,,,,,,,,,,,,,,,,,,,,,,,,200.0,125.0,125.0,200.0,141.0,141.0,4.0,4.1,-258,-258,0,19,266,-253,345.7877562046051,345.78779435157776,345.7901258468628,345.8027732372284,345.9527552127838,345.9527552127838,345.9527552127838,345.9527552127838,345.9527552127838,345.9527552127838,345.9527552127838,349.7042498588562,2,3.8989179134368896,None,,,,,,,,,,,,,,,,,,133,3,2025-02-26_15h50.30.095,comp,2024.2.4,60.79406307977737,2025-02-26 15h50.40.304846 -0500,
65,65,0,critical,dwh,35.0,2.1,lower,70.0,70.0,57.0,133.0,133.0,57.0,3,2.7499523162841797,None,,,,,0,0,0,0,0,65,65,28,349.71939396858215,,,,,,,,,,,,,,,,,,,,,,,,,,,,,,,,,,,,,,,,,,,,,,,,,,,,,,,,,,,,,,,,,,,,,,,,,,,,,,,,,70.0,70.0,57.0,133.0,133.0,57.0,2.1,2.11,-198,269,0,264,191,-278,349.7050714492798,349.70511269569397,349.7072823047638,349.71939396858215,349.86932134628296,349.86932134628296,349.86932134628296,349.86932134628296,349.86932134628296,349.86932134628296,349.86932134628296,352.48704743385315,3,2.7499523162841797,None,,,,,,,,,,,,,,,,,,133,3,2025-02-26_15h50.30.095,comp,2024.2.4,60.79406307977737,2025-02-26 15h50.40.304846 -0500,
66,66,0,critical,hdw,35.0,1.0,lower,133.0,57.0,70.0,70.0,57.0,133.0,1,2.2459018230438232,None,,,,,0,0,0,0,0,66,66,108,352.50249910354614,,,,,,,,,,,,,,,,,,,,,,,,,,,,,,,,,,,,,,,,,,,,,,,,,,,,,,,,,,,,,,,,,,,,,,,,,,,,,,,,,133.0,57.0,70.0,70.0,57.0,133.0,1.0,1.2,-160,-4,0,-5,198,-1,352.487832069397,352.48787355422974,352.4903054237366,352.50249910354614,352.6524772644043,352.6524772644043,352.6524772644043,352.6524772644043,352.6524772644043,352.6524772644043,352.6524772644043,354.75425815582275,1,2.2459018230438232,None,,,,,,,,,,,,,,,,,,133,3,2025-02-26_15h50.30.095,comp,2024.2.4,60.79406307977737,2025-02-26 15h50.40.304846 -0500,
67,67,0,critical,dhw,20.0,4.0,lower,78.0,78.0,133.0,57.0,57.0,133.0,2,2.148622989654541,None,,,,,0,0,0,0,0,67,67,58,354.76954984664917,,,,,,,,,,,,,,,,,,,,,,,,,,,,,,,,,,,,,,,,,,,,,,,,,,,,,,,,,,,,,,,,,,,,,,,,,,,,,,,,,78.0,78.0,133.0,57.0,57.0,133.0,4.0,4.2,-164,-12,0,-280,191,7,354.7550549507141,354.75509572029114,354.75706338882446,354.76954984664917,354.9193241596222,354.9193241596222,354.9193241596222,354.9193241596222,354.9193241596222,354.9193241596222,354.9193241596222,356.92084765434265,2,2.148622989654541,None,,,,,,,,,,,,,,,,,,133,3,2025-02-26_15h50.30.095,comp,2024.2.4,60.79406307977737,2025-02-26 15h50.40.304846 -0500,
68,68,0,filler_square,None,None,None,None,None,None,None,None,None,None,1,1.5971801280975342,None,,,,,0,0,0,0,0,68,68,187,356.9361665248871,,,,,,,,,,,,,,,,,,,,,,,,,,,,,,,,,,,,,,,,,,,,,,,,,,,,,,,,,,,,,,,,,,,,,,,,,,,,,,,,,167.4897142551139,167.4897142551139,71.85751702120712,72.32352391078197,133.7395588354081,65.83532425156442,2.2,2.22,-216,275,0,-285,165,-271,356.92180585861206,356.9218692779541,356.9240005016327,356.9361665248871,357.0859024524689,357.0859024524689,357.0859024524689,357.0859024524689,357.0859024524689,357.0859024524689,357.0859024524689,358.53709411621094,1,1.5971801280975342,None,,,,,,,,,,,,,,,,,,133,3,2025-02-26_15h50.30.095,comp,2024.2.4,60.79406307977737,2025-02-26 15h50.40.304846 -0500,
69,69,0,filler_square,None,None,None,None,None,None,None,None,None,None,2,4.868199110031128,None,,,,,0,0,0,0,0,69,69,181,358.55265855789185,,,,,,,,,,,,,,,,,,,,,,,,,,,,,,,,,,,,,,,,,,,,,,,,,,,,,,,,,,,,,,,,,,,,,,,,,,,,,,,,,97.54688270785721,77.7991178837591,97.6511332777539,97.6511332777539,61.50193011143513,64.69263372469145,4.0,4.1,-184,-257,0,1,177,-274,358.5380575656891,358.538099527359,358.54019832611084,358.55265855789185,358.70252561569214,358.70252561569214,358.70252561569214,358.70252561569214,358.70252561569214,358.70252561569214,358.70252561569214,363.43698024749756,2,4.868199110031128,None,,,,,,,,,,,,,,,,,,133,3,2025-02-26_15h50.30.095,comp,2024.2.4,60.79406307977737,2025-02-26 15h50.40.304846 -0500,
70,70,0,critical,dwh,35.0,3.0,upper,127.0,127.0,125.0,200.0,200.0,125.0,3,4.3757243156433105,None,,,,,0,0,0,0,0,70,70,63,363.4523878097534,,,,,,,,,,,,,,,,,,,,,,,,,,,,,,,,,,,,,,,,,,,,,,,,,,,,,,,,,,,,,,,,,,,,,,,,,,,,,,,,,127.0,127.0,125.0,200.0,200.0,125.0,3.0,3.1,-260,270,0,-5,258,-280,363.43776535987854,363.4378056526184,363.440137386322,363.4523878097534,363.6027076244354,363.6027076244354,363.6027076244354,363.6027076244354,363.6027076244354,363.6027076244354,363.6027076244354,367.83708596229553,3,4.3757243156433105,None,,,,,,,,,,,,,,,,,,133,3,2025-02-26_15h50.30.095,comp,2024.2.4,60.79406307977737,2025-02-26 15h50.40.304846 -0500,
71,71,0,critical,hdw,35.0,4.0,lower,133.0,57.0,70.0,70.0,57.0,133.0,1,5.265002965927124,None,,,,,0,0,0,0,0,71,71,112,367.8526191711426,,,,,,,,,,,,,,,,,,,,,,,,,,,,,,,,,,,,,,,,,,,,,,,,,,,,,,,,,,,,,,,,,,,,,,,,,,,,,,,,,133.0,57.0,70.0,70.0,57.0,133.0,4.0,4.1,-160,-279,0,-5,198,-275,367.8378858566284,367.8379259109497,367.84002566337585,367.8526191711426,368.00247406959534,368.00247406959534,368.00247406959534,368.00247406959534,368.00247406959534,368.00247406959534,368.00247406959534,373.12042021751404,1,5.265002965927124,None,,,,,,,,,,,,,,,,,,133,3,2025-02-26_15h50.30.095,comp,2024.2.4,60.79406307977737,2025-02-26 15h50.40.304846 -0500,
72,72,0,critical,dwh,20.0,3.0,lower,78.0,78.0,57.0,133.0,133.0,57.0,3,9.26725959777832,None,,,,,0,0,0,0,0,72,72,68,373.1359443664551,,,,,,,,,,,,,,,,,,,,,,,,,,,,,,,,,,,,,,,,,,,,,,,,,,,,,,,,,,,,,,,,,,,,,,,,,,,,,,,,,78.0,78.0,57.0,133.0,133.0,57.0,3.0,3.2,-202,-282,0,-19,191,281,373.12117433547974,373.121214389801,373.12325716018677,373.1359443664551,373.28583812713623,373.28583812713623,373.28583812713623,373.28583812713623,373.28583812713623,373.28583812713623,373.28583812713623,382.42009139060974,3,9.26725959777832,None,,,,,,,,,,,,,,,,,,133,3,2025-02-26_15h50.30.095,comp,2024.2.4,60.79406307977737,2025-02-26 15h50.40.304846 -0500,
73,73,0,critical,wdh,35.0,2.1,lower,57.0,133.0,70.0,70.0,133.0,57.0,3,4.976513624191284,None,,,,,0,0,0,0,0,73,73,8,382.4355776309967,,,,,,,,,,,,,,,,,,,,,,,,,,,,,,,,,,,,,,,,,,,,,,,,,,,,,,,,,,,,,,,,,,,,,,,,,,,,,,,,,57.0,133.0,70.0,70.0,133.0,57.0,2.1,2.11,-198,262,0,289,160,-275,382.42090678215027,382.4209473133087,382.4233090877533,382.4355776309967,382.5857892036438,382.5857892036438,382.5857892036438,382.5857892036438,382.5857892036438,382.5857892036438,382.5857892036438,387.42029309272766,3,4.976513624191284,None,,,,,,,,,,,,,,,,,,133,3,2025-02-26_15h50.30.095,comp,2024.2.4,60.79406307977737,2025-02-26 15h50.40.304846 -0500,
74,74,0,critical,wdh,20.0,2.1,upper,125.0,200.0,141.0,141.0,200.0,125.0,1,4.167444944381714,None,,,,,0,0,0,0,0,74,74,11,387.4357533454895,,,,,,,,,,,,,,,,,,,,,,,,,,,,,,,,,,,,,,,,,,,,,,,,,,,,,,,,,,,,,,,,,,,,,,,,,,,,,,,,,125.0,200.0,141.0,141.0,200.0,125.0,2.1,2.11,-266,287,0,260,229,-267,387.42111825942993,387.4211585521698,387.42362427711487,387.4357533454895,387.58591079711914,387.58591079711914,387.58591079711914,387.58591079711914,387.58591079711914,387.58591079711914,387.58591079711914,391.6203045845032,1,4.167444944381714,None,,,,,,,,,,,,,,,,,,133,3,2025-02-26_15h50.30.095,comp,2024.2.4,60.79406307977737,2025-02-26 15h50.40.304846 -0500,
75,75,0,critical,whd,35.0,3.0,upper,125.0,200.0,200.0,125.0,127.0,127.0,1,6.871562480926514,None,,,,,0,0,0,0,0,75,75,87,391.63549542427063,,,,,,,,,,,,,,,,,,,,,,,,,,,,,,,,,,,,,,,,,,,,,,,,,,,,,,,,,,,,,,,,,,,,,,,,,,,,,,,,,125.0,200.0,200.0,125.0,127.0,127.0,3.0,3.2,-258,-270,0,10,222,283,391.62109112739563,391.62113213539124,391.6235477924347,391.63549542427063,391.7858507633209,391.7858507633209,391.7858507633209,391.7858507633209,391.7858507633209,391.7858507633209,391.7858507633209,398.52023458480835,1,6.871562480926514,None,,,,,,,,,,,,,,,,,,133,3,2025-02-26_15h50.30.095,comp,2024.2.4,60.79406307977737,2025-02-26 15h50.40.304846 -0500,
76,76,0,filler_random,None,None,None,None,None,None,None,None,None,None,3,10.908948183059692,None,,,,,0,0,0,0,0,76,76,161,398.53548407554626,,,,,,,,,,,,,,,,,,,,,,,,,,,,,,,,,,,,,,,,,,,,,,,,,,,,,,,,,,,,,,,,,,,,,,,,,,,,,,,,,71.67220540976824,142.27688211785878,83.13770439652629,192.26175570299495,137.22806195631648,141.8662223019401,1.0,1.2,-263,16,0,-4,263,6,398.52113461494446,398.52117466926575,398.52359080314636,398.53548407554626,398.68575954437256,398.68575954437256,398.68575954437256,398.68575954437256,398.68575954437256,398.68575954437256,398.68575954437256,409.4535870552063,3,10.908948183059692,None,,,,,,,,,,,,,,,,,,133,3,2025-02-26_15h50.30.095,comp,2024.2.4,60.79406307977737,2025-02-26 15h50.40.304846 -0500,
77,77,0,critical,dhw,20.0,2.1,lower,78.0,78.0,133.0,57.0,57.0,133.0,3,2.805752992630005,None,,,,,0,0,0,0,0,77,77,2,409.46909952163696,,,,,,,,,,,,,,,,,,,,,,,,,,,,,,,,,,,,,,,,,,,,,,,,,,,,,,,,,,,,,,,,,,,,,,,,,,,,,,,,,78.0,78.0,133.0,57.0,57.0,133.0,2.1,2.11,-164,273,0,289,191,-259,409.4543900489807,409.4544322490692,409.45691680908203,409.46909952163696,409.6188733577728,409.6188733577728,409.6188733577728,409.6188733577728,409.6188733577728,409.6188733577728,409.6188733577728,412.2869703769684,3,2.805752992630005,None,,,,,,,,,,,,,,,,,,133,3,2025-02-26_15h50.30.095,comp,2024.2.4,60.79406307977737,2025-02-26 15h50.40.304846 -0500,
78,78,0,filler_square,None,None,None,None,None,None,None,None,None,None,2,2.8215572834014893,None,,,,,0,0,0,0,0,78,78,179,412.3020746707916,,,,,,,,,,,,,,,,,,,,,,,,,,,,,,,,,,,,,,,,,,,,,,,,,,,,,,,,,,,,,,,,,,,,,,,,,,,,,,,,,59.31346274645149,58.45385181286047,59.79635549813678,59.79635549813678,59.34718622017876,59.71356241855793,4.0,4.2,-155,8,0,-281,156,2,412.2879168987274,412.2879557609558,412.2900037765503,412.3020746707916,412.4521644115448,412.4521644115448,412.4521644115448,412.4521644115448,412.4521644115448,412.4521644115448,412.4521644115448,415.13653111457825,2,2.8215572834014893,None,,,,,,,,,,,,,,,,,,133,3,2025-02-26_15h50.30.095,comp,2024.2.4,60.79406307977737,2025-02-26 15h50.40.304846 -0500,
79,79,0,filler_square,None,None,None,None,None,None,None,None,None,None,1,3.1491308212280273,None,,,,,0,0,0,0,0,79,79,184,415.152010679245,,,,,,,,,,,,,,,,,,,,,,,,,,,,,,,,,,,,,,,,,,,,,,,,,,,,,,,,,,,,,,,,,,,,,,,,,,,,,,,,,103.8666041015282,103.8666041015282,63.08262902199991,99.00036592555489,82.24838780791326,72.15482355849697,3.0,3.2,-197,-257,0,7,182,288,415.137446641922,415.1374878883362,415.1400566101074,415.152010679245,415.30223846435547,415.30223846435547,415.30223846435547,415.30223846435547,415.30223846435547,415.30223846435547,415.30223846435547,418.30338644981384,1,3.1491308212280273,None,,,,,,,,,,,,,,,,,,133,3,2025-02-26_15h50.30.095,comp,2024.2.4,60.79406307977737,2025-02-26 15h50.40.304846 -0500,
80,80,0,critical,hdw,20.0,3.0,lower,133.0,57.0,78.0,78.0,57.0,133.0,3,6.3981781005859375,None,,,,,0,0,0,0,0,80,80,116,418.3189182281494,,,,,,,,,,,,,,,,,,,,,,,,,,,,,,,,,,,,,,,,,,,,,,,,,,,,,,,,,,,,,,,,,,,,,,,,,,,,,,,,,133.0,57.0,78.0,78.0,57.0,133.0,3.0,3.1,-164,283,0,15,202,-274,418.3041822910309,418.3042242527008,418.30659103393555,418.3189182281494,418.4687979221344,418.4687979221344,418.4687979221344,418.4687979221344,418.4687979221344,418.4687979221344,418.4687979221344,424.7201657295227,3,6.3981781005859375,None,,,,,,,,,,,,,,,,,,133,3,2025-02-26_15h50.30.095,comp,2024.2.4,60.79406307977737,2025-02-26 15h50.40.304846 -0500,
81,81,0,filler_square,None,None,None,None,None,None,None,None,None,None,3,2.1244115829467773,None,,,,,0,0,0,0,0,81,81,193,424.7356176376343,,,,,,,,,,,,,,,,,,,,,,,,,,,,,,,,,,,,,,,,,,,,,,,,,,,,,,,,,,,,,,,,,,,,,,,,,,,,,,,,,67.87253445413666,62.40483987313856,57.360249302751946,67.80861069688768,70.37947269739914,70.37947269739914,4.0,4.2,-161,-13,0,-266,165,8,424.7211117744446,424.72115182876587,424.7234933376312,424.7356176376343,424.88580203056335,424.88580203056335,424.88580203056335,424.88580203056335,424.88580203056335,424.88580203056335,424.88580203056335,426.86992931365967,3,2.1244115829467773,None,,,,,,,,,,,,,,,,,,133,3,2025-02-26_15h50.30.095,comp,2024.2.4,60.79406307977737,2025-02-26 15h50.40.304846 -0500,
82,82,0,critical,hwd,20.0,1.0,upper,200.0,125.0,125.0,200.0,141.0,141.0,1,4.55887246131897,None,,,,,0,0,0,0,0,82,82,103,426.88559103012085,,,,,,,,,,,,,,,,,,,,,,,,,,,,,,,,,,,,,,,,,,,,,,,,,,,,,,,,,,,,,,,,,,,,,,,,,,,,,,,,,200.0,125.0,125.0,200.0,141.0,141.0,1.0,1.1,-738,273,-480,258,-214,286,426.87073826789856,426.8707802295685,426.8728816509247,426.88559103012085,427.03579235076904,427.03579235076904,427.03579235076904,427.03579235076904,427.03579235076904,427.03579235076904,427.03579235076904,431.4535973072052,1,4.55887246131897,None,,,,,,,,,,,,,,,,,,133,3,2025-02-26_15h50.30.095,comp,2024.2.4,60.79406307977737,2025-02-26 15h50.40.304846 -0500,
83,83,0,critical,dhw,20.0,1.0,lower,78.0,78.0,133.0,57.0,57.0,133.0,3,2.733879804611206,None,,,,,0,0,0,0,0,83,83,54,431.46898078918457,,,,,,,,,,,,,,,,,,,,,,,,,,,,,,,,,,,,,,,,,,,,,,,,,,,,,,,,,,,,,,,,,,,,,,,,,,,,,,,,,78.0,78.0,133.0,57.0,57.0,133.0,1.0,1.3,316,-281,480,-253,671,-282,431.4544048309326,431.45444560050964,431.4569556713104,431.46898078918457,431.6187701225281,431.6187701225281,431.6187701225281,431.6187701225281,431.6187701225281,431.6187701225281,431.6187701225281,434.2197051048279,3,2.733879804611206,None,,,,,,,,,,,,,,,,,,133,3,2025-02-26_15h50.30.095,comp,2024.2.4,60.79406307977737,2025-02-26 15h50.40.304846 -0500,
84,84,0,critical,hwd,20.0,3.0,upper,200.0,125.0,125.0,200.0,141.0,141.0,2,3.2337727546691895,None,,,,,0,0,0,0,0,84,84,105,434.23525047302246,,,,,,,,,,,,,,,,,,,,,,,,,,,,,,,,,,,,,,,,,,,,,,,,,,,,,,,,,,,,,,,,,,,,,,,,,,,,,,,,,200.0,125.0,125.0,200.0,141.0,141.0,3.0,3.1,-258,268,0,18,266,-263,434.22062158584595,434.2206621170044,434.22297525405884,434.23525047302246,434.3856472969055,434.3856472969055,434.3856472969055,434.3856472969055,434.3856472969055,434.3856472969055,434.3856472969055,437.48666310310364,2,3.2337727546691895,None,,,,,,,,,,,,,,,,,,133,3,2025-02-26_15h50.30.095,comp,2024.2.4,60.79406307977737,2025-02-26 15h50.40.304846 -0500,
85,85,0,critical,dhw,35.0,3.0,upper,127.0,127.0,200.0,125.0,125.0,200.0,2,3.484910249710083,None,,,,,0,0,0,0,0,85,85,51,437.50189232826233,,,,,,,,,,,,,,,,,,,,,,,,,,,,,,,,,,,,,,,,,,,,,,,,,,,,,,,,,,,,,,,,,,,,,,,,,,,,,,,,,127.0,127.0,200.0,125.0,125.0,200.0,3.0,3.2,-222,-265,0,-7,258,272,437.48742628097534,437.4874658584595,437.49003076553345,437.50189232826233,437.652272939682,437.652272939682,437.652272939682,437.652272939682,437.652272939682,437.652272939682,437.652272939682,441.00331377983093,2,3.484910249710083,None,,,,,,,,,,,,,,,,,,133,3,2025-02-26_15h50.30.095,comp,2024.2.4,60.79406307977737,2025-02-26 15h50.40.304846 -0500,
86,86,0,filler_square,None,None,None,None,None,None,None,None,None,None,3,2.40897274017334,None,,,,,0,0,0,0,0,86,86,188,441.01863861083984,,,,,,,,,,,,,,,,,,,,,,,,,,,,,,,,,,,,,,,,,,,,,,,,,,,,,,,,,,,,,,,,,,,,,,,,,,,,,,,,,97.2214710930748,64.2032091497812,102.48171198680197,76.93254650018058,106.58957248198803,106.58957248198803,1.0,1.3,313,-288,480,-268,668,-265,441.00427985191345,441.0043203830719,441.00673151016235,441.01863861083984,441.1687295436859,441.1687295436859,441.1687295436859,441.1687295436859,441.1687295436859,441.1687295436859,441.1687295436859,443.43644976615906,3,2.40897274017334,None,,,,,,,,,,,,,,,,,,133,3,2025-02-26_15h50.30.095,comp,2024.2.4,60.79406307977737,2025-02-26 15h50.40.304846 -0500,
87,87,0,critical,whd,35.0,1.0,upper,125.0,200.0,200.0,125.0,127.0,127.0,2,2.9434359073638916,None,,,,,0,0,0,0,0,87,87,85,443.45219326019287,,,,,,,,,,,,,,,,,,,,,,,,,,,,,,,,,,,,,,,,,,,,,,,,,,,,,,,,,,,,,,,,,,,,,,,,,,,,,,,,,125.0,200.0,200.0,125.0,127.0,127.0,1.0,1.1,-738,265,-480,281,-258,276,443.43726444244385,443.43730545043945,443.43971705436707,443.45219326019287,443.60212755203247,443.60212755203247,443.60212755203247,443.60212755203247,443.60212755203247,443.60212755203247,443.60212755203247,446.40318846702576,2,2.9434359073638916,None,,,,,,,,,,,,,,,,,,133,3,2025-02-26_15h50.30.095,comp,2024.2.4,60.79406307977737,2025-02-26 15h50.40.304846 -0500,
88,88,0,filler_square,None,None,None,None,None,None,None,None,None,None,3,2.487898588180542,None,,,,,0,0,0,0,0,88,88,186,446.41877841949463,,,,,,,,,,,,,,,,,,,,,,,,,,,,,,,,,,,,,,,,,,,,,,,,,,,,,,,,,,,,,,,,,,,,,,,,,,,,,,,,,97.41333257681293,61.613456539858454,96.06877707921002,63.188311932422465,116.85067225650317,116.85067225650317,1.0,1.2,-158,-18,0,3,186,-18,446.4041588306427,446.40419936180115,446.4066381454468,446.41877841949463,446.5685977935791,446.5685977935791,446.5685977935791,446.5685977935791,446.5685977935791,446.5685977935791,446.5685977935791,448.9196846485138,3,2.487898588180542,None,,,,,,,,,,,,,,,,,,133,3,2025-02-26_15h50.30.095,comp,2024.2.4,60.79406307977737,2025-02-26 15h50.40.304846 -0500,
89,89,0,critical,whd,20.0,1.0,upper,125.0,200.0,200.0,125.0,141.0,141.0,2,6.700808525085449,None,,,,,0,0,0,0,0,89,89,91,448.9351170063019,,,,,,,,,,,,,,,,,,,,,,,,,,,,,,,,,,,,,,,,,,,,,,,,,,,,,,,,,,,,,,,,,,,,,,,,,,,,,,,,,125.0,200.0,200.0,125.0,141.0,141.0,1.0,1.2,-258,10,0,12,229,-5,448.92047905921936,448.9205205440521,448.9231185913086,448.9351170063019,449.08539056777954,449.08539056777954,449.08539056777954,449.08539056777954,449.08539056777954,449.08539056777954,449.08539056777954,455.6533308029175,2,6.700808525085449,None,,,,,,,,,,,,,,,,,,133,3,2025-02-26_15h50.30.095,comp,2024.2.4,60.79406307977737,2025-02-26 15h50.40.304846 -0500,
90,90,0,filler_square,None,None,None,None,None,None,None,None,None,None,2,2.0168166160583496,None,,,,,0,0,0,0,0,90,90,175,455.66855549812317,,,,,,,,,,,,,,,,,,,,,,,,,,,,,,,,,,,,,,,,,,,,,,,,,,,,,,,,,,,,,,,,,,,,,,,,,,,,,,,,,91.70020100156992,111.91040643573635,174.90315787626292,174.90315787626292,141.21899421057054,58.766605350229376,1.0,1.1,-719,275,-480,267,-267,254,455.6543138027191,455.6543560028076,455.6567487716675,455.66855549812317,455.8185784816742,455.8185784816742,455.8185784816742,455.8185784816742,455.8185784816742,455.8185784816742,455.8185784816742,457.70313000679016,2,2.0168166160583496,None,,,,,,,,,,,,,,,,,,133,3,2025-02-26_15h50.30.095,comp,2024.2.4,60.79406307977737,2025-02-26 15h50.40.304846 -0500,
91,91,0,critical,whd,20.0,2.1,lower,57.0,133.0,133.0,57.0,78.0,78.0,2,3.8048949241638184,None,,,,,0,0,0,0,0,91,91,38,457.71840929985046,,,,,,,,,,,,,,,,,,,,,,,,,,,,,,,,,,,,,,,,,,,,,,,,,,,,,,,,,,,,,,,,,,,,,,,,,,,,,,,,,57.0,133.0,133.0,57.0,78.0,78.0,2.1,2.12,-191,-289,0,-280,164,260,457.70394372940063,457.7039842605591,457.7063670158386,457.71840929985046,457.8685302734375,457.8685302734375,457.8685302734375,457.8685302734375,457.8685302734375,457.8685302734375,457.8685302734375,461.5368826389313,2,3.8048949241638184,None,,,,,,,,,,,,,,,,,,133,3,2025-02-26_15h50.30.095,comp,2024.2.4,60.79406307977737,2025-02-26 15h50.40.304846 -0500,
92,92,0,critical,dhw,35.0,2.1,lower,70.0,70.0,133.0,57.0,57.0,133.0,3,3.0672991275787354,None,,,,,0,0,0,0,0,92,92,24,461.551730632782,,,,,,,,,,,,,,,,,,,,,,,,,,,,,,,,,,,,,,,,,,,,,,,,,,,,,,,,,,,,,,,,,,,,,,,,,,,,,,,,,70.0,70.0,133.0,57.0,57.0,133.0,2.1,2.12,-160,-273,0,-265,191,274,461.5376696586609,461.537709236145,461.5402047634125,461.551730632782,461.7018029689789,461.7018029689789,461.7018029689789,461.7018029689789,461.7018029689789,461.7018029689789,461.7018029689789,464.6362907886505,3,3.0672991275787354,None,,,,,,,,,,,,,,,,,,133,3,2025-02-26_15h50.30.095,comp,2024.2.4,60.79406307977737,2025-02-26 15h50.40.304846 -0500,
93,93,0,filler_random,None,None,None,None,None,None,None,None,None,None,2,2.0081593990325928,None,,,,,0,0,0,0,0,93,93,141,464.65166664123535,,,,,,,,,,,,,,,,,,,,,,,,,,,,,,,,,,,,,,,,,,,,,,,,,,,,,,,,,,,,,,,,,,,,,,,,,,,,,,,,,105.12663208192085,75.90170374736851,177.03620993961925,108.0708012942895,93.06847206779466,144.11699536524975,2.1,2.12,-188,-289,0,-263,222,255,464.6371443271637,464.63718461990356,464.6395661830902,464.65166664123535,464.80191373825073,464.80191373825073,464.80191373825073,464.80191373825073,464.80191373825073,464.80191373825073,464.80191373825073,466.6696934700012,2,2.0081593990325928,None,,,,,,,,,,,,,,,,,,133,3,2025-02-26_15h50.30.095,comp,2024.2.4,60.79406307977737,2025-02-26 15h50.40.304846 -0500,
94,94,0,critical,dhw,35.0,4.0,upper,127.0,127.0,200.0,125.0,125.0,200.0,3,3.501357078552246,None,,,,,0,0,0,0,0,94,94,53,466.6852660179138,,,,,,,,,,,,,,,,,,,,,,,,,,,,,,,,,,,,,,,,,,,,,,,,,,,,,,,,,,,,,,,,,,,,,,,,,,,,,,,,,127.0,127.0,200.0,125.0,125.0,200.0,4.0,4.1,-222,-255,0,-7,258,-256,466.6705937385559,466.6706352233887,466.67316341400146,466.6852660179138,466.83537554740906,466.83537554740906,466.83537554740906,466.83537554740906,466.83537554740906,466.83537554740906,466.83537554740906,470.20313715934753,3,3.501357078552246,None,,,,,,,,,,,,,,,,,,133,3,2025-02-26_15h50.30.095,comp,2024.2.4,60.79406307977737,2025-02-26 15h50.40.304846 -0500,
95,95,0,catch,None,None,None,None,None,None,None,None,None,None,2,1.514291524887085,None,,,,,0,0,0,0,0,95,95,122,470.2183530330658,,,,,,,,,,,,,,,,,,,,,,,,,,,,,,,,,,,,,,,,,,,,,,,,,,,,,,,,,,,,,,,,,,,,,,,,,,,,,,,,,69,121,179,146,117,73,4.0,4.2,-230,-7,0,-283,206,-14,470.2041709423065,470.2042121887207,470.2065613269806,470.2183530330658,470.36858773231506,470.36858773231506,470.36858773231506,470.36858773231506,470.36858773231506,470.36858773231506,470.36858773231506,471.73645067214966,2,1.514291524887085,None,,,,,,,,,,,,,,,,,,133,3,2025-02-26_15h50.30.095,comp,2024.2.4,60.79406307977737,2025-02-26 15h50.40.304846 -0500,
96,96,0,filler_square,None,None,None,None,None,None,None,None,None,None,1,1.6913273334503174,None,,,,,0,0,0,0,0,96,96,173,471.75213503837585,,,,,,,,,,,,,,,,,,,,,,,,,,,,,,,,,,,,,,,,,,,,,,,,,,,,,,,,,,,,,,,,,,,,,,,,,,,,,,,,,96.91449256896564,96.91449256896564,72.02013445941772,86.15483836163884,62.75052200360143,61.21503693178205,4.0,4.2,-188,2,0,-278,170,3,471.7373757362366,471.73741579055786,471.7397508621216,471.75213503837585,471.9018566608429,471.9018566608429,471.9018566608429,471.9018566608429,471.9018566608429,471.9018566608429,471.9018566608429,473.4527442455292,1,1.6913273334503174,None,,,,,,,,,,,,,,,,,,133,3,2025-02-26_15h50.30.095,comp,2024.2.4,60.79406307977737,2025-02-26 15h50.40.304846 -0500,
97,97,0,critical,dwh,20.0,1.0,upper,141.0,141.0,125.0,200.0,200.0,125.0,2,3.183387279510498,None,,,,,0,0,0,0,0,97,97,67,473.4688332080841,,,,,,,,,,,,,,,,,,,,,,,,,,,,,,,,,,,,,,,,,,,,,,,,,,,,,,,,,,,,,,,,,,,,,,,,,,,,,,,,,141.0,141.0,125.0,200.0,200.0,125.0,1.0,1.3,214,-286,480,-268,738,-289,473.45353174209595,473.4535708427429,473.4554967880249,473.4688332080841,473.61876153945923,473.61876153945923,473.61876153945923,473.61876153945923,473.61876153945923,473.61876153945923,473.61876153945923,476.66975355148315,2,3.183387279510498,None,,,,,,,,,,,,,,,,,,133,3,2025-02-26_15h50.30.095,comp,2024.2.4,60.79406307977737,2025-02-26 15h50.40.304846 -0500,
98,98,0,critical,dhw,20.0,2.1,upper,141.0,141.0,200.0,125.0,125.0,200.0,3,1.9422898292541504,None,,,,,0,0,0,0,0,98,98,27,476.6850230693817,,,,,,,,,,,,,,,,,,,,,,,,,,,,,,,,,,,,,,,,,,,,,,,,,,,,,,,,,,,,,,,,,,,,,,,,,,,,,,,,,141.0,141.0,200.0,125.0,125.0,200.0,2.1,2.12,-229,-255,0,-273,258,281,476.67053985595703,476.67057847976685,476.6726293563843,476.6850230693817,476.8353157043457,476.8353157043457,476.8353157043457,476.8353157043457,476.8353157043457,476.8353157043457,476.8353157043457,478.63641262054443,3,1.9422898292541504,None,,,,,,,,,,,,,,,,,,133,3,2025-02-26_15h50.30.095,comp,2024.2.4,60.79406307977737,2025-02-26 15h50.40.304846 -0500,
99,99,0,filler_square,None,None,None,None,None,None,None,None,None,None,1,1.6333584785461426,None,,,,,0,0,0,0,0,99,99,191,478.65188550949097,,,,,,,,,,,,,,,,,,,,,,,,,,,,,,,,,,,,,,,,,,,,,,,,,,,,,,,,,,,,,,,,,,,,,,,,,,,,,,,,,96.4695756034111,96.4695756034111,74.77168709686372,64.92827128409404,76.59455429732849,61.03128402482766,3.0,3.1,-177,257,0,6,159,-251,478.63772463798523,478.6377694606781,478.63987851142883,478.65188550949097,478.80174112319946,478.80174112319946,478.80174112319946,478.80174112319946,478.80174112319946,478.80174112319946,478.80174112319946,480.30304193496704,1,1.6333584785461426,None,,,,,,,,,,,,,,,,,,133,3,2025-02-26_15h50.30.095,comp,2024.2.4,60.79406307977737,2025-02-26 15h50.40.304846 -0500,
100,100,0,filler_square,None,None,None,None,None,None,None,None,None,None,3,2.861146926879883,None,,,,,0,0,0,0,0,100,100,197,480.31828594207764,,,,,,,,,,,,,,,,,,,,,,,,,,,,,,,,,,,,,,,,,,,,,,,,,,,,,,,,,,,,,,,,,,,,,,,,,,,,,,,,,62.62542963441619,62.97321927933706,58.894775705315574,58.19013281770064,66.22882279627451,66.22882279627451,2.1,2.11,-157,281,0,273,158,-258,480.30398654937744,480.30402874946594,480.30638098716736,480.31828594207764,480.46831607818604,480.46831607818604,480.46831607818604,480.46831607818604,480.46831607818604,480.46831607818604,480.46831607818604,483.1860599517822,3,2.861146926879883,None,,,,,,,,,,,,,,,,,,133,3,2025-02-26_15h50.30.095,comp,2024.2.4,60.79406307977737,2025-02-26 15h50.40.304846 -0500,
101,101,0,critical,hwd,20.0,2.1,upper,200.0,125.0,125.0,200.0,141.0,141.0,2,2.9454402923583984,None,,,,,0,0,0,0,0,101,101,43,483.20188450813293,,,,,,,,,,,,,,,,,,,,,,,,,,,,,,,,,,,,,,,,,,,,,,,,,,,,,,,,,,,,,,,,,,,,,,,,,,,,,,,,,200.0,125.0,125.0,200.0,141.0,141.0,2.1,2.11,-258,259,0,262,266,-273,483.1868197917938,483.1868612766266,483.1892054080963,483.20188450813293,483.35205149650574,483.35205149650574,483.35205149650574,483.35205149650574,483.35205149650574,483.35205149650574,483.35205149650574,486.153067111969,2,2.9454402923583984,None,,,,,,,,,,,,,,,,,,133,3,2025-02-26_15h50.30.095,comp,2024.2.4,60.79406307977737,2025-02-26 15h50.40.304846 -0500,
102,102,0,critical,dhw,35.0,1.0,upper,127.0,127.0,200.0,125.0,125.0,200.0,2,1.9378407001495361,None,,,,,0,0,0,0,0,102,102,49,486.16865634918213,,,,,,,,,,,,,,,,,,,,,,,,,,,,,,,,,,,,,,,,,,,,,,,,,,,,,,,,,,,,,,,,,,,,,,,,,,,,,,,,,127.0,127.0,200.0,125.0,125.0,200.0,1.0,1.1,-702,281,-480,286,-222,279,486.1538529396057,486.1538953781128,486.1559588909149,486.16865634918213,486.31860423088074,486.31860423088074,486.31860423088074,486.31860423088074,486.31860423088074,486.31860423088074,486.31860423088074,488.1197340488434,2,1.9378407001495361,None,,,,,,,,,,,,,,,,,,133,3,2025-02-26_15h50.30.095,comp,2024.2.4,60.79406307977737,2025-02-26 15h50.40.304846 -0500,
103,103,0,filler_square,None,None,None,None,None,None,None,None,None,None,2,1.5003273487091064,None,,,,,0,0,0,0,0,103,103,200,488.13483929634094,,,,,,,,,,,,,,,,,,,,,,,,,,,,,,,,,,,,,,,,,,,,,,,,,,,,,,,,,,,,,,,,,,,,,,,,,,,,,,,,,57.2680354813141,60.05344991130279,67.86859729087965,67.86859729087965,58.10317208819117,66.29016666538261,2.1,2.12,-160,-256,0,-271,163,287,488.1206669807434,488.1207067966461,488.1232554912567,488.13483929634094,488.2850031852722,488.2850031852722,488.2850031852722,488.2850031852722,488.2850031852722,488.2850031852722,488.2850031852722,489.6363751888275,2,1.5003273487091064,None,,,,,,,,,,,,,,,,,,133,3,2025-02-26_15h50.30.095,comp,2024.2.4,60.79406307977737,2025-02-26 15h50.40.304846 -0500,
104,104,0,filler_random,None,None,None,None,None,None,None,None,None,None,2,1.6225616931915283,None,,,,,0,0,0,0,0,104,104,169,489.65183687210083,,,,,,,,,,,,,,,,,,,,,,,,,,,,,,,,,,,,,,,,,,,,,,,,,,,,,,,,,,,,,,,,,,,,,,,,,,,,,,,,,68.24037250499242,152.86194245313905,194.59724538821288,190.9073257119166,169.3960435355275,82.65304476082639,3.0,3.2,-268,-279,0,1,233,261,489.63726258277893,489.6373040676117,489.6396861076355,489.65183687210083,489.8018014431,489.8018014431,489.8018014431,489.8018014431,489.8018014431,489.8018014431,489.8018014431,491.286328792572,2,1.6225616931915283,None,,,,,,,,,,,,,,,,,,133,3,2025-02-26_15h50.30.095,comp,2024.2.4,60.79406307977737,2025-02-26 15h50.40.304846 -0500,
105,105,0,critical,wdh,35.0,2.1,lower,57.0,133.0,70.0,70.0,133.0,57.0,1,3.884840250015259,None,,,,,0,0,0,0,0,105,105,32,491.3016085624695,,,,,,,,,,,,,,,,,,,,,,,,,,,,,,,,,,,,,,,,,,,,,,,,,,,,,,,,,,,,,,,,,,,,,,,,,,,,,,,,,57.0,133.0,70.0,70.0,133.0,57.0,2.1,2.12,-198,-264,0,-273,160,258,491.28725147247314,491.28729462623596,491.28930854797363,491.3016085624695,491.45174384117126,491.45174384117126,491.45174384117126,491.45174384117126,491.45174384117126,491.45174384117126,491.45174384117126,495.20271039009094,1,3.884840250015259,None,,,,,,,,,,,,,,,,,,133,3,2025-02-26_15h50.30.095,comp,2024.2.4,60.79406307977737,2025-02-26 15h50.40.304846 -0500,
106,106,0,catch,None,None,None,None,None,None,None,None,None,None,2,1.44130539894104,None,,,,,0,0,0,0,0,106,106,127,495.2182035446167,,,,,,,,,,,,,,,,,,,,,,,,,,,,,,,,,,,,,,,,,,,,,,,,,,,,,,,,,,,,,,,,,,,,,,,,,,,,,,,,,61,129,178,147,106,84,1.0,1.3,246,-257,480,-282,692,-269,495.20374274253845,495.2037823200226,495.2058389186859,495.2182035446167,495.3683376312256,495.3683376312256,495.3683376312256,495.3683376312256,495.3683376312256,495.3683376312256,495.3683376312256,496.66944456100464,2,1.44130539894104,None,,,,,,,,,,,,,,,,,,133,3,2025-02-26_15h50.30.095,comp,2024.2.4,60.79406307977737,2025-02-26 15h50.40.304846 -0500,
107,107,0,filler_random,None,None,None,None,None,None,None,None,None,None,1,2.926400661468506,None,,,,,0,0,0,0,0,107,107,137,496.6849744319916,,,,,,,,,,,,,,,,,,,,,,,,,,,,,,,,,,,,,,,,,,,,,,,,,,,,,,,,,,,,,,,,,,,,,,,,,,,,,,,,,133.88364833709446,115.03616188552064,81.20134249006324,83.99359620271235,127.0132628575509,98.31725230317488,1.0,1.2,-196,-9,0,14,187,10,496.670352935791,496.6703944206238,496.67293882369995,496.6849744319916,496.83497047424316,496.83497047424316,496.83497047424316,496.83497047424316,496.83497047424316,496.83497047424316,496.83497047424316,499.619441986084,1,2.926400661468506,None,,,,,,,,,,,,,,,,,,133,3,2025-02-26_15h50.30.095,comp,2024.2.4,60.79406307977737,2025-02-26 15h50.40.304846 -0500,
108,108,0,filler_square,None,None,None,None,None,None,None,None,None,None,3,4.767223119735718,None,,,,,0,0,0,0,0,108,108,207,499.6350977420807,,,,,,,,,,,,,,,,,,,,,,,,,,,,,,,,,,,,,,,,,,,,,,,,,,,,,,,,,,,,,,,,,,,,,,,,,,,,,,,,,181.2920854244653,146.51316052505274,193.3875492253108,113.50521827743574,197.59502216529984,197.59502216529984,2.2,2.21,-226,-286,0,267,252,285,499.6203899383545,499.62043356895447,499.62253618240356,499.6350977420807,499.7852041721344,499.7852041721344,499.7852041721344,499.7852041721344,499.7852041721344,499.7852041721344,499.7852041721344,504.4196255207062,3,4.767223119735718,None,,,,,,,,,,,,,,,,,,133,3,2025-02-26_15h50.30.095,comp,2024.2.4,60.79406307977737,2025-02-26 15h50.40.304846 -0500,
109,109,0,critical,dwh,35.0,3.0,lower,70.0,70.0,57.0,133.0,133.0,57.0,2,2.2003421783447266,None,,,,,0,0,0,0,0,109,109,62,504.4347553253174,,,,,,,,,,,,,,,,,,,,,,,,,,,,,,,,,,,,,,,,,,,,,,,,,,,,,,,,,,,,,,,,,,,,,,,,,,,,,,,,,70.0,70.0,57.0,133.0,133.0,57.0,3.0,3.2,-198,-277,0,17,191,261,504.4204137325287,504.4204559326172,504.4229757785797,504.4347553253174,504.58491587638855,504.58491587638855,504.58491587638855,504.58491587638855,504.58491587638855,504.58491587638855,504.58491587638855,506.65257358551025,2,2.2003421783447266,None,,,,,,,,,,,,,,,,,,133,3,2025-02-26_15h50.30.095,comp,2024.2.4,60.79406307977737,2025-02-26 15h50.40.304846 -0500,
110,110,0,critical,hdw,35.0,1.0,upper,200.0,125.0,127.0,127.0,125.0,200.0,3,4.327152252197266,None,,,,,0,0,0,0,0,110,110,109,506.6680896282196,,,,,,,,,,,,,,,,,,,,,,,,,,,,,,,,,,,,,,,,,,,,,,,,,,,,,,,,,,,,,,,,,,,,,,,,,,,,,,,,,200.0,125.0,127.0,127.0,125.0,200.0,1.0,1.3,258,-286,480,-260,740,-259,506.65335035324097,506.6533901691437,506.655944108963,506.6680896282196,506.81838822364807,506.81838822364807,506.81838822364807,506.81838822364807,506.81838822364807,506.81838822364807,506.81838822364807,511.00272822380066,3,4.327152252197266,None,,,,,,,,,,,,,,,,,,133,3,2025-02-26_15h50.30.095,comp,2024.2.4,60.79406307977737,2025-02-26 15h50.40.304846 -0500,
111,111,0,filler_square,None,None,None,None,None,None,None,None,None,None,1,2.2667131423950195,None,,,,,0,0,0,0,0,111,111,194,511.0183548927307,,,,,,,,,,,,,,,,,,,,,,,,,,,,,,,,,,,,,,,,,,,,,,,,,,,,,,,,,,,,,,,,,,,,,,,,,,,,,,,,,168.7722645118344,168.7722645118344,79.30960182862532,136.15095423019358,122.4134349964442,84.73412723618767,2.1,2.11,-248,274,0,281,206,-260,511.0036747455597,511.0037155151367,511.00575375556946,511.0183548927307,511.16837882995605,511.16837882995605,511.16837882995605,511.16837882995605,511.16837882995605,511.16837882995605,511.16837882995605,513.2861967086792,1,2.2667131423950195,None,,,,,,,,,,,,,,,,,,133,3,2025-02-26_15h50.30.095,comp,2024.2.4,60.79406307977737,2025-02-26 15h50.40.304846 -0500,
112,112,0,filler_square,None,None,None,None,None,None,None,None,None,None,1,1.7667524814605713,None,,,,,0,0,0,0,0,112,112,183,513.3016045093536,,,,,,,,,,,,,,,,,,,,,,,,,,,,,,,,,,,,,,,,,,,,,,,,,,,,,,,,,,,,,,,,,,,,,,,,,,,,,,,,,153.93270661739433,153.93270661739433,85.76255232175916,104.09556209855002,100.70991025004318,101.40548098377789,4.0,4.1,-225,-282,0,-10,199,-285,513.2871952056885,513.2872362136841,513.2896931171417,513.3016045093536,513.4516115188599,513.4516115188599,513.4516115188599,513.4516115188599,513.4516115188599,513.4516115188599,513.4516115188599,515.0860209465027,1,1.7667524814605713,None,,,,,,,,,,,,,,,,,,133,3,2025-02-26_15h50.30.095,comp,2024.2.4,60.79406307977737,2025-02-26 15h50.40.304846 -0500,
113,113,0,filler_square,None,None,None,None,None,None,None,None,None,None,1,1.700920581817627,None,,,,,0,0,0,0,0,113,113,201,515.1013238430023,,,,,,,,,,,,,,,,,,,,,,,,,,,,,,,,,,,,,,,,,,,,,,,,,,,,,,,,,,,,,,,,,,,,,,,,,,,,,,,,,171.1424473362876,171.1424473362876,130.90627106142233,152.2919211210383,77.17217327231677,120.41189990428404,4.0,4.1,-258,-271,0,-9,232,-257,515.086989402771,515.0870294570923,515.0894145965576,515.1013238430023,515.2516760826111,515.2516760826111,515.2516760826111,515.2516760826111,515.2516760826111,515.2516760826111,515.2516760826111,516.8193819522858,1,1.700920581817627,None,,,,,,,,,,,,,,,,,,133,3,2025-02-26_15h50.30.095,comp,2024.2.4,60.79406307977737,2025-02-26 15h50.40.304846 -0500,
114,114,0,critical,dhw,20.0,1.0,upper,141.0,141.0,200.0,125.0,125.0,200.0,2,8.296845436096191,None,,,,,0,0,0,0,0,114,114,55,516.834673166275,,,,,,,,,,,,,,,,,,,,,,,,,,,,,,,,,,,,,,,,,,,,,,,,,,,,,,,,,,,,,,,,,,,,,,,,,,,,,,,,,141.0,141.0,200.0,125.0,125.0,200.0,1.0,1.2,-229,-16,0,14,258,-7,516.8201613426208,516.8202028274536,516.8226354122162,516.834673166275,516.9849796295166,516.9849796295166,516.9849796295166,516.9849796295166,516.9849796295166,516.9849796295166,516.9849796295166,525.1361410617828,2,8.296845436096191,None,,,,,,,,,,,,,,,,,,133,3,2025-02-26_15h50.30.095,comp,2024.2.4,60.79406307977737,2025-02-26 15h50.40.304846 -0500,
115,115,0,critical,hwd,20.0,2.1,lower,133.0,57.0,57.0,133.0,78.0,78.0,2,3.507835626602173,None,,,,,0,0,0,0,0,115,115,18,525.1515836715698,,,,,,,,,,,,,,,,,,,,,,,,,,,,,,,,,,,,,,,,,,,,,,,,,,,,,,,,,,,,,,,,,,,,,,,,,,,,,,,,,133.0,57.0,57.0,133.0,78.0,78.0,2.1,2.11,-191,279,0,262,202,-282,525.1369340419769,525.136974811554,525.1390912532806,525.1515836715698,525.3014743328094,525.3014743328094,525.3014743328094,525.3014743328094,525.3014743328094,525.3014743328094,525.3014743328094,528.6692945957184,2,3.507835626602173,None,,,,,,,,,,,,,,,,,,133,3,2025-02-26_15h50.30.095,comp,2024.2.4,60.79406307977737,2025-02-26 15h50.40.304846 -0500,
116,116,0,filler_square,None,None,None,None,None,None,None,None,None,None,2,2.317232131958008,None,,,,,0,0,0,0,0,116,116,180,528.6849598884583,,,,,,,,,,,,,,,,,,,,,,,,,,,,,,,,,,,,,,,,,,,,,,,,,,,,,,,,,,,,,,,,,,,,,,,,,,,,,,,,,106.49207301263122,124.84917707478974,183.30618243679157,183.30618243679157,120.53389854219705,171.89276643004703,2.2,2.21,-250,-267,0,275,274,255,528.6702740192413,528.6703157424927,528.672688961029,528.6849598884583,528.8349914550781,528.8349914550781,528.8349914550781,528.8349914550781,528.8349914550781,528.8349914550781,528.8349914550781,531.0193479061127,2,2.317232131958008,None,,,,,,,,,,,,,,,,,,133,3,2025-02-26_15h50.30.095,comp,2024.2.4,60.79406307977737,2025-02-26 15h50.40.304846 -0500,
117,117,0,critical,dhw,35.0,2.1,upper,127.0,127.0,200.0,125.0,125.0,200.0,2,2.3764634132385254,None,,,,,0,0,0,0,0,117,117,25,531.0345928668976,,,,,,,,,,,,,,,,,,,,,,,,,,,,,,,,,,,,,,,,,,,,,,,,,,,,,,,,,,,,,,,,,,,,,,,,,,,,,,,,,127.0,127.0,200.0,125.0,125.0,200.0,2.1,2.11,-222,280,0,251,258,-260,531.0201444625854,531.020186662674,531.0226237773895,531.0345928668976,531.184962272644,531.184962272644,531.184962272644,531.184962272644,531.184962272644,531.184962272644,531.184962272644,533.4193563461304,2,2.3764634132385254,None,,,,,,,,,,,,,,,,,,133,3,2025-02-26_15h50.30.095,comp,2024.2.4,60.79406307977737,2025-02-26 15h50.40.304846 -0500,
118,118,0,filler_random,None,None,None,None,None,None,None,None,None,None,1,3.128185510635376,None,,,,,0,0,0,0,0,118,118,143,533.4348816871643,,,,,,,,,,,,,,,,,,,,,,,,,,,,,,,,,,,,,,,,,,,,,,,,,,,,,,,,,,,,,,,,,,,,,,,,,,,,,,,,,188.87861964289263,93.08383553956587,98.54524895253928,176.49604412222985,156.55563616766855,66.55245765649707,4.0,4.1,-231,-253,0,13,218,-281,533.4202952384949,533.420337677002,533.4229292869568,533.4348816871643,533.5847220420837,533.5847220420837,533.5847220420837,533.5847220420837,533.5847220420837,533.5847220420837,533.5847220420837,536.5692865848541,1,3.128185510635376,None,,,,,,,,,,,,,,,,,,133,3,2025-02-26_15h50.30.095,comp,2024.2.4,60.79406307977737,2025-02-26 15h50.40.304846 -0500,
119,119,0,critical,dhw,35.0,2.1,lower,70.0,70.0,133.0,57.0,57.0,133.0,2,6.401418447494507,None,,,,,0,0,0,0,0,119,119,0,536.584746837616,,,,,,,,,,,,,,,,,,,,,,,,,,,,,,,,,,,,,,,,,,,,,,,,,,,,,,,,,,,,,,,,,,,,,,,,,,,,,,,,,70.0,70.0,133.0,57.0,57.0,133.0,2.1,2.12,-160,-282,0,-290,191,282,536.5700623989105,536.5701036453247,536.5724809169769,536.584746837616,536.7347161769867,536.7347161769867,536.7347161769867,536.7347161769867,536.7347161769867,536.7347161769867,536.7347161769867,543.0023674964905,2,6.401418447494507,None,,,,,,,,,,,,,,,,,,133,3,2025-02-26_15h50.30.095,comp,2024.2.4,60.79406307977737,2025-02-26 15h50.40.304846 -0500,
120,120,0,critical,dhw,35.0,4.0,lower,70.0,70.0,133.0,57.0,57.0,133.0,3,2.617090940475464,None,,,,,0,0,0,0,0,120,120,52,543.0177412033081,,,,,,,,,,,,,,,,,,,,,,,,,,,,,,,,,,,,,,,,,,,,,,,,,,,,,,,,,,,,,,,,,,,,,,,,,,,,,,,,,70.0,70.0,133.0,57.0,57.0,133.0,4.0,4.2,-160,-3,0,-277,191,9,543.0031645298004,543.0032064914703,543.0056536197662,543.0177412033081,543.167976140976,543.167976140976,543.167976140976,543.167976140976,543.167976140976,543.167976140976,543.167976140976,545.6524457931519,3,2.617090940475464,None,,,,,,,,,,,,,,,,,,133,3,2025-02-26_15h50.30.095,comp,2024.2.4,60.79406307977737,2025-02-26 15h50.40.304846 -0500,
121,121,0,filler_square,None,None,None,None,None,None,None,None,None,None,2,2.086239814758301,None,,,,,0,0,0,0,0,121,121,190,545.6678891181946,,,,,,,,,,,,,,,,,,,,,,,,,,,,,,,,,,,,,,,,,,,,,,,,,,,,,,,,,,,,,,,,,,,,,,,,,,,,,,,,,66.4983290757128,81.05497779897779,105.90715164933158,105.90715164933158,94.21647556992761,93.85240721995547,1.0,1.3,291,-269,480,-277,676,-256,545.6534245014191,545.6534671783447,545.6560018062592,545.6678891181946,545.8179767131805,545.8179767131805,545.8179767131805,545.8179767131805,545.8179767131805,545.8179767131805,545.8179767131805,547.7689790725708,2,2.086239814758301,None,,,,,,,,,,,,,,,,,,133,3,2025-02-26_15h50.30.095,comp,2024.2.4,60.79406307977737,2025-02-26 15h50.40.304846 -0500,
122,122,0,critical,wdh,20.0,4.0,upper,125.0,200.0,141.0,141.0,200.0,125.0,3,6.300130128860474,None,,,,,0,0,0,0,0,122,122,83,547.7844452857971,,,,,,,,,,,,,,,,,,,,,,,,,,,,,,,,,,,,,,,,,,,,,,,,,,,,,,,,,,,,,,,,,,,,,,,,,,,,,,,,,125.0,200.0,141.0,141.0,200.0,125.0,4.0,4.2,-266,-10,0,-253,229,-6,547.7697427272797,547.7697832584381,547.7721076011658,547.7844452857971,547.9348630905151,547.9348630905151,547.9348630905151,547.9348630905151,547.9348630905151,547.9348630905151,547.9348630905151,554.0860211849213,3,6.300130128860474,None,,,,,,,,,,,,,,,,,,133,3,2025-02-26_15h50.30.095,comp,2024.2.4,60.79406307977737,2025-02-26 15h50.40.304846 -0500,
123,123,0,critical,hwd,35.0,4.0,upper,200.0,125.0,125.0,200.0,127.0,127.0,1,3.021383047103882,None,,,,,0,0,0,0,0,123,123,101,554.1013112068176,,,,,,,,,,,,,,,,,,,,,,,,,,,,,,,,,,,,,,,,,,,,,,,,,,,,,,,,,,,,,,,,,,,,,,,,,,,,,,,,,200.0,125.0,125.0,200.0,127.0,127.0,4.0,4.2,-258,11,0,-282,260,-6,554.0867567062378,554.086797952652,554.0890557765961,554.1013112068176,554.2515435218811,554.2515435218811,554.2515435218811,554.2515435218811,554.2515435218811,554.2515435218811,554.2515435218811,557.1358225345612,1,3.021383047103882,None,,,,,,,,,,,,,,,,,,133,3,2025-02-26_15h50.30.095,comp,2024.2.4,60.79406307977737,2025-02-26 15h50.40.304846 -0500,
124,124,0,filler_square,None,None,None,None,None,None,None,None,None,None,3,1.4190149307250977,None,,,,,0,0,0,0,0,124,124,196,557.1511006355286,,,,,,,,,,,,,,,,,,,,,,,,,,,,,,,,,,,,,,,,,,,,,,,,,,,,,,,,,,,,,,,,,,,,,,,,,,,,,,,,,60.0362363763472,66.57894632449073,63.16621550179168,81.1590052194892,81.34667340508881,81.34667340508881,4.0,4.2,-170,-5,0,-289,177,-14,557.1367490291595,557.136789560318,557.1388580799103,557.1511006355286,557.3011226654053,557.3011226654053,557.3011226654053,557.3011226654053,557.3011226654053,557.3011226654053,557.3011226654053,558.585577249527,3,1.4190149307250977,None,,,,,,,,,,,,,,,,,,133,3,2025-02-26_15h50.30.095,comp,2024.2.4,60.79406307977737,2025-02-26 15h50.40.304846 -0500,
125,125,0,critical,hwd,20.0,2.1,lower,133.0,57.0,57.0,133.0,78.0,78.0,2,2.8021292686462402,None,,,,,0,0,0,0,0,125,125,42,558.6011159420013,,,,,,,,,,,,,,,,,,,,,,,,,,,,,,,,,,,,,,,,,,,,,,,,,,,,,,,,,,,,,,,,,,,,,,,,,,,,,,,,,133.0,57.0,57.0,133.0,78.0,78.0,2.1,2.12,-191,-282,0,-256,202,261,558.5863819122314,558.586421251297,558.5890426635742,558.6011159420013,558.7512557506561,558.7512557506561,558.7512557506561,558.7512557506561,558.7512557506561,558.7512557506561,558.7512557506561,561.418972492218,2,2.8021292686462402,None,,,,,,,,,,,,,,,,,,133,3,2025-02-26_15h50.30.095,comp,2024.2.4,60.79406307977737,2025-02-26 15h50.40.304846 -0500,
126,126,0,critical,dhw,20.0,3.0,upper,141.0,141.0,200.0,125.0,125.0,200.0,3,3.5840601921081543,None,,,,,0,0,0,0,0,126,126,57,561.4343407154083,,,,,,,,,,,,,,,,,,,,,,,,,,,,,,,,,,,,,,,,,,,,,,,,,,,,,,,,,,,,,,,,,,,,,,,,,,,,,,,,,141.0,141.0,200.0,125.0,125.0,200.0,3.0,3.1,-229,267,0,-10,258,-289,561.4197173118591,561.419754743576,561.4220199584961,561.4343407154083,561.584822177887,561.584822177887,561.584822177887,561.584822177887,561.584822177887,561.584822177887,561.584822177887,565.0357072353363,3,3.5840601921081543,None,,,,,,,,,,,,,,,,,,133,3,2025-02-26_15h50.30.095,comp,2024.2.4,60.79406307977737,2025-02-26 15h50.40.304846 -0500,
127,127,0,filler_square,None,None,None,None,None,None,None,None,None,None,1,2.054840087890625,None,,,,,0,0,0,0,0,127,127,202,565.0510349273682,,,,,,,,,,,,,,,,,,,,,,,,,,,,,,,,,,,,,,,,,,,,,,,,,,,,,,,,,,,,,,,,,,,,,,,,,,,,,,,,,156.85281314106896,156.85281314106896,65.53768111739659,102.10302627962236,92.70060803073949,133.82146434622746,2.1,2.12,-225,-280,0,-259,214,274,565.0366923809052,565.036732673645,565.038711309433,565.0510349273682,565.2012729644775,565.2012729644775,565.2012729644775,565.2012729644775,565.2012729644775,565.2012729644775,565.2012729644775,567.11900639534,1,2.054840087890625,None,,,,,,,,,,,,,,,,,,133,3,2025-02-26_15h50.30.095,comp,2024.2.4,60.79406307977737,2025-02-26 15h50.40.304846 -0500,
128,128,0,critical,dhw,20.0,4.0,upper,141.0,141.0,200.0,125.0,125.0,200.0,2,3.6608195304870605,None,,,,,0,0,0,0,0,128,128,59,567.134281873703,,,,,,,,,,,,,,,,,,,,,,,,,,,,,,,,,,,,,,,,,,,,,,,,,,,,,,,,,,,,,,,,,,,,,,,,,,,,,,,,,141.0,141.0,200.0,125.0,125.0,200.0,4.0,4.2,-229,-8,0,-282,258,15,567.1197862625122,567.1198387145996,567.1223311424255,567.134281873703,567.2846746444702,567.2846746444702,567.2846746444702,567.2846746444702,567.2846746444702,567.2846746444702,567.2846746444702,570.802499294281,2,3.6608195304870605,None,,,,,,,,,,,,,,,,,,133,3,2025-02-26_15h50.30.095,comp,2024.2.4,60.79406307977737,2025-02-26 15h50.40.304846 -0500,
129,129,0,critical,whd,35.0,2.1,lower,57.0,133.0,133.0,57.0,70.0,70.0,2,2.3142690658569336,None,,,,,0,0,0,0,0,129,129,36,570.8179059028625,,,,,,,,,,,,,,,,,,,,,,,,,,,,,,,,,,,,,,,,,,,,,,,,,,,,,,,,,,,,,,,,,,,,,,,,,,,,,,,,,57.0,133.0,133.0,57.0,70.0,70.0,2.1,2.11,-191,272,0,254,160,-255,570.803334236145,570.8033766746521,570.8059964179993,570.8179059028625,570.9677159786224,570.9677159786224,570.9677159786224,570.9677159786224,570.9677159786224,570.9677159786224,570.9677159786224,573.1355876922607,2,2.3142690658569336,None,,,,,,,,,,,,,,,,,,133,3,2025-02-26_15h50.30.095,comp,2024.2.4,60.79406307977737,2025-02-26 15h50.40.304846 -0500,
130,130,0,filler_random,None,None,None,None,None,None,None,None,None,None,1,1.8684542179107666,None,,,,,0,0,0,0,0,130,130,165,573.15123462677,,,,,,,,,,,,,,,,,,,,,,,,,,,,,,,,,,,,,,,,,,,,,,,,,,,,,,,,,,,,,,,,,,,,,,,,,,,,,,,,,184.455056066527,158.87469178218586,123.8992886295612,159.542394911138,96.61998926922317,166.62743560351095,4.0,4.2,-255,-10,0,-255,259,0,573.1365065574646,573.1365473270416,573.1391851902008,573.15123462677,573.3013498783112,573.3013498783112,573.3013498783112,573.3013498783112,573.3013498783112,573.3013498783112,573.3013498783112,575.035736322403,1,1.8684542179107666,None,,,,,,,,,,,,,,,,,,133,3,2025-02-26_15h50.30.095,comp,2024.2.4,60.79406307977737,2025-02-26 15h50.40.304846 -0500,
131,131,0,filler_random,None,None,None,None,None,None,None,None,None,None,3,1.8170478343963623,None,,,,,0,0,0,0,0,131,131,133,575.051057100296,,,,,,,,,,,,,,,,,,,,,,,,,,,,,,,,,,,,,,,,,,,,,,,,,,,,,,,,,,,,,,,,,,,,,,,,,,,,,,,,,130.8851446021057,172.50915316445193,139.93747782144032,66.39553532095809,163.0626959477396,183.9542197320811,1.0,1.1,-695,273,-480,273,-259,277,575.0366518497467,575.0366930961609,575.0387809276581,575.051057100296,575.2012205123901,575.2012205123901,575.2012205123901,575.2012205123901,575.2012205123901,575.2012205123901,575.2012205123901,576.8857843875885,3,1.8170478343963623,None,,,,,,,,,,,,,,,,,,133,3,2025-02-26_15h50.30.095,comp,2024.2.4,60.79406307977737,2025-02-26 15h50.40.304846 -0500,
132,132,0,critical,hdw,20.0,1.0,lower,133.0,57.0,78.0,78.0,57.0,133.0,3,3.5257768630981445,None,,,,,0,0,0,0,0,132,132,114,576.9009201526642,,,,,,,,,,,,,,,,,,,,,,,,,,,,,,,,,,,,,,,,,,,,,,,,,,,,,,,,,,,,,,,,,,,,,,,,,,,,,,,,,133.0,57.0,78.0,78.0,57.0,133.0,1.0,1.2,-164,0,0,-2,202,16,576.8865630626678,576.8866047859192,576.8888981342316,576.9009201526642,577.0510985851288,577.0510985851288,577.0510985851288,577.0510985851288,577.0510985851288,577.0510985851288,577.0510985851288,580.4354658126831,3,3.5257768630981445,None,,,,,,,,,,,,,,,,,,133,3,2025-02-26_15h50.30.095,comp,2024.2.4,60.79406307977737,2025-02-26 15h50.40.304846 -0500,
133,133,0,critical,whd,20.0,1.0,lower,57.0,133.0,133.0,57.0,78.0,78.0,2,5.4864866733551025,None,,,,,0,0,0,0,0,133,133,90,580.4514362812042,,,,,,,,,,,,,,,,,,,,,,,,,,,,,,,,,,,,,,,,,,,,,,,,,,,,,,,,,,,,,,,,,,,,,,,,,,,,,,,,,57.0,133.0,133.0,57.0,78.0,78.0,1.0,1.3,289,-272,480,-288,644,-283,580.4362757205963,580.4363179206848,580.4387738704681,580.4514362812042,580.6011047363281,580.6011047363281,580.6011047363281,580.6011047363281,580.6011047363281,580.6011047363281,580.6011047363281,585.9522964954376,2,5.4864866733551025,None,,,,,,,,,,,,,,,,,,133,3,2025-02-26_15h50.30.095,comp,2024.2.4,60.79406307977737,2025-02-26 15h50.40.304846 -0500,
134,134,0,critical,whd,35.0,4.0,lower,57.0,133.0,133.0,57.0,70.0,70.0,2,3.300272226333618,None,,,,,0,0,0,0,0,134,134,88,585.967663526535,,,,,,,,,,,,,,,,,,,,,,,,,,,,,,,,,,,,,,,,,,,,,,,,,,,,,,,,,,,,,,,,,,,,,,,,,,,,,,,,,57.0,133.0,133.0,57.0,70.0,70.0,4.0,4.2,-191,-5,0,-255,160,-20,585.9530925750732,585.953132390976,585.9555883407593,585.967663526535,586.1177523136139,586.1177523136139,586.1177523136139,586.1177523136139,586.1177523136139,586.1177523136139,586.1177523136139,589.2854223251343,2,3.300272226333618,None,,,,,,,,,,,,,,,,,,133,3,2025-02-26_15h50.30.095,comp,2024.2.4,60.79406307977737,2025-02-26 15h50.40.304846 -0500,
135,135,0,filler_random,None,None,None,None,None,None,None,None,None,None,3,1.5503032207489014,None,,,,,0,0,0,0,0,135,135,146,589.3009397983551,,,,,,,,,,,,,,,,,,,,,,,,,,,,,,,,,,,,,,,,,,,,,,,,,,,,,,,,,,,,,,,,,,,,,,,,,,,,,,,,,150.7261204410426,108.55980088875397,128.25478710395276,58.94561092231963,168.97561402705122,143.384240400738,3.0,3.2,-180,-279,0,5,197,274,589.286318063736,589.2863574028015,589.2888820171356,589.3009397983551,589.4510409832001,589.4510409832001,589.4510409832001,589.4510409832001,589.4510409832001,589.4510409832001,589.4510409832001,590.8688893318176,3,1.5503032207489014,None,,,,,,,,,,,,,,,,,,133,3,2025-02-26_15h50.30.095,comp,2024.2.4,60.79406307977737,2025-02-26 15h50.40.304846 -0500,
136,136,0,critical,whd,20.0,2.1,upper,125.0,200.0,200.0,125.0,141.0,141.0,1,2.9584765434265137,None,,,,,0,0,0,0,0,136,136,15,590.8842031955719,,,,,,,,,,,,,,,,,,,,,,,,,,,,,,,,,,,,,,,,,,,,,,,,,,,,,,,,,,,,,,,,,,,,,,,,,,,,,,,,,125.0,200.0,200.0,125.0,141.0,141.0,2.1,2.11,-258,280,0,254,229,-280,590.8697311878204,590.869772195816,590.8721640110016,590.8842031955719,591.0344996452332,591.0344996452332,591.0344996452332,591.0344996452332,591.0344996452332,591.0344996452332,591.0344996452332,593.8522350788116,1,2.9584765434265137,None,,,,,,,,,,,,,,,,,,133,3,2025-02-26_15h50.30.095,comp,2024.2.4,60.79406307977737,2025-02-26 15h50.40.304846 -0500,
137,137,0,critical,dwh,20.0,4.0,lower,78.0,78.0,57.0,133.0,133.0,57.0,3,3.6949422359466553,None,,,,,0,0,0,0,0,137,137,70,593.8677878379822,,,,,,,,,,,,,,,,,,,,,,,,,,,,,,,,,,,,,,,,,,,,,,,,,,,,,,,,,,,,,,,,,,,,,,,,,,,,,,,,,78.0,78.0,57.0,133.0,133.0,57.0,4.0,4.2,-202,5,0,-281,191,19,593.853015422821,593.8530569076538,593.8553943634033,593.8677878379822,594.0177128314972,594.0177128314972,594.0177128314972,594.0177128314972,594.0177128314972,594.0177128314972,594.0177128314972,597.5688605308533,3,3.6949422359466553,None,,,,,,,,,,,,,,,,,,133,3,2025-02-26_15h50.30.095,comp,2024.2.4,60.79406307977737,2025-02-26 15h50.40.304846 -0500,
138,138,0,critical,hwd,35.0,1.0,lower,133.0,57.0,57.0,133.0,70.0,70.0,2,2.5158426761627197,None,,,,,0,0,0,0,0,138,138,96,597.5844733715057,,,,,,,,,,,,,,,,,,,,,,,,,,,,,,,,,,,,,,,,,,,,,,,,,,,,,,,,,,,,,,,,,,,,,,,,,,,,,,,,,133.0,57.0,57.0,133.0,70.0,70.0,1.0,1.1,-671,257,-480,282,-282,282,597.5696091651917,597.5696489810944,597.5716471672058,597.5844733715057,597.734227180481,597.734227180481,597.734227180481,597.734227180481,597.734227180481,597.734227180481,597.734227180481,600.118655204773,2,2.5158426761627197,None,,,,,,,,,,,,,,,,,,133,3,2025-02-26_15h50.30.095,comp,2024.2.4,60.79406307977737,2025-02-26 15h50.40.304846 -0500,
139,139,0,critical,dwh,20.0,2.1,lower,78.0,78.0,57.0,133.0,133.0,57.0,2,3.2839772701263428,None,,,,,0,0,0,0,0,139,139,30,600.1341300010681,,,,,,,,,,,,,,,,,,,,,,,,,,,,,,,,,,,,,,,,,,,,,,,,,,,,,,,,,,,,,,,,,,,,,,,,,,,,,,,,,78.0,78.0,57.0,133.0,133.0,57.0,2.1,2.12,-202,-284,0,-257,191,259,600.1194570064545,600.1194975376129,600.1221001148224,600.1341300010681,600.2842607498169,600.2842607498169,600.2842607498169,600.2842607498169,600.2842607498169,600.2842607498169,600.2842607498169,603.4356372356415,2,3.2839772701263428,None,,,,,,,,,,,,,,,,,,133,3,2025-02-26_15h50.30.095,comp,2024.2.4,60.79406307977737,2025-02-26 15h50.40.304846 -0500,
