thisN,thisTrialN,thisRepN,effect,order,distance,config,diag,h_1,w_1,h_2,w_2,h_3,w_3,rect_choice.keys,rect_choice.rt,rect_choice.duration,instructions_loop.thisRepN,instructions_loop.thisTrialN,instructions_loop.thisN,instructions_loop.thisIndex,blocks.thisRepN,blocks.thisTrialN,blocks.thisN,blocks.thisIndex,trials.thisRepN,trials.thisTrialN,trials.thisN,trials.thisIndex,thisRow.t,notes,consent.started,agree_button.started,decline_button.started,consent_img.started,mouse.started,consent.stopped,agree_button.numClicks,agree_button.timesOn,agree_button.timesOff,decline_button.numClicks,decline_button.timesOn,decline_button.timesOff,mouse.x,mouse.y,mouse.leftButton,mouse.midButton,mouse.rightButton,mouse.time,mouse.clicked_name,exp_params.started,exp_params.stopped,welcome.started,welcome_text.started,welcome.stopped,instructions_1.started,instructions_1_text_1.started,instructions_1_text_2.started,key_resp.started,instructions_1.stopped,instructions_loop.key_resp.keys,instructions_loop.key_resp.rt,instructions_loop.key_resp.duration,instructions_2.started,instructions_2_text_1.started,instructions_2_text_2.started,key_resp_2.started,instructions_2.stopped,instructions_loop.key_resp_2.keys,instructions_loop.key_resp_2.rt,instructions_loop.key_resp_2.duration,instructions_3.started,instructions_3_text_1.started,r1_instr3.started,r2_instr3.started,r3_instr3.started,r1_instr3_label.started,r2_instr3_label.started,r3_instr3_label.started,instructions_3_text_3.started,instructions_3_text_4.started,key_resp_3.started,instructions_3.stopped,instructions_loop.key_resp_3.keys,instructions_loop.key_resp_3.rt,instructions_loop.key_resp_3.duration,instructions_4.started,instructions_4_text_1.started,instructions_4_text_3.started,instructions_4_text_2.started,key_resp_4.started,instructions_4.stopped,instructions_loop.key_resp_4.keys,instructions_loop.key_resp_4.rt,instructions_loop.key_resp_4.duration,instructions_5.started,instructions_5_text_1.started,instructions_5_text_2.started,key_resp_5.started,instructions_5.stopped,instructions_loop.key_resp_5.keys,instructions_loop.key_resp_5.rt,instructions_loop.key_resp_5.duration,start_exp.started,start_exp_text.started,key_resp_6.started,start_exp.stopped,key_resp_6.keys,key_resp_6.rt,key_resp_6.duration,h_1_tmp,w_1_tmp,h_2_tmp,w_2_tmp,h_3_tmp,w_3_tmp,config_tmp,config_tmp_1,r_1_x,r_1_y,r_2_x,r_2_y,r_3_x,r_3_y,pre_trial.started,pre_trial.stopped,choice_trial.started,rect_choice.started,r_1.started,r_2.started,r_3.started,r_1_label.started,r_2_label.started,r_3_label.started,prompt.started,choice_trial.stopped,trials.rect_choice.keys,trials.rect_choice.rt,trials.rect_choice.duration,end_block.started,end_block_text.started,end_block.stopped,end.started,end_text.started,key_resp_7.started,end.stopped,key_resp_7.keys,key_resp_7.rt,key_resp_7.duration,debriefing.started,debrief_form.started,end_debrief.started,debriefing.stopped,end_debrief.keys,end_debrief.rt,end_debrief.duration,participant,computer,date,expName,psychopyVersion,frameRate,expStart,
,,,,,,,,,,,,,,,,,,,,,,,,,,,,,,,0.015219688415527344,0.0366826057434082,0.0366826057434082,0.0366826057434082,0.015023946762084961,65.24038648605347,1,[65.20110726356506],[65.20112943649292],0,,,[-78.0],[-515.0],[1],[0],[0],[65.22470593452454],['agree_button'],,,,,,,,,,,,,,,,,,,,,,,,,,,,,,,,,,,,,,,,,,,,,,,,,,,,,,,,,,,,,,,,,,,,,,,,,,,,,,,,,,,,,,,,,,,,,,,,,,,,,,,,,,,134,4,2025-02-26_15h59.27.863,comp,2024.2.4,None,2025-02-26 15h59.40.251532 -0500,
,,,,,,,,,,,,,,,,,,,,,,,,,,,,,,,,,,,,,,,,,,,,,,,,,,65.24093723297119,65.24102902412415,,,,,,,,,,,,,,,,,,,,,,,,,,,,,,,,,,,,,,,,,,,,,,,,,,,,,,,,,,,,,,,,,,,,,,,,,,,,,,,,,,,,,,,,,,,,,,,,,,,,,,,,,134,4,2025-02-26_15h59.27.863,comp,2024.2.4,None,2025-02-26 15h59.40.251532 -0500,
,,,,,,,,,,,,,,,,,,,,,,,,,,,,,,,,,,,,,,,,,,,,,,,,,,,,65.24107313156128,65.25462532043457,67.24915862083435,,,,,,,,,,,,,,,,,,,,,,,,,,,,,,,,,,,,,,,,,,,,,,,,,,,,,,,,,,,,,,,,,,,,,,,,,,,,,,,,,,,,,,,,,,,,,,,,,,,,,,134,4,2025-02-26_15h59.27.863,comp,2024.2.4,None,2025-02-26 15h59.40.251532 -0500,
0,0,0,,,,,,,,,,,,,,,0,0,0,0,,,,,,,,,67.2652370929718,,,,,,,,,,,,,,,,,,,,,,,,,,67.25011587142944,67.2652370929718,67.2652370929718,68.75170874595642,73.02148699760437,space,4.25645112991333,None,73.02164483070374,73.03730893135071,73.03730893135071,74.54145169258118,79.55712699890137,space,5.010576009750366,None,79.55728006362915,79.58453965187073,79.58453965187073,79.58453965187073,79.58453965187073,79.58453965187073,79.58453965187073,79.58453965187073,79.58453965187073,79.58453965187073,81.07121419906616,88.52268624305725,space,7.432677268981934,None,88.52284216880798,88.54200506210327,88.54200506210327,88.54200506210327,90.0256130695343,96.26265954971313,space,6.230640411376953,None,96.26281499862671,96.27752900123596,96.27752900123596,97.77747321128845,99.53036379814148,space,1.7506258487701416,None,99.53057169914246,99.54635190963745,99.54635190963745,100.99688959121704,space,1.4399216175079346,None,,,,,,,,,,,,,,,,,,,,,,,,,,,,,,,,,,,,,,,,,,,,,,,134,4,2025-02-26_15h59.27.863,comp,2024.2.4,None,2025-02-26 15h59.40.251532 -0500,
0,0,0,filler_random,None,None,None,None,None,None,None,None,None,None,3,3.206774950027466,None,,,,,0,0,0,0,0,0,0,143,101.07311344146729,,,,,,,,,,,,,,,,,,,,,,,,,,,,,,,,,,,,,,,,,,,,,,,,,,,,,,,,,,,,,,,,,,,,,,,,,,,,,,,,,112.35719492940633,91.0470766676251,64.67698991421167,172.79027781879293,68.79201420658157,180.65281148337579,2.2,2.22,-228,286,0,-260,273,-272,101.05599212646484,101.05604386329651,101.05783081054688,101.07311344146729,101.22019982337952,101.22019982337952,101.22019982337952,101.22019982337952,101.22019982337952,101.22019982337952,101.22019982337952,104.2821581363678,3,3.206774950027466,None,,,,,,,,,,,,,,,,,,134,4,2025-02-26_15h59.27.863,comp,2024.2.4,None,2025-02-26 15h59.40.251532 -0500,
1,1,0,filler_random,None,None,None,None,None,None,None,None,None,None,2,2.7250425815582275,None,,,,,0,0,0,0,0,1,1,137,104.29907083511353,,,,,,,,,,,,,,,,,,,,,,,,,,,,,,,,,,,,,,,,,,,,,,,,,,,,,,,,,,,,,,,,,,,,,,,,,,,,,,,,,116.93541945746682,116.71876219533678,185.11378647688787,153.96939586802029,135.62174691202915,172.05159286837,3.0,3.2,-231,-278,0,0,259,284,104.28426337242126,104.28436350822449,104.28824806213379,104.29907083511353,104.44806146621704,104.44806146621704,104.44806146621704,104.44806146621704,104.44806146621704,104.44806146621704,104.44806146621704,107.02617383003235,2,2.7250425815582275,None,,,,,,,,,,,,,,,,,,134,4,2025-02-26_15h59.27.863,comp,2024.2.4,None,2025-02-26 15h59.40.251532 -0500,
2,2,0,critical,whd,20.0,1.0,upper,125.0,200.0,200.0,125.0,141.0,141.0,1,3.4214749336242676,None,,,,,0,0,0,0,0,2,2,91,107.0424861907959,,,,,,,,,,,,,,,,,,,,,,,,,,,,,,,,,,,,,,,,,,,,,,,,,,,,,,,,,,,,,,,,,,,,,,,,,,,,,,,,,125.0,200.0,200.0,125.0,141.0,141.0,1.0,1.2,-258,13,0,10,229,-7,107.0276300907135,107.02770805358887,107.03062081336975,107.0424861907959,107.1815128326416,107.1815128326416,107.1815128326416,107.1815128326416,107.1815128326416,107.1815128326416,107.1815128326416,110.46733689308167,1,3.4214749336242676,None,,,,,,,,,,,,,,,,,,134,4,2025-02-26_15h59.27.863,comp,2024.2.4,None,2025-02-26 15h59.40.251532 -0500,
3,3,0,filler_random,None,None,None,None,None,None,None,None,None,None,1,6.724497079849243,None,,,,,0,0,0,0,0,3,3,132,110.48401188850403,,,,,,,,,,,,,,,,,,,,,,,,,,,,,,,,,,,,,,,,,,,,,,,,,,,,,,,,,,,,,,,,,,,,,,,,,,,,,,,,,189.3469039269817,65.99502450847592,116.69752650643522,79.30610162541583,111.13877117527946,108.06678875088963,3.0,3.1,-169,288,0,13,190,-266,110.46899580955505,110.46910238265991,110.47311472892761,110.48401188850403,110.62540864944458,110.62540864944458,110.62540864944458,110.62540864944458,110.62540864944458,110.62540864944458,110.62540864944458,117.21748995780945,1,6.724497079849243,None,,,,,,,,,,,,,,,,,,134,4,2025-02-26_15h59.27.863,comp,2024.2.4,None,2025-02-26 15h59.40.251532 -0500,
4,4,0,critical,wdh,20.0,4.0,upper,125.0,200.0,141.0,141.0,200.0,125.0,1,3.6703691482543945,None,,,,,0,0,0,0,0,4,4,83,117.23372769355774,,,,,,,,,,,,,,,,,,,,,,,,,,,,,,,,,,,,,,,,,,,,,,,,,,,,,,,,,,,,,,,,,,,,,,,,,,,,,,,,,125.0,200.0,141.0,141.0,200.0,125.0,4.0,4.2,-266,-3,0,-281,229,-4,117.21903467178345,117.21911549568176,117.22230887413025,117.23372769355774,117.38171768188477,117.38171768188477,117.38171768188477,117.38171768188477,117.38171768188477,117.38171768188477,117.38171768188477,120.91908407211304,1,3.6703691482543945,None,,,,,,,,,,,,,,,,,,134,4,2025-02-26_15h59.27.863,comp,2024.2.4,None,2025-02-26 15h59.40.251532 -0500,
5,5,0,filler_square,None,None,None,None,None,None,None,None,None,None,1,1.5246694087982178,None,,,,,0,0,0,0,0,5,5,173,120.93987560272217,,,,,,,,,,,,,,,,,,,,,,,,,,,,,,,,,,,,,,,,,,,,,,,,,,,,,,,,,,,,,,,,,,,,,,,,,,,,,,,,,177.66458640405278,177.66458640405278,135.47352166541924,118.44820210314137,129.79434223310105,167.38146787127954,2.2,2.22,-244,255,0,-276,239,-273,120.92108082771301,120.9211654663086,120.92452478408813,120.93987560272217,121.08676195144653,121.08676195144653,121.08676195144653,121.08676195144653,121.08676195144653,121.08676195144653,121.08676195144653,122.47370982170105,1,1.5246694087982178,None,,,,,,,,,,,,,,,,,,134,4,2025-02-26_15h59.27.863,comp,2024.2.4,None,2025-02-26 15h59.40.251532 -0500,
6,6,0,critical,whd,20.0,2.1,upper,125.0,200.0,200.0,125.0,141.0,141.0,2,9.798566818237305,None,,,,,0,0,0,0,0,6,6,39,122.48931360244751,,,,,,,,,,,,,,,,,,,,,,,,,,,,,,,,,,,,,,,,,,,,,,,,,,,,,,,,,,,,,,,,,,,,,,,,,,,,,,,,,125.0,200.0,200.0,125.0,141.0,141.0,2.1,2.12,-258,-282,0,-279,229,284,122.47521829605103,122.47529578208923,122.47849655151367,122.48931360244751,122.6413025856018,122.6413025856018,122.6413025856018,122.6413025856018,122.6413025856018,122.6413025856018,122.6413025856018,132.29007697105408,2,9.798566818237305,None,,,,,,,,,,,,,,,,,,134,4,2025-02-26_15h59.27.863,comp,2024.2.4,None,2025-02-26 15h59.40.251532 -0500,
7,7,0,critical,hwd,35.0,2.1,upper,200.0,125.0,125.0,200.0,127.0,127.0,2,2.0465660095214844,None,,,,,0,0,0,0,0,7,7,41,132.30609512329102,,,,,,,,,,,,,,,,,,,,,,,,,,,,,,,,,,,,,,,,,,,,,,,,,,,,,,,,,,,,,,,,,,,,,,,,,,,,,,,,,200.0,125.0,125.0,200.0,127.0,127.0,2.1,2.11,-258,274,0,280,260,-264,132.29163336753845,132.29171133041382,132.29515886306763,132.30609512329102,132.4566411972046,132.4566411972046,132.4566411972046,132.4566411972046,132.4566411972046,132.4566411972046,132.4566411972046,134.35957837104797,2,2.0465660095214844,None,,,,,,,,,,,,,,,,,,134,4,2025-02-26_15h59.27.863,comp,2024.2.4,None,2025-02-26 15h59.40.251532 -0500,
8,8,0,filler_square,None,None,None,None,None,None,None,None,None,None,3,1.8488681316375732,None,,,,,0,0,0,0,0,8,8,197,134.37545704841614,,,,,,,,,,,,,,,,,,,,,,,,,,,,,,,,,,,,,,,,,,,,,,,,,,,,,,,,,,,,,,,,,,,,,,,,,,,,,,,,,128.10930685892234,94.64786392568013,144.356963597788,142.01271663165483,179.71181156275884,179.71181156275884,2.2,2.22,-214,288,0,-284,257,-289,134.3616600036621,134.3617422580719,134.3646364212036,134.37545704841614,134.52467465400696,134.52467465400696,134.52467465400696,134.52467465400696,134.52467465400696,134.52467465400696,134.52467465400696,136.2410352230072,3,1.8488681316375732,None,,,,,,,,,,,,,,,,,,134,4,2025-02-26_15h59.27.863,comp,2024.2.4,None,2025-02-26 15h59.40.251532 -0500,
9,9,0,critical,dhw,35.0,3.0,upper,127.0,127.0,200.0,125.0,125.0,200.0,3,3.287705421447754,None,,,,,0,0,0,0,0,9,9,51,136.2563338279724,,,,,,,,,,,,,,,,,,,,,,,,,,,,,,,,,,,,,,,,,,,,,,,,,,,,,,,,,,,,,,,,,,,,,,,,,,,,,,,,,127.0,127.0,200.0,125.0,125.0,200.0,3.0,3.1,-222,276,0,7,258,-283,136.24250292778015,136.2425765991211,136.2460036277771,136.2563338279724,136.40634393692017,136.40634393692017,136.40634393692017,136.40634393692017,136.40634393692017,136.40634393692017,136.40634393692017,139.5592818260193,3,3.287705421447754,None,,,,,,,,,,,,,,,,,,134,4,2025-02-26_15h59.27.863,comp,2024.2.4,None,2025-02-26 15h59.40.251532 -0500,
10,10,0,critical,wdh,20.0,1.0,upper,125.0,200.0,141.0,141.0,200.0,125.0,1,2.6732561588287354,None,,,,,0,0,0,0,0,10,10,79,139.57460856437683,,,,,,,,,,,,,,,,,,,,,,,,,,,,,,,,,,,,,,,,,,,,,,,,,,,,,,,,,,,,,,,,,,,,,,,,,,,,,,,,,125.0,200.0,141.0,141.0,200.0,125.0,1.0,1.1,-746,259,-480,267,-251,287,139.56082558631897,139.5609006881714,139.56427454948425,139.57460856437683,139.72308325767517,139.72308325767517,139.72308325767517,139.72308325767517,139.72308325767517,139.72308325767517,139.72308325767517,142.25847578048706,1,2.6732561588287354,None,,,,,,,,,,,,,,,,,,134,4,2025-02-26_15h59.27.863,comp,2024.2.4,None,2025-02-26 15h59.40.251532 -0500,
11,11,0,critical,wdh,35.0,2.1,upper,125.0,200.0,127.0,127.0,200.0,125.0,1,3.6936984062194824,None,,,,,0,0,0,0,0,11,11,9,142.27485132217407,,,,,,,,,,,,,,,,,,,,,,,,,,,,,,,,,,,,,,,,,,,,,,,,,,,,,,,,,,,,,,,,,,,,,,,,,,,,,,,,,125.0,200.0,127.0,127.0,200.0,125.0,2.1,2.12,-260,-253,0,-288,222,281,142.26002264022827,142.26009845733643,142.263103723526,142.27485132217407,142.43641543388367,142.43641543388367,142.43641543388367,142.43641543388367,142.43641543388367,142.43641543388367,142.43641543388367,145.971843957901,1,3.6936984062194824,None,,,,,,,,,,,,,,,,,,134,4,2025-02-26_15h59.27.863,comp,2024.2.4,None,2025-02-26 15h59.40.251532 -0500,
12,12,0,critical,wdh,20.0,3.0,upper,125.0,200.0,141.0,141.0,200.0,125.0,1,1.6156909465789795,None,,,,,0,0,0,0,0,12,12,81,145.99212288856506,,,,,,,,,,,,,,,,,,,,,,,,,,,,,,,,,,,,,,,,,,,,,,,,,,,,,,,,,,,,,,,,,,,,,,,,,,,,,,,,,125.0,200.0,141.0,141.0,200.0,125.0,3.0,3.2,-266,-262,0,8,229,288,145.97334146499634,145.97342085838318,145.97633385658264,145.99212288856506,146.1289439201355,146.1289439201355,146.1289439201355,146.1289439201355,146.1289439201355,146.1289439201355,146.1289439201355,147.61156797409058,1,1.6156909465789795,None,,,,,,,,,,,,,,,,,,134,4,2025-02-26_15h59.27.863,comp,2024.2.4,None,2025-02-26 15h59.40.251532 -0500,
13,13,0,critical,whd,20.0,2.1,lower,57.0,133.0,133.0,57.0,78.0,78.0,2,6.428467750549316,None,,,,,0,0,0,0,0,13,13,38,147.6279022693634,,,,,,,,,,,,,,,,,,,,,,,,,,,,,,,,,,,,,,,,,,,,,,,,,,,,,,,,,,,,,,,,,,,,,,,,,,,,,,,,,57.0,133.0,133.0,57.0,78.0,78.0,2.1,2.12,-191,-284,0,-282,164,270,147.6132562160492,147.61335611343384,147.61686778068542,147.6279022693634,147.78040075302124,147.78040075302124,147.78040075302124,147.78040075302124,147.78040075302124,147.78040075302124,147.78040075302124,154.0633955001831,2,6.428467750549316,None,,,,,,,,,,,,,,,,,,134,4,2025-02-26_15h59.27.863,comp,2024.2.4,None,2025-02-26 15h59.40.251532 -0500,
14,14,0,critical,hdw,20.0,3.0,upper,200.0,125.0,141.0,141.0,125.0,200.0,3,5.176285028457642,None,,,,,0,0,0,0,0,14,14,117,154.07958149909973,,,,,,,,,,,,,,,,,,,,,,,,,,,,,,,,,,,,,,,,,,,,,,,,,,,,,,,,,,,,,,,,,,,,,,,,,,,,,,,,,200.0,125.0,141.0,141.0,125.0,200.0,3.0,3.1,-229,290,0,-18,266,-264,154.06494998931885,154.06505393981934,154.06860518455505,154.07958149909973,154.23059511184692,154.23059511184692,154.23059511184692,154.23059511184692,154.23059511184692,154.23059511184692,154.23059511184692,159.2650694847107,3,5.176285028457642,None,,,,,,,,,,,,,,,,,,134,4,2025-02-26_15h59.27.863,comp,2024.2.4,None,2025-02-26 15h59.40.251532 -0500,
15,15,0,filler_square,None,None,None,None,None,None,None,None,None,None,1,1.1339943408966064,None,,,,,0,0,0,0,0,15,15,192,159.28180313110352,,,,,,,,,,,,,,,,,,,,,,,,,,,,,,,,,,,,,,,,,,,,,,,,,,,,,,,,,,,,,,,,,,,,,,,,,,,,,,,,,131.94353788512865,131.94353788512865,61.06215688173006,66.88442264457557,127.22279920689336,115.76706150478321,2.2,2.22,-195,272,0,-261,187,-280,159.26716685295105,159.26724767684937,159.2708079814911,159.28180313110352,159.4316737651825,159.4316737651825,159.4316737651825,159.4316737651825,159.4316737651825,159.4316737651825,159.4316737651825,160.42800664901733,1,1.1339943408966064,None,,,,,,,,,,,,,,,,,,134,4,2025-02-26_15h59.27.863,comp,2024.2.4,None,2025-02-26 15h59.40.251532 -0500,
16,16,0,critical,wdh,35.0,1.0,lower,57.0,133.0,70.0,70.0,133.0,57.0,1,4.194307804107666,None,,,,,0,0,0,0,0,16,16,72,160.446227312088,,,,,,,,,,,,,,,,,,,,,,,,,,,,,,,,,,,,,,,,,,,,,,,,,,,,,,,,,,,,,,,,,,,,,,,,,,,,,,,,,57.0,133.0,70.0,70.0,133.0,57.0,1.0,1.3,282,-258,480,-255,640,-287,160.42961859703064,160.4297411441803,160.43310713768005,160.446227312088,160.59470343589783,160.59470343589783,160.59470343589783,160.59470343589783,160.59470343589783,160.59470343589783,160.59470343589783,164.65103101730347,1,4.194307804107666,None,,,,,,,,,,,,,,,,,,134,4,2025-02-26_15h59.27.863,comp,2024.2.4,None,2025-02-26 15h59.40.251532 -0500,
17,17,0,critical,whd,35.0,4.0,upper,125.0,200.0,200.0,125.0,127.0,127.0,1,2.2451531887054443,None,,,,,0,0,0,0,0,17,17,89,164.66731429100037,,,,,,,,,,,,,,,,,,,,,,,,,,,,,,,,,,,,,,,,,,,,,,,,,,,,,,,,,,,,,,,,,,,,,,,,,,,,,,,,,125.0,200.0,200.0,125.0,127.0,127.0,4.0,4.1,-258,-276,0,-9,222,-279,164.65262961387634,164.65275359153748,164.6562623977661,164.66731429100037,164.82120871543884,164.82120871543884,164.82120871543884,164.82120871543884,164.82120871543884,164.82120871543884,164.82120871543884,166.91576313972473,1,2.2451531887054443,None,,,,,,,,,,,,,,,,,,134,4,2025-02-26_15h59.27.863,comp,2024.2.4,None,2025-02-26 15h59.40.251532 -0500,
18,18,0,critical,hwd,20.0,2.1,upper,200.0,125.0,125.0,200.0,141.0,141.0,2,2.3152787685394287,None,,,,,0,0,0,0,0,18,18,19,166.93260526657104,,,,,,,,,,,,,,,,,,,,,,,,,,,,,,,,,,,,,,,,,,,,,,,,,,,,,,,,,,,,,,,,,,,,,,,,,,,,,,,,,200.0,125.0,125.0,200.0,141.0,141.0,2.1,2.12,-258,-285,0,-256,266,282,166.91743683815002,166.91751217842102,166.92079186439514,166.93260526657104,167.06923842430115,167.06923842430115,167.06923842430115,167.06923842430115,167.06923842430115,167.06923842430115,167.06923842430115,169.25147366523743,2,2.3152787685394287,None,,,,,,,,,,,,,,,,,,134,4,2025-02-26_15h59.27.863,comp,2024.2.4,None,2025-02-26 15h59.40.251532 -0500,
19,19,0,catch,None,None,None,None,None,None,None,None,None,None,3,1.250903606414795,None,,,,,0,0,0,0,0,19,19,125,169.2690372467041,,,,,,,,,,,,,,,,,,,,,,,,,,,,,,,,,,,,,,,,,,,,,,,,,,,,,,,,,,,,,,,,,,,,,,,,,,,,,,,,,114,76,126,64,170,155,1.0,1.2,-166,6,0,-13,206,0,169.25357818603516,169.2536542415619,169.2572422027588,169.2690372467041,169.4235463142395,169.4235463142395,169.4235463142395,169.4235463142395,169.4235463142395,169.4235463142395,169.4235463142395,170.53446650505066,3,1.250903606414795,None,,,,,,,,,,,,,,,,,,134,4,2025-02-26_15h59.27.863,comp,2024.2.4,None,2025-02-26 15h59.40.251532 -0500,
20,20,0,filler_square,None,None,None,None,None,None,None,None,None,None,3,1.5696141719818115,None,,,,,0,0,0,0,0,20,20,190,170.55034685134888,,,,,,,,,,,,,,,,,,,,,,,,,,,,,,,,,,,,,,,,,,,,,,,,,,,,,,,,,,,,,,,,,,,,,,,,,,,,,,,,,101.4055750163311,64.37491200730172,67.83643525386285,58.93784872827455,111.38053167924707,111.38053167924707,2.2,2.21,-158,-277,0,257,181,260,170.53627228736877,170.53634643554688,170.53945422172546,170.55034685134888,170.70635795593262,170.70635795593262,170.70635795593262,170.70635795593262,170.70635795593262,170.70635795593262,170.70635795593262,172.1354055404663,3,1.5696141719818115,None,,,,,,,,,,,,,,,,,,134,4,2025-02-26_15h59.27.863,comp,2024.2.4,None,2025-02-26 15h59.40.251532 -0500,
21,21,0,critical,whd,35.0,2.1,upper,125.0,200.0,200.0,125.0,127.0,127.0,2,3.6493420600891113,None,,,,,0,0,0,0,0,21,21,13,172.1512815952301,,,,,,,,,,,,,,,,,,,,,,,,,,,,,,,,,,,,,,,,,,,,,,,,,,,,,,,,,,,,,,,,,,,,,,,,,,,,,,,,,125.0,200.0,200.0,125.0,127.0,127.0,2.1,2.11,-258,289,0,281,222,-270,172.1369972229004,172.13707852363586,172.14063715934753,172.1512815952301,172.30018281936646,172.30018281936646,172.30018281936646,172.30018281936646,172.30018281936646,172.30018281936646,172.30018281936646,175.80377221107483,2,3.6493420600891113,None,,,,,,,,,,,,,,,,,,134,4,2025-02-26_15h59.27.863,comp,2024.2.4,None,2025-02-26 15h59.40.251532 -0500,
22,22,0,critical,wdh,35.0,2.1,lower,57.0,133.0,70.0,70.0,133.0,57.0,3,4.683654308319092,None,,,,,0,0,0,0,0,22,22,32,175.8202784061432,,,,,,,,,,,,,,,,,,,,,,,,,,,,,,,,,,,,,,,,,,,,,,,,,,,,,,,,,,,,,,,,,,,,,,,,,,,,,,,,,57.0,133.0,70.0,70.0,133.0,57.0,2.1,2.12,-198,-269,0,-256,160,269,175.805317401886,175.8053960800171,175.8086462020874,175.8202784061432,175.96913838386536,175.96913838386536,175.96913838386536,175.96913838386536,175.96913838386536,175.96913838386536,175.96913838386536,180.5212972164154,3,4.683654308319092,None,,,,,,,,,,,,,,,,,,134,4,2025-02-26_15h59.27.863,comp,2024.2.4,None,2025-02-26 15h59.40.251532 -0500,
23,23,0,filler_square,None,None,None,None,None,None,None,None,None,None,2,1.8466119766235352,None,,,,,0,0,0,0,0,23,23,193,180.53771305084229,,,,,,,,,,,,,,,,,,,,,,,,,,,,,,,,,,,,,,,,,,,,,,,,,,,,,,,,,,,,,,,,,,,,,,,,,,,,,,,,,112.3726327059814,82.34331698511151,180.89231591418604,180.89231591418604,103.99558778707026,171.82903660540677,2.1,2.11,-228,262,0,250,272,-260,180.5233256816864,180.52340531349182,180.52704739570618,180.53771305084229,180.69238829612732,180.69238829612732,180.69238829612732,180.69238829612732,180.69238829612732,180.69238829612732,180.69238829612732,182.39013051986694,2,1.8466119766235352,None,,,,,,,,,,,,,,,,,,134,4,2025-02-26_15h59.27.863,comp,2024.2.4,None,2025-02-26 15h59.40.251532 -0500,
24,24,0,critical,hdw,35.0,2.1,lower,133.0,57.0,70.0,70.0,57.0,133.0,3,2.6532301902770996,None,,,,,0,0,0,0,0,24,24,20,182.4106481075287,,,,,,,,,,,,,,,,,,,,,,,,,,,,,,,,,,,,,,,,,,,,,,,,,,,,,,,,,,,,,,,,,,,,,,,,,,,,,,,,,133.0,57.0,70.0,70.0,57.0,133.0,2.1,2.11,-160,267,0,258,198,-284,182.39168643951416,182.3917624950409,182.39516830444336,182.4106481075287,182.55519723892212,182.55519723892212,182.55519723892212,182.55519723892212,182.55519723892212,182.55519723892212,182.55519723892212,185.0745084285736,3,2.6532301902770996,None,,,,,,,,,,,,,,,,,,134,4,2025-02-26_15h59.27.863,comp,2024.2.4,None,2025-02-26 15h59.40.251532 -0500,
25,25,0,critical,hdw,20.0,2.1,upper,200.0,125.0,141.0,141.0,125.0,200.0,3,4.837251424789429,None,,,,,0,0,0,0,0,25,25,47,185.09091067314148,,,,,,,,,,,,,,,,,,,,,,,,,,,,,,,,,,,,,,,,,,,,,,,,,,,,,,,,,,,,,,,,,,,,,,,,,,,,,,,,,200.0,125.0,141.0,141.0,125.0,200.0,2.1,2.12,-229,-273,0,-278,266,289,185.07638883590698,185.07651948928833,185.08016109466553,185.09091067314148,185.24280667304993,185.24280667304993,185.24280667304993,185.24280667304993,185.24280667304993,185.24280667304993,185.24280667304993,189.9312286376953,3,4.837251424789429,None,,,,,,,,,,,,,,,,,,134,4,2025-02-26_15h59.27.863,comp,2024.2.4,None,2025-02-26 15h59.40.251532 -0500,
26,26,0,critical,hdw,35.0,1.0,upper,200.0,125.0,127.0,127.0,125.0,200.0,3,2.2408931255340576,None,,,,,0,0,0,0,0,26,26,109,189.9509584903717,,,,,,,,,,,,,,,,,,,,,,,,,,,,,,,,,,,,,,,,,,,,,,,,,,,,,,,,,,,,,,,,,,,,,,,,,,,,,,,,,200.0,125.0,127.0,127.0,125.0,200.0,1.0,1.1,-702,260,-480,270,-220,257,189.93286275863647,189.93299436569214,189.93635725975037,189.9509584903717,190.094176530838,190.094176530838,190.094176530838,190.094176530838,190.094176530838,190.094176530838,190.094176530838,192.2084038257599,3,2.2408931255340576,None,,,,,,,,,,,,,,,,,,134,4,2025-02-26_15h59.27.863,comp,2024.2.4,None,2025-02-26 15h59.40.251532 -0500,
27,27,0,critical,whd,35.0,2.1,upper,125.0,200.0,200.0,125.0,127.0,127.0,1,2.584242582321167,None,,,,,0,0,0,0,0,27,27,37,192.22374153137207,,,,,,,,,,,,,,,,,,,,,,,,,,,,,,,,,,,,,,,,,,,,,,,,,,,,,,,,,,,,,,,,,,,,,,,,,,,,,,,,,125.0,200.0,200.0,125.0,127.0,127.0,2.1,2.11,-258,262,0,263,222,-260,192.20992302894592,192.2100203037262,192.21343541145325,192.22374153137207,192.38096237182617,192.38096237182617,192.38096237182617,192.38096237182617,192.38096237182617,192.38096237182617,192.38096237182617,194.8248691558838,1,2.584242582321167,None,,,,,,,,,,,,,,,,,,134,4,2025-02-26_15h59.27.863,comp,2024.2.4,None,2025-02-26 15h59.40.251532 -0500,
28,28,0,critical,whd,35.0,4.0,lower,57.0,133.0,133.0,57.0,70.0,70.0,2,3.1520779132843018,None,,,,,0,0,0,0,0,28,28,88,194.84040355682373,,,,,,,,,,,,,,,,,,,,,,,,,,,,,,,,,,,,,,,,,,,,,,,,,,,,,,,,,,,,,,,,,,,,,,,,,,,,,,,,,57.0,133.0,133.0,57.0,70.0,70.0,4.0,4.1,-191,-288,0,10,160,-286,194.82636499404907,194.8264398574829,194.82961702346802,194.84040355682373,194.9796884059906,194.9796884059906,194.9796884059906,194.9796884059906,194.9796884059906,194.9796884059906,194.9796884059906,197.99944806098938,2,3.1520779132843018,None,,,,,,,,,,,,,,,,,,134,4,2025-02-26_15h59.27.863,comp,2024.2.4,None,2025-02-26 15h59.40.251532 -0500,
29,29,0,critical,hwd,35.0,4.0,lower,133.0,57.0,57.0,133.0,70.0,70.0,2,3.2673797607421875,None,,,,,0,0,0,0,0,29,29,100,198.02051830291748,,,,,,,,,,,,,,,,,,,,,,,,,,,,,,,,,,,,,,,,,,,,,,,,,,,,,,,,,,,,,,,,,,,,,,,,,,,,,,,,,133.0,57.0,57.0,133.0,70.0,70.0,4.0,4.2,-191,10,0,-269,198,-19,198.00112223625183,198.0012559890747,198.0045518875122,198.02051830291748,198.16218852996826,198.16218852996826,198.16218852996826,198.16218852996826,198.16218852996826,198.16218852996826,198.16218852996826,201.29869103431702,2,3.2673797607421875,None,,,,,,,,,,,,,,,,,,134,4,2025-02-26_15h59.27.863,comp,2024.2.4,None,2025-02-26 15h59.40.251532 -0500,
30,30,0,filler_random,None,None,None,None,None,None,None,None,None,None,2,1.4267327785491943,None,,,,,0,0,0,0,0,30,30,139,201.31752395629883,,,,,,,,,,,,,,,,,,,,,,,,,,,,,,,,,,,,,,,,,,,,,,,,,,,,,,,,,,,,,,,,,,,,,,,,,,,,,,,,,101.86518444520394,149.57432351864955,177.40535405182789,191.65827055180065,161.94796897039063,82.12077643203766,2.2,2.21,-267,-265,0,269,233,273,201.30052423477173,201.30060195922852,201.30355787277222,201.31752395629883,201.46162343025208,201.46162343025208,201.46162343025208,201.46162343025208,201.46162343025208,201.46162343025208,201.46162343025208,202.76052689552307,2,1.4267327785491943,None,,,,,,,,,,,,,,,,,,134,4,2025-02-26_15h59.27.863,comp,2024.2.4,None,2025-02-26 15h59.40.251532 -0500,
31,31,0,catch,None,None,None,None,None,None,None,None,None,None,2,1.2230651378631592,None,,,,,0,0,0,0,0,31,31,121,202.7769010066986,,,,,,,,,,,,,,,,,,,,,,,,,,,,,,,,,,,,,,,,,,,,,,,,,,,,,,,,,,,,,,,,,,,,,,,,,,,,,,,,,85,105,179,146,64,126,2.2,2.21,-222,-260,0,277,232,284,202.76248574256897,202.76256465911865,202.76556777954102,202.7769010066986,202.91757488250732,202.91757488250732,202.91757488250732,202.91757488250732,202.91757488250732,202.91757488250732,202.91757488250732,204.0104603767395,2,1.2230651378631592,None,,,,,,,,,,,,,,,,,,134,4,2025-02-26_15h59.27.863,comp,2024.2.4,None,2025-02-26 15h59.40.251532 -0500,
32,32,0,critical,hwd,20.0,3.0,upper,200.0,125.0,125.0,200.0,141.0,141.0,1,3.1662046909332275,None,,,,,0,0,0,0,0,32,32,105,204.0258138179779,,,,,,,,,,,,,,,,,,,,,,,,,,,,,,,,,,,,,,,,,,,,,,,,,,,,,,,,,,,,,,,,,,,,,,,,,,,,,,,,,200.0,125.0,125.0,200.0,141.0,141.0,3.0,3.2,-258,-276,0,17,266,287,204.0120816230774,204.01216053962708,204.01522541046143,204.0258138179779,204.17822265625,204.17822265625,204.17822265625,204.17822265625,204.17822265625,204.17822265625,204.17822265625,207.20356345176697,1,3.1662046909332275,None,,,,,,,,,,,,,,,,,,134,4,2025-02-26_15h59.27.863,comp,2024.2.4,None,2025-02-26 15h59.40.251532 -0500,
33,33,0,filler_square,None,None,None,None,None,None,None,None,None,None,2,1.389218807220459,None,,,,,0,0,0,0,0,33,33,200,207.21921563148499,,,,,,,,,,,,,,,,,,,,,,,,,,,,,,,,,,,,,,,,,,,,,,,,,,,,,,,,,,,,,,,,,,,,,,,,,,,,,,,,,132.89717390991217,58.25744214757507,197.19309223779578,197.19309223779578,57.67982124972572,129.4127398455181,2.1,2.11,-224,289,0,268,259,-282,207.20531797409058,207.20539450645447,207.20830750465393,207.21921563148499,207.36352729797363,207.36352729797363,207.36352729797363,207.36352729797363,207.36352729797363,207.36352729797363,207.36352729797363,208.61361980438232,2,1.389218807220459,None,,,,,,,,,,,,,,,,,,134,4,2025-02-26_15h59.27.863,comp,2024.2.4,None,2025-02-26 15h59.40.251532 -0500,
34,34,0,filler_random,None,None,None,None,None,None,None,None,None,None,1,1.1945171356201172,None,,,,,0,0,0,0,0,34,34,164,208.6302695274353,,,,,,,,,,,,,,,,,,,,,,,,,,,,,,,,,,,,,,,,,,,,,,,,,,,,,,,,,,,,,,,,,,,,,,,,,,,,,,,,,159.54035921818783,171.78504611788406,59.8449695901854,177.4612783357801,136.75970987227106,75.06579985410998,1.0,1.3,209,-280,480,-288,702,-261,208.6154065132141,208.61548781394958,208.61869382858276,208.6302695274353,208.78440022468567,208.78440022468567,208.78440022468567,208.78440022468567,208.78440022468567,208.78440022468567,208.78440022468567,209.8293957710266,1,1.1945171356201172,None,,,,,,,,,,,,,,,,,,134,4,2025-02-26_15h59.27.863,comp,2024.2.4,None,2025-02-26 15h59.40.251532 -0500,
35,35,0,filler_random,None,None,None,None,None,None,None,None,None,None,3,5.834654331207275,None,,,,,0,0,0,0,0,35,35,133,209.84613394737244,,,,,,,,,,,,,,,,,,,,,,,,,,,,,,,,,,,,,,,,,,,,,,,,,,,,,,,,,,,,,,,,,,,,,,,,,,,,,,,,,76.89887150686354,198.39757888347788,90.42544981746215,122.652574807604,98.72508863801832,196.39785169144926,2.2,2.22,-257,266,0,-269,256,-257,209.83101963996887,209.83109521865845,209.83425903320312,209.84613394737244,210.01576852798462,210.01576852798462,210.01576852798462,210.01576852798462,210.01576852798462,210.01576852798462,210.01576852798462,215.686674118042,3,5.834654331207275,None,,,,,,,,,,,,,,,,,,134,4,2025-02-26_15h59.27.863,comp,2024.2.4,None,2025-02-26 15h59.40.251532 -0500,
36,36,0,filler_random,None,None,None,None,None,None,None,None,None,None,3,1.0900988578796387,None,,,,,0,0,0,0,0,36,36,136,215.70337390899658,,,,,,,,,,,,,,,,,,,,,,,,,,,,,,,,,,,,,,,,,,,,,,,,,,,,,,,,,,,,,,,,,,,,,,,,,,,,,,,,,61.4186565239181,101.60043043968193,97.72513950093766,123.74471669413738,194.11457226090536,190.31062877905535,2.1,2.11,-209,266,0,266,253,-251,215.68871641159058,215.6887984275818,215.6921730041504,215.70337390899658,215.85007643699646,215.85007643699646,215.85007643699646,215.85007643699646,215.85007643699646,215.85007643699646,215.85007643699646,216.79764199256897,3,1.0900988578796387,None,,,,,,,,,,,,,,,,,,134,4,2025-02-26_15h59.27.863,comp,2024.2.4,None,2025-02-26 15h59.40.251532 -0500,
37,37,0,critical,wdh,20.0,2.1,upper,125.0,200.0,141.0,141.0,200.0,125.0,1,4.426957845687866,None,,,,,0,0,0,0,0,37,37,11,216.8132996559143,,,,,,,,,,,,,,,,,,,,,,,,,,,,,,,,,,,,,,,,,,,,,,,,,,,,,,,,,,,,,,,,,,,,,,,,,,,,,,,,,125.0,200.0,141.0,141.0,200.0,125.0,2.1,2.12,-266,-274,0,-263,229,253,216.7992148399353,216.7992947101593,216.80222821235657,216.8132996559143,216.95283460617065,216.95283460617065,216.95283460617065,216.95283460617065,216.95283460617065,216.95283460617065,216.95283460617065,221.24269008636475,1,4.426957845687866,None,,,,,,,,,,,,,,,,,,134,4,2025-02-26_15h59.27.863,comp,2024.2.4,None,2025-02-26 15h59.40.251532 -0500,
38,38,0,critical,dwh,35.0,2.1,lower,70.0,70.0,57.0,133.0,133.0,57.0,3,3.931041717529297,None,,,,,0,0,0,0,0,38,38,4,221.2611048221588,,,,,,,,,,,,,,,,,,,,,,,,,,,,,,,,,,,,,,,,,,,,,,,,,,,,,,,,,,,,,,,,,,,,,,,,,,,,,,,,,70.0,70.0,57.0,133.0,133.0,57.0,2.1,2.12,-198,-277,0,-275,191,255,221.2442603111267,221.2443380355835,221.24730587005615,221.2611048221588,221.39802026748657,221.39802026748657,221.39802026748657,221.39802026748657,221.39802026748657,221.39802026748657,221.39802026748657,225.2020902633667,3,3.931041717529297,None,,,,,,,,,,,,,,,,,,134,4,2025-02-26_15h59.27.863,comp,2024.2.4,None,2025-02-26 15h59.40.251532 -0500,
39,39,0,critical,hdw,20.0,3.0,lower,133.0,57.0,78.0,78.0,57.0,133.0,1,5.255597352981567,None,,,,,0,0,0,0,0,39,39,116,225.21639680862427,,,,,,,,,,,,,,,,,,,,,,,,,,,,,,,,,,,,,,,,,,,,,,,,,,,,,,,,,,,,,,,,,,,,,,,,,,,,,,,,,133.0,57.0,78.0,78.0,57.0,133.0,3.0,3.1,-164,276,0,-16,202,-272,225.2036690711975,225.20374822616577,225.20690035820007,225.21639680862427,225.3713893890381,225.3713893890381,225.3713893890381,225.3713893890381,225.3713893890381,225.3713893890381,225.3713893890381,230.48930191993713,1,5.255597352981567,None,,,,,,,,,,,,,,,,,,134,4,2025-02-26_15h59.27.863,comp,2024.2.4,None,2025-02-26 15h59.40.251532 -0500,
40,40,0,critical,hdw,35.0,3.0,lower,133.0,57.0,70.0,70.0,57.0,133.0,1,1.7831571102142334,None,,,,,0,0,0,0,0,40,40,110,230.5050826072693,,,,,,,,,,,,,,,,,,,,,,,,,,,,,,,,,,,,,,,,,,,,,,,,,,,,,,,,,,,,,,,,,,,,,,,,,,,,,,,,,133.0,57.0,70.0,70.0,57.0,133.0,3.0,3.1,-160,288,0,9,198,-273,230.4910774230957,230.49121737480164,230.49467539787292,230.5050826072693,230.65385222434998,230.65385222434998,230.65385222434998,230.65385222434998,230.65385222434998,230.65385222434998,230.65385222434998,232.29341888427734,1,1.7831571102142334,None,,,,,,,,,,,,,,,,,,134,4,2025-02-26_15h59.27.863,comp,2024.2.4,None,2025-02-26 15h59.40.251532 -0500,
41,41,0,critical,hdw,20.0,2.1,lower,133.0,57.0,78.0,78.0,57.0,133.0,3,2.4083893299102783,None,,,,,0,0,0,0,0,41,41,46,232.31175589561462,,,,,,,,,,,,,,,,,,,,,,,,,,,,,,,,,,,,,,,,,,,,,,,,,,,,,,,,,,,,,,,,,,,,,,,,,,,,,,,,,133.0,57.0,78.0,78.0,57.0,133.0,2.1,2.12,-164,-288,0,-254,202,283,232.29487252235413,232.29494881629944,232.2978389263153,232.31175589561462,232.4541461467743,232.4541461467743,232.4541461467743,232.4541461467743,232.4541461467743,232.4541461467743,232.4541461467743,234.73791766166687,3,2.4083893299102783,None,,,,,,,,,,,,,,,,,,134,4,2025-02-26_15h59.27.863,comp,2024.2.4,None,2025-02-26 15h59.40.251532 -0500,
42,42,0,filler_random,None,None,None,None,None,None,None,None,None,None,2,1.1435446739196777,None,,,,,0,0,0,0,0,42,42,141,234.75347232818604,,,,,,,,,,,,,,,,,,,,,,,,,,,,,,,,,,,,,,,,,,,,,,,,,,,,,,,,,,,,,,,,,,,,,,,,,,,,,,,,,171.67820771068062,68.28845011295051,194.14279142435623,72.36531731357604,96.13247514213998,100.08772500361289,1.0,1.2,-166,-17,0,4,182,-5,234.73959255218506,234.73967099189758,234.74257946014404,234.75347232818604,234.90450382232666,234.90450382232666,234.90450382232666,234.90450382232666,234.90450382232666,234.90450382232666,234.90450382232666,235.90603971481323,2,1.1435446739196777,None,,,,,,,,,,,,,,,,,,134,4,2025-02-26_15h59.27.863,comp,2024.2.4,None,2025-02-26 15h59.40.251532 -0500,
43,43,0,filler_random,None,None,None,None,None,None,None,None,None,None,2,1.509974718093872,None,,,,,0,0,0,0,0,43,43,152,235.92218446731567,,,,,,,,,,,,,,,,,,,,,,,,,,,,,,,,,,,,,,,,,,,,,,,,,,,,,,,,,,,,,,,,,,,,,,,,,,,,,,,,,103.31976035046497,101.74462077329244,189.17722897985354,148.08948903167408,148.10370528209342,139.09885262887838,4.0,4.1,-221,-285,0,-11,240,-282,235.9078767299652,235.9080352783203,235.91139817237854,235.92218446731567,236.0610752105713,236.0610752105713,236.0610752105713,236.0610752105713,236.0610752105713,236.0610752105713,236.0610752105713,237.4365918636322,2,1.509974718093872,None,,,,,,,,,,,,,,,,,,134,4,2025-02-26_15h59.27.863,comp,2024.2.4,None,2025-02-26 15h59.40.251532 -0500,
44,44,0,filler_square,None,None,None,None,None,None,None,None,None,None,3,1.5829763412475586,None,,,,,0,0,0,0,0,44,44,171,237.457284450531,,,,,,,,,,,,,,,,,,,,,,,,,,,,,,,,,,,,,,,,,,,,,,,,,,,,,,,,,,,,,,,,,,,,,,,,,,,,,,,,,164.81797850156954,171.83226853703454,165.3537962041878,132.68781624215922,197.24614216086556,197.24614216086556,2.2,2.21,-248,-273,0,252,261,285,237.43847942352295,237.43860721588135,237.44186067581177,237.457284450531,237.58914947509766,237.58914947509766,237.58914947509766,237.58914947509766,237.58914947509766,237.58914947509766,237.58914947509766,239.0555293560028,3,1.5829763412475586,None,,,,,,,,,,,,,,,,,,134,4,2025-02-26_15h59.27.863,comp,2024.2.4,None,2025-02-26 15h59.40.251532 -0500,
45,45,0,critical,hwd,35.0,2.1,upper,200.0,125.0,125.0,200.0,127.0,127.0,2,2.009258270263672,None,,,,,0,0,0,0,0,45,45,17,239.0715069770813,,,,,,,,,,,,,,,,,,,,,,,,,,,,,,,,,,,,,,,,,,,,,,,,,,,,,,,,,,,,,,,,,,,,,,,,,,,,,,,,,200.0,125.0,125.0,200.0,127.0,127.0,2.1,2.11,-258,267,0,254,260,-264,239.05695629119873,239.05706453323364,239.06019759178162,239.0715069770813,239.21943020820618,239.21943020820618,239.21943020820618,239.21943020820618,239.21943020820618,239.21943020820618,239.21943020820618,241.09096217155457,2,2.009258270263672,None,,,,,,,,,,,,,,,,,,134,4,2025-02-26_15h59.27.863,comp,2024.2.4,None,2025-02-26 15h59.40.251532 -0500,
46,46,0,filler_square,None,None,None,None,None,None,None,None,None,None,1,2.325551986694336,None,,,,,0,0,0,0,0,46,46,194,241.1072494983673,,,,,,,,,,,,,,,,,,,,,,,,,,,,,,,,,,,,,,,,,,,,,,,,,,,,,,,,,,,,,,,,,,,,,,,,,,,,,,,,,145.44895145234887,145.44895145234887,122.61202637790379,85.56121506216961,128.08217500254165,126.19177499220797,3.0,3.1,-212,254,0,-12,202,-258,241.0928556919098,241.09293961524963,241.09640550613403,241.1072494983673,241.2583703994751,241.2583703994751,241.2583703994751,241.2583703994751,241.2583703994751,241.2583703994751,241.2583703994751,243.43879652023315,1,2.325551986694336,None,,,,,,,,,,,,,,,,,,134,4,2025-02-26_15h59.27.863,comp,2024.2.4,None,2025-02-26 15h59.40.251532 -0500,
47,47,0,critical,dwh,20.0,2.1,upper,141.0,141.0,125.0,200.0,200.0,125.0,2,5.177545785903931,None,,,,,0,0,0,0,0,47,47,7,243.4554409980774,,,,,,,,,,,,,,,,,,,,,,,,,,,,,,,,,,,,,,,,,,,,,,,,,,,,,,,,,,,,,,,,,,,,,,,,,,,,,,,,,141.0,141.0,125.0,200.0,200.0,125.0,2.1,2.11,-266,285,0,266,258,-280,243.44046139717102,243.44059419631958,243.44401240348816,243.4554409980774,243.6133131980896,243.6133131980896,243.6133131980896,243.6133131980896,243.6133131980896,243.6133131980896,243.6133131980896,248.63484573364258,2,5.177545785903931,None,,,,,,,,,,,,,,,,,,134,4,2025-02-26_15h59.27.863,comp,2024.2.4,None,2025-02-26 15h59.40.251532 -0500,
48,48,0,filler_square,None,None,None,None,None,None,None,None,None,None,2,1.6371917724609375,None,,,,,0,0,0,0,0,48,48,191,248.6512017250061,,,,,,,,,,,,,,,,,,,,,,,,,,,,,,,,,,,,,,,,,,,,,,,,,,,,,,,,,,,,,,,,,,,,,,,,,,,,,,,,,97.05630752710707,61.03662455740862,114.5185671912906,114.5185671912906,71.67568704819737,74.47974166795126,4.0,4.1,-184,-277,0,-11,190,-256,248.636568069458,248.63664507865906,248.6395218372345,248.6512017250061,248.79783987998962,248.79783987998962,248.79783987998962,248.79783987998962,248.79783987998962,248.79783987998962,248.79783987998962,250.29230308532715,2,1.6371917724609375,None,,,,,,,,,,,,,,,,,,134,4,2025-02-26_15h59.27.863,comp,2024.2.4,None,2025-02-26 15h59.40.251532 -0500,
49,49,0,filler_square,None,None,None,None,None,None,None,None,None,None,2,1.1153934001922607,None,,,,,0,0,0,0,0,49,49,170,250.31770539283752,,,,,,,,,,,,,,,,,,,,,,,,,,,,,,,,,,,,,,,,,,,,,,,,,,,,,,,,,,,,,,,,,,,,,,,,,,,,,,,,,108.32172246770115,159.59603108751597,163.28950033666064,163.28950033666064,152.28618338596593,90.89002660608148,4.0,4.1,-257,-275,0,9,223,-265,250.29420113563538,250.2943160533905,250.29761791229248,250.31770539283752,250.4607105255127,250.4607105255127,250.4607105255127,250.4607105255127,250.4607105255127,250.4607105255127,250.4607105255127,251.44478154182434,2,1.1153934001922607,None,,,,,,,,,,,,,,,,,,134,4,2025-02-26_15h59.27.863,comp,2024.2.4,None,2025-02-26 15h59.40.251532 -0500,
50,50,0,critical,hwd,20.0,3.0,lower,133.0,57.0,57.0,133.0,78.0,78.0,1,2.6433451175689697,None,,,,,0,0,0,0,0,50,50,104,251.4607973098755,,,,,,,,,,,,,,,,,,,,,,,,,,,,,,,,,,,,,,,,,,,,,,,,,,,,,,,,,,,,,,,,,,,,,,,,,,,,,,,,,133.0,57.0,57.0,133.0,78.0,78.0,3.0,3.2,-191,-288,0,-2,202,280,251.4463632106781,251.44643926620483,251.44987082481384,251.4607973098755,251.60618543624878,251.60618543624878,251.60618543624878,251.60618543624878,251.60618543624878,251.60618543624878,251.60618543624878,254.1073122024536,1,2.6433451175689697,None,,,,,,,,,,,,,,,,,,134,4,2025-02-26_15h59.27.863,comp,2024.2.4,None,2025-02-26 15h59.40.251532 -0500,
51,51,0,filler_square,None,None,None,None,None,None,None,None,None,None,1,5.965627908706665,None,,,,,0,0,0,0,0,51,51,184,254.12442016601562,,,,,,,,,,,,,,,,,,,,,,,,,,,,,,,,,,,,,,,,,,,,,,,,,,,,,,,,,,,,,,,,,,,,,,,,,,,,,,,,,61.71807464810312,61.71807464810312,58.21458385257259,57.680051176405826,57.487184891156005,59.58153932819444,4.0,4.1,-156,-276,0,-18,155,-260,254.10930132865906,254.10938358306885,254.1126651763916,254.12442016601562,254.2770688533783,254.2770688533783,254.2770688533783,254.2770688533783,254.2770688533783,254.2770688533783,254.2770688533783,260.09506273269653,1,5.965627908706665,None,,,,,,,,,,,,,,,,,,134,4,2025-02-26_15h59.27.863,comp,2024.2.4,None,2025-02-26 15h59.40.251532 -0500,
52,52,0,critical,hwd,35.0,2.1,lower,133.0,57.0,57.0,133.0,70.0,70.0,2,5.168483257293701,None,,,,,0,0,0,0,0,52,52,40,260.11154294013977,,,,,,,,,,,,,,,,,,,,,,,,,,,,,,,,,,,,,,,,,,,,,,,,,,,,,,,,,,,,,,,,,,,,,,,,,,,,,,,,,133.0,57.0,57.0,133.0,70.0,70.0,2.1,2.11,-191,275,0,287,198,-278,260.0965950489044,260.0966763496399,260.0996789932251,260.11154294013977,260.26535272598267,260.26535272598267,260.26535272598267,260.26535272598267,260.26535272598267,260.26535272598267,260.26535272598267,265.2971155643463,2,5.168483257293701,None,,,,,,,,,,,,,,,,,,134,4,2025-02-26_15h59.27.863,comp,2024.2.4,None,2025-02-26 15h59.40.251532 -0500,
53,53,0,filler_square,None,None,None,None,None,None,None,None,None,None,1,2.015594244003296,None,,,,,0,0,0,0,0,53,53,188,265.3132073879242,,,,,,,,,,,,,,,,,,,,,,,,,,,,,,,,,,,,,,,,,,,,,,,,,,,,,,,,,,,,,,,,,,,,,,,,,,,,,,,,,148.65081786617657,148.65081786617657,144.59016569638612,68.00892936555601,114.32855859552512,87.72832967572613,2.2,2.22,-204,276,0,-263,174,-253,265.29914689064026,265.2992248535156,265.3025498390198,265.3132073879242,265.46629333496094,265.46629333496094,265.46629333496094,265.46629333496094,265.46629333496094,265.46629333496094,265.46629333496094,267.3336179256439,1,2.015594244003296,None,,,,,,,,,,,,,,,,,,134,4,2025-02-26_15h59.27.863,comp,2024.2.4,None,2025-02-26 15h59.40.251532 -0500,
54,54,0,critical,dhw,35.0,4.0,upper,127.0,127.0,200.0,125.0,125.0,200.0,3,2.0340445041656494,None,,,,,0,0,0,0,0,54,54,53,267.3502461910248,,,,,,,,,,,,,,,,,,,,,,,,,,,,,,,,,,,,,,,,,,,,,,,,,,,,,,,,,,,,,,,,,,,,,,,,,,,,,,,,,127.0,127.0,200.0,125.0,125.0,200.0,4.0,4.1,-222,-279,0,-2,258,-270,267.3351902961731,267.33531665802,267.3392651081085,267.3502461910248,267.4998588562012,267.4998588562012,267.4998588562012,267.4998588562012,267.4998588562012,267.4998588562012,267.4998588562012,269.38910245895386,3,2.0340445041656494,None,,,,,,,,,,,,,,,,,,134,4,2025-02-26_15h59.27.863,comp,2024.2.4,None,2025-02-26 15h59.40.251532 -0500,
55,55,0,critical,dhw,35.0,2.1,upper,127.0,127.0,200.0,125.0,125.0,200.0,3,2.663593053817749,None,,,,,0,0,0,0,0,55,55,1,269.408499956131,,,,,,,,,,,,,,,,,,,,,,,,,,,,,,,,,,,,,,,,,,,,,,,,,,,,,,,,,,,,,,,,,,,,,,,,,,,,,,,,,127.0,127.0,200.0,125.0,125.0,200.0,2.1,2.11,-222,280,0,255,258,-289,269.3907103538513,269.39084672927856,269.39417457580566,269.408499956131,269.5524685382843,269.5524685382843,269.5524685382843,269.5524685382843,269.5524685382843,269.5524685382843,269.5524685382843,272.0830523967743,3,2.663593053817749,None,,,,,,,,,,,,,,,,,,134,4,2025-02-26_15h59.27.863,comp,2024.2.4,None,2025-02-26 15h59.40.251532 -0500,
56,56,0,critical,whd,35.0,1.0,lower,57.0,133.0,133.0,57.0,70.0,70.0,2,5.037965536117554,None,,,,,0,0,0,0,0,56,56,84,272.0985469818115,,,,,,,,,,,,,,,,,,,,,,,,,,,,,,,,,,,,,,,,,,,,,,,,,,,,,,,,,,,,,,,,,,,,,,,,,,,,,,,,,57.0,133.0,133.0,57.0,70.0,70.0,1.0,1.3,289,-277,480,-253,640,-268,272.0845756530762,272.0846552848816,272.0876145362854,272.0985469818115,272.2502074241638,272.2502074241638,272.2502074241638,272.2502074241638,272.2502074241638,272.2502074241638,272.2502074241638,277.1422438621521,2,5.037965536117554,None,,,,,,,,,,,,,,,,,,134,4,2025-02-26_15h59.27.863,comp,2024.2.4,None,2025-02-26 15h59.40.251532 -0500,
57,57,0,critical,dhw,20.0,1.0,lower,78.0,78.0,133.0,57.0,57.0,133.0,3,2.80180025100708,None,,,,,0,0,0,0,0,57,57,54,277.1582179069519,,,,,,,,,,,,,,,,,,,,,,,,,,,,,,,,,,,,,,,,,,,,,,,,,,,,,,,,,,,,,,,,,,,,,,,,,,,,,,,,,78.0,78.0,133.0,57.0,57.0,133.0,1.0,1.1,-644,290,-480,283,-289,260,277.1438088417053,277.1438858509064,277.1472957134247,277.1582179069519,277.3025817871094,277.3025817871094,277.3025817871094,277.3025817871094,277.3025817871094,277.3025817871094,277.3025817871094,279.97336888313293,3,2.80180025100708,None,,,,,,,,,,,,,,,,,,134,4,2025-02-26_15h59.27.863,comp,2024.2.4,None,2025-02-26 15h59.40.251532 -0500,
58,58,0,critical,hdw,20.0,4.0,upper,200.0,125.0,141.0,141.0,125.0,200.0,3,7.794594049453735,None,,,,,0,0,0,0,0,58,58,119,279.98981976509094,,,,,,,,,,,,,,,,,,,,,,,,,,,,,,,,,,,,,,,,,,,,,,,,,,,,,,,,,,,,,,,,,,,,,,,,,,,,,,,,,200.0,125.0,141.0,141.0,125.0,200.0,4.0,4.2,-229,20,0,-275,266,6,279.97502636909485,279.9751183986664,279.9784951210022,279.98981976509094,280.1369082927704,280.1369082927704,280.1369082927704,280.1369082927704,280.1369082927704,280.1369082927704,280.1369082927704,287.787474155426,3,7.794594049453735,None,,,,,,,,,,,,,,,,,,134,4,2025-02-26_15h59.27.863,comp,2024.2.4,None,2025-02-26 15h59.40.251532 -0500,
59,59,0,filler_square,None,None,None,None,None,None,None,None,None,None,1,2.5967061519622803,None,,,,,0,0,0,0,0,59,59,199,287.804470539093,,,,,,,,,,,,,,,,,,,,,,,,,,,,,,,,,,,,,,,,,,,,,,,,,,,,,,,,,,,,,,,,,,,,,,,,,,,,,,,,,138.90999479978757,138.90999479978757,136.32326658479954,135.4654799570067,61.719990557752666,103.59301997154216,3.0,3.2,-233,-269,0,5,216,276,287.7893543243408,287.7894513607025,287.7926948070526,287.804470539093,287.9560794830322,287.9560794830322,287.9560794830322,287.9560794830322,287.9560794830322,287.9560794830322,287.9560794830322,290.4072651863098,1,2.5967061519622803,None,,,,,,,,,,,,,,,,,,134,4,2025-02-26_15h59.27.863,comp,2024.2.4,None,2025-02-26 15h59.40.251532 -0500,
60,60,0,critical,hdw,35.0,1.0,lower,133.0,57.0,70.0,70.0,57.0,133.0,3,2.3289544582366943,None,,,,,0,0,0,0,0,60,60,108,290.4236834049225,,,,,,,,,,,,,,,,,,,,,,,,,,,,,,,,,,,,,,,,,,,,,,,,,,,,,,,,,,,,,,,,,,,,,,,,,,,,,,,,,133.0,57.0,70.0,70.0,57.0,133.0,1.0,1.2,-160,-6,0,-20,198,-19,290.4088861942291,290.4090533256531,290.4126353263855,290.4236834049225,290.57310605049133,290.57310605049133,290.57310605049133,290.57310605049133,290.57310605049133,290.57310605049133,290.57310605049133,292.7602655887604,3,2.3289544582366943,None,,,,,,,,,,,,,,,,,,134,4,2025-02-26_15h59.27.863,comp,2024.2.4,None,2025-02-26 15h59.40.251532 -0500,
61,61,0,critical,dwh,35.0,1.0,lower,70.0,70.0,57.0,133.0,133.0,57.0,3,3.054086208343506,None,,,,,0,0,0,0,0,61,61,60,292.7779176235199,,,,,,,,,,,,,,,,,,,,,,,,,,,,,,,,,,,,,,,,,,,,,,,,,,,,,,,,,,,,,,,,,,,,,,,,,,,,,,,,,70.0,70.0,57.0,133.0,133.0,57.0,1.0,1.3,282,-281,480,-280,671,-260,292.7618045806885,292.7618799209595,292.76479053497314,292.7779176235199,292.9251666069031,292.9251666069031,292.9251666069031,292.9251666069031,292.9251666069031,292.9251666069031,292.9251666069031,295.8459575176239,3,3.054086208343506,None,,,,,,,,,,,,,,,,,,134,4,2025-02-26_15h59.27.863,comp,2024.2.4,None,2025-02-26 15h59.40.251532 -0500,
62,62,0,filler_random,None,None,None,None,None,None,None,None,None,None,2,1.642024040222168,None,,,,,0,0,0,0,0,62,62,163,295.8622703552246,,,,,,,,,,,,,,,,,,,,,,,,,,,,,,,,,,,,,,,,,,,,,,,,,,,,,,,,,,,,,,,,,,,,,,,,,,,,,,,,,154.83720017206372,114.86306417863887,160.93162766773835,114.91962455431128,96.51375741963903,62.701554146555985,2.2,2.21,-211,-280,0,263,185,285,295.8476548194885,295.84772968292236,295.85108065605164,295.8622703552246,296.00633573532104,296.00633573532104,296.00633573532104,296.00633573532104,296.00633573532104,296.00633573532104,296.00633573532104,297.514520406723,2,1.642024040222168,None,,,,,,,,,,,,,,,,,,134,4,2025-02-26_15h59.27.863,comp,2024.2.4,None,2025-02-26 15h59.40.251532 -0500,
63,63,0,filler_square,None,None,None,None,None,None,None,None,None,None,1,5.668459177017212,None,,,,,0,0,0,0,0,63,63,179,297.53240966796875,,,,,,,,,,,,,,,,,,,,,,,,,,,,,,,,,,,,,,,,,,,,,,,,,,,,,,,,,,,,,,,,,,,,,,,,,,,,,,,,,84.15040469531102,84.15040469531102,77.27920022496032,68.75213177417979,82.75682143908698,79.93686017250425,3.0,3.2,-172,-281,0,13,170,257,297.51628494262695,297.5163617134094,297.51923751831055,297.53240966796875,297.6763288974762,297.6763288974762,297.6763288974762,297.6763288974762,297.6763288974762,297.6763288974762,297.6763288974762,303.21040534973145,1,5.668459177017212,None,,,,,,,,,,,,,,,,,,134,4,2025-02-26_15h59.27.863,comp,2024.2.4,None,2025-02-26 15h59.40.251532 -0500,
64,64,0,filler_square,None,None,None,None,None,None,None,None,None,None,3,1.732729434967041,None,,,,,0,0,0,0,0,64,64,205,303.2354097366333,,,,,,,,,,,,,,,,,,,,,,,,,,,,,,,,,,,,,,,,,,,,,,,,,,,,,,,,,,,,,,,,,,,,,,,,,,,,,,,,,119.52165293761735,63.09806933643645,71.29824324194166,120.28157995373657,124.90885437181055,124.90885437181055,2.2,2.21,-188,-257,0,269,219,257,303.21218061447144,303.212260723114,303.2153489589691,303.2354097366333,303.37823486328125,303.37823486328125,303.37823486328125,303.37823486328125,303.37823486328125,303.37823486328125,303.37823486328125,304.97721004486084,3,1.732729434967041,None,,,,,,,,,,,,,,,,,,134,4,2025-02-26_15h59.27.863,comp,2024.2.4,None,2025-02-26 15h59.40.251532 -0500,
65,65,0,critical,hwd,20.0,1.0,upper,200.0,125.0,125.0,200.0,141.0,141.0,2,5.320645093917847,None,,,,,0,0,0,0,0,65,65,103,304.9914619922638,,,,,,,,,,,,,,,,,,,,,,,,,,,,,,,,,,,,,,,,,,,,,,,,,,,,,,,,,,,,,,,,,,,,,,,,,,,,,,,,,200.0,125.0,125.0,200.0,141.0,141.0,1.0,1.1,-738,265,-480,254,-214,261,304.97866320610046,304.97873878479004,304.98181676864624,304.9914619922638,305.14935970306396,305.14935970306396,305.14935970306396,305.14935970306396,305.14935970306396,305.14935970306396,305.14935970306396,310.3292169570923,2,5.320645093917847,None,,,,,,,,,,,,,,,,,,134,4,2025-02-26_15h59.27.863,comp,2024.2.4,None,2025-02-26 15h59.40.251532 -0500,
66,66,0,filler_random,None,None,None,None,None,None,None,None,None,None,3,1.8563990592956543,None,,,,,0,0,0,0,0,66,66,158,310.34487318992615,,,,,,,,,,,,,,,,,,,,,,,,,,,,,,,,,,,,,,,,,,,,,,,,,,,,,,,,,,,,,,,,,,,,,,,,,,,,,,,,,95.37868559379515,70.07754257213503,66.22321921820583,194.57297546922518,144.29780728315126,121.92104784162699,4.0,4.1,-228,-281,0,0,254,-259,310.33099126815796,310.3310749530792,310.334579706192,310.34487318992615,310.4963581562042,310.4963581562042,310.4963581562042,310.4963581562042,310.4963581562042,310.4963581562042,310.4963581562042,312.2141282558441,3,1.8563990592956543,None,,,,,,,,,,,,,,,,,,134,4,2025-02-26_15h59.27.863,comp,2024.2.4,None,2025-02-26 15h59.40.251532 -0500,
67,67,0,critical,dhw,20.0,3.0,lower,78.0,78.0,133.0,57.0,57.0,133.0,2,2.6021389961242676,None,,,,,0,0,0,0,0,67,67,56,312.22995138168335,,,,,,,,,,,,,,,,,,,,,,,,,,,,,,,,,,,,,,,,,,,,,,,,,,,,,,,,,,,,,,,,,,,,,,,,,,,,,,,,,78.0,78.0,133.0,57.0,57.0,133.0,3.0,3.2,-164,-271,0,8,191,280,312.215558052063,312.2156488895416,312.2188379764557,312.22995138168335,312.3791904449463,312.3791904449463,312.3791904449463,312.3791904449463,312.3791904449463,312.3791904449463,312.3791904449463,314.8467650413513,2,2.6021389961242676,None,,,,,,,,,,,,,,,,,,134,4,2025-02-26_15h59.27.863,comp,2024.2.4,None,2025-02-26 15h59.40.251532 -0500,
68,68,0,catch,None,None,None,None,None,None,None,None,None,None,1,0.8729455471038818,None,,,,,0,0,0,0,0,68,68,128,314.86330246925354,,,,,,,,,,,,,,,,,,,,,,,,,,,,,,,,,,,,,,,,,,,,,,,,,,,,,,,,,,,,,,,,,,,,,,,,,,,,,,,,,140,185,89,101,89,101,1.0,1.2,-239,-8,0,-16,197,18,314.8487045764923,314.8487813472748,314.8521673679352,314.86330246925354,315.01022124290466,315.01022124290466,315.01022124290466,315.01022124290466,315.01022124290466,315.01022124290466,315.01022124290466,315.75162744522095,1,0.8729455471038818,None,,,,,,,,,,,,,,,,,,134,4,2025-02-26_15h59.27.863,comp,2024.2.4,None,2025-02-26 15h59.40.251532 -0500,
69,69,0,critical,wdh,35.0,2.1,upper,125.0,200.0,127.0,127.0,200.0,125.0,1,2.8326141834259033,None,,,,,0,0,0,0,0,69,69,33,315.76744985580444,,,,,,,,,,,,,,,,,,,,,,,,,,,,,,,,,,,,,,,,,,,,,,,,,,,,,,,,,,,,,,,,,,,,,,,,,,,,,,,,,125.0,200.0,127.0,127.0,200.0,125.0,2.1,2.11,-260,276,0,258,222,-251,315.7531659603119,315.75324058532715,315.75714230537415,315.76744985580444,315.9196193218231,315.9196193218231,315.9196193218231,315.9196193218231,315.9196193218231,315.9196193218231,315.9196193218231,318.61482191085815,1,2.8326141834259033,None,,,,,,,,,,,,,,,,,,134,4,2025-02-26_15h59.27.863,comp,2024.2.4,None,2025-02-26 15h59.40.251532 -0500,
70,70,0,filler_random,None,None,None,None,None,None,None,None,None,None,1,3.104813575744629,None,,,,,0,0,0,0,0,70,70,146,318.63143968582153,,,,,,,,,,,,,,,,,,,,,,,,,,,,,,,,,,,,,,,,,,,,,,,,,,,,,,,,,,,,,,,,,,,,,,,,,,,,,,,,,133.63176074821644,158.45945717872104,85.21784016506699,197.45158272940895,87.59441138328867,123.19872821567303,2.1,2.12,-274,-275,0,-272,256,281,318.6167471408844,318.6168270111084,318.6201641559601,318.63143968582153,318.7786099910736,318.7786099910736,318.7786099910736,318.7786099910736,318.7786099910736,318.7786099910736,318.7786099910736,321.7509388923645,1,3.104813575744629,None,,,,,,,,,,,,,,,,,,134,4,2025-02-26_15h59.27.863,comp,2024.2.4,None,2025-02-26 15h59.40.251532 -0500,
71,71,0,filler_random,None,None,None,None,None,None,None,None,None,None,1,1.1691248416900635,None,,,,,0,0,0,0,0,71,71,159,321.76729226112366,,,,,,,,,,,,,,,,,,,,,,,,,,,,,,,,,,,,,,,,,,,,,,,,,,,,,,,,,,,,,,,,,,,,,,,,,,,,,,,,,168.4083303956886,145.1418094731236,82.72668291844715,80.57957144948718,96.83496544949574,132.60460001880185,3.0,3.2,-209,-255,0,-10,203,264,321.75286865234375,321.7529489994049,321.75617933273315,321.76729226112366,321.9119441509247,321.9119441509247,321.9119441509247,321.9119441509247,321.9119441509247,321.9119441509247,321.9119441509247,322.9495391845703,1,1.1691248416900635,None,,,,,,,,,,,,,,,,,,134,4,2025-02-26_15h59.27.863,comp,2024.2.4,None,2025-02-26 15h59.40.251532 -0500,
72,72,0,critical,dwh,35.0,1.0,upper,127.0,127.0,125.0,200.0,200.0,125.0,2,3.2348148822784424,None,,,,,0,0,0,0,0,72,72,61,322.9655387401581,,,,,,,,,,,,,,,,,,,,,,,,,,,,,,,,,,,,,,,,,,,,,,,,,,,,,,,,,,,,,,,,,,,,,,,,,,,,,,,,,127.0,127.0,125.0,200.0,200.0,125.0,1.0,1.3,220,-279,480,-251,738,-282,322.9510507583618,322.9511296749115,322.95522713661194,322.9655387401581,323.12321400642395,323.12321400642395,323.12321400642395,323.12321400642395,323.12321400642395,323.12321400642395,323.12321400642395,326.2052991390228,2,3.2348148822784424,None,,,,,,,,,,,,,,,,,,134,4,2025-02-26_15h59.27.863,comp,2024.2.4,None,2025-02-26 15h59.40.251532 -0500,
73,73,0,catch,None,None,None,None,None,None,None,None,None,None,2,1.2482757568359375,None,,,,,0,0,0,0,0,73,73,129,326.22447681427,,,,,,,,,,,,,,,,,,,,,,,,,,,,,,,,,,,,,,,,,,,,,,,,,,,,,,,,,,,,,,,,,,,,,,,,,,,,,,,,,84,106,144,181,106,84,2.2,2.22,-240,276,0,-276,228,-253,326.20736479759216,326.2074398994446,326.2107353210449,326.22447681427,326.36764693260193,326.36764693260193,326.36764693260193,326.36764693260193,326.36764693260193,326.36764693260193,326.36764693260193,327.4914402961731,2,1.2482757568359375,None,,,,,,,,,,,,,,,,,,134,4,2025-02-26_15h59.27.863,comp,2024.2.4,None,2025-02-26 15h59.40.251532 -0500,
74,74,0,critical,hwd,20.0,4.0,lower,133.0,57.0,57.0,133.0,78.0,78.0,2,11.379550695419312,None,,,,,0,0,0,0,0,74,74,106,327.5086257457733,,,,,,,,,,,,,,,,,,,,,,,,,,,,,,,,,,,,,,,,,,,,,,,,,,,,,,,,,,,,,,,,,,,,,,,,,,,,,,,,,133.0,57.0,57.0,133.0,78.0,78.0,4.0,4.2,-191,16,0,-276,202,7,327.4928538799286,327.49293088912964,327.49579191207886,327.5086257457733,327.6509521007538,327.6509521007538,327.6509521007538,327.6509521007538,327.6509521007538,327.6509521007538,327.6509521007538,338.90409302711487,2,11.379550695419312,None,,,,,,,,,,,,,,,,,,134,4,2025-02-26_15h59.27.863,comp,2024.2.4,None,2025-02-26 15h59.40.251532 -0500,
75,75,0,critical,dhw,35.0,2.1,lower,70.0,70.0,133.0,57.0,57.0,133.0,3,5.3365044593811035,None,,,,,0,0,0,0,0,75,75,0,338.919691324234,,,,,,,,,,,,,,,,,,,,,,,,,,,,,,,,,,,,,,,,,,,,,,,,,,,,,,,,,,,,,,,,,,,,,,,,,,,,,,,,,70.0,70.0,133.0,57.0,57.0,133.0,2.1,2.11,-160,259,0,285,191,-258,338.90559124946594,338.9056680202484,338.9085705280304,338.919691324234,339.07143926620483,339.07143926620483,339.07143926620483,339.07143926620483,339.07143926620483,339.07143926620483,339.07143926620483,344.2723934650421,3,5.3365044593811035,None,,,,,,,,,,,,,,,,,,134,4,2025-02-26_15h59.27.863,comp,2024.2.4,None,2025-02-26 15h59.40.251532 -0500,
76,76,0,filler_random,None,None,None,None,None,None,None,None,None,None,3,1.9758906364440918,None,,,,,0,0,0,0,0,76,76,161,344.2890086174011,,,,,,,,,,,,,,,,,,,,,,,,,,,,,,,,,,,,,,,,,,,,,,,,,,,,,,,,,,,,,,,,,,,,,,,,,,,,,,,,,90.9465937725177,81.56050855864484,125.10893176212056,92.46515442055869,113.16674101435456,110.83121433808614,2.1,2.11,-183,287,0,266,198,-265,344.2742259502411,344.27430534362793,344.2777450084686,344.2890086174011,344.43967509269714,344.43967509269714,344.43967509269714,344.43967509269714,344.43967509269714,344.43967509269714,344.43967509269714,346.2744119167328,3,1.9758906364440918,None,,,,,,,,,,,,,,,,,,134,4,2025-02-26_15h59.27.863,comp,2024.2.4,None,2025-02-26 15h59.40.251532 -0500,
77,77,0,critical,dhw,20.0,3.0,upper,141.0,141.0,200.0,125.0,125.0,200.0,3,1.6780903339385986,None,,,,,0,0,0,0,0,77,77,57,346.28995847702026,,,,,,,,,,,,,,,,,,,,,,,,,,,,,,,,,,,,,,,,,,,,,,,,,,,,,,,,,,,,,,,,,,,,,,,,,,,,,,,,,141.0,141.0,200.0,125.0,125.0,200.0,3.0,3.2,-229,-258,0,-20,258,287,346.27590918540955,346.27600717544556,346.2791986465454,346.28995847702026,346.43906927108765,346.43906927108765,346.43906927108765,346.43906927108765,346.43906927108765,346.43906927108765,346.43906927108765,347.9823725223541,3,1.6780903339385986,None,,,,,,,,,,,,,,,,,,134,4,2025-02-26_15h59.27.863,comp,2024.2.4,None,2025-02-26 15h59.40.251532 -0500,
78,78,0,critical,dhw,35.0,2.1,upper,127.0,127.0,200.0,125.0,125.0,200.0,3,1.5679142475128174,None,,,,,0,0,0,0,0,78,78,25,348.00118684768677,,,,,,,,,,,,,,,,,,,,,,,,,,,,,,,,,,,,,,,,,,,,,,,,,,,,,,,,,,,,,,,,,,,,,,,,,,,,,,,,,127.0,127.0,200.0,125.0,125.0,200.0,2.1,2.11,-222,262,0,260,258,-279,347.98403787612915,347.9841742515564,347.98754954338074,348.00118684768677,348.1369962692261,348.1369962692261,348.1369962692261,348.1369962692261,348.1369962692261,348.1369962692261,348.1369962692261,349.5749213695526,3,1.5679142475128174,None,,,,,,,,,,,,,,,,,,134,4,2025-02-26_15h59.27.863,comp,2024.2.4,None,2025-02-26 15h59.40.251532 -0500,
79,79,0,critical,dhw,35.0,3.0,lower,70.0,70.0,133.0,57.0,57.0,133.0,3,1.4571919441223145,None,,,,,0,0,0,0,0,79,79,50,349.5914452075958,,,,,,,,,,,,,,,,,,,,,,,,,,,,,,,,,,,,,,,,,,,,,,,,,,,,,,,,,,,,,,,,,,,,,,,,,,,,,,,,,70.0,70.0,133.0,57.0,57.0,133.0,3.0,3.2,-160,-258,0,-1,191,261,349.57670545578003,349.576783657074,349.5804977416992,349.5914452075958,349.7490313053131,349.7490313053131,349.7490313053131,349.7490313053131,349.7490313053131,349.7490313053131,349.7490313053131,351.0593364238739,3,1.4571919441223145,None,,,,,,,,,,,,,,,,,,134,4,2025-02-26_15h59.27.863,comp,2024.2.4,None,2025-02-26 15h59.40.251532 -0500,
80,80,0,critical,whd,20.0,2.1,upper,125.0,200.0,200.0,125.0,141.0,141.0,2,4.431971311569214,None,,,,,0,0,0,0,0,80,80,15,351.0801544189453,,,,,,,,,,,,,,,,,,,,,,,,,,,,,,,,,,,,,,,,,,,,,,,,,,,,,,,,,,,,,,,,,,,,,,,,,,,,,,,,,125.0,200.0,200.0,125.0,141.0,141.0,2.1,2.11,-258,254,0,253,229,-285,351.0607919692993,351.06087136268616,351.06415271759033,351.0801544189453,351.22721338272095,351.22721338272095,351.22721338272095,351.22721338272095,351.22721338272095,351.22721338272095,351.22721338272095,355.5286514759064,2,4.431971311569214,None,,,,,,,,,,,,,,,,,,134,4,2025-02-26_15h59.27.863,comp,2024.2.4,None,2025-02-26 15h59.40.251532 -0500,
81,81,0,critical,hdw,20.0,2.1,upper,200.0,125.0,141.0,141.0,125.0,200.0,1,0.8878047466278076,None,,,,,0,0,0,0,0,81,81,23,355.5443263053894,,,,,,,,,,,,,,,,,,,,,,,,,,,,,,,,,,,,,,,,,,,,,,,,,,,,,,,,,,,,,,,,,,,,,,,,,,,,,,,,,200.0,125.0,141.0,141.0,125.0,200.0,2.1,2.11,-229,286,0,264,266,-282,355.5304412841797,355.5305724143982,355.53386878967285,355.5443263053894,355.6934325695038,355.6934325695038,355.6934325695038,355.6934325695038,355.6934325695038,355.6934325695038,355.6934325695038,356.44239807128906,1,0.8878047466278076,None,,,,,,,,,,,,,,,,,,134,4,2025-02-26_15h59.27.863,comp,2024.2.4,None,2025-02-26 15h59.40.251532 -0500,
82,82,0,critical,hdw,20.0,4.0,lower,133.0,57.0,78.0,78.0,57.0,133.0,1,3.123131036758423,None,,,,,0,0,0,0,0,82,82,118,356.46262550354004,,,,,,,,,,,,,,,,,,,,,,,,,,,,,,,,,,,,,,,,,,,,,,,,,,,,,,,,,,,,,,,,,,,,,,,,,,,,,,,,,133.0,57.0,78.0,78.0,57.0,133.0,4.0,4.1,-164,-255,0,-14,202,-261,356.44377183914185,356.44382309913635,356.44677734375,356.46262550354004,356.61068987846375,356.61068987846375,356.61068987846375,356.61068987846375,356.61068987846375,356.61068987846375,356.61068987846375,359.59335112571716,1,3.123131036758423,None,,,,,,,,,,,,,,,,,,134,4,2025-02-26_15h59.27.863,comp,2024.2.4,None,2025-02-26 15h59.40.251532 -0500,
83,83,0,filler_square,None,None,None,None,None,None,None,None,None,None,2,3.0272743701934814,None,,,,,0,0,0,0,0,83,83,176,359.61340618133545,,,,,,,,,,,,,,,,,,,,,,,,,,,,,,,,,,,,,,,,,,,,,,,,,,,,,,,,,,,,,,,,,,,,,,,,,,,,,,,,,190.74706114304772,150.87870654318152,192.1535923180706,192.1535923180706,162.01024988817323,184.9289847663981,3.0,3.2,-268,-289,0,18,285,263,359.59512591362,359.5952031612396,359.59827613830566,359.61340618133545,359.7610158920288,359.7610158920288,359.7610158920288,359.7610158920288,359.7610158920288,359.7610158920288,359.7610158920288,362.6449062824249,2,3.0272743701934814,None,,,,,,,,,,,,,,,,,,134,4,2025-02-26_15h59.27.863,comp,2024.2.4,None,2025-02-26 15h59.40.251532 -0500,
84,84,0,filler_random,None,None,None,None,None,None,None,None,None,None,2,1.2185821533203125,None,,,,,0,0,0,0,0,84,84,150,362.6616780757904,,,,,,,,,,,,,,,,,,,,,,,,,,,,,,,,,,,,,,,,,,,,,,,,,,,,,,,,,,,,,,,,,,,,,,,,,,,,,,,,,185.27035040100054,64.48354643109133,191.3290441276021,149.14350369481048,191.24732879386224,66.10939690632736,1.0,1.1,-683,273,-480,285,-276,250,362.64656591415405,362.64664673805237,362.64988136291504,362.6616780757904,362.8135452270508,362.8135452270508,362.8135452270508,362.8135452270508,362.8135452270508,362.8135452270508,362.8135452270508,363.9001088142395,2,1.2185821533203125,None,,,,,,,,,,,,,,,,,,134,4,2025-02-26_15h59.27.863,comp,2024.2.4,None,2025-02-26 15h59.40.251532 -0500,
85,85,0,catch,None,None,None,None,None,None,None,None,None,None,2,1.1167657375335693,None,,,,,0,0,0,0,0,85,85,120,363.9158926010132,,,,,,,,,,,,,,,,,,,,,,,,,,,,,,,,,,,,,,,,,,,,,,,,,,,,,,,,,,,,,,,,,,,,,,,,,,,,,,,,,100,90,135,190,98,92,1.0,1.2,-236,-9,0,16,237,-16,363.90215373039246,363.9022328853607,363.90553402900696,363.9158926010132,364.06209540367126,364.06209540367126,364.06209540367126,364.06209540367126,364.06209540367126,364.06209540367126,364.06209540367126,365.0466706752777,2,1.1167657375335693,None,,,,,,,,,,,,,,,,,,134,4,2025-02-26_15h59.27.863,comp,2024.2.4,None,2025-02-26 15h59.40.251532 -0500,
86,86,0,filler_random,None,None,None,None,None,None,None,None,None,None,1,1.1205511093139648,None,,,,,0,0,0,0,0,86,86,131,365.0635235309601,,,,,,,,,,,,,,,,,,,,,,,,,,,,,,,,,,,,,,,,,,,,,,,,,,,,,,,,,,,,,,,,,,,,,,,,,,,,,,,,,183.17782684073794,184.19813474927554,183.45452542303332,169.01825805490216,104.63248791830591,71.78871302577993,1.0,1.2,-273,-2,0,0,216,-16,365.0484597682953,365.0485382080078,365.0524570941925,365.0635235309601,365.2099492549896,365.2099492549896,365.2099492549896,365.2099492549896,365.2099492549896,365.2099492549896,365.2099492549896,366.19550800323486,1,1.1205511093139648,None,,,,,,,,,,,,,,,,,,134,4,2025-02-26_15h59.27.863,comp,2024.2.4,None,2025-02-26 15h59.40.251532 -0500,
87,87,0,critical,wdh,35.0,3.0,upper,125.0,200.0,127.0,127.0,200.0,125.0,1,3.8134264945983887,None,,,,,0,0,0,0,0,87,87,75,366.2113263607025,,,,,,,,,,,,,,,,,,,,,,,,,,,,,,,,,,,,,,,,,,,,,,,,,,,,,,,,,,,,,,,,,,,,,,,,,,,,,,,,,125.0,200.0,127.0,127.0,200.0,125.0,3.0,3.2,-260,-269,0,14,222,255,366.1970057487488,366.19708609580994,366.20020389556885,366.2113263607025,366.3654854297638,366.3654854297638,366.3654854297638,366.3654854297638,366.3654854297638,366.3654854297638,366.3654854297638,370.0322198867798,1,3.8134264945983887,None,,,,,,,,,,,,,,,,,,134,4,2025-02-26_15h59.27.863,comp,2024.2.4,None,2025-02-26 15h59.40.251532 -0500,
88,88,0,critical,hwd,35.0,2.1,lower,133.0,57.0,57.0,133.0,70.0,70.0,2,3.2317230701446533,None,,,,,0,0,0,0,0,88,88,16,370.04841351509094,,,,,,,,,,,,,,,,,,,,,,,,,,,,,,,,,,,,,,,,,,,,,,,,,,,,,,,,,,,,,,,,,,,,,,,,,,,,,,,,,133.0,57.0,57.0,133.0,70.0,70.0,2.1,2.12,-191,-251,0,-288,198,258,370.0338227748871,370.0339334011078,370.0374753475189,370.04841351509094,370.2071921825409,370.2071921825409,370.2071921825409,370.2071921825409,370.2071921825409,370.2071921825409,370.2071921825409,373.2846825122833,2,3.2317230701446533,None,,,,,,,,,,,,,,,,,,134,4,2025-02-26_15h59.27.863,comp,2024.2.4,None,2025-02-26 15h59.40.251532 -0500,
89,89,0,critical,hwd,20.0,2.1,lower,133.0,57.0,57.0,133.0,78.0,78.0,1,1.757824182510376,None,,,,,0,0,0,0,0,89,89,18,373.30084896087646,,,,,,,,,,,,,,,,,,,,,,,,,,,,,,,,,,,,,,,,,,,,,,,,,,,,,,,,,,,,,,,,,,,,,,,,,,,,,,,,,133.0,57.0,57.0,133.0,78.0,78.0,2.1,2.12,-191,-259,0,-279,202,285,373.2863612174988,373.2864866256714,373.28996539115906,373.30084896087646,373.4363353252411,373.4363353252411,373.4363353252411,373.4363353252411,373.4363353252411,373.4363353252411,373.4363353252411,375.06625962257385,1,1.757824182510376,None,,,,,,,,,,,,,,,,,,134,4,2025-02-26_15h59.27.863,comp,2024.2.4,None,2025-02-26 15h59.40.251532 -0500,
90,90,0,critical,dhw,20.0,2.1,upper,141.0,141.0,200.0,125.0,125.0,200.0,3,1.3353970050811768,None,,,,,0,0,0,0,0,90,90,3,375.09140610694885,,,,,,,,,,,,,,,,,,,,,,,,,,,,,,,,,,,,,,,,,,,,,,,,,,,,,,,,,,,,,,,,,,,,,,,,,,,,,,,,,141.0,141.0,200.0,125.0,125.0,200.0,2.1,2.12,-229,-284,0,-262,258,257,375.0678436756134,375.0679247379303,375.0710768699646,375.09140610694885,375.23388624191284,375.23388624191284,375.23388624191284,375.23388624191284,375.23388624191284,375.23388624191284,375.23388624191284,376.43162727355957,3,1.3353970050811768,None,,,,,,,,,,,,,,,,,,134,4,2025-02-26_15h59.27.863,comp,2024.2.4,None,2025-02-26 15h59.40.251532 -0500,
91,91,0,critical,hdw,35.0,4.0,lower,133.0,57.0,70.0,70.0,57.0,133.0,2,2.2874646186828613,None,,,,,0,0,0,0,0,91,91,112,376.4487507343292,,,,,,,,,,,,,,,,,,,,,,,,,,,,,,,,,,,,,,,,,,,,,,,,,,,,,,,,,,,,,,,,,,,,,,,,,,,,,,,,,133.0,57.0,70.0,70.0,57.0,133.0,4.0,4.2,-160,0,0,-252,198,-2,376.4332365989685,376.4333686828613,376.4368362426758,376.4487507343292,376.60206174850464,376.60206174850464,376.60206174850464,376.60206174850464,376.60206174850464,376.60206174850464,376.60206174850464,378.75125336647034,2,2.2874646186828613,None,,,,,,,,,,,,,,,,,,134,4,2025-02-26_15h59.27.863,comp,2024.2.4,None,2025-02-26 15h59.40.251532 -0500,
92,92,0,filler_square,None,None,None,None,None,None,None,None,None,None,2,3.377502202987671,None,,,,,0,0,0,0,0,92,92,208,378.76749658584595,,,,,,,,,,,,,,,,,,,,,,,,,,,,,,,,,,,,,,,,,,,,,,,,,,,,,,,,,,,,,,,,,,,,,,,,,,,,,,,,,162.34958846949968,149.7962199856862,178.988207904954,178.988207904954,149.56255123648685,122.52035846461328,2.2,2.21,-260,-279,0,289,247,280,378.75308203697205,378.7531945705414,378.7572250366211,378.76749658584595,378.9196705818176,378.9196705818176,378.9196705818176,378.9196705818176,378.9196705818176,378.9196705818176,378.9196705818176,382.15224719047546,2,3.377502202987671,None,,,,,,,,,,,,,,,,,,134,4,2025-02-26_15h59.27.863,comp,2024.2.4,None,2025-02-26 15h59.40.251532 -0500,
93,93,0,filler_random,None,None,None,None,None,None,None,None,None,None,1,1.1603121757507324,None,,,,,0,0,0,0,0,93,93,154,382.16845774650574,,,,,,,,,,,,,,,,,,,,,,,,,,,,,,,,,,,,,,,,,,,,,,,,,,,,,,,,,,,,,,,,,,,,,,,,,,,,,,,,,111.3648052899028,190.00727089323297,91.77551649608965,88.6673012711933,97.92247229595964,77.03474815664718,4.0,4.1,-235,-267,0,-4,179,-282,382.1539125442505,382.1540105342865,382.15754413604736,382.16845774650574,382.31751465797424,382.31751465797424,382.31751465797424,382.31751465797424,382.31751465797424,382.31751465797424,382.31751465797424,383.3357915878296,1,1.1603121757507324,None,,,,,,,,,,,,,,,,,,134,4,2025-02-26_15h59.27.863,comp,2024.2.4,None,2025-02-26 15h59.40.251532 -0500,
94,94,0,critical,whd,20.0,4.0,lower,57.0,133.0,133.0,57.0,78.0,78.0,1,3.113102912902832,None,,,,,0,0,0,0,0,94,94,94,383.3518748283386,,,,,,,,,,,,,,,,,,,,,,,,,,,,,,,,,,,,,,,,,,,,,,,,,,,,,,,,,,,,,,,,,,,,,,,,,,,,,,,,,57.0,133.0,133.0,57.0,78.0,78.0,4.0,4.2,-191,12,0,-279,164,7,383.33747005462646,383.33754801750183,383.341002702713,383.3518748283386,383.5003569126129,383.5003569126129,383.5003569126129,383.5003569126129,383.5003569126129,383.5003569126129,383.5003569126129,386.46930170059204,1,3.113102912902832,None,,,,,,,,,,,,,,,,,,134,4,2025-02-26_15h59.27.863,comp,2024.2.4,None,2025-02-26 15h59.40.251532 -0500,
95,95,0,critical,whd,35.0,3.0,upper,125.0,200.0,200.0,125.0,127.0,127.0,1,4.516094207763672,None,,,,,0,0,0,0,0,95,95,87,386.48453760147095,,,,,,,,,,,,,,,,,,,,,,,,,,,,,,,,,,,,,,,,,,,,,,,,,,,,,,,,,,,,,,,,,,,,,,,,,,,,,,,,,125.0,200.0,200.0,125.0,127.0,127.0,3.0,3.2,-258,-260,0,-18,222,271,386.4708914756775,386.4709906578064,386.47448801994324,386.48453760147095,386.63584542274475,386.63584542274475,386.63584542274475,386.63584542274475,386.63584542274475,386.63584542274475,386.63584542274475,391.00344800949097,1,4.516094207763672,None,,,,,,,,,,,,,,,,,,134,4,2025-02-26_15h59.27.863,comp,2024.2.4,None,2025-02-26 15h59.40.251532 -0500,
96,96,0,critical,hwd,20.0,2.1,upper,200.0,125.0,125.0,200.0,141.0,141.0,2,3.9675474166870117,None,,,,,0,0,0,0,0,96,96,43,391.02462244033813,,,,,,,,,,,,,,,,,,,,,,,,,,,,,,,,,,,,,,,,,,,,,,,,,,,,,,,,,,,,,,,,,,,,,,,,,,,,,,,,,200.0,125.0,125.0,200.0,141.0,141.0,2.1,2.11,-258,266,0,279,266,-280,391.00494408607483,391.00505566596985,391.0082266330719,391.02462244033813,391.17070484161377,391.17070484161377,391.17070484161377,391.17070484161377,391.17070484161377,391.17070484161377,391.17070484161377,395.0090491771698,2,3.9675474166870117,None,,,,,,,,,,,,,,,,,,134,4,2025-02-26_15h59.27.863,comp,2024.2.4,None,2025-02-26 15h59.40.251532 -0500,
97,97,0,critical,hwd,35.0,4.0,upper,200.0,125.0,125.0,200.0,127.0,127.0,2,2.5755600929260254,None,,,,,0,0,0,0,0,97,97,101,395.02524161338806,,,,,,,,,,,,,,,,,,,,,,,,,,,,,,,,,,,,,,,,,,,,,,,,,,,,,,,,,,,,,,,,,,,,,,,,,,,,,,,,,200.0,125.0,125.0,200.0,127.0,127.0,4.0,4.2,-258,-12,0,-253,260,1,395.01064467430115,395.0107226371765,395.014689207077,395.02524161338806,395.17429876327515,395.17429876327515,395.17429876327515,395.17429876327515,395.17429876327515,395.17429876327515,395.17429876327515,397.60638332366943,2,2.5755600929260254,None,,,,,,,,,,,,,,,,,,134,4,2025-02-26_15h59.27.863,comp,2024.2.4,None,2025-02-26 15h59.40.251532 -0500,
98,98,0,filler_square,None,None,None,None,None,None,None,None,None,None,2,1.9050137996673584,None,,,,,0,0,0,0,0,98,98,174,397.6232430934906,,,,,,,,,,,,,,,,,,,,,,,,,,,,,,,,,,,,,,,,,,,,,,,,,,,,,,,,,,,,,,,,,,,,,,,,,,,,,,,,,162.92922383404135,138.14674508967906,178.69081128511746,178.69081128511746,164.87815870932803,161.88649925795494,1.0,1.2,-254,14,0,-2,266,-15,397.6082785129547,397.6083707809448,397.61244773864746,397.6232430934906,397.773800611496,397.773800611496,397.773800611496,397.773800611496,397.773800611496,397.773800611496,397.773800611496,399.5392894744873,2,1.9050137996673584,None,,,,,,,,,,,,,,,,,,134,4,2025-02-26_15h59.27.863,comp,2024.2.4,None,2025-02-26 15h59.40.251532 -0500,
99,99,0,critical,wdh,20.0,3.0,lower,57.0,133.0,78.0,78.0,133.0,57.0,1,6.842271089553833,None,,,,,0,0,0,0,0,99,99,80,399.55821776390076,,,,,,,,,,,,,,,,,,,,,,,,,,,,,,,,,,,,,,,,,,,,,,,,,,,,,,,,,,,,,,,,,,,,,,,,,,,,,,,,,57.0,133.0,78.0,78.0,133.0,57.0,3.0,3.2,-202,-276,0,-1,164,285,399.5407614707947,399.5408365726471,399.54401683807373,399.55821776390076,399.7071762084961,399.7071762084961,399.7071762084961,399.7071762084961,399.7071762084961,399.7071762084961,399.7071762084961,406.41882610321045,1,6.842271089553833,None,,,,,,,,,,,,,,,,,,134,4,2025-02-26_15h59.27.863,comp,2024.2.4,None,2025-02-26 15h59.40.251532 -0500,
100,100,0,critical,wdh,20.0,2.1,upper,125.0,200.0,141.0,141.0,200.0,125.0,3,5.900967359542847,None,,,,,0,0,0,0,0,100,100,35,406.4352231025696,,,,,,,,,,,,,,,,,,,,,,,,,,,,,,,,,,,,,,,,,,,,,,,,,,,,,,,,,,,,,,,,,,,,,,,,,,,,,,,,,125.0,200.0,141.0,141.0,200.0,125.0,2.1,2.12,-266,-279,0,-255,229,261,406.42042231559753,406.4204959869385,406.42379450798035,406.4352231025696,406.5767765045166,406.5767765045166,406.5767765045166,406.5767765045166,406.5767765045166,406.5767765045166,406.5767765045166,412.34653782844543,3,5.900967359542847,None,,,,,,,,,,,,,,,,,,134,4,2025-02-26_15h59.27.863,comp,2024.2.4,None,2025-02-26 15h59.40.251532 -0500,
101,101,0,filler_square,None,None,None,None,None,None,None,None,None,None,1,4.230393648147583,None,,,,,0,0,0,0,0,101,101,182,412.3628685474396,,,,,,,,,,,,,,,,,,,,,,,,,,,,,,,,,,,,,,,,,,,,,,,,,,,,,,,,,,,,,,,,,,,,,,,,,,,,,,,,,69.55147297177618,69.55147297177618,67.7995008363409,67.80508394040658,67.69784571648054,69.47498216525665,2.1,2.12,-165,-255,0,-253,165,272,412.349009513855,412.34909749031067,412.35202050209045,412.3628685474396,412.51088857650757,412.51088857650757,412.51088857650757,412.51088857650757,412.51088857650757,412.51088857650757,412.51088857650757,416.6000792980194,1,4.230393648147583,None,,,,,,,,,,,,,,,,,,134,4,2025-02-26_15h59.27.863,comp,2024.2.4,None,2025-02-26 15h59.40.251532 -0500,
102,102,0,critical,hwd,35.0,1.0,lower,133.0,57.0,57.0,133.0,70.0,70.0,2,3.8279168605804443,None,,,,,0,0,0,0,0,102,102,96,416.62032985687256,,,,,,,,,,,,,,,,,,,,,,,,,,,,,,,,,,,,,,,,,,,,,,,,,,,,,,,,,,,,,,,,,,,,,,,,,,,,,,,,,133.0,57.0,57.0,133.0,70.0,70.0,1.0,1.3,289,-253,480,-251,678,-280,416.6015770435333,416.60165333747864,416.6046221256256,416.62032985687256,416.76172399520874,416.76172399520874,416.76172399520874,416.76172399520874,416.76172399520874,416.76172399520874,416.76172399520874,420.46420788764954,2,3.8279168605804443,None,,,,,,,,,,,,,,,,,,134,4,2025-02-26_15h59.27.863,comp,2024.2.4,None,2025-02-26 15h59.40.251532 -0500,
103,103,0,critical,whd,35.0,1.0,upper,125.0,200.0,200.0,125.0,127.0,127.0,2,3.2056353092193604,None,,,,,0,0,0,0,0,103,103,85,420.47468519210815,,,,,,,,,,,,,,,,,,,,,,,,,,,,,,,,,,,,,,,,,,,,,,,,,,,,,,,,,,,,,,,,,,,,,,,,,,,,,,,,,125.0,200.0,200.0,125.0,127.0,127.0,1.0,1.1,-738,262,-480,261,-258,260,420.4646716117859,420.46469235420227,420.465532541275,420.47468519210815,420.6210367679596,420.6210367679596,420.6210367679596,420.6210367679596,420.6210367679596,420.6210367679596,420.6210367679596,423.682817697525,2,3.2056353092193604,None,,,,,,,,,,,,,,,,,,134,4,2025-02-26_15h59.27.863,comp,2024.2.4,None,2025-02-26 15h59.40.251532 -0500,
104,104,0,critical,wdh,20.0,2.1,lower,57.0,133.0,78.0,78.0,133.0,57.0,3,2.388216257095337,None,,,,,0,0,0,0,0,104,104,10,423.7005636692047,,,,,,,,,,,,,,,,,,,,,,,,,,,,,,,,,,,,,,,,,,,,,,,,,,,,,,,,,,,,,,,,,,,,,,,,,,,,,,,,,57.0,133.0,78.0,78.0,133.0,57.0,2.1,2.12,-202,-251,0,-269,164,262,423.68441700935364,423.6844947338104,423.6873834133148,423.7005636692047,423.84705781936646,423.84705781936646,423.84705781936646,423.84705781936646,423.84705781936646,423.84705781936646,423.84705781936646,426.10038137435913,3,2.388216257095337,None,,,,,,,,,,,,,,,,,,134,4,2025-02-26_15h59.27.863,comp,2024.2.4,None,2025-02-26 15h59.40.251532 -0500,
105,105,0,critical,dwh,20.0,2.1,lower,78.0,78.0,57.0,133.0,133.0,57.0,2,1.8201498985290527,None,,,,,0,0,0,0,0,105,105,6,426.1160638332367,,,,,,,,,,,,,,,,,,,,,,,,,,,,,,,,,,,,,,,,,,,,,,,,,,,,,,,,,,,,,,,,,,,,,,,,,,,,,,,,,78.0,78.0,57.0,133.0,133.0,57.0,2.1,2.12,-202,-281,0,-283,191,272,426.10189867019653,426.1020052433014,426.1051642894745,426.1160638332367,426.2657091617584,426.2657091617584,426.2657091617584,426.2657091617584,426.2657091617584,426.2657091617584,426.2657091617584,427.9468445777893,2,1.8201498985290527,None,,,,,,,,,,,,,,,,,,134,4,2025-02-26_15h59.27.863,comp,2024.2.4,None,2025-02-26 15h59.40.251532 -0500,
106,106,0,critical,dwh,20.0,1.0,upper,141.0,141.0,125.0,200.0,200.0,125.0,3,1.7975585460662842,None,,,,,0,0,0,0,0,106,106,67,427.96309638023376,,,,,,,,,,,,,,,,,,,,,,,,,,,,,,,,,,,,,,,,,,,,,,,,,,,,,,,,,,,,,,,,,,,,,,,,,,,,,,,,,141.0,141.0,125.0,200.0,200.0,125.0,1.0,1.1,-746,250,-480,251,-222,260,427.94834208488464,427.94841980934143,427.9513850212097,427.96309638023376,428.1189045906067,428.1189045906067,428.1189045906067,428.1189045906067,428.1189045906067,428.1189045906067,428.1189045906067,429.76787519454956,3,1.7975585460662842,None,,,,,,,,,,,,,,,,,,134,4,2025-02-26_15h59.27.863,comp,2024.2.4,None,2025-02-26 15h59.40.251532 -0500,
107,107,0,critical,hdw,20.0,2.1,lower,133.0,57.0,78.0,78.0,57.0,133.0,3,1.62339448928833,None,,,,,0,0,0,0,0,107,107,22,429.7847921848297,,,,,,,,,,,,,,,,,,,,,,,,,,,,,,,,,,,,,,,,,,,,,,,,,,,,,,,,,,,,,,,,,,,,,,,,,,,,,,,,,133.0,57.0,78.0,78.0,57.0,133.0,2.1,2.12,-164,-254,0,-260,202,273,429.76955223083496,429.769686460495,429.77301597595215,429.7847921848297,429.9340822696686,429.9340822696686,429.9340822696686,429.9340822696686,429.9340822696686,429.9340822696686,429.9340822696686,431.4222025871277,3,1.62339448928833,None,,,,,,,,,,,,,,,,,,134,4,2025-02-26_15h59.27.863,comp,2024.2.4,None,2025-02-26 15h59.40.251532 -0500,
108,108,0,critical,dhw,20.0,2.1,lower,78.0,78.0,133.0,57.0,57.0,133.0,2,2.0579023361206055,None,,,,,0,0,0,0,0,108,108,2,431.43848490715027,,,,,,,,,,,,,,,,,,,,,,,,,,,,,,,,,,,,,,,,,,,,,,,,,,,,,,,,,,,,,,,,,,,,,,,,,,,,,,,,,78.0,78.0,133.0,57.0,57.0,133.0,2.1,2.12,-164,-277,0,-281,191,276,431.42375135421753,431.4238259792328,431.4272029399872,431.43848490715027,431.58168363571167,431.58168363571167,431.58168363571167,431.58168363571167,431.58168363571167,431.58168363571167,431.58168363571167,433.5006158351898,2,2.0579023361206055,None,,,,,,,,,,,,,,,,,,134,4,2025-02-26_15h59.27.863,comp,2024.2.4,None,2025-02-26 15h59.40.251532 -0500,
109,109,0,critical,wdh,20.0,4.0,lower,57.0,133.0,78.0,78.0,133.0,57.0,3,1.5398139953613281,None,,,,,0,0,0,0,0,109,109,82,433.51646733283997,,,,,,,,,,,,,,,,,,,,,,,,,,,,,,,,,,,,,,,,,,,,,,,,,,,,,,,,,,,,,,,,,,,,,,,,,,,,,,,,,57.0,133.0,78.0,78.0,133.0,57.0,4.0,4.2,-202,19,0,-290,164,-7,433.5021584033966,433.5022358894348,433.5057032108307,433.51646733283997,433.66615748405457,433.66615748405457,433.66615748405457,433.66615748405457,433.66615748405457,433.66615748405457,433.66615748405457,435.0722496509552,3,1.5398139953613281,None,,,,,,,,,,,,,,,,,,134,4,2025-02-26_15h59.27.863,comp,2024.2.4,None,2025-02-26 15h59.40.251532 -0500,
110,110,0,critical,dwh,20.0,3.0,lower,78.0,78.0,57.0,133.0,133.0,57.0,2,3.0911576747894287,None,,,,,0,0,0,0,0,110,110,68,435.09313559532166,,,,,,,,,,,,,,,,,,,,,,,,,,,,,,,,,,,,,,,,,,,,,,,,,,,,,,,,,,,,,,,,,,,,,,,,,,,,,,,,,78.0,78.0,57.0,133.0,133.0,57.0,3.0,3.2,-202,-254,0,-6,191,271,435.07370686531067,435.07378339767456,435.07732486724854,435.09313559532166,435.23438715934753,435.23438715934753,435.23438715934753,435.23438715934753,435.23438715934753,435.23438715934753,435.23438715934753,438.1863534450531,2,3.0911576747894287,None,,,,,,,,,,,,,,,,,,134,4,2025-02-26_15h59.27.863,comp,2024.2.4,None,2025-02-26 15h59.40.251532 -0500,
111,111,0,filler_random,None,None,None,None,None,None,None,None,None,None,1,1.2945544719696045,None,,,,,0,0,0,0,0,111,111,157,438.2022705078125,,,,,,,,,,,,,,,,,,,,,,,,,,,,,,,,,,,,,,,,,,,,,,,,,,,,,,,,,,,,,,,,,,,,,,,,,,,,,,,,,182.42298158686324,187.20181898153027,62.13451843832546,175.91579775015697,107.37605823510873,85.2964340373257,3.0,3.2,-278,-282,0,-8,227,263,438.18807792663574,438.188157081604,438.19143986701965,438.2022705078125,438.34420561790466,438.34420561790466,438.34420561790466,438.34420561790466,438.34420561790466,438.34420561790466,438.34420561790466,439.50417613983154,1,1.2945544719696045,None,,,,,,,,,,,,,,,,,,134,4,2025-02-26_15h59.27.863,comp,2024.2.4,None,2025-02-26 15h59.40.251532 -0500,
112,112,0,critical,whd,20.0,4.0,upper,125.0,200.0,200.0,125.0,141.0,141.0,1,5.784154176712036,None,,,,,0,0,0,0,0,112,112,95,439.52031564712524,,,,,,,,,,,,,,,,,,,,,,,,,,,,,,,,,,,,,,,,,,,,,,,,,,,,,,,,,,,,,,,,,,,,,,,,,,,,,,,,,125.0,200.0,200.0,125.0,141.0,141.0,4.0,4.1,-258,-285,0,8,229,-281,439.5057759284973,439.50585317611694,439.50941157341003,439.52031564712524,439.6691162586212,439.6691162586212,439.6691162586212,439.6691162586212,439.6691162586212,439.6691162586212,439.6691162586212,445.3213973045349,1,5.784154176712036,None,,,,,,,,,,,,,,,,,,134,4,2025-02-26_15h59.27.863,comp,2024.2.4,None,2025-02-26 15h59.40.251532 -0500,
113,113,0,filler_square,None,None,None,None,None,None,None,None,None,None,2,1.3760559558868408,None,,,,,0,0,0,0,0,113,113,201,445.3371117115021,,,,,,,,,,,,,,,,,,,,,,,,,,,,,,,,,,,,,,,,,,,,,,,,,,,,,,,,,,,,,,,,,,,,,,,,,,,,,,,,,175.3946729637645,134.21899218616835,196.88492785946988,196.88492785946988,66.26328443911163,184.47238274661603,4.0,4.2,-262,-4,0,-286,287,16,445.3232684135437,445.3233473300934,445.3267545700073,445.3371117115021,445.4862504005432,445.4862504005432,445.4862504005432,445.4862504005432,445.4862504005432,445.4862504005432,445.4862504005432,446.7210502624512,2,1.3760559558868408,None,,,,,,,,,,,,,,,,,,134,4,2025-02-26_15h59.27.863,comp,2024.2.4,None,2025-02-26 15h59.40.251532 -0500,
114,114,0,critical,whd,20.0,1.0,lower,57.0,133.0,133.0,57.0,78.0,78.0,2,2.328892230987549,None,,,,,0,0,0,0,0,114,114,90,446.73704385757446,,,,,,,,,,,,,,,,,,,,,,,,,,,,,,,,,,,,,,,,,,,,,,,,,,,,,,,,,,,,,,,,,,,,,,,,,,,,,,,,,57.0,133.0,133.0,57.0,78.0,78.0,1.0,1.3,289,-256,480,-283,644,-268,446.7225224971771,446.72259879112244,446.72568249702454,446.73704385757446,446.88666892051697,446.88666892051697,446.88666892051697,446.88666892051697,446.88666892051697,446.88666892051697,446.88666892051697,449.07164692878723,2,2.328892230987549,None,,,,,,,,,,,,,,,,,,134,4,2025-02-26_15h59.27.863,comp,2024.2.4,None,2025-02-26 15h59.40.251532 -0500,
115,115,0,filler_square,None,None,None,None,None,None,None,None,None,None,2,1.9592573642730713,None,,,,,0,0,0,0,0,115,115,172,449.0885064601898,,,,,,,,,,,,,,,,,,,,,,,,,,,,,,,,,,,,,,,,,,,,,,,,,,,,,,,,,,,,,,,,,,,,,,,,,,,,,,,,,60.57838043327822,71.8111218935029,96.23831723832772,96.23831723832772,94.58386435323413,90.91935598820749,1.0,1.2,-180,-7,0,-18,190,9,449.0734541416168,449.0735356807709,449.07679080963135,449.0885064601898,449.23850560188293,449.23850560188293,449.23850560188293,449.23850560188293,449.23850560188293,449.23850560188293,449.23850560188293,451.06251311302185,2,1.9592573642730713,None,,,,,,,,,,,,,,,,,,134,4,2025-02-26_15h59.27.863,comp,2024.2.4,None,2025-02-26 15h59.40.251532 -0500,
116,116,0,critical,dhw,20.0,2.1,upper,141.0,141.0,200.0,125.0,125.0,200.0,2,2.421614408493042,None,,,,,0,0,0,0,0,116,116,27,451.08337450027466,,,,,,,,,,,,,,,,,,,,,,,,,,,,,,,,,,,,,,,,,,,,,,,,,,,,,,,,,,,,,,,,,,,,,,,,,,,,,,,,,141.0,141.0,200.0,125.0,125.0,200.0,2.1,2.12,-229,-258,0,-274,258,269,451.06420040130615,451.0642788410187,451.06720519065857,451.08337450027466,451.21971797943115,451.21971797943115,451.21971797943115,451.21971797943115,451.21971797943115,451.21971797943115,451.21971797943115,453.5086941719055,2,2.421614408493042,None,,,,,,,,,,,,,,,,,,134,4,2025-02-26_15h59.27.863,comp,2024.2.4,None,2025-02-26 15h59.40.251532 -0500,
117,117,0,critical,hdw,35.0,2.1,upper,200.0,125.0,127.0,127.0,125.0,200.0,3,5.812917232513428,None,,,,,0,0,0,0,0,117,117,21,453.5244448184967,,,,,,,,,,,,,,,,,,,,,,,,,,,,,,,,,,,,,,,,,,,,,,,,,,,,,,,,,,,,,,,,,,,,,,,,,,,,,,,,,200.0,125.0,127.0,127.0,125.0,200.0,2.1,2.11,-222,278,0,273,260,-260,453.51019954681396,453.51028966903687,453.5135655403137,453.5244448184967,453.6850595474243,453.6850595474243,453.6850595474243,453.6850595474243,453.6850595474243,453.6850595474243,453.6850595474243,459.34247159957886,3,5.812917232513428,None,,,,,,,,,,,,,,,,,,134,4,2025-02-26_15h59.27.863,comp,2024.2.4,None,2025-02-26 15h59.40.251532 -0500,
118,118,0,critical,dwh,35.0,4.0,upper,127.0,127.0,125.0,200.0,200.0,125.0,3,3.7216403484344482,None,,,,,0,0,0,0,0,118,118,65,459.35866379737854,,,,,,,,,,,,,,,,,,,,,,,,,,,,,,,,,,,,,,,,,,,,,,,,,,,,,,,,,,,,,,,,,,,,,,,,,,,,,,,,,127.0,127.0,125.0,200.0,200.0,125.0,4.0,4.2,-260,1,0,-277,258,-20,459.34400939941406,459.3440978527069,459.3475294113159,459.35866379737854,459.5081331729889,459.5081331729889,459.5081331729889,459.5081331729889,459.5081331729889,459.5081331729889,459.5081331729889,463.09730315208435,3,3.7216403484344482,None,,,,,,,,,,,,,,,,,,134,4,2025-02-26_15h59.27.863,comp,2024.2.4,None,2025-02-26 15h59.40.251532 -0500,
119,119,0,critical,dwh,35.0,2.1,lower,70.0,70.0,57.0,133.0,133.0,57.0,2,2.5652682781219482,None,,,,,0,0,0,0,0,119,119,28,463.1150026321411,,,,,,,,,,,,,,,,,,,,,,,,,,,,,,,,,,,,,,,,,,,,,,,,,,,,,,,,,,,,,,,,,,,,,,,,,,,,,,,,,70.0,70.0,57.0,133.0,133.0,57.0,2.1,2.11,-198,263,0,287,191,-251,463.0990698337555,463.09916400909424,463.1021521091461,463.1150026321411,463.2599470615387,463.2599470615387,463.2599470615387,463.2599470615387,463.2599470615387,463.2599470615387,463.2599470615387,465.69637155532837,2,2.5652682781219482,None,,,,,,,,,,,,,,,,,,134,4,2025-02-26_15h59.27.863,comp,2024.2.4,None,2025-02-26 15h59.40.251532 -0500,
120,120,0,filler_random,None,None,None,None,None,None,None,None,None,None,3,3.1755990982055664,None,,,,,0,0,0,0,0,120,120,138,465.7127616405487,,,,,,,,,,,,,,,,,,,,,,,,,,,,,,,,,,,,,,,,,,,,,,,,,,,,,,,,,,,,,,,,,,,,,,,,,,,,,,,,,157.88250537903306,62.831906405850056,108.34485248916812,68.00983180399447,132.23997490229385,152.24984353315926,2.1,2.11,-161,285,0,277,206,-268,465.698527097702,465.698637008667,465.7024505138397,465.7127616405487,465.86100935935974,465.86100935935974,465.86100935935974,465.86100935935974,465.86100935935974,465.86100935935974,465.86100935935974,468.9053521156311,3,3.1755990982055664,None,,,,,,,,,,,,,,,,,,134,4,2025-02-26_15h59.27.863,comp,2024.2.4,None,2025-02-26 15h59.40.251532 -0500,
121,121,0,filler_random,None,None,None,None,None,None,None,None,None,None,3,5.837767839431763,None,,,,,0,0,0,0,0,121,121,151,468.9227976799011,,,,,,,,,,,,,,,,,,,,,,,,,,,,,,,,,,,,,,,,,,,,,,,,,,,,,,,,,,,,,,,,,,,,,,,,,,,,,,,,,180.312284508866,115.13792880201976,96.90351801621472,149.78677073341663,154.29232229110937,162.2656071334104,1.0,1.1,-708,267,-480,268,-228,253,468.9071476459503,468.9072268009186,468.91021060943604,468.9227976799011,469.06254959106445,469.06254959106445,469.06254959106445,469.06254959106445,469.06254959106445,469.06254959106445,469.06254959106445,474.7651240825653,3,5.837767839431763,None,,,,,,,,,,,,,,,,,,134,4,2025-02-26_15h59.27.863,comp,2024.2.4,None,2025-02-26 15h59.40.251532 -0500,
122,122,0,filler_random,None,None,None,None,None,None,None,None,None,None,2,2.113903284072876,None,,,,,0,0,0,0,0,122,122,134,474.7824261188507,,,,,,,,,,,,,,,,,,,,,,,,,,,,,,,,,,,,,,,,,,,,,,,,,,,,,,,,,,,,,,,,,,,,,,,,,,,,,,,,,87.65058773835437,132.29723486294793,153.684914912676,85.59971542772506,99.37703302650368,57.39935207326965,3.0,3.1,-205,283,0,19,167,-268,474.7670865058899,474.76716923713684,474.7706882953644,474.7824261188507,474.93033504486084,474.93033504486084,474.93033504486084,474.93033504486084,474.93033504486084,474.93033504486084,474.93033504486084,476.9137785434723,2,2.113903284072876,None,,,,,,,,,,,,,,,,,,134,4,2025-02-26_15h59.27.863,comp,2024.2.4,None,2025-02-26 15h59.40.251532 -0500,
123,123,0,critical,wdh,35.0,2.1,lower,57.0,133.0,70.0,70.0,133.0,57.0,3,2.341533899307251,None,,,,,0,0,0,0,0,123,123,8,476.93155169487,,,,,,,,,,,,,,,,,,,,,,,,,,,,,,,,,,,,,,,,,,,,,,,,,,,,,,,,,,,,,,,,,,,,,,,,,,,,,,,,,57.0,133.0,70.0,70.0,133.0,57.0,2.1,2.11,-198,262,0,284,160,-262,476.91531586647034,476.9153883457184,476.9185929298401,476.93155169487,477.08325600624084,477.08325600624084,477.08325600624084,477.08325600624084,477.08325600624084,477.08325600624084,477.08325600624084,479.2820334434509,3,2.341533899307251,None,,,,,,,,,,,,,,,,,,134,4,2025-02-26_15h59.27.863,comp,2024.2.4,None,2025-02-26 15h59.40.251532 -0500,
124,124,0,filler_random,None,None,None,None,None,None,None,None,None,None,2,0.9182021617889404,None,,,,,0,0,0,0,0,124,124,142,479.2980387210846,,,,,,,,,,,,,,,,,,,,,,,,,,,,,,,,,,,,,,,,,,,,,,,,,,,,,,,,,,,,,,,,,,,,,,,,,,,,,,,,,111.360268116713,126.4783824131482,193.5412914784367,170.52167430837233,58.473887240036724,168.23805645945703,4.0,4.1,-245,-276,0,4,265,-269,479.28374433517456,479.28382205963135,479.2872619628906,479.2980387210846,479.44810700416565,479.44810700416565,479.44810700416565,479.44810700416565,479.44810700416565,479.44810700416565,479.44810700416565,480.2320020198822,2,0.9182021617889404,None,,,,,,,,,,,,,,,,,,134,4,2025-02-26_15h59.27.863,comp,2024.2.4,None,2025-02-26 15h59.40.251532 -0500,
125,125,0,filler_square,None,None,None,None,None,None,None,None,None,None,3,2.128939628601074,None,,,,,0,0,0,0,0,125,125,195,480.2478926181793,,,,,,,,,,,,,,,,,,,,,,,,,,,,,,,,,,,,,,,,,,,,,,,,,,,,,,,,,,,,,,,,,,,,,,,,,,,,,,,,,72.81946890094208,61.136046058593074,64.44961481361534,77.05792581562854,77.27370360068102,77.27370360068102,3.0,3.2,-165,-261,0,-12,173,258,480.2340581417084,480.2341344356537,480.2375154495239,480.2478926181793,480.39569067955017,480.39569067955017,480.39569067955017,480.39569067955017,480.39569067955017,480.39569067955017,480.39569067955017,482.38591265678406,3,2.128939628601074,None,,,,,,,,,,,,,,,,,,134,4,2025-02-26_15h59.27.863,comp,2024.2.4,None,2025-02-26 15h59.40.251532 -0500,
126,126,0,filler_square,None,None,None,None,None,None,None,None,None,None,1,0.9322776794433594,None,,,,,0,0,0,0,0,126,126,175,482.4040036201477,,,,,,,,,,,,,,,,,,,,,,,,,,,,,,,,,,,,,,,,,,,,,,,,,,,,,,,,,,,,,,,,,,,,,,,,,,,,,,,,,116.27305315280002,116.27305315280002,79.7313901611023,63.46544092536903,76.39537084971904,65.54649460084892,2.1,2.12,-186,-268,0,-260,161,280,482.3878593444824,482.38793778419495,482.39087080955505,482.4040036201477,482.5490937232971,482.5490937232971,482.5490937232971,482.5490937232971,482.5490937232971,482.5490937232971,482.5490937232971,483.34952116012573,1,0.9322776794433594,None,,,,,,,,,,,,,,,,,,134,4,2025-02-26_15h59.27.863,comp,2024.2.4,None,2025-02-26 15h59.40.251532 -0500,
127,127,0,critical,hwd,35.0,3.0,lower,133.0,57.0,57.0,133.0,70.0,70.0,2,1.6712231636047363,None,,,,,0,0,0,0,0,127,127,98,483.36983251571655,,,,,,,,,,,,,,,,,,,,,,,,,,,,,,,,,,,,,,,,,,,,,,,,,,,,,,,,,,,,,,,,,,,,,,,,,,,,,,,,,133.0,57.0,57.0,133.0,70.0,70.0,3.0,3.1,-191,281,0,-9,198,-251,483.35113739967346,483.3512146472931,483.3545744419098,483.36983251571655,483.51657485961914,483.51657485961914,483.51657485961914,483.51657485961914,483.51657485961914,483.51657485961914,483.51657485961914,485.0512104034424,2,1.6712231636047363,None,,,,,,,,,,,,,,,,,,134,4,2025-02-26_15h59.27.863,comp,2024.2.4,None,2025-02-26 15h59.40.251532 -0500,
128,128,0,filler_random,None,None,None,None,None,None,None,None,None,None,2,1.3818790912628174,None,,,,,0,0,0,0,0,128,128,149,485.0671365261078,,,,,,,,,,,,,,,,,,,,,,,,,,,,,,,,,,,,,,,,,,,,,,,,,,,,,,,,,,,,,,,,,,,,,,,,,,,,,,,,,83.50345594589572,95.42743628099095,179.64886855410015,115.37956120161633,65.44437674743313,125.73563949121746,2.1,2.11,-201,267,0,285,217,-258,485.052939414978,485.05305767059326,485.05633568763733,485.0671365261078,485.2177948951721,485.2177948951721,485.2177948951721,485.2177948951721,485.2177948951721,485.2177948951721,485.2177948951721,486.4513010978699,2,1.3818790912628174,None,,,,,,,,,,,,,,,,,,134,4,2025-02-26_15h59.27.863,comp,2024.2.4,None,2025-02-26 15h59.40.251532 -0500,
129,129,0,catch,None,None,None,None,None,None,None,None,None,None,2,1.4132401943206787,None,,,,,0,0,0,0,0,129,129,126,486.46761417388916,,,,,,,,,,,,,,,,,,,,,,,,,,,,,,,,,,,,,,,,,,,,,,,,,,,,,,,,,,,,,,,,,,,,,,,,,,,,,,,,,121,69,197,128,130,60,2.1,2.12,-194,-262,0,-283,190,251,486.4532995223999,486.4533772468567,486.4567320346832,486.46761417388916,486.6160521507263,486.6160521507263,486.6160521507263,486.6160521507263,486.6160521507263,486.6160521507263,486.6160521507263,487.8833475112915,2,1.4132401943206787,None,,,,,,,,,,,,,,,,,,134,4,2025-02-26_15h59.27.863,comp,2024.2.4,None,2025-02-26 15h59.40.251532 -0500,
130,130,0,filler_random,None,None,None,None,None,None,None,None,None,None,3,1.1884660720825195,None,,,,,0,0,0,0,0,130,130,130,487.900039434433,,,,,,,,,,,,,,,,,,,,,,,,,,,,,,,,,,,,,,,,,,,,,,,,,,,,,,,,,,,,,,,,,,,,,,,,,,,,,,,,,80.35471850777064,79.71015884204533,123.04368525566329,147.29263501906127,182.95700741243155,180.78902966748558,2.2,2.21,-210,-270,0,277,260,260,487.8850281238556,487.88510847091675,487.88811469078064,487.900039434433,488.0539252758026,488.0539252758026,488.0539252758026,488.0539252758026,488.0539252758026,488.0539252758026,488.0539252758026,489.1017417907715,3,1.1884660720825195,None,,,,,,,,,,,,,,,,,,134,4,2025-02-26_15h59.27.863,comp,2024.2.4,None,2025-02-26 15h59.40.251532 -0500,
131,131,0,catch,None,None,None,None,None,None,None,None,None,None,1,0.8576021194458008,None,,,,,0,0,0,0,0,131,131,123,489.11871910095215,,,,,,,,,,,,,,,,,,,,,,,,,,,,,,,,,,,,,,,,,,,,,,,,,,,,,,,,,,,,,,,,,,,,,,,,,,,,,,,,,134,191,130,60,109,81,4.0,4.1,-222,-271,0,0,166,-279,489.10363507270813,489.1037130355835,489.1070349216461,489.11871910095215,489.2777564525604,489.2777564525604,489.2777564525604,489.2777564525604,489.2777564525604,489.2777564525604,489.2777564525604,489.98605275154114,1,0.8576021194458008,None,,,,,,,,,,,,,,,,,,134,4,2025-02-26_15h59.27.863,comp,2024.2.4,None,2025-02-26 15h59.40.251532 -0500,
132,132,0,filler_random,None,None,None,None,None,None,None,None,None,None,3,0.8385050296783447,None,,,,,0,0,0,0,0,132,132,145,490.00206899642944,,,,,,,,,,,,,,,,,,,,,,,,,,,,,,,,,,,,,,,,,,,,,,,,,,,,,,,,,,,,,,,,,,,,,,,,,,,,,,,,,65.07648240934168,131.82021905742369,162.13173974403304,109.96490107033046,168.15087181943977,168.3949191000446,3.0,3.2,-217,-250,0,11,235,252,489.98771715164185,489.98779463768005,489.9911439418793,490.00206899642944,490.1530828475952,490.1530828475952,490.1530828475952,490.1530828475952,490.1530828475952,490.1530828475952,490.1530828475952,490.85978627204895,3,0.8385050296783447,None,,,,,,,,,,,,,,,,,,134,4,2025-02-26_15h59.27.863,comp,2024.2.4,None,2025-02-26 15h59.40.251532 -0500,
133,133,0,critical,dwh,35.0,3.0,lower,70.0,70.0,57.0,133.0,133.0,57.0,2,3.1758460998535156,None,,,,,0,0,0,0,0,133,133,62,490.88050150871277,,,,,,,,,,,,,,,,,,,,,,,,,,,,,,,,,,,,,,,,,,,,,,,,,,,,,,,,,,,,,,,,,,,,,,,,,,,,,,,,,70.0,70.0,57.0,133.0,133.0,57.0,3.0,3.1,-198,260,0,0,191,-271,490.86150074005127,490.8616044521332,490.86496090888977,490.88050150871277,491.0160460472107,491.0160460472107,491.0160460472107,491.0160460472107,491.0160460472107,491.0160460472107,491.0160460472107,494.0692822933197,2,3.1758460998535156,None,,,,,,,,,,,,,,,,,,134,4,2025-02-26_15h59.27.863,comp,2024.2.4,None,2025-02-26 15h59.40.251532 -0500,
134,134,0,filler_random,None,None,None,None,None,None,None,None,None,None,2,2.624382257461548,None,,,,,0,0,0,0,0,134,134,147,494.088796377182,,,,,,,,,,,,,,,,,,,,,,,,,,,,,,,,,,,,,,,,,,,,,,,,,,,,,,,,,,,,,,,,,,,,,,,,,,,,,,,,,76.00106985179748,164.9259179059747,152.66382119203922,101.69125173963353,66.55302855805587,160.2846060577882,4.0,4.2,-229,20,0,-253,227,-15,494.0708227157593,494.07089734077454,494.0738716125488,494.088796377182,494.23658204078674,494.23658204078674,494.23658204078674,494.23658204078674,494.23658204078674,494.23658204078674,494.23658204078674,496.72131872177124,2,2.624382257461548,None,,,,,,,,,,,,,,,,,,134,4,2025-02-26_15h59.27.863,comp,2024.2.4,None,2025-02-26 15h59.40.251532 -0500,
135,135,0,filler_square,None,None,None,None,None,None,None,None,None,None,3,1.0700860023498535,None,,,,,0,0,0,0,0,135,135,177,496.7381823062897,,,,,,,,,,,,,,,,,,,,,,,,,,,,,,,,,,,,,,,,,,,,,,,,,,,,,,,,,,,,,,,,,,,,,,,,,,,,,,,,,100.57410594895146,71.6573588708218,87.30170747210626,82.70136529459296,101.94308327581305,101.94308327581305,2.2,2.22,-173,283,0,-280,188,-281,496.72314739227295,496.7232265472412,496.7263672351837,496.7381823062897,496.89112091064453,496.89112091064453,496.89112091064453,496.89112091064453,496.89112091064453,496.89112091064453,496.89112091064453,497.8200695514679,3,1.0700860023498535,None,,,,,,,,,,,,,,,,,,134,4,2025-02-26_15h59.27.863,comp,2024.2.4,None,2025-02-26 15h59.40.251532 -0500,
136,136,0,filler_square,None,None,None,None,None,None,None,None,None,None,3,0.8686208724975586,None,,,,,0,0,0,0,0,136,136,204,497.83587312698364,,,,,,,,,,,,,,,,,,,,,,,,,,,,,,,,,,,,,,,,,,,,,,,,,,,,,,,,,,,,,,,,,,,,,,,,,,,,,,,,,122.11643236582206,83.9975964624296,112.15634635504206,97.04959972111757,153.19826578495645,153.19826578495645,2.2,2.21,-187,-254,0,268,221,262,497.82174277305603,497.8218193054199,497.8248164653778,497.83587312698364,497.98867106437683,497.98867106437683,497.98867106437683,497.98867106437683,497.98867106437683,497.98867106437683,497.98867106437683,498.7220380306244,3,0.8686208724975586,None,,,,,,,,,,,,,,,,,,134,4,2025-02-26_15h59.27.863,comp,2024.2.4,None,2025-02-26 15h59.40.251532 -0500,
137,137,0,critical,hwd,20.0,1.0,lower,133.0,57.0,57.0,133.0,78.0,78.0,2,3.727769613265991,None,,,,,0,0,0,0,0,137,137,102,498.737295627594,,,,,,,,,,,,,,,,,,,,,,,,,,,,,,,,,,,,,,,,,,,,,,,,,,,,,,,,,,,,,,,,,,,,,,,,,,,,,,,,,133.0,57.0,57.0,133.0,78.0,78.0,1.0,1.3,289,-284,480,-258,682,-273,498.72356486320496,498.72363924980164,498.7267909049988,498.737295627594,498.88516902923584,498.88516902923584,498.88516902923584,498.88516902923584,498.88516902923584,498.88516902923584,498.88516902923584,502.47163248062134,2,3.727769613265991,None,,,,,,,,,,,,,,,,,,134,4,2025-02-26_15h59.27.863,comp,2024.2.4,None,2025-02-26 15h59.40.251532 -0500,
138,138,0,critical,hdw,35.0,2.1,upper,200.0,125.0,127.0,127.0,125.0,200.0,3,1.408505916595459,None,,,,,0,0,0,0,0,138,138,45,502.48858857154846,,,,,,,,,,,,,,,,,,,,,,,,,,,,,,,,,,,,,,,,,,,,,,,,,,,,,,,,,,,,,,,,,,,,,,,,,,,,,,,,,200.0,125.0,127.0,127.0,125.0,200.0,2.1,2.11,-222,272,0,289,260,-276,502.47328424453735,502.4733693599701,502.4767062664032,502.48858857154846,502.62608218193054,502.62608218193054,502.62608218193054,502.62608218193054,502.62608218193054,502.62608218193054,502.62608218193054,503.9055905342102,3,1.408505916595459,None,,,,,,,,,,,,,,,,,,134,4,2025-02-26_15h59.27.863,comp,2024.2.4,None,2025-02-26 15h59.40.251532 -0500,
139,139,0,critical,dhw,20.0,1.0,upper,141.0,141.0,200.0,125.0,125.0,200.0,3,3.919065237045288,None,,,,,0,0,0,0,0,139,139,55,503.92202281951904,,,,,,,,,,,,,,,,,,,,,,,,,,,,,,,,,,,,,,,,,,,,,,,,,,,,,,,,,,,,,,,,,,,,,,,,,,,,,,,,,141.0,141.0,200.0,125.0,125.0,200.0,1.0,1.2,-229,6,0,3,258,5,503.90706992149353,503.90714955329895,503.9101755619049,503.92202281951904,504.07734417915344,504.07734417915344,504.07734417915344,504.07734417915344,504.07734417915344,504.07734417915344,504.07734417915344,507.8511905670166,3,3.919065237045288,None,,,,,,,,,,,,,,,,,,134,4,2025-02-26_15h59.27.863,comp,2024.2.4,None,2025-02-26 15h59.40.251532 -0500,
140,140,0,filler_square,None,None,None,None,None,None,None,None,None,None,2,0.8797078132629395,None,,,,,0,0,0,0,0,140,140,187,507.87253403663635,,,,,,,,,,,,,,,,,,,,,,,,,,,,,,,,,,,,,,,,,,,,,,,,,,,,,,,,,,,,,,,,,,,,,,,,,,,,,,,,,90.05666497845206,60.08604070354705,97.90114932298613,97.90114932298613,78.74257644089995,75.01046663613427,4.0,4.1,-175,-259,0,14,182,-273,507.8532235622406,507.8533055782318,507.8566608428955,507.87253403663635,508.0084562301636,508.0084562301636,508.0084562301636,508.0084562301636,508.0084562301636,508.0084562301636,508.0084562301636,508.7622289657593,2,0.8797078132629395,None,,,,,,,,,,,,,,,,,,134,4,2025-02-26_15h59.27.863,comp,2024.2.4,None,2025-02-26 15h59.40.251532 -0500,
141,141,0,filler_square,None,None,None,None,None,None,None,None,None,None,2,1.349606990814209,None,,,,,0,0,0,0,0,141,141,180,508.77954173088074,,,,,,,,,,,,,,,,,,,,,,,,,,,,,,,,,,,,,,,,,,,,,,,,,,,,,,,,,,,,,,,,,,,,,,,,,,,,,,,,,86.57606628130233,127.44840112907343,188.78044024444748,188.78044024444748,151.39678824722634,162.07539865803753,4.0,4.1,-254,-270,0,12,271,-261,508.7643458843231,508.7644274234772,508.7677569389343,508.77954173088074,508.9252779483795,508.9252779483795,508.9252779483795,508.9252779483795,508.9252779483795,508.9252779483795,508.9252779483795,510.1348834037781,2,1.349606990814209,None,,,,,,,,,,,,,,,,,,134,4,2025-02-26_15h59.27.863,comp,2024.2.4,None,2025-02-26 15h59.40.251532 -0500,
142,142,0,filler_random,None,None,None,None,None,None,None,None,None,None,2,1.185258150100708,None,,,,,0,0,0,0,0,142,142,165,510.1515996456146,,,,,,,,,,,,,,,,,,,,,,,,,,,,,,,,,,,,,,,,,,,,,,,,,,,,,,,,,,,,,,,,,,,,,,,,,,,,,,,,,119.23726665068837,72.82053670237205,185.87258406739807,142.84862153835007,134.02467249975166,125.03514400614779,3.0,3.1,-204,253,0,15,230,-266,510.1366171836853,510.13669753074646,510.13966274261475,510.1515996456146,510.2919580936432,510.2919580936432,510.2919580936432,510.2919580936432,510.2919580936432,510.2919580936432,510.2919580936432,511.34082889556885,2,1.185258150100708,None,,,,,,,,,,,,,,,,,,134,4,2025-02-26_15h59.27.863,comp,2024.2.4,None,2025-02-26 15h59.40.251532 -0500,
