thisN,thisTrialN,thisRepN,effect,order,distance,config,diag,h_1,w_1,h_2,w_2,h_3,w_3,rect_choice.keys,rect_choice.rt,rect_choice.duration,instructions_loop.thisRepN,instructions_loop.thisTrialN,instructions_loop.thisN,instructions_loop.thisIndex,blocks.thisRepN,blocks.thisTrialN,blocks.thisN,blocks.thisIndex,trials.thisRepN,trials.thisTrialN,trials.thisN,trials.thisIndex,thisRow.t,notes,consent.started,agree_button.started,decline_button.started,consent_img.started,mouse.started,consent.stopped,agree_button.numClicks,agree_button.timesOn,agree_button.timesOff,decline_button.numClicks,decline_button.timesOn,decline_button.timesOff,mouse.x,mouse.y,mouse.leftButton,mouse.midButton,mouse.rightButton,mouse.time,mouse.clicked_name,exp_params.started,exp_params.stopped,welcome.started,welcome_text.started,welcome.stopped,instructions_1.started,instructions_1_text_1.started,instructions_1_text_2.started,key_resp.started,instructions_1.stopped,instructions_loop.key_resp.keys,instructions_loop.key_resp.rt,instructions_loop.key_resp.duration,instructions_2.started,instructions_2_text_1.started,instructions_2_text_2.started,key_resp_2.started,instructions_2.stopped,instructions_loop.key_resp_2.keys,instructions_loop.key_resp_2.rt,instructions_loop.key_resp_2.duration,instructions_3.started,instructions_3_text_1.started,r1_instr3.started,r2_instr3.started,r3_instr3.started,r1_instr3_label.started,r2_instr3_label.started,r3_instr3_label.started,instructions_3_text_3.started,instructions_3_text_4.started,key_resp_3.started,instructions_3.stopped,instructions_loop.key_resp_3.keys,instructions_loop.key_resp_3.rt,instructions_loop.key_resp_3.duration,instructions_4.started,instructions_4_text_1.started,instructions_4_text_3.started,instructions_4_text_2.started,key_resp_4.started,instructions_4.stopped,instructions_loop.key_resp_4.keys,instructions_loop.key_resp_4.rt,instructions_loop.key_resp_4.duration,instructions_5.started,instructions_5_text_1.started,instructions_5_text_2.started,key_resp_5.started,instructions_5.stopped,instructions_loop.key_resp_5.keys,instructions_loop.key_resp_5.rt,instructions_loop.key_resp_5.duration,start_exp.started,start_exp_text.started,key_resp_6.started,start_exp.stopped,key_resp_6.keys,key_resp_6.rt,key_resp_6.duration,h_1_tmp,w_1_tmp,h_2_tmp,w_2_tmp,h_3_tmp,w_3_tmp,config_tmp,config_tmp_1,r_1_x,r_1_y,r_2_x,r_2_y,r_3_x,r_3_y,pre_trial.started,pre_trial.stopped,choice_trial.started,rect_choice.started,r_1.started,r_2.started,r_3.started,r_1_label.started,r_2_label.started,r_3_label.started,prompt.started,choice_trial.stopped,trials.rect_choice.keys,trials.rect_choice.rt,trials.rect_choice.duration,end_block.started,end_block_text.started,end_block.stopped,end.started,end_text.started,key_resp_7.started,end.stopped,key_resp_7.keys,key_resp_7.rt,key_resp_7.duration,debriefing.started,debrief_form.started,end_debrief.started,debriefing.stopped,end_debrief.keys,end_debrief.rt,end_debrief.duration,participant,computer,date,expName,psychopyVersion,frameRate,expStart,
,,,,,,,,,,,,,,,,,,,,,,,,,,,,,,,0.015651941299438477,0.04192042350769043,0.04192042350769043,0.04192042350769043,0.015156984329223633,55.06014847755432,1,[55.01699876785278],[55.01702952384949],0,,,[-92.0],[-507.0],[1],[0],[0],[55.04377222061157],['agree_button'],,,,,,,,,,,,,,,,,,,,,,,,,,,,,,,,,,,,,,,,,,,,,,,,,,,,,,,,,,,,,,,,,,,,,,,,,,,,,,,,,,,,,,,,,,,,,,,,,,,,,,,,,,,135,5,2025-02-26_15h59.23.177,comp,2024.2.4,61.97843767732173,2025-02-26 15h59.33.773333 -0500,
,,,,,,,,,,,,,,,,,,,,,,,,,,,,,,,,,,,,,,,,,,,,,,,,,,55.06041765213013,55.06045174598694,,,,,,,,,,,,,,,,,,,,,,,,,,,,,,,,,,,,,,,,,,,,,,,,,,,,,,,,,,,,,,,,,,,,,,,,,,,,,,,,,,,,,,,,,,,,,,,,,,,,,,,,,135,5,2025-02-26_15h59.23.177,comp,2024.2.4,61.97843767732173,2025-02-26 15h59.33.773333 -0500,
,,,,,,,,,,,,,,,,,,,,,,,,,,,,,,,,,,,,,,,,,,,,,,,,,,,,55.06047463417053,55.0739541053772,57.063358545303345,,,,,,,,,,,,,,,,,,,,,,,,,,,,,,,,,,,,,,,,,,,,,,,,,,,,,,,,,,,,,,,,,,,,,,,,,,,,,,,,,,,,,,,,,,,,,,,,,,,,,,135,5,2025-02-26_15h59.23.177,comp,2024.2.4,61.97843767732173,2025-02-26 15h59.33.773333 -0500,
0,0,0,,,,,,,,,,,,,,,0,0,0,0,,,,,,,,,57.08043599128723,,,,,,,,,,,,,,,,,,,,,,,,,,57.06391739845276,57.08043599128723,57.08043599128723,58.563312292099,60.73115634918213,space,2.152015209197998,None,60.731236696243286,60.74667954444885,60.74667954444885,62.24654984474182,67.83096933364868,space,5.566925048828125,None,67.83107542991638,67.85282397270203,67.85282397270203,67.85282397270203,67.85282397270203,67.85282397270203,67.85282397270203,67.85282397270203,67.85282397270203,67.85282397270203,69.33076882362366,77.66499638557434,space,8.330670833587646,None,77.66508841514587,77.6804370880127,77.6804370880127,77.6804370880127,79.17981219291687,86.76410245895386,space,7.568553924560547,None,86.76418995857239,86.7797384262085,86.7797384262085,88.27965545654297,90.88081359863281,space,2.5970795154571533,None,90.88092803955078,90.89650440216064,90.89650440216064,91.99729466438293,space,1.0913598537445068,None,,,,,,,,,,,,,,,,,,,,,,,,,,,,,,,,,,,,,,,,,,,,,,,135,5,2025-02-26_15h59.23.177,comp,2024.2.4,61.97843767732173,2025-02-26 15h59.33.773333 -0500,
0,0,0,catch,None,None,None,None,None,None,None,None,None,None,3,2.4408440589904785,None,,,,,0,0,0,0,0,0,0,127,92.05819344520569,,,,,,,,,,,,,,,,,,,,,,,,,,,,,,,,,,,,,,,,,,,,,,,,,,,,,,,,,,,,,,,,,,,,,,,,,,,,,,,,,89,101,121,69,140,185,3.0,3.2,-181,-276,0,1,223,276,92.04442262649536,92.04446935653687,92.04658794403076,92.05819344520569,92.20311164855957,92.20311164855957,92.20311164855957,92.20311164855957,92.20311164855957,92.20311164855957,92.20311164855957,94.51425123214722,3,2.4408440589904785,None,,,,,,,,,,,,,,,,,,135,5,2025-02-26_15h59.23.177,comp,2024.2.4,61.97843767732173,2025-02-26 15h59.33.773333 -0500,
1,1,0,filler_random,None,None,None,None,None,None,None,None,None,None,3,2.434056282043457,None,,,,,0,0,0,0,0,1,1,156,94.5296995639801,,,,,,,,,,,,,,,,,,,,,,,,,,,,,,,,,,,,,,,,,,,,,,,,,,,,,,,,,,,,,,,,,,,,,,,,,,,,,,,,,71.85359843746369,82.81555446299713,148.12092693748986,82.36115111157244,169.5866152363484,162.53213177858527,1.0,1.3,301,-290,480,-253,698,-254,94.51518034934998,94.51522064208984,94.51765418052673,94.5296995639801,94.67983555793762,94.67983555793762,94.67983555793762,94.67983555793762,94.67983555793762,94.67983555793762,94.67983555793762,96.98091578483582,3,2.434056282043457,None,,,,,,,,,,,,,,,,,,135,5,2025-02-26_15h59.23.177,comp,2024.2.4,61.97843767732173,2025-02-26 15h59.33.773333 -0500,
2,2,0,critical,wdh,20.0,1.0,lower,57.0,133.0,78.0,78.0,133.0,57.0,2,18.74353003501892,None,,,,,0,0,0,0,0,2,2,78,96.9962158203125,,,,,,,,,,,,,,,,,,,,,,,,,,,,,,,,,,,,,,,,,,,,,,,,,,,,,,,,,,,,,,,,,,,,,,,,,,,,,,,,,57.0,133.0,78.0,78.0,133.0,57.0,1.0,1.3,278,-257,480,-279,644,-273,96.98173332214355,96.98177528381348,96.98392462730408,96.9962158203125,97.14631223678589,97.14631223678589,97.14631223678589,97.14631223678589,97.14631223678589,97.14631223678589,97.14631223678589,115.7473304271698,2,18.74353003501892,None,,,,,,,,,,,,,,,,,,135,5,2025-02-26_15h59.23.177,comp,2024.2.4,61.97843767732173,2025-02-26 15h59.33.773333 -0500,
3,3,0,filler_random,None,None,None,None,None,None,None,None,None,None,1,2.99295973777771,None,,,,,0,0,0,0,0,3,3,135,115.76309967041016,,,,,,,,,,,,,,,,,,,,,,,,,,,,,,,,,,,,,,,,,,,,,,,,,,,,,,,,,,,,,,,,,,,,,,,,,,,,,,,,,192.0388033474793,198.98176402325234,128.13133245821814,197.1830171488128,149.86656995476818,71.83812279518651,2.1,2.11,-294,263,0,288,231,-278,115.74828052520752,115.74832248687744,115.75076508522034,115.76309967041016,115.91308498382568,115.91308498382568,115.91308498382568,115.91308498382568,115.91308498382568,115.91308498382568,115.91308498382568,118.76500082015991,1,2.99295973777771,None,,,,,,,,,,,,,,,,,,135,5,2025-02-26_15h59.23.177,comp,2024.2.4,61.97843767732173,2025-02-26 15h59.33.773333 -0500,
4,4,0,filler_square,None,None,None,None,None,None,None,None,None,None,1,5.285743474960327,None,,,,,0,0,0,0,0,4,4,189,118.78188157081604,,,,,,,,,,,,,,,,,,,,,,,,,,,,,,,,,,,,,,,,,,,,,,,,,,,,,,,,,,,,,,,,,,,,,,,,,,,,,,,,,63.35166115043987,58.31591186641307,59.88947215941409,59.82731366122593,66.31349871668726,66.31349871668726,2.1,2.12,-155,-288,0,-272,159,260,118.7660219669342,118.76606607437134,118.76825714111328,118.78188157081604,118.92956042289734,118.92956042289734,118.92956042289734,118.92956042289734,118.92956042289734,118.92956042289734,118.92956042289734,124.08054161071777,1,5.285743474960327,None,,,,,,,,,,,,,,,,,,135,5,2025-02-26_15h59.23.177,comp,2024.2.4,61.97843767732173,2025-02-26 15h59.33.773333 -0500,
5,5,0,critical,dhw,20.0,4.0,lower,78.0,78.0,133.0,57.0,57.0,133.0,2,6.227643251419067,None,,,,,0,0,0,0,0,5,5,58,124.09605407714844,,,,,,,,,,,,,,,,,,,,,,,,,,,,,,,,,,,,,,,,,,,,,,,,,,,,,,,,,,,,,,,,,,,,,,,,,,,,,,,,,78.0,78.0,133.0,57.0,57.0,133.0,4.0,4.1,-164,-285,0,-3,191,-281,124.08136057853699,124.08140206336975,124.08402252197266,124.09605407714844,124.24630498886108,124.24630498886108,124.24630498886108,124.24630498886108,124.24630498886108,124.24630498886108,124.24630498886108,130.33056163787842,2,6.227643251419067,None,,,,,,,,,,,,,,,,,,135,5,2025-02-26_15h59.23.177,comp,2024.2.4,61.97843767732173,2025-02-26 15h59.33.773333 -0500,
6,6,0,critical,dhw,35.0,3.0,upper,127.0,127.0,200.0,125.0,125.0,200.0,2,3.5843632221221924,None,,,,,0,0,0,0,0,6,6,51,130.34635400772095,,,,,,,,,,,,,,,,,,,,,,,,,,,,,,,,,,,,,,,,,,,,,,,,,,,,,,,,,,,,,,,,,,,,,,,,,,,,,,,,,127.0,127.0,200.0,125.0,125.0,200.0,3.0,3.2,-222,-259,0,-14,258,257,130.3313865661621,130.33142852783203,130.33392429351807,130.34635400772095,130.4963719844818,130.4963719844818,130.4963719844818,130.4963719844818,130.4963719844818,130.4963719844818,130.4963719844818,133.94742345809937,2,3.5843632221221924,None,,,,,,,,,,,,,,,,,,135,5,2025-02-26_15h59.23.177,comp,2024.2.4,61.97843767732173,2025-02-26 15h59.33.773333 -0500,
7,7,0,critical,dwh,35.0,4.0,upper,127.0,127.0,125.0,200.0,200.0,125.0,2,12.408926963806152,None,,,,,0,0,0,0,0,7,7,65,133.96263766288757,,,,,,,,,,,,,,,,,,,,,,,,,,,,,,,,,,,,,,,,,,,,,,,,,,,,,,,,,,,,,,,,,,,,,,,,,,,,,,,,,127.0,127.0,125.0,200.0,200.0,125.0,4.0,4.1,-260,-263,0,-9,258,-277,133.94826412200928,133.94830417633057,133.95078563690186,133.96263766288757,134.11303973197937,134.11303973197937,134.11303973197937,134.11303973197937,134.11303973197937,134.11303973197937,134.11303973197937,146.3806655406952,2,12.408926963806152,None,,,,,,,,,,,,,,,,,,135,5,2025-02-26_15h59.23.177,comp,2024.2.4,61.97843767732173,2025-02-26 15h59.33.773333 -0500,
8,8,0,filler_random,None,None,None,None,None,None,None,None,None,None,3,5.318684339523315,None,,,,,0,0,0,0,0,8,8,133,146.3961169719696,,,,,,,,,,,,,,,,,,,,,,,,,,,,,,,,,,,,,,,,,,,,,,,,,,,,,,,,,,,,,,,,,,,,,,,,,,,,,,,,,153.418848022136,138.27547687240997,191.27494438183396,151.31651365019144,175.31597310608709,184.1145444253922,2.1,2.11,-241,273,0,257,264,-288,146.38160133361816,146.38164377212524,146.38429713249207,146.3961169719696,146.54634165763855,146.54634165763855,146.54634165763855,146.54634165763855,146.54634165763855,146.54634165763855,146.54634165763855,151.7308225631714,3,5.318684339523315,None,,,,,,,,,,,,,,,,,,135,5,2025-02-26_15h59.23.177,comp,2024.2.4,61.97843767732173,2025-02-26 15h59.33.773333 -0500,
9,9,0,filler_square,None,None,None,None,None,None,None,None,None,None,3,3.7455427646636963,None,,,,,0,0,0,0,0,9,9,203,151.74590873718262,,,,,,,,,,,,,,,,,,,,,,,,,,,,,,,,,,,,,,,,,,,,,,,,,,,,,,,,,,,,,,,,,,,,,,,,,,,,,,,,,154.3786567985786,83.51023619476089,154.460166195301,122.98652350596502,179.744271014258,179.744271014258,2.1,2.11,-199,266,0,261,247,-274,151.73180437088013,151.73184633255005,151.73447942733765,151.74590873718262,151.89619946479797,151.89619946479797,151.89619946479797,151.89619946479797,151.89619946479797,151.89619946479797,151.89619946479797,155.49730277061462,3,3.7455427646636963,None,,,,,,,,,,,,,,,,,,135,5,2025-02-26_15h59.23.177,comp,2024.2.4,61.97843767732173,2025-02-26 15h59.33.773333 -0500,
10,10,0,critical,hwd,20.0,2.1,upper,200.0,125.0,125.0,200.0,141.0,141.0,2,1.3858487606048584,None,,,,,0,0,0,0,0,10,10,19,155.51280665397644,,,,,,,,,,,,,,,,,,,,,,,,,,,,,,,,,,,,,,,,,,,,,,,,,,,,,,,,,,,,,,,,,,,,,,,,,,,,,,,,,200.0,125.0,125.0,200.0,141.0,141.0,2.1,2.12,-258,-269,0,-289,266,268,155.49810481071472,155.49814677238464,155.5003218650818,155.51280665397644,155.66290616989136,155.66290616989136,155.66290616989136,155.66290616989136,155.66290616989136,155.66290616989136,155.66290616989136,156.91392707824707,2,1.3858487606048584,None,,,,,,,,,,,,,,,,,,135,5,2025-02-26_15h59.23.177,comp,2024.2.4,61.97843767732173,2025-02-26 15h59.33.773333 -0500,
11,11,0,filler_square,None,None,None,None,None,None,None,None,None,None,3,2.867093563079834,None,,,,,0,0,0,0,0,11,11,207,156.92908263206482,,,,,,,,,,,,,,,,,,,,,,,,,,,,,,,,,,,,,,,,,,,,,,,,,,,,,,,,,,,,,,,,,,,,,,,,,,,,,,,,,91.21783569143568,106.95779619417891,112.0516062617993,67.72285576227863,115.27697400439705,115.27697400439705,4.0,4.1,-183,-278,0,-13,187,-267,156.91490936279297,156.91494965553284,156.91732096672058,156.92908263206482,157.07944512367249,157.07944512367249,157.07944512367249,157.07944512367249,157.07944512367249,157.07944512367249,157.07944512367249,159.81372785568237,3,2.867093563079834,None,,,,,,,,,,,,,,,,,,135,5,2025-02-26_15h59.23.177,comp,2024.2.4,61.97843767732173,2025-02-26 15h59.33.773333 -0500,
12,12,0,filler_square,None,None,None,None,None,None,None,None,None,None,2,3.2054522037506104,None,,,,,0,0,0,0,0,12,12,195,159.82905673980713,,,,,,,,,,,,,,,,,,,,,,,,,,,,,,,,,,,,,,,,,,,,,,,,,,,,,,,,,,,,,,,,,,,,,,,,,,,,,,,,,144.76874097805705,107.17904728868051,167.26466702172075,167.26466702172075,85.5281073221232,97.4621380854253,4.0,4.1,-233,-287,0,-18,228,-282,159.81469464302063,159.81473636627197,159.81737112998962,159.82905673980713,159.97937965393066,159.97937965393066,159.97937965393066,159.97937965393066,159.97937965393066,159.97937965393066,159.97937965393066,163.0475194454193,2,3.2054522037506104,None,,,,,,,,,,,,,,,,,,135,5,2025-02-26_15h59.23.177,comp,2024.2.4,61.97843767732173,2025-02-26 15h59.33.773333 -0500,
13,13,0,filler_random,None,None,None,None,None,None,None,None,None,None,2,3.3719794750213623,None,,,,,0,0,0,0,0,13,13,159,163.06254816055298,,,,,,,,,,,,,,,,,,,,,,,,,,,,,,,,,,,,,,,,,,,,,,,,,,,,,,,,,,,,,,,,,,,,,,,,,,,,,,,,,154.30745652840702,153.39876191398298,153.528523287438,154.9925269422901,131.38874554491912,165.1920967427128,4.0,4.2,-250,-7,0,-264,256,12,163.04843401908875,163.04847502708435,163.05099964141846,163.06254816055298,163.21285343170166,163.21285343170166,163.21285343170166,163.21285343170166,163.21285343170166,163.21285343170166,163.21285343170166,166.44735980033875,2,3.3719794750213623,None,,,,,,,,,,,,,,,,,,135,5,2025-02-26_15h59.23.177,comp,2024.2.4,61.97843767732173,2025-02-26 15h59.33.773333 -0500,
14,14,0,critical,dwh,20.0,3.0,upper,141.0,141.0,125.0,200.0,200.0,125.0,2,2.5978996753692627,None,,,,,0,0,0,0,0,14,14,69,166.46251463890076,,,,,,,,,,,,,,,,,,,,,,,,,,,,,,,,,,,,,,,,,,,,,,,,,,,,,,,,,,,,,,,,,,,,,,,,,,,,,,,,,141.0,141.0,125.0,200.0,200.0,125.0,3.0,3.2,-266,-282,0,-6,258,270,166.4481737613678,166.44821524620056,166.45063877105713,166.46251463890076,166.6128387451172,166.6128387451172,166.6128387451172,166.6128387451172,166.6128387451172,166.6128387451172,166.6128387451172,169.06403303146362,2,2.5978996753692627,None,,,,,,,,,,,,,,,,,,135,5,2025-02-26_15h59.23.177,comp,2024.2.4,61.97843767732173,2025-02-26 15h59.33.773333 -0500,
15,15,0,filler_random,None,None,None,None,None,None,None,None,None,None,1,2.3082292079925537,None,,,,,0,0,0,0,0,15,15,148,169.07940912246704,,,,,,,,,,,,,,,,,,,,,,,,,,,,,,,,,,,,,,,,,,,,,,,,,,,,,,,,,,,,,,,,,,,,,,,,,,,,,,,,,172.7957738034026,154.52993916070542,153.17241823756126,166.73736112464996,65.45048724950945,172.0597556916523,3.0,3.2,-257,-286,0,2,265,260,169.0649392604828,169.0649938583374,169.06718516349792,169.07940912246704,169.22941660881042,169.22941660881042,169.22941660881042,169.22941660881042,169.22941660881042,169.22941660881042,169.22941660881042,171.3972556591034,1,2.3082292079925537,None,,,,,,,,,,,,,,,,,,135,5,2025-02-26_15h59.23.177,comp,2024.2.4,61.97843767732173,2025-02-26 15h59.33.773333 -0500,
16,16,0,critical,whd,20.0,2.1,lower,57.0,133.0,133.0,57.0,78.0,78.0,2,9.648316621780396,None,,,,,0,0,0,0,0,16,16,14,171.41276216506958,,,,,,,,,,,,,,,,,,,,,,,,,,,,,,,,,,,,,,,,,,,,,,,,,,,,,,,,,,,,,,,,,,,,,,,,,,,,,,,,,57.0,133.0,133.0,57.0,78.0,78.0,2.1,2.11,-191,263,0,274,164,-267,171.39805841445923,171.39810013771057,171.40052604675293,171.41276216506958,171.56255865097046,171.56255865097046,171.56255865097046,171.56255865097046,171.56255865097046,171.56255865097046,171.56255865097046,181.06380152702332,2,9.648316621780396,None,,,,,,,,,,,,,,,,,,135,5,2025-02-26_15h59.23.177,comp,2024.2.4,61.97843767732173,2025-02-26 15h59.33.773333 -0500,
17,17,0,filler_random,None,None,None,None,None,None,None,None,None,None,1,2.8600051403045654,None,,,,,0,0,0,0,0,17,17,164,181.07929849624634,,,,,,,,,,,,,,,,,,,,,,,,,,,,,,,,,,,,,,,,,,,,,,,,,,,,,,,,,,,,,,,,,,,,,,,,,,,,,,,,,99.77709240033369,194.0514037729931,147.71785498184687,104.40020163918632,186.5239119184959,61.126678977210275,3.0,3.2,-245,-261,0,16,179,287,181.06473207473755,181.06477618217468,181.0670349597931,181.07929849624634,181.2292652130127,181.2292652130127,181.2292652130127,181.2292652130127,181.2292652130127,181.2292652130127,181.2292652130127,183.94694066047668,1,2.8600051403045654,None,,,,,,,,,,,,,,,,,,135,5,2025-02-26_15h59.23.177,comp,2024.2.4,61.97843767732173,2025-02-26 15h59.33.773333 -0500,
18,18,0,critical,hwd,35.0,4.0,upper,200.0,125.0,125.0,200.0,127.0,127.0,2,4.2414186000823975,None,,,,,0,0,0,0,0,18,18,101,183.96257662773132,,,,,,,,,,,,,,,,,,,,,,,,,,,,,,,,,,,,,,,,,,,,,,,,,,,,,,,,,,,,,,,,,,,,,,,,,,,,,,,,,200.0,125.0,125.0,200.0,127.0,127.0,4.0,4.2,-258,14,0,-289,260,-4,183.94774770736694,183.94778752326965,183.95004987716675,183.96257662773132,184.11270594596863,184.11270594596863,184.11270594596863,184.11270594596863,184.11270594596863,184.11270594596863,184.11270594596863,188.21386671066284,2,4.2414186000823975,None,,,,,,,,,,,,,,,,,,135,5,2025-02-26_15h59.23.177,comp,2024.2.4,61.97843767732173,2025-02-26 15h59.33.773333 -0500,
19,19,0,critical,whd,35.0,2.1,lower,57.0,133.0,133.0,57.0,70.0,70.0,2,8.149970769882202,None,,,,,0,0,0,0,0,19,19,12,188.22936534881592,,,,,,,,,,,,,,,,,,,,,,,,,,,,,,,,,,,,,,,,,,,,,,,,,,,,,,,,,,,,,,,,,,,,,,,,,,,,,,,,,57.0,133.0,133.0,57.0,70.0,70.0,2.1,2.11,-191,273,0,258,160,-280,188.21465396881104,188.2146954536438,188.21726441383362,188.22936534881592,188.37918210029602,188.37918210029602,188.37918210029602,188.37918210029602,188.37918210029602,188.37918210029602,188.37918210029602,196.38044333457947,2,8.149970769882202,None,,,,,,,,,,,,,,,,,,135,5,2025-02-26_15h59.23.177,comp,2024.2.4,61.97843767732173,2025-02-26 15h59.33.773333 -0500,
20,20,0,critical,hwd,35.0,2.1,upper,200.0,125.0,125.0,200.0,127.0,127.0,1,9.00023889541626,None,,,,,0,0,0,0,0,20,20,41,196.39583134651184,,,,,,,,,,,,,,,,,,,,,,,,,,,,,,,,,,,,,,,,,,,,,,,,,,,,,,,,,,,,,,,,,,,,,,,,,,,,,,,,,200.0,125.0,125.0,200.0,127.0,127.0,2.1,2.12,-258,-269,0,-261,260,279,196.38125562667847,196.38129830360413,196.38351392745972,196.39583134651184,196.54594326019287,196.54594326019287,196.54594326019287,196.54594326019287,196.54594326019287,196.54594326019287,196.54594326019287,205.41362071037292,1,9.00023889541626,None,,,,,,,,,,,,,,,,,,135,5,2025-02-26_15h59.23.177,comp,2024.2.4,61.97843767732173,2025-02-26 15h59.33.773333 -0500,
21,21,0,critical,wdh,35.0,1.0,upper,125.0,200.0,127.0,127.0,200.0,125.0,1,3.05332350730896,None,,,,,0,0,0,0,0,21,21,73,205.4289813041687,,,,,,,,,,,,,,,,,,,,,,,,,,,,,,,,,,,,,,,,,,,,,,,,,,,,,,,,,,,,,,,,,,,,,,,,,,,,,,,,,125.0,200.0,127.0,127.0,200.0,125.0,1.0,1.1,-740,268,-480,271,-258,272,205.4144594669342,205.4145007133484,205.41799592971802,205.4289813041687,205.57908177375793,205.57908177375793,205.57908177375793,205.57908177375793,205.57908177375793,205.57908177375793,205.57908177375793,208.49693632125854,1,3.05332350730896,None,,,,,,,,,,,,,,,,,,135,5,2025-02-26_15h59.23.177,comp,2024.2.4,61.97843767732173,2025-02-26 15h59.33.773333 -0500,
22,22,0,filler_random,None,None,None,None,None,None,None,None,None,None,2,1.867180585861206,None,,,,,0,0,0,0,0,22,22,165,208.51217937469482,,,,,,,,,,,,,,,,,,,,,,,,,,,,,,,,,,,,,,,,,,,,,,,,,,,,,,,,,,,,,,,,,,,,,,,,,,,,,,,,,63.617661724680445,139.0165909492932,175.72312164197223,185.42704284595706,59.22559613519498,57.57186810362193,2.1,2.11,-258,265,0,289,217,-285,208.497864484787,208.49790740013123,208.50009846687317,208.51217937469482,208.66229104995728,208.66229104995728,208.66229104995728,208.66229104995728,208.66229104995728,208.66229104995728,208.66229104995728,210.38052034378052,2,1.867180585861206,None,,,,,,,,,,,,,,,,,,135,5,2025-02-26_15h59.23.177,comp,2024.2.4,61.97843767732173,2025-02-26 15h59.33.773333 -0500,
23,23,0,critical,hdw,20.0,2.1,upper,200.0,125.0,141.0,141.0,125.0,200.0,1,6.102458715438843,None,,,,,0,0,0,0,0,23,23,23,210.39577674865723,,,,,,,,,,,,,,,,,,,,,,,,,,,,,,,,,,,,,,,,,,,,,,,,,,,,,,,,,,,,,,,,,,,,,,,,,,,,,,,,,200.0,125.0,141.0,141.0,125.0,200.0,2.1,2.11,-229,264,0,270,266,-270,210.38132119178772,210.38136291503906,210.3836121559143,210.39577674865723,210.54590487480164,210.54590487480164,210.54590487480164,210.54590487480164,210.54590487480164,210.54590487480164,210.54590487480164,216.51361680030823,1,6.102458715438843,None,,,,,,,,,,,,,,,,,,135,5,2025-02-26_15h59.23.177,comp,2024.2.4,61.97843767732173,2025-02-26 15h59.33.773333 -0500,
24,24,0,critical,whd,20.0,4.0,upper,125.0,200.0,200.0,125.0,141.0,141.0,1,6.299737930297852,None,,,,,0,0,0,0,0,24,24,95,216.52880191802979,,,,,,,,,,,,,,,,,,,,,,,,,,,,,,,,,,,,,,,,,,,,,,,,,,,,,,,,,,,,,,,,,,,,,,,,,,,,,,,,,125.0,200.0,200.0,125.0,141.0,141.0,4.0,4.2,-258,17,0,-250,229,-10,216.51445531845093,216.5144968032837,216.51714634895325,216.52880191802979,216.6792757511139,216.6792757511139,216.6792757511139,216.6792757511139,216.6792757511139,216.6792757511139,216.6792757511139,222.83042788505554,1,6.299737930297852,None,,,,,,,,,,,,,,,,,,135,5,2025-02-26_15h59.23.177,comp,2024.2.4,61.97843767732173,2025-02-26 15h59.33.773333 -0500,
25,25,0,filler_random,None,None,None,None,None,None,None,None,None,None,2,3.0612754821777344,None,,,,,0,0,0,0,0,25,25,145,222.84571719169617,,,,,,,,,,,,,,,,,,,,,,,,,,,,,,,,,,,,,,,,,,,,,,,,,,,,,,,,,,,,,,,,,,,,,,,,,,,,,,,,,185.50421062362255,76.1306141813893,189.50335417994884,93.4826585990634,193.38908101404138,77.1340166495329,2.1,2.12,-181,-267,0,-254,181,280,222.8313386440277,222.8313820362091,222.83364748954773,222.84571719169617,222.99564218521118,222.99564218521118,222.99564218521118,222.99564218521118,222.99564218521118,222.99564218521118,222.99564218521118,225.91354513168335,2,3.0612754821777344,None,,,,,,,,,,,,,,,,,,135,5,2025-02-26_15h59.23.177,comp,2024.2.4,61.97843767732173,2025-02-26 15h59.33.773333 -0500,
26,26,0,critical,whd,35.0,3.0,lower,57.0,133.0,133.0,57.0,70.0,70.0,2,23.15300488471985,None,,,,,0,0,0,0,0,26,26,86,225.92904591560364,,,,,,,,,,,,,,,,,,,,,,,,,,,,,,,,,,,,,,,,,,,,,,,,,,,,,,,,,,,,,,,,,,,,,,,,,,,,,,,,,57.0,133.0,133.0,57.0,70.0,70.0,3.0,3.2,-191,-252,0,-8,160,265,225.91436910629272,225.9144127368927,225.91696858406067,225.92904591560364,226.07888460159302,226.07888460159302,226.07888460159302,226.07888460159302,226.07888460159302,226.07888460159302,226.07888460159302,249.0965666770935,2,23.15300488471985,None,,,,,,,,,,,,,,,,,,135,5,2025-02-26_15h59.23.177,comp,2024.2.4,61.97843767732173,2025-02-26 15h59.33.773333 -0500,
27,27,0,critical,dwh,35.0,1.0,upper,127.0,127.0,125.0,200.0,200.0,125.0,2,7.2838215827941895,None,,,,,0,0,0,0,0,27,27,61,249.11194896697998,,,,,,,,,,,,,,,,,,,,,,,,,,,,,,,,,,,,,,,,,,,,,,,,,,,,,,,,,,,,,,,,,,,,,,,,,,,,,,,,,127.0,127.0,125.0,200.0,200.0,125.0,1.0,1.3,220,-267,480,-271,738,-290,249.0973880290985,249.09742903709412,249.1000111103058,249.11194896697998,249.2622036933899,249.2622036933899,249.2622036933899,249.2622036933899,249.2622036933899,249.2622036933899,249.2622036933899,256.41338086128235,2,7.2838215827941895,None,,,,,,,,,,,,,,,,,,135,5,2025-02-26_15h59.23.177,comp,2024.2.4,61.97843767732173,2025-02-26 15h59.33.773333 -0500,
28,28,0,critical,dwh,35.0,3.0,upper,127.0,127.0,125.0,200.0,200.0,125.0,2,3.7739365100860596,None,,,,,0,0,0,0,0,28,28,63,256.4295537471771,,,,,,,,,,,,,,,,,,,,,,,,,,,,,,,,,,,,,,,,,,,,,,,,,,,,,,,,,,,,,,,,,,,,,,,,,,,,,,,,,127.0,127.0,125.0,200.0,200.0,125.0,3.0,3.2,-260,-261,0,-18,258,289,256.41419792175293,256.4142382144928,256.4166753292084,256.4295537471771,256.5789008140564,256.5789008140564,256.5789008140564,256.5789008140564,256.5789008140564,256.5789008140564,256.5789008140564,260.21336817741394,2,3.7739365100860596,None,,,,,,,,,,,,,,,,,,135,5,2025-02-26_15h59.23.177,comp,2024.2.4,61.97843767732173,2025-02-26 15h59.33.773333 -0500,
29,29,0,filler_square,None,None,None,None,None,None,None,None,None,None,3,1.974552869796753,None,,,,,0,0,0,0,0,29,29,180,260.2288739681244,,,,,,,,,,,,,,,,,,,,,,,,,,,,,,,,,,,,,,,,,,,,,,,,,,,,,,,,,,,,,,,,,,,,,,,,,,,,,,,,,147.2104116366159,121.47348232580354,67.98279943431822,58.259385971390266,184.89718637958163,184.89718637958163,3.0,3.2,-186,-275,0,2,218,278,260.2143397331238,260.2143814563751,260.2165811061859,260.2288739681244,260.3787200450897,260.3787200450897,260.3787200450897,260.3787200450897,260.3787200450897,260.3787200450897,260.3787200450897,262.21317410469055,3,1.974552869796753,None,,,,,,,,,,,,,,,,,,135,5,2025-02-26_15h59.23.177,comp,2024.2.4,61.97843767732173,2025-02-26 15h59.33.773333 -0500,
30,30,0,filler_square,None,None,None,None,None,None,None,None,None,None,1,12.966808319091797,None,,,,,0,0,0,0,0,30,30,178,262.22870922088623,,,,,,,,,,,,,,,,,,,,,,,,,,,,,,,,,,,,,,,,,,,,,,,,,,,,,,,,,,,,,,,,,,,,,,,,,,,,,,,,,102.2649665474396,126.34514103892357,83.16390812765428,114.00656999080421,127.48990428466111,127.48990428466111,3.0,3.2,-216,-286,0,-8,217,286,262.2141492366791,262.2141926288605,262.2166793346405,262.22870922088623,262.3787212371826,262.3787212371826,262.3787212371826,262.3787212371826,262.3787212371826,262.3787212371826,262.3787212371826,275.2132058143616,1,12.966808319091797,None,,,,,,,,,,,,,,,,,,135,5,2025-02-26_15h59.23.177,comp,2024.2.4,61.97843767732173,2025-02-26 15h59.33.773333 -0500,
31,31,0,critical,dhw,20.0,1.0,lower,78.0,78.0,133.0,57.0,57.0,133.0,2,3.88645339012146,None,,,,,0,0,0,0,0,31,31,54,275.228563785553,,,,,,,,,,,,,,,,,,,,,,,,,,,,,,,,,,,,,,,,,,,,,,,,,,,,,,,,,,,,,,,,,,,,,,,,,,,,,,,,,78.0,78.0,133.0,57.0,57.0,133.0,1.0,1.1,-644,278,-480,252,-289,252,275.2140176296234,275.214058637619,275.2174160480499,275.228563785553,275.3785240650177,275.3785240650177,275.3785240650177,275.3785240650177,275.3785240650177,275.3785240650177,275.3785240650177,279.12969160079956,2,3.88645339012146,None,,,,,,,,,,,,,,,,,,135,5,2025-02-26_15h59.23.177,comp,2024.2.4,61.97843767732173,2025-02-26 15h59.33.773333 -0500,
32,32,0,critical,whd,20.0,2.1,upper,125.0,200.0,200.0,125.0,141.0,141.0,1,2.2255821228027344,None,,,,,0,0,0,0,0,32,32,39,279.1450548171997,,,,,,,,,,,,,,,,,,,,,,,,,,,,,,,,,,,,,,,,,,,,,,,,,,,,,,,,,,,,,,,,,,,,,,,,,,,,,,,,,125.0,200.0,200.0,125.0,141.0,141.0,2.1,2.12,-258,-279,0,-289,229,264,279.13048911094666,279.13053035736084,279.1326551437378,279.1450548171997,279.29542088508606,279.29542088508606,279.29542088508606,279.29542088508606,279.29542088508606,279.29542088508606,279.29542088508606,281.3798282146454,1,2.2255821228027344,None,,,,,,,,,,,,,,,,,,135,5,2025-02-26_15h59.23.177,comp,2024.2.4,61.97843767732173,2025-02-26 15h59.33.773333 -0500,
33,33,0,filler_square,None,None,None,None,None,None,None,None,None,None,3,5.334197759628296,None,,,,,0,0,0,0,0,33,33,172,281.39559173583984,,,,,,,,,,,,,,,,,,,,,,,,,,,,,,,,,,,,,,,,,,,,,,,,,,,,,,,,,,,,,,,,,,,,,,,,,,,,,,,,,60.55875992935036,60.55875992935036,57.478419020553766,58.646826289641865,60.55185065152355,59.53553887348052,3.0,3.1,-156,251,0,-8,155,-285,281.3809587955475,281.38101983070374,281.3833258152008,281.39559173583984,281.5450768470764,281.5450768470764,281.5450768470764,281.5450768470764,281.5450768470764,281.5450768470764,281.5450768470764,286.74622631073,3,5.334197759628296,None,,,,,,,,,,,,,,,,,,135,5,2025-02-26_15h59.23.177,comp,2024.2.4,61.97843767732173,2025-02-26 15h59.33.773333 -0500,
34,34,0,filler_square,None,None,None,None,None,None,None,None,None,None,1,1.7135746479034424,None,,,,,0,0,0,0,0,34,34,198,286.7616250514984,,,,,,,,,,,,,,,,,,,,,,,,,,,,,,,,,,,,,,,,,,,,,,,,,,,,,,,,,,,,,,,,,,,,,,,,,,,,,,,,,117.2759611440602,117.2759611440602,93.66695264475462,96.19813549746652,97.75454588150302,64.13686041387658,2.1,2.12,-203,-263,0,-263,176,283,286.74716329574585,286.74720454216003,286.7496268749237,286.7616250514984,286.9117772579193,286.9117772579193,286.9117772579193,286.9117772579193,286.9117772579193,286.9117772579193,286.9117772579193,288.4796612262726,1,1.7135746479034424,None,,,,,,,,,,,,,,,,,,135,5,2025-02-26_15h59.23.177,comp,2024.2.4,61.97843767732173,2025-02-26 15h59.33.773333 -0500,
35,35,0,critical,dwh,20.0,3.0,lower,78.0,78.0,57.0,133.0,133.0,57.0,3,6.4835755825042725,None,,,,,0,0,0,0,0,35,35,68,288.49510502815247,,,,,,,,,,,,,,,,,,,,,,,,,,,,,,,,,,,,,,,,,,,,,,,,,,,,,,,,,,,,,,,,,,,,,,,,,,,,,,,,,78.0,78.0,57.0,133.0,133.0,57.0,3.0,3.1,-202,286,0,-3,191,-284,288.4804561138153,288.4804971218109,288.48262214660645,288.49510502815247,288.64500761032104,288.64500761032104,288.64500761032104,288.64500761032104,288.64500761032104,288.64500761032104,288.64500761032104,294.99614000320435,3,6.4835755825042725,None,,,,,,,,,,,,,,,,,,135,5,2025-02-26_15h59.23.177,comp,2024.2.4,61.97843767732173,2025-02-26 15h59.33.773333 -0500,
36,36,0,filler_square,None,None,None,None,None,None,None,None,None,None,2,1.831742286682129,None,,,,,0,0,0,0,0,36,36,174,295.02815079689026,,,,,,,,,,,,,,,,,,,,,,,,,,,,,,,,,,,,,,,,,,,,,,,,,,,,,,,,,,,,,,,,,,,,,,,,,,,,,,,,,64.50562233043506,111.73088306934436,134.85673286827523,134.85673286827523,130.07321651979328,117.67942533377678,2.2,2.21,-219,-277,0,252,222,252,294.99710965156555,294.99715089797974,294.9996118545532,295.02815079689026,295.1616966724396,295.1616966724396,295.1616966724396,295.1616966724396,295.1616966724396,295.1616966724396,295.1616966724396,296.86306047439575,2,1.831742286682129,None,,,,,,,,,,,,,,,,,,135,5,2025-02-26_15h59.23.177,comp,2024.2.4,61.97843767732173,2025-02-26 15h59.33.773333 -0500,
37,37,0,catch,None,None,None,None,None,None,None,None,None,None,3,1.883906602859497,None,,,,,0,0,0,0,0,37,37,121,296.87851905822754,,,,,,,,,,,,,,,,,,,,,,,,,,,,,,,,,,,,,,,,,,,,,,,,,,,,,,,,,,,,,,,,,,,,,,,,,,,,,,,,,114,76,101,89,132,193,3.0,3.2,-178,-274,0,8,237,283,296.86413049697876,296.8641743659973,296.8664138317108,296.87851905822754,297.0284676551819,297.0284676551819,297.0284676551819,297.0284676551819,297.0284676551819,297.0284676551819,297.0284676551819,298.7795662879944,3,1.883906602859497,None,,,,,,,,,,,,,,,,,,135,5,2025-02-26_15h59.23.177,comp,2024.2.4,61.97843767732173,2025-02-26 15h59.33.773333 -0500,
38,38,0,filler_square,None,None,None,None,None,None,None,None,None,None,3,1.095747470855713,None,,,,,0,0,0,0,0,38,38,187,298.79494524002075,,,,,,,,,,,,,,,,,,,,,,,,,,,,,,,,,,,,,,,,,,,,,,,,,,,,,,,,,,,,,,,,,,,,,,,,,,,,,,,,,126.10219217469889,120.862201081356,118.73172285690433,139.08666333358497,164.99694755186422,164.99694755186422,1.0,1.1,-706,267,-480,285,-232,262,298.78055596351624,298.7805972099304,298.78318977355957,298.79494524002075,298.9451439380646,298.9451439380646,298.9451439380646,298.9451439380646,298.9451439380646,298.9451439380646,298.9451439380646,299.89639925956726,3,1.095747470855713,None,,,,,,,,,,,,,,,,,,135,5,2025-02-26_15h59.23.177,comp,2024.2.4,61.97843767732173,2025-02-26 15h59.33.773333 -0500,
39,39,0,critical,wdh,20.0,2.1,lower,57.0,133.0,78.0,78.0,133.0,57.0,3,3.058717727661133,None,,,,,0,0,0,0,0,39,39,34,299.9117908477783,,,,,,,,,,,,,,,,,,,,,,,,,,,,,,,,,,,,,,,,,,,,,,,,,,,,,,,,,,,,,,,,,,,,,,,,,,,,,,,,,57.0,133.0,78.0,78.0,133.0,57.0,2.1,2.11,-202,266,0,290,164,-258,299.89722180366516,299.8972644805908,299.89950346946716,299.9117908477783,300.061692237854,300.061692237854,300.061692237854,300.061692237854,300.061692237854,300.061692237854,300.061692237854,302.97942638397217,3,3.058717727661133,None,,,,,,,,,,,,,,,,,,135,5,2025-02-26_15h59.23.177,comp,2024.2.4,61.97843767732173,2025-02-26 15h59.33.773333 -0500,
40,40,0,critical,dhw,20.0,2.1,upper,141.0,141.0,200.0,125.0,125.0,200.0,2,3.6081950664520264,None,,,,,0,0,0,0,0,40,40,27,302.9951207637787,,,,,,,,,,,,,,,,,,,,,,,,,,,,,,,,,,,,,,,,,,,,,,,,,,,,,,,,,,,,,,,,,,,,,,,,,,,,,,,,,141.0,141.0,200.0,125.0,125.0,200.0,2.1,2.11,-229,258,0,260,258,-289,302.98025012016296,302.9802918434143,302.982848405838,302.9951207637787,303.14525842666626,303.14525842666626,303.14525842666626,303.14525842666626,303.14525842666626,303.14525842666626,303.14525842666626,306.61320781707764,2,3.6081950664520264,None,,,,,,,,,,,,,,,,,,135,5,2025-02-26_15h59.23.177,comp,2024.2.4,61.97843767732173,2025-02-26 15h59.33.773333 -0500,
41,41,0,filler_random,None,None,None,None,None,None,None,None,None,None,2,2.4212961196899414,None,,,,,0,0,0,0,0,41,41,155,306.62848687171936,,,,,,,,,,,,,,,,,,,,,,,,,,,,,,,,,,,,,,,,,,,,,,,,,,,,,,,,,,,,,,,,,,,,,,,,,,,,,,,,,80.11418611446129,179.7726230773576,188.9553530056339,87.04576403664718,71.65796852097434,180.8361317699974,4.0,4.2,-229,13,0,-257,230,7,306.6141097545624,306.61415362358093,306.6163420677185,306.62848687171936,306.7784242630005,306.7784242630005,306.7784242630005,306.7784242630005,306.7784242630005,306.7784242630005,306.7784242630005,309.06281781196594,2,2.4212961196899414,None,,,,,,,,,,,,,,,,,,135,5,2025-02-26_15h59.23.177,comp,2024.2.4,61.97843767732173,2025-02-26 15h59.33.773333 -0500,
42,42,0,critical,dwh,35.0,4.0,lower,70.0,70.0,57.0,133.0,133.0,57.0,3,2.028165102005005,None,,,,,0,0,0,0,0,42,42,64,309.0781693458557,,,,,,,,,,,,,,,,,,,,,,,,,,,,,,,,,,,,,,,,,,,,,,,,,,,,,,,,,,,,,,,,,,,,,,,,,,,,,,,,,70.0,70.0,57.0,133.0,133.0,57.0,4.0,4.1,-198,-271,0,-13,191,-267,309.0636160373688,309.0636565685272,309.06578755378723,309.0781693458557,309.22818326950073,309.22818326950073,309.22818326950073,309.22818326950073,309.22818326950073,309.22818326950073,309.22818326950073,311.11271834373474,3,2.028165102005005,None,,,,,,,,,,,,,,,,,,135,5,2025-02-26_15h59.23.177,comp,2024.2.4,61.97843767732173,2025-02-26 15h59.33.773333 -0500,
43,43,0,critical,dhw,35.0,2.1,lower,70.0,70.0,133.0,57.0,57.0,133.0,2,1.5938529968261719,None,,,,,0,0,0,0,0,43,43,24,311.1284558773041,,,,,,,,,,,,,,,,,,,,,,,,,,,,,,,,,,,,,,,,,,,,,,,,,,,,,,,,,,,,,,,,,,,,,,,,,,,,,,,,,70.0,70.0,133.0,57.0,57.0,133.0,2.1,2.12,-160,-254,0,-275,191,258,311.11351561546326,311.1135582923889,311.116171836853,311.1284558773041,311.2782869338989,311.2782869338989,311.2782869338989,311.2782869338989,311.2782869338989,311.2782869338989,311.2782869338989,312.7293221950531,2,1.5938529968261719,None,,,,,,,,,,,,,,,,,,135,5,2025-02-26_15h59.23.177,comp,2024.2.4,61.97843767732173,2025-02-26 15h59.33.773333 -0500,
44,44,0,filler_random,None,None,None,None,None,None,None,None,None,None,2,1.483297348022461,None,,,,,0,0,0,0,0,44,44,162,312.74500370025635,,,,,,,,,,,,,,,,,,,,,,,,,,,,,,,,,,,,,,,,,,,,,,,,,,,,,,,,,,,,,,,,,,,,,,,,,,,,,,,,,109.40783417256714,71.36276281579183,128.9566530081782,137.396578594724,111.57122269703623,107.02501536413135,4.0,4.2,-200,14,0,-288,218,-13,312.7302017211914,312.7302451133728,312.73273754119873,312.74500370025635,312.8950366973877,312.8950366973877,312.8950366973877,312.8950366973877,312.8950366973877,312.8950366973877,312.8950366973877,314.22956132888794,2,1.483297348022461,None,,,,,,,,,,,,,,,,,,135,5,2025-02-26_15h59.23.177,comp,2024.2.4,61.97843767732173,2025-02-26 15h59.33.773333 -0500,
45,45,0,filler_random,None,None,None,None,None,None,None,None,None,None,3,3.277312755584717,None,,,,,0,0,0,0,0,45,45,139,314.24508452415466,,,,,,,,,,,,,,,,,,,,,,,,,,,,,,,,,,,,,,,,,,,,,,,,,,,,,,,,,,,,,,,,,,,,,,,,,,,,,,,,,139.72568891221493,196.41623694148117,189.9792752954619,68.72443563624547,193.38771388815934,141.75165562892084,2.2,2.21,-229,-259,0,255,201,272,314.2305130958557,314.2305552959442,314.23272490501404,314.24508452415466,314.3952281475067,314.3952281475067,314.3952281475067,314.3952281475067,314.3952281475067,314.3952281475067,314.3952281475067,317.529892206192,3,3.277312755584717,None,,,,,,,,,,,,,,,,,,135,5,2025-02-26_15h59.23.177,comp,2024.2.4,61.97843767732173,2025-02-26 15h59.33.773333 -0500,
46,46,0,critical,hwd,20.0,1.0,lower,133.0,57.0,57.0,133.0,78.0,78.0,2,3.9525721073150635,None,,,,,0,0,0,0,0,46,46,102,317.5452768802643,,,,,,,,,,,,,,,,,,,,,,,,,,,,,,,,,,,,,,,,,,,,,,,,,,,,,,,,,,,,,,,,,,,,,,,,,,,,,,,,,133.0,57.0,57.0,133.0,78.0,78.0,1.0,1.1,-671,281,-480,288,-278,289,317.53087306022644,317.53091502189636,317.53301215171814,317.5452768802643,317.6949620246887,317.6949620246887,317.6949620246887,317.6949620246887,317.6949620246887,317.6949620246887,317.6949620246887,321.51264905929565,2,3.9525721073150635,None,,,,,,,,,,,,,,,,,,135,5,2025-02-26_15h59.23.177,comp,2024.2.4,61.97843767732173,2025-02-26 15h59.33.773333 -0500,
47,47,0,critical,hwd,20.0,2.1,lower,133.0,57.0,57.0,133.0,78.0,78.0,1,3.369580030441284,None,,,,,0,0,0,0,0,47,47,42,321.52801156044006,,,,,,,,,,,,,,,,,,,,,,,,,,,,,,,,,,,,,,,,,,,,,,,,,,,,,,,,,,,,,,,,,,,,,,,,,,,,,,,,,133.0,57.0,57.0,133.0,78.0,78.0,2.1,2.12,-191,-265,0,-256,202,263,321.5134582519531,321.5134987831116,321.51613187789917,321.52801156044006,321.6782178878784,321.6782178878784,321.6782178878784,321.6782178878784,321.6782178878784,321.6782178878784,321.6782178878784,324.91266989707947,1,3.369580030441284,None,,,,,,,,,,,,,,,,,,135,5,2025-02-26_15h59.23.177,comp,2024.2.4,61.97843767732173,2025-02-26 15h59.33.773333 -0500,
48,48,0,critical,wdh,20.0,2.1,upper,125.0,200.0,141.0,141.0,200.0,125.0,1,6.234307765960693,None,,,,,0,0,0,0,0,48,48,11,324.92802262306213,,,,,,,,,,,,,,,,,,,,,,,,,,,,,,,,,,,,,,,,,,,,,,,,,,,,,,,,,,,,,,,,,,,,,,,,,,,,,,,,,125.0,200.0,141.0,141.0,200.0,125.0,2.1,2.11,-266,290,0,257,229,-285,324.9134702682495,324.91351103782654,324.9161081314087,324.92802262306213,325.07834696769714,325.07834696769714,325.07834696769714,325.07834696769714,325.07834696769714,325.07834696769714,325.07834696769714,331.1794857978821,1,6.234307765960693,None,,,,,,,,,,,,,,,,,,135,5,2025-02-26_15h59.23.177,comp,2024.2.4,61.97843767732173,2025-02-26 15h59.33.773333 -0500,
49,49,0,critical,wdh,35.0,3.0,upper,125.0,200.0,127.0,127.0,200.0,125.0,1,2.959852457046509,None,,,,,0,0,0,0,0,49,49,75,331.1947057247162,,,,,,,,,,,,,,,,,,,,,,,,,,,,,,,,,,,,,,,,,,,,,,,,,,,,,,,,,,,,,,,,,,,,,,,,,,,,,,,,,125.0,200.0,127.0,127.0,200.0,125.0,3.0,3.2,-260,-255,0,-4,222,265,331.18028497695923,331.18032717704773,331.18286991119385,331.1947057247162,331.34504437446594,331.34504437446594,331.34504437446594,331.34504437446594,331.34504437446594,331.34504437446594,331.34504437446594,334.162805557251,1,2.959852457046509,None,,,,,,,,,,,,,,,,,,135,5,2025-02-26_15h59.23.177,comp,2024.2.4,61.97843767732173,2025-02-26 15h59.33.773333 -0500,
50,50,0,filler_square,None,None,None,None,None,None,None,None,None,None,3,2.4337000846862793,None,,,,,0,0,0,0,0,50,50,181,334.1783185005188,,,,,,,,,,,,,,,,,,,,,,,,,,,,,,,,,,,,,,,,,,,,,,,,,,,,,,,,,,,,,,,,,,,,,,,,,,,,,,,,,108.79816810745365,108.79816810745365,68.19351605422783,88.03236764480602,92.17816347922533,104.007462924256,2.2,2.22,-194,266,0,-257,192,-252,334.16377425193787,334.16381669044495,334.16648745536804,334.1783185005188,334.3282961845398,334.3282961845398,334.3282961845398,334.3282961845398,334.3282961845398,334.3282961845398,334.3282961845398,336.62919664382935,3,2.4337000846862793,None,,,,,,,,,,,,,,,,,,135,5,2025-02-26_15h59.23.177,comp,2024.2.4,61.97843767732173,2025-02-26 15h59.33.773333 -0500,
51,51,0,critical,hwd,20.0,1.0,upper,200.0,125.0,125.0,200.0,141.0,141.0,2,3.4214928150177,None,,,,,0,0,0,0,0,51,51,103,336.64464807510376,,,,,,,,,,,,,,,,,,,,,,,,,,,,,,,,,,,,,,,,,,,,,,,,,,,,,,,,,,,,,,,,,,,,,,,,,,,,,,,,,200.0,125.0,125.0,200.0,141.0,141.0,1.0,1.2,-258,-6,0,-4,266,18,336.62998390197754,336.6300256252289,336.63246273994446,336.64464807510376,336.7949674129486,336.7949674129486,336.7949674129486,336.7949674129486,336.7949674129486,336.7949674129486,336.7949674129486,340.0793950557709,2,3.4214928150177,None,,,,,,,,,,,,,,,,,,135,5,2025-02-26_15h59.23.177,comp,2024.2.4,61.97843767732173,2025-02-26 15h59.33.773333 -0500,
52,52,0,critical,whd,20.0,3.0,upper,125.0,200.0,200.0,125.0,141.0,141.0,1,3.0673277378082275,None,,,,,0,0,0,0,0,52,52,93,340.09467339515686,,,,,,,,,,,,,,,,,,,,,,,,,,,,,,,,,,,,,,,,,,,,,,,,,,,,,,,,,,,,,,,,,,,,,,,,,,,,,,,,,125.0,200.0,200.0,125.0,141.0,141.0,3.0,3.1,-258,287,0,15,229,-252,340.0801863670349,340.08022713661194,340.0827126502991,340.09467339515686,340.2449896335602,340.2449896335602,340.2449896335602,340.2449896335602,340.2449896335602,340.2449896335602,340.2449896335602,343.17934560775757,1,3.0673277378082275,None,,,,,,,,,,,,,,,,,,135,5,2025-02-26_15h59.23.177,comp,2024.2.4,61.97843767732173,2025-02-26 15h59.33.773333 -0500,
53,53,0,filler_square,None,None,None,None,None,None,None,None,None,None,2,1.9507906436920166,None,,,,,0,0,0,0,0,53,53,170,343.1945917606354,,,,,,,,,,,,,,,,,,,,,,,,,,,,,,,,,,,,,,,,,,,,,,,,,,,,,,,,,,,,,,,,,,,,,,,,,,,,,,,,,82.21758439691851,73.40086471456357,100.48048435458816,100.48048435458816,93.15715707340375,85.12390668523797,4.0,4.2,-183,-18,0,-266,189,8,343.18026328086853,343.1803035736084,343.1826915740967,343.1945917606354,343.3449604511261,343.3449604511261,343.3449604511261,343.3449604511261,343.3449604511261,343.3449604511261,343.3449604511261,345.1624026298523,2,1.9507906436920166,None,,,,,,,,,,,,,,,,,,135,5,2025-02-26_15h59.23.177,comp,2024.2.4,61.97843767732173,2025-02-26 15h59.33.773333 -0500,
54,54,0,critical,hdw,35.0,2.1,lower,133.0,57.0,70.0,70.0,57.0,133.0,3,3.9198310375213623,None,,,,,0,0,0,0,0,54,54,20,345.1778874397278,,,,,,,,,,,,,,,,,,,,,,,,,,,,,,,,,,,,,,,,,,,,,,,,,,,,,,,,,,,,,,,,,,,,,,,,,,,,,,,,,133.0,57.0,70.0,70.0,57.0,133.0,2.1,2.12,-160,-280,0,-282,198,262,345.1632254123688,345.1632659435272,345.165780544281,345.1778874397278,345.3280243873596,345.3280243873596,345.3280243873596,345.3280243873596,345.3280243873596,345.3280243873596,345.3280243873596,349.1123571395874,3,3.9198310375213623,None,,,,,,,,,,,,,,,,,,135,5,2025-02-26_15h59.23.177,comp,2024.2.4,61.97843767732173,2025-02-26 15h59.33.773333 -0500,
55,55,0,critical,dwh,20.0,2.1,upper,141.0,141.0,125.0,200.0,200.0,125.0,2,8.401421546936035,None,,,,,0,0,0,0,0,55,55,31,349.1278784275055,,,,,,,,,,,,,,,,,,,,,,,,,,,,,,,,,,,,,,,,,,,,,,,,,,,,,,,,,,,,,,,,,,,,,,,,,,,,,,,,,141.0,141.0,125.0,200.0,200.0,125.0,2.1,2.12,-266,-267,0,-254,258,250,349.113156080246,349.1131954193115,349.1156985759735,349.1278784275055,349.27825260162354,349.27825260162354,349.27825260162354,349.27825260162354,349.27825260162354,349.27825260162354,349.27825260162354,357.54599261283875,2,8.401421546936035,None,,,,,,,,,,,,,,,,,,135,5,2025-02-26_15h59.23.177,comp,2024.2.4,61.97843767732173,2025-02-26 15h59.33.773333 -0500,
56,56,0,critical,dwh,20.0,2.1,upper,141.0,141.0,125.0,200.0,200.0,125.0,2,16.266375303268433,None,,,,,0,0,0,0,0,56,56,7,357.56113862991333,,,,,,,,,,,,,,,,,,,,,,,,,,,,,,,,,,,,,,,,,,,,,,,,,,,,,,,,,,,,,,,,,,,,,,,,,,,,,,,,,141.0,141.0,125.0,200.0,200.0,125.0,2.1,2.12,-266,-251,0,-261,258,252,357.5467689037323,357.5468089580536,357.5492527484894,357.56113862991333,357.71143770217896,357.71143770217896,357.71143770217896,357.71143770217896,357.71143770217896,357.71143770217896,357.71143770217896,373.82934379577637,2,16.266375303268433,None,,,,,,,,,,,,,,,,,,135,5,2025-02-26_15h59.23.177,comp,2024.2.4,61.97843767732173,2025-02-26 15h59.33.773333 -0500,
57,57,0,filler_square,None,None,None,None,None,None,None,None,None,None,2,7.70160984992981,None,,,,,0,0,0,0,0,57,57,188,373.8447849750519,,,,,,,,,,,,,,,,,,,,,,,,,,,,,,,,,,,,,,,,,,,,,,,,,,,,,,,,,,,,,,,,,,,,,,,,,,,,,,,,,62.102899708454856,80.48810527943246,89.09320862554438,89.09320862554438,84.57480501302356,82.92633328549472,3.0,3.2,-181,-251,0,-1,182,260,373.83027362823486,373.83031392097473,373.83278822898865,373.8447849750519,373.99467635154724,373.99467635154724,373.99467635154724,373.99467635154724,373.99467635154724,373.99467635154724,373.99467635154724,381.56226992607117,2,7.70160984992981,None,,,,,,,,,,,,,,,,,,135,5,2025-02-26_15h59.23.177,comp,2024.2.4,61.97843767732173,2025-02-26 15h59.33.773333 -0500,
58,58,0,filler_random,None,None,None,None,None,None,None,None,None,None,2,1.8881559371948242,None,,,,,0,0,0,0,0,58,58,153,381.57767128944397,,,,,,,,,,,,,,,,,,,,,,,,,,,,,,,,,,,,,,,,,,,,,,,,,,,,,,,,,,,,,,,,,,,,,,,,,,,,,,,,,149.56702056530867,147.48391954948806,198.8053227742487,152.86916950824036,76.10400883882049,95.78589796671861,2.1,2.12,-246,-258,0,-257,220,273,381.56321120262146,381.56325364112854,381.56573724746704,381.57767128944397,381.72793531417847,381.72793531417847,381.72793531417847,381.72793531417847,381.72793531417847,381.72793531417847,381.72793531417847,383.4790141582489,2,1.8881559371948242,None,,,,,,,,,,,,,,,,,,135,5,2025-02-26_15h59.23.177,comp,2024.2.4,61.97843767732173,2025-02-26 15h59.33.773333 -0500,
59,59,0,critical,hdw,20.0,2.1,upper,200.0,125.0,141.0,141.0,125.0,200.0,1,12.683770179748535,None,,,,,0,0,0,0,0,59,59,47,383.4943470954895,,,,,,,,,,,,,,,,,,,,,,,,,,,,,,,,,,,,,,,,,,,,,,,,,,,,,,,,,,,,,,,,,,,,,,,,,,,,,,,,,200.0,125.0,141.0,141.0,125.0,200.0,2.1,2.12,-229,-290,0,-263,266,285,383.4798197746277,383.47986125946045,383.48200035095215,383.4943470954895,383.6447353363037,383.6447353363037,383.6447353363037,383.6447353363037,383.6447353363037,383.6447353363037,383.6447353363037,396.195618391037,1,12.683770179748535,None,,,,,,,,,,,,,,,,,,135,5,2025-02-26_15h59.23.177,comp,2024.2.4,61.97843767732173,2025-02-26 15h59.33.773333 -0500,
60,60,0,critical,hwd,20.0,2.1,upper,200.0,125.0,125.0,200.0,141.0,141.0,2,3.5748987197875977,None,,,,,0,0,0,0,0,60,60,43,396.2108452320099,,,,,,,,,,,,,,,,,,,,,,,,,,,,,,,,,,,,,,,,,,,,,,,,,,,,,,,,,,,,,,,,,,,,,,,,,,,,,,,,,200.0,125.0,125.0,200.0,141.0,141.0,2.1,2.11,-258,272,0,261,266,-284,396.196430683136,396.1964726448059,396.19905376434326,396.2108452320099,396.3778839111328,396.3778839111328,396.3778839111328,396.3778839111328,396.3778839111328,396.3778839111328,396.3778839111328,399.79576230049133,2,3.5748987197875977,None,,,,,,,,,,,,,,,,,,135,5,2025-02-26_15h59.23.177,comp,2024.2.4,61.97843767732173,2025-02-26 15h59.33.773333 -0500,
61,61,0,filler_random,None,None,None,None,None,None,None,None,None,None,3,2.574552059173584,None,,,,,0,0,0,0,0,61,61,149,399.81122064590454,,,,,,,,,,,,,,,,,,,,,,,,,,,,,,,,,,,,,,,,,,,,,,,,,,,,,,,,,,,,,,,,,,,,,,,,,,,,,,,,,150.6491349753012,86.42507821777662,62.20981981742445,91.51949969803492,170.8658192749309,123.46284947062247,3.0,3.1,-185,270,0,0,203,-262,399.7966809272766,399.7967224121094,399.7989137172699,399.81122064590454,399.9614357948303,399.9614357948303,399.9614357948303,399.9614357948303,399.9614357948303,399.9614357948303,399.9614357948303,402.3956437110901,3,2.574552059173584,None,,,,,,,,,,,,,,,,,,135,5,2025-02-26_15h59.23.177,comp,2024.2.4,61.97843767732173,2025-02-26 15h59.33.773333 -0500,
62,62,0,filler_square,None,None,None,None,None,None,None,None,None,None,2,1.0945839881896973,None,,,,,0,0,0,0,0,62,62,201,402.4112238883972,,,,,,,,,,,,,,,,,,,,,,,,,,,,,,,,,,,,,,,,,,,,,,,,,,,,,,,,,,,,,,,,,,,,,,,,,,,,,,,,,156.8367959267734,60.51714504758102,177.00969981741372,177.00969981741372,91.08309167178425,130.4549365245337,1.0,1.2,-215,7,0,-6,250,12,402.3966054916382,402.3966472148895,402.3991713523865,402.4112238883972,402.5610363483429,402.5610363483429,402.5610363483429,402.5610363483429,402.5610363483429,402.5610363483429,402.5610363483429,403.5122113227844,2,1.0945839881896973,None,,,,,,,,,,,,,,,,,,135,5,2025-02-26_15h59.23.177,comp,2024.2.4,61.97843767732173,2025-02-26 15h59.33.773333 -0500,
63,63,0,critical,hdw,35.0,3.0,upper,200.0,125.0,127.0,127.0,125.0,200.0,3,12.033795356750488,None,,,,,0,0,0,0,0,63,63,111,403.52772784233093,,,,,,,,,,,,,,,,,,,,,,,,,,,,,,,,,,,,,,,,,,,,,,,,,,,,,,,,,,,,,,,,,,,,,,,,,,,,,,,,,200.0,125.0,127.0,127.0,125.0,200.0,3.0,3.1,-222,255,0,3,260,-277,403.5130081176758,403.5130503177643,403.5155074596405,403.52772784233093,403.6778402328491,403.6778402328491,403.6778402328491,403.6778402328491,403.6778402328491,403.6778402328491,403.6778402328491,415.57879114151,3,12.033795356750488,None,,,,,,,,,,,,,,,,,,135,5,2025-02-26_15h59.23.177,comp,2024.2.4,61.97843767732173,2025-02-26 15h59.33.773333 -0500,
64,64,0,critical,wdh,35.0,2.1,lower,57.0,133.0,70.0,70.0,133.0,57.0,1,1.9114561080932617,None,,,,,0,0,0,0,0,64,64,8,415.5941364765167,,,,,,,,,,,,,,,,,,,,,,,,,,,,,,,,,,,,,,,,,,,,,,,,,,,,,,,,,,,,,,,,,,,,,,,,,,,,,,,,,57.0,133.0,70.0,70.0,133.0,57.0,2.1,2.12,-198,-272,0,-266,160,254,415.5796129703522,415.5796539783478,415.58226561546326,415.5941364765167,415.7442011833191,415.7442011833191,415.7442011833191,415.7442011833191,415.7442011833191,415.7442011833191,415.7442011833191,417.511887550354,1,1.9114561080932617,None,,,,,,,,,,,,,,,,,,135,5,2025-02-26_15h59.23.177,comp,2024.2.4,61.97843767732173,2025-02-26 15h59.33.773333 -0500,
65,65,0,critical,wdh,20.0,2.1,upper,125.0,200.0,141.0,141.0,200.0,125.0,1,0.07467842102050781,None,,,,,0,0,0,0,0,65,65,35,417.52764415740967,,,,,,,,,,,,,,,,,,,,,,,,,,,,,,,,,,,,,,,,,,,,,,,,,,,,,,,,,,,,,,,,,,,,,,,,,,,,,,,,,125.0,200.0,141.0,141.0,200.0,125.0,2.1,2.12,-266,-256,0,-258,229,283,417.5127065181732,417.5127475261688,417.5151689052582,417.52764415740967,,,,,,,,417.6119110584259,1,0.07467842102050781,None,,,,,,,,,,,,,,,,,,135,5,2025-02-26_15h59.23.177,comp,2024.2.4,61.97843767732173,2025-02-26 15h59.33.773333 -0500,
66,66,0,critical,wdh,35.0,2.1,lower,57.0,133.0,70.0,70.0,133.0,57.0,3,2.7184271812438965,None,,,,,0,0,0,0,0,66,66,32,417.6276943683624,,,,,,,,,,,,,,,,,,,,,,,,,,,,,,,,,,,,,,,,,,,,,,,,,,,,,,,,,,,,,,,,,,,,,,,,,,,,,,,,,57.0,133.0,70.0,70.0,133.0,57.0,2.1,2.11,-198,283,0,276,160,-266,417.6127257347107,417.61276626586914,417.6154272556305,417.6276943683624,417.77757596969604,417.77757596969604,417.77757596969604,417.77757596969604,417.77757596969604,417.77757596969604,417.77757596969604,420.3619408607483,3,2.7184271812438965,None,,,,,,,,,,,,,,,,,,135,5,2025-02-26_15h59.23.177,comp,2024.2.4,61.97843767732173,2025-02-26 15h59.33.773333 -0500,
67,67,0,catch,None,None,None,None,None,None,None,None,None,None,1,1.2657248973846436,None,,,,,0,0,0,0,0,67,67,125,420.37741446495056,,,,,,,,,,,,,,,,,,,,,,,,,,,,,,,,,,,,,,,,,,,,,,,,,,,,,,,,,,,,,,,,,,,,,,,,,,,,,,,,,149,176,97,93,86,104,3.0,3.2,-230,-253,0,-4,194,259,420.362998008728,420.3630406856537,420.3654646873474,420.37741446495056,420.5277028083801,420.5277028083801,420.5277028083801,420.5277028083801,420.5277028083801,420.5277028083801,420.5277028083801,421.6455388069153,1,1.2657248973846436,None,,,,,,,,,,,,,,,,,,135,5,2025-02-26_15h59.23.177,comp,2024.2.4,61.97843767732173,2025-02-26 15h59.33.773333 -0500,
68,68,0,filler_random,None,None,None,None,None,None,None,None,None,None,2,1.0519492626190186,None,,,,,0,0,0,0,0,68,68,160,421.66101598739624,,,,,,,,,,,,,,,,,,,,,,,,,,,,,,,,,,,,,,,,,,,,,,,,,,,,,,,,,,,,,,,,,,,,,,,,,,,,,,,,,86.2844952944603,118.63710069418413,160.46311950693826,157.77440548892886,151.17560378433998,78.99481664671153,2.1,2.12,-234,-281,0,-269,214,279,421.6464684009552,421.64651131629944,421.648708820343,421.66101598739624,421.8110349178314,421.8110349178314,421.8110349178314,421.8110349178314,421.8110349178314,421.8110349178314,421.8110349178314,422.72884154319763,2,1.0519492626190186,None,,,,,,,,,,,,,,,,,,135,5,2025-02-26_15h59.23.177,comp,2024.2.4,61.97843767732173,2025-02-26 15h59.33.773333 -0500,
69,69,0,filler_random,None,None,None,None,None,None,None,None,None,None,1,1.3615334033966064,None,,,,,0,0,0,0,0,69,69,146,422.74408316612244,,,,,,,,,,,,,,,,,,,,,,,,,,,,,,,,,,,,,,,,,,,,,,,,,,,,,,,,,,,,,,,,,,,,,,,,,,,,,,,,,176.12385305107807,115.07360533895805,111.37059584636737,84.37400972323006,66.52913641108758,92.58889736454469,2.2,2.22,-196,254,0,-280,184,-254,422.7297930717468,422.7298336029053,422.7321662902832,422.74408316612244,422.8941614627838,422.8941614627838,422.8941614627838,422.8941614627838,422.8941614627838,422.8941614627838,422.8941614627838,424.1120879650116,1,1.3615334033966064,None,,,,,,,,,,,,,,,,,,135,5,2025-02-26_15h59.23.177,comp,2024.2.4,61.97843767732173,2025-02-26 15h59.33.773333 -0500,
70,70,0,filler_random,None,None,None,None,None,None,None,None,None,None,1,1.8502349853515625,None,,,,,0,0,0,0,0,70,70,142,424.1276545524597,,,,,,,,,,,,,,,,,,,,,,,,,,,,,,,,,,,,,,,,,,,,,,,,,,,,,,,,,,,,,,,,,,,,,,,,,,,,,,,,,108.65352536554178,162.78076401201764,76.3947665669387,122.52057441380826,136.87245967715143,124.06429432452285,3.0,3.1,-239,279,0,-18,219,-267,424.11303520202637,424.11307740211487,424.11549139022827,424.1276545524597,424.27781867980957,424.27781867980957,424.27781867980957,424.27781867980957,424.27781867980957,424.27781867980957,424.27781867980957,425.9953317642212,1,1.8502349853515625,None,,,,,,,,,,,,,,,,,,135,5,2025-02-26_15h59.23.177,comp,2024.2.4,61.97843767732173,2025-02-26 15h59.33.773333 -0500,
71,71,0,filler_square,None,None,None,None,None,None,None,None,None,None,3,1.4483776092529297,None,,,,,0,0,0,0,0,71,71,182,426.0107343196869,,,,,,,,,,,,,,,,,,,,,,,,,,,,,,,,,,,,,,,,,,,,,,,,,,,,,,,,,,,,,,,,,,,,,,,,,,,,,,,,,120.08736617053046,82.65786258491353,59.76996503499082,121.36652861350217,128.41902616481173,128.41902616481173,2.2,2.22,-198,277,0,-257,221,-279,425.99631786346436,425.9963595867157,425.99884605407715,426.0107343196869,426.16093468666077,426.16093468666077,426.16093468666077,426.16093468666077,426.16093468666077,426.16093468666077,426.16093468666077,427.4621434211731,3,1.4483776092529297,None,,,,,,,,,,,,,,,,,,135,5,2025-02-26_15h59.23.177,comp,2024.2.4,61.97843767732173,2025-02-26 15h59.33.773333 -0500,
72,72,0,critical,whd,35.0,1.0,lower,57.0,133.0,133.0,57.0,70.0,70.0,2,2.3391456604003906,None,,,,,0,0,0,0,0,72,72,84,427.47756934165955,,,,,,,,,,,,,,,,,,,,,,,,,,,,,,,,,,,,,,,,,,,,,,,,,,,,,,,,,,,,,,,,,,,,,,,,,,,,,,,,,57.0,133.0,133.0,57.0,70.0,70.0,1.0,1.1,-671,253,-480,261,-320,284,427.462913274765,427.46295523643494,427.46521043777466,427.47756934165955,427.62751150131226,427.62751150131226,427.62751150131226,427.62751150131226,427.62751150131226,427.62751150131226,427.62751150131226,429.828586101532,2,2.3391456604003906,None,,,,,,,,,,,,,,,,,,135,5,2025-02-26_15h59.23.177,comp,2024.2.4,61.97843767732173,2025-02-26 15h59.33.773333 -0500,
73,73,0,critical,hwd,35.0,1.0,upper,200.0,125.0,125.0,200.0,127.0,127.0,2,2.8367106914520264,None,,,,,0,0,0,0,0,73,73,97,429.8440935611725,,,,,,,,,,,,,,,,,,,,,,,,,,,,,,,,,,,,,,,,,,,,,,,,,,,,,,,,,,,,,,,,,,,,,,,,,,,,,,,,,200.0,125.0,125.0,200.0,127.0,127.0,1.0,1.2,-258,3,0,-3,260,0,429.8293640613556,429.82940554618835,429.8321259021759,429.8440935611725,429.99420070648193,429.99420070648193,429.99420070648193,429.99420070648193,429.99420070648193,429.99420070648193,429.99420070648193,432.6954004764557,2,2.8367106914520264,None,,,,,,,,,,,,,,,,,,135,5,2025-02-26_15h59.23.177,comp,2024.2.4,61.97843767732173,2025-02-26 15h59.33.773333 -0500,
74,74,0,critical,dhw,20.0,3.0,upper,141.0,141.0,200.0,125.0,125.0,200.0,3,10.610827445983887,None,,,,,0,0,0,0,0,74,74,57,432.71066975593567,,,,,,,,,,,,,,,,,,,,,,,,,,,,,,,,,,,,,,,,,,,,,,,,,,,,,,,,,,,,,,,,,,,,,,,,,,,,,,,,,141.0,141.0,200.0,125.0,125.0,200.0,3.0,3.1,-229,264,0,-4,258,-269,432.6962380409241,432.6962785720825,432.6997196674347,432.71066975593567,432.8610727787018,432.8610727787018,432.8610727787018,432.8610727787018,432.8610727787018,432.8610727787018,432.8610727787018,443.3287765979767,3,10.610827445983887,None,,,,,,,,,,,,,,,,,,135,5,2025-02-26_15h59.23.177,comp,2024.2.4,61.97843767732173,2025-02-26 15h59.33.773333 -0500,
75,75,0,critical,hwd,20.0,3.0,upper,200.0,125.0,125.0,200.0,141.0,141.0,1,2.4579713344573975,None,,,,,0,0,0,0,0,75,75,105,443.344199180603,,,,,,,,,,,,,,,,,,,,,,,,,,,,,,,,,,,,,,,,,,,,,,,,,,,,,,,,,,,,,,,,,,,,,,,,,,,,,,,,,200.0,125.0,125.0,200.0,141.0,141.0,3.0,3.2,-258,-262,0,17,266,281,443.3295650482178,443.3296060562134,443.3317949771881,443.344199180603,443.4941728115082,443.4941728115082,443.4941728115082,443.4941728115082,443.4941728115082,443.4941728115082,443.4941728115082,445.8124313354492,1,2.4579713344573975,None,,,,,,,,,,,,,,,,,,135,5,2025-02-26_15h59.23.177,comp,2024.2.4,61.97843767732173,2025-02-26 15h59.33.773333 -0500,
76,76,0,critical,whd,35.0,2.1,upper,125.0,200.0,200.0,125.0,127.0,127.0,1,2.5337140560150146,None,,,,,0,0,0,0,0,76,76,13,445.8277051448822,,,,,,,,,,,,,,,,,,,,,,,,,,,,,,,,,,,,,,,,,,,,,,,,,,,,,,,,,,,,,,,,,,,,,,,,,,,,,,,,,125.0,200.0,200.0,125.0,127.0,127.0,2.1,2.11,-258,261,0,270,222,-281,445.81321930885315,445.81326055526733,445.8153772354126,445.8277051448822,445.9776177406311,445.9776177406311,445.9776177406311,445.9776177406311,445.9776177406311,445.9776177406311,445.9776177406311,448.37865924835205,1,2.5337140560150146,None,,,,,,,,,,,,,,,,,,135,5,2025-02-26_15h59.23.177,comp,2024.2.4,61.97843767732173,2025-02-26 15h59.33.773333 -0500,
77,77,0,critical,dhw,20.0,1.0,upper,141.0,141.0,200.0,125.0,125.0,200.0,3,3.864572763442993,None,,,,,0,0,0,0,0,77,77,55,448.3940918445587,,,,,,,,,,,,,,,,,,,,,,,,,,,,,,,,,,,,,,,,,,,,,,,,,,,,,,,,,,,,,,,,,,,,,,,,,,,,,,,,,141.0,141.0,200.0,125.0,125.0,200.0,1.0,1.1,-709,282,-480,255,-222,259,448.3794662952423,448.3795077800751,448.3830325603485,448.3940918445587,448.5442728996277,448.5442728996277,448.5442728996277,448.5442728996277,448.5442728996277,448.5442728996277,448.5442728996277,452.2621626853943,3,3.864572763442993,None,,,,,,,,,,,,,,,,,,135,5,2025-02-26_15h59.23.177,comp,2024.2.4,61.97843767732173,2025-02-26 15h59.33.773333 -0500,
78,78,0,filler_random,None,None,None,None,None,None,None,None,None,None,1,1.981266736984253,None,,,,,0,0,0,0,0,78,78,163,452.2774920463562,,,,,,,,,,,,,,,,,,,,,,,,,,,,,,,,,,,,,,,,,,,,,,,,,,,,,,,,,,,,,,,,,,,,,,,,,,,,,,,,,165.33016325112783,118.65213112700732,99.72409583876932,70.13097589535955,115.72330645480548,162.27167703742901,1.0,1.1,-670,278,-480,260,-268,285,452.2630686759949,452.26310992240906,452.2653114795685,452.2774920463562,452.4275619983673,452.4275619983673,452.4275619983673,452.4275619983673,452.4275619983673,452.4275619983673,452.4275619983673,454.2621157169342,1,1.981266736984253,None,,,,,,,,,,,,,,,,,,135,5,2025-02-26_15h59.23.177,comp,2024.2.4,61.97843767732173,2025-02-26 15h59.33.773333 -0500,
79,79,0,critical,dhw,35.0,3.0,lower,70.0,70.0,133.0,57.0,57.0,133.0,3,3.12423038482666,None,,,,,0,0,0,0,0,79,79,50,454.27746510505676,,,,,,,,,,,,,,,,,,,,,,,,,,,,,,,,,,,,,,,,,,,,,,,,,,,,,,,,,,,,,,,,,,,,,,,,,,,,,,,,,70.0,70.0,133.0,57.0,57.0,133.0,3.0,3.1,-160,258,0,1,191,-269,454.26287722587585,454.26291823387146,454.26506519317627,454.27746510505676,454.42730355262756,454.42730355262756,454.42730355262756,454.42730355262756,454.42730355262756,454.42730355262756,454.42730355262756,457.41179895401,3,3.12423038482666,None,,,,,,,,,,,,,,,,,,135,5,2025-02-26_15h59.23.177,comp,2024.2.4,61.97843767732173,2025-02-26 15h59.33.773333 -0500,
80,80,0,critical,hdw,35.0,1.0,lower,133.0,57.0,70.0,70.0,57.0,133.0,1,3.599522829055786,None,,,,,0,0,0,0,0,80,80,108,457.42738819122314,,,,,,,,,,,,,,,,,,,,,,,,,,,,,,,,,,,,,,,,,,,,,,,,,,,,,,,,,,,,,,,,,,,,,,,,,,,,,,,,,133.0,57.0,70.0,70.0,57.0,133.0,1.0,1.1,-640,256,-480,273,-282,261,457.41261076927185,457.4126524925232,457.41541051864624,457.42738819122314,457.5773012638092,457.5773012638092,457.5773012638092,457.5773012638092,457.5773012638092,457.5773012638092,457.5773012638092,461.0284502506256,1,3.599522829055786,None,,,,,,,,,,,,,,,,,,135,5,2025-02-26_15h59.23.177,comp,2024.2.4,61.97843767732173,2025-02-26 15h59.33.773333 -0500,
81,81,0,filler_square,None,None,None,None,None,None,None,None,None,None,3,1.5666959285736084,None,,,,,0,0,0,0,0,81,81,183,461.0440413951874,,,,,,,,,,,,,,,,,,,,,,,,,,,,,,,,,,,,,,,,,,,,,,,,,,,,,,,,,,,,,,,,,,,,,,,,,,,,,,,,,71.18053339671312,81.44056151026336,70.96427373422028,82.24451067396163,87.84817326539799,87.84817326539799,3.0,3.1,-178,252,0,-9,181,-263,461.02942276000977,461.0294625759125,461.03208470344543,461.0440413951874,461.1942603588104,461.1942603588104,461.1942603588104,461.1942603588104,461.1942603588104,461.1942603588104,461.1942603588104,462.6283395290375,3,1.5666959285736084,None,,,,,,,,,,,,,,,,,,135,5,2025-02-26_15h59.23.177,comp,2024.2.4,61.97843767732173,2025-02-26 15h59.33.773333 -0500,
82,82,0,filler_square,None,None,None,None,None,None,None,None,None,None,1,1.34189772605896,None,,,,,0,0,0,0,0,82,82,186,462.6437201499939,,,,,,,,,,,,,,,,,,,,,,,,,,,,,,,,,,,,,,,,,,,,,,,,,,,,,,,,,,,,,,,,,,,,,,,,,,,,,,,,,188.0573389860705,188.0573389860705,79.18219531795663,138.88989257174262,154.84725815825104,112.73863759515267,4.0,4.2,-259,0,0,-285,222,-4,462.62929010391235,462.62933111190796,462.6318552494049,462.6437201499939,462.79407238960266,462.79407238960266,462.79407238960266,462.79407238960266,462.79407238960266,462.79407238960266,462.79407238960266,463.9952459335327,1,1.34189772605896,None,,,,,,,,,,,,,,,,,,135,5,2025-02-26_15h59.23.177,comp,2024.2.4,61.97843767732173,2025-02-26 15h59.33.773333 -0500,
83,83,0,filler_random,None,None,None,None,None,None,None,None,None,None,1,2.4859609603881836,None,,,,,0,0,0,0,0,83,83,152,464.0106768608093,,,,,,,,,,,,,,,,,,,,,,,,,,,,,,,,,,,,,,,,,,,,,,,,,,,,,,,,,,,,,,,,,,,,,,,,,,,,,,,,,113.73565992081183,149.78992342689673,67.47809143899772,137.13903954554496,70.04522578540866,120.37365888910311,2.2,2.22,-239,278,0,-266,225,-284,463.99620938301086,463.99625277519226,463.9985086917877,464.0106768608093,464.1606693267822,464.1606693267822,464.1606693267822,464.1606693267822,464.1606693267822,464.1606693267822,464.1606693267822,466.5117654800415,1,2.4859609603881836,None,,,,,,,,,,,,,,,,,,135,5,2025-02-26_15h59.23.177,comp,2024.2.4,61.97843767732173,2025-02-26 15h59.33.773333 -0500,
84,84,0,critical,dwh,35.0,2.1,upper,127.0,127.0,125.0,200.0,200.0,125.0,2,2.6266801357269287,None,,,,,0,0,0,0,0,84,84,5,466.5270574092865,,,,,,,,,,,,,,,,,,,,,,,,,,,,,,,,,,,,,,,,,,,,,,,,,,,,,,,,,,,,,,,,,,,,,,,,,,,,,,,,,127.0,127.0,125.0,200.0,200.0,125.0,2.1,2.11,-260,262,0,250,258,-282,466.5125620365143,466.51260232925415,466.5152168273926,466.5270574092865,466.6774363517761,466.6774363517761,466.6774363517761,466.6774363517761,466.6774363517761,466.6774363517761,466.6774363517761,469.1618273258209,2,2.6266801357269287,None,,,,,,,,,,,,,,,,,,135,5,2025-02-26_15h59.23.177,comp,2024.2.4,61.97843767732173,2025-02-26 15h59.33.773333 -0500,
85,85,0,critical,dhw,35.0,2.1,upper,127.0,127.0,200.0,125.0,125.0,200.0,3,3.465512752532959,None,,,,,0,0,0,0,0,85,85,25,469.17732071876526,,,,,,,,,,,,,,,,,,,,,,,,,,,,,,,,,,,,,,,,,,,,,,,,,,,,,,,,,,,,,,,,,,,,,,,,,,,,,,,,,127.0,127.0,200.0,125.0,125.0,200.0,2.1,2.11,-222,272,0,286,258,-265,469.16263151168823,469.1626739501953,469.1653325557709,469.17732071876526,469.32739329338074,469.32739329338074,469.32739329338074,469.32739329338074,469.32739329338074,469.32739329338074,469.32739329338074,472.6452651023865,3,3.465512752532959,None,,,,,,,,,,,,,,,,,,135,5,2025-02-26_15h59.23.177,comp,2024.2.4,61.97843767732173,2025-02-26 15h59.33.773333 -0500,
86,86,0,filler_square,None,None,None,None,None,None,None,None,None,None,1,1.3246574401855469,None,,,,,0,0,0,0,0,86,86,196,472.6606345176697,,,,,,,,,,,,,,,,,,,,,,,,,,,,,,,,,,,,,,,,,,,,,,,,,,,,,,,,,,,,,,,,,,,,,,,,,,,,,,,,,137.65582090392576,137.65582090392576,73.92595381739399,68.69177686395915,64.95316946911137,75.7178720729663,1.0,1.1,-679,270,-480,281,-312,278,472.64623188972473,472.64627408981323,472.64868450164795,472.6606345176697,472.81043434143066,472.81043434143066,472.81043434143066,472.81043434143066,472.81043434143066,472.81043434143066,472.81043434143066,473.9950478076935,1,1.3246574401855469,None,,,,,,,,,,,,,,,,,,135,5,2025-02-26_15h59.23.177,comp,2024.2.4,61.97843767732173,2025-02-26 15h59.33.773333 -0500,
87,87,0,critical,hdw,20.0,2.1,lower,133.0,57.0,78.0,78.0,57.0,133.0,3,2.621645927429199,None,,,,,0,0,0,0,0,87,87,46,474.0107071399689,,,,,,,,,,,,,,,,,,,,,,,,,,,,,,,,,,,,,,,,,,,,,,,,,,,,,,,,,,,,,,,,,,,,,,,,,,,,,,,,,133.0,57.0,78.0,78.0,57.0,133.0,2.1,2.11,-164,289,0,250,202,-256,473.99587512016296,473.99591875076294,473.9983193874359,474.0107071399689,474.1604814529419,474.1604814529419,474.1604814529419,474.1604814529419,474.1604814529419,474.1604814529419,474.1604814529419,476.64500737190247,3,2.621645927429199,None,,,,,,,,,,,,,,,,,,135,5,2025-02-26_15h59.23.177,comp,2024.2.4,61.97843767732173,2025-02-26 15h59.33.773333 -0500,
88,88,0,critical,whd,35.0,2.1,lower,57.0,133.0,133.0,57.0,70.0,70.0,2,3.9088358879089355,None,,,,,0,0,0,0,0,88,88,36,476.6604154109955,,,,,,,,,,,,,,,,,,,,,,,,,,,,,,,,,,,,,,,,,,,,,,,,,,,,,,,,,,,,,,,,,,,,,,,,,,,,,,,,,57.0,133.0,133.0,57.0,70.0,70.0,2.1,2.11,-191,286,0,264,160,-285,476.64580178260803,476.64584398269653,476.6482949256897,476.6604154109955,476.81051540374756,476.81051540374756,476.81051540374756,476.81051540374756,476.81051540374756,476.81051540374756,476.81051540374756,480.57828736305237,2,3.9088358879089355,None,,,,,,,,,,,,,,,,,,135,5,2025-02-26_15h59.23.177,comp,2024.2.4,61.97843767732173,2025-02-26 15h59.33.773333 -0500,
89,89,0,filler_random,None,None,None,None,None,None,None,None,None,None,2,1.2865211963653564,None,,,,,0,0,0,0,0,89,89,138,480.59400629997253,,,,,,,,,,,,,,,,,,,,,,,,,,,,,,,,,,,,,,,,,,,,,,,,,,,,,,,,,,,,,,,,,,,,,,,,,,,,,,,,,71.12665949803161,134.5643776030329,153.67085946021862,187.33918436786564,111.43513974433455,169.96178800812612,1.0,1.3,223,-258,480,-276,755,-278,480.57919812202454,480.57924008369446,480.58180499076843,480.59400629997253,480.7439317703247,480.7439317703247,480.7439317703247,480.7439317703247,480.7439317703247,480.7439317703247,480.7439317703247,481.8949673175812,2,1.2865211963653564,None,,,,,,,,,,,,,,,,,,135,5,2025-02-26_15h59.23.177,comp,2024.2.4,61.97843767732173,2025-02-26 15h59.33.773333 -0500,
90,90,0,filler_square,None,None,None,None,None,None,None,None,None,None,1,1.178900957107544,None,,,,,0,0,0,0,0,90,90,199,481.91042709350586,,,,,,,,,,,,,,,,,,,,,,,,,,,,,,,,,,,,,,,,,,,,,,,,,,,,,,,,,,,,,,,,,,,,,,,,,,,,,,,,,158.6521832832925,158.6521832832925,104.45818260048296,133.34190379180637,120.43455473277616,107.46299732708266,1.0,1.2,-242,14,0,-19,216,-16,481.89588379859924,481.895925283432,481.8981168270111,481.91042709350586,482.0608723163605,482.0608723163605,482.0608723163605,482.0608723163605,482.0608723163605,482.0608723163605,482.0608723163605,483.0950620174408,1,1.178900957107544,None,,,,,,,,,,,,,,,,,,135,5,2025-02-26_15h59.23.177,comp,2024.2.4,61.97843767732173,2025-02-26 15h59.33.773333 -0500,
91,91,0,critical,dhw,35.0,2.1,upper,127.0,127.0,200.0,125.0,125.0,200.0,2,2.043095588684082,None,,,,,0,0,0,0,0,91,91,1,483.110458612442,,,,,,,,,,,,,,,,,,,,,,,,,,,,,,,,,,,,,,,,,,,,,,,,,,,,,,,,,,,,,,,,,,,,,,,,,,,,,,,,,127.0,127.0,200.0,125.0,125.0,200.0,2.1,2.11,-222,279,0,273,258,-254,483.0958425998688,483.0958857536316,483.0982630252838,483.110458612442,483.2606885433197,483.2606885433197,483.2606885433197,483.2606885433197,483.2606885433197,483.2606885433197,483.2606885433197,485.16179752349854,2,2.043095588684082,None,,,,,,,,,,,,,,,,,,135,5,2025-02-26_15h59.23.177,comp,2024.2.4,61.97843767732173,2025-02-26 15h59.33.773333 -0500,
92,92,0,critical,whd,20.0,4.0,lower,57.0,133.0,133.0,57.0,78.0,78.0,1,2.6168344020843506,None,,,,,0,0,0,0,0,92,92,94,485.1772577762604,,,,,,,,,,,,,,,,,,,,,,,,,,,,,,,,,,,,,,,,,,,,,,,,,,,,,,,,,,,,,,,,,,,,,,,,,,,,,,,,,57.0,133.0,133.0,57.0,78.0,78.0,4.0,4.1,-191,-280,0,-5,164,-252,485.1625897884369,485.16263246536255,485.16528058052063,485.1772577762604,485.32704615592957,485.32704615592957,485.32704615592957,485.32704615592957,485.32704615592957,485.32704615592957,485.32704615592957,487.8116343021393,1,2.6168344020843506,None,,,,,,,,,,,,,,,,,,135,5,2025-02-26_15h59.23.177,comp,2024.2.4,61.97843767732173,2025-02-26 15h59.33.773333 -0500,
93,93,0,critical,wdh,20.0,3.0,upper,125.0,200.0,141.0,141.0,200.0,125.0,1,1.4214894771575928,None,,,,,0,0,0,0,0,93,93,81,487.8270308971405,,,,,,,,,,,,,,,,,,,,,,,,,,,,,,,,,,,,,,,,,,,,,,,,,,,,,,,,,,,,,,,,,,,,,,,,,,,,,,,,,125.0,200.0,141.0,141.0,200.0,125.0,3.0,3.2,-266,-259,0,16,229,281,487.812442779541,487.8124837875366,487.81506633758545,487.8270308971405,487.97739934921265,487.97739934921265,487.97739934921265,487.97739934921265,487.97739934921265,487.97739934921265,487.97739934921265,489.26170659065247,1,1.4214894771575928,None,,,,,,,,,,,,,,,,,,135,5,2025-02-26_15h59.23.177,comp,2024.2.4,61.97843767732173,2025-02-26 15h59.33.773333 -0500,
94,94,0,critical,hwd,20.0,3.0,lower,133.0,57.0,57.0,133.0,78.0,78.0,2,5.892393589019775,None,,,,,0,0,0,0,0,94,94,104,489.2768249511719,,,,,,,,,,,,,,,,,,,,,,,,,,,,,,,,,,,,,,,,,,,,,,,,,,,,,,,,,,,,,,,,,,,,,,,,,,,,,,,,,133.0,57.0,57.0,133.0,78.0,78.0,3.0,3.1,-191,267,0,1,202,-260,489.26249861717224,489.2625391483307,489.2650856971741,489.2768249511719,489.4271512031555,489.4271512031555,489.4271512031555,489.4271512031555,489.4271512031555,489.4271512031555,489.4271512031555,495.1780309677124,2,5.892393589019775,None,,,,,,,,,,,,,,,,,,135,5,2025-02-26_15h59.23.177,comp,2024.2.4,61.97843767732173,2025-02-26 15h59.33.773333 -0500,
95,95,0,filler_square,None,None,None,None,None,None,None,None,None,None,1,1.5508439540863037,None,,,,,0,0,0,0,0,95,95,185,495.1937663555145,,,,,,,,,,,,,,,,,,,,,,,,,,,,,,,,,,,,,,,,,,,,,,,,,,,,,,,,,,,,,,,,,,,,,,,,,,,,,,,,,179.74744727582083,179.74744727582083,171.09622617920536,137.94111839269593,170.10228663178947,96.96047556053315,1.0,1.1,-735,274,-480,266,-267,289,495.1790187358856,495.1790614128113,495.18150901794434,495.1937663555145,495.34394574165344,495.34394574165344,495.34394574165344,495.34394574165344,495.34394574165344,495.34394574165344,495.34394574165344,496.76181983947754,1,1.5508439540863037,None,,,,,,,,,,,,,,,,,,135,5,2025-02-26_15h59.23.177,comp,2024.2.4,61.97843767732173,2025-02-26 15h59.33.773333 -0500,
96,96,0,critical,hdw,35.0,2.1,upper,200.0,125.0,127.0,127.0,125.0,200.0,1,2.2171273231506348,None,,,,,0,0,0,0,0,96,96,45,496.7769241333008,,,,,,,,,,,,,,,,,,,,,,,,,,,,,,,,,,,,,,,,,,,,,,,,,,,,,,,,,,,,,,,,,,,,,,,,,,,,,,,,,200.0,125.0,127.0,127.0,125.0,200.0,2.1,2.12,-222,-267,0,-259,260,286,496.76263451576233,496.76267552375793,496.765261888504,496.7769241333008,496.927561044693,496.927561044693,496.927561044693,496.927561044693,496.927561044693,496.927561044693,496.927561044693,498.9952766895294,1,2.2171273231506348,None,,,,,,,,,,,,,,,,,,135,5,2025-02-26_15h59.23.177,comp,2024.2.4,61.97843767732173,2025-02-26 15h59.33.773333 -0500,
97,97,0,critical,hwd,35.0,2.1,lower,133.0,57.0,57.0,133.0,70.0,70.0,2,2.590848684310913,None,,,,,0,0,0,0,0,97,97,16,499.0105550289154,,,,,,,,,,,,,,,,,,,,,,,,,,,,,,,,,,,,,,,,,,,,,,,,,,,,,,,,,,,,,,,,,,,,,,,,,,,,,,,,,133.0,57.0,57.0,133.0,70.0,70.0,2.1,2.11,-191,279,0,263,198,-268,498.996084690094,498.99613666534424,498.99870777130127,499.0105550289154,499.16026973724365,499.16026973724365,499.16026973724365,499.16026973724365,499.16026973724365,499.16026973724365,499.16026973724365,501.6114993095398,2,2.590848684310913,None,,,,,,,,,,,,,,,,,,135,5,2025-02-26_15h59.23.177,comp,2024.2.4,61.97843767732173,2025-02-26 15h59.33.773333 -0500,
98,98,0,critical,hdw,35.0,4.0,lower,133.0,57.0,70.0,70.0,57.0,133.0,1,3.757925510406494,None,,,,,0,0,0,0,0,98,98,112,501.6271858215332,,,,,,,,,,,,,,,,,,,,,,,,,,,,,,,,,,,,,,,,,,,,,,,,,,,,,,,,,,,,,,,,,,,,,,,,,,,,,,,,,133.0,57.0,70.0,70.0,57.0,133.0,4.0,4.1,-160,-290,0,12,198,-282,501.61230421066284,501.61234641075134,501.6145224571228,501.6271858215332,501.7770357131958,501.7770357131958,501.7770357131958,501.7770357131958,501.7770357131958,501.7770357131958,501.7770357131958,505.394894361496,1,3.757925510406494,None,,,,,,,,,,,,,,,,,,135,5,2025-02-26_15h59.23.177,comp,2024.2.4,61.97843767732173,2025-02-26 15h59.33.773333 -0500,
99,99,0,critical,whd,35.0,4.0,upper,125.0,200.0,200.0,125.0,127.0,127.0,2,7.5585386753082275,None,,,,,0,0,0,0,0,99,99,89,505.4105350971222,,,,,,,,,,,,,,,,,,,,,,,,,,,,,,,,,,,,,,,,,,,,,,,,,,,,,,,,,,,,,,,,,,,,,,,,,,,,,,,,,125.0,200.0,200.0,125.0,127.0,127.0,4.0,4.2,-258,-7,0,-261,222,7,505.3956959247589,505.3957374095917,505.39832949638367,505.4105350971222,505.5605583190918,505.5605583190918,505.5605583190918,505.5605583190918,505.5605583190918,505.5605583190918,505.5605583190918,512.9784958362579,2,7.5585386753082275,None,,,,,,,,,,,,,,,,,,135,5,2025-02-26_15h59.23.177,comp,2024.2.4,61.97843767732173,2025-02-26 15h59.33.773333 -0500,
100,100,0,filler_square,None,None,None,None,None,None,None,None,None,None,1,1.4167137145996094,None,,,,,0,0,0,0,0,100,100,200,512.9937584400177,,,,,,,,,,,,,,,,,,,,,,,,,,,,,,,,,,,,,,,,,,,,,,,,,,,,,,,,,,,,,,,,,,,,,,,,,,,,,,,,,154.11266454267513,154.11266454267513,102.66191970552671,130.19786131235375,105.14515026078945,79.74360562732498,3.0,3.2,-238,-258,0,5,201,282,512.9794478416443,512.979489326477,512.9816732406616,512.9937584400177,513.1437606811523,513.1437606811523,513.1437606811523,513.1437606811523,513.1437606811523,513.1437606811523,513.1437606811523,514.4280455112457,1,1.4167137145996094,None,,,,,,,,,,,,,,,,,,135,5,2025-02-26_15h59.23.177,comp,2024.2.4,61.97843767732173,2025-02-26 15h59.33.773333 -0500,
101,101,0,critical,dhw,20.0,3.0,lower,78.0,78.0,133.0,57.0,57.0,133.0,2,9.983314752578735,None,,,,,0,0,0,0,0,101,101,56,514.4434328079224,,,,,,,,,,,,,,,,,,,,,,,,,,,,,,,,,,,,,,,,,,,,,,,,,,,,,,,,,,,,,,,,,,,,,,,,,,,,,,,,,78.0,78.0,133.0,57.0,57.0,133.0,3.0,3.2,-164,-252,0,0,191,276,514.4288418292999,514.4288823604584,514.4313042163849,514.4434328079224,514.5935876369476,514.5935876369476,514.5935876369476,514.5935876369476,514.5935876369476,514.5935876369476,514.5935876369476,524.4446456432343,2,9.983314752578735,None,,,,,,,,,,,,,,,,,,135,5,2025-02-26_15h59.23.177,comp,2024.2.4,61.97843767732173,2025-02-26 15h59.33.773333 -0500,
102,102,0,filler_square,None,None,None,None,None,None,None,None,None,None,1,1.1090033054351807,None,,,,,0,0,0,0,0,102,102,197,524.4600446224213,,,,,,,,,,,,,,,,,,,,,,,,,,,,,,,,,,,,,,,,,,,,,,,,,,,,,,,,,,,,,,,,,,,,,,,,,,,,,,,,,172.08698820087073,172.08698820087073,164.79545606489552,131.90996283007598,118.77786146297805,89.39909098921743,2.1,2.11,-248,289,0,259,207,-263,524.4456207752228,524.445662021637,524.4482724666595,524.4600446224213,524.610319852829,524.610319852829,524.610319852829,524.610319852829,524.610319852829,524.610319852829,524.610319852829,525.5780568122864,1,1.1090033054351807,None,,,,,,,,,,,,,,,,,,135,5,2025-02-26_15h59.23.177,comp,2024.2.4,61.97843767732173,2025-02-26 15h59.33.773333 -0500,
103,103,0,critical,hdw,20.0,3.0,upper,200.0,125.0,141.0,141.0,125.0,200.0,3,2.449122667312622,None,,,,,0,0,0,0,0,103,103,117,525.593691110611,,,,,,,,,,,,,,,,,,,,,,,,,,,,,,,,,,,,,,,,,,,,,,,,,,,,,,,,,,,,,,,,,,,,,,,,,,,,,,,,,200.0,125.0,141.0,141.0,125.0,200.0,3.0,3.1,-229,282,0,11,266,-290,525.578825712204,525.5788662433624,525.581173658371,525.593691110611,525.7436814308167,525.7436814308167,525.7436814308167,525.7436814308167,525.7436814308167,525.7436814308167,525.7436814308167,528.0450158119202,3,2.449122667312622,None,,,,,,,,,,,,,,,,,,135,5,2025-02-26_15h59.23.177,comp,2024.2.4,61.97843767732173,2025-02-26 15h59.33.773333 -0500,
104,104,0,critical,wdh,35.0,4.0,lower,57.0,133.0,70.0,70.0,133.0,57.0,3,5.028567314147949,None,,,,,0,0,0,0,0,104,104,76,528.0603022575378,,,,,,,,,,,,,,,,,,,,,,,,,,,,,,,,,,,,,,,,,,,,,,,,,,,,,,,,,,,,,,,,,,,,,,,,,,,,,,,,,57.0,133.0,70.0,70.0,133.0,57.0,4.0,4.1,-198,-280,0,-5,160,-263,528.0458176136017,528.0458583831787,528.0481407642365,528.0603022575378,528.2104568481445,528.2104568481445,528.2104568481445,528.2104568481445,528.2104568481445,528.2104568481445,528.2104568481445,533.0947575569153,3,5.028567314147949,None,,,,,,,,,,,,,,,,,,135,5,2025-02-26_15h59.23.177,comp,2024.2.4,61.97843767732173,2025-02-26 15h59.33.773333 -0500,
105,105,0,filler_square,None,None,None,None,None,None,None,None,None,None,3,1.4264967441558838,None,,,,,0,0,0,0,0,105,105,208,533.1104717254639,,,,,,,,,,,,,,,,,,,,,,,,,,,,,,,,,,,,,,,,,,,,,,,,,,,,,,,,,,,,,,,,,,,,,,,,,,,,,,,,,79.2628830464128,75.1092335598074,67.07598158364507,74.6015654141081,99.86386482404096,99.86386482404096,1.0,1.3,309,-261,480,-276,663,-256,533.0957255363464,533.0957672595978,533.0983748435974,533.1104717254639,533.2601070404053,533.2601070404053,533.2601070404053,533.2601070404053,533.2601070404053,533.2601070404053,533.2601070404053,534.5445568561554,3,1.4264967441558838,None,,,,,,,,,,,,,,,,,,135,5,2025-02-26_15h59.23.177,comp,2024.2.4,61.97843767732173,2025-02-26 15h59.33.773333 -0500,
106,106,0,critical,dwh,35.0,1.0,lower,70.0,70.0,57.0,133.0,133.0,57.0,2,1.967822551727295,None,,,,,0,0,0,0,0,106,106,60,534.5602777004242,,,,,,,,,,,,,,,,,,,,,,,,,,,,,,,,,,,,,,,,,,,,,,,,,,,,,,,,,,,,,,,,,,,,,,,,,,,,,,,,,70.0,70.0,57.0,133.0,133.0,57.0,1.0,1.2,-198,-7,0,9,191,-18,534.5453426837921,534.5453848838806,534.5479385852814,534.5602777004242,534.7100687026978,534.7100687026978,534.7100687026978,534.7100687026978,534.7100687026978,534.7100687026978,534.7100687026978,536.544474363327,2,1.967822551727295,None,,,,,,,,,,,,,,,,,,135,5,2025-02-26_15h59.23.177,comp,2024.2.4,61.97843767732173,2025-02-26 15h59.33.773333 -0500,
107,107,0,critical,whd,20.0,1.0,upper,125.0,200.0,200.0,125.0,141.0,141.0,2,1.7769832611083984,None,,,,,0,0,0,0,0,107,107,91,536.5599179267883,,,,,,,,,,,,,,,,,,,,,,,,,,,,,,,,,,,,,,,,,,,,,,,,,,,,,,,,,,,,,,,,,,,,,,,,,,,,,,,,,125.0,200.0,200.0,125.0,141.0,141.0,1.0,1.1,-738,267,-480,287,-251,267,536.545280456543,536.5453214645386,536.5478508472443,536.5599179267883,536.7103140354156,536.7103140354156,536.7103140354156,536.7103140354156,536.7103140354156,536.7103140354156,536.7103140354156,538.3447589874268,2,1.7769832611083984,None,,,,,,,,,,,,,,,,,,135,5,2025-02-26_15h59.23.177,comp,2024.2.4,61.97843767732173,2025-02-26 15h59.33.773333 -0500,
108,108,0,critical,dhw,20.0,2.1,lower,78.0,78.0,133.0,57.0,57.0,133.0,3,2.241014242172241,None,,,,,0,0,0,0,0,108,108,26,538.3602375984192,,,,,,,,,,,,,,,,,,,,,,,,,,,,,,,,,,,,,,,,,,,,,,,,,,,,,,,,,,,,,,,,,,,,,,,,,,,,,,,,,78.0,78.0,133.0,57.0,57.0,133.0,2.1,2.12,-164,-285,0,-280,191,285,538.3456044197083,538.3456454277039,538.3482670783997,538.3602375984192,538.5100345611572,538.5100345611572,538.5100345611572,538.5100345611572,538.5100345611572,538.5100345611572,538.5100345611572,540.6111512184143,3,2.241014242172241,None,,,,,,,,,,,,,,,,,,135,5,2025-02-26_15h59.23.177,comp,2024.2.4,61.97843767732173,2025-02-26 15h59.33.773333 -0500,
109,109,0,filler_random,None,None,None,None,None,None,None,None,None,None,1,1.4465713500976562,None,,,,,0,0,0,0,0,109,109,136,540.6267838478088,,,,,,,,,,,,,,,,,,,,,,,,,,,,,,,,,,,,,,,,,,,,,,,,,,,,,,,,,,,,,,,,,,,,,,,,,,,,,,,,,135.42590489876113,195.0052934707683,95.4705790341109,193.2892596220051,103.56213473170033,81.278647368879,4.0,4.1,-290,-283,0,13,233,-285,540.6120533943176,540.6120965480804,540.6145150661469,540.6267838478088,540.7769138813019,540.7769138813019,540.7769138813019,540.7769138813019,540.7769138813019,540.7769138813019,540.7769138813019,542.0781111717224,1,1.4465713500976562,None,,,,,,,,,,,,,,,,,,135,5,2025-02-26_15h59.23.177,comp,2024.2.4,61.97843767732173,2025-02-26 15h59.33.773333 -0500,
110,110,0,critical,hdw,20.0,2.1,lower,133.0,57.0,78.0,78.0,57.0,133.0,1,2.5953049659729004,None,,,,,0,0,0,0,0,110,110,22,542.0935230255127,,,,,,,,,,,,,,,,,,,,,,,,,,,,,,,,,,,,,,,,,,,,,,,,,,,,,,,,,,,,,,,,,,,,,,,,,,,,,,,,,133.0,57.0,78.0,78.0,57.0,133.0,2.1,2.12,-164,-285,0,-252,202,269,542.0788650512695,542.0789043903351,542.081280708313,542.0935230255127,542.2433416843414,542.2433416843414,542.2433416843414,542.2433416843414,542.2433416843414,542.2433416843414,542.2433416843414,544.6945083141327,1,2.5953049659729004,None,,,,,,,,,,,,,,,,,,135,5,2025-02-26_15h59.23.177,comp,2024.2.4,61.97843767732173,2025-02-26 15h59.33.773333 -0500,
111,111,0,filler_random,None,None,None,None,None,None,None,None,None,None,1,5.010858774185181,None,,,,,0,0,0,0,0,111,111,154,544.7101469039917,,,,,,,,,,,,,,,,,,,,,,,,,,,,,,,,,,,,,,,,,,,,,,,,,,,,,,,,,,,,,,,,,,,,,,,,,,,,,,,,,89.8967875623467,148.8878840004881,127.1934775274353,127.80880515624861,177.74383075393882,63.884306827045314,2.2,2.21,-234,-289,0,282,192,253,544.6954057216644,544.69544672966,544.6979370117188,544.7101469039917,544.8600347042084,544.8600347042084,544.8600347042084,544.8600347042084,544.8600347042084,544.8600347042084,544.8600347042084,549.7279379367828,1,5.010858774185181,None,,,,,,,,,,,,,,,,,,135,5,2025-02-26_15h59.23.177,comp,2024.2.4,61.97843767732173,2025-02-26 15h59.33.773333 -0500,
112,112,0,filler_square,None,None,None,None,None,None,None,None,None,None,3,2.266847610473633,None,,,,,0,0,0,0,0,112,112,179,549.7435050010681,,,,,,,,,,,,,,,,,,,,,,,,,,,,,,,,,,,,,,,,,,,,,,,,,,,,,,,,,,,,,,,,,,,,,,,,,,,,,,,,,125.21997239474099,57.796087332312574,73.37257935361222,59.31122471808961,181.3036152602093,181.3036152602093,2.1,2.11,-155,260,0,260,216,-285,549.7289147377014,549.7289569377899,549.7311451435089,549.7435050010681,549.8935079574585,549.8935079574585,549.8935079574585,549.8935079574585,549.8935079574585,549.8935079574585,549.8935079574585,552.0278718471527,3,2.266847610473633,None,,,,,,,,,,,,,,,,,,135,5,2025-02-26_15h59.23.177,comp,2024.2.4,61.97843767732173,2025-02-26 15h59.33.773333 -0500,
113,113,0,critical,hdw,20.0,4.0,upper,200.0,125.0,141.0,141.0,125.0,200.0,3,7.630187511444092,None,,,,,0,0,0,0,0,113,113,119,552.0431158542633,,,,,,,,,,,,,,,,,,,,,,,,,,,,,,,,,,,,,,,,,,,,,,,,,,,,,,,,,,,,,,,,,,,,,,,,,,,,,,,,,200.0,125.0,141.0,141.0,125.0,200.0,4.0,4.1,-229,-261,0,-4,266,-261,552.0286681652069,552.0287096500397,552.031343460083,552.0431158542633,552.1934366226196,552.1934366226196,552.1934366226196,552.1934366226196,552.1934366226196,552.1934366226196,552.1934366226196,559.6781673431396,3,7.630187511444092,None,,,,,,,,,,,,,,,,,,135,5,2025-02-26_15h59.23.177,comp,2024.2.4,61.97843767732173,2025-02-26 15h59.33.773333 -0500,
114,114,0,filler_random,None,None,None,None,None,None,None,None,None,None,1,47.61825966835022,None,,,,,0,0,0,0,0,114,114,137,559.6934695243835,,,,,,,,,,,,,,,,,,,,,,,,,,,,,,,,,,,,,,,,,,,,,,,,,,,,,,,,,,,,,,,,,,,,,,,,,,,,,,,,,90.50176993297414,113.52759653052618,108.96235232895152,77.6589814754147,71.82627398656335,58.6901966182228,3.0,3.2,-192,-262,0,6,164,260,559.6790862083435,559.679128408432,559.6812789440155,559.6934695243835,559.8433487415314,559.8433487415314,559.8433487415314,559.8433487415314,559.8433487415314,559.8433487415314,559.8433487415314,607.3274412155151,1,47.61825966835022,None,,,,,,,,,,,,,,,,,,135,5,2025-02-26_15h59.23.177,comp,2024.2.4,61.97843767732173,2025-02-26 15h59.33.773333 -0500,
115,115,0,critical,hwd,20.0,2.1,lower,133.0,57.0,57.0,133.0,78.0,78.0,2,2.561420440673828,None,,,,,0,0,0,0,0,115,115,18,607.3429546356201,,,,,,,,,,,,,,,,,,,,,,,,,,,,,,,,,,,,,,,,,,,,,,,,,,,,,,,,,,,,,,,,,,,,,,,,,,,,,,,,,133.0,57.0,57.0,133.0,78.0,78.0,2.1,2.12,-191,-286,0,-259,202,282,607.3282418251038,607.3282833099365,607.3308069705963,607.3429546356201,607.4930152893066,607.4930152893066,607.4930152893066,607.4930152893066,607.4930152893066,607.4930152893066,607.4930152893066,609.9107308387756,2,2.561420440673828,None,,,,,,,,,,,,,,,,,,135,5,2025-02-26_15h59.23.177,comp,2024.2.4,61.97843767732173,2025-02-26 15h59.33.773333 -0500,
116,116,0,critical,dwh,20.0,4.0,lower,78.0,78.0,57.0,133.0,133.0,57.0,2,2.7211906909942627,None,,,,,0,0,0,0,0,116,116,70,609.9264483451843,,,,,,,,,,,,,,,,,,,,,,,,,,,,,,,,,,,,,,,,,,,,,,,,,,,,,,,,,,,,,,,,,,,,,,,,,,,,,,,,,78.0,78.0,57.0,133.0,133.0,57.0,4.0,4.1,-202,-264,0,-2,191,-261,609.9115741252899,609.9116160869598,609.9142818450928,609.9264483451843,610.0762538909912,610.0762538909912,610.0762538909912,610.0762538909912,610.0762538909912,610.0762538909912,610.0762538909912,612.6606476306915,2,2.7211906909942627,None,,,,,,,,,,,,,,,,,,135,5,2025-02-26_15h59.23.177,comp,2024.2.4,61.97843767732173,2025-02-26 15h59.33.773333 -0500,
117,117,0,filler_square,None,None,None,None,None,None,None,None,None,None,1,0.9497647285461426,None,,,,,0,0,0,0,0,117,117,175,612.6760227680206,,,,,,,,,,,,,,,,,,,,,,,,,,,,,,,,,,,,,,,,,,,,,,,,,,,,,,,,,,,,,,,,,,,,,,,,,,,,,,,,,131.89719608879793,131.89719608879793,120.46999267805006,105.1867009662554,117.39634599620966,105.46084319269137,1.0,1.3,265,-263,480,-274,681,-255,612.6616291999817,612.6616702079773,612.6643056869507,612.6760227680206,612.8263065814972,612.8263065814972,612.8263065814972,612.8263065814972,612.8263065814972,612.8263065814972,612.8263065814972,613.6441082954407,1,0.9497647285461426,None,,,,,,,,,,,,,,,,,,135,5,2025-02-26_15h59.23.177,comp,2024.2.4,61.97843767732173,2025-02-26 15h59.33.773333 -0500,
118,118,0,catch,None,None,None,None,None,None,None,None,None,None,1,2.0449037551879883,None,,,,,0,0,0,0,0,118,118,128,613.6594161987305,,,,,,,,,,,,,,,,,,,,,,,,,,,,,,,,,,,,,,,,,,,,,,,,,,,,,,,,,,,,,,,,,,,,,,,,,,,,,,,,,154,171,103,87,128,62,3.0,3.2,-225,-262,0,-5,170,254,613.6451487541199,613.6451921463013,613.6476130485535,613.6594161987305,613.8096916675568,613.8096916675568,613.8096916675568,613.8096916675568,613.8096916675568,613.8096916675568,613.8096916675568,615.7107286453247,1,2.0449037551879883,None,,,,,,,,,,,,,,,,,,135,5,2025-02-26_15h59.23.177,comp,2024.2.4,61.97843767732173,2025-02-26 15h59.33.773333 -0500,
119,119,0,critical,dhw,20.0,2.1,upper,141.0,141.0,200.0,125.0,125.0,200.0,2,2.0171895027160645,None,,,,,0,0,0,0,0,119,119,3,615.7263915538788,,,,,,,,,,,,,,,,,,,,,,,,,,,,,,,,,,,,,,,,,,,,,,,,,,,,,,,,,,,,,,,,,,,,,,,,,,,,,,,,,141.0,141.0,200.0,125.0,125.0,200.0,2.1,2.12,-229,-273,0,-261,258,254,615.7115097045898,615.7115519046783,615.7143790721893,615.7263915538788,615.8764431476593,615.8764431476593,615.8764431476593,615.8764431476593,615.8764431476593,615.8764431476593,615.8764431476593,617.7608885765076,2,2.0171895027160645,None,,,,,,,,,,,,,,,,,,135,5,2025-02-26_15h59.23.177,comp,2024.2.4,61.97843767732173,2025-02-26 15h59.33.773333 -0500,
120,120,0,filler_random,None,None,None,None,None,None,None,None,None,None,3,2.0246474742889404,None,,,,,0,0,0,0,0,120,120,144,617.7761421203613,,,,,,,,,,,,,,,,,,,,,,,,,,,,,,,,,,,,,,,,,,,,,,,,,,,,,,,,,,,,,,,,,,,,,,,,,,,,,,,,,148.6439812917552,151.5051059430143,85.30086746600561,195.84212811533567,159.04476675438053,184.49382732401332,1.0,1.1,-750,277,-480,286,-194,259,617.7617998123169,617.7618396282196,617.7650439739227,617.7761421203613,617.9264643192291,617.9264643192291,617.9264643192291,617.9264643192291,617.9264643192291,617.9264643192291,617.9264643192291,619.8108370304108,3,2.0246474742889404,None,,,,,,,,,,,,,,,,,,135,5,2025-02-26_15h59.23.177,comp,2024.2.4,61.97843767732173,2025-02-26 15h59.33.773333 -0500,
121,121,0,filler_random,None,None,None,None,None,None,None,None,None,None,2,6.501097202301025,None,,,,,0,0,0,0,0,121,121,134,619.8263945579529,,,,,,,,,,,,,,,,,,,,,,,,,,,,,,,,,,,,,,,,,,,,,,,,,,,,,,,,,,,,,,,,,,,,,,,,,,,,,,,,,152.5194178439969,86.1003823763693,129.2116746664577,137.28757625851816,118.18795058473086,126.45919090860743,4.0,4.1,-208,-282,0,19,228,-282,619.8117733001709,619.8118162155151,619.8140077590942,619.8263945579529,619.976265668869,619.976265668869,619.976265668869,619.976265668869,619.976265668869,619.976265668869,619.976265668869,626.3441503047943,2,6.501097202301025,None,,,,,,,,,,,,,,,,,,135,5,2025-02-26_15h59.23.177,comp,2024.2.4,61.97843767732173,2025-02-26 15h59.33.773333 -0500,
122,122,0,critical,dhw,35.0,4.0,upper,127.0,127.0,200.0,125.0,125.0,200.0,3,2.655940055847168,None,,,,,0,0,0,0,0,122,122,53,626.359358549118,,,,,,,,,,,,,,,,,,,,,,,,,,,,,,,,,,,,,,,,,,,,,,,,,,,,,,,,,,,,,,,,,,,,,,,,,,,,,,,,,127.0,127.0,200.0,125.0,125.0,200.0,4.0,4.2,-222,1,0,-258,258,16,626.344916343689,626.3449561595917,626.347101688385,626.359358549118,626.5096271038055,626.5096271038055,626.5096271038055,626.5096271038055,626.5096271038055,626.5096271038055,626.5096271038055,629.0276272296906,3,2.655940055847168,None,,,,,,,,,,,,,,,,,,135,5,2025-02-26_15h59.23.177,comp,2024.2.4,61.97843767732173,2025-02-26 15h59.33.773333 -0500,
123,123,0,critical,wdh,35.0,1.0,lower,57.0,133.0,70.0,70.0,133.0,57.0,3,3.117288827896118,None,,,,,0,0,0,0,0,123,123,72,629.0426831245422,,,,,,,,,,,,,,,,,,,,,,,,,,,,,,,,,,,,,,,,,,,,,,,,,,,,,,,,,,,,,,,,,,,,,,,,,,,,,,,,,57.0,133.0,70.0,70.0,133.0,57.0,1.0,1.2,-198,-20,0,-4,160,-14,629.0284276008606,629.0284688472748,629.0309679508209,629.0426831245422,629.1927025318146,629.1927025318146,629.1927025318146,629.1927025318146,629.1927025318146,629.1927025318146,629.1927025318146,632.1772353649139,3,3.117288827896118,None,,,,,,,,,,,,,,,,,,135,5,2025-02-26_15h59.23.177,comp,2024.2.4,61.97843767732173,2025-02-26 15h59.33.773333 -0500,
124,124,0,critical,whd,20.0,1.0,lower,57.0,133.0,133.0,57.0,78.0,78.0,2,2.6003000736236572,None,,,,,0,0,0,0,0,124,124,90,632.1926057338715,,,,,,,,,,,,,,,,,,,,,,,,,,,,,,,,,,,,,,,,,,,,,,,,,,,,,,,,,,,,,,,,,,,,,,,,,,,,,,,,,57.0,133.0,133.0,57.0,78.0,78.0,1.0,1.3,289,-269,480,-286,644,-266,632.1780335903168,632.1780750751495,632.1805267333984,632.1926057338715,632.3428483009338,632.3428483009338,632.3428483009338,632.3428483009338,632.3428483009338,632.3428483009338,632.3428483009338,634.7940590381622,2,2.6003000736236572,None,,,,,,,,,,,,,,,,,,135,5,2025-02-26_15h59.23.177,comp,2024.2.4,61.97843767732173,2025-02-26 15h59.33.773333 -0500,
125,125,0,filler_random,None,None,None,None,None,None,None,None,None,None,1,2.285759925842285,None,,,,,0,0,0,0,0,125,125,167,634.8096458911896,,,,,,,,,,,,,,,,,,,,,,,,,,,,,,,,,,,,,,,,,,,,,,,,,,,,,,,,,,,,,,,,,,,,,,,,,,,,,,,,,108.14924368533543,142.44494355355886,81.14559193322377,157.0494901821534,69.11785479639252,100.87311679057512,3.0,3.2,-246,-252,0,-5,225,282,634.7949566841125,634.7950100898743,634.7971835136414,634.8096458911896,634.9598565101624,634.9598565101624,634.9598565101624,634.9598565101624,634.9598565101624,634.9598565101624,634.9598565101624,637.1105680465698,1,2.285759925842285,None,,,,,,,,,,,,,,,,,,135,5,2025-02-26_15h59.23.177,comp,2024.2.4,61.97843767732173,2025-02-26 15h59.33.773333 -0500,
126,126,0,critical,hwd,20.0,4.0,upper,200.0,125.0,125.0,200.0,141.0,141.0,2,2.810361385345459,None,,,,,0,0,0,0,0,126,126,107,637.1259064674377,,,,,,,,,,,,,,,,,,,,,,,,,,,,,,,,,,,,,,,,,,,,,,,,,,,,,,,,,,,,,,,,,,,,,,,,,,,,,,,,,200.0,125.0,125.0,200.0,141.0,141.0,4.0,4.2,-258,13,0,-272,266,14,637.1113588809967,637.1114003658295,637.1139676570892,637.1259064674377,637.2763111591339,637.2763111591339,637.2763111591339,637.2763111591339,637.2763111591339,637.2763111591339,637.2763111591339,639.9440543651581,2,2.810361385345459,None,,,,,,,,,,,,,,,,,,135,5,2025-02-26_15h59.23.177,comp,2024.2.4,61.97843767732173,2025-02-26 15h59.33.773333 -0500,
127,127,0,critical,wdh,35.0,3.0,lower,57.0,133.0,70.0,70.0,133.0,57.0,3,2.008850574493408,None,,,,,0,0,0,0,0,127,127,74,639.959584236145,,,,,,,,,,,,,,,,,,,,,,,,,,,,,,,,,,,,,,,,,,,,,,,,,,,,,,,,,,,,,,,,,,,,,,,,,,,,,,,,,57.0,133.0,70.0,70.0,133.0,57.0,3.0,3.2,-198,-253,0,-17,160,266,639.9448294639587,639.9448711872101,639.9470438957214,639.959584236145,640.1095597743988,640.1095597743988,640.1095597743988,640.1095597743988,640.1095597743988,640.1095597743988,640.1095597743988,641.9771113395691,3,2.008850574493408,None,,,,,,,,,,,,,,,,,,135,5,2025-02-26_15h59.23.177,comp,2024.2.4,61.97843767732173,2025-02-26 15h59.33.773333 -0500,
128,128,0,filler_random,None,None,None,None,None,None,None,None,None,None,2,1.4328453540802002,None,,,,,0,0,0,0,0,128,128,157,641.9928295612335,,,,,,,,,,,,,,,,,,,,,,,,,,,,,,,,,,,,,,,,,,,,,,,,,,,,,,,,,,,,,,,,,,,,,,,,,,,,,,,,,77.77452885164531,112.9328299731323,156.32607722909893,175.29427637341917,163.5131571988009,166.93579694328412,2.1,2.12,-240,-275,0,-287,267,251,641.9780247211456,641.9780673980713,641.9802694320679,641.9928295612335,642.142849445343,642.142849445343,642.142849445343,642.142849445343,642.142849445343,642.142849445343,642.142849445343,643.4439132213593,2,1.4328453540802002,None,,,,,,,,,,,,,,,,,,135,5,2025-02-26_15h59.23.177,comp,2024.2.4,61.97843767732173,2025-02-26 15h59.33.773333 -0500,
129,129,0,filler_square,None,None,None,None,None,None,None,None,None,None,2,0.9559881687164307,None,,,,,0,0,0,0,0,129,129,176,643.4592921733856,,,,,,,,,,,,,,,,,,,,,,,,,,,,,,,,,,,,,,,,,,,,,,,,,,,,,,,,,,,,,,,,,,,,,,,,,,,,,,,,,95.54476324363907,73.420834730126,167.71239345601003,167.71239345601003,130.28894394772624,133.9125008341288,2.1,2.11,-217,272,0,281,247,-268,643.4448847770691,643.444925069809,643.4471125602722,643.4592921733856,643.6095485687256,643.6095485687256,643.6095485687256,643.6095485687256,643.6095485687256,643.6095485687256,643.6095485687256,644.4274003505707,2,0.9559881687164307,None,,,,,,,,,,,,,,,,,,135,5,2025-02-26_15h59.23.177,comp,2024.2.4,61.97843767732173,2025-02-26 15h59.33.773333 -0500,
130,130,0,critical,dhw,20.0,4.0,upper,141.0,141.0,200.0,125.0,125.0,200.0,3,1.8528852462768555,None,,,,,0,0,0,0,0,130,130,59,644.4425582885742,,,,,,,,,,,,,,,,,,,,,,,,,,,,,,,,,,,,,,,,,,,,,,,,,,,,,,,,,,,,,,,,,,,,,,,,,,,,,,,,,141.0,141.0,200.0,125.0,125.0,200.0,4.0,4.1,-229,-257,0,-12,258,-263,644.4282004833221,644.4282417297363,644.4308614730835,644.4425582885742,644.5930335521698,644.5930335521698,644.5930335521698,644.5930335521698,644.5930335521698,644.5930335521698,644.5930335521698,646.3107018470764,3,1.8528852462768555,None,,,,,,,,,,,,,,,,,,135,5,2025-02-26_15h59.23.177,comp,2024.2.4,61.97843767732173,2025-02-26 15h59.33.773333 -0500,
131,131,0,filler_random,None,None,None,None,None,None,None,None,None,None,1,1.1000068187713623,None,,,,,0,0,0,0,0,131,131,130,646.3260390758514,,,,,,,,,,,,,,,,,,,,,,,,,,,,,,,,,,,,,,,,,,,,,,,,,,,,,,,,,,,,,,,,,,,,,,,,,,,,,,,,,183.87414009348308,144.23791573025332,97.9699711569433,185.04051777486083,74.07197507897794,136.3277333811944,4.0,4.1,-261,-282,0,15,257,-281,646.3115727901459,646.3116126060486,646.3141987323761,646.3260390758514,646.4762079715729,646.4762079715729,646.4762079715729,646.4762079715729,646.4762079715729,646.4762079715729,646.4762079715729,647.4438438415527,1,1.1000068187713623,None,,,,,,,,,,,,,,,,,,135,5,2025-02-26_15h59.23.177,comp,2024.2.4,61.97843767732173,2025-02-26 15h59.33.773333 -0500,
132,132,0,critical,wdh,20.0,4.0,upper,125.0,200.0,141.0,141.0,200.0,125.0,1,2.0448415279388428,None,,,,,0,0,0,0,0,132,132,83,647.4592044353485,,,,,,,,,,,,,,,,,,,,,,,,,,,,,,,,,,,,,,,,,,,,,,,,,,,,,,,,,,,,,,,,,,,,,,,,,,,,,,,,,125.0,200.0,141.0,141.0,200.0,125.0,4.0,4.2,-266,-12,0,-259,229,13,647.4446520805359,647.4446940422058,647.446849822998,647.4592044353485,647.6095883846283,647.6095883846283,647.6095883846283,647.6095883846283,647.6095883846283,647.6095883846283,647.6095883846283,649.51065325737,1,2.0448415279388428,None,,,,,,,,,,,,,,,,,,135,5,2025-02-26_15h59.23.177,comp,2024.2.4,61.97843767732173,2025-02-26 15h59.33.773333 -0500,
133,133,0,critical,hwd,35.0,2.1,lower,133.0,57.0,57.0,133.0,70.0,70.0,2,2.9211795330047607,None,,,,,0,0,0,0,0,133,133,40,649.5261487960815,,,,,,,,,,,,,,,,,,,,,,,,,,,,,,,,,,,,,,,,,,,,,,,,,,,,,,,,,,,,,,,,,,,,,,,,,,,,,,,,,133.0,57.0,57.0,133.0,70.0,70.0,2.1,2.12,-191,-273,0,-266,198,261,649.5114996433258,649.5115420818329,649.5141394138336,649.5261487960815,649.6759488582611,649.6759488582611,649.6759488582611,649.6759488582611,649.6759488582611,649.6759488582611,649.6759488582611,652.460685968399,2,2.9211795330047607,None,,,,,,,,,,,,,,,,,,135,5,2025-02-26_15h59.23.177,comp,2024.2.4,61.97843767732173,2025-02-26 15h59.33.773333 -0500,
134,134,0,critical,whd,20.0,3.0,lower,57.0,133.0,133.0,57.0,78.0,78.0,2,0.9663376808166504,None,,,,,0,0,0,0,0,134,134,92,652.4758336544037,,,,,,,,,,,,,,,,,,,,,,,,,,,,,,,,,,,,,,,,,,,,,,,,,,,,,,,,,,,,,,,,,,,,,,,,,,,,,,,,,57.0,133.0,133.0,57.0,78.0,78.0,3.0,3.1,-191,264,0,-15,164,-282,652.4615230560303,652.4615643024445,652.4640669822693,652.4758336544037,652.6260366439819,652.6260366439819,652.6260366439819,652.6260366439819,652.6260366439819,652.6260366439819,652.6260366439819,653.4602935314178,2,0.9663376808166504,None,,,,,,,,,,,,,,,,,,135,5,2025-02-26_15h59.23.177,comp,2024.2.4,61.97843767732173,2025-02-26 15h59.33.773333 -0500,
135,135,0,critical,hdw,20.0,3.0,lower,133.0,57.0,78.0,78.0,57.0,133.0,3,1.1715140342712402,None,,,,,0,0,0,0,0,135,135,116,653.4758033752441,,,,,,,,,,,,,,,,,,,,,,,,,,,,,,,,,,,,,,,,,,,,,,,,,,,,,,,,,,,,,,,,,,,,,,,,,,,,,,,,,133.0,57.0,78.0,78.0,57.0,133.0,3.0,3.1,-164,251,0,-18,202,-285,653.4610924720764,653.461133480072,653.4636371135712,653.4758033752441,653.6260108947754,653.6260108947754,653.6260108947754,653.6260108947754,653.6260108947754,653.6260108947754,653.6260108947754,654.6603853702545,3,1.1715140342712402,None,,,,,,,,,,,,,,,,,,135,5,2025-02-26_15h59.23.177,comp,2024.2.4,61.97843767732173,2025-02-26 15h59.33.773333 -0500,
136,136,0,filler_square,None,None,None,None,None,None,None,None,None,None,2,0.8441739082336426,None,,,,,0,0,0,0,0,136,136,205,654.6758341789246,,,,,,,,,,,,,,,,,,,,,,,,,,,,,,,,,,,,,,,,,,,,,,,,,,,,,,,,,,,,,,,,,,,,,,,,,,,,,,,,,58.13385790018103,68.04391388102049,82.51149724056083,82.51149724056083,82.38938841205447,70.53928610865444,2.1,2.12,-171,-266,0,-257,173,284,654.6613163948059,654.6613564491272,654.6638481616974,654.6758341789246,654.8258759975433,654.8258759975433,654.8258759975433,654.8258759975433,654.8258759975433,654.8258759975433,654.8258759975433,655.5272071361542,2,0.8441739082336426,None,,,,,,,,,,,,,,,,,,135,5,2025-02-26_15h59.23.177,comp,2024.2.4,61.97843767732173,2025-02-26 15h59.33.773333 -0500,
137,137,0,filler_random,None,None,None,None,None,None,None,None,None,None,2,0.9527697563171387,None,,,,,0,0,0,0,0,137,137,147,655.5426516532898,,,,,,,,,,,,,,,,,,,,,,,,,,,,,,,,,,,,,,,,,,,,,,,,,,,,,,,,,,,,,,,,,,,,,,,,,,,,,,,,,139.80936287801103,71.75172276870416,140.416340860162,173.39327924773966,152.0752644550371,69.07636137159383,2.1,2.11,-219,279,0,281,217,-253,655.5281314849854,655.5281727313995,655.5306379795074,655.5426516532898,655.6926670074463,655.6926670074463,655.6926670074463,655.6926670074463,655.6926670074463,655.6926670074463,655.6926670074463,656.5104277133942,2,0.9527697563171387,None,,,,,,,,,,,,,,,,,,135,5,2025-02-26_15h59.23.177,comp,2024.2.4,61.97843767732173,2025-02-26 15h59.33.773333 -0500,
138,138,0,critical,wdh,35.0,2.1,upper,125.0,200.0,127.0,127.0,200.0,125.0,1,1.6423239707946777,None,,,,,0,0,0,0,0,138,138,9,656.525796175003,,,,,,,,,,,,,,,,,,,,,,,,,,,,,,,,,,,,,,,,,,,,,,,,,,,,,,,,,,,,,,,,,,,,,,,,,,,,,,,,,125.0,200.0,127.0,127.0,200.0,125.0,2.1,2.12,-260,-278,0,-265,222,270,656.5112409591675,656.5112807750702,656.5137805938721,656.525796175003,656.6761558055878,656.6761558055878,656.6761558055878,656.6761558055878,656.6761558055878,656.6761558055878,656.6761558055878,658.1772406101227,1,1.6423239707946777,None,,,,,,,,,,,,,,,,,,135,5,2025-02-26_15h59.23.177,comp,2024.2.4,61.97843767732173,2025-02-26 15h59.33.773333 -0500,
139,139,0,critical,wdh,20.0,2.1,lower,57.0,133.0,78.0,78.0,133.0,57.0,3,2.6328086853027344,None,,,,,0,0,0,0,0,139,139,10,658.192754983902,,,,,,,,,,,,,,,,,,,,,,,,,,,,,,,,,,,,,,,,,,,,,,,,,,,,,,,,,,,,,,,,,,,,,,,,,,,,,,,,,57.0,133.0,78.0,78.0,133.0,57.0,2.1,2.12,-202,-282,0,-264,164,288,658.1780345439911,658.1780772209167,658.1802430152893,658.192754983902,658.342658996582,658.342658996582,658.342658996582,658.342658996582,658.342658996582,658.342658996582,658.342658996582,660.8273417949677,3,2.6328086853027344,None,,,,,,,,,,,,,,,,,,135,5,2025-02-26_15h59.23.177,comp,2024.2.4,61.97843767732173,2025-02-26 15h59.33.773333 -0500,
140,140,0,critical,hwd,35.0,4.0,lower,133.0,57.0,57.0,133.0,70.0,70.0,1,1.4855806827545166,None,,,,,0,0,0,0,0,140,140,100,660.8430359363556,,,,,,,,,,,,,,,,,,,,,,,,,,,,,,,,,,,,,,,,,,,,,,,,,,,,,,,,,,,,,,,,,,,,,,,,,,,,,,,,,133.0,57.0,57.0,133.0,70.0,70.0,4.0,4.1,-191,-286,0,-10,198,-274,660.8281304836273,660.8281707763672,660.8306953907013,660.8430359363556,660.9926288127899,660.9926288127899,660.9926288127899,660.9926288127899,660.9926288127899,660.9926288127899,660.9926288127899,662.34406042099,1,1.4855806827545166,None,,,,,,,,,,,,,,,,,,135,5,2025-02-26_15h59.23.177,comp,2024.2.4,61.97843767732173,2025-02-26 15h59.33.773333 -0500,
