thisN,thisTrialN,thisRepN,effect,order,distance,config,diag,h_1,w_1,h_2,w_2,h_3,w_3,rect_choice.keys,rect_choice.rt,rect_choice.duration,instructions_loop.thisRepN,instructions_loop.thisTrialN,instructions_loop.thisN,instructions_loop.thisIndex,blocks.thisRepN,blocks.thisTrialN,blocks.thisN,blocks.thisIndex,trials.thisRepN,trials.thisTrialN,trials.thisN,trials.thisIndex,thisRow.t,notes,consent.started,agree_button.started,decline_button.started,consent_img.started,mouse.started,consent.stopped,agree_button.numClicks,agree_button.timesOn,agree_button.timesOff,decline_button.numClicks,decline_button.timesOn,decline_button.timesOff,mouse.x,mouse.y,mouse.leftButton,mouse.midButton,mouse.rightButton,mouse.time,mouse.clicked_name,exp_params.started,exp_params.stopped,welcome.started,welcome_text.started,welcome.stopped,instructions_1.started,instructions_1_text_1.started,instructions_1_text_2.started,key_resp.started,instructions_1.stopped,instructions_loop.key_resp.keys,instructions_loop.key_resp.rt,instructions_loop.key_resp.duration,instructions_2.started,instructions_2_text_1.started,instructions_2_text_2.started,key_resp_2.started,instructions_2.stopped,instructions_loop.key_resp_2.keys,instructions_loop.key_resp_2.rt,instructions_loop.key_resp_2.duration,instructions_3.started,instructions_3_text_1.started,r1_instr3.started,r2_instr3.started,r3_instr3.started,r1_instr3_label.started,r2_instr3_label.started,r3_instr3_label.started,instructions_3_text_3.started,instructions_3_text_4.started,key_resp_3.started,instructions_3.stopped,instructions_loop.key_resp_3.keys,instructions_loop.key_resp_3.rt,instructions_loop.key_resp_3.duration,instructions_4.started,instructions_4_text_1.started,instructions_4_text_3.started,instructions_4_text_2.started,key_resp_4.started,instructions_4.stopped,instructions_loop.key_resp_4.keys,instructions_loop.key_resp_4.rt,instructions_loop.key_resp_4.duration,instructions_5.started,instructions_5_text_1.started,instructions_5_text_2.started,key_resp_5.started,instructions_5.stopped,instructions_loop.key_resp_5.keys,instructions_loop.key_resp_5.rt,instructions_loop.key_resp_5.duration,start_exp.started,start_exp_text.started,key_resp_6.started,start_exp.stopped,key_resp_6.keys,key_resp_6.rt,key_resp_6.duration,h_1_tmp,w_1_tmp,h_2_tmp,w_2_tmp,h_3_tmp,w_3_tmp,config_tmp,config_tmp_1,r_1_x,r_1_y,r_2_x,r_2_y,r_3_x,r_3_y,pre_trial.started,pre_trial.stopped,choice_trial.started,rect_choice.started,r_1.started,r_2.started,r_3.started,r_1_label.started,r_2_label.started,r_3_label.started,prompt.started,choice_trial.stopped,trials.rect_choice.keys,trials.rect_choice.rt,trials.rect_choice.duration,end_block.started,end_block_text.started,end_block.stopped,end.started,end_text.started,key_resp_7.started,end.stopped,key_resp_7.keys,key_resp_7.rt,key_resp_7.duration,debriefing.started,debrief_form.started,end_debrief.started,debriefing.stopped,end_debrief.keys,end_debrief.rt,end_debrief.duration,participant,computer,date,expName,psychopyVersion,frameRate,expStart,
,,,,,,,,,,,,,,,,,,,,,,,,,,,,,,,0.014569997787475586,0.03514909744262695,0.03514909744262695,0.03514909744262695,0.014381885528564453,304.0064125061035,1,[303.96928119659424],[303.969300031662],0,,,[-69.0],[-513.0],[1],[0],[0],[303.9914655685425],['agree_button'],,,,,,,,,,,,,,,,,,,,,,,,,,,,,,,,,,,,,,,,,,,,,,,,,,,,,,,,,,,,,,,,,,,,,,,,,,,,,,,,,,,,,,,,,,,,,,,,,,,,,,,,,,,136,6,2025-02-26_16h01.02.884,comp,2024.2.4,None,2025-02-26 16h01.14.379422 -0500,
,,,,,,,,,,,,,,,,,,,,,,,,,,,,,,,,,,,,,,,,,,,,,,,,,,304.00683546066284,304.0068895816803,,,,,,,,,,,,,,,,,,,,,,,,,,,,,,,,,,,,,,,,,,,,,,,,,,,,,,,,,,,,,,,,,,,,,,,,,,,,,,,,,,,,,,,,,,,,,,,,,,,,,,,,,136,6,2025-02-26_16h01.02.884,comp,2024.2.4,None,2025-02-26 16h01.14.379422 -0500,
,,,,,,,,,,,,,,,,,,,,,,,,,,,,,,,,,,,,,,,,,,,,,,,,,,,,304.0069246292114,304.02277874946594,306.0190064907074,,,,,,,,,,,,,,,,,,,,,,,,,,,,,,,,,,,,,,,,,,,,,,,,,,,,,,,,,,,,,,,,,,,,,,,,,,,,,,,,,,,,,,,,,,,,,,,,,,,,,,136,6,2025-02-26_16h01.02.884,comp,2024.2.4,None,2025-02-26 16h01.14.379422 -0500,
0,0,0,,,,,,,,,,,,,,,0,0,0,0,,,,,,,,,306.0358033180237,,,,,,,,,,,,,,,,,,,,,,,,,,306.01997208595276,306.0358033180237,306.0358033180237,307.52098846435547,312.17327547073364,space,4.631249189376831,None,312.17342233657837,312.1932225227356,312.1932225227356,313.67247700691223,327.77860927581787,space,14.10362696647644,None,327.77875781059265,327.80921363830566,327.80921363830566,327.80921363830566,327.80921363830566,327.80921363830566,327.80921363830566,327.80921363830566,327.80921363830566,327.80921363830566,329.2844748497009,335.8822772502899,space,6.595625638961792,None,335.8824486732483,335.9012026786804,335.9012026786804,335.9012026786804,337.39781951904297,344.01789808273315,space,6.61803126335144,None,344.01805114746094,344.0336000919342,344.0336000919342,345.53282833099365,347.24830079078674,space,1.699066400527954,None,347.2485017776489,347.2639355659485,347.2639355659485,349.1672513484955,space,1.8879106044769287,None,,,,,,,,,,,,,,,,,,,,,,,,,,,,,,,,,,,,,,,,,,,,,,,136,6,2025-02-26_16h01.02.884,comp,2024.2.4,None,2025-02-26 16h01.14.379422 -0500,
0,0,0,filler_random,None,None,None,None,None,None,None,None,None,None,3,20.16992735862732,None,,,,,0,0,0,0,0,0,0,145,349.24677634239197,,,,,,,,,,,,,,,,,,,,,,,,,,,,,,,,,,,,,,,,,,,,,,,,,,,,,,,,,,,,,,,,,,,,,,,,,,,,,,,,,142.59349534114085,132.19836281098782,95.7445345430439,73.4803085953001,183.54364098305575,103.93565790242579,2.1,2.12,-199,-253,0,-280,185,259,349.23071575164795,349.2307639122009,349.23251247406006,349.24677634239197,349.39524817466736,349.39524817466736,349.39524817466736,349.39524817466736,349.39524817466736,349.39524817466736,349.39524817466736,369.4253034591675,3,20.16992735862732,None,,,,,,,,,,,,,,,,,,136,6,2025-02-26_16h01.02.884,comp,2024.2.4,None,2025-02-26 16h01.14.379422 -0500,
1,1,0,critical,hdw,35.0,2.1,upper,200.0,125.0,127.0,127.0,125.0,200.0,1,6.775099754333496,None,,,,,0,0,0,0,0,1,1,21,369.4406991004944,,,,,,,,,,,,,,,,,,,,,,,,,,,,,,,,,,,,,,,,,,,,,,,,,,,,,,,,,,,,,,,,,,,,,,,,,,,,,,,,,200.0,125.0,127.0,127.0,125.0,200.0,2.1,2.12,-222,-271,0,-289,260,265,369.4267659187317,369.4268362522125,369.4300003051758,369.4406991004944,369.59074211120605,369.59074211120605,369.59074211120605,369.59074211120605,369.59074211120605,369.59074211120605,369.59074211120605,376.22791147232056,1,6.775099754333496,None,,,,,,,,,,,,,,,,,,136,6,2025-02-26_16h01.02.884,comp,2024.2.4,None,2025-02-26 16h01.14.379422 -0500,
2,2,0,filler_square,None,None,None,None,None,None,None,None,None,None,3,3.2663652896881104,None,,,,,0,0,0,0,0,2,2,205,376.245637178421,,,,,,,,,,,,,,,,,,,,,,,,,,,,,,,,,,,,,,,,,,,,,,,,,,,,,,,,,,,,,,,,,,,,,,,,,,,,,,,,,61.27608622183582,59.678575529259895,62.321728280677746,57.3598435927224,63.18165599610046,63.18165599610046,1.0,1.2,-155,14,0,20,156,10,376.2296905517578,376.2297818660736,376.23271679878235,376.245637178421,376.3898220062256,376.3898220062256,376.3898220062256,376.3898220062256,376.3898220062256,376.3898220062256,376.3898220062256,379.514315366745,3,3.2663652896881104,None,,,,,,,,,,,,,,,,,,136,6,2025-02-26_16h01.02.884,comp,2024.2.4,None,2025-02-26 16h01.14.379422 -0500,
3,3,0,critical,dwh,35.0,2.1,upper,127.0,127.0,125.0,200.0,200.0,125.0,2,3.755363702774048,None,,,,,0,0,0,0,0,3,3,5,379.53306818008423,,,,,,,,,,,,,,,,,,,,,,,,,,,,,,,,,,,,,,,,,,,,,,,,,,,,,,,,,,,,,,,,,,,,,,,,,,,,,,,,,127.0,127.0,125.0,200.0,200.0,125.0,2.1,2.11,-260,255,0,266,258,-283,379.5161497592926,379.51627492904663,379.5195035934448,379.53306818008423,379.67826628685,379.67826628685,379.67826628685,379.67826628685,379.67826628685,379.67826628685,379.67826628685,383.29445362091064,2,3.755363702774048,None,,,,,,,,,,,,,,,,,,136,6,2025-02-26_16h01.02.884,comp,2024.2.4,None,2025-02-26 16h01.14.379422 -0500,
4,4,0,filler_random,None,None,None,None,None,None,None,None,None,None,1,1.3620901107788086,None,,,,,0,0,0,0,0,4,4,151,383.3107166290283,,,,,,,,,,,,,,,,,,,,,,,,,,,,,,,,,,,,,,,,,,,,,,,,,,,,,,,,,,,,,,,,,,,,,,,,,,,,,,,,,151.94687015683093,197.80349429598044,93.58308978412549,139.4014120665803,58.108756198922116,81.15054287752594,4.0,4.1,-265,-277,0,-3,206,-252,383.2961564064026,383.29623532295227,383.29923701286316,383.3107166290283,383.4619996547699,383.4619996547699,383.4619996547699,383.4619996547699,383.4619996547699,383.4619996547699,383.4619996547699,384.68232893943787,1,1.3620901107788086,None,,,,,,,,,,,,,,,,,,136,6,2025-02-26_16h01.02.884,comp,2024.2.4,None,2025-02-26 16h01.14.379422 -0500,
5,5,0,critical,hdw,35.0,1.0,upper,200.0,125.0,127.0,127.0,125.0,200.0,3,4.595606327056885,None,,,,,0,0,0,0,0,5,5,109,384.7002282142639,,,,,,,,,,,,,,,,,,,,,,,,,,,,,,,,,,,,,,,,,,,,,,,,,,,,,,,,,,,,,,,,,,,,,,,,,,,,,,,,,200.0,125.0,127.0,127.0,125.0,200.0,1.0,1.1,-702,282,-480,255,-220,260,384.6839632987976,384.684045791626,384.6871078014374,384.7002282142639,384.85038113594055,384.85038113594055,384.85038113594055,384.85038113594055,384.85038113594055,384.85038113594055,384.85038113594055,389.2983775138855,3,4.595606327056885,None,,,,,,,,,,,,,,,,,,136,6,2025-02-26_16h01.02.884,comp,2024.2.4,None,2025-02-26 16h01.14.379422 -0500,
6,6,0,filler_square,None,None,None,None,None,None,None,None,None,None,2,1.2062129974365234,None,,,,,0,0,0,0,0,6,6,180,389.3148236274719,,,,,,,,,,,,,,,,,,,,,,,,,,,,,,,,,,,,,,,,,,,,,,,,,,,,,,,,,,,,,,,,,,,,,,,,,,,,,,,,,71.89150875024717,61.429947244752405,187.699380689348,187.699380689348,76.70974490651147,117.35762537183483,3.0,3.2,-221,-270,0,17,249,254,389.3000750541687,389.3001871109009,389.3040990829468,389.3148236274719,389.46710658073425,389.46710658073425,389.46710658073425,389.46710658073425,389.46710658073425,389.46710658073425,389.46710658073425,390.5238733291626,2,1.2062129974365234,None,,,,,,,,,,,,,,,,,,136,6,2025-02-26_16h01.02.884,comp,2024.2.4,None,2025-02-26 16h01.14.379422 -0500,
7,7,0,catch,None,None,None,None,None,None,None,None,None,None,3,0.9810564517974854,None,,,,,0,0,0,0,0,7,7,124,390.5393397808075,,,,,,,,,,,,,,,,,,,,,,,,,,,,,,,,,,,,,,,,,,,,,,,,,,,,,,,,,,,,,,,,,,,,,,,,,,,,,,,,,64,126,107,83,144,181,1.0,1.2,-200,-9,0,9,228,-7,390.52570104599,390.5257818698883,390.5286340713501,390.5393397808075,390.6840386390686,390.6840386390686,390.6840386390686,390.6840386390686,390.6840386390686,390.6840386390686,390.6840386390686,391.5318214893341,3,0.9810564517974854,None,,,,,,,,,,,,,,,,,,136,6,2025-02-26_16h01.02.884,comp,2024.2.4,None,2025-02-26 16h01.14.379422 -0500,
8,8,0,critical,dhw,35.0,2.1,lower,70.0,70.0,133.0,57.0,57.0,133.0,3,6.5013747215271,None,,,,,0,0,0,0,0,8,8,24,391.5464377403259,,,,,,,,,,,,,,,,,,,,,,,,,,,,,,,,,,,,,,,,,,,,,,,,,,,,,,,,,,,,,,,,,,,,,,,,,,,,,,,,,70.0,70.0,133.0,57.0,57.0,133.0,2.1,2.11,-160,289,0,285,191,-275,391.5332865715027,391.53336477279663,391.536639213562,391.5464377403259,391.6969802379608,391.6969802379608,391.6969802379608,391.6969802379608,391.6969802379608,391.6969802379608,391.6969802379608,398.06573462486267,3,6.5013747215271,None,,,,,,,,,,,,,,,,,,136,6,2025-02-26_16h01.02.884,comp,2024.2.4,None,2025-02-26 16h01.14.379422 -0500,
9,9,0,critical,whd,20.0,2.1,lower,57.0,133.0,133.0,57.0,78.0,78.0,1,8.358540534973145,None,,,,,0,0,0,0,0,9,9,38,398.0814392566681,,,,,,,,,,,,,,,,,,,,,,,,,,,,,,,,,,,,,,,,,,,,,,,,,,,,,,,,,,,,,,,,,,,,,,,,,,,,,,,,,57.0,133.0,133.0,57.0,78.0,78.0,2.1,2.12,-191,-256,0,-255,164,276,398.06718587875366,398.0672616958618,398.07012939453125,398.0814392566681,398.2323513031006,398.2323513031006,398.2323513031006,398.2323513031006,398.2323513031006,398.2323513031006,398.2323513031006,406.4524898529053,1,8.358540534973145,None,,,,,,,,,,,,,,,,,,136,6,2025-02-26_16h01.02.884,comp,2024.2.4,None,2025-02-26 16h01.14.379422 -0500,
10,10,0,critical,dwh,35.0,1.0,lower,70.0,70.0,57.0,133.0,133.0,57.0,2,5.236142635345459,None,,,,,0,0,0,0,0,10,10,60,406.46845865249634,,,,,,,,,,,,,,,,,,,,,,,,,,,,,,,,,,,,,,,,,,,,,,,,,,,,,,,,,,,,,,,,,,,,,,,,,,,,,,,,,70.0,70.0,57.0,133.0,133.0,57.0,1.0,1.2,-198,15,0,7,191,-11,406.45400309562683,406.45408511161804,406.4571633338928,406.46845865249634,406.60764741897583,406.60764741897583,406.60764741897583,406.60764741897583,406.60764741897583,406.60764741897583,406.60764741897583,411.7108008861542,2,5.236142635345459,None,,,,,,,,,,,,,,,,,,136,6,2025-02-26_16h01.02.884,comp,2024.2.4,None,2025-02-26 16h01.14.379422 -0500,
11,11,0,critical,whd,35.0,2.1,lower,57.0,133.0,133.0,57.0,70.0,70.0,1,13.433297634124756,None,,,,,0,0,0,0,0,11,11,12,411.72678232192993,,,,,,,,,,,,,,,,,,,,,,,,,,,,,,,,,,,,,,,,,,,,,,,,,,,,,,,,,,,,,,,,,,,,,,,,,,,,,,,,,57.0,133.0,133.0,57.0,70.0,70.0,2.1,2.11,-191,288,0,254,160,-251,411.71250677108765,411.71260595321655,411.7158691883087,411.72678232192993,411.8766791820526,411.8766791820526,411.8766791820526,411.8766791820526,411.8766791820526,411.8766791820526,411.8766791820526,425.16530871391296,1,13.433297634124756,None,,,,,,,,,,,,,,,,,,136,6,2025-02-26_16h01.02.884,comp,2024.2.4,None,2025-02-26 16h01.14.379422 -0500,
12,12,0,critical,wdh,35.0,1.0,upper,125.0,200.0,127.0,127.0,200.0,125.0,3,3.5373270511627197,None,,,,,0,0,0,0,0,12,12,73,425.1828968524933,,,,,,,,,,,,,,,,,,,,,,,,,,,,,,,,,,,,,,,,,,,,,,,,,,,,,,,,,,,,,,,,,,,,,,,,,,,,,,,,,125.0,200.0,127.0,127.0,200.0,125.0,1.0,1.3,220,-250,480,-282,702,-278,425.16685605049133,425.1669363975525,425.1697669029236,425.1828968524933,425.3283095359802,425.3283095359802,425.3283095359802,425.3283095359802,425.3283095359802,425.3283095359802,425.3283095359802,428.7284309864044,3,3.5373270511627197,None,,,,,,,,,,,,,,,,,,136,6,2025-02-26_16h01.02.884,comp,2024.2.4,None,2025-02-26 16h01.14.379422 -0500,
13,13,0,filler_random,None,None,None,None,None,None,None,None,None,None,1,2.7983970642089844,None,,,,,0,0,0,0,0,13,13,142,428.7453649044037,,,,,,,,,,,,,,,,,,,,,,,,,,,,,,,,,,,,,,,,,,,,,,,,,,,,,,,,,,,,,,,,,,,,,,,,,,,,,,,,,121.48099848635547,153.0180857580276,109.26151181030497,163.15321799880968,94.8827344028464,68.04593307712639,3.0,3.1,-254,274,0,19,212,-265,428.730384349823,428.7304723262787,428.7337324619293,428.7453649044037,428.89316415786743,428.89316415786743,428.89316415786743,428.89316415786743,428.89316415786743,428.89316415786743,428.89316415786743,431.5606722831726,1,2.7983970642089844,None,,,,,,,,,,,,,,,,,,136,6,2025-02-26_16h01.02.884,comp,2024.2.4,None,2025-02-26 16h01.14.379422 -0500,
14,14,0,filler_square,None,None,None,None,None,None,None,None,None,None,2,2.1994271278381348,None,,,,,0,0,0,0,0,14,14,195,431.5764834880829,,,,,,,,,,,,,,,,,,,,,,,,,,,,,,,,,,,,,,,,,,,,,,,,,,,,,,,,,,,,,,,,,,,,,,,,,,,,,,,,,113.39952437544709,66.19198597836736,116.05290552019449,116.05290552019449,81.18863095475584,81.28195564079677,2.1,2.12,-187,-263,0,-273,195,277,431.5626971721649,431.56277680397034,431.56613969802856,431.5764834880829,431.73099160194397,431.73099160194397,431.73099160194397,431.73099160194397,431.73099160194397,431.73099160194397,431.73099160194397,433.778933763504,2,2.1994271278381348,None,,,,,,,,,,,,,,,,,,136,6,2025-02-26_16h01.02.884,comp,2024.2.4,None,2025-02-26 16h01.14.379422 -0500,
15,15,0,critical,dhw,35.0,3.0,upper,127.0,127.0,200.0,125.0,125.0,200.0,3,2.0762035846710205,None,,,,,0,0,0,0,0,15,15,51,433.7964701652527,,,,,,,,,,,,,,,,,,,,,,,,,,,,,,,,,,,,,,,,,,,,,,,,,,,,,,,,,,,,,,,,,,,,,,,,,,,,,,,,,127.0,127.0,200.0,125.0,125.0,200.0,3.0,3.1,-222,279,0,-11,258,-275,433.78047013282776,433.78054904937744,433.7834918498993,433.7964701652527,433.9543764591217,433.9543764591217,433.9543764591217,433.9543764591217,433.9543764591217,433.9543764591217,433.9543764591217,435.8779170513153,3,2.0762035846710205,None,,,,,,,,,,,,,,,,,,136,6,2025-02-26_16h01.02.884,comp,2024.2.4,None,2025-02-26 16h01.14.379422 -0500,
16,16,0,critical,whd,20.0,2.1,lower,57.0,133.0,133.0,57.0,78.0,78.0,1,6.178208827972412,None,,,,,0,0,0,0,0,16,16,14,435.894234418869,,,,,,,,,,,,,,,,,,,,,,,,,,,,,,,,,,,,,,,,,,,,,,,,,,,,,,,,,,,,,,,,,,,,,,,,,,,,,,,,,57.0,133.0,133.0,57.0,78.0,78.0,2.1,2.12,-191,-276,0,-281,164,258,435.8793909549713,435.8794696331024,435.88262701034546,435.894234418869,436.04607009887695,436.04607009887695,436.04607009887695,436.04607009887695,436.04607009887695,436.04607009887695,436.04607009887695,442.08105969429016,1,6.178208827972412,None,,,,,,,,,,,,,,,,,,136,6,2025-02-26_16h01.02.884,comp,2024.2.4,None,2025-02-26 16h01.14.379422 -0500,
17,17,0,critical,hwd,20.0,4.0,upper,200.0,125.0,125.0,200.0,141.0,141.0,2,3.6785807609558105,None,,,,,0,0,0,0,0,17,17,107,442.09780168533325,,,,,,,,,,,,,,,,,,,,,,,,,,,,,,,,,,,,,,,,,,,,,,,,,,,,,,,,,,,,,,,,,,,,,,,,,,,,,,,,,200.0,125.0,125.0,200.0,141.0,141.0,4.0,4.1,-258,-268,0,16,266,-261,442.0827097892761,442.0828216075897,442.0868887901306,442.09780168533325,442.23759722709656,442.23759722709656,442.23759722709656,442.23759722709656,442.23759722709656,442.23759722709656,442.23759722709656,445.7834174633026,2,3.6785807609558105,None,,,,,,,,,,,,,,,,,,136,6,2025-02-26_16h01.02.884,comp,2024.2.4,None,2025-02-26 16h01.14.379422 -0500,
18,18,0,filler_square,None,None,None,None,None,None,None,None,None,None,1,1.328338384628296,None,,,,,0,0,0,0,0,18,18,189,445.7997508049011,,,,,,,,,,,,,,,,,,,,,,,,,,,,,,,,,,,,,,,,,,,,,,,,,,,,,,,,,,,,,,,,,,,,,,,,,,,,,,,,,129.68004692131677,129.68004692131677,65.98677212939303,68.79566256291797,126.82718708916694,90.66894210173132,3.0,3.1,-195,275,0,-4,176,-272,445.78527426719666,445.7853558063507,445.7881727218628,445.7997508049011,445.94794487953186,445.94794487953186,445.94794487953186,445.94794487953186,445.94794487953186,445.94794487953186,445.94794487953186,447.13143491744995,1,1.328338384628296,None,,,,,,,,,,,,,,,,,,136,6,2025-02-26_16h01.02.884,comp,2024.2.4,None,2025-02-26 16h01.14.379422 -0500,
19,19,0,catch,None,None,None,None,None,None,None,None,None,None,1,1.1763994693756104,None,,,,,0,0,0,0,0,19,19,128,447.1517539024353,,,,,,,,,,,,,,,,,,,,,,,,,,,,,,,,,,,,,,,,,,,,,,,,,,,,,,,,,,,,,,,,,,,,,,,,,,,,,,,,,182,143,61,129,103,87,2.1,2.12,-232,-275,0,-262,204,279,447.13332080841064,447.13340163230896,447.1363971233368,447.1517539024353,447.2982032299042,447.2982032299042,447.2982032299042,447.2982032299042,447.2982032299042,447.2982032299042,447.2982032299042,448.3311309814453,1,1.1763994693756104,None,,,,,,,,,,,,,,,,,,136,6,2025-02-26_16h01.02.884,comp,2024.2.4,None,2025-02-26 16h01.14.379422 -0500,
20,20,0,critical,dwh,35.0,3.0,upper,127.0,127.0,125.0,200.0,200.0,125.0,2,4.052632093429565,None,,,,,0,0,0,0,0,20,20,63,448.3473117351532,,,,,,,,,,,,,,,,,,,,,,,,,,,,,,,,,,,,,,,,,,,,,,,,,,,,,,,,,,,,,,,,,,,,,,,,,,,,,,,,,127.0,127.0,125.0,200.0,200.0,125.0,3.0,3.1,-260,262,0,-12,258,-271,448.33259439468384,448.332670211792,448.33554100990295,448.3473117351532,448.50235176086426,448.50235176086426,448.50235176086426,448.50235176086426,448.50235176086426,448.50235176086426,448.50235176086426,452.4025900363922,2,4.052632093429565,None,,,,,,,,,,,,,,,,,,136,6,2025-02-26_16h01.02.884,comp,2024.2.4,None,2025-02-26 16h01.14.379422 -0500,
21,21,0,critical,hwd,20.0,3.0,upper,200.0,125.0,125.0,200.0,141.0,141.0,2,6.085492849349976,None,,,,,0,0,0,0,0,21,21,105,452.4184033870697,,,,,,,,,,,,,,,,,,,,,,,,,,,,,,,,,,,,,,,,,,,,,,,,,,,,,,,,,,,,,,,,,,,,,,,,,,,,,,,,,200.0,125.0,125.0,200.0,141.0,141.0,3.0,3.1,-258,287,0,-10,266,-265,452.4041736125946,452.40425968170166,452.407648563385,452.4184033870697,452.56790232658386,452.56790232658386,452.56790232658386,452.56790232658386,452.56790232658386,452.56790232658386,452.56790232658386,458.52037358283997,2,6.085492849349976,None,,,,,,,,,,,,,,,,,,136,6,2025-02-26_16h01.02.884,comp,2024.2.4,None,2025-02-26 16h01.14.379422 -0500,
22,22,0,filler_square,None,None,None,None,None,None,None,None,None,None,1,1.264441967010498,None,,,,,0,0,0,0,0,22,22,185,458.5364103317261,,,,,,,,,,,,,,,,,,,,,,,,,,,,,,,,,,,,,,,,,,,,,,,,,,,,,,,,,,,,,,,,,,,,,,,,,,,,,,,,,166.01551634118016,166.01551634118016,84.95576980844669,79.95356795915289,98.68770280037714,165.34061396209694,4.0,4.2,-219,-15,0,-268,219,-13,458.5222713947296,458.52240538597107,458.526171207428,458.5364103317261,458.68417096138,458.68417096138,458.68417096138,458.68417096138,458.68417096138,458.68417096138,458.68417096138,459.8069760799408,1,1.264441967010498,None,,,,,,,,,,,,,,,,,,136,6,2025-02-26_16h01.02.884,comp,2024.2.4,None,2025-02-26 16h01.14.379422 -0500,
23,23,0,critical,wdh,35.0,3.0,lower,57.0,133.0,70.0,70.0,133.0,57.0,1,3.2256293296813965,None,,,,,0,0,0,0,0,23,23,74,459.8230257034302,,,,,,,,,,,,,,,,,,,,,,,,,,,,,,,,,,,,,,,,,,,,,,,,,,,,,,,,,,,,,,,,,,,,,,,,,,,,,,,,,57.0,133.0,70.0,70.0,133.0,57.0,3.0,3.1,-198,275,0,3,160,-274,459.8086476325989,459.8087658882141,459.8122134208679,459.8230257034302,459.9656698703766,459.9656698703766,459.9656698703766,459.9656698703766,459.9656698703766,459.9656698703766,459.9656698703766,463.05678367614746,1,3.2256293296813965,None,,,,,,,,,,,,,,,,,,136,6,2025-02-26_16h01.02.884,comp,2024.2.4,None,2025-02-26 16h01.14.379422 -0500,
24,24,0,critical,wdh,20.0,2.1,upper,125.0,200.0,141.0,141.0,200.0,125.0,1,2.6047120094299316,None,,,,,0,0,0,0,0,24,24,11,463.07572889328003,,,,,,,,,,,,,,,,,,,,,,,,,,,,,,,,,,,,,,,,,,,,,,,,,,,,,,,,,,,,,,,,,,,,,,,,,,,,,,,,,125.0,200.0,141.0,141.0,200.0,125.0,2.1,2.12,-266,-264,0,-288,229,270,463.05854654312134,463.0586290359497,463.0615122318268,463.07572889328003,463.2213761806488,463.2213761806488,463.2213761806488,463.2213761806488,463.2213761806488,463.2213761806488,463.2213761806488,465.68804121017456,1,2.6047120094299316,None,,,,,,,,,,,,,,,,,,136,6,2025-02-26_16h01.02.884,comp,2024.2.4,None,2025-02-26 16h01.14.379422 -0500,
25,25,0,critical,wdh,35.0,1.0,lower,57.0,133.0,70.0,70.0,133.0,57.0,1,4.535595417022705,None,,,,,0,0,0,0,0,25,25,72,465.70477771759033,,,,,,,,,,,,,,,,,,,,,,,,,,,,,,,,,,,,,,,,,,,,,,,,,,,,,,,,,,,,,,,,,,,,,,,,,,,,,,,,,57.0,133.0,70.0,70.0,133.0,57.0,1.0,1.3,282,-281,480,-282,640,-260,465.68972659111023,465.68985295295715,465.69326996803284,465.70477771759033,465.8517978191376,465.8517978191376,465.8517978191376,465.8517978191376,465.8517978191376,465.8517978191376,465.8517978191376,470.24244236946106,1,4.535595417022705,None,,,,,,,,,,,,,,,,,,136,6,2025-02-26_16h01.02.884,comp,2024.2.4,None,2025-02-26 16h01.14.379422 -0500,
26,26,0,filler_random,None,None,None,None,None,None,None,None,None,None,1,1.5752954483032227,None,,,,,0,0,0,0,0,26,26,153,470.2584476470947,,,,,,,,,,,,,,,,,,,,,,,,,,,,,,,,,,,,,,,,,,,,,,,,,,,,,,,,,,,,,,,,,,,,,,,,,,,,,,,,,171.51049964126003,139.59844743281445,161.32342725656156,106.13802005369092,165.1925559852474,90.48464138932897,3.0,3.1,-219,282,0,4,194,-268,470.24447655677795,470.2445604801178,470.2477412223816,470.2584476470947,470.4056787490845,470.4056787490845,470.4056787490845,470.4056787490845,470.4056787490845,470.4056787490845,470.4056787490845,471.8391547203064,1,1.5752954483032227,None,,,,,,,,,,,,,,,,,,136,6,2025-02-26_16h01.02.884,comp,2024.2.4,None,2025-02-26 16h01.14.379422 -0500,
27,27,0,critical,hwd,35.0,2.1,lower,133.0,57.0,57.0,133.0,70.0,70.0,1,4.0551581382751465,None,,,,,0,0,0,0,0,27,27,40,471.8566527366638,,,,,,,,,,,,,,,,,,,,,,,,,,,,,,,,,,,,,,,,,,,,,,,,,,,,,,,,,,,,,,,,,,,,,,,,,,,,,,,,,133.0,57.0,57.0,133.0,70.0,70.0,2.1,2.11,-191,266,0,281,198,-270,471.84063482284546,471.8407142162323,471.843692779541,471.8566527366638,472.0107078552246,472.0107078552246,472.0107078552246,472.0107078552246,472.0107078552246,472.0107078552246,472.0107078552246,475.92401576042175,1,4.0551581382751465,None,,,,,,,,,,,,,,,,,,136,6,2025-02-26_16h01.02.884,comp,2024.2.4,None,2025-02-26 16h01.14.379422 -0500,
28,28,0,critical,dwh,20.0,4.0,lower,78.0,78.0,57.0,133.0,133.0,57.0,2,3.025911808013916,None,,,,,0,0,0,0,0,28,28,70,475.9419295787811,,,,,,,,,,,,,,,,,,,,,,,,,,,,,,,,,,,,,,,,,,,,,,,,,,,,,,,,,,,,,,,,,,,,,,,,,,,,,,,,,78.0,78.0,57.0,133.0,133.0,57.0,4.0,4.2,-202,14,0,-257,191,-5,475.92561316490173,475.9256925582886,475.92894434928894,475.9419295787811,476.09121012687683,476.09121012687683,476.09121012687683,476.09121012687683,476.09121012687683,476.09121012687683,476.09121012687683,478.98102498054504,2,3.025911808013916,None,,,,,,,,,,,,,,,,,,136,6,2025-02-26_16h01.02.884,comp,2024.2.4,None,2025-02-26 16h01.14.379422 -0500,
29,29,0,critical,hwd,35.0,4.0,upper,200.0,125.0,125.0,200.0,127.0,127.0,2,1.6841552257537842,None,,,,,0,0,0,0,0,29,29,101,478.99597454071045,,,,,,,,,,,,,,,,,,,,,,,,,,,,,,,,,,,,,,,,,,,,,,,,,,,,,,,,,,,,,,,,,,,,,,,,,,,,,,,,,200.0,125.0,125.0,200.0,127.0,127.0,4.0,4.2,-258,-7,0,-287,260,-13,478.98257207870483,478.9826498031616,478.98547291755676,478.99597454071045,479.1401569843292,479.1401569843292,479.1401569843292,479.1401569843292,479.1401569843292,479.1401569843292,479.1401569843292,480.69546151161194,2,1.6841552257537842,None,,,,,,,,,,,,,,,,,,136,6,2025-02-26_16h01.02.884,comp,2024.2.4,None,2025-02-26 16h01.14.379422 -0500,
30,30,0,filler_square,None,None,None,None,None,None,None,None,None,None,3,1.0240023136138916,None,,,,,0,0,0,0,0,30,30,172,480.71248626708984,,,,,,,,,,,,,,,,,,,,,,,,,,,,,,,,,,,,,,,,,,,,,,,,,,,,,,,,,,,,,,,,,,,,,,,,,,,,,,,,,95.34162787876653,80.73859416015912,85.4435478294927,80.63438538537395,124.7471721829765,124.7471721829765,2.1,2.12,-177,-257,0,-252,199,286,480.69748854637146,480.69756722450256,480.70137000083923,480.71248626708984,480.85895252227783,480.85895252227783,480.85895252227783,480.85895252227783,480.85895252227783,480.85895252227783,480.85895252227783,481.7421338558197,3,1.0240023136138916,None,,,,,,,,,,,,,,,,,,136,6,2025-02-26_16h01.02.884,comp,2024.2.4,None,2025-02-26 16h01.14.379422 -0500,
31,31,0,filler_random,None,None,None,None,None,None,None,None,None,None,1,1.643413782119751,None,,,,,0,0,0,0,0,31,31,140,481.7584500312805,,,,,,,,,,,,,,,,,,,,,,,,,,,,,,,,,,,,,,,,,,,,,,,,,,,,,,,,,,,,,,,,,,,,,,,,,,,,,,,,,199.32910829492425,165.68596205494055,147.31788152722277,152.20696725237582,127.89572421491789,177.27307188432235,3.0,3.2,-255,-268,0,-3,261,255,481.7438311576843,481.7439079284668,481.7468738555908,481.7584500312805,481.89593172073364,481.89593172073364,481.89593172073364,481.89593172073364,481.89593172073364,481.89593172073364,481.89593172073364,483.40919518470764,1,1.643413782119751,None,,,,,,,,,,,,,,,,,,136,6,2025-02-26_16h01.02.884,comp,2024.2.4,None,2025-02-26 16h01.14.379422 -0500,
32,32,0,critical,dhw,20.0,4.0,lower,78.0,78.0,133.0,57.0,57.0,133.0,3,3.3345401287078857,None,,,,,0,0,0,0,0,32,32,58,483.4253478050232,,,,,,,,,,,,,,,,,,,,,,,,,,,,,,,,,,,,,,,,,,,,,,,,,,,,,,,,,,,,,,,,,,,,,,,,,,,,,,,,,78.0,78.0,133.0,57.0,57.0,133.0,4.0,4.2,-164,-3,0,-287,191,-14,483.4106230735779,483.41070103645325,483.41385102272034,483.4253478050232,483.57694268226624,483.57694268226624,483.57694268226624,483.57694268226624,483.57694268226624,483.57694268226624,483.57694268226624,486.7768750190735,3,3.3345401287078857,None,,,,,,,,,,,,,,,,,,136,6,2025-02-26_16h01.02.884,comp,2024.2.4,None,2025-02-26 16h01.14.379422 -0500,
33,33,0,critical,dhw,20.0,4.0,upper,141.0,141.0,200.0,125.0,125.0,200.0,3,2.0389597415924072,None,,,,,0,0,0,0,0,33,33,59,486.7929468154907,,,,,,,,,,,,,,,,,,,,,,,,,,,,,,,,,,,,,,,,,,,,,,,,,,,,,,,,,,,,,,,,,,,,,,,,,,,,,,,,,141.0,141.0,200.0,125.0,125.0,200.0,4.0,4.1,-229,-257,0,-1,258,-252,486.77840065956116,486.7784788608551,486.7816164493561,486.7929468154907,486.9305331707001,486.9305331707001,486.9305331707001,486.9305331707001,486.9305331707001,486.9305331707001,486.9305331707001,488.84549593925476,3,2.0389597415924072,None,,,,,,,,,,,,,,,,,,136,6,2025-02-26_16h01.02.884,comp,2024.2.4,None,2025-02-26 16h01.14.379422 -0500,
34,34,0,filler_random,None,None,None,None,None,None,None,None,None,None,2,1.786750078201294,None,,,,,0,0,0,0,0,34,34,147,488.86103439331055,,,,,,,,,,,,,,,,,,,,,,,,,,,,,,,,,,,,,,,,,,,,,,,,,,,,,,,,,,,,,,,,,,,,,,,,,,,,,,,,,107.9454112324601,147.4926406819587,169.1034315797823,110.18779533744336,59.86784454902028,184.40237550428049,1.0,1.1,-705,260,-480,252,-237,281,488.84728264808655,488.84736227989197,488.85071897506714,488.86103439331055,489.01044631004333,489.01044631004333,489.01044631004333,489.01044631004333,489.01044631004333,489.01044631004333,489.01044631004333,490.6624517440796,2,1.786750078201294,None,,,,,,,,,,,,,,,,,,136,6,2025-02-26_16h01.02.884,comp,2024.2.4,None,2025-02-26 16h01.14.379422 -0500,
35,35,0,critical,dhw,20.0,2.1,lower,78.0,78.0,133.0,57.0,57.0,133.0,3,5.232385635375977,None,,,,,0,0,0,0,0,35,35,2,490.6796269416809,,,,,,,,,,,,,,,,,,,,,,,,,,,,,,,,,,,,,,,,,,,,,,,,,,,,,,,,,,,,,,,,,,,,,,,,,,,,,,,,,78.0,78.0,133.0,57.0,57.0,133.0,2.1,2.11,-164,269,0,284,191,-250,490.66391491889954,490.6639904975891,490.6670181751251,490.6796269416809,490.8294472694397,490.8294472694397,490.8294472694397,490.8294472694397,490.8294472694397,490.8294472694397,490.8294472694397,495.9296751022339,3,5.232385635375977,None,,,,,,,,,,,,,,,,,,136,6,2025-02-26_16h01.02.884,comp,2024.2.4,None,2025-02-26 16h01.14.379422 -0500,
36,36,0,critical,dhw,20.0,1.0,lower,78.0,78.0,133.0,57.0,57.0,133.0,2,3.958134651184082,None,,,,,0,0,0,0,0,36,36,54,495.94566559791565,,,,,,,,,,,,,,,,,,,,,,,,,,,,,,,,,,,,,,,,,,,,,,,,,,,,,,,,,,,,,,,,,,,,,,,,,,,,,,,,,78.0,78.0,133.0,57.0,57.0,133.0,1.0,1.3,316,-257,480,-252,671,-265,495.9312102794647,495.93128848075867,495.934446811676,495.94566559791565,496.0828101634979,496.0828101634979,496.0828101634979,496.0828101634979,496.0828101634979,496.0828101634979,496.0828101634979,499.9157474040985,2,3.958134651184082,None,,,,,,,,,,,,,,,,,,136,6,2025-02-26_16h01.02.884,comp,2024.2.4,None,2025-02-26 16h01.14.379422 -0500,
37,37,0,critical,dwh,20.0,4.0,upper,141.0,141.0,125.0,200.0,200.0,125.0,2,5.722400188446045,None,,,,,0,0,0,0,0,37,37,71,499.93332028388977,,,,,,,,,,,,,,,,,,,,,,,,,,,,,,,,,,,,,,,,,,,,,,,,,,,,,,,,,,,,,,,,,,,,,,,,,,,,,,,,,141.0,141.0,125.0,200.0,200.0,125.0,4.0,4.1,-266,-288,0,20,258,-276,499.9172625541687,499.9173421859741,499.9202857017517,499.93332028388977,500.0824294090271,500.0824294090271,500.0824294090271,500.0824294090271,500.0824294090271,500.0824294090271,500.0824294090271,505.6715154647827,2,5.722400188446045,None,,,,,,,,,,,,,,,,,,136,6,2025-02-26_16h01.02.884,comp,2024.2.4,None,2025-02-26 16h01.14.379422 -0500,
38,38,0,critical,hwd,20.0,1.0,lower,133.0,57.0,57.0,133.0,78.0,78.0,1,2.814645290374756,None,,,,,0,0,0,0,0,38,38,102,505.68917655944824,,,,,,,,,,,,,,,,,,,,,,,,,,,,,,,,,,,,,,,,,,,,,,,,,,,,,,,,,,,,,,,,,,,,,,,,,,,,,,,,,133.0,57.0,57.0,133.0,78.0,78.0,1.0,1.3,289,-252,480,-263,682,-256,505.6730694770813,505.67318296432495,505.6764466762543,505.68917655944824,505.8333852291107,505.8333852291107,505.8333852291107,505.8333852291107,505.8333852291107,505.8333852291107,505.8333852291107,508.51732063293457,1,2.814645290374756,None,,,,,,,,,,,,,,,,,,136,6,2025-02-26_16h01.02.884,comp,2024.2.4,None,2025-02-26 16h01.14.379422 -0500,
39,39,0,critical,whd,20.0,1.0,upper,125.0,200.0,200.0,125.0,141.0,141.0,2,3.4511072635650635,None,,,,,0,0,0,0,0,39,39,91,508.5412971973419,,,,,,,,,,,,,,,,,,,,,,,,,,,,,,,,,,,,,,,,,,,,,,,,,,,,,,,,,,,,,,,,,,,,,,,,,,,,,,,,,125.0,200.0,200.0,125.0,141.0,141.0,1.0,1.3,222,-258,480,-273,709,-256,508.51878595352173,508.51886439323425,508.52186369895935,508.5412971973419,508.6850929260254,508.6850929260254,508.6850929260254,508.6850929260254,508.6850929260254,508.6850929260254,508.6850929260254,512.0030117034912,2,3.4511072635650635,None,,,,,,,,,,,,,,,,,,136,6,2025-02-26_16h01.02.884,comp,2024.2.4,None,2025-02-26 16h01.14.379422 -0500,
40,40,0,critical,hwd,20.0,2.1,upper,200.0,125.0,125.0,200.0,141.0,141.0,1,3.5185208320617676,None,,,,,0,0,0,0,0,40,40,19,512.0173420906067,,,,,,,,,,,,,,,,,,,,,,,,,,,,,,,,,,,,,,,,,,,,,,,,,,,,,,,,,,,,,,,,,,,,,,,,,,,,,,,,,200.0,125.0,125.0,200.0,141.0,141.0,2.1,2.12,-258,-278,0,-279,266,285,512.0045373439789,512.0046179294586,512.0078325271606,512.0173420906067,512.1606566905975,512.1606566905975,512.1606566905975,512.1606566905975,512.1606566905975,512.1606566905975,512.1606566905975,515.5509588718414,1,3.5185208320617676,None,,,,,,,,,,,,,,,,,,136,6,2025-02-26_16h01.02.884,comp,2024.2.4,None,2025-02-26 16h01.14.379422 -0500,
41,41,0,critical,hdw,35.0,1.0,lower,133.0,57.0,70.0,70.0,57.0,133.0,1,5.752488613128662,None,,,,,0,0,0,0,0,41,41,108,515.5678324699402,,,,,,,,,,,,,,,,,,,,,,,,,,,,,,,,,,,,,,,,,,,,,,,,,,,,,,,,,,,,,,,,,,,,,,,,,,,,,,,,,133.0,57.0,70.0,70.0,57.0,133.0,1.0,1.1,-640,288,-480,266,-282,287,515.5524487495422,515.5525252819061,515.5553407669067,515.5678324699402,515.7222144603729,515.7222144603729,515.7222144603729,515.7222144603729,515.7222144603729,515.7222144603729,515.7222144603729,521.3223252296448,1,5.752488613128662,None,,,,,,,,,,,,,,,,,,136,6,2025-02-26_16h01.02.884,comp,2024.2.4,None,2025-02-26 16h01.14.379422 -0500,
42,42,0,filler_square,None,None,None,None,None,None,None,None,None,None,2,1.4291815757751465,None,,,,,0,0,0,0,0,42,42,182,521.3391671180725,,,,,,,,,,,,,,,,,,,,,,,,,,,,,,,,,,,,,,,,,,,,,,,,,,,,,,,,,,,,,,,,,,,,,,,,,,,,,,,,,125.86061397874334,106.90453630823654,142.291453596535,142.291453596535,103.11379601352064,102.81462516939904,2.1,2.12,-221,-271,0,-282,219,282,521.3243985176086,521.324497461319,521.3278048038483,521.3391671180725,521.49383020401,521.49383020401,521.49383020401,521.49383020401,521.49383020401,521.49383020401,521.49383020401,522.7725281715393,2,1.4291815757751465,None,,,,,,,,,,,,,,,,,,136,6,2025-02-26_16h01.02.884,comp,2024.2.4,None,2025-02-26 16h01.14.379422 -0500,
43,43,0,filler_square,None,None,None,None,None,None,None,None,None,None,2,1.3222558498382568,None,,,,,0,0,0,0,0,43,43,176,522.789547920227,,,,,,,,,,,,,,,,,,,,,,,,,,,,,,,,,,,,,,,,,,,,,,,,,,,,,,,,,,,,,,,,,,,,,,,,,,,,,,,,,66.34346858829538,135.9386705283302,138.49444329432168,138.49444329432168,115.22405627303397,62.515859970622394,2.2,2.22,-233,265,0,-260,197,-251,522.7744932174683,522.7746269702911,522.7779297828674,522.789547920227,522.9389564990997,522.9389564990997,522.9389564990997,522.9389564990997,522.9389564990997,522.9389564990997,522.9389564990997,524.1236989498138,2,1.3222558498382568,None,,,,,,,,,,,,,,,,,,136,6,2025-02-26_16h01.02.884,comp,2024.2.4,None,2025-02-26 16h01.14.379422 -0500,
44,44,0,critical,wdh,35.0,3.0,upper,125.0,200.0,127.0,127.0,200.0,125.0,3,2.252326250076294,None,,,,,0,0,0,0,0,44,44,75,524.1395053863525,,,,,,,,,,,,,,,,,,,,,,,,,,,,,,,,,,,,,,,,,,,,,,,,,,,,,,,,,,,,,,,,,,,,,,,,,,,,,,,,,125.0,200.0,127.0,127.0,200.0,125.0,3.0,3.1,-260,271,0,-5,222,-277,524.1251592636108,524.1252388954163,524.1292612552643,524.1395053863525,524.2898087501526,524.2898087501526,524.2898087501526,524.2898087501526,524.2898087501526,524.2898087501526,524.2898087501526,526.4068191051483,3,2.252326250076294,None,,,,,,,,,,,,,,,,,,136,6,2025-02-26_16h01.02.884,comp,2024.2.4,None,2025-02-26 16h01.14.379422 -0500,
45,45,0,critical,whd,35.0,4.0,upper,125.0,200.0,200.0,125.0,127.0,127.0,1,6.289683103561401,None,,,,,0,0,0,0,0,45,45,89,526.4221920967102,,,,,,,,,,,,,,,,,,,,,,,,,,,,,,,,,,,,,,,,,,,,,,,,,,,,,,,,,,,,,,,,,,,,,,,,,,,,,,,,,125.0,200.0,200.0,125.0,127.0,127.0,4.0,4.1,-258,-288,0,-15,222,-277,526.4084115028381,526.4084899425507,526.4118621349335,526.4221920967102,526.5769181251526,526.5769181251526,526.5769181251526,526.5769181251526,526.5769181251526,526.5769181251526,526.5769181251526,532.7277483940125,1,6.289683103561401,None,,,,,,,,,,,,,,,,,,136,6,2025-02-26_16h01.02.884,comp,2024.2.4,None,2025-02-26 16h01.14.379422 -0500,
46,46,0,filler_square,None,None,None,None,None,None,None,None,None,None,2,11.771488904953003,None,,,,,0,0,0,0,0,46,46,200,532.7482569217682,,,,,,,,,,,,,,,,,,,,,,,,,,,,,,,,,,,,,,,,,,,,,,,,,,,,,,,,,,,,,,,,,,,,,,,,,,,,,,,,,60.94065354097253,57.28536232323371,61.93470760323472,61.93470760323472,58.71171173059949,60.19011958101604,2.1,2.11,-156,289,0,280,157,-268,532.7299437522888,532.7300794124603,532.7331550121307,532.7482569217682,532.8916227817535,532.8916227817535,532.8916227817535,532.8916227817535,532.8916227817535,532.8916227817535,532.8916227817535,544.5296146869659,2,11.771488904953003,None,,,,,,,,,,,,,,,,,,136,6,2025-02-26_16h01.02.884,comp,2024.2.4,None,2025-02-26 16h01.14.379422 -0500,
47,47,0,critical,wdh,20.0,2.1,lower,57.0,133.0,78.0,78.0,133.0,57.0,1,None,None,,,,,0,0,0,0,0,47,47,10,544.5457510948181,,,,,,,,,,,,,,,,,,,,,,,,,,,,,,,,,,,,,,,,,,,,,,,,,,,,,,,,,,,,,,,,,,,,,,,,,,,,,,,,,57.0,133.0,78.0,78.0,133.0,57.0,2.1,2.11,-202,286,0,270,164,-284,544.531247138977,544.5314033031464,544.5348041057587,544.5457510948181,544.696249961853,544.696249961853,544.696249961853,544.696249961853,544.696249961853,544.696249961853,544.696249961853,544.6978101730347,1,None,None,,,,,,,,,,,,,,,,,,136,6,2025-02-26_16h01.02.884,comp,2024.2.4,None,2025-02-26 16h01.14.379422 -0500,
48,48,0,filler_random,None,None,None,None,None,None,None,None,None,None,2,2.6295602321624756,None,,,,,0,0,0,0,0,48,48,161,544.714204788208,,,,,,,,,,,,,,,,,,,,,,,,,,,,,,,,,,,,,,,,,,,,,,,,,,,,,,,,,,,,,,,,,,,,,,,,,,,,,,,,,75.88826452452838,59.101377286003455,190.05221766193387,142.7841326299768,180.8922586903504,81.69838432183377,2.2,2.21,-197,-283,0,285,208,265,544.6998567581177,544.6999363899231,544.7036738395691,544.714204788208,544.8666522502899,544.8666522502899,544.8666522502899,544.8666522502899,544.8666522502899,544.8666522502899,544.8666522502899,547.3468585014343,2,2.6295602321624756,None,,,,,,,,,,,,,,,,,,136,6,2025-02-26_16h01.02.884,comp,2024.2.4,None,2025-02-26 16h01.14.379422 -0500,
49,49,0,critical,whd,20.0,2.1,upper,125.0,200.0,200.0,125.0,141.0,141.0,2,2.7015373706817627,None,,,,,0,0,0,0,0,49,49,15,547.3623893260956,,,,,,,,,,,,,,,,,,,,,,,,,,,,,,,,,,,,,,,,,,,,,,,,,,,,,,,,,,,,,,,,,,,,,,,,,,,,,,,,,125.0,200.0,200.0,125.0,141.0,141.0,2.1,2.11,-258,287,0,251,229,-281,547.3483374118805,547.3484168052673,547.3517165184021,547.3623893260956,547.5132756233215,547.5132756233215,547.5132756233215,547.5132756233215,547.5132756233215,547.5132756233215,547.5132756233215,550.082389831543,2,2.7015373706817627,None,,,,,,,,,,,,,,,,,,136,6,2025-02-26_16h01.02.884,comp,2024.2.4,None,2025-02-26 16h01.14.379422 -0500,
50,50,0,critical,whd,35.0,1.0,lower,57.0,133.0,133.0,57.0,70.0,70.0,2,2.358184576034546,None,,,,,0,0,0,0,0,50,50,84,550.0978322029114,,,,,,,,,,,,,,,,,,,,,,,,,,,,,,,,,,,,,,,,,,,,,,,,,,,,,,,,,,,,,,,,,,,,,,,,,,,,,,,,,57.0,133.0,133.0,57.0,70.0,70.0,1.0,1.2,-191,0,0,-18,160,12,550.0839831829071,550.0840644836426,550.0875248908997,550.0978322029114,550.2482507228851,550.2482507228851,550.2482507228851,550.2482507228851,550.2482507228851,550.2482507228851,550.2482507228851,552.4587779045105,2,2.358184576034546,None,,,,,,,,,,,,,,,,,,136,6,2025-02-26_16h01.02.884,comp,2024.2.4,None,2025-02-26 16h01.14.379422 -0500,
51,51,0,critical,hwd,20.0,2.1,lower,133.0,57.0,57.0,133.0,78.0,78.0,2,4.388277292251587,None,,,,,0,0,0,0,0,51,51,42,552.4754965305328,,,,,,,,,,,,,,,,,,,,,,,,,,,,,,,,,,,,,,,,,,,,,,,,,,,,,,,,,,,,,,,,,,,,,,,,,,,,,,,,,133.0,57.0,57.0,133.0,78.0,78.0,2.1,2.11,-191,257,0,271,202,-274,552.4604222774506,552.4605214595795,552.46377825737,552.4754965305328,552.6229128837585,552.6229128837585,552.6229128837585,552.6229128837585,552.6229128837585,552.6229128837585,552.6229128837585,556.8677258491516,2,4.388277292251587,None,,,,,,,,,,,,,,,,,,136,6,2025-02-26_16h01.02.884,comp,2024.2.4,None,2025-02-26 16h01.14.379422 -0500,
52,52,0,critical,dhw,35.0,1.0,upper,127.0,127.0,200.0,125.0,125.0,200.0,3,3.8917791843414307,None,,,,,0,0,0,0,0,52,52,49,556.8839950561523,,,,,,,,,,,,,,,,,,,,,,,,,,,,,,,,,,,,,,,,,,,,,,,,,,,,,,,,,,,,,,,,,,,,,,,,,,,,,,,,,127.0,127.0,200.0,125.0,125.0,200.0,1.0,1.3,258,-271,480,-253,738,-265,556.8692336082458,556.8693137168884,556.8733427524567,556.8839950561523,557.0343294143677,557.0343294143677,557.0343294143677,557.0343294143677,557.0343294143677,557.0343294143677,557.0343294143677,560.7886838912964,3,3.8917791843414307,None,,,,,,,,,,,,,,,,,,136,6,2025-02-26_16h01.02.884,comp,2024.2.4,None,2025-02-26 16h01.14.379422 -0500,
53,53,0,catch,None,None,None,None,None,None,None,None,None,None,3,1.336568832397461,None,,,,,0,0,0,0,0,53,53,122,560.8071508407593,,,,,,,,,,,,,,,,,,,,,,,,,,,,,,,,,,,,,,,,,,,,,,,,,,,,,,,,,,,,,,,,,,,,,,,,,,,,,,,,,78,112,71,119,177,148,2.2,2.21,-212,-282,0,274,230,256,560.7908871173859,560.7909684181213,560.7938644886017,560.8071508407593,560.9511890411377,560.9511890411377,560.9511890411377,560.9511890411377,560.9511890411377,560.9511890411377,560.9511890411377,562.1546266078949,3,1.336568832397461,None,,,,,,,,,,,,,,,,,,136,6,2025-02-26_16h01.02.884,comp,2024.2.4,None,2025-02-26 16h01.14.379422 -0500,
54,54,0,critical,hdw,35.0,4.0,lower,133.0,57.0,70.0,70.0,57.0,133.0,1,3.2782886028289795,None,,,,,0,0,0,0,0,54,54,112,562.1701385974884,,,,,,,,,,,,,,,,,,,,,,,,,,,,,,,,,,,,,,,,,,,,,,,,,,,,,,,,,,,,,,,,,,,,,,,,,,,,,,,,,133.0,57.0,70.0,70.0,57.0,133.0,4.0,4.1,-160,-273,0,3,198,-277,562.1562433242798,562.1563596725464,562.1594998836517,562.1701385974884,562.3098831176758,562.3098831176758,562.3098831176758,562.3098831176758,562.3098831176758,562.3098831176758,562.3098831176758,565.4525067806244,1,3.2782886028289795,None,,,,,,,,,,,,,,,,,,136,6,2025-02-26_16h01.02.884,comp,2024.2.4,None,2025-02-26 16h01.14.379422 -0500,
55,55,0,critical,dhw,20.0,2.1,lower,78.0,78.0,133.0,57.0,57.0,133.0,3,9.835575580596924,None,,,,,0,0,0,0,0,55,55,26,565.468537569046,,,,,,,,,,,,,,,,,,,,,,,,,,,,,,,,,,,,,,,,,,,,,,,,,,,,,,,,,,,,,,,,,,,,,,,,,,,,,,,,,78.0,78.0,133.0,57.0,57.0,133.0,2.1,2.12,-164,-261,0,-277,191,290,565.4540297985077,565.4541292190552,565.4574317932129,565.468537569046,565.6169085502625,565.6169085502625,565.6169085502625,565.6169085502625,565.6169085502625,565.6169085502625,565.6169085502625,575.3217558860779,3,9.835575580596924,None,,,,,,,,,,,,,,,,,,136,6,2025-02-26_16h01.02.884,comp,2024.2.4,None,2025-02-26 16h01.14.379422 -0500,
56,56,0,critical,hwd,35.0,1.0,lower,133.0,57.0,57.0,133.0,70.0,70.0,1,1.242666244506836,None,,,,,0,0,0,0,0,56,56,96,575.3416094779968,,,,,,,,,,,,,,,,,,,,,,,,,,,,,,,,,,,,,,,,,,,,,,,,,,,,,,,,,,,,,,,,,,,,,,,,,,,,,,,,,133.0,57.0,57.0,133.0,70.0,70.0,1.0,1.1,-671,265,-480,283,-282,264,575.3233759403229,575.3234531879425,575.3267300128937,575.3416094779968,575.4894003868103,575.4894003868103,575.4894003868103,575.4894003868103,575.4894003868103,575.4894003868103,575.4894003868103,576.589293718338,1,1.242666244506836,None,,,,,,,,,,,,,,,,,,136,6,2025-02-26_16h01.02.884,comp,2024.2.4,None,2025-02-26 16h01.14.379422 -0500,
57,57,0,filler_random,None,None,None,None,None,None,None,None,None,None,3,1.476841688156128,None,,,,,0,0,0,0,0,57,57,149,576.603593826294,,,,,,,,,,,,,,,,,,,,,,,,,,,,,,,,,,,,,,,,,,,,,,,,,,,,,,,,,,,,,,,,,,,,,,,,,,,,,,,,,92.05607389176684,110.29871593685462,88.06872546278575,160.8319540653356,135.16870964759073,151.09167322876323,3.0,3.1,-232,284,0,-5,252,-290,576.5909705162048,576.5910522937775,576.594160079956,576.603593826294,576.7556147575378,576.7556147575378,576.7556147575378,576.7556147575378,576.7556147575378,576.7556147575378,576.7556147575378,578.0884411334991,3,1.476841688156128,None,,,,,,,,,,,,,,,,,,136,6,2025-02-26_16h01.02.884,comp,2024.2.4,None,2025-02-26 16h01.14.379422 -0500,
58,58,0,critical,whd,35.0,1.0,upper,125.0,200.0,200.0,125.0,127.0,127.0,1,4.855451583862305,None,,,,,0,0,0,0,0,58,58,85,578.1044461727142,,,,,,,,,,,,,,,,,,,,,,,,,,,,,,,,,,,,,,,,,,,,,,,,,,,,,,,,,,,,,,,,,,,,,,,,,,,,,,,,,125.0,200.0,200.0,125.0,127.0,127.0,1.0,1.2,-258,-10,0,2,222,-13,578.0898878574371,578.0899648666382,578.0928220748901,578.1044461727142,578.2413554191589,578.2413554191589,578.2413554191589,578.2413554191589,578.2413554191589,578.2413554191589,578.2413554191589,582.9758367538452,1,4.855451583862305,None,,,,,,,,,,,,,,,,,,136,6,2025-02-26_16h01.02.884,comp,2024.2.4,None,2025-02-26 16h01.14.379422 -0500,
59,59,0,critical,wdh,20.0,2.1,upper,125.0,200.0,141.0,141.0,200.0,125.0,1,1.646974802017212,None,,,,,0,0,0,0,0,59,59,35,582.9930295944214,,,,,,,,,,,,,,,,,,,,,,,,,,,,,,,,,,,,,,,,,,,,,,,,,,,,,,,,,,,,,,,,,,,,,,,,,,,,,,,,,125.0,200.0,141.0,141.0,200.0,125.0,2.1,2.12,-266,-261,0,-266,229,271,582.9773752689362,582.9774551391602,582.980386018753,582.9930295944214,583.1440062522888,583.1440062522888,583.1440062522888,583.1440062522888,583.1440062522888,583.1440062522888,583.1440062522888,584.6580150127411,1,1.646974802017212,None,,,,,,,,,,,,,,,,,,136,6,2025-02-26_16h01.02.884,comp,2024.2.4,None,2025-02-26 16h01.14.379422 -0500,
60,60,0,filler_random,None,None,None,None,None,None,None,None,None,None,2,1.171860694885254,None,,,,,0,0,0,0,0,60,60,162,584.6765327453613,,,,,,,,,,,,,,,,,,,,,,,,,,,,,,,,,,,,,,,,,,,,,,,,,,,,,,,,,,,,,,,,,,,,,,,,,,,,,,,,,87.22463932880902,185.10997519428756,196.75361563010105,135.06292056460381,100.7270410358599,126.50472842939254,2.2,2.21,-256,-287,0,280,227,257,584.6598410606384,584.6599545478821,584.6634678840637,584.6765327453613,584.8260269165039,584.8260269165039,584.8260269165039,584.8260269165039,584.8260269165039,584.8260269165039,584.8260269165039,585.8591363430023,2,1.171860694885254,None,,,,,,,,,,,,,,,,,,136,6,2025-02-26_16h01.02.884,comp,2024.2.4,None,2025-02-26 16h01.14.379422 -0500,
61,61,0,critical,whd,35.0,3.0,upper,125.0,200.0,200.0,125.0,127.0,127.0,1,3.2456586360931396,None,,,,,0,0,0,0,0,61,61,87,585.8749375343323,,,,,,,,,,,,,,,,,,,,,,,,,,,,,,,,,,,,,,,,,,,,,,,,,,,,,,,,,,,,,,,,,,,,,,,,,,,,,,,,,125.0,200.0,200.0,125.0,127.0,127.0,3.0,3.2,-258,-268,0,-14,222,254,585.86075091362,585.8608310222626,585.8642551898956,585.8749375343323,586.0323233604431,586.0323233604431,586.0323233604431,586.0323233604431,586.0323233604431,586.0323233604431,586.0323233604431,589.1257622241974,1,3.2456586360931396,None,,,,,,,,,,,,,,,,,,136,6,2025-02-26_16h01.02.884,comp,2024.2.4,None,2025-02-26 16h01.14.379422 -0500,
62,62,0,critical,dwh,20.0,1.0,lower,78.0,78.0,57.0,133.0,133.0,57.0,3,2.9220168590545654,None,,,,,0,0,0,0,0,62,62,66,589.1417961120605,,,,,,,,,,,,,,,,,,,,,,,,,,,,,,,,,,,,,,,,,,,,,,,,,,,,,,,,,,,,,,,,,,,,,,,,,,,,,,,,,78.0,78.0,57.0,133.0,133.0,57.0,1.0,1.2,-202,7,0,-19,191,-20,589.1273221969604,589.1274056434631,589.1304447650909,589.1417961120605,589.2920866012573,589.2920866012573,589.2920866012573,589.2920866012573,589.2920866012573,589.2920866012573,589.2920866012573,592.07834815979,3,2.9220168590545654,None,,,,,,,,,,,,,,,,,,136,6,2025-02-26_16h01.02.884,comp,2024.2.4,None,2025-02-26 16h01.14.379422 -0500,
63,63,0,filler_random,None,None,None,None,None,None,None,None,None,None,1,1.2740180492401123,None,,,,,0,0,0,0,0,63,63,136,592.0938355922699,,,,,,,,,,,,,,,,,,,,,,,,,,,,,,,,,,,,,,,,,,,,,,,,,,,,,,,,,,,,,,,,,,,,,,,,,,,,,,,,,179.8937519630639,129.40604536717603,126.14049755704389,80.71217113516248,60.160268758996715,70.82687081437183,3.0,3.2,-201,-264,0,19,172,259,592.0800607204437,592.0801658630371,592.0833377838135,592.0938355922699,592.2432355880737,592.2432355880737,592.2432355880737,592.2432355880737,592.2432355880737,592.2432355880737,592.2432355880737,593.3837921619415,1,1.2740180492401123,None,,,,,,,,,,,,,,,,,,136,6,2025-02-26_16h01.02.884,comp,2024.2.4,None,2025-02-26 16h01.14.379422 -0500,
64,64,0,critical,whd,35.0,3.0,lower,57.0,133.0,133.0,57.0,70.0,70.0,2,3.7510054111480713,None,,,,,0,0,0,0,0,64,64,86,593.4009091854095,,,,,,,,,,,,,,,,,,,,,,,,,,,,,,,,,,,,,,,,,,,,,,,,,,,,,,,,,,,,,,,,,,,,,,,,,,,,,,,,,57.0,133.0,133.0,57.0,70.0,70.0,3.0,3.2,-191,-270,0,7,160,257,593.3853299617767,593.3854115009308,593.3882858753204,593.4009091854095,593.544933795929,593.544933795929,593.544933795929,593.544933795929,593.544933795929,593.544933795929,593.544933795929,597.1624410152435,2,3.7510054111480713,None,,,,,,,,,,,,,,,,,,136,6,2025-02-26_16h01.02.884,comp,2024.2.4,None,2025-02-26 16h01.14.379422 -0500,
65,65,0,catch,None,None,None,None,None,None,None,None,None,None,1,1.2049329280853271,None,,,,,0,0,0,0,0,65,65,126,597.1788911819458,,,,,,,,,,,,,,,,,,,,,,,,,,,,,,,,,,,,,,,,,,,,,,,,,,,,,,,,,,,,,,,,,,,,,,,,,,,,,,,,,155,170,112,78,64,126,1.0,1.1,-700,267,-480,255,-282,259,597.1643266677856,597.1644082069397,597.1673362255096,597.1788911819458,597.3292081356049,597.3292081356049,597.3292081356049,597.3292081356049,597.3292081356049,597.3292081356049,597.3292081356049,598.3935775756836,1,1.2049329280853271,None,,,,,,,,,,,,,,,,,,136,6,2025-02-26_16h01.02.884,comp,2024.2.4,None,2025-02-26 16h01.14.379422 -0500,
66,66,0,critical,dwh,35.0,3.0,lower,70.0,70.0,57.0,133.0,133.0,57.0,3,6.157193660736084,None,,,,,0,0,0,0,0,66,66,62,598.4107141494751,,,,,,,,,,,,,,,,,,,,,,,,,,,,,,,,,,,,,,,,,,,,,,,,,,,,,,,,,,,,,,,,,,,,,,,,,,,,,,,,,70.0,70.0,57.0,133.0,133.0,57.0,3.0,3.2,-198,-259,0,-16,191,280,598.3951573371887,598.395238161087,598.3984971046448,598.4107141494751,598.559722661972,598.559722661972,598.559722661972,598.559722661972,598.559722661972,598.559722661972,598.559722661972,604.5864596366882,3,6.157193660736084,None,,,,,,,,,,,,,,,,,,136,6,2025-02-26_16h01.02.884,comp,2024.2.4,None,2025-02-26 16h01.14.379422 -0500,
67,67,0,catch,None,None,None,None,None,None,None,None,None,None,1,1.2494845390319824,None,,,,,0,0,0,0,0,67,67,121,604.606330871582,,,,,,,,,,,,,,,,,,,,,,,,,,,,,,,,,,,,,,,,,,,,,,,,,,,,,,,,,,,,,,,,,,,,,,,,,,,,,,,,,164,161,98,92,101,89,3.0,3.2,-222,-278,0,-1,186,269,604.5884964466095,604.5885782241821,604.5917875766754,604.606330871582,604.748425245285,604.748425245285,604.748425245285,604.748425245285,604.748425245285,604.748425245285,604.748425245285,605.8687438964844,1,1.2494845390319824,None,,,,,,,,,,,,,,,,,,136,6,2025-02-26_16h01.02.884,comp,2024.2.4,None,2025-02-26 16h01.14.379422 -0500,
68,68,0,catch,None,None,None,None,None,None,None,None,None,None,2,1.03228759765625,None,,,,,0,0,0,0,0,68,68,129,605.8874950408936,,,,,,,,,,,,,,,,,,,,,,,,,,,,,,,,,,,,,,,,,,,,,,,,,,,,,,,,,,,,,,,,,,,,,,,,,,,,,,,,,112,78,162,163,77,113,1.0,1.1,-696,271,-480,287,-246,263,605.8709342479706,605.8710196018219,605.8743615150452,605.8874950408936,606.0339765548706,606.0339765548706,606.0339765548706,606.0339765548706,606.0339765548706,606.0339765548706,606.0339765548706,606.9290897846222,2,1.03228759765625,None,,,,,,,,,,,,,,,,,,136,6,2025-02-26_16h01.02.884,comp,2024.2.4,None,2025-02-26 16h01.14.379422 -0500,
69,69,0,filler_random,None,None,None,None,None,None,None,None,None,None,2,1.2372825145721436,None,,,,,0,0,0,0,0,69,69,146,606.9466302394867,,,,,,,,,,,,,,,,,,,,,,,,,,,,,,,,,,,,,,,,,,,,,,,,,,,,,,,,,,,,,,,,,,,,,,,,,,,,,,,,,96.55016471535983,132.14465971841855,168.39328534578254,116.50417152848061,75.82310938180281,61.0237992206269,1.0,1.1,-700,282,-480,254,-295,287,606.9308307170868,606.9309115409851,606.93376994133,606.9466302394867,607.0833165645599,607.0833165645599,607.0833165645599,607.0833165645599,607.0833165645599,607.0833165645599,607.0833165645599,608.1993706226349,2,1.2372825145721436,None,,,,,,,,,,,,,,,,,,136,6,2025-02-26_16h01.02.884,comp,2024.2.4,None,2025-02-26 16h01.14.379422 -0500,
70,70,0,filler_square,None,None,None,None,None,None,None,None,None,None,2,1.1841559410095215,None,,,,,0,0,0,0,0,70,70,170,608.2157137393951,,,,,,,,,,,,,,,,,,,,,,,,,,,,,,,,,,,,,,,,,,,,,,,,,,,,,,,,,,,,,,,,,,,,,,,,,,,,,,,,,106.22346834034164,178.53676456740584,198.82389822714697,198.82389822714697,98.22184596751391,170.3999627875062,1.0,1.3,195,-266,480,-275,761,-275,608.2012436389923,608.201322555542,608.2053215503693,608.2157137393951,608.3659400939941,608.3659400939941,608.3659400939941,608.3659400939941,608.3659400939941,608.3659400939941,608.3659400939941,609.4162955284119,2,1.1841559410095215,None,,,,,,,,,,,,,,,,,,136,6,2025-02-26_16h01.02.884,comp,2024.2.4,None,2025-02-26 16h01.14.379422 -0500,
71,71,0,filler_square,None,None,None,None,None,None,None,None,None,None,1,1.079667329788208,None,,,,,0,0,0,0,0,71,71,202,609.4320538043976,,,,,,,,,,,,,,,,,,,,,,,,,,,,,,,,,,,,,,,,,,,,,,,,,,,,,,,,,,,,,,,,,,,,,,,,,,,,,,,,,118.72609436174687,118.72609436174687,73.2426711231889,83.50767309213214,57.28724147199173,110.92017250823224,3.0,3.2,-197,-274,0,15,193,283,609.4182720184326,609.4183909893036,609.421706199646,609.4320538043976,609.5833191871643,609.5833191871643,609.5833191871643,609.5833191871643,609.5833191871643,609.5833191871643,609.5833191871643,610.5211734771729,1,1.079667329788208,None,,,,,,,,,,,,,,,,,,136,6,2025-02-26_16h01.02.884,comp,2024.2.4,None,2025-02-26 16h01.14.379422 -0500,
72,72,0,filler_random,None,None,None,None,None,None,None,None,None,None,1,1.175243616104126,None,,,,,0,0,0,0,0,72,72,150,610.5372171401978,,,,,,,,,,,,,,,,,,,,,,,,,,,,,,,,,,,,,,,,,,,,,,,,,,,,,,,,,,,,,,,,,,,,,,,,,,,,,,,,,178.195131221667,179.4422771803268,174.4806227335631,114.4055090414601,118.49906780683595,64.19896459051245,4.0,4.1,-243,-274,0,2,185,-271,610.5228092670441,610.5228881835938,610.525740146637,610.5372171401978,610.681492805481,610.681492805481,610.681492805481,610.681492805481,610.681492805481,610.681492805481,610.681492805481,611.7232856750488,1,1.175243616104126,None,,,,,,,,,,,,,,,,,,136,6,2025-02-26_16h01.02.884,comp,2024.2.4,None,2025-02-26 16h01.14.379422 -0500,
73,73,0,critical,dwh,20.0,1.0,upper,141.0,141.0,125.0,200.0,200.0,125.0,3,2.2565386295318604,None,,,,,0,0,0,0,0,73,73,67,611.7433655261993,,,,,,,,,,,,,,,,,,,,,,,,,,,,,,,,,,,,,,,,,,,,,,,,,,,,,,,,,,,,,,,,,,,,,,,,,,,,,,,,,141.0,141.0,125.0,200.0,200.0,125.0,1.0,1.1,-746,263,-480,258,-222,260,611.7248129844666,611.7248933315277,611.727789402008,611.7433655261993,611.8845028877258,611.8845028877258,611.8845028877258,611.8845028877258,611.8845028877258,611.8845028877258,611.8845028877258,614.0049183368683,3,2.2565386295318604,None,,,,,,,,,,,,,,,,,,136,6,2025-02-26_16h01.02.884,comp,2024.2.4,None,2025-02-26 16h01.14.379422 -0500,
74,74,0,critical,dwh,35.0,1.0,upper,127.0,127.0,125.0,200.0,200.0,125.0,3,2.2763113975524902,None,,,,,0,0,0,0,0,74,74,61,614.0200388431549,,,,,,,,,,,,,,,,,,,,,,,,,,,,,,,,,,,,,,,,,,,,,,,,,,,,,,,,,,,,,,,,,,,,,,,,,,,,,,,,,127.0,127.0,125.0,200.0,200.0,125.0,1.0,1.2,-260,20,0,-19,258,13,614.006411075592,614.0064904689789,614.009348154068,614.0200388431549,614.1678218841553,614.1678218841553,614.1678218841553,614.1678218841553,614.1678218841553,614.1678218841553,614.1678218841553,616.301881313324,3,2.2763113975524902,None,,,,,,,,,,,,,,,,,,136,6,2025-02-26_16h01.02.884,comp,2024.2.4,None,2025-02-26 16h01.14.379422 -0500,
75,75,0,critical,dwh,20.0,3.0,upper,141.0,141.0,125.0,200.0,200.0,125.0,3,2.233612060546875,None,,,,,0,0,0,0,0,75,75,69,616.3185658454895,,,,,,,,,,,,,,,,,,,,,,,,,,,,,,,,,,,,,,,,,,,,,,,,,,,,,,,,,,,,,,,,,,,,,,,,,,,,,,,,,141.0,141.0,125.0,200.0,200.0,125.0,3.0,3.1,-266,262,0,3,258,-270,616.3034572601318,616.3035361766815,616.3069596290588,616.3185658454895,616.4672014713287,616.4672014713287,616.4672014713287,616.4672014713287,616.4672014713287,616.4672014713287,616.4672014713287,618.5693397521973,3,2.233612060546875,None,,,,,,,,,,,,,,,,,,136,6,2025-02-26_16h01.02.884,comp,2024.2.4,None,2025-02-26 16h01.14.379422 -0500,
76,76,0,filler_square,None,None,None,None,None,None,None,None,None,None,2,0.8863828182220459,None,,,,,0,0,0,0,0,76,76,175,618.5855669975281,,,,,,,,,,,,,,,,,,,,,,,,,,,,,,,,,,,,,,,,,,,,,,,,,,,,,,,,,,,,,,,,,,,,,,,,,,,,,,,,,133.71779923853154,192.4257594901683,195.8634810624223,195.8634810624223,170.0912865221515,108.34877829496172,2.1,2.11,-290,250,0,288,248,-283,618.5711781978607,618.5712623596191,618.5752990245819,618.5855669975281,618.734188079834,618.734188079834,618.734188079834,618.734188079834,618.734188079834,618.734188079834,618.734188079834,619.486072063446,2,0.8863828182220459,None,,,,,,,,,,,,,,,,,,136,6,2025-02-26_16h01.02.884,comp,2024.2.4,None,2025-02-26 16h01.14.379422 -0500,
77,77,0,filler_random,None,None,None,None,None,None,None,None,None,None,3,0.9545035362243652,None,,,,,0,0,0,0,0,77,77,152,619.5013754367828,,,,,,,,,,,,,,,,,,,,,,,,,,,,,,,,,,,,,,,,,,,,,,,,,,,,,,,,,,,,,,,,,,,,,,,,,,,,,,,,,133.47665775933189,87.07991886985292,159.98564410771988,60.55768855533548,121.20965949676803,127.66250825439825,2.1,2.11,-170,288,0,281,190,-263,619.4877045154572,619.4877831935883,619.4911048412323,619.5013754367828,619.6519496440887,619.6519496440887,619.6519496440887,619.6519496440887,619.6519496440887,619.6519496440887,619.6519496440887,620.469651222229,3,0.9545035362243652,None,,,,,,,,,,,,,,,,,,136,6,2025-02-26_16h01.02.884,comp,2024.2.4,None,2025-02-26 16h01.14.379422 -0500,
78,78,0,critical,dwh,20.0,3.0,lower,78.0,78.0,57.0,133.0,133.0,57.0,3,3.5224874019622803,None,,,,,0,0,0,0,0,78,78,68,620.4852800369263,,,,,,,,,,,,,,,,,,,,,,,,,,,,,,,,,,,,,,,,,,,,,,,,,,,,,,,,,,,,,,,,,,,,,,,,,,,,,,,,,78.0,78.0,57.0,133.0,133.0,57.0,3.0,3.2,-202,-251,0,-19,191,290,620.4712452888489,620.4713478088379,620.4747858047485,620.4852800369263,620.6355788707733,620.6355788707733,620.6355788707733,620.6355788707733,620.6355788707733,620.6355788707733,620.6355788707733,624.0212292671204,3,3.5224874019622803,None,,,,,,,,,,,,,,,,,,136,6,2025-02-26_16h01.02.884,comp,2024.2.4,None,2025-02-26 16h01.14.379422 -0500,
79,79,0,critical,hdw,20.0,3.0,upper,200.0,125.0,141.0,141.0,125.0,200.0,3,1.1953232288360596,None,,,,,0,0,0,0,0,79,79,117,624.037052154541,,,,,,,,,,,,,,,,,,,,,,,,,,,,,,,,,,,,,,,,,,,,,,,,,,,,,,,,,,,,,,,,,,,,,,,,,,,,,,,,,200.0,125.0,141.0,141.0,125.0,200.0,3.0,3.1,-229,286,0,4,266,-262,624.022753238678,624.0228321552277,624.0268127918243,624.037052154541,624.1900327205658,624.1900327205658,624.1900327205658,624.1900327205658,624.1900327205658,624.1900327205658,624.1900327205658,625.2412216663361,3,1.1953232288360596,None,,,,,,,,,,,,,,,,,,136,6,2025-02-26_16h01.02.884,comp,2024.2.4,None,2025-02-26 16h01.14.379422 -0500,
80,80,0,critical,dhw,35.0,1.0,lower,70.0,70.0,133.0,57.0,57.0,133.0,2,2.287841320037842,None,,,,,0,0,0,0,0,80,80,48,625.2565860748291,,,,,,,,,,,,,,,,,,,,,,,,,,,,,,,,,,,,,,,,,,,,,,,,,,,,,,,,,,,,,,,,,,,,,,,,,,,,,,,,,70.0,70.0,133.0,57.0,57.0,133.0,1.0,1.2,-160,-13,0,1,191,17,625.2427506446838,625.2428321838379,625.2459213733673,625.2565860748291,625.4047236442566,625.4047236442566,625.4047236442566,625.4047236442566,625.4047236442566,625.4047236442566,625.4047236442566,627.5523340702057,2,2.287841320037842,None,,,,,,,,,,,,,,,,,,136,6,2025-02-26_16h01.02.884,comp,2024.2.4,None,2025-02-26 16h01.14.379422 -0500,
81,81,0,critical,whd,35.0,2.1,upper,125.0,200.0,200.0,125.0,127.0,127.0,2,1.9578666687011719,None,,,,,0,0,0,0,0,81,81,13,627.5698091983795,,,,,,,,,,,,,,,,,,,,,,,,,,,,,,,,,,,,,,,,,,,,,,,,,,,,,,,,,,,,,,,,,,,,,,,,,,,,,,,,,125.0,200.0,200.0,125.0,127.0,127.0,2.1,2.11,-258,282,0,280,222,-251,627.5538136959076,627.5538928508759,627.5566864013672,627.5698091983795,627.706969499588,627.706969499588,627.706969499588,627.706969499588,627.706969499588,627.706969499588,627.706969499588,629.5385324954987,2,1.9578666687011719,None,,,,,,,,,,,,,,,,,,136,6,2025-02-26_16h01.02.884,comp,2024.2.4,None,2025-02-26 16h01.14.379422 -0500,
82,82,0,critical,dhw,35.0,3.0,lower,70.0,70.0,133.0,57.0,57.0,133.0,2,4.1471192836761475,None,,,,,0,0,0,0,0,82,82,50,629.5566201210022,,,,,,,,,,,,,,,,,,,,,,,,,,,,,,,,,,,,,,,,,,,,,,,,,,,,,,,,,,,,,,,,,,,,,,,,,,,,,,,,,70.0,70.0,133.0,57.0,57.0,133.0,3.0,3.2,-160,-264,0,-5,191,289,629.540100812912,629.5402140617371,629.5435221195221,629.5566201210022,629.7068214416504,629.7068214416504,629.7068214416504,629.7068214416504,629.7068214416504,629.7068214416504,629.7068214416504,633.7173902988434,2,4.1471192836761475,None,,,,,,,,,,,,,,,,,,136,6,2025-02-26_16h01.02.884,comp,2024.2.4,None,2025-02-26 16h01.14.379422 -0500,
83,83,0,critical,dhw,35.0,2.1,upper,127.0,127.0,200.0,125.0,125.0,200.0,2,1.9694902896881104,None,,,,,0,0,0,0,0,83,83,1,633.7347664833069,,,,,,,,,,,,,,,,,,,,,,,,,,,,,,,,,,,,,,,,,,,,,,,,,,,,,,,,,,,,,,,,,,,,,,,,,,,,,,,,,127.0,127.0,200.0,125.0,125.0,200.0,2.1,2.12,-222,-252,0,-266,258,267,633.7188045978546,633.7188844680786,633.7217257022858,633.7347664833069,633.8740196228027,633.8740196228027,633.8740196228027,633.8740196228027,633.8740196228027,633.8740196228027,633.8740196228027,635.71044921875,2,1.9694902896881104,None,,,,,,,,,,,,,,,,,,136,6,2025-02-26_16h01.02.884,comp,2024.2.4,None,2025-02-26 16h01.14.379422 -0500,
84,84,0,critical,wdh,20.0,4.0,lower,57.0,133.0,78.0,78.0,133.0,57.0,3,3.121591806411743,None,,,,,0,0,0,0,0,84,84,82,635.7262854576111,,,,,,,,,,,,,,,,,,,,,,,,,,,,,,,,,,,,,,,,,,,,,,,,,,,,,,,,,,,,,,,,,,,,,,,,,,,,,,,,,57.0,133.0,78.0,78.0,133.0,57.0,4.0,4.1,-202,-283,0,15,164,-278,635.7120196819305,635.7121012210846,635.71555519104,635.7262854576111,635.8749465942383,635.8749465942383,635.8749465942383,635.8749465942383,635.8749465942383,635.8749465942383,635.8749465942383,638.8628776073456,3,3.121591806411743,None,,,,,,,,,,,,,,,,,,136,6,2025-02-26_16h01.02.884,comp,2024.2.4,None,2025-02-26 16h01.14.379422 -0500,
85,85,0,filler_square,None,None,None,None,None,None,None,None,None,None,2,1.2272305488586426,None,,,,,0,0,0,0,0,85,85,179,638.8792293071747,,,,,,,,,,,,,,,,,,,,,,,,,,,,,,,,,,,,,,,,,,,,,,,,,,,,,,,,,,,,,,,,,,,,,,,,,,,,,,,,,62.02901428279459,67.49194208044219,105.11904143156436,105.11904143156436,101.82689982847069,61.978276740859066,3.0,3.2,-182,-250,0,-1,180,270,638.8648498058319,638.8649303913116,638.8680539131165,638.8792293071747,639.0265834331512,639.0265834331512,639.0265834331512,639.0265834331512,639.0265834331512,639.0265834331512,639.0265834331512,640.1099262237549,2,1.2272305488586426,None,,,,,,,,,,,,,,,,,,136,6,2025-02-26_16h01.02.884,comp,2024.2.4,None,2025-02-26 16h01.14.379422 -0500,
86,86,0,filler_random,None,None,None,None,None,None,None,None,None,None,2,3.433500051498413,None,,,,,0,0,0,0,0,86,86,158,640.1263060569763,,,,,,,,,,,,,,,,,,,,,,,,,,,,,,,,,,,,,,,,,,,,,,,,,,,,,,,,,,,,,,,,,,,,,,,,,,,,,,,,,155.83365420676296,166.03737777916052,153.49853894989724,184.69567452137275,108.28079638212463,143.60179149290462,2.1,2.11,-271,284,0,256,260,-279,640.1117675304413,640.1118900775909,640.1153845787048,640.1263060569763,640.2809388637543,640.2809388637543,640.2809388637543,640.2809388637543,640.2809388637543,640.2809388637543,640.2809388637543,643.5769505500793,2,3.433500051498413,None,,,,,,,,,,,,,,,,,,136,6,2025-02-26_16h01.02.884,comp,2024.2.4,None,2025-02-26 16h01.14.379422 -0500,
87,87,0,critical,hwd,35.0,4.0,lower,133.0,57.0,57.0,133.0,70.0,70.0,1,1.8131403923034668,None,,,,,0,0,0,0,0,87,87,100,643.59459400177,,,,,,,,,,,,,,,,,,,,,,,,,,,,,,,,,,,,,,,,,,,,,,,,,,,,,,,,,,,,,,,,,,,,,,,,,,,,,,,,,133.0,57.0,57.0,133.0,70.0,70.0,4.0,4.1,-191,-259,0,5,198,-269,643.5785768032074,643.5786547660828,643.581889629364,643.59459400177,643.7440073490143,643.7440073490143,643.7440073490143,643.7440073490143,643.7440073490143,643.7440073490143,643.7440073490143,645.4215037822723,1,1.8131403923034668,None,,,,,,,,,,,,,,,,,,136,6,2025-02-26_16h01.02.884,comp,2024.2.4,None,2025-02-26 16h01.14.379422 -0500,
88,88,0,critical,dhw,20.0,3.0,lower,78.0,78.0,133.0,57.0,57.0,133.0,2,2.9000003337860107,None,,,,,0,0,0,0,0,88,88,56,645.4377267360687,,,,,,,,,,,,,,,,,,,,,,,,,,,,,,,,,,,,,,,,,,,,,,,,,,,,,,,,,,,,,,,,,,,,,,,,,,,,,,,,,78.0,78.0,133.0,57.0,57.0,133.0,3.0,3.1,-164,288,0,-12,191,-290,645.423017501831,645.4230959415436,645.4263875484467,645.4377267360687,645.5781950950623,645.5781950950623,645.5781950950623,645.5781950950623,645.5781950950623,645.5781950950623,645.5781950950623,648.343621969223,2,2.9000003337860107,None,,,,,,,,,,,,,,,,,,136,6,2025-02-26_16h01.02.884,comp,2024.2.4,None,2025-02-26 16h01.14.379422 -0500,
89,89,0,critical,wdh,35.0,2.1,upper,125.0,200.0,127.0,127.0,200.0,125.0,1,1.5769760608673096,None,,,,,0,0,0,0,0,89,89,9,648.3587951660156,,,,,,,,,,,,,,,,,,,,,,,,,,,,,,,,,,,,,,,,,,,,,,,,,,,,,,,,,,,,,,,,,,,,,,,,,,,,,,,,,125.0,200.0,127.0,127.0,200.0,125.0,2.1,2.12,-260,-290,0,-251,222,277,648.3451073169708,648.3452081680298,648.3479642868042,648.3587951660156,648.4994103908539,648.4994103908539,648.4994103908539,648.4994103908539,648.4994103908539,648.4994103908539,648.4994103908539,649.9481451511383,1,1.5769760608673096,None,,,,,,,,,,,,,,,,,,136,6,2025-02-26_16h01.02.884,comp,2024.2.4,None,2025-02-26 16h01.14.379422 -0500,
90,90,0,catch,None,None,None,None,None,None,None,None,None,None,2,0.939232349395752,None,,,,,0,0,0,0,0,90,90,123,649.9648616313934,,,,,,,,,,,,,,,,,,,,,,,,,,,,,,,,,,,,,,,,,,,,,,,,,,,,,,,,,,,,,,,,,,,,,,,,,,,,,,,,,117,73,135,190,123,67,2.2,2.22,-228,270,0,-254,224,-287,649.9504828453064,649.9505727291107,649.9540526866913,649.9648616313934,650.1159634590149,650.1159634590149,650.1159634590149,650.1159634590149,650.1159634590149,650.1159634590149,650.1159634590149,650.9151883125305,2,0.939232349395752,None,,,,,,,,,,,,,,,,,,136,6,2025-02-26_16h01.02.884,comp,2024.2.4,None,2025-02-26 16h01.14.379422 -0500,
91,91,0,critical,dhw,20.0,3.0,upper,141.0,141.0,200.0,125.0,125.0,200.0,3,2.522941827774048,None,,,,,0,0,0,0,0,91,91,57,650.9335117340088,,,,,,,,,,,,,,,,,,,,,,,,,,,,,,,,,,,,,,,,,,,,,,,,,,,,,,,,,,,,,,,,,,,,,,,,,,,,,,,,,141.0,141.0,200.0,125.0,125.0,200.0,3.0,3.1,-229,252,0,2,258,-282,650.9169487953186,650.9170863628387,650.9202890396118,650.9335117340088,651.079874753952,651.079874753952,651.079874753952,651.079874753952,651.079874753952,651.079874753952,651.079874753952,653.4636018276215,3,2.522941827774048,None,,,,,,,,,,,,,,,,,,136,6,2025-02-26_16h01.02.884,comp,2024.2.4,None,2025-02-26 16h01.14.379422 -0500,
92,92,0,filler_random,None,None,None,None,None,None,None,None,None,None,1,1.9277379512786865,None,,,,,0,0,0,0,0,92,92,130,653.4805316925049,,,,,,,,,,,,,,,,,,,,,,,,,,,,,,,,,,,,,,,,,,,,,,,,,,,,,,,,,,,,,,,,,,,,,,,,,,,,,,,,,158.1926647198982,125.51245819650848,106.28585191085375,140.6851162354842,61.072665143613435,133.96881983353018,2.2,2.21,-229,-268,0,280,233,271,653.4654116630554,653.4655497074127,653.4690198898315,653.4805316925049,653.6300282478333,653.6300282478333,653.6300282478333,653.6300282478333,653.6300282478333,653.6300282478333,653.6300282478333,655.4165825843811,1,1.9277379512786865,None,,,,,,,,,,,,,,,,,,136,6,2025-02-26_16h01.02.884,comp,2024.2.4,None,2025-02-26 16h01.14.379422 -0500,
93,93,0,critical,hdw,35.0,3.0,lower,133.0,57.0,70.0,70.0,57.0,133.0,3,3.7756590843200684,None,,,,,0,0,0,0,0,93,93,110,655.4328742027283,,,,,,,,,,,,,,,,,,,,,,,,,,,,,,,,,,,,,,,,,,,,,,,,,,,,,,,,,,,,,,,,,,,,,,,,,,,,,,,,,133.0,57.0,70.0,70.0,57.0,133.0,3.0,3.1,-160,261,0,-10,198,-258,655.4182078838348,655.4182913303375,655.421658039093,655.4328742027283,655.5832443237305,655.5832443237305,655.5832443237305,655.5832443237305,655.5832443237305,655.5832443237305,655.5832443237305,659.2142956256866,3,3.7756590843200684,None,,,,,,,,,,,,,,,,,,136,6,2025-02-26_16h01.02.884,comp,2024.2.4,None,2025-02-26 16h01.14.379422 -0500,
94,94,0,critical,wdh,35.0,2.1,lower,57.0,133.0,70.0,70.0,133.0,57.0,3,1.9997270107269287,None,,,,,0,0,0,0,0,94,94,8,659.2407774925232,,,,,,,,,,,,,,,,,,,,,,,,,,,,,,,,,,,,,,,,,,,,,,,,,,,,,,,,,,,,,,,,,,,,,,,,,,,,,,,,,57.0,133.0,70.0,70.0,133.0,57.0,2.1,2.11,-198,251,0,273,160,-269,659.2157440185547,659.2158226966858,659.2189226150513,659.2407774925232,659.3821597099304,659.3821597099304,659.3821597099304,659.3821597099304,659.3821597099304,659.3821597099304,659.3821597099304,661.2427551746368,3,1.9997270107269287,None,,,,,,,,,,,,,,,,,,136,6,2025-02-26_16h01.02.884,comp,2024.2.4,None,2025-02-26 16h01.14.379422 -0500,
95,95,0,filler_random,None,None,None,None,None,None,None,None,None,None,3,1.8445682525634766,None,,,,,0,0,0,0,0,95,95,134,661.259185552597,,,,,,,,,,,,,,,,,,,,,,,,,,,,,,,,,,,,,,,,,,,,,,,,,,,,,,,,,,,,,,,,,,,,,,,,,,,,,,,,,197.7641438373196,91.026587953896,84.78408837204168,166.96838668573218,156.02673212530277,176.08540602378582,2.2,2.22,-225,261,0,-273,268,-262,661.244622707367,661.244708776474,661.2476694583893,661.259185552597,661.4042930603027,661.4042930603027,661.4042930603027,661.4042930603027,661.4042930603027,661.4042930603027,661.4042930603027,663.1192336082458,3,1.8445682525634766,None,,,,,,,,,,,,,,,,,,136,6,2025-02-26_16h01.02.884,comp,2024.2.4,None,2025-02-26 16h01.14.379422 -0500,
96,96,0,critical,hdw,20.0,2.1,lower,133.0,57.0,78.0,78.0,57.0,133.0,1,1.6780495643615723,None,,,,,0,0,0,0,0,96,96,46,663.1377422809601,,,,,,,,,,,,,,,,,,,,,,,,,,,,,,,,,,,,,,,,,,,,,,,,,,,,,,,,,,,,,,,,,,,,,,,,,,,,,,,,,133.0,57.0,78.0,78.0,57.0,133.0,2.1,2.12,-164,-273,0,-279,202,251,663.1208384037018,663.1209199428558,663.1243796348572,663.1377422809601,663.2830865383148,663.2830865383148,663.2830865383148,663.2830865383148,663.2830865383148,663.2830865383148,663.2830865383148,664.8330519199371,1,1.6780495643615723,None,,,,,,,,,,,,,,,,,,136,6,2025-02-26_16h01.02.884,comp,2024.2.4,None,2025-02-26 16h01.14.379422 -0500,
97,97,0,critical,hwd,20.0,2.1,upper,200.0,125.0,125.0,200.0,141.0,141.0,1,1.5183451175689697,None,,,,,0,0,0,0,0,97,97,43,664.849357843399,,,,,,,,,,,,,,,,,,,,,,,,,,,,,,,,,,,,,,,,,,,,,,,,,,,,,,,,,,,,,,,,,,,,,,,,,,,,,,,,,200.0,125.0,125.0,200.0,141.0,141.0,2.1,2.12,-258,-258,0,-279,266,279,664.8346815109253,664.8347623348236,664.8381328582764,664.849357843399,664.9966566562653,664.9966566562653,664.9966566562653,664.9966566562653,664.9966566562653,664.9966566562653,664.9966566562653,666.3842468261719,1,1.5183451175689697,None,,,,,,,,,,,,,,,,,,136,6,2025-02-26_16h01.02.884,comp,2024.2.4,None,2025-02-26 16h01.14.379422 -0500,
98,98,0,critical,hdw,35.0,2.1,upper,200.0,125.0,127.0,127.0,125.0,200.0,3,1.5798988342285156,None,,,,,0,0,0,0,0,98,98,45,666.3980436325073,,,,,,,,,,,,,,,,,,,,,,,,,,,,,,,,,,,,,,,,,,,,,,,,,,,,,,,,,,,,,,,,,,,,,,,,,,,,,,,,,200.0,125.0,127.0,127.0,125.0,200.0,2.1,2.12,-222,-253,0,-267,260,266,666.3858041763306,666.3858835697174,666.3890242576599,666.3980436325073,666.5546405315399,666.5546405315399,666.5546405315399,666.5546405315399,666.5546405315399,666.5546405315399,666.5546405315399,667.9830641746521,3,1.5798988342285156,None,,,,,,,,,,,,,,,,,,136,6,2025-02-26_16h01.02.884,comp,2024.2.4,None,2025-02-26 16h01.14.379422 -0500,
99,99,0,critical,whd,20.0,3.0,lower,57.0,133.0,133.0,57.0,78.0,78.0,2,1.7532024383544922,None,,,,,0,0,0,0,0,99,99,92,667.9985015392303,,,,,,,,,,,,,,,,,,,,,,,,,,,,,,,,,,,,,,,,,,,,,,,,,,,,,,,,,,,,,,,,,,,,,,,,,,,,,,,,,57.0,133.0,133.0,57.0,78.0,78.0,3.0,3.2,-191,-262,0,-19,164,266,667.9845423698425,667.9846203327179,667.9874329566956,667.9985015392303,668.1502044200897,668.1502044200897,668.1502044200897,668.1502044200897,668.1502044200897,668.1502044200897,668.1502044200897,669.768541097641,2,1.7532024383544922,None,,,,,,,,,,,,,,,,,,136,6,2025-02-26_16h01.02.884,comp,2024.2.4,None,2025-02-26 16h01.14.379422 -0500,
100,100,0,critical,wdh,35.0,4.0,lower,57.0,133.0,70.0,70.0,133.0,57.0,3,3.1119298934936523,None,,,,,0,0,0,0,0,100,100,76,669.7844157218933,,,,,,,,,,,,,,,,,,,,,,,,,,,,,,,,,,,,,,,,,,,,,,,,,,,,,,,,,,,,,,,,,,,,,,,,,,,,,,,,,57.0,133.0,70.0,70.0,133.0,57.0,4.0,4.1,-198,-278,0,-3,160,-285,669.7700345516205,669.7701337337494,669.7740585803986,669.7844157218933,669.9366581439972,669.9366581439972,669.9366581439972,669.9366581439972,669.9366581439972,669.9366581439972,669.9366581439972,672.901036977768,3,3.1119298934936523,None,,,,,,,,,,,,,,,,,,136,6,2025-02-26_16h01.02.884,comp,2024.2.4,None,2025-02-26 16h01.14.379422 -0500,
101,101,0,critical,wdh,35.0,2.1,lower,57.0,133.0,70.0,70.0,133.0,57.0,3,1.5226047039031982,None,,,,,0,0,0,0,0,101,101,32,672.9172151088715,,,,,,,,,,,,,,,,,,,,,,,,,,,,,,,,,,,,,,,,,,,,,,,,,,,,,,,,,,,,,,,,,,,,,,,,,,,,,,,,,57.0,133.0,70.0,70.0,133.0,57.0,2.1,2.12,-198,-266,0,-254,160,262,672.9025495052338,672.9026281833649,672.9054253101349,672.9172151088715,673.0535404682159,673.0535404682159,673.0535404682159,673.0535404682159,673.0535404682159,673.0535404682159,673.0535404682159,674.4525225162506,3,1.5226047039031982,None,,,,,,,,,,,,,,,,,,136,6,2025-02-26_16h01.02.884,comp,2024.2.4,None,2025-02-26 16h01.14.379422 -0500,
102,102,0,filler_square,None,None,None,None,None,None,None,None,None,None,1,1.2275733947753906,None,,,,,0,0,0,0,0,102,102,181,674.4686522483826,,,,,,,,,,,,,,,,,,,,,,,,,,,,,,,,,,,,,,,,,,,,,,,,,,,,,,,,,,,,,,,,,,,,,,,,,,,,,,,,,123.74647092205572,123.74647092205572,98.61621046588928,98.10012168520606,62.986206760198655,93.70446545485588,3.0,3.1,-207,286,0,-12,192,-281,674.4543397426605,674.4544198513031,674.457412481308,674.4686522483826,674.609185218811,674.609185218811,674.609185218811,674.609185218811,674.609185218811,674.609185218811,674.609185218811,675.7049038410187,1,1.2275733947753906,None,,,,,,,,,,,,,,,,,,136,6,2025-02-26_16h01.02.884,comp,2024.2.4,None,2025-02-26 16h01.14.379422 -0500,
103,103,0,critical,dhw,20.0,1.0,upper,141.0,141.0,200.0,125.0,125.0,200.0,3,4.974931001663208,None,,,,,0,0,0,0,0,103,103,55,675.7208528518677,,,,,,,,,,,,,,,,,,,,,,,,,,,,,,,,,,,,,,,,,,,,,,,,,,,,,,,,,,,,,,,,,,,,,,,,,,,,,,,,,141.0,141.0,200.0,125.0,125.0,200.0,1.0,1.3,251,-280,480,-289,738,-285,675.7064180374146,675.7065002918243,675.7102925777435,675.7208528518677,675.868433713913,675.868433713913,675.868433713913,675.868433713913,675.868433713913,675.868433713913,675.868433713913,680.7065107822418,3,4.974931001663208,None,,,,,,,,,,,,,,,,,,136,6,2025-02-26_16h01.02.884,comp,2024.2.4,None,2025-02-26 16h01.14.379422 -0500,
104,104,0,critical,dwh,35.0,2.1,upper,127.0,127.0,125.0,200.0,200.0,125.0,3,1.770669937133789,None,,,,,0,0,0,0,0,104,104,29,680.7257056236267,,,,,,,,,,,,,,,,,,,,,,,,,,,,,,,,,,,,,,,,,,,,,,,,,,,,,,,,,,,,,,,,,,,,,,,,,,,,,,,,,127.0,127.0,125.0,200.0,200.0,125.0,2.1,2.11,-260,261,0,250,258,-265,680.7080826759338,680.7082414627075,680.7115168571472,680.7257056236267,680.8741910457611,680.8741910457611,680.8741910457611,680.8741910457611,680.8741910457611,680.8741910457611,680.8741910457611,682.5063858032227,3,1.770669937133789,None,,,,,,,,,,,,,,,,,,136,6,2025-02-26_16h01.02.884,comp,2024.2.4,None,2025-02-26 16h01.14.379422 -0500,
105,105,0,filler_square,None,None,None,None,None,None,None,None,None,None,2,1.0220563411712646,None,,,,,0,0,0,0,0,105,105,206,682.5219669342041,,,,,,,,,,,,,,,,,,,,,,,,,,,,,,,,,,,,,,,,,,,,,,,,,,,,,,,,,,,,,,,,,,,,,,,,,,,,,,,,,86.19893629835732,109.97647213053693,159.13979006746266,159.13979006746266,128.803850878152,144.84510132462526,1.0,1.1,-711,289,-480,267,-232,273,682.5082492828369,682.5083293914795,682.5114450454712,682.5219669342041,682.6728188991547,682.6728188991547,682.6728188991547,682.6728188991547,682.6728188991547,682.6728188991547,682.6728188991547,683.5573592185974,2,1.0220563411712646,None,,,,,,,,,,,,,,,,,,136,6,2025-02-26_16h01.02.884,comp,2024.2.4,None,2025-02-26 16h01.14.379422 -0500,
106,106,0,critical,hwd,35.0,3.0,upper,200.0,125.0,125.0,200.0,127.0,127.0,2,3.0341670513153076,None,,,,,0,0,0,0,0,106,106,99,683.5735256671906,,,,,,,,,,,,,,,,,,,,,,,,,,,,,,,,,,,,,,,,,,,,,,,,,,,,,,,,,,,,,,,,,,,,,,,,,,,,,,,,,200.0,125.0,125.0,200.0,127.0,127.0,3.0,3.1,-258,281,0,5,260,-282,683.5588536262512,683.5589323043823,683.5623953342438,683.5735256671906,683.7228841781616,683.7228841781616,683.7228841781616,683.7228841781616,683.7228841781616,683.7228841781616,683.7228841781616,686.6229586601257,2,3.0341670513153076,None,,,,,,,,,,,,,,,,,,136,6,2025-02-26_16h01.02.884,comp,2024.2.4,None,2025-02-26 16h01.14.379422 -0500,
107,107,0,filler_square,None,None,None,None,None,None,None,None,None,None,3,3.5366299152374268,None,,,,,0,0,0,0,0,107,107,178,686.6391997337341,,,,,,,,,,,,,,,,,,,,,,,,,,,,,,,,,,,,,,,,,,,,,,,,,,,,,,,,,,,,,,,,,,,,,,,,,,,,,,,,,58.91768696741057,61.027941187205485,68.62067356742102,66.92608205382274,71.53721520647116,71.53721520647116,3.0,3.2,-160,-281,0,-18,165,282,686.6248013973236,686.6248791217804,686.6279191970825,686.6391997337341,686.7943444252014,686.7943444252014,686.7943444252014,686.7943444252014,686.7943444252014,686.7943444252014,686.7943444252014,690.1886112689972,3,3.5366299152374268,None,,,,,,,,,,,,,,,,,,136,6,2025-02-26_16h01.02.884,comp,2024.2.4,None,2025-02-26 16h01.14.379422 -0500,
108,108,0,critical,whd,20.0,4.0,upper,125.0,200.0,200.0,125.0,141.0,141.0,1,1.4109234809875488,None,,,,,0,0,0,0,0,108,108,95,690.2048535346985,,,,,,,,,,,,,,,,,,,,,,,,,,,,,,,,,,,,,,,,,,,,,,,,,,,,,,,,,,,,,,,,,,,,,,,,,,,,,,,,,125.0,200.0,200.0,125.0,141.0,141.0,4.0,4.1,-258,-268,0,-4,229,-278,690.1900629997253,690.1901705265045,690.1929743289948,690.2048535346985,690.3461766242981,690.3461766242981,690.3461766242981,690.3461766242981,690.3461766242981,690.3461766242981,690.3461766242981,691.6330876350403,1,1.4109234809875488,None,,,,,,,,,,,,,,,,,,136,6,2025-02-26_16h01.02.884,comp,2024.2.4,None,2025-02-26 16h01.14.379422 -0500,
109,109,0,catch,None,None,None,None,None,None,None,None,None,None,3,1.1811928749084473,None,,,,,0,0,0,0,0,109,109,127,691.6506695747375,,,,,,,,,,,,,,,,,,,,,,,,,,,,,,,,,,,,,,,,,,,,,,,,,,,,,,,,,,,,,,,,,,,,,,,,,,,,,,,,,131,59,59,131,152,173,2.1,2.11,-191,255,0,259,248,-260,691.6350629329681,691.6351699829102,691.6379928588867,691.6506695747375,691.7888689041138,691.7888689041138,691.7888689041138,691.7888689041138,691.7888689041138,691.7888689041138,691.7888689041138,692.8404257297516,3,1.1811928749084473,None,,,,,,,,,,,,,,,,,,136,6,2025-02-26_16h01.02.884,comp,2024.2.4,None,2025-02-26 16h01.14.379422 -0500,
110,110,0,filler_square,None,None,None,None,None,None,None,None,None,None,3,0.9432363510131836,None,,,,,0,0,0,0,0,110,110,171,692.857072353363,,,,,,,,,,,,,,,,,,,,,,,,,,,,,,,,,,,,,,,,,,,,,,,,,,,,,,,,,,,,,,,,,,,,,,,,,,,,,,,,,91.99306720133869,107.24455607162218,120.55637560165164,63.730802833868644,134.80776704565136,134.80776704565136,2.2,2.22,-181,253,0,-255,195,-287,692.8423268795013,692.8424162864685,692.8455858230591,692.857072353363,693.0079369544983,693.0079369544983,693.0079369544983,693.0079369544983,693.0079369544983,693.0079369544983,693.0079369544983,693.810352563858,3,0.9432363510131836,None,,,,,,,,,,,,,,,,,,136,6,2025-02-26_16h01.02.884,comp,2024.2.4,None,2025-02-26 16h01.14.379422 -0500,
111,111,0,critical,wdh,35.0,4.0,upper,125.0,200.0,127.0,127.0,200.0,125.0,1,1.7845590114593506,None,,,,,0,0,0,0,0,111,111,77,693.8311829566956,,,,,,,,,,,,,,,,,,,,,,,,,,,,,,,,,,,,,,,,,,,,,,,,,,,,,,,,,,,,,,,,,,,,,,,,,,,,,,,,,125.0,200.0,127.0,127.0,200.0,125.0,4.0,4.1,-260,-287,0,-15,222,-283,693.8119909763336,693.8120696544647,693.8153405189514,693.8311829566956,693.979339838028,693.979339838028,693.979339838028,693.979339838028,693.979339838028,693.979339838028,693.979339838028,695.6255638599396,1,1.7845590114593506,None,,,,,,,,,,,,,,,,,,136,6,2025-02-26_16h01.02.884,comp,2024.2.4,None,2025-02-26 16h01.14.379422 -0500,
112,112,0,filler_square,None,None,None,None,None,None,None,None,None,None,2,1.2363009452819824,None,,,,,0,0,0,0,0,112,112,187,695.6435596942902,,,,,,,,,,,,,,,,,,,,,,,,,,,,,,,,,,,,,,,,,,,,,,,,,,,,,,,,,,,,,,,,,,,,,,,,,,,,,,,,,107.27100781392888,141.43503594261637,159.3826109369873,159.3826109369873,82.80452691219394,147.6389188321179,2.2,2.21,-246,-280,0,272,250,273,695.6273808479309,695.6274638175964,695.6304752826691,695.6435596942902,695.7917256355286,695.7917256355286,695.7917256355286,695.7917256355286,695.7917256355286,695.7917256355286,695.7917256355286,696.8996465206146,2,1.2363009452819824,None,,,,,,,,,,,,,,,,,,136,6,2025-02-26_16h01.02.884,comp,2024.2.4,None,2025-02-26 16h01.14.379422 -0500,
113,113,0,critical,dhw,35.0,2.1,upper,127.0,127.0,200.0,125.0,125.0,200.0,3,1.5472559928894043,None,,,,,0,0,0,0,0,113,113,25,696.9172925949097,,,,,,,,,,,,,,,,,,,,,,,,,,,,,,,,,,,,,,,,,,,,,,,,,,,,,,,,,,,,,,,,,,,,,,,,,,,,,,,,,127.0,127.0,200.0,125.0,125.0,200.0,2.1,2.12,-222,-285,0,-283,258,268,696.9012291431427,696.901308298111,696.904214143753,696.9172925949097,697.0606958866119,697.0606958866119,697.0606958866119,697.0606958866119,697.0606958866119,697.0606958866119,697.0606958866119,698.4735424518585,3,1.5472559928894043,None,,,,,,,,,,,,,,,,,,136,6,2025-02-26_16h01.02.884,comp,2024.2.4,None,2025-02-26 16h01.14.379422 -0500,
114,114,0,filler_square,None,None,None,None,None,None,None,None,None,None,2,1.9564919471740723,None,,,,,0,0,0,0,0,114,114,192,698.4918065071106,,,,,,,,,,,,,,,,,,,,,,,,,,,,,,,,,,,,,,,,,,,,,,,,,,,,,,,,,,,,,,,,,,,,,,,,,,,,,,,,,102.63766719468674,73.69090355889655,107.33622433116736,107.33622433116736,82.16541183192501,94.27568909574535,2.1,2.11,-187,267,0,273,197,-264,698.4754807949066,698.4755997657776,698.4787607192993,698.4918065071106,698.6324336528778,698.6324336528778,698.6324336528778,698.6324336528778,698.6324336528778,698.6324336528778,698.6324336528778,700.4504652023315,2,1.9564919471740723,None,,,,,,,,,,,,,,,,,,136,6,2025-02-26_16h01.02.884,comp,2024.2.4,None,2025-02-26 16h01.14.379422 -0500,
115,115,0,filler_random,None,None,None,None,None,None,None,None,None,None,3,0.9376537799835205,None,,,,,0,0,0,0,0,115,115,143,700.4707102775574,,,,,,,,,,,,,,,,,,,,,,,,,,,,,,,,,,,,,,,,,,,,,,,,,,,,,,,,,,,,,,,,,,,,,,,,,,,,,,,,,111.30564650161222,118.16970397076395,114.60339147731719,62.91225320874091,154.87686350067204,174.13222336009886,2.1,2.12,-187,-287,0,-272,215,272,700.452062368393,700.452180147171,700.4549872875214,700.4707102775574,700.6115734577179,700.6115734577179,700.6115734577179,700.6115734577179,700.6115734577179,700.6115734577179,700.6115734577179,701.4125838279724,3,0.9376537799835205,None,,,,,,,,,,,,,,,,,,136,6,2025-02-26_16h01.02.884,comp,2024.2.4,None,2025-02-26 16h01.14.379422 -0500,
116,116,0,critical,hwd,20.0,4.0,lower,133.0,57.0,57.0,133.0,78.0,78.0,2,1.4501008987426758,None,,,,,0,0,0,0,0,116,116,106,701.4296669960022,,,,,,,,,,,,,,,,,,,,,,,,,,,,,,,,,,,,,,,,,,,,,,,,,,,,,,,,,,,,,,,,,,,,,,,,,,,,,,,,,133.0,57.0,57.0,133.0,78.0,78.0,4.0,4.1,-191,-277,0,-15,202,-260,701.4140899181366,701.4141912460327,701.418134689331,701.4296669960022,701.5771715641022,701.5771715641022,701.5771715641022,701.5771715641022,701.5771715641022,701.5771715641022,701.5771715641022,702.8952512741089,2,1.4501008987426758,None,,,,,,,,,,,,,,,,,,136,6,2025-02-26_16h01.02.884,comp,2024.2.4,None,2025-02-26 16h01.14.379422 -0500,
117,117,0,filler_random,None,None,None,None,None,None,None,None,None,None,1,1.0092012882232666,None,,,,,0,0,0,0,0,117,117,133,702.9106187820435,,,,,,,,,,,,,,,,,,,,,,,,,,,,,,,,,,,,,,,,,,,,,,,,,,,,,,,,,,,,,,,,,,,,,,,,,,,,,,,,,111.85323999012432,159.36273116738107,114.72698904329032,94.78993224754291,74.04289513684162,79.0976753918284,2.1,2.12,-223,-274,0,-262,183,285,702.8969821929932,702.8970625400543,702.9004032611847,702.9106187820435,703.0604455471039,703.0604455471039,703.0604455471039,703.0604455471039,703.0604455471039,703.0604455471039,703.0604455471039,703.9345779418945,1,1.0092012882232666,None,,,,,,,,,,,,,,,,,,136,6,2025-02-26_16h01.02.884,comp,2024.2.4,None,2025-02-26 16h01.14.379422 -0500,
118,118,0,critical,wdh,20.0,1.0,lower,57.0,133.0,78.0,78.0,133.0,57.0,3,2.1013505458831787,None,,,,,0,0,0,0,0,118,118,78,703.9544990062714,,,,,,,,,,,,,,,,,,,,,,,,,,,,,,,,,,,,,,,,,,,,,,,,,,,,,,,,,,,,,,,,,,,,,,,,,,,,,,,,,57.0,133.0,78.0,78.0,133.0,57.0,1.0,1.3,278,-253,480,-270,644,-279,703.9360275268555,703.9361069202423,703.9388952255249,703.9544990062714,704.0969929695129,704.0969929695129,704.0969929695129,704.0969929695129,704.0969929695129,704.0969929695129,704.0969929695129,706.0649526119232,3,2.1013505458831787,None,,,,,,,,,,,,,,,,,,136,6,2025-02-26_16h01.02.884,comp,2024.2.4,None,2025-02-26 16h01.14.379422 -0500,
119,119,0,filler_square,None,None,None,None,None,None,None,None,None,None,3,1.088829755783081,None,,,,,0,0,0,0,0,119,119,184,706.0808398723602,,,,,,,,,,,,,,,,,,,,,,,,,,,,,,,,,,,,,,,,,,,,,,,,,,,,,,,,,,,,,,,,,,,,,,,,,,,,,,,,,97.8978876993229,70.15885529926807,150.41686279465267,172.93475036334107,179.35346696153889,179.35346696153889,3.0,3.1,-218,269,0,15,272,-264,706.0667655467987,706.0668485164642,706.0699894428253,706.0808398723602,706.2306160926819,706.2306160926819,706.2306160926819,706.2306160926819,706.2306160926819,706.2306160926819,706.2306160926819,707.18608045578,3,1.088829755783081,None,,,,,,,,,,,,,,,,,,136,6,2025-02-26_16h01.02.884,comp,2024.2.4,None,2025-02-26 16h01.14.379422 -0500,
120,120,0,filler_square,None,None,None,None,None,None,None,None,None,None,1,0.9499621391296387,None,,,,,0,0,0,0,0,120,120,199,707.2019202709198,,,,,,,,,,,,,,,,,,,,,,,,,,,,,,,,,,,,,,,,,,,,,,,,,,,,,,,,,,,,,,,,,,,,,,,,,,,,,,,,,108.69412337560584,108.69412337560584,100.20522526588658,76.87473997269876,82.81238082477401,79.66290550558202,3.0,3.2,-189,-282,0,4,174,273,707.1880490779877,707.1882216930389,707.1915059089661,707.2019202709198,707.3492496013641,707.3492496013641,707.3492496013641,707.3492496013641,707.3492496013641,707.3492496013641,707.3492496013641,708.1646778583527,1,0.9499621391296387,None,,,,,,,,,,,,,,,,,,136,6,2025-02-26_16h01.02.884,comp,2024.2.4,None,2025-02-26 16h01.14.379422 -0500,
121,121,0,critical,whd,35.0,4.0,lower,57.0,133.0,133.0,57.0,70.0,70.0,2,1.9400620460510254,None,,,,,0,0,0,0,0,121,121,88,708.1808035373688,,,,,,,,,,,,,,,,,,,,,,,,,,,,,,,,,,,,,,,,,,,,,,,,,,,,,,,,,,,,,,,,,,,,,,,,,,,,,,,,,57.0,133.0,133.0,57.0,70.0,70.0,4.0,4.2,-191,-9,0,-251,160,-6,708.1662423610687,708.1663482189178,708.1699426174164,708.1808035373688,708.3399784564972,708.3399784564972,708.3399784564972,708.3399784564972,708.3399784564972,708.3399784564972,708.3399784564972,710.1319828033447,2,1.9400620460510254,None,,,,,,,,,,,,,,,,,,136,6,2025-02-26_16h01.02.884,comp,2024.2.4,None,2025-02-26 16h01.14.379422 -0500,
122,122,0,filler_random,None,None,None,None,None,None,None,None,None,None,3,4.012751340866089,None,,,,,0,0,0,0,0,122,122,137,710.1477656364441,,,,,,,,,,,,,,,,,,,,,,,,,,,,,,,,,,,,,,,,,,,,,,,,,,,,,,,,,,,,,,,,,,,,,,,,,,,,,,,,,95.92985692674714,137.8545742244172,97.7890837507839,124.29804597049831,78.68755631571273,176.305427595945,2.2,2.21,-227,-273,0,290,246,262,710.1337351799011,710.1338148117065,710.1370720863342,710.1477656364441,710.3020732402802,710.3020732402802,710.3020732402802,710.3020732402802,710.3020732402802,710.3020732402802,710.3020732402802,714.167530298233,3,4.012751340866089,None,,,,,,,,,,,,,,,,,,136,6,2025-02-26_16h01.02.884,comp,2024.2.4,None,2025-02-26 16h01.14.379422 -0500,
123,123,0,critical,dhw,35.0,2.1,lower,70.0,70.0,133.0,57.0,57.0,133.0,2,12.713248491287231,None,,,,,0,0,0,0,0,123,123,0,714.1831059455872,,,,,,,,,,,,,,,,,,,,,,,,,,,,,,,,,,,,,,,,,,,,,,,,,,,,,,,,,,,,,,,,,,,,,,,,,,,,,,,,,70.0,70.0,133.0,57.0,57.0,133.0,2.1,2.12,-160,-283,0,-283,191,255,714.1689867973328,714.1690640449524,714.1723096370697,714.1831059455872,714.3323397636414,714.3323397636414,714.3323397636414,714.3323397636414,714.3323397636414,714.3323397636414,714.3323397636414,726.90194439888,2,12.713248491287231,None,,,,,,,,,,,,,,,,,,136,6,2025-02-26_16h01.02.884,comp,2024.2.4,None,2025-02-26 16h01.14.379422 -0500,
124,124,0,filler_random,None,None,None,None,None,None,None,None,None,None,1,0.8748373985290527,None,,,,,0,0,0,0,0,124,124,144,726.9178035259247,,,,,,,,,,,,,,,,,,,,,,,,,,,,,,,,,,,,,,,,,,,,,,,,,,,,,,,,,,,,,,,,,,,,,,,,,,,,,,,,,175.18146060321436,152.434188555683,78.61803479847018,177.17419934504585,138.30732893877774,100.43097925946046,2.2,2.21,-261,-290,0,270,235,258,726.9035942554474,726.9036750793457,726.9067511558533,726.9178035259247,727.0720233917236,727.0720233917236,727.0720233917236,727.0720233917236,727.0720233917236,727.0720233917236,727.0720233917236,727.8034679889679,1,0.8748373985290527,None,,,,,,,,,,,,,,,,,,136,6,2025-02-26_16h01.02.884,comp,2024.2.4,None,2025-02-26 16h01.14.379422 -0500,
125,125,0,critical,wdh,20.0,4.0,upper,125.0,200.0,141.0,141.0,200.0,125.0,1,1.692608118057251,None,,,,,0,0,0,0,0,125,125,83,727.8192071914673,,,,,,,,,,,,,,,,,,,,,,,,,,,,,,,,,,,,,,,,,,,,,,,,,,,,,,,,,,,,,,,,,,,,,,,,,,,,,,,,,125.0,200.0,141.0,141.0,200.0,125.0,4.0,4.1,-266,-288,0,-11,229,-263,727.8051035404205,727.8052306175232,727.8086268901825,727.8192071914673,727.9698460102081,727.9698460102081,727.9698460102081,727.9698460102081,727.9698460102081,727.9698460102081,727.9698460102081,729.5242459774017,1,1.692608118057251,None,,,,,,,,,,,,,,,,,,136,6,2025-02-26_16h01.02.884,comp,2024.2.4,None,2025-02-26 16h01.14.379422 -0500,
126,126,0,filler_random,None,None,None,None,None,None,None,None,None,None,3,1.745952844619751,None,,,,,0,0,0,0,0,126,126,168,729.5424311161041,,,,,,,,,,,,,,,,,,,,,,,,,,,,,,,,,,,,,,,,,,,,,,,,,,,,,,,,,,,,,,,,,,,,,,,,,,,,,,,,,97.59369094095138,136.5592193432763,59.842331386298554,114.80167795681723,98.08485819437477,166.14554012465942,2.1,2.11,-222,285,0,278,236,-250,729.5263521671295,729.5264353752136,729.5293517112732,729.5424311161041,729.6887097358704,729.6887097358704,729.6887097358704,729.6887097358704,729.6887097358704,729.6887097358704,729.6887097358704,731.2907717227936,3,1.745952844619751,None,,,,,,,,,,,,,,,,,,136,6,2025-02-26_16h01.02.884,comp,2024.2.4,None,2025-02-26 16h01.14.379422 -0500,
127,127,0,critical,hdw,20.0,1.0,upper,200.0,125.0,141.0,141.0,125.0,200.0,1,8.012745141983032,None,,,,,0,0,0,0,0,127,127,115,731.3073694705963,,,,,,,,,,,,,,,,,,,,,,,,,,,,,,,,,,,,,,,,,,,,,,,,,,,,,,,,,,,,,,,,,,,,,,,,,,,,,,,,,200.0,125.0,141.0,141.0,125.0,200.0,1.0,1.2,-229,-16,0,-15,266,-18,731.2927961349487,731.2928819656372,731.295835018158,731.3073694705963,731.4554686546326,731.4554686546326,731.4554686546326,731.4554686546326,731.4554686546326,731.4554686546326,731.4554686546326,739.3254463672638,1,8.012745141983032,None,,,,,,,,,,,,,,,,,,136,6,2025-02-26_16h01.02.884,comp,2024.2.4,None,2025-02-26 16h01.14.379422 -0500,
128,128,0,filler_random,None,None,None,None,None,None,None,None,None,None,2,1.1070961952209473,None,,,,,0,0,0,0,0,128,128,166,739.340826511383,,,,,,,,,,,,,,,,,,,,,,,,,,,,,,,,,,,,,,,,,,,,,,,,,,,,,,,,,,,,,,,,,,,,,,,,,,,,,,,,,100.42001644524123,136.21700661193017,114.54812832816532,144.26974278620548,95.20226703790604,86.07684676289932,2.1,2.11,-236,290,0,259,211,-266,739.3273334503174,739.3274168968201,739.3286547660828,739.340826511383,739.4786157608032,739.4786157608032,739.4786157608032,739.4786157608032,739.4786157608032,739.4786157608032,739.4786157608032,740.4609487056732,2,1.1070961952209473,None,,,,,,,,,,,,,,,,,,136,6,2025-02-26_16h01.02.884,comp,2024.2.4,None,2025-02-26 16h01.14.379422 -0500,
129,129,0,filler_square,None,None,None,None,None,None,None,None,None,None,1,3.0506064891815186,None,,,,,0,0,0,0,0,129,129,204,740.4771859645844,,,,,,,,,,,,,,,,,,,,,,,,,,,,,,,,,,,,,,,,,,,,,,,,,,,,,,,,,,,,,,,,,,,,,,,,,,,,,,,,,61.0160490391906,61.0160490391906,59.63364520916137,57.40815729477991,58.828564300687404,59.94941272920324,2.1,2.12,-155,-287,0,-271,155,254,740.4628767967224,740.4629576206207,740.4658463001251,740.4771859645844,740.6240003108978,740.6240003108978,740.6240003108978,740.6240003108978,740.6240003108978,740.6240003108978,740.6240003108978,743.5409529209137,1,3.0506064891815186,None,,,,,,,,,,,,,,,,,,136,6,2025-02-26_16h01.02.884,comp,2024.2.4,None,2025-02-26 16h01.14.379422 -0500,
130,130,0,critical,whd,20.0,4.0,lower,57.0,133.0,133.0,57.0,78.0,78.0,2,4.203730344772339,None,,,,,0,0,0,0,0,130,130,94,743.55615401268,,,,,,,,,,,,,,,,,,,,,,,,,,,,,,,,,,,,,,,,,,,,,,,,,,,,,,,,,,,,,,,,,,,,,,,,,,,,,,,,,57.0,133.0,133.0,57.0,78.0,78.0,4.0,4.2,-191,-7,0,-283,164,2,743.5424680709839,743.5425453186035,743.545622587204,743.55615401268,743.7082757949829,743.7082757949829,743.7082757949829,743.7082757949829,743.7082757949829,743.7082757949829,743.7082757949829,747.7739508152008,2,4.203730344772339,None,,,,,,,,,,,,,,,,,,136,6,2025-02-26_16h01.02.884,comp,2024.2.4,None,2025-02-26 16h01.14.379422 -0500,
131,131,0,filler_square,None,None,None,None,None,None,None,None,None,None,1,0.9223575592041016,None,,,,,0,0,0,0,0,131,131,207,747.7893371582031,,,,,,,,,,,,,,,,,,,,,,,,,,,,,,,,,,,,,,,,,,,,,,,,,,,,,,,,,,,,,,,,,,,,,,,,,,,,,,,,,192.6795528558783,192.6795528558783,166.30570185505002,142.3446814674935,70.48571017866799,114.77343196151261,1.0,1.1,-744,256,-480,280,-255,287,747.775972366333,747.7760577201843,747.7793457508087,747.7893371582031,747.9282126426697,747.9282126426697,747.9282126426697,747.9282126426697,747.9282126426697,747.9282126426697,747.9282126426697,748.7257561683655,1,0.9223575592041016,None,,,,,,,,,,,,,,,,,,136,6,2025-02-26_16h01.02.884,comp,2024.2.4,None,2025-02-26 16h01.14.379422 -0500,
132,132,0,catch,None,None,None,None,None,None,None,None,None,None,3,0.8785243034362793,None,,,,,0,0,0,0,0,132,132,125,748.7456829547882,,,,,,,,,,,,,,,,,,,,,,,,,,,,,,,,,,,,,,,,,,,,,,,,,,,,,,,,,,,,,,,,,,,,,,,,,,,,,,,,,126,64,118,72,128,197,2.2,2.22,-164,262,0,-271,230,-287,748.7276577949524,748.7277381420135,748.7308495044708,748.7456829547882,748.8945937156677,748.8945937156677,748.8945937156677,748.8945937156677,748.8945937156677,748.8945937156677,748.8945937156677,749.6299929618835,3,0.8785243034362793,None,,,,,,,,,,,,,,,,,,136,6,2025-02-26_16h01.02.884,comp,2024.2.4,None,2025-02-26 16h01.14.379422 -0500,
133,133,0,critical,hwd,35.0,3.0,lower,133.0,57.0,57.0,133.0,70.0,70.0,1,1.56181001663208,None,,,,,0,0,0,0,0,133,133,98,749.6459283828735,,,,,,,,,,,,,,,,,,,,,,,,,,,,,,,,,,,,,,,,,,,,,,,,,,,,,,,,,,,,,,,,,,,,,,,,,,,,,,,,,133.0,57.0,57.0,133.0,70.0,70.0,3.0,3.2,-191,-262,0,-5,198,262,749.6316375732422,749.6317384243011,749.6351296901703,749.6459283828735,749.7851560115814,749.7851560115814,749.7851560115814,749.7851560115814,749.7851560115814,749.7851560115814,749.7851560115814,751.2182621955872,1,1.56181001663208,None,,,,,,,,,,,,,,,,,,136,6,2025-02-26_16h01.02.884,comp,2024.2.4,None,2025-02-26 16h01.14.379422 -0500,
134,134,0,critical,hdw,35.0,3.0,upper,200.0,125.0,127.0,127.0,125.0,200.0,3,1.4227180480957031,None,,,,,0,0,0,0,0,134,134,111,751.2333700656891,,,,,,,,,,,,,,,,,,,,,,,,,,,,,,,,,,,,,,,,,,,,,,,,,,,,,,,,,,,,,,,,,,,,,,,,,,,,,,,,,200.0,125.0,127.0,127.0,125.0,200.0,3.0,3.2,-222,-270,0,-14,260,262,751.2197458744049,751.2198240756989,751.2226605415344,751.2333700656891,751.375893831253,751.375893831253,751.375893831253,751.375893831253,751.375893831253,751.375893831253,751.375893831253,752.6618537902832,3,1.4227180480957031,None,,,,,,,,,,,,,,,,,,136,6,2025-02-26_16h01.02.884,comp,2024.2.4,None,2025-02-26 16h01.14.379422 -0500,
135,135,0,critical,hdw,20.0,2.1,upper,200.0,125.0,141.0,141.0,125.0,200.0,3,1.7222058773040771,None,,,,,0,0,0,0,0,135,135,47,752.6774253845215,,,,,,,,,,,,,,,,,,,,,,,,,,,,,,,,,,,,,,,,,,,,,,,,,,,,,,,,,,,,,,,,,,,,,,,,,,,,,,,,,200.0,125.0,141.0,141.0,125.0,200.0,2.1,2.11,-229,251,0,263,266,-266,752.6634104251862,752.6634902954102,752.6668410301208,752.6774253845215,752.8264999389648,752.8264999389648,752.8264999389648,752.8264999389648,752.8264999389648,752.8264999389648,752.8264999389648,754.4105350971222,3,1.7222058773040771,None,,,,,,,,,,,,,,,,,,136,6,2025-02-26_16h01.02.884,comp,2024.2.4,None,2025-02-26 16h01.14.379422 -0500,
136,136,0,filler_random,None,None,None,None,None,None,None,None,None,None,1,2.1212306022644043,None,,,,,0,0,0,0,0,136,136,156,754.4312100410461,,,,,,,,,,,,,,,,,,,,,,,,,,,,,,,,,,,,,,,,,,,,,,,,,,,,,,,,,,,,,,,,,,,,,,,,,,,,,,,,,177.1003805336606,71.58586399728448,77.99261577543268,72.27008802638903,69.10296665950466,114.32016480990487,4.0,4.1,-168,-283,0,11,189,-265,754.4123101234436,754.412431716919,754.4156875610352,754.4312100410461,754.5787014961243,754.5787014961243,754.5787014961243,754.5787014961243,754.5787014961243,754.5787014961243,754.5787014961243,756.559666633606,1,2.1212306022644043,None,,,,,,,,,,,,,,,,,,136,6,2025-02-26_16h01.02.884,comp,2024.2.4,None,2025-02-26 16h01.14.379422 -0500,
137,137,0,critical,hdw,20.0,1.0,lower,133.0,57.0,78.0,78.0,57.0,133.0,1,1.7992494106292725,None,,,,,0,0,0,0,0,137,137,114,756.5765218734741,,,,,,,,,,,,,,,,,,,,,,,,,,,,,,,,,,,,,,,,,,,,,,,,,,,,,,,,,,,,,,,,,,,,,,,,,,,,,,,,,133.0,57.0,78.0,78.0,57.0,133.0,1.0,1.3,316,-285,480,-264,682,-261,756.561276435852,756.5613567829132,756.5646502971649,756.5765218734741,756.7139072418213,756.7139072418213,756.7139072418213,756.7139072418213,756.7139072418213,756.7139072418213,756.7139072418213,758.3947353363037,1,1.7992494106292725,None,,,,,,,,,,,,,,,,,,136,6,2025-02-26_16h01.02.884,comp,2024.2.4,None,2025-02-26 16h01.14.379422 -0500,
138,138,0,filler_square,None,None,None,None,None,None,None,None,None,None,3,1.4451329708099365,None,,,,,0,0,0,0,0,138,138,177,758.4109883308411,,,,,,,,,,,,,,,,,,,,,,,,,,,,,,,,,,,,,,,,,,,,,,,,,,,,,,,,,,,,,,,,,,,,,,,,,,,,,,,,,82.38073670744899,101.06095017573776,73.3833627033715,70.87624669051036,129.4096211540122,129.4096211540122,2.1,2.12,-182,-274,0,-252,196,285,758.3965449333191,758.3966221809387,758.3997464179993,758.4109883308411,758.5632734298706,758.5632734298706,758.5632734298706,758.5632734298706,758.5632734298706,758.5632734298706,758.5632734298706,759.8660471439362,3,1.4451329708099365,None,,,,,,,,,,,,,,,,,,136,6,2025-02-26_16h01.02.884,comp,2024.2.4,None,2025-02-26 16h01.14.379422 -0500,
139,139,0,filler_random,None,None,None,None,None,None,None,None,None,None,1,1.0748703479766846,None,,,,,0,0,0,0,0,139,139,135,759.8857822418213,,,,,,,,,,,,,,,,,,,,,,,,,,,,,,,,,,,,,,,,,,,,,,,,,,,,,,,,,,,,,,,,,,,,,,,,,,,,,,,,,101.9238854350865,193.24557054078565,85.3177766746041,191.31266573160235,94.31012630672839,57.357597905748015,1.0,1.3,192,-275,480,-282,700,-255,759.8680775165558,759.8682444095612,759.8712866306305,759.8857822418213,760.0305516719818,760.0305516719818,760.0305516719818,760.0305516719818,760.0305516719818,760.0305516719818,760.0305516719818,760.9646098613739,1,1.0748703479766846,None,,,,,,,,,,,,,,,,,,136,6,2025-02-26_16h01.02.884,comp,2024.2.4,None,2025-02-26 16h01.14.379422 -0500,
140,140,0,critical,dwh,20.0,2.1,upper,141.0,141.0,125.0,200.0,200.0,125.0,2,2.771266222000122,None,,,,,0,0,0,0,0,140,140,31,760.9804484844208,,,,,,,,,,,,,,,,,,,,,,,,,,,,,,,,,,,,,,,,,,,,,,,,,,,,,,,,,,,,,,,,,,,,,,,,,,,,,,,,,141.0,141.0,125.0,200.0,200.0,125.0,2.1,2.12,-266,-256,0,-285,258,274,760.9662351608276,760.9663531780243,760.9697375297546,760.9804484844208,761.1171667575836,761.1171667575836,761.1171667575836,761.1171667575836,761.1171667575836,761.1171667575836,761.1171667575836,763.762690782547,2,2.771266222000122,None,,,,,,,,,,,,,,,,,,136,6,2025-02-26_16h01.02.884,comp,2024.2.4,None,2025-02-26 16h01.14.379422 -0500,
141,141,0,critical,dhw,35.0,4.0,lower,70.0,70.0,133.0,57.0,57.0,133.0,3,1.180771827697754,None,,,,,0,0,0,0,0,141,141,52,763.778933763504,,,,,,,,,,,,,,,,,,,,,,,,,,,,,,,,,,,,,,,,,,,,,,,,,,,,,,,,,,,,,,,,,,,,,,,,,,,,,,,,,70.0,70.0,133.0,57.0,57.0,133.0,4.0,4.2,-160,15,0,-282,191,-2,763.76415848732,763.7642388343811,763.7670946121216,763.778933763504,763.9309613704681,763.9309613704681,763.9309613704681,763.9309613704681,763.9309613704681,763.9309613704681,763.9309613704681,764.9730484485626,3,1.180771827697754,None,,,,,,,,,,,,,,,,,,136,6,2025-02-26_16h01.02.884,comp,2024.2.4,None,2025-02-26 16h01.14.379422 -0500,
142,142,0,filler_random,None,None,None,None,None,None,None,None,None,None,1,0.7354555130004883,None,,,,,0,0,0,0,0,142,142,164,764.992338180542,,,,,,,,,,,,,,,,,,,,,,,,,,,,,,,,,,,,,,,,,,,,,,,,,,,,,,,,,,,,,,,,,,,,,,,,,,,,,,,,,185.74854251381313,173.1844869450636,150.40099996454495,83.45673681619672,160.52485013430277,71.60290798847541,3.0,3.2,-224,-271,0,14,174,287,764.974719285965,764.9747993946075,764.9776742458344,764.992338180542,765.1335999965668,765.1335999965668,765.1335999965668,765.1335999965668,765.1335999965668,765.1335999965668,765.1335999965668,765.7442181110382,1,0.7354555130004883,None,,,,,,,,,,,,,,,,,,136,6,2025-02-26_16h01.02.884,comp,2024.2.4,None,2025-02-26 16h01.14.379422 -0500,
143,143,0,critical,hdw,35.0,2.1,lower,133.0,57.0,70.0,70.0,57.0,133.0,1,1.7586703300476074,None,,,,,0,0,0,0,0,143,143,20,765.7634973526001,,,,,,,,,,,,,,,,,,,,,,,,,,,,,,,,,,,,,,,,,,,,,,,,,,,,,,,,,,,,,,,,,,,,,,,,,,,,,,,,,133.0,57.0,70.0,70.0,57.0,133.0,2.1,2.12,-160,-286,0,-264,198,268,765.7457520961761,765.7458274364471,765.7490150928497,765.7634973526001,765.8989279270172,765.8989279270172,765.8989279270172,765.8989279270172,765.8989279270172,765.8989279270172,765.8989279270172,767.5336067676544,1,1.7586703300476074,None,,,,,,,,,,,,,,,,,,136,6,2025-02-26_16h01.02.884,comp,2024.2.4,None,2025-02-26 16h01.14.379422 -0500,
144,144,0,filler_square,None,None,None,None,None,None,None,None,None,None,1,1.9059901237487793,None,,,,,0,0,0,0,0,144,144,198,767.5498533248901,,,,,,,,,,,,,,,,,,,,,,,,,,,,,,,,,,,,,,,,,,,,,,,,,,,,,,,,,,,,,,,,,,,,,,,,,,,,,,,,,81.73061173722056,81.73061173722056,80.08678450818348,76.34901326913159,74.51175180667875,67.90679480055194,4.0,4.2,-175,10,0,-252,168,-2,767.5354642868042,767.5355973243713,767.5393035411835,767.5498533248901,767.6996307373047,767.6996307373047,767.6996307373047,767.6996307373047,767.6996307373047,767.6996307373047,767.6996307373047,769.4690201282501,1,1.9059901237487793,None,,,,,,,,,,,,,,,,,,136,6,2025-02-26_16h01.02.884,comp,2024.2.4,None,2025-02-26 16h01.14.379422 -0500,
