thisN,thisTrialN,thisRepN,effect,order,distance,config,diag,h_1,w_1,h_2,w_2,h_3,w_3,rect_choice.keys,rect_choice.rt,rect_choice.duration,instructions_loop.thisRepN,instructions_loop.thisTrialN,instructions_loop.thisN,instructions_loop.thisIndex,blocks.thisRepN,blocks.thisTrialN,blocks.thisN,blocks.thisIndex,trials.thisRepN,trials.thisTrialN,trials.thisN,trials.thisIndex,thisRow.t,notes,consent.started,agree_button.started,decline_button.started,consent_img.started,mouse.started,consent.stopped,agree_button.numClicks,agree_button.timesOn,agree_button.timesOff,decline_button.numClicks,decline_button.timesOn,decline_button.timesOff,mouse.x,mouse.y,mouse.leftButton,mouse.midButton,mouse.rightButton,mouse.time,mouse.clicked_name,exp_params.started,exp_params.stopped,welcome.started,welcome_text.started,welcome.stopped,instructions_1.started,instructions_1_text_1.started,instructions_1_text_2.started,key_resp.started,instructions_1.stopped,instructions_loop.key_resp.keys,instructions_loop.key_resp.rt,instructions_loop.key_resp.duration,instructions_2.started,instructions_2_text_1.started,instructions_2_text_2.started,key_resp_2.started,instructions_2.stopped,instructions_loop.key_resp_2.keys,instructions_loop.key_resp_2.rt,instructions_loop.key_resp_2.duration,instructions_3.started,instructions_3_text_1.started,r1_instr3.started,r2_instr3.started,r3_instr3.started,r1_instr3_label.started,r2_instr3_label.started,r3_instr3_label.started,instructions_3_text_3.started,instructions_3_text_4.started,key_resp_3.started,instructions_3.stopped,instructions_loop.key_resp_3.keys,instructions_loop.key_resp_3.rt,instructions_loop.key_resp_3.duration,instructions_4.started,instructions_4_text_1.started,instructions_4_text_3.started,instructions_4_text_2.started,key_resp_4.started,instructions_4.stopped,instructions_loop.key_resp_4.keys,instructions_loop.key_resp_4.rt,instructions_loop.key_resp_4.duration,instructions_5.started,instructions_5_text_1.started,instructions_5_text_2.started,key_resp_5.started,instructions_5.stopped,instructions_loop.key_resp_5.keys,instructions_loop.key_resp_5.rt,instructions_loop.key_resp_5.duration,start_exp.started,start_exp_text.started,key_resp_6.started,start_exp.stopped,key_resp_6.keys,key_resp_6.rt,key_resp_6.duration,h_1_tmp,w_1_tmp,h_2_tmp,w_2_tmp,h_3_tmp,w_3_tmp,config_tmp,config_tmp_1,r_1_x,r_1_y,r_2_x,r_2_y,r_3_x,r_3_y,pre_trial.started,pre_trial.stopped,choice_trial.started,rect_choice.started,r_1.started,r_2.started,r_3.started,r_1_label.started,r_2_label.started,r_3_label.started,prompt.started,choice_trial.stopped,trials.rect_choice.keys,trials.rect_choice.rt,trials.rect_choice.duration,end_block.started,end_block_text.started,end_block.stopped,end.started,end_text.started,key_resp_7.started,end.stopped,key_resp_7.keys,key_resp_7.rt,key_resp_7.duration,debriefing.started,debrief_form.started,end_debrief.started,debriefing.stopped,end_debrief.keys,end_debrief.rt,end_debrief.duration,participant,computer,date,expName,psychopyVersion,frameRate,expStart,
,,,,,,,,,,,,,,,,,,,,,,,,,,,,,,,0.019439220428466797,0.0340268611907959,0.0340268611907959,0.0340268611907959,0.019207239151000977,27.983383655548096,1,[27.946826219558716],[27.946849584579468],0,,,[-106.0],[-496.0],[1],[0],[0],[27.963539123535156],['agree_button'],,,,,,,,,,,,,,,,,,,,,,,,,,,,,,,,,,,,,,,,,,,,,,,,,,,,,,,,,,,,,,,,,,,,,,,,,,,,,,,,,,,,,,,,,,,,,,,,,,,,,,,,,,,137,1,2025-02-26_16h59.16.731,comp,2024.2.4,58.62035519068403,2025-02-26 16h59.35.438684 -0500,
,,,,,,,,,,,,,,,,,,,,,,,,,,,,,,,,,,,,,,,,,,,,,,,,,,27.983957529067993,27.98405432701111,,,,,,,,,,,,,,,,,,,,,,,,,,,,,,,,,,,,,,,,,,,,,,,,,,,,,,,,,,,,,,,,,,,,,,,,,,,,,,,,,,,,,,,,,,,,,,,,,,,,,,,,,137,1,2025-02-26_16h59.16.731,comp,2024.2.4,58.62035519068403,2025-02-26 16h59.35.438684 -0500,
,,,,,,,,,,,,,,,,,,,,,,,,,,,,,,,,,,,,,,,,,,,,,,,,,,,,27.984099864959717,28.00259757041931,29.98826265335083,,,,,,,,,,,,,,,,,,,,,,,,,,,,,,,,,,,,,,,,,,,,,,,,,,,,,,,,,,,,,,,,,,,,,,,,,,,,,,,,,,,,,,,,,,,,,,,,,,,,,,137,1,2025-02-26_16h59.16.731,comp,2024.2.4,58.62035519068403,2025-02-26 16h59.35.438684 -0500,
0,0,0,,,,,,,,,,,,,,,0,0,0,0,,,,,,,,,30.005128860473633,,,,,,,,,,,,,,,,,,,,,,,,,,29.98925805091858,30.005128860473633,30.005128860473633,31.48970603942871,34.05863642692566,space,2.552520513534546,None,34.05878257751465,34.07424235343933,34.07424235343933,35.5576434135437,39.94450116157532,space,4.3808441162109375,None,39.9446496963501,39.97489833831787,39.97489833831787,39.97489833831787,39.97489833831787,39.97489833831787,39.97489833831787,39.97489833831787,39.97489833831787,39.97489833831787,41.458585262298584,45.91266226768494,space,4.439646244049072,None,45.91281533241272,45.92933511734009,45.92933511734009,45.92933511734009,47.411548376083374,52.3810498714447,space,4.966718673706055,None,52.381206035614014,52.396390199661255,52.396390199661255,53.89570140838623,54.74903345108032,space,0.8505752086639404,None,54.749231576919556,54.764729499816895,54.764729499816895,56.1332221031189,space,1.3654663562774658,None,,,,,,,,,,,,,,,,,,,,,,,,,,,,,,,,,,,,,,,,,,,,,,,137,1,2025-02-26_16h59.16.731,comp,2024.2.4,58.62035519068403,2025-02-26 16h59.35.438684 -0500,
0,0,0,filler_square,None,None,None,None,None,None,None,None,None,None,2,0.7732863426208496,None,,,,,0,0,0,0,0,0,0,173,56.205873012542725,,,,,,,,,,,,,,,,,,,,,,,,,,,,,,,,,,,,,,,,,,,,,,,,,,,,,,,,,,,,,,,,,,,,,,,,,,,,,,,,,94.6993234947058,110.51545145263319,161.35456351064013,161.35456351064013,87.76537112404992,87.06682000495766,1.0,1.2,-232,-4,0,16,220,4,56.190109968185425,56.1901433467865,56.19129276275635,56.205873012542725,56.3572313785553,56.3572313785553,56.3572313785553,56.3572313785553,56.3572313785553,56.3572313785553,56.3572313785553,56.982465744018555,2,0.7732863426208496,None,,,,,,,,,,,,,,,,,,137,1,2025-02-26_16h59.16.731,comp,2024.2.4,58.62035519068403,2025-02-26 16h59.35.438684 -0500,
1,1,0,critical,wdh,35.0,2.1,lower,57.0,133.0,70.0,70.0,133.0,57.0,1,2.5789661407470703,None,,,,,0,0,0,0,0,1,1,32,56.99948215484619,,,,,,,,,,,,,,,,,,,,,,,,,,,,,,,,,,,,,,,,,,,,,,,,,,,,,,,,,,,,,,,,,,,,,,,,,,,,,,,,,57.0,133.0,70.0,70.0,133.0,57.0,2.1,2.12,-198,-285,0,-280,160,257,56.983888149261475,56.983949184417725,56.987770795822144,56.99948215484619,57.1488721370697,57.1488721370697,57.1488721370697,57.1488721370697,57.1488721370697,57.1488721370697,57.1488721370697,59.58401584625244,1,2.5789661407470703,None,,,,,,,,,,,,,,,,,,137,1,2025-02-26_16h59.16.731,comp,2024.2.4,58.62035519068403,2025-02-26 16h59.35.438684 -0500,
2,2,0,critical,whd,35.0,1.0,lower,57.0,133.0,133.0,57.0,70.0,70.0,1,2.986231803894043,None,,,,,0,0,0,0,0,2,2,84,59.600101470947266,,,,,,,,,,,,,,,,,,,,,,,,,,,,,,,,,,,,,,,,,,,,,,,,,,,,,,,,,,,,,,,,,,,,,,,,,,,,,,,,,57.0,133.0,133.0,57.0,70.0,70.0,1.0,1.3,289,-271,480,-282,640,-259,59.58550953865051,59.58558678627014,59.58857846260071,59.600101470947266,59.74579358100891,59.74579358100891,59.74579358100891,59.74579358100891,59.74579358100891,59.74579358100891,59.74579358100891,62.6012966632843,1,2.986231803894043,None,,,,,,,,,,,,,,,,,,137,1,2025-02-26_16h59.16.731,comp,2024.2.4,58.62035519068403,2025-02-26 16h59.35.438684 -0500,
3,3,0,filler_square,None,None,None,None,None,None,None,None,None,None,3,2.665168046951294,None,,,,,0,0,0,0,0,3,3,189,62.61723327636719,,,,,,,,,,,,,,,,,,,,,,,,,,,,,,,,,,,,,,,,,,,,,,,,,,,,,,,,,,,,,,,,,,,,,,,,,,,,,,,,,59.38419780875814,70.4250361994803,73.66401902606364,73.66401902606364,71.55062549755489,62.708547403986344,3.0,3.1,-168,275,0,-14,164,-275,62.60307860374451,62.60315799713135,62.606369495391846,62.61723327636719,62.770466566085815,62.770466566085815,62.770466566085815,62.770466566085815,62.770466566085815,62.770466566085815,62.770466566085815,65.30128264427185,3,2.665168046951294,None,,,,,,,,,,,,,,,,,,137,1,2025-02-26_16h59.16.731,comp,2024.2.4,58.62035519068403,2025-02-26 16h59.35.438684 -0500,
4,4,0,filler_random,None,None,None,None,None,None,None,None,None,None,3,1.6003785133361816,None,,,,,0,0,0,0,0,4,4,144,65.32190775871277,,,,,,,,,,,,,,,,,,,,,,,,,,,,,,,,,,,,,,,,,,,,,,,,,,,,,,,,,,,,,,,,,,,,,,,,,,,,,,,,,86.18616440828842,141.39253854935214,190.00377186304286,148.88210964132531,190.19482612497052,172.74186328831792,4.0,4.1,-241,-262,0,-17,257,-284,65.30309128761292,65.30321431159973,65.30648112297058,65.32190775871277,65.46847939491272,65.46847939491272,65.46847939491272,65.46847939491272,65.46847939491272,65.46847939491272,65.46847939491272,66.93561339378357,3,1.6003785133361816,None,,,,,,,,,,,,,,,,,,137,1,2025-02-26_16h59.16.731,comp,2024.2.4,58.62035519068403,2025-02-26 16h59.35.438684 -0500,
5,5,0,critical,hwd,20.0,3.0,upper,200.0,125.0,125.0,200.0,141.0,141.0,1,1.3164305686950684,None,,,,,0,0,0,0,0,5,5,105,66.95118427276611,,,,,,,,,,,,,,,,,,,,,,,,,,,,,,,,,,,,,,,,,,,,,,,,,,,,,,,,,,,,,,,,,,,,,,,,,,,,,,,,,200.0,125.0,125.0,200.0,141.0,141.0,3.0,3.2,-258,-279,0,-3,266,267,66.93715858459473,66.93723106384277,66.94046068191528,66.95118427276611,67.105801820755,67.105801820755,67.105801820755,67.105801820755,67.105801820755,67.105801820755,67.105801820755,68.2716372013092,1,1.3164305686950684,None,,,,,,,,,,,,,,,,,,137,1,2025-02-26_16h59.16.731,comp,2024.2.4,58.62035519068403,2025-02-26 16h59.35.438684 -0500,
6,6,0,filler_random,None,None,None,None,None,None,None,None,None,None,2,1.3309080600738525,None,,,,,0,0,0,0,0,6,6,147,68.28735065460205,,,,,,,,,,,,,,,,,,,,,,,,,,,,,,,,,,,,,,,,,,,,,,,,,,,,,,,,,,,,,,,,,,,,,,,,,,,,,,,,,173.45404383365835,107.07901053400636,178.94420001017863,189.690900560922,86.63545209095713,146.2708481112537,2.2,2.21,-244,-275,0,266,264,268,68.27354288101196,68.27362179756165,68.27647089958191,68.28735065460205,68.43245458602905,68.43245458602905,68.43245458602905,68.43245458602905,68.43245458602905,68.43245458602905,68.43245458602905,69.63237476348877,2,1.3309080600738525,None,,,,,,,,,,,,,,,,,,137,1,2025-02-26_16h59.16.731,comp,2024.2.4,58.62035519068403,2025-02-26 16h59.35.438684 -0500,
7,7,0,critical,hwd,20.0,3.0,lower,133.0,57.0,57.0,133.0,78.0,78.0,2,2.706577777862549,None,,,,,0,0,0,0,0,7,7,104,69.64803767204285,,,,,,,,,,,,,,,,,,,,,,,,,,,,,,,,,,,,,,,,,,,,,,,,,,,,,,,,,,,,,,,,,,,,,,,,,,,,,,,,,133.0,57.0,57.0,133.0,78.0,78.0,3.0,3.1,-191,263,0,-3,202,-270,69.63388657569885,69.63396263122559,69.63730764389038,69.64803767204285,69.786386013031,69.786386013031,69.786386013031,69.786386013031,69.786386013031,69.786386013031,69.786386013031,72.35652828216553,2,2.706577777862549,None,,,,,,,,,,,,,,,,,,137,1,2025-02-26_16h59.16.731,comp,2024.2.4,58.62035519068403,2025-02-26 16h59.35.438684 -0500,
8,8,0,filler_square,None,None,None,None,None,None,None,None,None,None,2,4.806604862213135,None,,,,,0,0,0,0,0,8,8,206,72.37302422523499,,,,,,,,,,,,,,,,,,,,,,,,,,,,,,,,,,,,,,,,,,,,,,,,,,,,,,,,,,,,,,,,,,,,,,,,,,,,,,,,,72.64127592218837,70.69141312087616,74.10498086867784,74.10498086867784,64.61732515050468,69.68178880843647,2.1,2.12,-168,-289,0,-276,168,281,72.3590726852417,72.35918068885803,72.3621277809143,72.37302422523499,72.52073001861572,72.52073001861572,72.52073001861572,72.52073001861572,72.52073001861572,72.52073001861572,72.52073001861572,77.18607759475708,2,4.806604862213135,None,,,,,,,,,,,,,,,,,,137,1,2025-02-26_16h59.16.731,comp,2024.2.4,58.62035519068403,2025-02-26 16h59.35.438684 -0500,
9,9,0,filler_square,None,None,None,None,None,None,None,None,None,None,1,1.8150253295898438,None,,,,,0,0,0,0,0,9,9,171,77.20334577560425,,,,,,,,,,,,,,,,,,,,,,,,,,,,,,,,,,,,,,,,,,,,,,,,,,,,,,,,,,,,,,,,,,,,,,,,,,,,,,,,,186.0115396824688,186.0115396824688,139.1551635738225,96.3229559014625,159.40105372367688,171.57177742237727,4.0,4.1,-237,-279,0,17,230,-259,77.18774914741516,77.18782496452332,77.1907684803009,77.20334577560425,77.33927464485168,77.33927464485168,77.33927464485168,77.33927464485168,77.33927464485168,77.33927464485168,77.33927464485168,79.03143572807312,1,1.8150253295898438,None,,,,,,,,,,,,,,,,,,137,1,2025-02-26_16h59.16.731,comp,2024.2.4,58.62035519068403,2025-02-26 16h59.35.438684 -0500,
10,10,0,critical,hdw,35.0,2.1,upper,200.0,125.0,127.0,127.0,125.0,200.0,3,2.0912394523620605,None,,,,,0,0,0,0,0,10,10,45,79.04708194732666,,,,,,,,,,,,,,,,,,,,,,,,,,,,,,,,,,,,,,,,,,,,,,,,,,,,,,,,,,,,,,,,,,,,,,,,,,,,,,,,,200.0,125.0,127.0,127.0,125.0,200.0,2.1,2.11,-222,274,0,274,260,-279,79.03291821479797,79.0330138206482,79.0358521938324,79.04708194732666,79.18835616111755,79.18835616111755,79.18835616111755,79.18835616111755,79.18835616111755,79.18835616111755,79.18835616111755,81.15626430511475,3,2.0912394523620605,None,,,,,,,,,,,,,,,,,,137,1,2025-02-26_16h59.16.731,comp,2024.2.4,58.62035519068403,2025-02-26 16h59.35.438684 -0500,
11,11,0,critical,whd,35.0,2.1,upper,125.0,200.0,200.0,125.0,127.0,127.0,2,2.2307817935943604,None,,,,,0,0,0,0,0,11,11,13,81.17198181152344,,,,,,,,,,,,,,,,,,,,,,,,,,,,,,,,,,,,,,,,,,,,,,,,,,,,,,,,,,,,,,,,,,,,,,,,,,,,,,,,,125.0,200.0,200.0,125.0,127.0,127.0,2.1,2.11,-258,276,0,274,222,-277,81.15776538848877,81.15784049034119,81.16161799430847,81.17198181152344,81.32576107978821,81.32576107978821,81.32576107978821,81.32576107978821,81.32576107978821,81.32576107978821,81.32576107978821,83.40779614448547,2,2.2307817935943604,None,,,,,,,,,,,,,,,,,,137,1,2025-02-26_16h59.16.731,comp,2024.2.4,58.62035519068403,2025-02-26 16h59.35.438684 -0500,
12,12,0,filler_random,None,None,None,None,None,None,None,None,None,None,3,2.465195417404175,None,,,,,0,0,0,0,0,12,12,158,83.42538356781006,,,,,,,,,,,,,,,,,,,,,,,,,,,,,,,,,,,,,,,,,,,,,,,,,,,,,,,,,,,,,,,,,,,,,,,,,,,,,,,,,139.66253115659725,82.10693689428369,115.78517073618399,174.1333820000017,118.76420789621974,196.10051684263732,2.1,2.12,-224,-275,0,-274,281,280,83.40963411331177,83.40976142883301,83.4138753414154,83.42538356781006,83.57198357582092,83.57198357582092,83.57198357582092,83.57198357582092,83.57198357582092,83.57198357582092,83.57198357582092,85.89743566513062,3,2.465195417404175,None,,,,,,,,,,,,,,,,,,137,1,2025-02-26_16h59.16.731,comp,2024.2.4,58.62035519068403,2025-02-26 16h59.35.438684 -0500,
13,13,0,critical,hwd,35.0,3.0,lower,133.0,57.0,57.0,133.0,70.0,70.0,1,1.5064401626586914,None,,,,,0,0,0,0,0,13,13,98,85.9125497341156,,,,,,,,,,,,,,,,,,,,,,,,,,,,,,,,,,,,,,,,,,,,,,,,,,,,,,,,,,,,,,,,,,,,,,,,,,,,,,,,,133.0,57.0,57.0,133.0,70.0,70.0,3.0,3.2,-191,-289,0,-9,198,278,85.89893007278442,85.89903831481934,85.90188956260681,85.9125497341156,86.05810165405273,86.05810165405273,86.05810165405273,86.05810165405273,86.05810165405273,86.05810165405273,86.05810165405273,87.42584490776062,1,1.5064401626586914,None,,,,,,,,,,,,,,,,,,137,1,2025-02-26_16h59.16.731,comp,2024.2.4,58.62035519068403,2025-02-26 16h59.35.438684 -0500,
14,14,0,critical,dwh,35.0,3.0,upper,127.0,127.0,125.0,200.0,200.0,125.0,3,1.4021742343902588,None,,,,,0,0,0,0,0,14,14,63,87.44034481048584,,,,,,,,,,,,,,,,,,,,,,,,,,,,,,,,,,,,,,,,,,,,,,,,,,,,,,,,,,,,,,,,,,,,,,,,,,,,,,,,,127.0,127.0,125.0,200.0,200.0,125.0,3.0,3.1,-260,272,0,16,258,-257,87.42739820480347,87.42747664451599,87.4307382106781,87.44034481048584,87.58039927482605,87.58039927482605,87.58039927482605,87.58039927482605,87.58039927482605,87.58039927482605,87.58039927482605,88.8613440990448,3,1.4021742343902588,None,,,,,,,,,,,,,,,,,,137,1,2025-02-26_16h59.16.731,comp,2024.2.4,58.62035519068403,2025-02-26 16h59.35.438684 -0500,
15,15,0,critical,wdh,20.0,3.0,lower,57.0,133.0,78.0,78.0,133.0,57.0,3,2.872728109359741,None,,,,,0,0,0,0,0,15,15,80,88.88185000419617,,,,,,,,,,,,,,,,,,,,,,,,,,,,,,,,,,,,,,,,,,,,,,,,,,,,,,,,,,,,,,,,,,,,,,,,,,,,,,,,,57.0,133.0,78.0,78.0,133.0,57.0,3.0,3.1,-202,257,0,19,164,-286,88.8630268573761,88.86315870285034,88.8664493560791,88.88185000419617,89.02818202972412,89.02818202972412,89.02818202972412,89.02818202972412,89.02818202972412,89.02818202972412,89.02818202972412,91.75930762290955,3,2.872728109359741,None,,,,,,,,,,,,,,,,,,137,1,2025-02-26_16h59.16.731,comp,2024.2.4,58.62035519068403,2025-02-26 16h59.35.438684 -0500,
16,16,0,catch,None,None,None,None,None,None,None,None,None,None,3,1.4653363227844238,None,,,,,0,0,0,0,0,16,16,121,91.77747392654419,,,,,,,,,,,,,,,,,,,,,,,,,,,,,,,,,,,,,,,,,,,,,,,,,,,,,,,,,,,,,,,,,,,,,,,,,,,,,,,,,73,117,122,68,177,148,4.0,4.1,-188,-285,0,9,204,-255,91.76139283180237,91.76147508621216,91.76464033126831,91.77747392654419,91.92762398719788,91.92762398719788,91.92762398719788,91.92762398719788,91.92762398719788,91.92762398719788,91.92762398719788,93.24492931365967,3,1.4653363227844238,None,,,,,,,,,,,,,,,,,,137,1,2025-02-26_16h59.16.731,comp,2024.2.4,58.62035519068403,2025-02-26 16h59.35.438684 -0500,
17,17,0,catch,None,None,None,None,None,None,None,None,None,None,3,1.1161985397338867,None,,,,,0,0,0,0,0,17,17,122,93.26232957839966,,,,,,,,,,,,,,,,,,,,,,,,,,,,,,,,,,,,,,,,,,,,,,,,,,,,,,,,,,,,,,,,,,,,,,,,,,,,,,,,,74,116,77,113,198,127,2.2,2.22,-210,270,0,-289,216,-264,93.24717545509338,93.24725651741028,93.25072312355042,93.26232957839966,93.4106752872467,93.4106752872467,93.4106752872467,93.4106752872467,93.4106752872467,93.4106752872467,93.4106752872467,94.39168953895569,3,1.1161985397338867,None,,,,,,,,,,,,,,,,,,137,1,2025-02-26_16h59.16.731,comp,2024.2.4,58.62035519068403,2025-02-26 16h59.35.438684 -0500,
18,18,0,critical,dhw,35.0,3.0,lower,70.0,70.0,133.0,57.0,57.0,133.0,3,1.7785570621490479,None,,,,,0,0,0,0,0,18,18,50,94.40775990486145,,,,,,,,,,,,,,,,,,,,,,,,,,,,,,,,,,,,,,,,,,,,,,,,,,,,,,,,,,,,,,,,,,,,,,,,,,,,,,,,,70.0,70.0,133.0,57.0,57.0,133.0,3.0,3.1,-160,257,0,1,191,-265,94.39319181442261,94.39326786994934,94.39615201950073,94.40775990486145,94.55995297431946,94.55995297431946,94.55995297431946,94.55995297431946,94.55995297431946,94.55995297431946,94.55995297431946,96.19881749153137,3,1.7785570621490479,None,,,,,,,,,,,,,,,,,,137,1,2025-02-26_16h59.16.731,comp,2024.2.4,58.62035519068403,2025-02-26 16h59.35.438684 -0500,
19,19,0,filler_random,None,None,None,None,None,None,None,None,None,None,2,2.049358606338501,None,,,,,0,0,0,0,0,19,19,143,96.2191014289856,,,,,,,,,,,,,,,,,,,,,,,,,,,,,,,,,,,,,,,,,,,,,,,,,,,,,,,,,,,,,,,,,,,,,,,,,,,,,,,,,159.1992684927855,59.43206108683235,183.55862346285812,176.2836306265883,103.96155266091353,105.52890854411288,2.1,2.11,-214,259,0,264,237,-281,96.20060610771179,96.20068550109863,96.20355200767517,96.2191014289856,96.36255049705505,96.36255049705505,96.36255049705505,96.36255049705505,96.36255049705505,96.36255049705505,96.36255049705505,98.27909135818481,2,2.049358606338501,None,,,,,,,,,,,,,,,,,,137,1,2025-02-26_16h59.16.731,comp,2024.2.4,58.62035519068403,2025-02-26 16h59.35.438684 -0500,
20,20,0,filler_random,None,None,None,None,None,None,None,None,None,None,3,1.0990829467773438,None,,,,,0,0,0,0,0,20,20,155,98.29522061347961,,,,,,,,,,,,,,,,,,,,,,,,,,,,,,,,,,,,,,,,,,,,,,,,,,,,,,,,,,,,,,,,,,,,,,,,,,,,,,,,,69.09871751030934,127.38329793977466,101.13955400908381,78.89025352781934,152.81225921066869,82.85315090428976,2.1,2.11,-199,259,0,264,177,-268,98.28085136413574,98.28100943565369,98.28435349464417,98.29522061347961,98.44377827644348,98.44377827644348,98.44377827644348,98.44377827644348,98.44377827644348,98.44377827644348,98.44377827644348,99.41117453575134,3,1.0990829467773438,None,,,,,,,,,,,,,,,,,,137,1,2025-02-26_16h59.16.731,comp,2024.2.4,58.62035519068403,2025-02-26 16h59.35.438684 -0500,
21,21,0,filler_square,None,None,None,None,None,None,None,None,None,None,2,2.1278440952301025,None,,,,,0,0,0,0,0,21,21,195,99.42717552185059,,,,,,,,,,,,,,,,,,,,,,,,,,,,,,,,,,,,,,,,,,,,,,,,,,,,,,,,,,,,,,,,,,,,,,,,,,,,,,,,,69.51426498610168,71.519457798957,75.68103656992841,75.68103656992841,58.834290060022546,71.07557582303984,1.0,1.2,-170,-17,0,1,169,-2,99.41287994384766,99.41295623779297,99.41591429710388,99.42717552185059,99.57532382011414,99.57532382011414,99.57532382011414,99.57532382011414,99.57532382011414,99.57532382011414,99.57532382011414,101.56318688392639,2,2.1278440952301025,None,,,,,,,,,,,,,,,,,,137,1,2025-02-26_16h59.16.731,comp,2024.2.4,58.62035519068403,2025-02-26 16h59.35.438684 -0500,
22,22,0,filler_square,None,None,None,None,None,None,None,None,None,None,1,1.414468765258789,None,,,,,0,0,0,0,0,22,22,170,101.5798192024231,,,,,,,,,,,,,,,,,,,,,,,,,,,,,,,,,,,,,,,,,,,,,,,,,,,,,,,,,,,,,,,,,,,,,,,,,,,,,,,,,73.78100292384327,73.78100292384327,63.063640027202005,66.36479896208569,63.166495656341944,60.59482753056759,3.0,3.2,-166,-259,0,3,159,258,101.56488633155823,101.5649664402008,101.56828474998474,101.5798192024231,101.73813128471375,101.73813128471375,101.73813128471375,101.73813128471375,101.73813128471375,101.73813128471375,101.73813128471375,102.99692988395691,1,1.414468765258789,None,,,,,,,,,,,,,,,,,,137,1,2025-02-26_16h59.16.731,comp,2024.2.4,58.62035519068403,2025-02-26 16h59.35.438684 -0500,
23,23,0,critical,dwh,20.0,2.1,upper,141.0,141.0,125.0,200.0,200.0,125.0,3,2.0387773513793945,None,,,,,0,0,0,0,0,23,23,31,103.01154637336731,,,,,,,,,,,,,,,,,,,,,,,,,,,,,,,,,,,,,,,,,,,,,,,,,,,,,,,,,,,,,,,,,,,,,,,,,,,,,,,,,141.0,141.0,125.0,200.0,200.0,125.0,2.1,2.12,-266,-279,0,-251,258,273,102.99852204322815,102.99860143661499,103.00206184387207,103.01154637336731,103.15332818031311,103.15332818031311,103.15332818031311,103.15332818031311,103.15332818031311,103.15332818031311,103.15332818031311,105.06376028060913,3,2.0387773513793945,None,,,,,,,,,,,,,,,,,,137,1,2025-02-26_16h59.16.731,comp,2024.2.4,58.62035519068403,2025-02-26 16h59.35.438684 -0500,
24,24,0,critical,whd,35.0,2.1,lower,57.0,133.0,133.0,57.0,70.0,70.0,2,1.3918068408966064,None,,,,,0,0,0,0,0,24,24,36,105.08321189880371,,,,,,,,,,,,,,,,,,,,,,,,,,,,,,,,,,,,,,,,,,,,,,,,,,,,,,,,,,,,,,,,,,,,,,,,,,,,,,,,,57.0,133.0,133.0,57.0,70.0,70.0,2.1,2.12,-191,-264,0,-265,160,276,105.06523776054382,105.06531262397766,105.06825971603394,105.08321189880371,105.23093771934509,105.23093771934509,105.23093771934509,105.23093771934509,105.23093771934509,105.23093771934509,105.23093771934509,106.47856903076172,2,1.3918068408966064,None,,,,,,,,,,,,,,,,,,137,1,2025-02-26_16h59.16.731,comp,2024.2.4,58.62035519068403,2025-02-26 16h59.35.438684 -0500,
25,25,0,filler_random,None,None,None,None,None,None,None,None,None,None,2,1.0744314193725586,None,,,,,0,0,0,0,0,25,25,163,106.49583029747009,,,,,,,,,,,,,,,,,,,,,,,,,,,,,,,,,,,,,,,,,,,,,,,,,,,,,,,,,,,,,,,,,,,,,,,,,,,,,,,,,169.43089921818822,109.88237925065167,192.21749208109867,199.21241053661467,107.0090181480121,86.04085529366539,2.1,2.11,-251,272,0,268,239,-279,106.48029398918152,106.4804208278656,106.48364162445068,106.49583029747009,106.63278365135193,106.63278365135193,106.63278365135193,106.63278365135193,106.63278365135193,106.63278365135193,106.63278365135193,107.58020877838135,2,1.0744314193725586,None,,,,,,,,,,,,,,,,,,137,1,2025-02-26_16h59.16.731,comp,2024.2.4,58.62035519068403,2025-02-26 16h59.35.438684 -0500,
26,26,0,critical,wdh,35.0,2.1,lower,57.0,133.0,70.0,70.0,133.0,57.0,3,1.5338585376739502,None,,,,,0,0,0,0,0,26,26,8,107.59639644622803,,,,,,,,,,,,,,,,,,,,,,,,,,,,,,,,,,,,,,,,,,,,,,,,,,,,,,,,,,,,,,,,,,,,,,,,,,,,,,,,,57.0,133.0,70.0,70.0,133.0,57.0,2.1,2.12,-198,-253,0,-268,160,290,107.58171701431274,107.58179450035095,107.58464217185974,107.59639644622803,107.7325792312622,107.7325792312622,107.7325792312622,107.7325792312622,107.7325792312622,107.7325792312622,107.7325792312622,109.14698004722595,3,1.5338585376739502,None,,,,,,,,,,,,,,,,,,137,1,2025-02-26_16h59.16.731,comp,2024.2.4,58.62035519068403,2025-02-26 16h59.35.438684 -0500,
27,27,0,critical,dhw,35.0,2.1,upper,127.0,127.0,200.0,125.0,125.0,200.0,2,1.456655740737915,None,,,,,0,0,0,0,0,27,27,25,109.161789894104,,,,,,,,,,,,,,,,,,,,,,,,,,,,,,,,,,,,,,,,,,,,,,,,,,,,,,,,,,,,,,,,,,,,,,,,,,,,,,,,,127.0,127.0,200.0,125.0,125.0,200.0,2.1,2.12,-222,-268,0,-287,258,265,109.14857292175293,109.14864730834961,109.15189146995544,109.161789894104,109.30011653900146,109.30011653900146,109.30011653900146,109.30011653900146,109.30011653900146,109.30011653900146,109.30011653900146,110.63743686676025,2,1.456655740737915,None,,,,,,,,,,,,,,,,,,137,1,2025-02-26_16h59.16.731,comp,2024.2.4,58.62035519068403,2025-02-26 16h59.35.438684 -0500,
28,28,0,critical,dwh,20.0,3.0,lower,78.0,78.0,57.0,133.0,133.0,57.0,3,1.4754812717437744,None,,,,,0,0,0,0,0,28,28,68,110.65515780448914,,,,,,,,,,,,,,,,,,,,,,,,,,,,,,,,,,,,,,,,,,,,,,,,,,,,,,,,,,,,,,,,,,,,,,,,,,,,,,,,,78.0,78.0,57.0,133.0,133.0,57.0,3.0,3.1,-202,272,0,-11,191,-285,110.63905549049377,110.6391875743866,110.64242577552795,110.65515780448914,110.79809856414795,110.79809856414795,110.79809856414795,110.79809856414795,110.79809856414795,110.79809856414795,110.79809856414795,112.13267517089844,3,1.4754812717437744,None,,,,,,,,,,,,,,,,,,137,1,2025-02-26_16h59.16.731,comp,2024.2.4,58.62035519068403,2025-02-26 16h59.35.438684 -0500,
29,29,0,critical,hwd,20.0,2.1,lower,133.0,57.0,57.0,133.0,78.0,78.0,1,2.6298344135284424,None,,,,,0,0,0,0,0,29,29,42,112.14903855323792,,,,,,,,,,,,,,,,,,,,,,,,,,,,,,,,,,,,,,,,,,,,,,,,,,,,,,,,,,,,,,,,,,,,,,,,,,,,,,,,,133.0,57.0,57.0,133.0,78.0,78.0,2.1,2.11,-191,264,0,287,202,-281,112.13419389724731,112.13427114486694,112.13741445541382,112.14903855323792,112.30294895172119,112.30294895172119,112.30294895172119,112.30294895172119,112.30294895172119,112.30294895172119,112.30294895172119,114.7853102684021,1,2.6298344135284424,None,,,,,,,,,,,,,,,,,,137,1,2025-02-26_16h59.16.731,comp,2024.2.4,58.62035519068403,2025-02-26 16h59.35.438684 -0500,
30,30,0,critical,dwh,35.0,2.1,lower,70.0,70.0,57.0,133.0,133.0,57.0,2,1.4977967739105225,None,,,,,0,0,0,0,0,30,30,4,114.80110716819763,,,,,,,,,,,,,,,,,,,,,,,,,,,,,,,,,,,,,,,,,,,,,,,,,,,,,,,,,,,,,,,,,,,,,,,,,,,,,,,,,70.0,70.0,57.0,133.0,133.0,57.0,2.1,2.12,-198,-275,0,-256,191,277,114.7868902683258,114.78696990013123,114.79024934768677,114.80110716819763,114.9510850906372,114.9510850906372,114.9510850906372,114.9510850906372,114.9510850906372,114.9510850906372,114.9510850906372,116.30140018463135,2,1.4977967739105225,None,,,,,,,,,,,,,,,,,,137,1,2025-02-26_16h59.16.731,comp,2024.2.4,58.62035519068403,2025-02-26 16h59.35.438684 -0500,
31,31,0,filler_square,None,None,None,None,None,None,None,None,None,None,2,1.21986985206604,None,,,,,0,0,0,0,0,31,31,187,116.31849265098572,,,,,,,,,,,,,,,,,,,,,,,,,,,,,,,,,,,,,,,,,,,,,,,,,,,,,,,,,,,,,,,,,,,,,,,,,,,,,,,,,127.66802807916643,112.86426732182895,190.43097857242302,190.43097857242302,70.9027336746422,162.37573079261637,3.0,3.1,-248,271,0,-6,272,-253,116.30325436592102,116.30333256721497,116.30739903450012,116.31849265098572,116.47590923309326,116.47590923309326,116.47590923309326,116.47590923309326,116.47590923309326,116.47590923309326,116.47590923309326,117.54908752441406,2,1.21986985206604,None,,,,,,,,,,,,,,,,,,137,1,2025-02-26_16h59.16.731,comp,2024.2.4,58.62035519068403,2025-02-26 16h59.35.438684 -0500,
32,32,0,critical,whd,35.0,4.0,upper,125.0,200.0,200.0,125.0,127.0,127.0,2,1.597883701324463,None,,,,,0,0,0,0,0,32,32,89,117.56502223014832,,,,,,,,,,,,,,,,,,,,,,,,,,,,,,,,,,,,,,,,,,,,,,,,,,,,,,,,,,,,,,,,,,,,,,,,,,,,,,,,,125.0,200.0,200.0,125.0,127.0,127.0,4.0,4.2,-258,19,0,-268,222,-1,117.55059695243835,117.55067181587219,117.55354499816895,117.56502223014832,117.71762037277222,117.71762037277222,117.71762037277222,117.71762037277222,117.71762037277222,117.71762037277222,117.71762037277222,119.16728448867798,2,1.597883701324463,None,,,,,,,,,,,,,,,,,,137,1,2025-02-26_16h59.16.731,comp,2024.2.4,58.62035519068403,2025-02-26 16h59.35.438684 -0500,
33,33,0,critical,dhw,20.0,3.0,lower,78.0,78.0,133.0,57.0,57.0,133.0,2,1.058377981185913,None,,,,,0,0,0,0,0,33,33,56,119.18392443656921,,,,,,,,,,,,,,,,,,,,,,,,,,,,,,,,,,,,,,,,,,,,,,,,,,,,,,,,,,,,,,,,,,,,,,,,,,,,,,,,,78.0,78.0,133.0,57.0,57.0,133.0,3.0,3.2,-164,-272,0,19,191,264,119.16882610321045,119.16890144348145,119.17218947410583,119.18392443656921,119.33563113212585,119.33563113212585,119.33563113212585,119.33563113212585,119.33563113212585,119.33563113212585,119.33563113212585,120.25692582130432,2,1.058377981185913,None,,,,,,,,,,,,,,,,,,137,1,2025-02-26_16h59.16.731,comp,2024.2.4,58.62035519068403,2025-02-26 16h59.35.438684 -0500,
34,34,0,critical,hdw,20.0,2.1,lower,133.0,57.0,78.0,78.0,57.0,133.0,1,1.3895986080169678,None,,,,,0,0,0,0,0,34,34,46,120.27767038345337,,,,,,,,,,,,,,,,,,,,,,,,,,,,,,,,,,,,,,,,,,,,,,,,,,,,,,,,,,,,,,,,,,,,,,,,,,,,,,,,,133.0,57.0,78.0,78.0,57.0,133.0,2.1,2.12,-164,-266,0,-286,202,262,120.25902485847473,120.2591199874878,120.26196670532227,120.27767038345337,120.41909408569336,120.41909408569336,120.41909408569336,120.41909408569336,120.41909408569336,120.41909408569336,120.41909408569336,121.6724636554718,1,1.3895986080169678,None,,,,,,,,,,,,,,,,,,137,1,2025-02-26_16h59.16.731,comp,2024.2.4,58.62035519068403,2025-02-26 16h59.35.438684 -0500,
35,35,0,critical,hdw,20.0,1.0,lower,133.0,57.0,78.0,78.0,57.0,133.0,1,1.73809814453125,None,,,,,0,0,0,0,0,35,35,114,121.68818593025208,,,,,,,,,,,,,,,,,,,,,,,,,,,,,,,,,,,,,,,,,,,,,,,,,,,,,,,,,,,,,,,,,,,,,,,,,,,,,,,,,133.0,57.0,78.0,78.0,57.0,133.0,1.0,1.2,-164,9,0,-7,202,15,121.6739273071289,121.67402529716492,121.6773636341095,121.68818593025208,121.84216499328613,121.84216499328613,121.84216499328613,121.84216499328613,121.84216499328613,121.84216499328613,121.84216499328613,123.43660593032837,1,1.73809814453125,None,,,,,,,,,,,,,,,,,,137,1,2025-02-26_16h59.16.731,comp,2024.2.4,58.62035519068403,2025-02-26 16h59.35.438684 -0500,
36,36,0,critical,dwh,20.0,2.1,lower,78.0,78.0,57.0,133.0,133.0,57.0,3,2.7722482681274414,None,,,,,0,0,0,0,0,36,36,30,123.45405507087708,,,,,,,,,,,,,,,,,,,,,,,,,,,,,,,,,,,,,,,,,,,,,,,,,,,,,,,,,,,,,,,,,,,,,,,,,,,,,,,,,78.0,78.0,57.0,133.0,133.0,57.0,2.1,2.12,-202,-281,0,-278,191,275,123.43824791908264,123.43832588195801,123.44241642951965,123.45405507087708,123.60894203186035,123.60894203186035,123.60894203186035,123.60894203186035,123.60894203186035,123.60894203186035,123.60894203186035,126.24337840080261,3,2.7722482681274414,None,,,,,,,,,,,,,,,,,,137,1,2025-02-26_16h59.16.731,comp,2024.2.4,58.62035519068403,2025-02-26 16h59.35.438684 -0500,
37,37,0,catch,None,None,None,None,None,None,None,None,None,None,3,1.1808850765228271,None,,,,,0,0,0,0,0,37,37,129,126.26150679588318,,,,,,,,,,,,,,,,,,,,,,,,,,,,,,,,,,,,,,,,,,,,,,,,,,,,,,,,,,,,,,,,,,,,,,,,,,,,,,,,,80,110,105,85,153,172,2.2,2.22,-194,275,0,-261,224,-256,126.24547529220581,126.24554967880249,126.24872517585754,126.26150679588318,126.40570998191833,126.40570998191833,126.40570998191833,126.40570998191833,126.40570998191833,126.40570998191833,126.40570998191833,127.45275163650513,3,1.1808850765228271,None,,,,,,,,,,,,,,,,,,137,1,2025-02-26_16h59.16.731,comp,2024.2.4,58.62035519068403,2025-02-26 16h59.35.438684 -0500,
38,38,0,critical,whd,20.0,2.1,lower,57.0,133.0,133.0,57.0,78.0,78.0,2,1.5729193687438965,None,,,,,0,0,0,0,0,38,38,38,127.46930623054504,,,,,,,,,,,,,,,,,,,,,,,,,,,,,,,,,,,,,,,,,,,,,,,,,,,,,,,,,,,,,,,,,,,,,,,,,,,,,,,,,57.0,133.0,133.0,57.0,78.0,78.0,2.1,2.11,-191,260,0,260,164,-282,127.454345703125,127.45442318916321,127.45764636993408,127.46930623054504,127.61239504814148,127.61239504814148,127.61239504814148,127.61239504814148,127.61239504814148,127.61239504814148,127.61239504814148,129.05456399917603,2,1.5729193687438965,None,,,,,,,,,,,,,,,,,,137,1,2025-02-26_16h59.16.731,comp,2024.2.4,58.62035519068403,2025-02-26 16h59.35.438684 -0500,
39,39,0,critical,wdh,20.0,2.1,upper,125.0,200.0,141.0,141.0,200.0,125.0,3,1.5268969535827637,None,,,,,0,0,0,0,0,39,39,35,129.07009649276733,,,,,,,,,,,,,,,,,,,,,,,,,,,,,,,,,,,,,,,,,,,,,,,,,,,,,,,,,,,,,,,,,,,,,,,,,,,,,,,,,125.0,200.0,141.0,141.0,200.0,125.0,2.1,2.12,-266,-265,0,-271,229,262,129.05607318878174,129.05615067481995,129.05919647216797,129.07009649276733,129.218097448349,129.218097448349,129.218097448349,129.218097448349,129.218097448349,129.218097448349,129.218097448349,130.60250234603882,3,1.5268969535827637,None,,,,,,,,,,,,,,,,,,137,1,2025-02-26_16h59.16.731,comp,2024.2.4,58.62035519068403,2025-02-26 16h59.35.438684 -0500,
40,40,0,critical,hwd,35.0,3.0,upper,200.0,125.0,125.0,200.0,127.0,127.0,1,1.8858790397644043,None,,,,,0,0,0,0,0,40,40,99,130.62044525146484,,,,,,,,,,,,,,,,,,,,,,,,,,,,,,,,,,,,,,,,,,,,,,,,,,,,,,,,,,,,,,,,,,,,,,,,,,,,,,,,,200.0,125.0,125.0,200.0,127.0,127.0,3.0,3.2,-258,-263,0,14,260,288,130.6039276123047,130.60404109954834,130.60688710212708,130.62044525146484,130.7738745212555,130.7738745212555,130.7738745212555,130.7738745212555,130.7738745212555,130.7738745212555,130.7738745212555,132.52234888076782,1,1.8858790397644043,None,,,,,,,,,,,,,,,,,,137,1,2025-02-26_16h59.16.731,comp,2024.2.4,58.62035519068403,2025-02-26 16h59.35.438684 -0500,
41,41,0,filler_random,None,None,None,None,None,None,None,None,None,None,3,3.6303932666778564,None,,,,,0,0,0,0,0,41,41,135,132.54025173187256,,,,,,,,,,,,,,,,,,,,,,,,,,,,,,,,,,,,,,,,,,,,,,,,,,,,,,,,,,,,,,,,,,,,,,,,,,,,,,,,,151.73771910814986,103.1647123750314,199.28777227122413,73.86995747125172,148.73306384367288,171.67004992205986,3.0,3.1,-185,267,0,1,219,-266,132.52401328086853,132.52410340309143,132.52704668045044,132.54025173187256,132.6896092891693,132.6896092891693,132.6896092891693,132.6896092891693,132.6896092891693,132.6896092891693,132.6896092891693,136.17403507232666,3,3.6303932666778564,None,,,,,,,,,,,,,,,,,,137,1,2025-02-26_16h59.16.731,comp,2024.2.4,58.62035519068403,2025-02-26 16h59.35.438684 -0500,
42,42,0,critical,hwd,20.0,2.1,lower,133.0,57.0,57.0,133.0,78.0,78.0,1,1.1088159084320068,None,,,,,0,0,0,0,0,42,42,18,136.18954586982727,,,,,,,,,,,,,,,,,,,,,,,,,,,,,,,,,,,,,,,,,,,,,,,,,,,,,,,,,,,,,,,,,,,,,,,,,,,,,,,,,133.0,57.0,57.0,133.0,78.0,78.0,2.1,2.12,-191,-255,0,-262,202,256,136.17551231384277,136.1755886077881,136.17862200737,136.18954586982727,136.33788871765137,136.33788871765137,136.33788871765137,136.33788871765137,136.33788871765137,136.33788871765137,136.33788871765137,137.31336426734924,1,1.1088159084320068,None,,,,,,,,,,,,,,,,,,137,1,2025-02-26_16h59.16.731,comp,2024.2.4,58.62035519068403,2025-02-26 16h59.35.438684 -0500,
43,43,0,filler_square,None,None,None,None,None,None,None,None,None,None,2,1.4696102142333984,None,,,,,0,0,0,0,0,43,43,204,137.33339953422546,,,,,,,,,,,,,,,,,,,,,,,,,,,,,,,,,,,,,,,,,,,,,,,,,,,,,,,,,,,,,,,,,,,,,,,,,,,,,,,,,128.88431508006312,146.6034499853331,158.40026615493892,158.40026615493892,87.26092133158286,92.69895055195616,3.0,3.2,-249,-267,0,-4,222,260,137.31513905525208,137.31521725654602,137.31807351112366,137.33339953422546,137.47625088691711,137.47625088691711,137.47625088691711,137.47625088691711,137.47625088691711,137.47625088691711,137.47625088691711,138.8071413040161,2,1.4696102142333984,None,,,,,,,,,,,,,,,,,,137,1,2025-02-26_16h59.16.731,comp,2024.2.4,58.62035519068403,2025-02-26 16h59.35.438684 -0500,
44,44,0,critical,hwd,20.0,1.0,upper,200.0,125.0,125.0,200.0,141.0,141.0,1,1.3830783367156982,None,,,,,0,0,0,0,0,44,44,103,138.827401638031,,,,,,,,,,,,,,,,,,,,,,,,,,,,,,,,,,,,,,,,,,,,,,,,,,,,,,,,,,,,,,,,,,,,,,,,,,,,,,,,,200.0,125.0,125.0,200.0,141.0,141.0,1.0,1.2,-258,13,0,-3,266,-18,138.80856800079346,138.80864548683167,138.81166315078735,138.827401638031,138.97483730316162,138.97483730316162,138.97483730316162,138.97483730316162,138.97483730316162,138.97483730316162,138.97483730316162,140.21339464187622,1,1.3830783367156982,None,,,,,,,,,,,,,,,,,,137,1,2025-02-26_16h59.16.731,comp,2024.2.4,58.62035519068403,2025-02-26 16h59.35.438684 -0500,
45,45,0,filler_square,None,None,None,None,None,None,None,None,None,None,1,1.1449108123779297,None,,,,,0,0,0,0,0,45,45,202,140.23372054100037,,,,,,,,,,,,,,,,,,,,,,,,,,,,,,,,,,,,,,,,,,,,,,,,,,,,,,,,,,,,,,,,,,,,,,,,,,,,,,,,,175.83917501720796,175.83917501720796,70.57761184875213,167.6828530463641,135.58589995823573,59.56353461702601,4.0,4.2,-268,-8,0,-288,210,-1,140.2150936126709,140.2151701450348,140.21805214881897,140.23372054100037,140.37511587142944,140.37511587142944,140.37511587142944,140.37511587142944,140.37511587142944,140.37511587142944,140.37511587142944,141.39334726333618,1,1.1449108123779297,None,,,,,,,,,,,,,,,,,,137,1,2025-02-26_16h59.16.731,comp,2024.2.4,58.62035519068403,2025-02-26 16h59.35.438684 -0500,
46,46,0,critical,hwd,35.0,2.1,upper,200.0,125.0,125.0,200.0,127.0,127.0,2,1.4581749439239502,None,,,,,0,0,0,0,0,46,46,17,141.40888953208923,,,,,,,,,,,,,,,,,,,,,,,,,,,,,,,,,,,,,,,,,,,,,,,,,,,,,,,,,,,,,,,,,,,,,,,,,,,,,,,,,200.0,125.0,125.0,200.0,127.0,127.0,2.1,2.11,-258,283,0,287,260,-276,141.39491534233093,141.39501571655273,141.398512840271,141.40888953208923,141.56512117385864,141.56512117385864,141.56512117385864,141.56512117385864,141.56512117385864,141.56512117385864,141.56512117385864,142.87655329704285,2,1.4581749439239502,None,,,,,,,,,,,,,,,,,,137,1,2025-02-26_16h59.16.731,comp,2024.2.4,58.62035519068403,2025-02-26 16h59.35.438684 -0500,
47,47,0,critical,hdw,35.0,3.0,lower,133.0,57.0,70.0,70.0,57.0,133.0,1,1.926178216934204,None,,,,,0,0,0,0,0,47,47,110,142.89208960533142,,,,,,,,,,,,,,,,,,,,,,,,,,,,,,,,,,,,,,,,,,,,,,,,,,,,,,,,,,,,,,,,,,,,,,,,,,,,,,,,,133.0,57.0,70.0,70.0,57.0,133.0,3.0,3.2,-160,-281,0,-12,198,267,142.87798595428467,142.8780882358551,142.881365776062,142.89208960533142,143.04148364067078,143.04148364067078,143.04148364067078,143.04148364067078,143.04148364067078,143.04148364067078,143.04148364067078,144.82777452468872,1,1.926178216934204,None,,,,,,,,,,,,,,,,,,137,1,2025-02-26_16h59.16.731,comp,2024.2.4,58.62035519068403,2025-02-26 16h59.35.438684 -0500,
48,48,0,filler_square,None,None,None,None,None,None,None,None,None,None,3,1.0059754848480225,None,,,,,0,0,0,0,0,48,48,200,144.84503030776978,,,,,,,,,,,,,,,,,,,,,,,,,,,,,,,,,,,,,,,,,,,,,,,,,,,,,,,,,,,,,,,,,,,,,,,,,,,,,,,,,67.45186502550442,59.72663773612668,63.26543596840092,81.87840164615847,104.18939789800017,104.18939789800017,2.2,2.21,-167,-265,0,260,189,254,144.829758644104,144.82983922958374,144.83327102661133,144.84503030776978,144.9990749359131,144.9990749359131,144.9990749359131,144.9990749359131,144.9990749359131,144.9990749359131,144.9990749359131,145.86054921150208,3,1.0059754848480225,None,,,,,,,,,,,,,,,,,,137,1,2025-02-26_16h59.16.731,comp,2024.2.4,58.62035519068403,2025-02-26 16h59.35.438684 -0500,
49,49,0,filler_random,None,None,None,None,None,None,None,None,None,None,3,1.646083116531372,None,,,,,0,0,0,0,0,49,49,165,145.87628602981567,,,,,,,,,,,,,,,,,,,,,,,,,,,,,,,,,,,,,,,,,,,,,,,,,,,,,,,,,,,,,,,,,,,,,,,,,,,,,,,,,108.0967038306077,165.1991356145286,154.15968310651036,61.82434335675407,118.3935457662565,161.75767335494487,2.1,2.11,-210,262,0,251,208,-274,145.86226153373718,145.86234045028687,145.86565375328064,145.87628602981567,146.02812933921814,146.02812933921814,146.02812933921814,146.02812933921814,146.02812933921814,146.02812933921814,146.02812933921814,147.54181933403015,3,1.646083116531372,None,,,,,,,,,,,,,,,,,,137,1,2025-02-26_16h59.16.731,comp,2024.2.4,58.62035519068403,2025-02-26 16h59.35.438684 -0500,
50,50,0,critical,hwd,35.0,2.1,lower,133.0,57.0,57.0,133.0,70.0,70.0,1,2.344841957092285,None,,,,,0,0,0,0,0,50,50,16,147.56217241287231,,,,,,,,,,,,,,,,,,,,,,,,,,,,,,,,,,,,,,,,,,,,,,,,,,,,,,,,,,,,,,,,,,,,,,,,,,,,,,,,,133.0,57.0,57.0,133.0,70.0,70.0,2.1,2.12,-191,-282,0,-284,198,257,147.54347276687622,147.54357290267944,147.5468463897705,147.56217241287231,147.69523239135742,147.69523239135742,147.69523239135742,147.69523239135742,147.69523239135742,147.69523239135742,147.69523239135742,149.91413736343384,1,2.344841957092285,None,,,,,,,,,,,,,,,,,,137,1,2025-02-26_16h59.16.731,comp,2024.2.4,58.62035519068403,2025-02-26 16h59.35.438684 -0500,
51,51,0,critical,wdh,35.0,3.0,lower,57.0,133.0,70.0,70.0,133.0,57.0,3,1.9845225811004639,None,,,,,0,0,0,0,0,51,51,74,149.93010473251343,,,,,,,,,,,,,,,,,,,,,,,,,,,,,,,,,,,,,,,,,,,,,,,,,,,,,,,,,,,,,,,,,,,,,,,,,,,,,,,,,57.0,133.0,70.0,70.0,133.0,57.0,3.0,3.2,-198,-270,0,-11,160,274,149.9162139892578,149.9163463115692,149.91937804222107,149.93010473251343,150.07714128494263,150.07714128494263,150.07714128494263,150.07714128494263,150.07714128494263,150.07714128494263,150.07714128494263,151.92888498306274,3,1.9845225811004639,None,,,,,,,,,,,,,,,,,,137,1,2025-02-26_16h59.16.731,comp,2024.2.4,58.62035519068403,2025-02-26 16h59.35.438684 -0500,
52,52,0,filler_random,None,None,None,None,None,None,None,None,None,None,3,1.7383551597595215,None,,,,,0,0,0,0,0,52,52,151,151.94418907165527,,,,,,,,,,,,,,,,,,,,,,,,,,,,,,,,,,,,,,,,,,,,,,,,,,,,,,,,,,,,,,,,,,,,,,,,,,,,,,,,,61.72104582532805,79.19543059987407,102.73368543994751,186.28388954430636,171.09606802510564,124.44900321383923,2.2,2.21,-229,-275,0,286,251,282,151.93061804771423,151.9306948184967,151.93375873565674,151.94418907165527,152.09404277801514,152.09404277801514,152.09404277801514,152.09404277801514,152.09404277801514,152.09404277801514,152.09404277801514,153.69624090194702,3,1.7383551597595215,None,,,,,,,,,,,,,,,,,,137,1,2025-02-26_16h59.16.731,comp,2024.2.4,58.62035519068403,2025-02-26 16h59.35.438684 -0500,
53,53,0,critical,dhw,20.0,2.1,upper,141.0,141.0,200.0,125.0,125.0,200.0,3,1.6026506423950195,None,,,,,0,0,0,0,0,53,53,3,153.71169066429138,,,,,,,,,,,,,,,,,,,,,,,,,,,,,,,,,,,,,,,,,,,,,,,,,,,,,,,,,,,,,,,,,,,,,,,,,,,,,,,,,141.0,141.0,200.0,125.0,125.0,200.0,2.1,2.12,-229,-276,0,-287,258,275,153.6978714466095,153.69797730445862,153.7014274597168,153.71169066429138,153.8660204410553,153.8660204410553,153.8660204410553,153.8660204410553,153.8660204410553,153.8660204410553,153.8660204410553,155.32962322235107,3,1.6026506423950195,None,,,,,,,,,,,,,,,,,,137,1,2025-02-26_16h59.16.731,comp,2024.2.4,58.62035519068403,2025-02-26 16h59.35.438684 -0500,
54,54,0,filler_random,None,None,None,None,None,None,None,None,None,None,1,2.3812663555145264,None,,,,,0,0,0,0,0,54,54,138,155.34948468208313,,,,,,,,,,,,,,,,,,,,,,,,,,,,,,,,,,,,,,,,,,,,,,,,,,,,,,,,,,,,,,,,,,,,,,,,,,,,,,,,,183.02120505309597,94.84335435594353,150.5352778594942,57.09179979335542,162.0718899422602,181.43820933809587,4.0,4.1,-172,-285,0,-14,215,-258,155.33125948905945,155.3313353061676,155.3345000743866,155.34948468208313,155.49667191505432,155.49667191505432,155.49667191505432,155.49667191505432,155.49667191505432,155.49667191505432,155.49667191505432,157.73389196395874,1,2.3812663555145264,None,,,,,,,,,,,,,,,,,,137,1,2025-02-26_16h59.16.731,comp,2024.2.4,58.62035519068403,2025-02-26 16h59.35.438684 -0500,
55,55,0,critical,whd,20.0,1.0,upper,125.0,200.0,200.0,125.0,141.0,141.0,2,1.5559675693511963,None,,,,,0,0,0,0,0,55,55,91,157.75178408622742,,,,,,,,,,,,,,,,,,,,,,,,,,,,,,,,,,,,,,,,,,,,,,,,,,,,,,,,,,,,,,,,,,,,,,,,,,,,,,,,,125.0,200.0,200.0,125.0,141.0,141.0,1.0,1.3,222,-266,480,-256,709,-277,157.73557472229004,157.7356550693512,157.7385754585266,157.75178408622742,157.89523696899414,157.89523696899414,157.89523696899414,157.89523696899414,157.89523696899414,157.89523696899414,157.89523696899414,159.3137309551239,2,1.5559675693511963,None,,,,,,,,,,,,,,,,,,137,1,2025-02-26_16h59.16.731,comp,2024.2.4,58.62035519068403,2025-02-26 16h59.35.438684 -0500,
56,56,0,critical,wdh,20.0,4.0,upper,125.0,200.0,141.0,141.0,200.0,125.0,3,1.8441431522369385,None,,,,,0,0,0,0,0,56,56,83,159.33462858200073,,,,,,,,,,,,,,,,,,,,,,,,,,,,,,,,,,,,,,,,,,,,,,,,,,,,,,,,,,,,,,,,,,,,,,,,,,,,,,,,,125.0,200.0,141.0,141.0,200.0,125.0,4.0,4.1,-266,-270,0,-13,229,-254,159.31534028053284,159.31541752815247,159.31870031356812,159.33462858200073,159.48109102249146,159.48109102249146,159.48109102249146,159.48109102249146,159.48109102249146,159.48109102249146,159.48109102249146,161.19705247879028,3,1.8441431522369385,None,,,,,,,,,,,,,,,,,,137,1,2025-02-26_16h59.16.731,comp,2024.2.4,58.62035519068403,2025-02-26 16h59.35.438684 -0500,
57,57,0,filler_random,None,None,None,None,None,None,None,None,None,None,1,1.0868549346923828,None,,,,,0,0,0,0,0,57,57,157,161.21169018745422,,,,,,,,,,,,,,,,,,,,,,,,,,,,,,,,,,,,,,,,,,,,,,,,,,,,,,,,,,,,,,,,,,,,,,,,,,,,,,,,,180.09561270930243,180.08091961180503,122.5291289984534,80.7657677434679,68.2963906971543,160.0708672109015,2.2,2.22,-226,275,0,-257,216,-259,161.1987190246582,161.198796749115,161.20174288749695,161.21169018745422,161.3674488067627,161.3674488067627,161.3674488067627,161.3674488067627,161.3674488067627,161.3674488067627,161.3674488067627,162.30064702033997,1,1.0868549346923828,None,,,,,,,,,,,,,,,,,,137,1,2025-02-26_16h59.16.731,comp,2024.2.4,58.62035519068403,2025-02-26 16h59.35.438684 -0500,
58,58,0,filler_random,None,None,None,None,None,None,None,None,None,None,3,1.1703252792358398,None,,,,,0,0,0,0,0,58,58,146,162.32076168060303,,,,,,,,,,,,,,,,,,,,,,,,,,,,,,,,,,,,,,,,,,,,,,,,,,,,,,,,,,,,,,,,,,,,,,,,,,,,,,,,,87.39050136025071,83.38033564994129,143.09991300694497,177.1518413103584,190.0859010510584,184.41776220207964,2.1,2.11,-226,253,0,257,277,-259,162.3024137020111,162.30249118804932,162.305321931839,162.32076168060303,162.46527981758118,162.46527981758118,162.46527981758118,162.46527981758118,162.46527981758118,162.46527981758118,162.46527981758118,163.49778962135315,3,1.1703252792358398,None,,,,,,,,,,,,,,,,,,137,1,2025-02-26_16h59.16.731,comp,2024.2.4,58.62035519068403,2025-02-26 16h59.35.438684 -0500,
59,59,0,filler_square,None,None,None,None,None,None,None,None,None,None,3,1.041212797164917,None,,,,,0,0,0,0,0,59,59,183,163.5142958164215,,,,,,,,,,,,,,,,,,,,,,,,,,,,,,,,,,,,,,,,,,,,,,,,,,,,,,,,,,,,,,,,,,,,,,,,,,,,,,,,,127.17421903768134,74.4710636733068,62.43739006989428,141.67603357357737,146.21323545568436,146.21323545568436,4.0,4.1,-204,-261,0,-5,240,-275,163.49955010414124,163.4996268749237,163.50255823135376,163.5142958164215,163.65354585647583,163.65354585647583,163.65354585647583,163.65354585647583,163.65354585647583,163.65354585647583,163.65354585647583,164.5674831867218,3,1.041212797164917,None,,,,,,,,,,,,,,,,,,137,1,2025-02-26_16h59.16.731,comp,2024.2.4,58.62035519068403,2025-02-26 16h59.35.438684 -0500,
60,60,0,critical,hwd,20.0,4.0,lower,133.0,57.0,57.0,133.0,78.0,78.0,2,2.0120174884796143,None,,,,,0,0,0,0,0,60,60,106,164.5829086303711,,,,,,,,,,,,,,,,,,,,,,,,,,,,,,,,,,,,,,,,,,,,,,,,,,,,,,,,,,,,,,,,,,,,,,,,,,,,,,,,,133.0,57.0,57.0,133.0,78.0,78.0,4.0,4.1,-191,-257,0,15,202,-273,164.56887984275818,164.5689573287964,164.5723044872284,164.5829086303711,164.73075437545776,164.73075437545776,164.73075437545776,164.73075437545776,164.73075437545776,164.73075437545776,164.73075437545776,166.60026359558105,2,2.0120174884796143,None,,,,,,,,,,,,,,,,,,137,1,2025-02-26_16h59.16.731,comp,2024.2.4,58.62035519068403,2025-02-26 16h59.35.438684 -0500,
61,61,0,critical,dhw,35.0,4.0,lower,70.0,70.0,133.0,57.0,57.0,133.0,3,1.4103736877441406,None,,,,,0,0,0,0,0,61,61,52,166.61637377738953,,,,,,,,,,,,,,,,,,,,,,,,,,,,,,,,,,,,,,,,,,,,,,,,,,,,,,,,,,,,,,,,,,,,,,,,,,,,,,,,,70.0,70.0,133.0,57.0,57.0,133.0,4.0,4.1,-160,-284,0,10,191,-258,166.60181140899658,166.60188913345337,166.6052348613739,166.61637377738953,166.76803374290466,166.76803374290466,166.76803374290466,166.76803374290466,166.76803374290466,166.76803374290466,166.76803374290466,168.03581428527832,3,1.4103736877441406,None,,,,,,,,,,,,,,,,,,137,1,2025-02-26_16h59.16.731,comp,2024.2.4,58.62035519068403,2025-02-26 16h59.35.438684 -0500,
62,62,0,filler_random,None,None,None,None,None,None,None,None,None,None,3,1.3649587631225586,None,,,,,0,0,0,0,0,62,62,137,168.05358982086182,,,,,,,,,,,,,,,,,,,,,,,,,,,,,,,,,,,,,,,,,,,,,,,,,,,,,,,,,,,,,,,,,,,,,,,,,,,,,,,,,89.97607182028663,106.41736405150338,94.96606873120305,111.03669689491183,145.0183017353284,120.96100164174263,2.1,2.12,-205,-275,0,-269,212,275,168.03759145736694,168.0376706123352,168.04065895080566,168.05358982086182,168.2009003162384,168.2009003162384,168.2009003162384,168.2009003162384,168.2009003162384,168.2009003162384,168.2009003162384,169.42059922218323,3,1.3649587631225586,None,,,,,,,,,,,,,,,,,,137,1,2025-02-26_16h59.16.731,comp,2024.2.4,58.62035519068403,2025-02-26 16h59.35.438684 -0500,
63,63,0,critical,wdh,35.0,3.0,upper,125.0,200.0,127.0,127.0,200.0,125.0,1,1.7955400943756104,None,,,,,0,0,0,0,0,63,63,75,169.43904185295105,,,,,,,,,,,,,,,,,,,,,,,,,,,,,,,,,,,,,,,,,,,,,,,,,,,,,,,,,,,,,,,,,,,,,,,,,,,,,,,,,125.0,200.0,127.0,127.0,200.0,125.0,3.0,3.2,-260,-277,0,14,222,257,169.42258095741272,169.42271423339844,169.42568516731262,169.43904185295105,169.58420705795288,169.58420705795288,169.58420705795288,169.58420705795288,169.58420705795288,169.58420705795288,169.58420705795288,171.23910069465637,1,1.7955400943756104,None,,,,,,,,,,,,,,,,,,137,1,2025-02-26_16h59.16.731,comp,2024.2.4,58.62035519068403,2025-02-26 16h59.35.438684 -0500,
64,64,0,critical,hwd,35.0,4.0,lower,133.0,57.0,57.0,133.0,70.0,70.0,2,1.3910925388336182,None,,,,,0,0,0,0,0,64,64,100,171.25928258895874,,,,,,,,,,,,,,,,,,,,,,,,,,,,,,,,,,,,,,,,,,,,,,,,,,,,,,,,,,,,,,,,,,,,,,,,,,,,,,,,,133.0,57.0,57.0,133.0,70.0,70.0,4.0,4.1,-191,-286,0,1,198,-280,171.24068975448608,171.24076867103577,171.2436707019806,171.25928258895874,171.40153980255127,171.40153980255127,171.40153980255127,171.40153980255127,171.40153980255127,171.40153980255127,171.40153980255127,172.66312980651855,2,1.3910925388336182,None,,,,,,,,,,,,,,,,,,137,1,2025-02-26_16h59.16.731,comp,2024.2.4,58.62035519068403,2025-02-26 16h59.35.438684 -0500,
65,65,0,catch,None,None,None,None,None,None,None,None,None,None,1,1.3529913425445557,None,,,,,0,0,0,0,0,65,65,128,172.681499004364,,,,,,,,,,,,,,,,,,,,,,,,,,,,,,,,,,,,,,,,,,,,,,,,,,,,,,,,,,,,,,,,,,,,,,,,,,,,,,,,,184,141,116,74,73,117,2.2,2.21,-204,-255,0,260,192,260,172.66522598266602,172.66530680656433,172.66855144500732,172.681499004364,172.81979322433472,172.81979322433472,172.81979322433472,172.81979322433472,172.81979322433472,172.81979322433472,172.81979322433472,174.036550283432,1,1.3529913425445557,None,,,,,,,,,,,,,,,,,,137,1,2025-02-26_16h59.16.731,comp,2024.2.4,58.62035519068403,2025-02-26 16h59.35.438684 -0500,
66,66,0,critical,dwh,20.0,2.1,upper,141.0,141.0,125.0,200.0,200.0,125.0,3,1.483424425125122,None,,,,,0,0,0,0,0,66,66,7,174.05493307113647,,,,,,,,,,,,,,,,,,,,,,,,,,,,,,,,,,,,,,,,,,,,,,,,,,,,,,,,,,,,,,,,,,,,,,,,,,,,,,,,,141.0,141.0,125.0,200.0,200.0,125.0,2.1,2.11,-266,269,0,272,258,-274,174.0381371974945,174.0382149219513,174.04170274734497,174.05493307113647,174.20378804206848,174.20378804206848,174.20378804206848,174.20378804206848,174.20378804206848,174.20378804206848,174.20378804206848,175.55623769760132,3,1.483424425125122,None,,,,,,,,,,,,,,,,,,137,1,2025-02-26_16h59.16.731,comp,2024.2.4,58.62035519068403,2025-02-26 16h59.35.438684 -0500,
67,67,0,filler_random,None,None,None,None,None,None,None,None,None,None,2,1.436601161956787,None,,,,,0,0,0,0,0,67,67,140,175.57466197013855,,,,,,,,,,,,,,,,,,,,,,,,,,,,,,,,,,,,,,,,,,,,,,,,,,,,,,,,,,,,,,,,,,,,,,,,,,,,,,,,,98.23901010990416,175.07198004817127,193.62576472825114,176.12216893672212,161.56929452900147,170.9840343745458,1.0,1.2,-272,-3,0,-2,270,-16,175.5583689212799,175.55849814414978,175.5613932609558,175.57466197013855,175.7196400165558,175.7196400165558,175.7196400165558,175.7196400165558,175.7196400165558,175.7196400165558,175.7196400165558,177.02077555656433,2,1.436601161956787,None,,,,,,,,,,,,,,,,,,137,1,2025-02-26_16h59.16.731,comp,2024.2.4,58.62035519068403,2025-02-26 16h59.35.438684 -0500,
68,68,0,catch,None,None,None,None,None,None,None,None,None,None,3,1.1981756687164307,None,,,,,0,0,0,0,0,68,68,126,177.03678274154663,,,,,,,,,,,,,,,,,,,,,,,,,,,,,,,,,,,,,,,,,,,,,,,,,,,,,,,,,,,,,,,,,,,,,,,,,,,,,,,,,107,83,119,71,171,154,3.0,3.2,-173,-258,0,11,208,266,177.02272582054138,177.02280592918396,177.02616000175476,177.03678274154663,177.19402718544006,177.19402718544006,177.19402718544006,177.19402718544006,177.19402718544006,177.19402718544006,177.19402718544006,178.25332880020142,3,1.1981756687164307,None,,,,,,,,,,,,,,,,,,137,1,2025-02-26_16h59.16.731,comp,2024.2.4,58.62035519068403,2025-02-26 16h59.35.438684 -0500,
69,69,0,filler_square,None,None,None,None,None,None,None,None,None,None,3,1.6695332527160645,None,,,,,0,0,0,0,0,69,69,174,178.26917457580566,,,,,,,,,,,,,,,,,,,,,,,,,,,,,,,,,,,,,,,,,,,,,,,,,,,,,,,,,,,,,,,,,,,,,,,,,,,,,,,,,66.97123776712986,74.67102162590902,58.3175766184454,64.82429305825194,77.26983517488749,77.26983517488749,2.1,2.12,-166,-261,0,-259,167,262,178.25494384765625,178.25503969192505,178.25808358192444,178.26917457580566,178.42028498649597,178.42028498649597,178.42028498649597,178.42028498649597,178.42028498649597,178.42028498649597,178.42028498649597,179.94397401809692,3,1.6695332527160645,None,,,,,,,,,,,,,,,,,,137,1,2025-02-26_16h59.16.731,comp,2024.2.4,58.62035519068403,2025-02-26 16h59.35.438684 -0500,
70,70,0,filler_random,None,None,None,None,None,None,None,None,None,None,3,1.3927433490753174,None,,,,,0,0,0,0,0,70,70,167,179.96178817749023,,,,,,,,,,,,,,,,,,,,,,,,,,,,,,,,,,,,,,,,,,,,,,,,,,,,,,,,,,,,,,,,,,,,,,,,,,,,,,,,,137.7420360680888,129.79182922121777,77.59707037048034,180.69605630615345,144.943787455517,183.90232841511602,2.1,2.12,-251,-280,0,-256,278,263,179.94568371772766,179.94576144218445,179.94865202903748,179.96178817749023,180.10506582260132,180.10506582260132,180.10506582260132,180.10506582260132,180.10506582260132,180.10506582260132,180.10506582260132,181.37150168418884,3,1.3927433490753174,None,,,,,,,,,,,,,,,,,,137,1,2025-02-26_16h59.16.731,comp,2024.2.4,58.62035519068403,2025-02-26 16h59.35.438684 -0500,
71,71,0,critical,dhw,35.0,2.1,lower,70.0,70.0,133.0,57.0,57.0,133.0,2,1.7596094608306885,None,,,,,0,0,0,0,0,71,71,0,181.38684463500977,,,,,,,,,,,,,,,,,,,,,,,,,,,,,,,,,,,,,,,,,,,,,,,,,,,,,,,,,,,,,,,,,,,,,,,,,,,,,,,,,70.0,70.0,133.0,57.0,57.0,133.0,2.1,2.11,-160,262,0,281,191,-279,181.37300944328308,181.37310552597046,181.3764410018921,181.38684463500977,181.53678607940674,181.53678607940674,181.53678607940674,181.53678607940674,181.53678607940674,181.53678607940674,181.53678607940674,183.15558171272278,2,1.7596094608306885,None,,,,,,,,,,,,,,,,,,137,1,2025-02-26_16h59.16.731,comp,2024.2.4,58.62035519068403,2025-02-26 16h59.35.438684 -0500,
72,72,0,filler_random,None,None,None,None,None,None,None,None,None,None,3,1.1278917789459229,None,,,,,0,0,0,0,0,72,72,159,183.17141723632812,,,,,,,,,,,,,,,,,,,,,,,,,,,,,,,,,,,,,,,,,,,,,,,,,,,,,,,,,,,,,,,,,,,,,,,,,,,,,,,,,70.48931044434613,134.23424763985645,153.80043655868974,83.01912835393648,122.25943819090492,179.6897146134462,2.1,2.11,-205,267,0,259,227,-257,183.1572334766388,183.15731072425842,183.16070103645325,183.17141723632812,183.31951141357422,183.31951141357422,183.31951141357422,183.31951141357422,183.31951141357422,183.31951141357422,183.31951141357422,184.30593180656433,3,1.1278917789459229,None,,,,,,,,,,,,,,,,,,137,1,2025-02-26_16h59.16.731,comp,2024.2.4,58.62035519068403,2025-02-26 16h59.35.438684 -0500,
73,73,0,filler_random,None,None,None,None,None,None,None,None,None,None,1,1.376357078552246,None,,,,,0,0,0,0,0,73,73,154,184.322083234787,,,,,,,,,,,,,,,,,,,,,,,,,,,,,,,,,,,,,,,,,,,,,,,,,,,,,,,,,,,,,,,,,,,,,,,,,,,,,,,,,196.37112337515734,195.8705985806236,153.9908618937166,189.84083423614376,184.3354848843163,138.74245599876502,2.1,2.11,-289,260,0,254,260,-251,184.3077266216278,184.30780482292175,184.31124305725098,184.322083234787,184.47278881072998,184.47278881072998,184.47278881072998,184.47278881072998,184.47278881072998,184.47278881072998,184.47278881072998,185.71556758880615,1,1.376357078552246,None,,,,,,,,,,,,,,,,,,137,1,2025-02-26_16h59.16.731,comp,2024.2.4,58.62035519068403,2025-02-26 16h59.35.438684 -0500,
74,74,0,critical,hwd,20.0,4.0,upper,200.0,125.0,125.0,200.0,141.0,141.0,2,1.0431008338928223,None,,,,,0,0,0,0,0,74,74,107,185.735337972641,,,,,,,,,,,,,,,,,,,,,,,,,,,,,,,,,,,,,,,,,,,,,,,,,,,,,,,,,,,,,,,,,,,,,,,,,,,,,,,,,200.0,125.0,125.0,200.0,141.0,141.0,4.0,4.1,-258,-281,0,4,266,-279,185.71710920333862,185.71718573570251,185.720112323761,185.735337972641,185.874205827713,185.874205827713,185.874205827713,185.874205827713,185.874205827713,185.874205827713,185.874205827713,186.79963517189026,2,1.0431008338928223,None,,,,,,,,,,,,,,,,,,137,1,2025-02-26_16h59.16.731,comp,2024.2.4,58.62035519068403,2025-02-26 16h59.35.438684 -0500,
75,75,0,critical,dwh,35.0,1.0,lower,70.0,70.0,57.0,133.0,133.0,57.0,3,1.3759427070617676,None,,,,,0,0,0,0,0,75,75,60,186.8192641735077,,,,,,,,,,,,,,,,,,,,,,,,,,,,,,,,,,,,,,,,,,,,,,,,,,,,,,,,,,,,,,,,,,,,,,,,,,,,,,,,,70.0,70.0,57.0,133.0,133.0,57.0,1.0,1.2,-198,-10,0,-12,191,-19,186.80104756355286,186.80113697052002,186.80394983291626,186.8192641735077,186.95734548568726,186.95734548568726,186.95734548568726,186.95734548568726,186.95734548568726,186.95734548568726,186.95734548568726,188.21182775497437,3,1.3759427070617676,None,,,,,,,,,,,,,,,,,,137,1,2025-02-26_16h59.16.731,comp,2024.2.4,58.62035519068403,2025-02-26 16h59.35.438684 -0500,
76,76,0,critical,whd,20.0,4.0,lower,57.0,133.0,133.0,57.0,78.0,78.0,1,1.9894607067108154,None,,,,,0,0,0,0,0,76,76,94,188.22933673858643,,,,,,,,,,,,,,,,,,,,,,,,,,,,,,,,,,,,,,,,,,,,,,,,,,,,,,,,,,,,,,,,,,,,,,,,,,,,,,,,,57.0,133.0,133.0,57.0,78.0,78.0,4.0,4.1,-191,-250,0,10,164,-269,188.2133207321167,188.21339774131775,188.21627521514893,188.22933673858643,188.3723340034485,188.3723340034485,188.3723340034485,188.3723340034485,188.3723340034485,188.3723340034485,188.3723340034485,190.2264804840088,1,1.9894607067108154,None,,,,,,,,,,,,,,,,,,137,1,2025-02-26_16h59.16.731,comp,2024.2.4,58.62035519068403,2025-02-26 16h59.35.438684 -0500,
77,77,0,filler_square,None,None,None,None,None,None,None,None,None,None,1,1.5760009288787842,None,,,,,0,0,0,0,0,77,77,176,190.24309372901917,,,,,,,,,,,,,,,,,,,,,,,,,,,,,,,,,,,,,,,,,,,,,,,,,,,,,,,,,,,,,,,,,,,,,,,,,,,,,,,,,194.3753802421122,194.3753802421122,165.10475735567715,114.75898204079489,142.55788480807507,111.43316843775258,1.0,1.2,-251,-9,0,15,209,14,190.22844815254211,190.2285294532776,190.23234009742737,190.24309372901917,190.39576601982117,190.39576601982117,190.39576601982117,190.39576601982117,190.39576601982117,190.39576601982117,190.39576601982117,191.8245816230774,1,1.5760009288787842,None,,,,,,,,,,,,,,,,,,137,1,2025-02-26_16h59.16.731,comp,2024.2.4,58.62035519068403,2025-02-26 16h59.35.438684 -0500,
78,78,0,critical,dwh,35.0,3.0,lower,70.0,70.0,57.0,133.0,133.0,57.0,3,1.3063523769378662,None,,,,,0,0,0,0,0,78,78,62,191.84009504318237,,,,,,,,,,,,,,,,,,,,,,,,,,,,,,,,,,,,,,,,,,,,,,,,,,,,,,,,,,,,,,,,,,,,,,,,,,,,,,,,,70.0,70.0,57.0,133.0,133.0,57.0,3.0,3.1,-198,269,0,-8,191,-271,191.82606101036072,191.82613897323608,191.82937860488892,191.84009504318237,191.9900884628296,191.9900884628296,191.9900884628296,191.9900884628296,191.9900884628296,191.9900884628296,191.9900884628296,193.14992141723633,3,1.3063523769378662,None,,,,,,,,,,,,,,,,,,137,1,2025-02-26_16h59.16.731,comp,2024.2.4,58.62035519068403,2025-02-26 16h59.35.438684 -0500,
79,79,0,filler_random,None,None,None,None,None,None,None,None,None,None,3,1.210505485534668,None,,,,,0,0,0,0,0,79,79,164,193.16809582710266,,,,,,,,,,,,,,,,,,,,,,,,,,,,,,,,,,,,,,,,,,,,,,,,,,,,,,,,,,,,,,,,,,,,,,,,,,,,,,,,,100.4664929393362,123.83619717999908,74.32859707163163,174.12311744400898,181.52132461632968,127.90296198147136,1.0,1.2,-245,-16,0,2,247,-16,193.1516830921173,193.1518156528473,193.1550281047821,193.16809582710266,193.30997276306152,193.30997276306152,193.30997276306152,193.30997276306152,193.30997276306152,193.30997276306152,193.30997276306152,194.39289927482605,3,1.210505485534668,None,,,,,,,,,,,,,,,,,,137,1,2025-02-26_16h59.16.731,comp,2024.2.4,58.62035519068403,2025-02-26 16h59.35.438684 -0500,
80,80,0,critical,wdh,20.0,2.1,lower,57.0,133.0,78.0,78.0,133.0,57.0,3,1.8020658493041992,None,,,,,0,0,0,0,0,80,80,10,194.40903067588806,,,,,,,,,,,,,,,,,,,,,,,,,,,,,,,,,,,,,,,,,,,,,,,,,,,,,,,,,,,,,,,,,,,,,,,,,,,,,,,,,57.0,133.0,78.0,78.0,133.0,57.0,2.1,2.11,-202,281,0,284,164,-282,194.3945188522339,194.39459323883057,194.3987021446228,194.40903067588806,194.55929732322693,194.55929732322693,194.55929732322693,194.55929732322693,194.55929732322693,194.55929732322693,194.55929732322693,196.21417498588562,3,1.8020658493041992,None,,,,,,,,,,,,,,,,,,137,1,2025-02-26_16h59.16.731,comp,2024.2.4,58.62035519068403,2025-02-26 16h59.35.438684 -0500,
81,81,0,filler_random,None,None,None,None,None,None,None,None,None,None,2,1.4529967308044434,None,,,,,0,0,0,0,0,81,81,153,196.2298698425293,,,,,,,,,,,,,,,,,,,,,,,,,,,,,,,,,,,,,,,,,,,,,,,,,,,,,,,,,,,,,,,,,,,,,,,,,,,,,,,,,189.80629709356955,69.67232233171859,161.48386233110347,142.02502538305077,146.63987536921343,100.25646664325731,2.2,2.22,-202,279,0,-253,217,-258,196.21584582328796,196.21592330932617,196.21881699562073,196.2298698425293,196.38210535049438,196.38210535049438,196.38210535049438,196.38210535049438,196.38210535049438,196.38210535049438,196.38210535049438,197.69795083999634,2,1.4529967308044434,None,,,,,,,,,,,,,,,,,,137,1,2025-02-26_16h59.16.731,comp,2024.2.4,58.62035519068403,2025-02-26 16h59.35.438684 -0500,
82,82,0,critical,wdh,35.0,1.0,upper,125.0,200.0,127.0,127.0,200.0,125.0,1,1.3650753498077393,None,,,,,0,0,0,0,0,82,82,73,197.71752882003784,,,,,,,,,,,,,,,,,,,,,,,,,,,,,,,,,,,,,,,,,,,,,,,,,,,,,,,,,,,,,,,,,,,,,,,,,,,,,,,,,125.0,200.0,127.0,127.0,200.0,125.0,1.0,1.3,220,-286,480,-286,702,-272,197.69993209838867,197.7000322341919,197.70285415649414,197.71752882003784,197.85991835594177,197.85991835594177,197.85991835594177,197.85991835594177,197.85991835594177,197.85991835594177,197.85991835594177,199.1011302471161,1,1.3650753498077393,None,,,,,,,,,,,,,,,,,,137,1,2025-02-26_16h59.16.731,comp,2024.2.4,58.62035519068403,2025-02-26 16h59.35.438684 -0500,
83,83,0,filler_random,None,None,None,None,None,None,None,None,None,None,2,0.9423964023590088,None,,,,,0,0,0,0,0,83,83,166,199.11602592468262,,,,,,,,,,,,,,,,,,,,,,,,,,,,,,,,,,,,,,,,,,,,,,,,,,,,,,,,,,,,,,,,,,,,,,,,,,,,,,,,,112.44903519392533,86.33464401078768,156.84950718835643,146.3404278997487,118.4465493561858,89.8110639568365,3.0,3.1,-212,284,0,18,214,-254,199.1027524471283,199.10282945632935,199.10563468933105,199.11602592468262,199.26046133041382,199.26046133041382,199.26046133041382,199.26046133041382,199.26046133041382,199.26046133041382,199.26046133041382,200.07592606544495,2,0.9423964023590088,None,,,,,,,,,,,,,,,,,,137,1,2025-02-26_16h59.16.731,comp,2024.2.4,58.62035519068403,2025-02-26 16h59.35.438684 -0500,
84,84,0,critical,whd,20.0,3.0,lower,57.0,133.0,133.0,57.0,78.0,78.0,1,2.6308298110961914,None,,,,,0,0,0,0,0,84,84,92,200.09226417541504,,,,,,,,,,,,,,,,,,,,,,,,,,,,,,,,,,,,,,,,,,,,,,,,,,,,,,,,,,,,,,,,,,,,,,,,,,,,,,,,,57.0,133.0,133.0,57.0,78.0,78.0,3.0,3.2,-191,-268,0,-19,164,279,200.07758927345276,200.0776662826538,200.0809760093689,200.09226417541504,200.23314905166626,200.23314905166626,200.23314905166626,200.23314905166626,200.23314905166626,200.23314905166626,200.23314905166626,202.7284061908722,1,2.6308298110961914,None,,,,,,,,,,,,,,,,,,137,1,2025-02-26_16h59.16.731,comp,2024.2.4,58.62035519068403,2025-02-26 16h59.35.438684 -0500,
85,85,0,catch,None,None,None,None,None,None,None,None,None,None,3,0.8328859806060791,None,,,,,0,0,0,0,0,85,85,125,202.74551391601562,,,,,,,,,,,,,,,,,,,,,,,,,,,,,,,,,,,,,,,,,,,,,,,,,,,,,,,,,,,,,,,,,,,,,,,,,,,,,,,,,110,80,94,96,191,134,4.0,4.2,-184,-10,0,-257,211,12,202.73054957389832,202.7306296825409,202.73463416099548,202.74551391601562,202.89270567893982,202.89270567893982,202.89270567893982,202.89270567893982,202.89270567893982,202.89270567893982,202.89270567893982,203.59451842308044,3,0.8328859806060791,None,,,,,,,,,,,,,,,,,,137,1,2025-02-26_16h59.16.731,comp,2024.2.4,58.62035519068403,2025-02-26 16h59.35.438684 -0500,
86,86,0,critical,dwh,20.0,1.0,lower,78.0,78.0,57.0,133.0,133.0,57.0,2,1.9360425472259521,None,,,,,0,0,0,0,0,86,86,66,203.61037945747375,,,,,,,,,,,,,,,,,,,,,,,,,,,,,,,,,,,,,,,,,,,,,,,,,,,,,,,,,,,,,,,,,,,,,,,,,,,,,,,,,78.0,78.0,57.0,133.0,133.0,57.0,1.0,1.3,278,-269,480,-286,671,-263,203.5959780216217,203.59609508514404,203.59913206100464,203.61037945747375,203.75995206832886,203.75995206832886,203.75995206832886,203.75995206832886,203.75995206832886,203.75995206832886,203.75995206832886,205.56116604804993,2,1.9360425472259521,None,,,,,,,,,,,,,,,,,,137,1,2025-02-26_16h59.16.731,comp,2024.2.4,58.62035519068403,2025-02-26 16h59.35.438684 -0500,
87,87,0,critical,dhw,35.0,1.0,lower,70.0,70.0,133.0,57.0,57.0,133.0,2,1.1378662586212158,None,,,,,0,0,0,0,0,87,87,48,205.5766363143921,,,,,,,,,,,,,,,,,,,,,,,,,,,,,,,,,,,,,,,,,,,,,,,,,,,,,,,,,,,,,,,,,,,,,,,,,,,,,,,,,70.0,70.0,133.0,57.0,57.0,133.0,1.0,1.2,-160,15,0,-3,191,0,205.5625672340393,205.56264448165894,205.5656704902649,205.5766363143921,205.7252814769745,205.7252814769745,205.7252814769745,205.7252814769745,205.7252814769745,205.7252814769745,205.7252814769745,206.73020434379578,2,1.1378662586212158,None,,,,,,,,,,,,,,,,,,137,1,2025-02-26_16h59.16.731,comp,2024.2.4,58.62035519068403,2025-02-26 16h59.35.438684 -0500,
88,88,0,critical,hwd,35.0,1.0,lower,133.0,57.0,57.0,133.0,70.0,70.0,2,1.0470244884490967,None,,,,,0,0,0,0,0,88,88,96,206.74803376197815,,,,,,,,,,,,,,,,,,,,,,,,,,,,,,,,,,,,,,,,,,,,,,,,,,,,,,,,,,,,,,,,,,,,,,,,,,,,,,,,,133.0,57.0,57.0,133.0,70.0,70.0,1.0,1.1,-671,287,-480,255,-282,282,206.73170733451843,206.73178219795227,206.73495864868164,206.74803376197815,206.9010467529297,206.9010467529297,206.9010467529297,206.9010467529297,206.9010467529297,206.9010467529297,206.9010467529297,207.7974569797516,2,1.0470244884490967,None,,,,,,,,,,,,,,,,,,137,1,2025-02-26_16h59.16.731,comp,2024.2.4,58.62035519068403,2025-02-26 16h59.35.438684 -0500,
89,89,0,filler_random,None,None,None,None,None,None,None,None,None,None,1,0.9581210613250732,None,,,,,0,0,0,0,0,89,89,160,207.81297898292542,,,,,,,,,,,,,,,,,,,,,,,,,,,,,,,,,,,,,,,,,,,,,,,,,,,,,,,,,,,,,,,,,,,,,,,,,,,,,,,,,192.05181503506594,174.05690510318738,119.91715409215927,82.35696431215482,116.2406727928772,128.5291758841341,4.0,4.2,-224,19,0,-279,201,-9,207.7991874217987,207.79927396774292,207.80235028266907,207.81297898292542,207.96280908584595,207.96280908584595,207.96280908584595,207.96280908584595,207.96280908584595,207.96280908584595,207.96280908584595,208.78032803535461,1,0.9581210613250732,None,,,,,,,,,,,,,,,,,,137,1,2025-02-26_16h59.16.731,comp,2024.2.4,58.62035519068403,2025-02-26 16h59.35.438684 -0500,
90,90,0,critical,hdw,35.0,1.0,lower,133.0,57.0,70.0,70.0,57.0,133.0,3,0.9753952026367188,None,,,,,0,0,0,0,0,90,90,108,208.79595804214478,,,,,,,,,,,,,,,,,,,,,,,,,,,,,,,,,,,,,,,,,,,,,,,,,,,,,,,,,,,,,,,,,,,,,,,,,,,,,,,,,133.0,57.0,70.0,70.0,57.0,133.0,1.0,1.1,-640,255,-480,277,-282,279,208.78187584877014,208.7819550037384,208.78530859947205,208.79595804214478,208.94679713249207,208.94679713249207,208.94679713249207,208.94679713249207,208.94679713249207,208.94679713249207,208.94679713249207,209.7808380126953,3,0.9753952026367188,None,,,,,,,,,,,,,,,,,,137,1,2025-02-26_16h59.16.731,comp,2024.2.4,58.62035519068403,2025-02-26 16h59.35.438684 -0500,
91,91,0,critical,wdh,35.0,1.0,lower,57.0,133.0,70.0,70.0,133.0,57.0,1,1.1426887512207031,None,,,,,0,0,0,0,0,91,91,72,209.79641461372375,,,,,,,,,,,,,,,,,,,,,,,,,,,,,,,,,,,,,,,,,,,,,,,,,,,,,,,,,,,,,,,,,,,,,,,,,,,,,,,,,57.0,133.0,70.0,70.0,133.0,57.0,1.0,1.2,-198,3,0,13,160,2,209.7823781967163,209.782457113266,209.78576946258545,209.79641461372375,209.9462411403656,209.9462411403656,209.9462411403656,209.9462411403656,209.9462411403656,209.9462411403656,209.9462411403656,210.94767832756042,1,1.1426887512207031,None,,,,,,,,,,,,,,,,,,137,1,2025-02-26_16h59.16.731,comp,2024.2.4,58.62035519068403,2025-02-26 16h59.35.438684 -0500,
92,92,0,filler_square,None,None,None,None,None,None,None,None,None,None,2,1.0463407039642334,None,,,,,0,0,0,0,0,92,92,172,210.96477603912354,,,,,,,,,,,,,,,,,,,,,,,,,,,,,,,,,,,,,,,,,,,,,,,,,,,,,,,,,,,,,,,,,,,,,,,,,,,,,,,,,97.71491330400212,127.00165875832015,136.39198686501226,136.39198686501226,89.60204027649388,89.17649707154965,4.0,4.2,-228,3,0,-263,209,-18,210.94956588745117,210.9496991634369,210.95342588424683,210.96477603912354,211.1182599067688,211.1182599067688,211.1182599067688,211.1182599067688,211.1182599067688,211.1182599067688,211.1182599067688,212.01480722427368,2,1.0463407039642334,None,,,,,,,,,,,,,,,,,,137,1,2025-02-26_16h59.16.731,comp,2024.2.4,58.62035519068403,2025-02-26 16h59.35.438684 -0500,
93,93,0,critical,dhw,20.0,4.0,lower,78.0,78.0,133.0,57.0,57.0,133.0,3,1.7872929573059082,None,,,,,0,0,0,0,0,93,93,58,212.03128623962402,,,,,,,,,,,,,,,,,,,,,,,,,,,,,,,,,,,,,,,,,,,,,,,,,,,,,,,,,,,,,,,,,,,,,,,,,,,,,,,,,78.0,78.0,133.0,57.0,57.0,133.0,4.0,4.1,-164,-286,0,7,191,-269,212.0163025856018,212.01638078689575,212.0203504562378,212.03128623962402,212.18797826766968,212.18797826766968,212.18797826766968,212.18797826766968,212.18797826766968,212.18797826766968,212.18797826766968,213.8320906162262,3,1.7872929573059082,None,,,,,,,,,,,,,,,,,,137,1,2025-02-26_16h59.16.731,comp,2024.2.4,58.62035519068403,2025-02-26 16h59.35.438684 -0500,
94,94,0,critical,hdw,20.0,2.1,upper,200.0,125.0,141.0,141.0,125.0,200.0,3,1.3065814971923828,None,,,,,0,0,0,0,0,94,94,47,213.8479254245758,,,,,,,,,,,,,,,,,,,,,,,,,,,,,,,,,,,,,,,,,,,,,,,,,,,,,,,,,,,,,,,,,,,,,,,,,,,,,,,,,200.0,125.0,141.0,141.0,125.0,200.0,2.1,2.11,-229,278,0,289,266,-288,213.83360528945923,213.83368372917175,213.83762288093567,213.8479254245758,213.99642252922058,213.99642252922058,213.99642252922058,213.99642252922058,213.99642252922058,213.99642252922058,213.99642252922058,215.16750693321228,3,1.3065814971923828,None,,,,,,,,,,,,,,,,,,137,1,2025-02-26_16h59.16.731,comp,2024.2.4,58.62035519068403,2025-02-26 16h59.35.438684 -0500,
95,95,0,critical,dhw,20.0,2.1,upper,141.0,141.0,200.0,125.0,125.0,200.0,2,2.1683990955352783,None,,,,,0,0,0,0,0,95,95,27,215.18593883514404,,,,,,,,,,,,,,,,,,,,,,,,,,,,,,,,,,,,,,,,,,,,,,,,,,,,,,,,,,,,,,,,,,,,,,,,,,,,,,,,,141.0,141.0,200.0,125.0,125.0,200.0,2.1,2.11,-229,261,0,277,258,-288,215.1691176891327,215.16919660568237,215.1725881099701,215.18593883514404,215.33016681671143,215.33016681671143,215.33016681671143,215.33016681671143,215.33016681671143,215.33016681671143,215.33016681671143,217.3647654056549,2,2.1683990955352783,None,,,,,,,,,,,,,,,,,,137,1,2025-02-26_16h59.16.731,comp,2024.2.4,58.62035519068403,2025-02-26 16h59.35.438684 -0500,
96,96,0,filler_square,None,None,None,None,None,None,None,None,None,None,1,2.117462396621704,None,,,,,0,0,0,0,0,96,96,191,217.38154768943787,,,,,,,,,,,,,,,,,,,,,,,,,,,,,,,,,,,,,,,,,,,,,,,,,,,,,,,,,,,,,,,,,,,,,,,,,,,,,,,,,75.46167686673004,75.46167686673004,61.67310631215096,68.18866333260965,63.173852369203885,68.21650530233023,1.0,1.2,-168,-19,0,13,164,12,217.3664948940277,217.36657452583313,217.36973547935486,217.38154768943787,217.52169108390808,217.52169108390808,217.52169108390808,217.52169108390808,217.52169108390808,217.52169108390808,217.52169108390808,219.5172393321991,1,2.117462396621704,None,,,,,,,,,,,,,,,,,,137,1,2025-02-26_16h59.16.731,comp,2024.2.4,58.62035519068403,2025-02-26 16h59.35.438684 -0500,
97,97,0,critical,hdw,20.0,4.0,lower,133.0,57.0,78.0,78.0,57.0,133.0,3,2.3180336952209473,None,,,,,0,0,0,0,0,97,97,118,219.5330708026886,,,,,,,,,,,,,,,,,,,,,,,,,,,,,,,,,,,,,,,,,,,,,,,,,,,,,,,,,,,,,,,,,,,,,,,,,,,,,,,,,133.0,57.0,78.0,78.0,57.0,133.0,4.0,4.2,-164,7,0,-283,202,6,219.5187225341797,219.51879858970642,219.52277898788452,219.5330708026886,219.68489289283752,219.68489289283752,219.68489289283752,219.68489289283752,219.68489289283752,219.68489289283752,219.68489289283752,221.85453963279724,3,2.3180336952209473,None,,,,,,,,,,,,,,,,,,137,1,2025-02-26_16h59.16.731,comp,2024.2.4,58.62035519068403,2025-02-26 16h59.35.438684 -0500,
98,98,0,critical,whd,20.0,2.1,lower,57.0,133.0,133.0,57.0,78.0,78.0,2,1.7474095821380615,None,,,,,0,0,0,0,0,98,98,14,221.87167763710022,,,,,,,,,,,,,,,,,,,,,,,,,,,,,,,,,,,,,,,,,,,,,,,,,,,,,,,,,,,,,,,,,,,,,,,,,,,,,,,,,57.0,133.0,133.0,57.0,78.0,78.0,2.1,2.12,-191,-273,0,-260,164,259,221.8565227985382,221.8566029071808,221.85991048812866,221.87167763710022,222.017680644989,222.017680644989,222.017680644989,222.017680644989,222.017680644989,222.017680644989,222.017680644989,223.6275053024292,2,1.7474095821380615,None,,,,,,,,,,,,,,,,,,137,1,2025-02-26_16h59.16.731,comp,2024.2.4,58.62035519068403,2025-02-26 16h59.35.438684 -0500,
99,99,0,critical,dwh,35.0,4.0,lower,70.0,70.0,57.0,133.0,133.0,57.0,3,1.3040311336517334,None,,,,,0,0,0,0,0,99,99,64,223.64349818229675,,,,,,,,,,,,,,,,,,,,,,,,,,,,,,,,,,,,,,,,,,,,,,,,,,,,,,,,,,,,,,,,,,,,,,,,,,,,,,,,,70.0,70.0,57.0,133.0,133.0,57.0,4.0,4.2,-198,-10,0,-258,191,15,223.6289768218994,223.6290762424469,223.63185501098633,223.64349818229675,223.78493523597717,223.78493523597717,223.78493523597717,223.78493523597717,223.78493523597717,223.78493523597717,223.78493523597717,224.95406818389893,3,1.3040311336517334,None,,,,,,,,,,,,,,,,,,137,1,2025-02-26_16h59.16.731,comp,2024.2.4,58.62035519068403,2025-02-26 16h59.35.438684 -0500,
100,100,0,critical,hwd,35.0,1.0,upper,200.0,125.0,125.0,200.0,127.0,127.0,1,1.1286797523498535,None,,,,,0,0,0,0,0,100,100,97,224.96980929374695,,,,,,,,,,,,,,,,,,,,,,,,,,,,,,,,,,,,,,,,,,,,,,,,,,,,,,,,,,,,,,,,,,,,,,,,,,,,,,,,,200.0,125.0,125.0,200.0,127.0,127.0,1.0,1.2,-258,3,0,-13,260,3,224.95560336112976,224.95568180084229,224.95908522605896,224.96980929374695,225.12427878379822,225.12427878379822,225.12427878379822,225.12427878379822,225.12427878379822,225.12427878379822,225.12427878379822,226.1129596233368,1,1.1286797523498535,None,,,,,,,,,,,,,,,,,,137,1,2025-02-26_16h59.16.731,comp,2024.2.4,58.62035519068403,2025-02-26 16h59.35.438684 -0500,
101,101,0,critical,dhw,20.0,4.0,upper,141.0,141.0,200.0,125.0,125.0,200.0,2,0.9745521545410156,None,,,,,0,0,0,0,0,101,101,59,226.13195514678955,,,,,,,,,,,,,,,,,,,,,,,,,,,,,,,,,,,,,,,,,,,,,,,,,,,,,,,,,,,,,,,,,,,,,,,,,,,,,,,,,141.0,141.0,200.0,125.0,125.0,200.0,4.0,4.1,-229,-257,0,-11,258,-262,226.1145577430725,226.11463522911072,226.1178572177887,226.13195514678955,226.2709619998932,226.2709619998932,226.2709619998932,226.2709619998932,226.2709619998932,226.2709619998932,226.2709619998932,227.11840629577637,2,0.9745521545410156,None,,,,,,,,,,,,,,,,,,137,1,2025-02-26_16h59.16.731,comp,2024.2.4,58.62035519068403,2025-02-26 16h59.35.438684 -0500,
102,102,0,filler_random,None,None,None,None,None,None,None,None,None,None,3,1.0724496841430664,None,,,,,0,0,0,0,0,102,102,148,227.13818335533142,,,,,,,,,,,,,,,,,,,,,,,,,,,,,,,,,,,,,,,,,,,,,,,,,,,,,,,,,,,,,,,,,,,,,,,,,,,,,,,,,59.524238996744934,172.83784411940474,85.47480503369202,100.476202438896,155.1280190388885,152.41220449227,2.2,2.21,-233,-280,0,285,222,255,227.12006163597107,227.1201410293579,227.1232554912567,227.13818335533142,227.2858431339264,227.2858431339264,227.2858431339264,227.2858431339264,227.2858431339264,227.2858431339264,227.2858431339264,228.2288978099823,3,1.0724496841430664,None,,,,,,,,,,,,,,,,,,137,1,2025-02-26_16h59.16.731,comp,2024.2.4,58.62035519068403,2025-02-26 16h59.35.438684 -0500,
103,103,0,filler_square,None,None,None,None,None,None,None,None,None,None,3,0.8914239406585693,None,,,,,0,0,0,0,0,103,103,186,228.24712705612183,,,,,,,,,,,,,,,,,,,,,,,,,,,,,,,,,,,,,,,,,,,,,,,,,,,,,,,,,,,,,,,,,,,,,,,,,,,,,,,,,69.56742463653005,139.2818737668979,129.00554101696278,122.16253188798736,187.59797250005687,187.59797250005687,2.2,2.21,-227,-282,0,255,251,285,228.2308657169342,228.23095989227295,228.23414754867554,228.24712705612183,228.38803434371948,228.38803434371948,228.38803434371948,228.38803434371948,228.38803434371948,228.38803434371948,228.38803434371948,229.1545763015747,3,0.8914239406585693,None,,,,,,,,,,,,,,,,,,137,1,2025-02-26_16h59.16.731,comp,2024.2.4,58.62035519068403,2025-02-26 16h59.35.438684 -0500,
104,104,0,critical,dhw,35.0,4.0,upper,127.0,127.0,200.0,125.0,125.0,200.0,3,1.606926679611206,None,,,,,0,0,0,0,0,104,104,53,229.172260761261,,,,,,,,,,,,,,,,,,,,,,,,,,,,,,,,,,,,,,,,,,,,,,,,,,,,,,,,,,,,,,,,,,,,,,,,,,,,,,,,,127.0,127.0,200.0,125.0,125.0,200.0,4.0,4.1,-222,-288,0,-15,258,-279,229.15608072280884,229.15622282028198,229.15927457809448,229.172260761261,229.320059299469,229.320059299469,229.320059299469,229.320059299469,229.320059299469,229.320059299469,229.320059299469,230.78980231285095,3,1.606926679611206,None,,,,,,,,,,,,,,,,,,137,1,2025-02-26_16h59.16.731,comp,2024.2.4,58.62035519068403,2025-02-26 16h59.35.438684 -0500,
105,105,0,filler_random,None,None,None,None,None,None,None,None,None,None,3,1.0125188827514648,None,,,,,0,0,0,0,0,105,105,162,230.80644536018372,,,,,,,,,,,,,,,,,,,,,,,,,,,,,,,,,,,,,,,,,,,,,,,,,,,,,,,,,,,,,,,,,,,,,,,,,,,,,,,,,132.6696157179873,103.90226091794797,84.93399748740204,88.76614242736147,169.74452063726142,197.90438039202658,3.0,3.1,-192,278,0,-20,239,-273,230.79171109199524,230.7917914390564,230.79562044143677,230.80644536018372,230.95471501350403,230.95471501350403,230.95471501350403,230.95471501350403,230.95471501350403,230.95471501350403,230.95471501350403,231.83704948425293,3,1.0125188827514648,None,,,,,,,,,,,,,,,,,,137,1,2025-02-26_16h59.16.731,comp,2024.2.4,58.62035519068403,2025-02-26 16h59.35.438684 -0500,
106,106,0,critical,hdw,35.0,2.1,lower,133.0,57.0,70.0,70.0,57.0,133.0,2,1.546959638595581,None,,,,,0,0,0,0,0,106,106,44,231.8559651374817,,,,,,,,,,,,,,,,,,,,,,,,,,,,,,,,,,,,,,,,,,,,,,,,,,,,,,,,,,,,,,,,,,,,,,,,,,,,,,,,,133.0,57.0,70.0,70.0,57.0,133.0,2.1,2.12,-160,-259,0,-274,198,284,231.8385145664215,231.83859133720398,231.84174275398254,231.8559651374817,232.005610704422,232.005610704422,232.005610704422,232.005610704422,232.005610704422,232.005610704422,232.005610704422,233.40895199775696,2,1.546959638595581,None,,,,,,,,,,,,,,,,,,137,1,2025-02-26_16h59.16.731,comp,2024.2.4,58.62035519068403,2025-02-26 16h59.35.438684 -0500,
107,107,0,critical,dhw,20.0,2.1,lower,78.0,78.0,133.0,57.0,57.0,133.0,2,1.325946569442749,None,,,,,0,0,0,0,0,107,107,26,233.42852187156677,,,,,,,,,,,,,,,,,,,,,,,,,,,,,,,,,,,,,,,,,,,,,,,,,,,,,,,,,,,,,,,,,,,,,,,,,,,,,,,,,78.0,78.0,133.0,57.0,57.0,133.0,2.1,2.12,-164,-284,0,-271,191,257,233.4104871749878,233.41056728363037,233.41341757774353,233.42852187156677,233.5722415447235,233.5722415447235,233.5722415447235,233.5722415447235,233.5722415447235,233.5722415447235,233.5722415447235,234.7704586982727,2,1.325946569442749,None,,,,,,,,,,,,,,,,,,137,1,2025-02-26_16h59.16.731,comp,2024.2.4,58.62035519068403,2025-02-26 16h59.35.438684 -0500,
108,108,0,critical,dhw,20.0,2.1,lower,78.0,78.0,133.0,57.0,57.0,133.0,2,1.5607573986053467,None,,,,,0,0,0,0,0,108,108,2,234.78644227981567,,,,,,,,,,,,,,,,,,,,,,,,,,,,,,,,,,,,,,,,,,,,,,,,,,,,,,,,,,,,,,,,,,,,,,,,,,,,,,,,,78.0,78.0,133.0,57.0,57.0,133.0,2.1,2.11,-164,268,0,269,191,-280,234.77191948890686,234.77202033996582,234.7751705646515,234.78644227981567,234.9230613708496,234.9230613708496,234.9230613708496,234.9230613708496,234.9230613708496,234.9230613708496,234.9230613708496,236.35483574867249,2,1.5607573986053467,None,,,,,,,,,,,,,,,,,,137,1,2025-02-26_16h59.16.731,comp,2024.2.4,58.62035519068403,2025-02-26 16h59.35.438684 -0500,
109,109,0,critical,dwh,20.0,4.0,upper,141.0,141.0,125.0,200.0,200.0,125.0,2,1.9436936378479004,None,,,,,0,0,0,0,0,109,109,71,236.3708508014679,,,,,,,,,,,,,,,,,,,,,,,,,,,,,,,,,,,,,,,,,,,,,,,,,,,,,,,,,,,,,,,,,,,,,,,,,,,,,,,,,141.0,141.0,125.0,200.0,200.0,125.0,4.0,4.1,-266,-274,0,-9,258,-256,236.3563196659088,236.35639762878418,236.35924005508423,236.3708508014679,236.522766828537,236.522766828537,236.522766828537,236.522766828537,236.522766828537,236.522766828537,236.522766828537,238.32877802848816,2,1.9436936378479004,None,,,,,,,,,,,,,,,,,,137,1,2025-02-26_16h59.16.731,comp,2024.2.4,58.62035519068403,2025-02-26 16h59.35.438684 -0500,
110,110,0,critical,whd,35.0,3.0,lower,57.0,133.0,133.0,57.0,70.0,70.0,1,1.3455381393432617,None,,,,,0,0,0,0,0,110,110,86,238.3449456691742,,,,,,,,,,,,,,,,,,,,,,,,,,,,,,,,,,,,,,,,,,,,,,,,,,,,,,,,,,,,,,,,,,,,,,,,,,,,,,,,,57.0,133.0,133.0,57.0,70.0,70.0,3.0,3.1,-191,283,0,18,160,-284,238.33035969734192,238.3304352760315,238.33365488052368,238.3449456691742,238.488440990448,238.488440990448,238.488440990448,238.488440990448,238.488440990448,238.488440990448,238.488440990448,239.70668935775757,1,1.3455381393432617,None,,,,,,,,,,,,,,,,,,137,1,2025-02-26_16h59.16.731,comp,2024.2.4,58.62035519068403,2025-02-26 16h59.35.438684 -0500,
111,111,0,filler_square,None,None,None,None,None,None,None,None,None,None,3,0.934868335723877,None,,,,,0,0,0,0,0,111,111,203,239.72366547584534,,,,,,,,,,,,,,,,,,,,,,,,,,,,,,,,,,,,,,,,,,,,,,,,,,,,,,,,,,,,,,,,,,,,,,,,,,,,,,,,,67.58554491176696,150.25377491287657,122.74782282422018,161.6483951176196,178.94640843898338,178.94640843898338,3.0,3.1,-252,258,0,-5,266,-284,239.708416223526,239.7084937095642,239.71251511573792,239.72366547584534,239.87654042243958,239.87654042243958,239.87654042243958,239.87654042243958,239.87654042243958,239.87654042243958,239.87654042243958,240.6778609752655,3,0.934868335723877,None,,,,,,,,,,,,,,,,,,137,1,2025-02-26_16h59.16.731,comp,2024.2.4,58.62035519068403,2025-02-26 16h59.35.438684 -0500,
112,112,0,critical,whd,20.0,4.0,upper,125.0,200.0,200.0,125.0,141.0,141.0,1,1.1583385467529297,None,,,,,0,0,0,0,0,112,112,95,240.6926281452179,,,,,,,,,,,,,,,,,,,,,,,,,,,,,,,,,,,,,,,,,,,,,,,,,,,,,,,,,,,,,,,,,,,,,,,,,,,,,,,,,125.0,200.0,200.0,125.0,141.0,141.0,4.0,4.1,-258,-275,0,3,229,-263,240.67945384979248,240.67953062057495,240.68241143226624,240.6926281452179,240.84037852287292,240.84037852287292,240.84037852287292,240.84037852287292,240.84037852287292,240.84037852287292,240.84037852287292,241.85835361480713,1,1.1583385467529297,None,,,,,,,,,,,,,,,,,,137,1,2025-02-26_16h59.16.731,comp,2024.2.4,58.62035519068403,2025-02-26 16h59.35.438684 -0500,
113,113,0,filler_random,None,None,None,None,None,None,None,None,None,None,3,1.2064988613128662,None,,,,,0,0,0,0,0,113,113,133,241.8785915374756,,,,,,,,,,,,,,,,,,,,,,,,,,,,,,,,,,,,,,,,,,,,,,,,,,,,,,,,,,,,,,,,,,,,,,,,,,,,,,,,,155.1242846969546,117.49790858577653,163.1918657119795,161.67878219382132,173.82878723485385,105.03848471340024,2.1,2.12,-236,-275,0,-277,229,259,241.860036611557,241.86018109321594,241.86313700675964,241.8785915374756,242.02282738685608,242.02282738685608,242.02282738685608,242.02282738685608,242.02282738685608,242.02282738685608,242.02282738685608,243.08993816375732,3,1.2064988613128662,None,,,,,,,,,,,,,,,,,,137,1,2025-02-26_16h59.16.731,comp,2024.2.4,58.62035519068403,2025-02-26 16h59.35.438684 -0500,
114,114,0,critical,dhw,35.0,3.0,upper,127.0,127.0,200.0,125.0,125.0,200.0,3,1.783787727355957,None,,,,,0,0,0,0,0,114,114,51,243.106787443161,,,,,,,,,,,,,,,,,,,,,,,,,,,,,,,,,,,,,,,,,,,,,,,,,,,,,,,,,,,,,,,,,,,,,,,,,,,,,,,,,127.0,127.0,200.0,125.0,125.0,200.0,3.0,3.1,-222,271,0,-11,258,-280,243.0916292667389,243.09170508384705,243.0949718952179,243.106787443161,243.25410509109497,243.25410509109497,243.25410509109497,243.25410509109497,243.25410509109497,243.25410509109497,243.25410509109497,244.8926877975464,3,1.783787727355957,None,,,,,,,,,,,,,,,,,,137,1,2025-02-26_16h59.16.731,comp,2024.2.4,58.62035519068403,2025-02-26 16h59.35.438684 -0500,
115,115,0,filler_square,None,None,None,None,None,None,None,None,None,None,3,1.144029140472412,None,,,,,0,0,0,0,0,115,115,209,244.9145107269287,,,,,,,,,,,,,,,,,,,,,,,,,,,,,,,,,,,,,,,,,,,,,,,,,,,,,,,,,,,,,,,,,,,,,,,,,,,,,,,,,86.5854977892112,66.45646594136996,128.5343663347965,124.95098894518846,137.63213774410997,137.63213774410997,2.1,2.12,-192,-269,0,-257,227,252,244.89461207389832,244.89474415779114,244.89768075942993,244.9145107269287,245.0578258037567,245.0578258037567,245.0578258037567,245.0578258037567,245.0578258037567,245.0578258037567,245.0578258037567,246.07554411888123,3,1.144029140472412,None,,,,,,,,,,,,,,,,,,137,1,2025-02-26_16h59.16.731,comp,2024.2.4,58.62035519068403,2025-02-26 16h59.35.438684 -0500,
116,116,0,critical,whd,20.0,2.1,upper,125.0,200.0,200.0,125.0,141.0,141.0,2,1.4233283996582031,None,,,,,0,0,0,0,0,116,116,39,246.09129071235657,,,,,,,,,,,,,,,,,,,,,,,,,,,,,,,,,,,,,,,,,,,,,,,,,,,,,,,,,,,,,,,,,,,,,,,,,,,,,,,,,125.0,200.0,200.0,125.0,141.0,141.0,2.1,2.12,-258,-271,0,-259,229,278,246.07697415351868,246.0770709514618,246.0810091495514,246.09129071235657,246.24463629722595,246.24463629722595,246.24463629722595,246.24463629722595,246.24463629722595,246.24463629722595,246.24463629722595,247.5248303413391,2,1.4233283996582031,None,,,,,,,,,,,,,,,,,,137,1,2025-02-26_16h59.16.731,comp,2024.2.4,58.62035519068403,2025-02-26 16h59.35.438684 -0500,
117,117,0,filler_random,None,None,None,None,None,None,None,None,None,None,1,3.085660934448242,None,,,,,0,0,0,0,0,117,117,141,247.54079604148865,,,,,,,,,,,,,,,,,,,,,,,,,,,,,,,,,,,,,,,,,,,,,,,,,,,,,,,,,,,,,,,,,,,,,,,,,,,,,,,,,76.77096259319747,158.68031971655796,126.93886878348508,168.06846458519226,123.43816170744935,135.16439023819208,4.0,4.2,-259,-14,0,-254,248,-17,247.52647280693054,247.5265519618988,247.52968454360962,247.54079604148865,247.6796944141388,247.6796944141388,247.6796944141388,247.6796944141388,247.6796944141388,247.6796944141388,247.6796944141388,250.64574599266052,1,3.085660934448242,None,,,,,,,,,,,,,,,,,,137,1,2025-02-26_16h59.16.731,comp,2024.2.4,58.62035519068403,2025-02-26 16h59.35.438684 -0500,
118,118,0,filler_square,None,None,None,None,None,None,None,None,None,None,1,1.418776273727417,None,,,,,0,0,0,0,0,118,118,190,250.66374230384827,,,,,,,,,,,,,,,,,,,,,,,,,,,,,,,,,,,,,,,,,,,,,,,,,,,,,,,,,,,,,,,,,,,,,,,,,,,,,,,,,160.87199963632276,160.87199963632276,159.52758934514003,142.70566768608597,147.312042708332,129.6944071308326,1.0,1.1,-728,267,-480,271,-248,288,250.64775943756104,250.64783811569214,250.6510772705078,250.66374230384827,250.80921077728271,250.80921077728271,250.80921077728271,250.80921077728271,250.80921077728271,250.80921077728271,250.80921077728271,252.09934735298157,1,1.418776273727417,None,,,,,,,,,,,,,,,,,,137,1,2025-02-26_16h59.16.731,comp,2024.2.4,58.62035519068403,2025-02-26 16h59.35.438684 -0500,
119,119,0,critical,wdh,20.0,2.1,upper,125.0,200.0,141.0,141.0,200.0,125.0,3,1.5849595069885254,None,,,,,0,0,0,0,0,119,119,11,252.11413884162903,,,,,,,,,,,,,,,,,,,,,,,,,,,,,,,,,,,,,,,,,,,,,,,,,,,,,,,,,,,,,,,,,,,,,,,,,,,,,,,,,125.0,200.0,141.0,141.0,200.0,125.0,2.1,2.12,-266,-289,0,-269,229,286,252.1007730960846,252.1008484363556,252.10368013381958,252.11413884162903,252.26230263710022,252.26230263710022,252.26230263710022,252.26230263710022,252.26230263710022,252.26230263710022,252.26230263710022,253.70230174064636,3,1.5849595069885254,None,,,,,,,,,,,,,,,,,,137,1,2025-02-26_16h59.16.731,comp,2024.2.4,58.62035519068403,2025-02-26 16h59.35.438684 -0500,
120,120,0,filler_square,None,None,None,None,None,None,None,None,None,None,2,0.9519710540771484,None,,,,,0,0,0,0,0,120,120,208,253.7226791381836,,,,,,,,,,,,,,,,,,,,,,,,,,,,,,,,,,,,,,,,,,,,,,,,,,,,,,,,,,,,,,,,,,,,,,,,,,,,,,,,,143.33134958625737,132.9795635256005,147.9243010515359,147.9243010515359,126.57370096738455,89.45160364636897,3.0,3.1,-236,252,0,6,215,-271,253.70405268669128,253.7041335105896,253.70696377754211,253.7226791381836,253.86139512062073,253.86139512062073,253.86139512062073,253.86139512062073,253.86139512062073,253.86139512062073,253.86139512062073,254.6835310459137,2,0.9519710540771484,None,,,,,,,,,,,,,,,,,,137,1,2025-02-26_16h59.16.731,comp,2024.2.4,58.62035519068403,2025-02-26 16h59.35.438684 -0500,
121,121,0,filler_square,None,None,None,None,None,None,None,None,None,None,1,1.3837509155273438,None,,,,,0,0,0,0,0,121,121,199,254.6996874809265,,,,,,,,,,,,,,,,,,,,,,,,,,,,,,,,,,,,,,,,,,,,,,,,,,,,,,,,,,,,,,,,,,,,,,,,,,,,,,,,,186.13641850467084,186.13641850467084,134.46603499308605,126.8827961898476,82.87698222570073,103.84265712397186,4.0,4.2,-253,-2,0,-251,211,2,254.6852970123291,254.68537759780884,254.68822169303894,254.6996874809265,254.84489917755127,254.84489917755127,254.84489917755127,254.84489917755127,254.84489917755127,254.84489917755127,254.84489917755127,256.09335350990295,1,1.3837509155273438,None,,,,,,,,,,,,,,,,,,137,1,2025-02-26_16h59.16.731,comp,2024.2.4,58.62035519068403,2025-02-26 16h59.35.438684 -0500,
122,122,0,critical,dwh,35.0,2.1,lower,70.0,70.0,57.0,133.0,133.0,57.0,2,1.4524693489074707,None,,,,,0,0,0,0,0,122,122,28,256.1102104187012,,,,,,,,,,,,,,,,,,,,,,,,,,,,,,,,,,,,,,,,,,,,,,,,,,,,,,,,,,,,,,,,,,,,,,,,,,,,,,,,,70.0,70.0,57.0,133.0,133.0,57.0,2.1,2.12,-198,-286,0,-268,191,258,256.0949013233185,256.0949795246124,256.09792256355286,256.1102104187012,256.25057196617126,256.25057196617126,256.25057196617126,256.25057196617126,256.25057196617126,256.25057196617126,256.25057196617126,257.5647671222687,2,1.4524693489074707,None,,,,,,,,,,,,,,,,,,137,1,2025-02-26_16h59.16.731,comp,2024.2.4,58.62035519068403,2025-02-26 16h59.35.438684 -0500,
123,123,0,filler_square,None,None,None,None,None,None,None,None,None,None,3,1.729231834411621,None,,,,,0,0,0,0,0,123,123,188,257.5856280326843,,,,,,,,,,,,,,,,,,,,,,,,,,,,,,,,,,,,,,,,,,,,,,,,,,,,,,,,,,,,,,,,,,,,,,,,,,,,,,,,,92.21374301421227,64.88875408145717,189.6419902542104,189.6419902542104,173.90906417262227,170.89781255118146,3.0,3.1,-223,283,0,6,276,-271,257.566611289978,257.56668996810913,257.569783449173,257.5856280326843,257.73390078544617,257.73390078544617,257.73390078544617,257.73390078544617,257.73390078544617,257.73390078544617,257.73390078544617,259.3305037021637,3,1.729231834411621,None,,,,,,,,,,,,,,,,,,137,1,2025-02-26_16h59.16.731,comp,2024.2.4,58.62035519068403,2025-02-26 16h59.35.438684 -0500,
124,124,0,critical,dhw,35.0,2.1,lower,70.0,70.0,133.0,57.0,57.0,133.0,2,2.168116331100464,None,,,,,0,0,0,0,0,124,124,24,259.34667587280273,,,,,,,,,,,,,,,,,,,,,,,,,,,,,,,,,,,,,,,,,,,,,,,,,,,,,,,,,,,,,,,,,,,,,,,,,,,,,,,,,70.0,70.0,133.0,57.0,57.0,133.0,2.1,2.11,-160,269,0,281,191,-272,259.3319766521454,259.33208894729614,259.33555603027344,259.34667587280273,259.4956650733948,259.4956650733948,259.4956650733948,259.4956650733948,259.4956650733948,259.4956650733948,259.4956650733948,261.52911400794983,2,2.168116331100464,None,,,,,,,,,,,,,,,,,,137,1,2025-02-26_16h59.16.731,comp,2024.2.4,58.62035519068403,2025-02-26 16h59.35.438684 -0500,
125,125,0,filler_square,None,None,None,None,None,None,None,None,None,None,2,1.0892078876495361,None,,,,,0,0,0,0,0,125,125,181,261.54533648490906,,,,,,,,,,,,,,,,,,,,,,,,,,,,,,,,,,,,,,,,,,,,,,,,,,,,,,,,,,,,,,,,,,,,,,,,,,,,,,,,,73.3552555848474,102.49681355336617,131.57798750681573,131.57798750681573,121.47551994840813,68.38526903716807,3.0,3.1,-213,272,0,-14,196,-255,261.5308156013489,261.53089213371277,261.53401589393616,261.54533648490906,261.7007670402527,261.7007670402527,261.7007670402527,261.7007670402527,261.7007670402527,261.7007670402527,261.7007670402527,262.6514701843262,2,1.0892078876495361,None,,,,,,,,,,,,,,,,,,137,1,2025-02-26_16h59.16.731,comp,2024.2.4,58.62035519068403,2025-02-26 16h59.35.438684 -0500,
126,126,0,critical,whd,20.0,1.0,lower,57.0,133.0,133.0,57.0,78.0,78.0,1,2.0778558254241943,None,,,,,0,0,0,0,0,126,126,90,262.66871523857117,,,,,,,,,,,,,,,,,,,,,,,,,,,,,,,,,,,,,,,,,,,,,,,,,,,,,,,,,,,,,,,,,,,,,,,,,,,,,,,,,57.0,133.0,133.0,57.0,78.0,78.0,1.0,1.1,-671,262,-480,269,-316,261,262.6531023979187,262.6531836986542,262.65604043006897,262.66871523857117,262.8184223175049,262.8184223175049,262.8184223175049,262.8184223175049,262.8184223175049,262.8184223175049,262.8184223175049,264.762797832489,1,2.0778558254241943,None,,,,,,,,,,,,,,,,,,137,1,2025-02-26_16h59.16.731,comp,2024.2.4,58.62035519068403,2025-02-26 16h59.35.438684 -0500,
127,127,0,critical,hdw,20.0,4.0,upper,200.0,125.0,141.0,141.0,125.0,200.0,3,2.736130475997925,None,,,,,0,0,0,0,0,127,127,119,264.7789580821991,,,,,,,,,,,,,,,,,,,,,,,,,,,,,,,,,,,,,,,,,,,,,,,,,,,,,,,,,,,,,,,,,,,,,,,,,,,,,,,,,200.0,125.0,141.0,141.0,125.0,200.0,4.0,4.2,-229,12,0,-257,266,12,264.76438879966736,264.7644696235657,264.7677502632141,264.7789580821991,264.9304780960083,264.9304780960083,264.9304780960083,264.9304780960083,264.9304780960083,264.9304780960083,264.9304780960083,267.5184268951416,3,2.736130475997925,None,,,,,,,,,,,,,,,,,,137,1,2025-02-26_16h59.16.731,comp,2024.2.4,58.62035519068403,2025-02-26 16h59.35.438684 -0500,
128,128,0,critical,dhw,20.0,1.0,upper,141.0,141.0,200.0,125.0,125.0,200.0,2,0.756303071975708,None,,,,,0,0,0,0,0,128,128,55,267.5350124835968,,,,,,,,,,,,,,,,,,,,,,,,,,,,,,,,,,,,,,,,,,,,,,,,,,,,,,,,,,,,,,,,,,,,,,,,,,,,,,,,,141.0,141.0,200.0,125.0,125.0,200.0,1.0,1.2,-229,-18,0,14,258,13,267.5199408531189,267.5200455188751,267.52353954315186,267.5350124835968,267.6810836791992,267.6810836791992,267.6810836791992,267.6810836791992,267.6810836791992,267.6810836791992,267.6810836791992,268.2969455718994,2,0.756303071975708,None,,,,,,,,,,,,,,,,,,137,1,2025-02-26_16h59.16.731,comp,2024.2.4,58.62035519068403,2025-02-26 16h59.35.438684 -0500,
129,129,0,critical,wdh,35.0,4.0,upper,125.0,200.0,127.0,127.0,200.0,125.0,3,1.8491311073303223,None,,,,,0,0,0,0,0,129,129,77,268.31345891952515,,,,,,,,,,,,,,,,,,,,,,,,,,,,,,,,,,,,,,,,,,,,,,,,,,,,,,,,,,,,,,,,,,,,,,,,,,,,,,,,,125.0,200.0,127.0,127.0,200.0,125.0,4.0,4.2,-260,-5,0,-281,222,2,268.29858779907227,268.29867815971375,268.3018856048584,268.31345891952515,268.4499833583832,268.4499833583832,268.4499833583832,268.4499833583832,268.4499833583832,268.4499833583832,268.4499833583832,270.16637229919434,3,1.8491311073303223,None,,,,,,,,,,,,,,,,,,137,1,2025-02-26_16h59.16.731,comp,2024.2.4,58.62035519068403,2025-02-26 16h59.35.438684 -0500,
130,130,0,critical,hwd,20.0,2.1,upper,200.0,125.0,125.0,200.0,141.0,141.0,2,1.0347447395324707,None,,,,,0,0,0,0,0,130,130,19,270.1840624809265,,,,,,,,,,,,,,,,,,,,,,,,,,,,,,,,,,,,,,,,,,,,,,,,,,,,,,,,,,,,,,,,,,,,,,,,,,,,,,,,,200.0,125.0,125.0,200.0,141.0,141.0,2.1,2.11,-258,264,0,277,266,-286,270.167822599411,270.16789841651917,270.17091059684753,270.1840624809265,270.336163520813,270.336163520813,270.336163520813,270.336163520813,270.336163520813,270.336163520813,270.336163520813,271.2366507053375,2,1.0347447395324707,None,,,,,,,,,,,,,,,,,,137,1,2025-02-26_16h59.16.731,comp,2024.2.4,58.62035519068403,2025-02-26 16h59.35.438684 -0500,
131,131,0,critical,whd,35.0,2.1,lower,57.0,133.0,133.0,57.0,70.0,70.0,1,1.8020439147949219,None,,,,,0,0,0,0,0,131,131,12,271.2567026615143,,,,,,,,,,,,,,,,,,,,,,,,,,,,,,,,,,,,,,,,,,,,,,,,,,,,,,,,,,,,,,,,,,,,,,,,,,,,,,,,,57.0,133.0,133.0,57.0,70.0,70.0,2.1,2.11,-191,289,0,259,160,-251,271.2381989955902,271.2382752895355,271.24141454696655,271.2567026615143,271.4000949859619,271.4000949859619,271.4000949859619,271.4000949859619,271.4000949859619,271.4000949859619,271.4000949859619,273.0741467475891,1,1.8020439147949219,None,,,,,,,,,,,,,,,,,,137,1,2025-02-26_16h59.16.731,comp,2024.2.4,58.62035519068403,2025-02-26 16h59.35.438684 -0500,
132,132,0,catch,None,None,None,None,None,None,None,None,None,None,3,1.2161674499511719,None,,,,,0,0,0,0,0,132,132,120,273.090313911438,,,,,,,,,,,,,,,,,,,,,,,,,,,,,,,,,,,,,,,,,,,,,,,,,,,,,,,,,,,,,,,,,,,,,,,,,,,,,,,,,74,116,106,84,200,125,3.0,3.1,-196,284,0,13,200,-276,273.076229095459,273.0763056278229,273.07948780059814,273.090313911438,273.2338845729828,273.2338845729828,273.2338845729828,273.2338845729828,273.2338845729828,273.2338845729828,273.2338845729828,274.3181552886963,3,1.2161674499511719,None,,,,,,,,,,,,,,,,,,137,1,2025-02-26_16h59.16.731,comp,2024.2.4,58.62035519068403,2025-02-26 16h59.35.438684 -0500,
133,133,0,filler_square,None,None,None,None,None,None,None,None,None,None,3,0.9333250522613525,None,,,,,0,0,0,0,0,133,133,207,274.3335647583008,,,,,,,,,,,,,,,,,,,,,,,,,,,,,,,,,,,,,,,,,,,,,,,,,,,,,,,,,,,,,,,,,,,,,,,,,,,,,,,,,124.01890776586016,83.91149927636064,69.78819848878321,148.73056090632116,169.08136964203135,169.08136964203135,3.0,3.1,-212,278,0,-19,255,-267,274.3199100494385,274.3200116157532,274.32330346107483,274.3335647583008,274.4844470024109,274.4844470024109,274.4844470024109,274.4844470024109,274.4844470024109,274.4844470024109,274.4844470024109,275.28997564315796,3,0.9333250522613525,None,,,,,,,,,,,,,,,,,,137,1,2025-02-26_16h59.16.731,comp,2024.2.4,58.62035519068403,2025-02-26 16h59.35.438684 -0500,
134,134,0,catch,None,None,None,None,None,None,None,None,None,None,3,0.8470890522003174,None,,,,,0,0,0,0,0,134,134,124,275.30746626853943,,,,,,,,,,,,,,,,,,,,,,,,,,,,,,,,,,,,,,,,,,,,,,,,,,,,,,,,,,,,,,,,,,,,,,,,,,,,,,,,,98,92,105,85,169,156,2.2,2.22,-184,282,0,-251,216,-276,275.2919726371765,275.29208755493164,275.2953817844391,275.30746626853943,275.4520707130432,275.4520707130432,275.4520707130432,275.4520707130432,275.4520707130432,275.4520707130432,275.4520707130432,276.1720781326294,3,0.8470890522003174,None,,,,,,,,,,,,,,,,,,137,1,2025-02-26_16h59.16.731,comp,2024.2.4,58.62035519068403,2025-02-26 16h59.35.438684 -0500,
135,135,0,critical,whd,20.0,3.0,upper,125.0,200.0,200.0,125.0,141.0,141.0,2,1.110924243927002,None,,,,,0,0,0,0,0,135,135,93,276.187584400177,,,,,,,,,,,,,,,,,,,,,,,,,,,,,,,,,,,,,,,,,,,,,,,,,,,,,,,,,,,,,,,,,,,,,,,,,,,,,,,,,125.0,200.0,200.0,125.0,141.0,141.0,3.0,3.1,-258,281,0,-4,229,-277,276.17372941970825,276.1738541126251,276.1773250102997,276.187584400177,276.3361351490021,276.3361351490021,276.3361351490021,276.3361351490021,276.3361351490021,276.3361351490021,276.3361351490021,277.3024973869324,2,1.110924243927002,None,,,,,,,,,,,,,,,,,,137,1,2025-02-26_16h59.16.731,comp,2024.2.4,58.62035519068403,2025-02-26 16h59.35.438684 -0500,
136,136,0,critical,dhw,35.0,1.0,upper,127.0,127.0,200.0,125.0,125.0,200.0,2,0.9330453872680664,None,,,,,0,0,0,0,0,136,136,49,277.31771540641785,,,,,,,,,,,,,,,,,,,,,,,,,,,,,,,,,,,,,,,,,,,,,,,,,,,,,,,,,,,,,,,,,,,,,,,,,,,,,,,,,127.0,127.0,200.0,125.0,125.0,200.0,1.0,1.2,-222,-2,0,-11,258,-13,277.30395126342773,277.3040654659271,277.30710196495056,277.31771540641785,277.4682469367981,277.4682469367981,277.4682469367981,277.4682469367981,277.4682469367981,277.4682469367981,277.4682469367981,278.2685778141022,2,0.9330453872680664,None,,,,,,,,,,,,,,,,,,137,1,2025-02-26_16h59.16.731,comp,2024.2.4,58.62035519068403,2025-02-26 16h59.35.438684 -0500,
137,137,0,critical,hwd,20.0,1.0,lower,133.0,57.0,57.0,133.0,78.0,78.0,1,1.1748948097229004,None,,,,,0,0,0,0,0,137,137,102,278.2837631702423,,,,,,,,,,,,,,,,,,,,,,,,,,,,,,,,,,,,,,,,,,,,,,,,,,,,,,,,,,,,,,,,,,,,,,,,,,,,,,,,,133.0,57.0,57.0,133.0,78.0,78.0,1.0,1.3,289,-283,480,-287,682,-266,278.27011704444885,278.2702112197876,278.2735068798065,278.2837631702423,278.4363396167755,278.4363396167755,278.4363396167755,278.4363396167755,278.4363396167755,278.4363396167755,278.4363396167755,279.4694299697876,1,1.1748948097229004,None,,,,,,,,,,,,,,,,,,137,1,2025-02-26_16h59.16.731,comp,2024.2.4,58.62035519068403,2025-02-26 16h59.35.438684 -0500,
138,138,0,critical,hdw,35.0,2.1,lower,133.0,57.0,70.0,70.0,57.0,133.0,1,2.593735694885254,None,,,,,0,0,0,0,0,138,138,20,279.4895281791687,,,,,,,,,,,,,,,,,,,,,,,,,,,,,,,,,,,,,,,,,,,,,,,,,,,,,,,,,,,,,,,,,,,,,,,,,,,,,,,,,133.0,57.0,70.0,70.0,57.0,133.0,2.1,2.12,-160,-251,0,-271,198,289,279.47089529037476,279.4709722995758,279.47396087646484,279.4895281791687,279.6409378051758,279.6409378051758,279.6409378051758,279.6409378051758,279.6409378051758,279.6409378051758,279.6409378051758,282.08885407447815,1,2.593735694885254,None,,,,,,,,,,,,,,,,,,137,1,2025-02-26_16h59.16.731,comp,2024.2.4,58.62035519068403,2025-02-26 16h59.35.438684 -0500,
139,139,0,critical,hdw,35.0,4.0,lower,133.0,57.0,70.0,70.0,57.0,133.0,3,1.6821646690368652,None,,,,,0,0,0,0,0,139,139,112,282.1044330596924,,,,,,,,,,,,,,,,,,,,,,,,,,,,,,,,,,,,,,,,,,,,,,,,,,,,,,,,,,,,,,,,,,,,,,,,,,,,,,,,,133.0,57.0,70.0,70.0,57.0,133.0,4.0,4.1,-160,-277,0,-14,198,-264,282.09047055244446,282.09054923057556,282.0936770439148,282.1044330596924,282.2527196407318,282.2527196407318,282.2527196407318,282.2527196407318,282.2527196407318,282.2527196407318,282.2527196407318,283.80298471450806,3,1.6821646690368652,None,,,,,,,,,,,,,,,,,,137,1,2025-02-26_16h59.16.731,comp,2024.2.4,58.62035519068403,2025-02-26 16h59.35.438684 -0500,
140,140,0,critical,dwh,35.0,4.0,upper,127.0,127.0,125.0,200.0,200.0,125.0,3,1.757810354232788,None,,,,,0,0,0,0,0,140,140,65,283.8213760852814,,,,,,,,,,,,,,,,,,,,,,,,,,,,,,,,,,,,,,,,,,,,,,,,,,,,,,,,,,,,,,,,,,,,,,,,,,,,,,,,,127.0,127.0,125.0,200.0,200.0,125.0,4.0,4.2,-260,-11,0,-284,258,19,283.80449509620667,283.8045701980591,283.8076388835907,283.8213760852814,283.97032618522644,283.97032618522644,283.97032618522644,283.97032618522644,283.97032618522644,283.97032618522644,283.97032618522644,285.5887279510498,3,1.757810354232788,None,,,,,,,,,,,,,,,,,,137,1,2025-02-26_16h59.16.731,comp,2024.2.4,58.62035519068403,2025-02-26 16h59.35.438684 -0500,
