thisN,thisTrialN,thisRepN,effect,order,distance,config,diag,h_1,w_1,h_2,w_2,h_3,w_3,rect_choice.keys,rect_choice.rt,rect_choice.duration,instructions_loop.thisRepN,instructions_loop.thisTrialN,instructions_loop.thisN,instructions_loop.thisIndex,blocks.thisRepN,blocks.thisTrialN,blocks.thisN,blocks.thisIndex,trials.thisRepN,trials.thisTrialN,trials.thisN,trials.thisIndex,thisRow.t,notes,consent.started,agree_button.started,decline_button.started,consent_img.started,mouse.started,consent.stopped,agree_button.numClicks,agree_button.timesOn,agree_button.timesOff,decline_button.numClicks,decline_button.timesOn,decline_button.timesOff,mouse.x,mouse.y,mouse.leftButton,mouse.midButton,mouse.rightButton,mouse.time,mouse.clicked_name,exp_params.started,exp_params.stopped,welcome.started,welcome_text.started,welcome.stopped,instructions_1.started,instructions_1_text_1.started,instructions_1_text_2.started,key_resp.started,instructions_1.stopped,instructions_loop.key_resp.keys,instructions_loop.key_resp.rt,instructions_loop.key_resp.duration,instructions_2.started,instructions_2_text_1.started,instructions_2_text_2.started,key_resp_2.started,instructions_2.stopped,instructions_loop.key_resp_2.keys,instructions_loop.key_resp_2.rt,instructions_loop.key_resp_2.duration,instructions_3.started,instructions_3_text_1.started,r1_instr3.started,r2_instr3.started,r3_instr3.started,r1_instr3_label.started,r2_instr3_label.started,r3_instr3_label.started,instructions_3_text_3.started,instructions_3_text_4.started,key_resp_3.started,instructions_3.stopped,instructions_loop.key_resp_3.keys,instructions_loop.key_resp_3.rt,instructions_loop.key_resp_3.duration,instructions_4.started,instructions_4_text_1.started,instructions_4_text_3.started,instructions_4_text_2.started,key_resp_4.started,instructions_4.stopped,instructions_loop.key_resp_4.keys,instructions_loop.key_resp_4.rt,instructions_loop.key_resp_4.duration,instructions_5.started,instructions_5_text_1.started,instructions_5_text_2.started,key_resp_5.started,instructions_5.stopped,instructions_loop.key_resp_5.keys,instructions_loop.key_resp_5.rt,instructions_loop.key_resp_5.duration,start_exp.started,start_exp_text.started,key_resp_6.started,start_exp.stopped,key_resp_6.keys,key_resp_6.rt,key_resp_6.duration,h_1_tmp,w_1_tmp,h_2_tmp,w_2_tmp,h_3_tmp,w_3_tmp,config_tmp,config_tmp_1,r_1_x,r_1_y,r_2_x,r_2_y,r_3_x,r_3_y,pre_trial.started,pre_trial.stopped,choice_trial.started,rect_choice.started,r_1.started,r_2.started,r_3.started,r_1_label.started,r_2_label.started,r_3_label.started,prompt.started,choice_trial.stopped,trials.rect_choice.keys,trials.rect_choice.rt,trials.rect_choice.duration,end_block.started,end_block_text.started,end_block.stopped,end.started,end_text.started,key_resp_7.started,end.stopped,key_resp_7.keys,key_resp_7.rt,key_resp_7.duration,debriefing.started,debrief_form.started,end_debrief.started,debriefing.stopped,end_debrief.keys,end_debrief.rt,end_debrief.duration,participant,computer,date,expName,psychopyVersion,frameRate,expStart,
,,,,,,,,,,,,,,,,,,,,,,,,,,,,,,,0.016715049743652344,0.04281353950500488,0.04281353950500488,0.04281353950500488,0.01635885238647461,6.758730173110962,1,[6.714497089385986],[6.714508771896362],0,,,[-52.0],[-506.0],[1],[0],[0],[6.741490364074707],['agree_button'],,,,,,,,,,,,,,,,,,,,,,,,,,,,,,,,,,,,,,,,,,,,,,,,,,,,,,,,,,,,,,,,,,,,,,,,,,,,,,,,,,,,,,,,,,,,,,,,,,,,,,,,,,,138,3,2025-02-27_09h27.48.060,comp,2024.2.4,60.043691002115835,2025-02-27 09h28.19.373499 -0500,
,,,,,,,,,,,,,,,,,,,,,,,,,,,,,,,,,,,,,,,,,,,,,,,,,,6.758983850479126,6.759018421173096,,,,,,,,,,,,,,,,,,,,,,,,,,,,,,,,,,,,,,,,,,,,,,,,,,,,,,,,,,,,,,,,,,,,,,,,,,,,,,,,,,,,,,,,,,,,,,,,,,,,,,,,,138,3,2025-02-27_09h27.48.060,comp,2024.2.4,60.043691002115835,2025-02-27 09h28.19.373499 -0500,
,,,,,,,,,,,,,,,,,,,,,,,,,,,,,,,,,,,,,,,,,,,,,,,,,,,,6.7590413093566895,6.772440671920776,8.761446475982666,,,,,,,,,,,,,,,,,,,,,,,,,,,,,,,,,,,,,,,,,,,,,,,,,,,,,,,,,,,,,,,,,,,,,,,,,,,,,,,,,,,,,,,,,,,,,,,,,,,,,,138,3,2025-02-27_09h27.48.060,comp,2024.2.4,60.043691002115835,2025-02-27 09h28.19.373499 -0500,
0,0,0,,,,,,,,,,,,,,,0,0,0,0,,,,,,,,,8.778199195861816,,,,,,,,,,,,,,,,,,,,,,,,,,8.76198673248291,8.778199195861816,8.778199195861816,10.261306047439575,13.829551219940186,space,3.5550811290740967,None,13.829632759094238,13.844969749450684,13.844969749450684,15.344827651977539,20.396159648895264,space,5.050103187561035,None,20.39624309539795,20.418073177337646,20.418073177337646,20.418073177337646,20.418073177337646,20.418073177337646,20.418073177337646,20.418073177337646,20.418073177337646,20.418073177337646,21.8951416015625,28.312976837158203,space,6.410027742385864,None,28.31306266784668,28.32867932319641,28.32867932319641,28.32867932319641,29.828023672103882,36.1789915561676,space,6.333576679229736,None,36.17907691001892,36.19469118118286,36.19469118118286,37.69457960128784,38.36220645904541,space,0.658515214920044,None,38.36233615875244,38.37804579734802,38.37804579734802,39.6121461391449,space,1.2166540622711182,None,,,,,,,,,,,,,,,,,,,,,,,,,,,,,,,,,,,,,,,,,,,,,,,138,3,2025-02-27_09h27.48.060,comp,2024.2.4,60.043691002115835,2025-02-27 09h28.19.373499 -0500,
0,0,0,critical,hdw,35.0,2.1,upper,200.0,125.0,127.0,127.0,125.0,200.0,3,8.786108255386353,None,,,,,0,0,0,0,0,0,0,45,39.6713285446167,,,,,,,,,,,,,,,,,,,,,,,,,,,,,,,,,,,,,,,,,,,,,,,,,,,,,,,,,,,,,,,,,,,,,,,,,,,,,,,,,200.0,125.0,127.0,127.0,125.0,200.0,2.1,2.11,-222,288,0,258,260,-258,39.65792202949524,39.65796899795532,39.659992933273315,39.6713285446167,39.81452703475952,39.81452703475952,39.81452703475952,39.81452703475952,39.81452703475952,39.81452703475952,39.81452703475952,48.462841272354126,3,8.786108255386353,None,,,,,,,,,,,,,,,,,,138,3,2025-02-27_09h27.48.060,comp,2024.2.4,60.043691002115835,2025-02-27 09h28.19.373499 -0500,
1,1,0,filler_square,None,None,None,None,None,None,None,None,None,None,2,1.6267743110656738,None,,,,,0,0,0,0,0,1,1,206,48.478217363357544,,,,,,,,,,,,,,,,,,,,,,,,,,,,,,,,,,,,,,,,,,,,,,,,,,,,,,,,,,,,,,,,,,,,,,,,,,,,,,,,,60.167160567832475,71.66604772760853,123.0427618496581,123.0427618496581,99.09511916301366,58.20394710959617,2.1,2.12,-193,-289,0,-286,187,255,48.463791847229004,48.463834047317505,48.46586585044861,48.478217363357544,48.62846302986145,48.62846302986145,48.62846302986145,48.62846302986145,48.62846302986145,48.62846302986145,48.62846302986145,50.11249089241028,2,1.6267743110656738,None,,,,,,,,,,,,,,,,,,138,3,2025-02-27_09h27.48.060,comp,2024.2.4,60.043691002115835,2025-02-27 09h28.19.373499 -0500,
2,2,0,critical,hwd,35.0,2.1,lower,133.0,57.0,57.0,133.0,70.0,70.0,2,3.9143388271331787,None,,,,,0,0,0,0,0,2,2,16,50.12805795669556,,,,,,,,,,,,,,,,,,,,,,,,,,,,,,,,,,,,,,,,,,,,,,,,,,,,,,,,,,,,,,,,,,,,,,,,,,,,,,,,,133.0,57.0,57.0,133.0,70.0,70.0,2.1,2.11,-191,276,0,270,198,-276,50.11325478553772,50.11330604553223,50.11563849449158,50.12805795669556,50.278554916381836,50.278554916381836,50.278554916381836,50.278554916381836,50.278554916381836,50.278554916381836,50.278554916381836,54.046035289764404,2,3.9143388271331787,None,,,,,,,,,,,,,,,,,,138,3,2025-02-27_09h27.48.060,comp,2024.2.4,60.043691002115835,2025-02-27 09h28.19.373499 -0500,
3,3,0,filler_random,None,None,None,None,None,None,None,None,None,None,2,5.018655776977539,None,,,,,0,0,0,0,0,3,3,142,54.061420917510986,,,,,,,,,,,,,,,,,,,,,,,,,,,,,,,,,,,,,,,,,,,,,,,,,,,,,,,,,,,,,,,,,,,,,,,,,,,,,,,,,101.34226251844782,75.45803981534068,138.611945439809,69.16939941918632,115.0424039611841,65.03104149315882,2.2,2.22,-168,281,0,-266,163,-255,54.046961545944214,54.04700255393982,54.0494909286499,54.061420917510986,54.211183309555054,54.211183309555054,54.211183309555054,54.211183309555054,54.211183309555054,54.211183309555054,54.211183309555054,59.095627307891846,2,5.018655776977539,None,,,,,,,,,,,,,,,,,,138,3,2025-02-27_09h27.48.060,comp,2024.2.4,60.043691002115835,2025-02-27 09h28.19.373499 -0500,
4,4,0,filler_square,None,None,None,None,None,None,None,None,None,None,1,3.3153676986694336,None,,,,,0,0,0,0,0,4,4,202,59.11108064651489,,,,,,,,,,,,,,,,,,,,,,,,,,,,,,,,,,,,,,,,,,,,,,,,,,,,,,,,,,,,,,,,,,,,,,,,,,,,,,,,,107.92659287221974,107.92659287221974,81.15012373706661,92.46671729510838,75.38593935157584,69.6491346277404,2.1,2.11,-196,270,0,255,177,-270,59.09659385681152,59.0966362953186,59.099093437194824,59.11108064651489,59.2612726688385,59.2612726688385,59.2612726688385,59.2612726688385,59.2612726688385,59.2612726688385,59.2612726688385,62.42913269996643,1,3.3153676986694336,None,,,,,,,,,,,,,,,,,,138,3,2025-02-27_09h27.48.060,comp,2024.2.4,60.043691002115835,2025-02-27 09h28.19.373499 -0500,
5,5,0,filler_random,None,None,None,None,None,None,None,None,None,None,3,2.092625379562378,None,,,,,0,0,0,0,0,5,5,134,62.44466423988342,,,,,,,,,,,,,,,,,,,,,,,,,,,,,,,,,,,,,,,,,,,,,,,,,,,,,,,,,,,,,,,,,,,,,,,,,,,,,,,,,105.77092331627904,116.45543996716675,84.64632777533026,160.9054462333525,98.42401590855788,198.35448487442605,3.0,3.2,-235,-277,0,6,276,282,62.42999577522278,62.4300377368927,62.43214011192322,62.44466423988342,62.59453797340393,62.59453797340393,62.59453797340393,62.59453797340393,62.59453797340393,62.59453797340393,62.59453797340393,64.5456383228302,3,2.092625379562378,None,,,,,,,,,,,,,,,,,,138,3,2025-02-27_09h27.48.060,comp,2024.2.4,60.043691002115835,2025-02-27 09h28.19.373499 -0500,
6,6,0,filler_square,None,None,None,None,None,None,None,None,None,None,2,1.5274741649627686,None,,,,,0,0,0,0,0,6,6,198,64.56133341789246,,,,,,,,,,,,,,,,,,,,,,,,,,,,,,,,,,,,,,,,,,,,,,,,,,,,,,,,,,,,,,,,,,,,,,,,,,,,,,,,,57.17439216833479,65.92607514918411,147.1957278969643,147.1957278969643,136.25442499693844,120.90980045740804,2.1,2.12,-203,-270,0,-288,230,251,64.5466239452362,64.54666471481323,64.54907035827637,64.56133341789246,64.7113389968872,64.7113389968872,64.7113389968872,64.7113389968872,64.7113389968872,64.7113389968872,64.7113389968872,66.0956449508667,2,1.5274741649627686,None,,,,,,,,,,,,,,,,,,138,3,2025-02-27_09h27.48.060,comp,2024.2.4,60.043691002115835,2025-02-27 09h28.19.373499 -0500,
7,7,0,critical,hwd,20.0,2.1,upper,200.0,125.0,125.0,200.0,141.0,141.0,2,3.1617939472198486,None,,,,,0,0,0,0,0,7,7,19,66.11123561859131,,,,,,,,,,,,,,,,,,,,,,,,,,,,,,,,,,,,,,,,,,,,,,,,,,,,,,,,,,,,,,,,,,,,,,,,,,,,,,,,,200.0,125.0,125.0,200.0,141.0,141.0,2.1,2.11,-258,254,0,281,266,-274,66.09644317626953,66.09648561477661,66.09892654418945,66.11123561859131,66.2615134716034,66.2615134716034,66.2615134716034,66.2615134716034,66.2615134716034,66.2615134716034,66.2615134716034,69.27917456626892,2,3.1617939472198486,None,,,,,,,,,,,,,,,,,,138,3,2025-02-27_09h27.48.060,comp,2024.2.4,60.043691002115835,2025-02-27 09h28.19.373499 -0500,
8,8,0,critical,hwd,20.0,1.0,lower,133.0,57.0,57.0,133.0,78.0,78.0,2,5.610316276550293,None,,,,,0,0,0,0,0,8,8,102,69.2945146560669,,,,,,,,,,,,,,,,,,,,,,,,,,,,,,,,,,,,,,,,,,,,,,,,,,,,,,,,,,,,,,,,,,,,,,,,,,,,,,,,,133.0,57.0,57.0,133.0,78.0,78.0,1.0,1.3,289,-280,480,-275,682,-275,69.27999639511108,69.28003716468811,69.28268456459045,69.2945146560669,69.44448661804199,69.44448661804199,69.44448661804199,69.44448661804199,69.44448661804199,69.44448661804199,69.44448661804199,74.91228985786438,2,5.610316276550293,None,,,,,,,,,,,,,,,,,,138,3,2025-02-27_09h27.48.060,comp,2024.2.4,60.043691002115835,2025-02-27 09h28.19.373499 -0500,
9,9,0,critical,wdh,20.0,4.0,upper,125.0,200.0,141.0,141.0,200.0,125.0,3,3.417267322540283,None,,,,,0,0,0,0,0,9,9,83,74.92802262306213,,,,,,,,,,,,,,,,,,,,,,,,,,,,,,,,,,,,,,,,,,,,,,,,,,,,,,,,,,,,,,,,,,,,,,,,,,,,,,,,,125.0,200.0,141.0,141.0,200.0,125.0,4.0,4.1,-266,-275,0,-3,229,-278,74.91305780410767,74.91309833526611,74.91512322425842,74.92802262306213,75.07839870452881,75.07839870452881,75.07839870452881,75.07839870452881,75.07839870452881,75.07839870452881,75.07839870452881,78.362384557724,3,3.417267322540283,None,,,,,,,,,,,,,,,,,,138,3,2025-02-27_09h27.48.060,comp,2024.2.4,60.043691002115835,2025-02-27 09h28.19.373499 -0500,
10,10,0,filler_random,None,None,None,None,None,None,None,None,None,None,2,1.4381883144378662,None,,,,,0,0,0,0,0,10,10,138,78.37769532203674,,,,,,,,,,,,,,,,,,,,,,,,,,,,,,,,,,,,,,,,,,,,,,,,,,,,,,,,,,,,,,,,,,,,,,,,,,,,,,,,,196.65753188811215,71.30311389322242,186.0764759565419,192.27913663581498,150.43901649195138,99.2799154251058,1.0,1.2,-228,-6,0,14,242,-2,78.36325812339783,78.36331820487976,78.36539006233215,78.37769532203674,78.52787065505981,78.52787065505981,78.52787065505981,78.52787065505981,78.52787065505981,78.52787065505981,78.52787065505981,79.82915496826172,2,1.4381883144378662,None,,,,,,,,,,,,,,,,,,138,3,2025-02-27_09h27.48.060,comp,2024.2.4,60.043691002115835,2025-02-27 09h28.19.373499 -0500,
11,11,0,filler_square,None,None,None,None,None,None,None,None,None,None,2,3.3822505474090576,None,,,,,0,0,0,0,0,11,11,171,79.84431862831116,,,,,,,,,,,,,,,,,,,,,,,,,,,,,,,,,,,,,,,,,,,,,,,,,,,,,,,,,,,,,,,,,,,,,,,,,,,,,,,,,77.52970219714662,69.78665691533384,78.04172262318441,78.04172262318441,70.6878818613781,59.33058200030901,2.1,2.11,-170,277,0,269,165,-259,79.83011412620544,79.83015751838684,79.83272218704224,79.84431862831116,79.99431157112122,79.99431157112122,79.99431157112122,79.99431157112122,79.99431157112122,79.99431157112122,79.99431157112122,83.2288887500763,2,3.3822505474090576,None,,,,,,,,,,,,,,,,,,138,3,2025-02-27_09h27.48.060,comp,2024.2.4,60.043691002115835,2025-02-27 09h28.19.373499 -0500,
12,12,0,critical,whd,20.0,1.0,lower,57.0,133.0,133.0,57.0,78.0,78.0,2,2.5004053115844727,None,,,,,0,0,0,0,0,12,12,90,83.24459338188171,,,,,,,,,,,,,,,,,,,,,,,,,,,,,,,,,,,,,,,,,,,,,,,,,,,,,,,,,,,,,,,,,,,,,,,,,,,,,,,,,57.0,133.0,133.0,57.0,78.0,78.0,1.0,1.2,-191,-16,0,12,164,-2,83.22965502738953,83.22969484329224,83.23172283172607,83.24459338188171,83.39474654197693,83.39474654197693,83.39474654197693,83.39474654197693,83.39474654197693,83.39474654197693,83.39474654197693,85.76211500167847,2,2.5004053115844727,None,,,,,,,,,,,,,,,,,,138,3,2025-02-27_09h27.48.060,comp,2024.2.4,60.043691002115835,2025-02-27 09h28.19.373499 -0500,
13,13,0,critical,dhw,20.0,2.1,lower,78.0,78.0,133.0,57.0,57.0,133.0,2,2.264111280441284,None,,,,,0,0,0,0,0,13,13,2,85.77756190299988,,,,,,,,,,,,,,,,,,,,,,,,,,,,,,,,,,,,,,,,,,,,,,,,,,,,,,,,,,,,,,,,,,,,,,,,,,,,,,,,,78.0,78.0,133.0,57.0,57.0,133.0,2.1,2.12,-164,-261,0,-284,191,253,85.76290941238403,85.76295113563538,85.76553678512573,85.77756190299988,85.92785739898682,85.92785739898682,85.92785739898682,85.92785739898682,85.92785739898682,85.92785739898682,85.92785739898682,88.04564619064331,2,2.264111280441284,None,,,,,,,,,,,,,,,,,,138,3,2025-02-27_09h27.48.060,comp,2024.2.4,60.043691002115835,2025-02-27 09h28.19.373499 -0500,
14,14,0,filler_square,None,None,None,None,None,None,None,None,None,None,1,1.2756373882293701,None,,,,,0,0,0,0,0,14,14,203,88.06117653846741,,,,,,,,,,,,,,,,,,,,,,,,,,,,,,,,,,,,,,,,,,,,,,,,,,,,,,,,,,,,,,,,,,,,,,,,,,,,,,,,,183.08328369429813,183.08328369429813,61.533861692629465,151.75683671664154,95.43877058162622,151.48983896563942,1.0,1.2,-263,13,0,18,248,19,88.04657483100891,88.04661583900452,88.04871869087219,88.06117653846741,88.21126198768616,88.21126198768616,88.21126198768616,88.21126198768616,88.21126198768616,88.21126198768616,88.21126198768616,89.34562492370605,1,1.2756373882293701,None,,,,,,,,,,,,,,,,,,138,3,2025-02-27_09h27.48.060,comp,2024.2.4,60.043691002115835,2025-02-27 09h28.19.373499 -0500,
15,15,0,critical,hwd,35.0,2.1,upper,200.0,125.0,125.0,200.0,127.0,127.0,2,4.654663562774658,None,,,,,0,0,0,0,0,15,15,17,89.36115550994873,,,,,,,,,,,,,,,,,,,,,,,,,,,,,,,,,,,,,,,,,,,,,,,,,,,,,,,,,,,,,,,,,,,,,,,,,,,,,,,,,200.0,125.0,125.0,200.0,127.0,127.0,2.1,2.11,-258,256,0,286,260,-272,89.34652376174927,89.34656596183777,89.34905743598938,89.36115550994873,89.51123237609863,89.51123237609863,89.51123237609863,89.51123237609863,89.51123237609863,89.51123237609863,89.51123237609863,94.02893471717834,2,4.654663562774658,None,,,,,,,,,,,,,,,,,,138,3,2025-02-27_09h27.48.060,comp,2024.2.4,60.043691002115835,2025-02-27 09h28.19.373499 -0500,
16,16,0,critical,whd,35.0,4.0,lower,57.0,133.0,133.0,57.0,70.0,70.0,2,2.819823741912842,None,,,,,0,0,0,0,0,16,16,88,94.04414081573486,,,,,,,,,,,,,,,,,,,,,,,,,,,,,,,,,,,,,,,,,,,,,,,,,,,,,,,,,,,,,,,,,,,,,,,,,,,,,,,,,57.0,133.0,133.0,57.0,70.0,70.0,4.0,4.1,-191,-289,0,-4,160,-260,94.02980208396912,94.02984237670898,94.03240847587585,94.04414081573486,94.1942298412323,94.1942298412323,94.1942298412323,94.1942298412323,94.1942298412323,94.1942298412323,94.1942298412323,96.87873315811157,2,2.819823741912842,None,,,,,,,,,,,,,,,,,,138,3,2025-02-27_09h27.48.060,comp,2024.2.4,60.043691002115835,2025-02-27 09h28.19.373499 -0500,
17,17,0,critical,dwh,35.0,1.0,lower,70.0,70.0,57.0,133.0,133.0,57.0,2,2.2671611309051514,None,,,,,0,0,0,0,0,17,17,60,96.89413642883301,,,,,,,,,,,,,,,,,,,,,,,,,,,,,,,,,,,,,,,,,,,,,,,,,,,,,,,,,,,,,,,,,,,,,,,,,,,,,,,,,70.0,70.0,57.0,133.0,133.0,57.0,1.0,1.1,-678,279,-480,268,-289,270,96.87953305244446,96.87957453727722,96.88203763961792,96.89413642883301,97.04445147514343,97.04445147514343,97.04445147514343,97.04445147514343,97.04445147514343,97.04445147514343,97.04445147514343,99.17874526977539,2,2.2671611309051514,None,,,,,,,,,,,,,,,,,,138,3,2025-02-27_09h27.48.060,comp,2024.2.4,60.043691002115835,2025-02-27 09h28.19.373499 -0500,
18,18,0,critical,dwh,20.0,3.0,lower,78.0,78.0,57.0,133.0,133.0,57.0,2,2.478543758392334,None,,,,,0,0,0,0,0,18,18,68,99.19402933120728,,,,,,,,,,,,,,,,,,,,,,,,,,,,,,,,,,,,,,,,,,,,,,,,,,,,,,,,,,,,,,,,,,,,,,,,,,,,,,,,,78.0,78.0,57.0,133.0,133.0,57.0,3.0,3.2,-202,-283,0,-12,191,261,99.17957019805908,99.17961168289185,99.18209648132324,99.19402933120728,99.34418106079102,99.34418106079102,99.34418106079102,99.34418106079102,99.34418106079102,99.34418106079102,99.34418106079102,101.67866730690002,2,2.478543758392334,None,,,,,,,,,,,,,,,,,,138,3,2025-02-27_09h27.48.060,comp,2024.2.4,60.043691002115835,2025-02-27 09h28.19.373499 -0500,
19,19,0,critical,whd,35.0,3.0,upper,125.0,200.0,200.0,125.0,127.0,127.0,1,2.6506600379943848,None,,,,,0,0,0,0,0,19,19,87,101.69434261322021,,,,,,,,,,,,,,,,,,,,,,,,,,,,,,,,,,,,,,,,,,,,,,,,,,,,,,,,,,,,,,,,,,,,,,,,,,,,,,,,,125.0,200.0,200.0,125.0,127.0,127.0,3.0,3.2,-258,-260,0,-9,222,252,101.67945885658264,101.6795003414154,101.68196296691895,101.69434261322021,101.84483432769775,101.84483432769775,101.84483432769775,101.84483432769775,101.84483432769775,101.84483432769775,101.84483432769775,104.36211371421814,1,2.6506600379943848,None,,,,,,,,,,,,,,,,,,138,3,2025-02-27_09h27.48.060,comp,2024.2.4,60.043691002115835,2025-02-27 09h28.19.373499 -0500,
20,20,0,critical,hwd,35.0,2.1,lower,133.0,57.0,57.0,133.0,70.0,70.0,2,2.295203685760498,None,,,,,0,0,0,0,0,20,20,40,104.37740731239319,,,,,,,,,,,,,,,,,,,,,,,,,,,,,,,,,,,,,,,,,,,,,,,,,,,,,,,,,,,,,,,,,,,,,,,,,,,,,,,,,133.0,57.0,57.0,133.0,70.0,70.0,2.1,2.12,-191,-275,0,-250,198,282,104.36291551589966,104.36295628547668,104.36552858352661,104.37740731239319,104.52748107910156,104.52748107910156,104.52748107910156,104.52748107910156,104.52748107910156,104.52748107910156,104.52748107910156,106.67880773544312,2,2.295203685760498,None,,,,,,,,,,,,,,,,,,138,3,2025-02-27_09h27.48.060,comp,2024.2.4,60.043691002115835,2025-02-27 09h28.19.373499 -0500,
21,21,0,critical,dwh,20.0,1.0,lower,78.0,78.0,57.0,133.0,133.0,57.0,3,3.116354465484619,None,,,,,0,0,0,0,0,21,21,66,106.69435214996338,,,,,,,,,,,,,,,,,,,,,,,,,,,,,,,,,,,,,,,,,,,,,,,,,,,,,,,,,,,,,,,,,,,,,,,,,,,,,,,,,78.0,78.0,57.0,133.0,133.0,57.0,1.0,1.2,-202,-5,0,8,191,-10,106.67959880828857,106.67964124679565,106.68214559555054,106.69435214996338,106.84417629241943,106.84417629241943,106.84417629241943,106.84417629241943,106.84417629241943,106.84417629241943,106.84417629241943,109.81229591369629,3,3.116354465484619,None,,,,,,,,,,,,,,,,,,138,3,2025-02-27_09h27.48.060,comp,2024.2.4,60.043691002115835,2025-02-27 09h28.19.373499 -0500,
22,22,0,filler_square,None,None,None,None,None,None,None,None,None,None,1,1.4768345355987549,None,,,,,0,0,0,0,0,22,22,188,109.82768058776855,,,,,,,,,,,,,,,,,,,,,,,,,,,,,,,,,,,,,,,,,,,,,,,,,,,,,,,,,,,,,,,,,,,,,,,,,,,,,,,,,181.09414533140165,181.09414533140165,110.22305895160306,151.6609171326393,140.28371842224848,128.4837240460154,2.1,2.12,-262,-267,0,-281,236,279,109.81322646141052,109.81326675415039,109.81569504737854,109.82768058776855,109.97791314125061,109.97791314125061,109.97791314125061,109.97791314125061,109.97791314125061,109.97791314125061,109.97791314125061,111.31212115287781,1,1.4768345355987549,None,,,,,,,,,,,,,,,,,,138,3,2025-02-27_09h27.48.060,comp,2024.2.4,60.043691002115835,2025-02-27 09h28.19.373499 -0500,
23,23,0,filler_square,None,None,None,None,None,None,None,None,None,None,2,1.8003852367401123,None,,,,,0,0,0,0,0,23,23,197,111.32769727706909,,,,,,,,,,,,,,,,,,,,,,,,,,,,,,,,,,,,,,,,,,,,,,,,,,,,,,,,,,,,,,,,,,,,,,,,,,,,,,,,,80.67694939722017,62.78114638772587,98.61165922274473,98.61165922274473,84.05381089465945,92.8292635798658,2.2,2.21,-177,-254,0,282,192,265,111.31308126449585,111.31312227249146,111.31568479537964,111.32769727706909,111.4774444103241,111.4774444103241,111.4774444103241,111.4774444103241,111.4774444103241,111.4774444103241,111.4774444103241,113.14530324935913,2,1.8003852367401123,None,,,,,,,,,,,,,,,,,,138,3,2025-02-27_09h27.48.060,comp,2024.2.4,60.043691002115835,2025-02-27 09h28.19.373499 -0500,
24,24,0,critical,whd,20.0,2.1,lower,57.0,133.0,133.0,57.0,78.0,78.0,1,3.53523325920105,None,,,,,0,0,0,0,0,24,24,14,113.16071271896362,,,,,,,,,,,,,,,,,,,,,,,,,,,,,,,,,,,,,,,,,,,,,,,,,,,,,,,,,,,,,,,,,,,,,,,,,,,,,,,,,57.0,133.0,133.0,57.0,78.0,78.0,2.1,2.11,-191,253,0,282,164,-287,113.14610123634338,113.14614200592041,113.14850449562073,113.16071271896362,113.31080961227417,113.31080961227417,113.31080961227417,113.31080961227417,113.31080961227417,113.31080961227417,113.31080961227417,116.7118890285492,1,3.53523325920105,None,,,,,,,,,,,,,,,,,,138,3,2025-02-27_09h27.48.060,comp,2024.2.4,60.043691002115835,2025-02-27 09h28.19.373499 -0500,
25,25,0,filler_square,None,None,None,None,None,None,None,None,None,None,1,1.8416996002197266,None,,,,,0,0,0,0,0,25,25,186,116.72732782363892,,,,,,,,,,,,,,,,,,,,,,,,,,,,,,,,,,,,,,,,,,,,,,,,,,,,,,,,,,,,,,,,,,,,,,,,,,,,,,,,,126.08698998712498,126.08698998712498,72.12124284801986,77.69543657588807,59.847517278117415,67.42321682689435,4.0,4.1,-198,-263,0,-5,169,-269,116.71285223960876,116.71289396286011,116.71542286872864,116.72732782363892,116.87741422653198,116.87741422653198,116.87741422653198,116.87741422653198,116.87741422653198,116.87741422653198,116.87741422653198,118.57854890823364,1,1.8416996002197266,None,,,,,,,,,,,,,,,,,,138,3,2025-02-27_09h27.48.060,comp,2024.2.4,60.043691002115835,2025-02-27 09h28.19.373499 -0500,
26,26,0,filler_square,None,None,None,None,None,None,None,None,None,None,3,2.9501988887786865,None,,,,,0,0,0,0,0,26,26,200,118.59419965744019,,,,,,,,,,,,,,,,,,,,,,,,,,,,,,,,,,,,,,,,,,,,,,,,,,,,,,,,,,,,,,,,,,,,,,,,,,,,,,,,,63.79895518934855,63.79895518934855,58.10284841141481,57.97498059982405,62.67537507096133,61.43210736078555,2.2,2.22,-157,253,0,-288,156,-262,118.57948517799377,118.57952404022217,118.58193683624268,118.59419965744019,118.74415278434753,118.74415278434753,118.74415278434753,118.74415278434753,118.74415278434753,118.74415278434753,118.74415278434753,121.56177377700806,3,2.9501988887786865,None,,,,,,,,,,,,,,,,,,138,3,2025-02-27_09h27.48.060,comp,2024.2.4,60.043691002115835,2025-02-27 09h28.19.373499 -0500,
27,27,0,filler_random,None,None,None,None,None,None,None,None,None,None,2,1.8791518211364746,None,,,,,0,0,0,0,0,27,27,132,121.5773298740387,,,,,,,,,,,,,,,,,,,,,,,,,,,,,,,,,,,,,,,,,,,,,,,,,,,,,,,,,,,,,,,,,,,,,,,,,,,,,,,,,157.07398143098987,81.32946920706836,167.48538582169576,184.88286601572113,163.89751038509368,105.51578379835745,2.2,2.21,-229,-282,0,267,241,274,121.56263184547424,121.5626711845398,121.56511878967285,121.5773298740387,121.72777009010315,121.72777009010315,121.72777009010315,121.72777009010315,121.72777009010315,121.72777009010315,121.72777009010315,123.46212673187256,2,1.8791518211364746,None,,,,,,,,,,,,,,,,,,138,3,2025-02-27_09h27.48.060,comp,2024.2.4,60.043691002115835,2025-02-27 09h28.19.373499 -0500,
28,28,0,critical,hwd,35.0,4.0,lower,133.0,57.0,57.0,133.0,70.0,70.0,2,1.2269184589385986,None,,,,,0,0,0,0,0,28,28,100,123.47752380371094,,,,,,,,,,,,,,,,,,,,,,,,,,,,,,,,,,,,,,,,,,,,,,,,,,,,,,,,,,,,,,,,,,,,,,,,,,,,,,,,,133.0,57.0,57.0,133.0,70.0,70.0,4.0,4.1,-191,-253,0,-13,198,-256,123.4629156589508,123.46295642852783,123.4651231765747,123.47752380371094,123.62746286392212,123.62746286392212,123.62746286392212,123.62746286392212,123.62746286392212,123.62746286392212,123.62746286392212,124.71189093589783,2,1.2269184589385986,None,,,,,,,,,,,,,,,,,,138,3,2025-02-27_09h27.48.060,comp,2024.2.4,60.043691002115835,2025-02-27 09h28.19.373499 -0500,
29,29,0,critical,whd,35.0,1.0,lower,57.0,133.0,133.0,57.0,70.0,70.0,2,1.266542911529541,None,,,,,0,0,0,0,0,29,29,84,124.72768497467041,,,,,,,,,,,,,,,,,,,,,,,,,,,,,,,,,,,,,,,,,,,,,,,,,,,,,,,,,,,,,,,,,,,,,,,,,,,,,,,,,57.0,133.0,133.0,57.0,70.0,70.0,1.0,1.3,289,-260,480,-282,640,-251,124.71269631385803,124.71273756027222,124.71524739265442,124.72768497467041,124.87771916389465,124.87771916389465,124.87771916389465,124.87771916389465,124.87771916389465,124.87771916389465,124.87771916389465,126.0117564201355,2,1.266542911529541,None,,,,,,,,,,,,,,,,,,138,3,2025-02-27_09h27.48.060,comp,2024.2.4,60.043691002115835,2025-02-27 09h28.19.373499 -0500,
30,30,0,critical,hwd,20.0,4.0,upper,200.0,125.0,125.0,200.0,141.0,141.0,2,2.07733416557312,None,,,,,0,0,0,0,0,30,30,107,126.02726483345032,,,,,,,,,,,,,,,,,,,,,,,,,,,,,,,,,,,,,,,,,,,,,,,,,,,,,,,,,,,,,,,,,,,,,,,,,,,,,,,,,200.0,125.0,125.0,200.0,141.0,141.0,4.0,4.2,-258,9,0,-253,266,8,126.01254796981812,126.01258897781372,126.01503014564514,126.02726483345032,126.17794060707092,126.17794060707092,126.17794060707092,126.17794060707092,126.17794060707092,126.17794060707092,126.17794060707092,128.1120481491089,2,2.07733416557312,None,,,,,,,,,,,,,,,,,,138,3,2025-02-27_09h27.48.060,comp,2024.2.4,60.043691002115835,2025-02-27 09h28.19.373499 -0500,
31,31,0,catch,None,None,None,None,None,None,None,None,None,None,3,1.8003871440887451,None,,,,,0,0,0,0,0,31,31,121,128.12755799293518,,,,,,,,,,,,,,,,,,,,,,,,,,,,,,,,,,,,,,,,,,,,,,,,,,,,,,,,,,,,,,,,,,,,,,,,,,,,,,,,,107,83,88,102,132,193,2.1,2.11,-188,264,0,267,244,-273,128.1131145954132,128.1131567955017,128.11574912071228,128.12755799293518,128.2774510383606,128.2774510383606,128.2774510383606,128.2774510383606,128.2774510383606,128.2774510383606,128.2774510383606,129.94521164894104,3,1.8003871440887451,None,,,,,,,,,,,,,,,,,,138,3,2025-02-27_09h27.48.060,comp,2024.2.4,60.043691002115835,2025-02-27 09h28.19.373499 -0500,
32,32,0,filler_square,None,None,None,None,None,None,None,None,None,None,2,1.9278059005737305,None,,,,,0,0,0,0,0,32,32,208,129.9607162475586,,,,,,,,,,,,,,,,,,,,,,,,,,,,,,,,,,,,,,,,,,,,,,,,,,,,,,,,,,,,,,,,,,,,,,,,,,,,,,,,,65.38878173374596,62.08918746483583,102.00344854785567,102.00344854785567,97.07366942427362,82.5136357111915,4.0,4.2,-178,-16,0,-268,188,-1,129.94617366790771,129.94621562957764,129.94952630996704,129.9607162475586,130.1108043193817,130.1108043193817,130.1108043193817,130.1108043193817,130.1108043193817,130.1108043193817,130.1108043193817,131.89516162872314,2,1.9278059005737305,None,,,,,,,,,,,,,,,,,,138,3,2025-02-27_09h27.48.060,comp,2024.2.4,60.043691002115835,2025-02-27 09h28.19.373499 -0500,
33,33,0,filler_square,None,None,None,None,None,None,None,None,None,None,2,0.9453599452972412,None,,,,,0,0,0,0,0,33,33,193,131.91098594665527,,,,,,,,,,,,,,,,,,,,,,,,,,,,,,,,,,,,,,,,,,,,,,,,,,,,,,,,,,,,,,,,,,,,,,,,,,,,,,,,,62.84673276689067,128.6882758364888,132.72711822003043,132.72711822003043,121.69712297889994,93.36606376257993,2.1,2.12,-227,-262,0,-273,209,273,131.89612460136414,131.8961672782898,131.89825987815857,131.91098594665527,132.06120657920837,132.06120657920837,132.06120657920837,132.06120657920837,132.06120657920837,132.06120657920837,132.06120657920837,132.86188960075378,2,0.9453599452972412,None,,,,,,,,,,,,,,,,,,138,3,2025-02-27_09h27.48.060,comp,2024.2.4,60.043691002115835,2025-02-27 09h28.19.373499 -0500,
34,34,0,critical,hdw,35.0,3.0,lower,133.0,57.0,70.0,70.0,57.0,133.0,1,2.675072193145752,None,,,,,0,0,0,0,0,34,34,110,132.87740015983582,,,,,,,,,,,,,,,,,,,,,,,,,,,,,,,,,,,,,,,,,,,,,,,,,,,,,,,,,,,,,,,,,,,,,,,,,,,,,,,,,133.0,57.0,70.0,70.0,57.0,133.0,3.0,3.2,-160,-253,0,-13,198,267,132.86267471313477,132.86271500587463,132.86521434783936,132.87740015983582,133.02735543251038,133.02735543251038,133.02735543251038,133.02735543251038,133.02735543251038,133.02735543251038,133.02735543251038,135.56179094314575,1,2.675072193145752,None,,,,,,,,,,,,,,,,,,138,3,2025-02-27_09h27.48.060,comp,2024.2.4,60.043691002115835,2025-02-27 09h28.19.373499 -0500,
35,35,0,filler_square,None,None,None,None,None,None,None,None,None,None,1,2.6947968006134033,None,,,,,0,0,0,0,0,35,35,187,135.57759928703308,,,,,,,,,,,,,,,,,,,,,,,,,,,,,,,,,,,,,,,,,,,,,,,,,,,,,,,,,,,,,,,,,,,,,,,,,,,,,,,,,107.50324539193986,107.50324539193986,85.17699014096536,99.7383828292385,102.67068471548393,101.12831457191592,3.0,3.1,-200,259,0,5,196,-287,135.56278586387634,135.56282687187195,135.56530594825745,135.57759928703308,135.72781705856323,135.72781705856323,135.72781705856323,135.72781705856323,135.72781705856323,135.72781705856323,135.72781705856323,138.27851629257202,1,2.6947968006134033,None,,,,,,,,,,,,,,,,,,138,3,2025-02-27_09h27.48.060,comp,2024.2.4,60.043691002115835,2025-02-27 09h28.19.373499 -0500,
36,36,0,filler_random,None,None,None,None,None,None,None,None,None,None,2,1.1213889122009277,None,,,,,0,0,0,0,0,36,36,140,138.29405689239502,,,,,,,,,,,,,,,,,,,,,,,,,,,,,,,,,,,,,,,,,,,,,,,,,,,,,,,,,,,,,,,,,,,,,,,,,,,,,,,,,91.15814713309166,104.77979260496676,124.83089218057725,196.01773395579664,102.18624489401553,83.92928718397887,1.0,1.1,-726,275,-480,284,-244,274,138.27940440177917,138.27944326400757,138.28179144859314,138.29405689239502,138.44408345222473,138.44408345222473,138.44408345222473,138.44408345222473,138.44408345222473,138.44408345222473,138.44408345222473,139.42865443229675,2,1.1213889122009277,None,,,,,,,,,,,,,,,,,,138,3,2025-02-27_09h27.48.060,comp,2024.2.4,60.043691002115835,2025-02-27 09h28.19.373499 -0500,
37,37,0,critical,hdw,20.0,3.0,upper,200.0,125.0,141.0,141.0,125.0,200.0,3,3.7553908824920654,None,,,,,0,0,0,0,0,37,37,117,139.4439196586609,,,,,,,,,,,,,,,,,,,,,,,,,,,,,,,,,,,,,,,,,,,,,,,,,,,,,,,,,,,,,,,,,,,,,,,,,,,,,,,,,200.0,125.0,141.0,141.0,125.0,200.0,3.0,3.1,-229,263,0,4,266,-260,139.42944741249084,139.42948961257935,139.4319133758545,139.4439196586609,139.59452438354492,139.59452438354492,139.59452438354492,139.59452438354492,139.59452438354492,139.59452438354492,139.59452438354492,143.21213817596436,3,3.7553908824920654,None,,,,,,,,,,,,,,,,,,138,3,2025-02-27_09h27.48.060,comp,2024.2.4,60.043691002115835,2025-02-27 09h28.19.373499 -0500,
38,38,0,filler_square,None,None,None,None,None,None,None,None,None,None,3,1.6681709289550781,None,,,,,0,0,0,0,0,38,38,190,143.22728943824768,,,,,,,,,,,,,,,,,,,,,,,,,,,,,,,,,,,,,,,,,,,,,,,,,,,,,,,,,,,,,,,,,,,,,,,,,,,,,,,,,138.99015029916796,108.51075100226205,127.85528100564572,62.79411841596998,150.74818421094602,150.74818421094602,2.2,2.21,-182,-281,0,269,203,287,143.21310424804688,143.21314573287964,143.21571683883667,143.22728943824768,143.37739610671997,143.37739610671997,143.37739610671997,143.37739610671997,143.37739610671997,143.37739610671997,143.37739610671997,144.91187644004822,3,1.6681709289550781,None,,,,,,,,,,,,,,,,,,138,3,2025-02-27_09h27.48.060,comp,2024.2.4,60.043691002115835,2025-02-27 09h28.19.373499 -0500,
39,39,0,critical,whd,20.0,4.0,upper,125.0,200.0,200.0,125.0,141.0,141.0,1,4.26665735244751,None,,,,,0,0,0,0,0,39,39,95,144.92712783813477,,,,,,,,,,,,,,,,,,,,,,,,,,,,,,,,,,,,,,,,,,,,,,,,,,,,,,,,,,,,,,,,,,,,,,,,,,,,,,,,,125.0,200.0,200.0,125.0,141.0,141.0,4.0,4.2,-258,-8,0,-280,229,16,144.9126741886139,144.91271543502808,144.91518902778625,144.92712783813477,145.07749271392822,145.07749271392822,145.07749271392822,145.07749271392822,145.07749271392822,145.07749271392822,145.07749271392822,149.19540119171143,1,4.26665735244751,None,,,,,,,,,,,,,,,,,,138,3,2025-02-27_09h27.48.060,comp,2024.2.4,60.043691002115835,2025-02-27 09h28.19.373499 -0500,
40,40,0,critical,dwh,35.0,3.0,lower,70.0,70.0,57.0,133.0,133.0,57.0,2,1.645618200302124,None,,,,,0,0,0,0,0,40,40,62,149.21073269844055,,,,,,,,,,,,,,,,,,,,,,,,,,,,,,,,,,,,,,,,,,,,,,,,,,,,,,,,,,,,,,,,,,,,,,,,,,,,,,,,,70.0,70.0,57.0,133.0,133.0,57.0,3.0,3.2,-198,-280,0,-14,191,289,149.1961646080017,149.19620537757874,149.19836735725403,149.21073269844055,149.36073541641235,149.36073541641235,149.36073541641235,149.36073541641235,149.36073541641235,149.36073541641235,149.36073541641235,150.8618824481964,2,1.645618200302124,None,,,,,,,,,,,,,,,,,,138,3,2025-02-27_09h27.48.060,comp,2024.2.4,60.043691002115835,2025-02-27 09h28.19.373499 -0500,
41,41,0,critical,hdw,35.0,2.1,lower,133.0,57.0,70.0,70.0,57.0,133.0,3,2.1165215969085693,None,,,,,0,0,0,0,0,41,41,20,150.8774356842041,,,,,,,,,,,,,,,,,,,,,,,,,,,,,,,,,,,,,,,,,,,,,,,,,,,,,,,,,,,,,,,,,,,,,,,,,,,,,,,,,133.0,57.0,70.0,70.0,57.0,133.0,2.1,2.11,-160,278,0,283,198,-288,150.8627805709839,150.8628237247467,150.8654272556305,150.8774356842041,151.02740740776062,151.02740740776062,151.02740740776062,151.02740740776062,151.02740740776062,151.02740740776062,151.02740740776062,152.99520063400269,3,2.1165215969085693,None,,,,,,,,,,,,,,,,,,138,3,2025-02-27_09h27.48.060,comp,2024.2.4,60.043691002115835,2025-02-27 09h28.19.373499 -0500,
42,42,0,critical,hdw,20.0,2.1,lower,133.0,57.0,78.0,78.0,57.0,133.0,3,1.5990290641784668,None,,,,,0,0,0,0,0,42,42,46,153.0108585357666,,,,,,,,,,,,,,,,,,,,,,,,,,,,,,,,,,,,,,,,,,,,,,,,,,,,,,,,,,,,,,,,,,,,,,,,,,,,,,,,,133.0,57.0,78.0,78.0,57.0,133.0,2.1,2.12,-164,-286,0,-274,202,281,152.9959921836853,152.99603533744812,152.99845004081726,153.0108585357666,153.16052436828613,153.16052436828613,153.16052436828613,153.16052436828613,153.16052436828613,153.16052436828613,153.16052436828613,154.61207175254822,3,1.5990290641784668,None,,,,,,,,,,,,,,,,,,138,3,2025-02-27_09h27.48.060,comp,2024.2.4,60.043691002115835,2025-02-27 09h28.19.373499 -0500,
43,43,0,filler_random,None,None,None,None,None,None,None,None,None,None,3,1.9333577156066895,None,,,,,0,0,0,0,0,43,43,150,154.62737393379211,,,,,,,,,,,,,,,,,,,,,,,,,,,,,,,,,,,,,,,,,,,,,,,,,,,,,,,,,,,,,,,,,,,,,,,,,,,,,,,,,58.94272698163345,121.98574193797438,80.39182109105472,116.13129323735511,123.80088875919576,118.23984709117096,1.0,1.2,-215,-11,0,20,213,13,154.61298751831055,154.6130292415619,154.6157624721527,154.62737393379211,154.77766823768616,154.77766823768616,154.77766823768616,154.77766823768616,154.77766823768616,154.77766823768616,154.77766823768616,156.57829523086548,3,1.9333577156066895,None,,,,,,,,,,,,,,,,,,138,3,2025-02-27_09h27.48.060,comp,2024.2.4,60.043691002115835,2025-02-27 09h28.19.373499 -0500,
44,44,0,critical,hdw,20.0,2.1,upper,200.0,125.0,141.0,141.0,125.0,200.0,3,1.9268295764923096,None,,,,,0,0,0,0,0,44,44,47,156.59372758865356,,,,,,,,,,,,,,,,,,,,,,,,,,,,,,,,,,,,,,,,,,,,,,,,,,,,,,,,,,,,,,,,,,,,,,,,,,,,,,,,,200.0,125.0,141.0,141.0,125.0,200.0,2.1,2.12,-229,-289,0,-274,266,278,156.57908511161804,156.5791254043579,156.58147287368774,156.59372758865356,156.74412059783936,156.74412059783936,156.74412059783936,156.74412059783936,156.74412059783936,156.74412059783936,156.74412059783936,158.5285587310791,3,1.9268295764923096,None,,,,,,,,,,,,,,,,,,138,3,2025-02-27_09h27.48.060,comp,2024.2.4,60.043691002115835,2025-02-27 09h28.19.373499 -0500,
45,45,0,filler_random,None,None,None,None,None,None,None,None,None,None,1,2.449795722961426,None,,,,,0,0,0,0,0,45,45,130,158.54406762123108,,,,,,,,,,,,,,,,,,,,,,,,,,,,,,,,,,,,,,,,,,,,,,,,,,,,,,,,,,,,,,,,,,,,,,,,,,,,,,,,,148.83804808564264,161.27507900468606,152.78700153057076,157.89061881205987,137.88205611022798,124.8446481296627,2.2,2.21,-256,-272,0,273,237,288,158.52946209907532,158.52950239181519,158.53193974494934,158.54406762123108,158.69410061836243,158.69410061836243,158.69410061836243,158.69410061836243,158.69410061836243,158.69410061836243,158.69410061836243,160.99530458450317,1,2.449795722961426,None,,,,,,,,,,,,,,,,,,138,3,2025-02-27_09h27.48.060,comp,2024.2.4,60.043691002115835,2025-02-27 09h28.19.373499 -0500,
46,46,0,critical,dwh,35.0,2.1,lower,70.0,70.0,57.0,133.0,133.0,57.0,2,1.452653169631958,None,,,,,0,0,0,0,0,46,46,28,161.01074171066284,,,,,,,,,,,,,,,,,,,,,,,,,,,,,,,,,,,,,,,,,,,,,,,,,,,,,,,,,,,,,,,,,,,,,,,,,,,,,,,,,70.0,70.0,57.0,133.0,133.0,57.0,2.1,2.12,-198,-262,0,-279,191,274,160.9960539340973,160.99609375,160.998459815979,161.01074171066284,161.16055011749268,161.16055011749268,161.16055011749268,161.16055011749268,161.16055011749268,161.16055011749268,161.16055011749268,162.47832703590393,2,1.452653169631958,None,,,,,,,,,,,,,,,,,,138,3,2025-02-27_09h27.48.060,comp,2024.2.4,60.043691002115835,2025-02-27 09h28.19.373499 -0500,
47,47,0,filler_square,None,None,None,None,None,None,None,None,None,None,3,2.7627062797546387,None,,,,,0,0,0,0,0,47,47,184,162.49372720718384,,,,,,,,,,,,,,,,,,,,,,,,,,,,,,,,,,,,,,,,,,,,,,,,,,,,,,,,,,,,,,,,,,,,,,,,,,,,,,,,,66.6802068085673,58.237357813792386,62.85410556954396,58.87477136641817,67.38243135265823,67.38243135265823,4.0,4.2,-155,-17,0,-290,159,14,162.47929191589355,162.47933721542358,162.48169040679932,162.49372720718384,162.64378762245178,162.64378762245178,162.64378762245178,162.64378762245178,162.64378762245178,162.64378762245178,162.64378762245178,165.26176047325134,3,2.7627062797546387,None,,,,,,,,,,,,,,,,,,138,3,2025-02-27_09h27.48.060,comp,2024.2.4,60.043691002115835,2025-02-27 09h28.19.373499 -0500,
48,48,0,critical,wdh,35.0,4.0,upper,125.0,200.0,127.0,127.0,200.0,125.0,1,2.49165940284729,None,,,,,0,0,0,0,0,48,48,77,165.2773458957672,,,,,,,,,,,,,,,,,,,,,,,,,,,,,,,,,,,,,,,,,,,,,,,,,,,,,,,,,,,,,,,,,,,,,,,,,,,,,,,,,125.0,200.0,127.0,127.0,200.0,125.0,4.0,4.2,-260,-17,0,-262,222,2,165.26255917549133,165.26260042190552,165.26597905158997,165.2773458957672,165.4274823665619,165.4274823665619,165.4274823665619,165.4274823665619,165.4274823665619,165.4274823665619,165.4274823665619,167.7787742614746,1,2.49165940284729,None,,,,,,,,,,,,,,,,,,138,3,2025-02-27_09h27.48.060,comp,2024.2.4,60.043691002115835,2025-02-27 09h28.19.373499 -0500,
49,49,0,filler_random,None,None,None,None,None,None,None,None,None,None,2,5.885565280914307,None,,,,,0,0,0,0,0,49,49,131,167.7941107749939,,,,,,,,,,,,,,,,,,,,,,,,,,,,,,,,,,,,,,,,,,,,,,,,,,,,,,,,,,,,,,,,,,,,,,,,,,,,,,,,,111.22954717557462,110.80527163735884,131.27668638040115,93.08128400501886,80.55250061344844,134.7023728098876,2.2,2.22,-198,278,0,-259,210,-267,167.77970600128174,167.77974843978882,167.781809091568,167.7941107749939,167.9441318511963,167.9441318511963,167.9441318511963,167.9441318511963,167.9441318511963,167.9441318511963,167.9441318511963,173.69500637054443,2,5.885565280914307,None,,,,,,,,,,,,,,,,,,138,3,2025-02-27_09h27.48.060,comp,2024.2.4,60.043691002115835,2025-02-27 09h28.19.373499 -0500,
50,50,0,catch,None,None,None,None,None,None,None,None,None,None,2,1.352792501449585,None,,,,,0,0,0,0,0,50,50,122,173.71040868759155,,,,,,,,,,,,,,,,,,,,,,,,,,,,,,,,,,,,,,,,,,,,,,,,,,,,,,,,,,,,,,,,,,,,,,,,,,,,,,,,,109,81,193,132,133,57,2.2,2.22,-202,255,0,-251,190,-273,173.6960632801056,173.69610595703125,173.698664188385,173.71040868759155,173.8604428768158,173.8604428768158,173.8604428768158,173.8604428768158,173.8604428768158,173.8604428768158,173.8604428768158,175.0782516002655,2,1.352792501449585,None,,,,,,,,,,,,,,,,,,138,3,2025-02-27_09h27.48.060,comp,2024.2.4,60.043691002115835,2025-02-27 09h28.19.373499 -0500,
51,51,0,filler_random,None,None,None,None,None,None,None,None,None,None,1,1.2505831718444824,None,,,,,0,0,0,0,0,51,51,152,175.09364223480225,,,,,,,,,,,,,,,,,,,,,,,,,,,,,,,,,,,,,,,,,,,,,,,,,,,,,,,,,,,,,,,,,,,,,,,,,,,,,,,,,174.62077653204867,197.45884268687806,83.35737841039824,159.06313327201732,175.70164564530353,116.32682788297093,3.0,3.1,-274,290,0,-8,234,-271,175.07919359207153,175.07923531532288,175.08136200904846,175.09364223480225,175.24385046958923,175.24385046958923,175.24385046958923,175.24385046958923,175.24385046958923,175.24385046958923,175.24385046958923,176.34535598754883,1,1.2505831718444824,None,,,,,,,,,,,,,,,,,,138,3,2025-02-27_09h27.48.060,comp,2024.2.4,60.043691002115835,2025-02-27 09h28.19.373499 -0500,
52,52,0,catch,None,None,None,None,None,None,None,None,None,None,2,1.1597614288330078,None,,,,,0,0,0,0,0,52,52,120,176.36046624183655,,,,,,,,,,,,,,,,,,,,,,,,,,,,,,,,,,,,,,,,,,,,,,,,,,,,,,,,,,,,,,,,,,,,,,,,,,,,,,,,,127,63,181,144,87,103,2.1,2.11,-200,253,0,281,220,-252,176.3464057445526,176.34646248817444,176.3490068912506,176.36046624183655,176.51049971580505,176.51049971580505,176.51049971580505,176.51049971580505,176.51049971580505,176.51049971580505,176.51049971580505,177.5282015800476,2,1.1597614288330078,None,,,,,,,,,,,,,,,,,,138,3,2025-02-27_09h27.48.060,comp,2024.2.4,60.043691002115835,2025-02-27 09h28.19.373499 -0500,
53,53,0,critical,wdh,35.0,2.1,lower,57.0,133.0,70.0,70.0,133.0,57.0,1,3.26659893989563,None,,,,,0,0,0,0,0,53,53,8,177.54377555847168,,,,,,,,,,,,,,,,,,,,,,,,,,,,,,,,,,,,,,,,,,,,,,,,,,,,,,,,,,,,,,,,,,,,,,,,,,,,,,,,,57.0,133.0,70.0,70.0,133.0,57.0,2.1,2.12,-198,-273,0,-281,160,280,177.5290172100067,177.5290584564209,177.53130555152893,177.54377555847168,177.6937234401703,177.6937234401703,177.6937234401703,177.6937234401703,177.6937234401703,177.6937234401703,177.6937234401703,180.82819294929504,1,3.26659893989563,None,,,,,,,,,,,,,,,,,,138,3,2025-02-27_09h27.48.060,comp,2024.2.4,60.043691002115835,2025-02-27 09h28.19.373499 -0500,
54,54,0,filler_square,None,None,None,None,None,None,None,None,None,None,3,3.2282423973083496,None,,,,,0,0,0,0,0,54,54,174,180.84371876716614,,,,,,,,,,,,,,,,,,,,,,,,,,,,,,,,,,,,,,,,,,,,,,,,,,,,,,,,,,,,,,,,,,,,,,,,,,,,,,,,,112.71899228830932,112.71899228830932,112.63863810845538,71.94380648894445,98.79259172966593,103.4390988749349,2.2,2.22,-188,251,0,-264,184,-256,180.82919883728027,180.82924103736877,180.8327977657318,180.84371876716614,180.99383234977722,180.99383234977722,180.99383234977722,180.99383234977722,180.99383234977722,180.99383234977722,180.99383234977722,184.07841444015503,3,3.2282423973083496,None,,,,,,,,,,,,,,,,,,138,3,2025-02-27_09h27.48.060,comp,2024.2.4,60.043691002115835,2025-02-27 09h28.19.373499 -0500,
55,55,0,critical,dhw,20.0,2.1,lower,78.0,78.0,133.0,57.0,57.0,133.0,3,2.626281499862671,None,,,,,0,0,0,0,0,55,55,26,184.09382891654968,,,,,,,,,,,,,,,,,,,,,,,,,,,,,,,,,,,,,,,,,,,,,,,,,,,,,,,,,,,,,,,,,,,,,,,,,,,,,,,,,78.0,78.0,133.0,57.0,57.0,133.0,2.1,2.12,-164,-274,0,-271,191,262,184.07919573783875,184.0792360305786,184.08191204071045,184.09382891654968,184.24364519119263,184.24364519119263,184.24364519119263,184.24364519119263,184.24364519119263,184.24364519119263,184.24364519119263,186.7281768321991,3,2.626281499862671,None,,,,,,,,,,,,,,,,,,138,3,2025-02-27_09h27.48.060,comp,2024.2.4,60.043691002115835,2025-02-27 09h28.19.373499 -0500,
56,56,0,critical,whd,35.0,4.0,upper,125.0,200.0,200.0,125.0,127.0,127.0,1,1.5513031482696533,None,,,,,0,0,0,0,0,56,56,89,186.74380373954773,,,,,,,,,,,,,,,,,,,,,,,,,,,,,,,,,,,,,,,,,,,,,,,,,,,,,,,,,,,,,,,,,,,,,,,,,,,,,,,,,125.0,200.0,200.0,125.0,127.0,127.0,4.0,4.1,-258,-286,0,11,222,-262,186.72902965545654,186.72907042503357,186.731769323349,186.74380373954773,186.89383172988892,186.89383172988892,186.89383172988892,186.89383172988892,186.89383172988892,186.89383172988892,186.89383172988892,188.31159830093384,1,1.5513031482696533,None,,,,,,,,,,,,,,,,,,138,3,2025-02-27_09h27.48.060,comp,2024.2.4,60.043691002115835,2025-02-27 09h28.19.373499 -0500,
57,57,0,filler_square,None,None,None,None,None,None,None,None,None,None,3,1.77695894241333,None,,,,,0,0,0,0,0,57,57,170,188.3269543647766,,,,,,,,,,,,,,,,,,,,,,,,,,,,,,,,,,,,,,,,,,,,,,,,,,,,,,,,,,,,,,,,,,,,,,,,,,,,,,,,,85.46549648013078,66.93627092963915,88.19777780051783,81.98997725104925,102.61008223912269,102.61008223912269,2.1,2.11,-170,279,0,273,188,-273,188.31257438659668,188.31261587142944,188.31507015228271,188.3269543647766,188.47711086273193,188.47711086273193,188.47711086273193,188.47711086273193,188.47711086273193,188.47711086273193,188.47711086273193,190.11144590377808,3,1.77695894241333,None,,,,,,,,,,,,,,,,,,138,3,2025-02-27_09h27.48.060,comp,2024.2.4,60.043691002115835,2025-02-27 09h28.19.373499 -0500,
58,58,0,filler_random,None,None,None,None,None,None,None,None,None,None,1,1.6090247631072998,None,,,,,0,0,0,0,0,58,58,155,190.1270899772644,,,,,,,,,,,,,,,,,,,,,,,,,,,,,,,,,,,,,,,,,,,,,,,,,,,,,,,,,,,,,,,,,,,,,,,,,,,,,,,,,182.12140763930012,85.85837763631253,128.89901852177195,84.32482901878248,153.10400861826707,102.8629690840971,2.2,2.21,-181,-258,0,288,190,256,190.11241102218628,190.1124529838562,190.1147985458374,190.1270899772644,190.2771122455597,190.2771122455597,190.2771122455597,190.2771122455597,190.2771122455597,190.2771122455597,190.2771122455597,191.74488878250122,1,1.6090247631072998,None,,,,,,,,,,,,,,,,,,138,3,2025-02-27_09h27.48.060,comp,2024.2.4,60.043691002115835,2025-02-27 09h28.19.373499 -0500,
59,59,0,critical,whd,35.0,1.0,upper,125.0,200.0,200.0,125.0,127.0,127.0,2,1.9274773597717285,None,,,,,0,0,0,0,0,59,59,85,191.76050853729248,,,,,,,,,,,,,,,,,,,,,,,,,,,,,,,,,,,,,,,,,,,,,,,,,,,,,,,,,,,,,,,,,,,,,,,,,,,,,,,,,125.0,200.0,200.0,125.0,127.0,127.0,1.0,1.2,-258,9,0,-10,222,1,191.74567365646362,191.74571657180786,191.74814200401306,191.76050853729248,191.91050219535828,191.91050219535828,191.91050219535828,191.91050219535828,191.91050219535828,191.91050219535828,191.91050219535828,193.69492888450623,2,1.9274773597717285,None,,,,,,,,,,,,,,,,,,138,3,2025-02-27_09h27.48.060,comp,2024.2.4,60.043691002115835,2025-02-27 09h28.19.373499 -0500,
60,60,0,critical,hdw,20.0,4.0,upper,200.0,125.0,141.0,141.0,125.0,200.0,3,3.0830960273742676,None,,,,,0,0,0,0,0,60,60,119,193.71039295196533,,,,,,,,,,,,,,,,,,,,,,,,,,,,,,,,,,,,,,,,,,,,,,,,,,,,,,,,,,,,,,,,,,,,,,,,,,,,,,,,,200.0,125.0,141.0,141.0,125.0,200.0,4.0,4.2,-229,-15,0,-258,266,5,193.6957347393036,193.69577765464783,193.69820094108582,193.71039295196533,193.8604655265808,193.8604655265808,193.8604655265808,193.8604655265808,193.8604655265808,193.8604655265808,193.8604655265808,196.79521703720093,3,3.0830960273742676,None,,,,,,,,,,,,,,,,,,138,3,2025-02-27_09h27.48.060,comp,2024.2.4,60.043691002115835,2025-02-27 09h28.19.373499 -0500,
61,61,0,filler_square,None,None,None,None,None,None,None,None,None,None,2,1.1885404586791992,None,,,,,0,0,0,0,0,61,61,194,196.81038737297058,,,,,,,,,,,,,,,,,,,,,,,,,,,,,,,,,,,,,,,,,,,,,,,,,,,,,,,,,,,,,,,,,,,,,,,,,,,,,,,,,144.84725770861516,69.60122205989995,169.70667226725647,169.70667226725647,104.55796228502504,81.75329689821402,1.0,1.2,-216,-6,0,0,222,6,196.7961823940277,196.79622435569763,196.7988293170929,196.81038737297058,196.96074414253235,196.96074414253235,196.96074414253235,196.96074414253235,196.96074414253235,196.96074414253235,196.96074414253235,198.0115156173706,2,1.1885404586791992,None,,,,,,,,,,,,,,,,,,138,3,2025-02-27_09h27.48.060,comp,2024.2.4,60.043691002115835,2025-02-27 09h28.19.373499 -0500,
62,62,0,critical,dhw,35.0,2.1,upper,127.0,127.0,200.0,125.0,125.0,200.0,3,2.4361579418182373,None,,,,,0,0,0,0,0,62,62,25,198.0268702507019,,,,,,,,,,,,,,,,,,,,,,,,,,,,,,,,,,,,,,,,,,,,,,,,,,,,,,,,,,,,,,,,,,,,,,,,,,,,,,,,,127.0,127.0,200.0,125.0,125.0,200.0,2.1,2.11,-222,279,0,272,258,-258,198.01230835914612,198.01234889030457,198.01476120948792,198.0268702507019,198.17749738693237,198.17749738693237,198.17749738693237,198.17749738693237,198.17749738693237,198.17749738693237,198.17749738693237,200.4782063961029,3,2.4361579418182373,None,,,,,,,,,,,,,,,,,,138,3,2025-02-27_09h27.48.060,comp,2024.2.4,60.043691002115835,2025-02-27 09h28.19.373499 -0500,
63,63,0,filler_square,None,None,None,None,None,None,None,None,None,None,1,1.8104941844940186,None,,,,,0,0,0,0,0,63,63,204,200.4935019016266,,,,,,,,,,,,,,,,,,,,,,,,,,,,,,,,,,,,,,,,,,,,,,,,,,,,,,,,,,,,,,,,,,,,,,,,,,,,,,,,,199.71589416768086,199.71589416768086,66.75651070145904,104.20153398279075,190.25207425071102,111.39019667005316,2.2,2.21,-248,-268,0,263,204,259,200.47914123535156,200.4791820049286,200.48125767707825,200.4935019016266,200.64419722557068,200.64419722557068,200.64419722557068,200.64419722557068,200.64419722557068,200.64419722557068,200.64419722557068,202.31153225898743,1,1.8104941844940186,None,,,,,,,,,,,,,,,,,,138,3,2025-02-27_09h27.48.060,comp,2024.2.4,60.043691002115835,2025-02-27 09h28.19.373499 -0500,
64,64,0,filler_square,None,None,None,None,None,None,None,None,None,None,2,1.351947546005249,None,,,,,0,0,0,0,0,64,64,189,202.32700538635254,,,,,,,,,,,,,,,,,,,,,,,,,,,,,,,,,,,,,,,,,,,,,,,,,,,,,,,,,,,,,,,,,,,,,,,,,,,,,,,,,81.3620666255738,81.75203389543947,95.2075935391133,95.2075935391133,79.92291383677282,75.36854813113887,2.2,2.22,-184,277,0,-279,181,-269,202.31251001358032,202.31255221366882,202.31464099884033,202.32700538635254,202.4769024848938,202.4769024848938,202.4769024848938,202.4769024848938,202.4769024848938,202.4769024848938,202.4769024848938,203.69480514526367,2,1.351947546005249,None,,,,,,,,,,,,,,,,,,138,3,2025-02-27_09h27.48.060,comp,2024.2.4,60.043691002115835,2025-02-27 09h28.19.373499 -0500,
65,65,0,filler_random,None,None,None,None,None,None,None,None,None,None,3,1.7152643203735352,None,,,,,0,0,0,0,0,65,65,165,203.71014547348022,,,,,,,,,,,,,,,,,,,,,,,,,,,,,,,,,,,,,,,,,,,,,,,,,,,,,,,,,,,,,,,,,,,,,,,,,,,,,,,,,173.64148388932054,123.14430343948248,63.68166259957283,138.82375546228906,153.8843383059127,166.86784423059584,4.0,4.1,-227,-268,0,-20,249,-253,203.69570326805115,203.6957437992096,203.69828581809998,203.71014547348022,203.86040139198303,203.86040139198303,203.86040139198303,203.86040139198303,203.86040139198303,203.86040139198303,203.86040139198303,205.42829942703247,3,1.7152643203735352,None,,,,,,,,,,,,,,,,,,138,3,2025-02-27_09h27.48.060,comp,2024.2.4,60.043691002115835,2025-02-27 09h28.19.373499 -0500,
66,66,0,filler_random,None,None,None,None,None,None,None,None,None,None,2,1.1713924407958984,None,,,,,0,0,0,0,0,66,66,136,205.4435625076294,,,,,,,,,,,,,,,,,,,,,,,,,,,,,,,,,,,,,,,,,,,,,,,,,,,,,,,,,,,,,,,,,,,,,,,,,,,,,,,,,140.66460560911145,111.91987873357407,173.28202318840766,199.18864918277947,99.1584918247809,155.43297560570232,2.1,2.12,-252,-260,0,-257,273,258,205.4291603565216,205.42920112609863,205.43143677711487,205.4435625076294,205.59407210350037,205.59407210350037,205.59407210350037,205.59407210350037,205.59407210350037,205.59407210350037,205.59407210350037,206.6281361579895,2,1.1713924407958984,None,,,,,,,,,,,,,,,,,,138,3,2025-02-27_09h27.48.060,comp,2024.2.4,60.043691002115835,2025-02-27 09h28.19.373499 -0500,
67,67,0,filler_random,None,None,None,None,None,None,None,None,None,None,3,1.6925532817840576,None,,,,,0,0,0,0,0,67,67,137,206.64340806007385,,,,,,,,,,,,,,,,,,,,,,,,,,,,,,,,,,,,,,,,,,,,,,,,,,,,,,,,,,,,,,,,,,,,,,,,,,,,,,,,,126.2469600904215,64.51587451641318,149.0886267274787,103.1353579801592,85.689852857055,190.0368211992195,4.0,4.1,-180,-286,0,7,243,-290,206.6289985179901,206.62903881072998,206.63101840019226,206.64340806007385,206.79389309883118,206.79389309883118,206.79389309883118,206.79389309883118,206.79389309883118,206.79389309883118,206.79389309883118,208.34466171264648,3,1.6925532817840576,None,,,,,,,,,,,,,,,,,,138,3,2025-02-27_09h27.48.060,comp,2024.2.4,60.043691002115835,2025-02-27 09h28.19.373499 -0500,
68,68,0,filler_square,None,None,None,None,None,None,None,None,None,None,2,1.0333540439605713,None,,,,,0,0,0,0,0,68,68,192,208.360347032547,,,,,,,,,,,,,,,,,,,,,,,,,,,,,,,,,,,,,,,,,,,,,,,,,,,,,,,,,,,,,,,,,,,,,,,,,,,,,,,,,86.30570688084615,117.43877711798021,159.98676060825716,159.98676060825716,65.33577951406558,74.7968586477552,1.0,1.1,-715,270,-480,283,-267,251,208.34561276435852,208.34565424919128,208.34777116775513,208.360347032547,208.5104215145111,208.5104215145111,208.5104215145111,208.5104215145111,208.5104215145111,208.5104215145111,208.5104215145111,209.3949031829834,2,1.0333540439605713,None,,,,,,,,,,,,,,,,,,138,3,2025-02-27_09h27.48.060,comp,2024.2.4,60.043691002115835,2025-02-27 09h28.19.373499 -0500,
69,69,0,critical,wdh,20.0,2.1,upper,125.0,200.0,141.0,141.0,200.0,125.0,3,1.8150262832641602,None,,,,,0,0,0,0,0,69,69,11,209.4101915359497,,,,,,,,,,,,,,,,,,,,,,,,,,,,,,,,,,,,,,,,,,,,,,,,,,,,,,,,,,,,,,,,,,,,,,,,,,,,,,,,,125.0,200.0,141.0,141.0,200.0,125.0,2.1,2.11,-266,285,0,260,229,-280,209.39573574066162,209.39577794075012,209.39841723442078,209.4101915359497,209.5604326725006,209.5604326725006,209.5604326725006,209.5604326725006,209.5604326725006,209.5604326725006,209.5604326725006,211.22862839698792,3,1.8150262832641602,None,,,,,,,,,,,,,,,,,,138,3,2025-02-27_09h27.48.060,comp,2024.2.4,60.043691002115835,2025-02-27 09h28.19.373499 -0500,
70,70,0,critical,hdw,20.0,4.0,lower,133.0,57.0,78.0,78.0,57.0,133.0,3,1.4841945171356201,None,,,,,0,0,0,0,0,70,70,118,211.2438976764679,,,,,,,,,,,,,,,,,,,,,,,,,,,,,,,,,,,,,,,,,,,,,,,,,,,,,,,,,,,,,,,,,,,,,,,,,,,,,,,,,133.0,57.0,78.0,78.0,57.0,133.0,4.0,4.2,-164,-5,0,-260,202,-4,211.22933745384216,211.22937440872192,211.23129749298096,211.2438976764679,211.39391350746155,211.39391350746155,211.39391350746155,211.39391350746155,211.39391350746155,211.39391350746155,211.39391350746155,212.74479913711548,3,1.4841945171356201,None,,,,,,,,,,,,,,,,,,138,3,2025-02-27_09h27.48.060,comp,2024.2.4,60.043691002115835,2025-02-27 09h28.19.373499 -0500,
71,71,0,critical,dhw,20.0,3.0,lower,78.0,78.0,133.0,57.0,57.0,133.0,3,1.5833837985992432,None,,,,,0,0,0,0,0,71,71,56,212.76036095619202,,,,,,,,,,,,,,,,,,,,,,,,,,,,,,,,,,,,,,,,,,,,,,,,,,,,,,,,,,,,,,,,,,,,,,,,,,,,,,,,,78.0,78.0,133.0,57.0,57.0,133.0,3.0,3.2,-164,-280,0,-14,191,257,212.74553513526917,212.74557256698608,212.74740886688232,212.76036095619202,212.91015601158142,212.91015601158142,212.91015601158142,212.91015601158142,212.91015601158142,212.91015601158142,212.91015601158142,214.36118984222412,3,1.5833837985992432,None,,,,,,,,,,,,,,,,,,138,3,2025-02-27_09h27.48.060,comp,2024.2.4,60.043691002115835,2025-02-27 09h28.19.373499 -0500,
72,72,0,critical,hdw,35.0,4.0,upper,200.0,125.0,127.0,127.0,125.0,200.0,3,2.670501947402954,None,,,,,0,0,0,0,0,72,72,113,214.37653160095215,,,,,,,,,,,,,,,,,,,,,,,,,,,,,,,,,,,,,,,,,,,,,,,,,,,,,,,,,,,,,,,,,,,,,,,,,,,,,,,,,200.0,125.0,127.0,127.0,125.0,200.0,4.0,4.2,-222,-14,0,-259,260,-14,214.36195850372314,214.361998796463,214.3642120361328,214.37653160095215,214.52711009979248,214.52711009979248,214.52711009979248,214.52711009979248,214.52711009979248,214.52711009979248,214.52711009979248,217.061443567276,3,2.670501947402954,None,,,,,,,,,,,,,,,,,,138,3,2025-02-27_09h27.48.060,comp,2024.2.4,60.043691002115835,2025-02-27 09h28.19.373499 -0500,
73,73,0,critical,whd,20.0,2.1,upper,125.0,200.0,200.0,125.0,141.0,141.0,2,3.0024607181549072,None,,,,,0,0,0,0,0,73,73,39,217.07659459114075,,,,,,,,,,,,,,,,,,,,,,,,,,,,,,,,,,,,,,,,,,,,,,,,,,,,,,,,,,,,,,,,,,,,,,,,,,,,,,,,,125.0,200.0,200.0,125.0,141.0,141.0,2.1,2.11,-258,268,0,253,229,-255,217.06221079826355,217.06224942207336,217.0645067691803,217.07659459114075,217.22702884674072,217.22702884674072,217.22702884674072,217.22702884674072,217.22702884674072,217.22702884674072,217.22702884674072,220.0947971343994,2,3.0024607181549072,None,,,,,,,,,,,,,,,,,,138,3,2025-02-27_09h27.48.060,comp,2024.2.4,60.043691002115835,2025-02-27 09h28.19.373499 -0500,
74,74,0,critical,dwh,35.0,2.1,upper,127.0,127.0,125.0,200.0,200.0,125.0,2,1.4504399299621582,None,,,,,0,0,0,0,0,74,74,5,220.1100368499756,,,,,,,,,,,,,,,,,,,,,,,,,,,,,,,,,,,,,,,,,,,,,,,,,,,,,,,,,,,,,,,,,,,,,,,,,,,,,,,,,127.0,127.0,125.0,200.0,200.0,125.0,2.1,2.12,-260,-258,0,-259,258,288,220.09559178352356,220.09563326835632,220.09814882278442,220.1100368499756,220.26033091545105,220.26033091545105,220.26033091545105,220.26033091545105,220.26033091545105,220.26033091545105,220.26033091545105,221.57807111740112,2,1.4504399299621582,None,,,,,,,,,,,,,,,,,,138,3,2025-02-27_09h27.48.060,comp,2024.2.4,60.043691002115835,2025-02-27 09h28.19.373499 -0500,
75,75,0,critical,hdw,20.0,2.1,lower,133.0,57.0,78.0,78.0,57.0,133.0,3,3.7426483631134033,None,,,,,0,0,0,0,0,75,75,22,221.5933244228363,,,,,,,,,,,,,,,,,,,,,,,,,,,,,,,,,,,,,,,,,,,,,,,,,,,,,,,,,,,,,,,,,,,,,,,,,,,,,,,,,133.0,57.0,78.0,78.0,57.0,133.0,2.1,2.11,-164,262,0,271,202,-253,221.57888102531433,221.57892107963562,221.58137273788452,221.5933244228363,221.74431586265564,221.74431586265564,221.74431586265564,221.74431586265564,221.74431586265564,221.74431586265564,221.74431586265564,225.3445906639099,3,3.7426483631134033,None,,,,,,,,,,,,,,,,,,138,3,2025-02-27_09h27.48.060,comp,2024.2.4,60.043691002115835,2025-02-27 09h28.19.373499 -0500,
76,76,0,critical,hwd,35.0,2.1,upper,200.0,125.0,125.0,200.0,127.0,127.0,2,2.759768009185791,None,,,,,0,0,0,0,0,76,76,41,225.3602156639099,,,,,,,,,,,,,,,,,,,,,,,,,,,,,,,,,,,,,,,,,,,,,,,,,,,,,,,,,,,,,,,,,,,,,,,,,,,,,,,,,200.0,125.0,125.0,200.0,127.0,127.0,2.1,2.12,-258,-282,0,-267,260,271,225.34537887573242,225.3454191684723,225.34752106666565,225.3602156639099,225.51033759117126,225.51033759117126,225.51033759117126,225.51033759117126,225.51033759117126,225.51033759117126,225.51033759117126,228.12819170951843,2,2.759768009185791,None,,,,,,,,,,,,,,,,,,138,3,2025-02-27_09h27.48.060,comp,2024.2.4,60.043691002115835,2025-02-27 09h28.19.373499 -0500,
77,77,0,critical,dwh,20.0,4.0,lower,78.0,78.0,57.0,133.0,133.0,57.0,3,3.5928027629852295,None,,,,,0,0,0,0,0,77,77,70,228.14352679252625,,,,,,,,,,,,,,,,,,,,,,,,,,,,,,,,,,,,,,,,,,,,,,,,,,,,,,,,,,,,,,,,,,,,,,,,,,,,,,,,,78.0,78.0,57.0,133.0,133.0,57.0,4.0,4.1,-202,-269,0,3,191,-288,228.12900376319885,228.12904453277588,228.1311595439911,228.14352679252625,228.29337430000305,228.29337430000305,228.29337430000305,228.29337430000305,228.29337430000305,228.29337430000305,228.29337430000305,231.74502635002136,3,3.5928027629852295,None,,,,,,,,,,,,,,,,,,138,3,2025-02-27_09h27.48.060,comp,2024.2.4,60.043691002115835,2025-02-27 09h28.19.373499 -0500,
78,78,0,catch,None,None,None,None,None,None,None,None,None,None,3,2.1670961380004883,None,,,,,0,0,0,0,0,78,78,123,231.7603211402893,,,,,,,,,,,,,,,,,,,,,,,,,,,,,,,,,,,,,,,,,,,,,,,,,,,,,,,,,,,,,,,,,,,,,,,,,,,,,,,,,68,122,99,91,180,145,2.2,2.22,-202,263,0,-264,214,-277,231.7460560798645,231.7460973262787,231.7485156059265,231.7603211402893,231.91017603874207,231.91017603874207,231.91017603874207,231.91017603874207,231.91017603874207,231.91017603874207,231.91017603874207,233.94452095031738,3,2.1670961380004883,None,,,,,,,,,,,,,,,,,,138,3,2025-02-27_09h27.48.060,comp,2024.2.4,60.043691002115835,2025-02-27 09h28.19.373499 -0500,
79,79,0,critical,hwd,20.0,3.0,upper,200.0,125.0,125.0,200.0,141.0,141.0,2,2.7121505737304688,None,,,,,0,0,0,0,0,79,79,105,233.95979285240173,,,,,,,,,,,,,,,,,,,,,,,,,,,,,,,,,,,,,,,,,,,,,,,,,,,,,,,,,,,,,,,,,,,,,,,,,,,,,,,,,200.0,125.0,125.0,200.0,141.0,141.0,3.0,3.2,-258,-275,0,11,266,275,233.94530987739563,233.94534993171692,233.9477300643921,233.95979285240173,234.11035180091858,234.11035180091858,234.11035180091858,234.11035180091858,234.11035180091858,234.11035180091858,234.11035180091858,236.67803049087524,2,2.7121505737304688,None,,,,,,,,,,,,,,,,,,138,3,2025-02-27_09h27.48.060,comp,2024.2.4,60.043691002115835,2025-02-27 09h28.19.373499 -0500,
80,80,0,filler_square,None,None,None,None,None,None,None,None,None,None,2,1.058349370956421,None,,,,,0,0,0,0,0,80,80,205,236.69346451759338,,,,,,,,,,,,,,,,,,,,,,,,,,,,,,,,,,,,,,,,,,,,,,,,,,,,,,,,,,,,,,,,,,,,,,,,,,,,,,,,,63.26905906556315,70.42782582195012,82.70659880689479,82.70659880689479,64.22396339753145,58.289121797434895,2.1,2.12,-173,-262,0,-273,166,268,236.67896509170532,236.67900586128235,236.68154883384705,236.69346451759338,236.84330415725708,236.84330415725708,236.84330415725708,236.84330415725708,236.84330415725708,236.84330415725708,236.84330415725708,237.76106238365173,2,1.058349370956421,None,,,,,,,,,,,,,,,,,,138,3,2025-02-27_09h27.48.060,comp,2024.2.4,60.043691002115835,2025-02-27 09h28.19.373499 -0500,
81,81,0,filler_random,None,None,None,None,None,None,None,None,None,None,2,0.8861067295074463,None,,,,,0,0,0,0,0,81,81,158,237.77694940567017,,,,,,,,,,,,,,,,,,,,,,,,,,,,,,,,,,,,,,,,,,,,,,,,,,,,,,,,,,,,,,,,,,,,,,,,,,,,,,,,,131.58927245433375,73.7995128500962,196.79870447472533,153.05311992408647,105.85788598820496,144.57670854689053,1.0,1.1,-689,284,-480,287,-235,277,237.76202011108398,237.76206254959106,237.76416301727295,237.77694940567017,237.92690563201904,237.92690563201904,237.92690563201904,237.92690563201904,237.92690563201904,237.92690563201904,237.92690563201904,238.67795372009277,2,0.8861067295074463,None,,,,,,,,,,,,,,,,,,138,3,2025-02-27_09h27.48.060,comp,2024.2.4,60.043691002115835,2025-02-27 09h28.19.373499 -0500,
82,82,0,critical,whd,35.0,2.1,lower,57.0,133.0,133.0,57.0,70.0,70.0,2,1.801490306854248,None,,,,,0,0,0,0,0,82,82,12,238.69328784942627,,,,,,,,,,,,,,,,,,,,,,,,,,,,,,,,,,,,,,,,,,,,,,,,,,,,,,,,,,,,,,,,,,,,,,,,,,,,,,,,,57.0,133.0,133.0,57.0,70.0,70.0,2.1,2.11,-191,274,0,288,160,-270,238.6787645816803,238.6788055896759,238.68085551261902,238.69328784942627,238.84331703186035,238.84331703186035,238.84331703186035,238.84331703186035,238.84331703186035,238.84331703186035,238.84331703186035,240.511159658432,2,1.801490306854248,None,,,,,,,,,,,,,,,,,,138,3,2025-02-27_09h27.48.060,comp,2024.2.4,60.043691002115835,2025-02-27 09h28.19.373499 -0500,
83,83,0,critical,dhw,35.0,2.1,lower,70.0,70.0,133.0,57.0,57.0,133.0,2,1.304962396621704,None,,,,,0,0,0,0,0,83,83,0,240.52642154693604,,,,,,,,,,,,,,,,,,,,,,,,,,,,,,,,,,,,,,,,,,,,,,,,,,,,,,,,,,,,,,,,,,,,,,,,,,,,,,,,,70.0,70.0,133.0,57.0,57.0,133.0,2.1,2.11,-160,287,0,277,191,-270,240.5119309425354,240.51196885108948,240.5139605998993,240.52642154693604,240.67698979377747,240.67698979377747,240.67698979377747,240.67698979377747,240.67698979377747,240.67698979377747,240.67698979377747,241.84440636634827,2,1.304962396621704,None,,,,,,,,,,,,,,,,,,138,3,2025-02-27_09h27.48.060,comp,2024.2.4,60.043691002115835,2025-02-27 09h28.19.373499 -0500,
84,84,0,filler_random,None,None,None,None,None,None,None,None,None,None,1,1.5501790046691895,None,,,,,0,0,0,0,0,84,84,161,241.85975170135498,,,,,,,,,,,,,,,,,,,,,,,,,,,,,,,,,,,,,,,,,,,,,,,,,,,,,,,,,,,,,,,,,,,,,,,,,,,,,,,,,143.16684510937137,152.16343993466654,132.78412195806192,105.78572459564481,183.84589565497555,83.83824975727455,1.0,1.2,-225,-18,0,-2,191,-12,241.84526872634888,241.84532237052917,241.84768843650818,241.85975170135498,242.01008105278015,242.01008105278015,242.01008105278015,242.01008105278015,242.01008105278015,242.01008105278015,242.01008105278015,243.41146111488342,1,1.5501790046691895,None,,,,,,,,,,,,,,,,,,138,3,2025-02-27_09h27.48.060,comp,2024.2.4,60.043691002115835,2025-02-27 09h28.19.373499 -0500,
85,85,0,filler_random,None,None,None,None,None,None,None,None,None,None,2,1.3663954734802246,None,,,,,0,0,0,0,0,85,85,141,243.42677760124207,,,,,,,,,,,,,,,,,,,,,,,,,,,,,,,,,,,,,,,,,,,,,,,,,,,,,,,,,,,,,,,,,,,,,,,,,,,,,,,,,89.0101262566993,107.97896272466812,126.23773470072058,176.82049754972294,78.91400883792525,88.34722941581536,4.0,4.1,-238,-282,0,14,229,-262,243.4123978614807,243.4124400615692,243.41474509239197,243.42677760124207,243.57675743103027,243.57675743103027,243.57675743103027,243.57675743103027,243.57675743103027,243.57675743103027,243.57675743103027,244.79463124275208,2,1.3663954734802246,None,,,,,,,,,,,,,,,,,,138,3,2025-02-27_09h27.48.060,comp,2024.2.4,60.043691002115835,2025-02-27 09h28.19.373499 -0500,
86,86,0,filler_random,None,None,None,None,None,None,None,None,None,None,2,1.717170000076294,None,,,,,0,0,0,0,0,86,86,160,244.80996346473694,,,,,,,,,,,,,,,,,,,,,,,,,,,,,,,,,,,,,,,,,,,,,,,,,,,,,,,,,,,,,,,,,,,,,,,,,,,,,,,,,81.44933280151766,106.31979791969249,108.25624682643104,163.7030434941238,81.0319620866039,166.2334884965929,2.1,2.11,-231,260,0,279,261,-269,244.79555320739746,244.79559421539307,244.79804754257202,244.80996346473694,244.960040807724,244.960040807724,244.960040807724,244.960040807724,244.960040807724,244.960040807724,244.960040807724,246.54443955421448,2,1.717170000076294,None,,,,,,,,,,,,,,,,,,138,3,2025-02-27_09h27.48.060,comp,2024.2.4,60.043691002115835,2025-02-27 09h28.19.373499 -0500,
87,87,0,critical,wdh,20.0,4.0,lower,57.0,133.0,78.0,78.0,133.0,57.0,3,3.416994094848633,None,,,,,0,0,0,0,0,87,87,82,246.55971384048462,,,,,,,,,,,,,,,,,,,,,,,,,,,,,,,,,,,,,,,,,,,,,,,,,,,,,,,,,,,,,,,,,,,,,,,,,,,,,,,,,57.0,133.0,78.0,78.0,133.0,57.0,4.0,4.2,-202,17,0,-269,164,-15,246.54520225524902,246.54524302482605,246.54752659797668,246.55971384048462,246.71024632453918,246.71024632453918,246.71024632453918,246.71024632453918,246.71024632453918,246.71024632453918,246.71024632453918,249.97798657417297,3,3.416994094848633,None,,,,,,,,,,,,,,,,,,138,3,2025-02-27_09h27.48.060,comp,2024.2.4,60.043691002115835,2025-02-27 09h28.19.373499 -0500,
88,88,0,critical,dhw,20.0,1.0,upper,141.0,141.0,200.0,125.0,125.0,200.0,3,2.8623077869415283,None,,,,,0,0,0,0,0,88,88,55,249.99335646629333,,,,,,,,,,,,,,,,,,,,,,,,,,,,,,,,,,,,,,,,,,,,,,,,,,,,,,,,,,,,,,,,,,,,,,,,,,,,,,,,,141.0,141.0,200.0,125.0,125.0,200.0,1.0,1.2,-229,11,0,6,258,14,249.97873878479004,249.97877883911133,249.98123836517334,249.99335646629333,250.14356541633606,250.14356541633606,250.14356541633606,250.14356541633606,250.14356541633606,250.14356541633606,250.14356541633606,252.86141657829285,3,2.8623077869415283,None,,,,,,,,,,,,,,,,,,138,3,2025-02-27_09h27.48.060,comp,2024.2.4,60.043691002115835,2025-02-27 09h28.19.373499 -0500,
89,89,0,filler_square,None,None,None,None,None,None,None,None,None,None,2,1.1162736415863037,None,,,,,0,0,0,0,0,89,89,195,252.87688636779785,,,,,,,,,,,,,,,,,,,,,,,,,,,,,,,,,,,,,,,,,,,,,,,,,,,,,,,,,,,,,,,,,,,,,,,,,,,,,,,,,90.40172430819564,88.65061015142871,144.35152244017843,144.35152244017843,72.07243960041171,130.94295920911355,2.2,2.21,-213,-265,0,284,234,280,252.86237120628357,252.86241364479065,252.86458492279053,252.87688636779785,253.02710962295532,253.02710962295532,253.02710962295532,253.02710962295532,253.02710962295532,253.02710962295532,253.02710962295532,254.0109589099884,2,1.1162736415863037,None,,,,,,,,,,,,,,,,,,138,3,2025-02-27_09h27.48.060,comp,2024.2.4,60.043691002115835,2025-02-27 09h28.19.373499 -0500,
90,90,0,filler_square,None,None,None,None,None,None,None,None,None,None,2,1.3504228591918945,None,,,,,0,0,0,0,0,90,90,196,254.02638149261475,,,,,,,,,,,,,,,,,,,,,,,,,,,,,,,,,,,,,,,,,,,,,,,,,,,,,,,,,,,,,,,,,,,,,,,,,,,,,,,,,70.74215936414046,67.23209959877859,91.19064005421129,91.19064005421129,81.93875806500621,77.14018282360607,2.2,2.21,-175,-271,0,261,180,269,254.0118911266327,254.01193237304688,254.01400470733643,254.02638149261475,254.17692875862122,254.17692875862122,254.17692875862122,254.17692875862122,254.17692875862122,254.17692875862122,254.17692875862122,255.3943428993225,2,1.3504228591918945,None,,,,,,,,,,,,,,,,,,138,3,2025-02-27_09h27.48.060,comp,2024.2.4,60.043691002115835,2025-02-27 09h28.19.373499 -0500,
91,91,0,filler_random,None,None,None,None,None,None,None,None,None,None,1,1.0847561359405518,None,,,,,0,0,0,0,0,91,91,164,255.40986585617065,,,,,,,,,,,,,,,,,,,,,,,,,,,,,,,,,,,,,,,,,,,,,,,,,,,,,,,,,,,,,,,,,,,,,,,,,,,,,,,,,196.56391471380772,197.79412084054036,65.68037142016688,195.3892424659319,150.00991218163855,148.84211052195104,2.2,2.22,-293,254,0,-271,268,-263,255.39524054527283,255.39529275894165,255.39738988876343,255.40986585617065,255.56007719039917,255.56007719039917,255.56007719039917,255.56007719039917,255.56007719039917,255.56007719039917,255.56007719039917,256.5111358165741,1,1.0847561359405518,None,,,,,,,,,,,,,,,,,,138,3,2025-02-27_09h27.48.060,comp,2024.2.4,60.043691002115835,2025-02-27 09h28.19.373499 -0500,
92,92,0,critical,whd,35.0,2.1,upper,125.0,200.0,200.0,125.0,127.0,127.0,1,3.984272003173828,None,,,,,0,0,0,0,0,92,92,37,256.5264096260071,,,,,,,,,,,,,,,,,,,,,,,,,,,,,,,,,,,,,,,,,,,,,,,,,,,,,,,,,,,,,,,,,,,,,,,,,,,,,,,,,125.0,200.0,200.0,125.0,127.0,127.0,2.1,2.12,-258,-284,0,-288,222,275,256.5119330883026,256.5119731426239,256.51401925086975,256.5264096260071,256.6769382953644,256.6769382953644,256.6769382953644,256.6769382953644,256.6769382953644,256.6769382953644,256.6769382953644,260.5277798175812,1,3.984272003173828,None,,,,,,,,,,,,,,,,,,138,3,2025-02-27_09h27.48.060,comp,2024.2.4,60.043691002115835,2025-02-27 09h28.19.373499 -0500,
93,93,0,critical,hwd,35.0,1.0,lower,133.0,57.0,57.0,133.0,70.0,70.0,2,1.6088905334472656,None,,,,,0,0,0,0,0,93,93,96,260.54305028915405,,,,,,,,,,,,,,,,,,,,,,,,,,,,,,,,,,,,,,,,,,,,,,,,,,,,,,,,,,,,,,,,,,,,,,,,,,,,,,,,,133.0,57.0,57.0,133.0,70.0,70.0,1.0,1.2,-191,-10,0,-5,198,-4,260.52854657173157,260.5285875797272,260.53101801872253,260.54305028915405,260.69325065612793,260.69325065612793,260.69325065612793,260.69325065612793,260.69325065612793,260.69325065612793,260.69325065612793,262.1610369682312,2,1.6088905334472656,None,,,,,,,,,,,,,,,,,,138,3,2025-02-27_09h27.48.060,comp,2024.2.4,60.043691002115835,2025-02-27 09h28.19.373499 -0500,
94,94,0,filler_random,None,None,None,None,None,None,None,None,None,None,2,2.2002503871917725,None,,,,,0,0,0,0,0,94,94,157,262.176691532135,,,,,,,,,,,,,,,,,,,,,,,,,,,,,,,,,,,,,,,,,,,,,,,,,,,,,,,,,,,,,,,,,,,,,,,,,,,,,,,,,152.5967365588977,124.46794219625316,119.37726173892784,189.52376944569286,121.95566043008836,164.77053922722047,3.0,3.2,-253,-258,0,-2,273,275,262.1619050502777,262.1619462966919,262.16445875167847,262.176691532135,262.32699847221375,262.32699847221375,262.32699847221375,262.32699847221375,262.32699847221375,262.32699847221375,262.32699847221375,264.39481711387634,2,2.2002503871917725,None,,,,,,,,,,,,,,,,,,138,3,2025-02-27_09h27.48.060,comp,2024.2.4,60.043691002115835,2025-02-27 09h28.19.373499 -0500,
95,95,0,catch,None,None,None,None,None,None,None,None,None,None,3,1.4530701637268066,None,,,,,0,0,0,0,0,95,95,124,264.40987396240234,,,,,,,,,,,,,,,,,,,,,,,,,,,,,,,,,,,,,,,,,,,,,,,,,,,,,,,,,,,,,,,,,,,,,,,,,,,,,,,,,80,110,90,100,189,136,3.0,3.2,-201,-262,0,5,214,252,264.39587211608887,264.39591431617737,264.39843010902405,264.40987396240234,264.56013798713684,264.56013798713684,264.56013798713684,264.56013798713684,264.56013798713684,264.56013798713684,264.56013798713684,265.87757635116577,3,1.4530701637268066,None,,,,,,,,,,,,,,,,,,138,3,2025-02-27_09h27.48.060,comp,2024.2.4,60.043691002115835,2025-02-27 09h28.19.373499 -0500,
96,96,0,critical,dhw,35.0,1.0,upper,127.0,127.0,200.0,125.0,125.0,200.0,3,1.5698027610778809,None,,,,,0,0,0,0,0,96,96,49,265.89302372932434,,,,,,,,,,,,,,,,,,,,,,,,,,,,,,,,,,,,,,,,,,,,,,,,,,,,,,,,,,,,,,,,,,,,,,,,,,,,,,,,,127.0,127.0,200.0,125.0,125.0,200.0,1.0,1.2,-222,12,0,16,258,12,265.8783378601074,265.8783793449402,265.8807375431061,265.89302372932434,266.0438640117645,266.0438640117645,266.0438640117645,266.0438640117645,266.0438640117645,266.0438640117645,266.0438640117645,267.4781901836395,3,1.5698027610778809,None,,,,,,,,,,,,,,,,,,138,3,2025-02-27_09h27.48.060,comp,2024.2.4,60.043691002115835,2025-02-27 09h28.19.373499 -0500,
97,97,0,critical,wdh,35.0,4.0,lower,57.0,133.0,70.0,70.0,133.0,57.0,3,1.6836731433868408,None,,,,,0,0,0,0,0,97,97,76,267.49308156967163,,,,,,,,,,,,,,,,,,,,,,,,,,,,,,,,,,,,,,,,,,,,,,,,,,,,,,,,,,,,,,,,,,,,,,,,,,,,,,,,,57.0,133.0,70.0,70.0,133.0,57.0,4.0,4.2,-198,12,0,-286,160,-13,267.47898149490356,267.4790222644806,267.48117113113403,267.49308156967163,267.6432957649231,267.6432957649231,267.6432957649231,267.6432957649231,267.6432957649231,267.6432957649231,267.6432957649231,269.1941409111023,3,1.6836731433868408,None,,,,,,,,,,,,,,,,,,138,3,2025-02-27_09h27.48.060,comp,2024.2.4,60.043691002115835,2025-02-27 09h28.19.373499 -0500,
98,98,0,critical,wdh,20.0,2.1,lower,57.0,133.0,78.0,78.0,133.0,57.0,3,1.7889349460601807,None,,,,,0,0,0,0,0,98,98,10,269.20951676368713,,,,,,,,,,,,,,,,,,,,,,,,,,,,,,,,,,,,,,,,,,,,,,,,,,,,,,,,,,,,,,,,,,,,,,,,,,,,,,,,,57.0,133.0,78.0,78.0,133.0,57.0,2.1,2.11,-202,266,0,262,164,-286,269.19491839408875,269.19496035575867,269.1971523761749,269.20951676368713,269.3600203990936,269.3600203990936,269.3600203990936,269.3600203990936,269.3600203990936,269.3600203990936,269.3600203990936,271.0108778476715,3,1.7889349460601807,None,,,,,,,,,,,,,,,,,,138,3,2025-02-27_09h27.48.060,comp,2024.2.4,60.043691002115835,2025-02-27 09h28.19.373499 -0500,
99,99,0,critical,dwh,20.0,3.0,upper,141.0,141.0,125.0,200.0,200.0,125.0,3,3.0523269176483154,None,,,,,0,0,0,0,0,99,99,69,271.0263330936432,,,,,,,,,,,,,,,,,,,,,,,,,,,,,,,,,,,,,,,,,,,,,,,,,,,,,,,,,,,,,,,,,,,,,,,,,,,,,,,,,141.0,141.0,125.0,200.0,200.0,125.0,3.0,3.1,-266,285,0,20,258,-269,271.01169085502625,271.01173210144043,271.0137746334076,271.0263330936432,271.1767852306366,271.1767852306366,271.1767852306366,271.1767852306366,271.1767852306366,271.1767852306366,271.1767852306366,274.0943822860718,3,3.0523269176483154,None,,,,,,,,,,,,,,,,,,138,3,2025-02-27_09h27.48.060,comp,2024.2.4,60.043691002115835,2025-02-27 09h28.19.373499 -0500,
100,100,0,critical,whd,20.0,2.1,upper,125.0,200.0,200.0,125.0,141.0,141.0,2,2.16180682182312,None,,,,,0,0,0,0,0,100,100,15,274.1095926761627,,,,,,,,,,,,,,,,,,,,,,,,,,,,,,,,,,,,,,,,,,,,,,,,,,,,,,,,,,,,,,,,,,,,,,,,,,,,,,,,,125.0,200.0,200.0,125.0,141.0,141.0,2.1,2.12,-258,-268,0,-275,229,252,274.09516167640686,274.09520268440247,274.0975606441498,274.1095926761627,274.26003408432007,274.26003408432007,274.26003408432007,274.26003408432007,274.26003408432007,274.26003408432007,274.26003408432007,276.27811765670776,2,2.16180682182312,None,,,,,,,,,,,,,,,,,,138,3,2025-02-27_09h27.48.060,comp,2024.2.4,60.043691002115835,2025-02-27 09h28.19.373499 -0500,
101,101,0,filler_square,None,None,None,None,None,None,None,None,None,None,1,1.1942977905273438,None,,,,,0,0,0,0,0,101,101,175,276.2933158874512,,,,,,,,,,,,,,,,,,,,,,,,,,,,,,,,,,,,,,,,,,,,,,,,,,,,,,,,,,,,,,,,,,,,,,,,,,,,,,,,,199.55040041136988,199.55040041136988,101.20003000310996,140.84585852347666,114.76037544525616,83.15161149357127,2.1,2.12,-266,-287,0,-283,208,273,276.27903723716736,276.2790780067444,276.2811574935913,276.2933158874512,276.44335532188416,276.44335532188416,276.44335532188416,276.44335532188416,276.44335532188416,276.44335532188416,276.44335532188416,277.49432945251465,1,1.1942977905273438,None,,,,,,,,,,,,,,,,,,138,3,2025-02-27_09h27.48.060,comp,2024.2.4,60.043691002115835,2025-02-27 09h28.19.373499 -0500,
102,102,0,filler_random,None,None,None,None,None,None,None,None,None,None,2,1.1153910160064697,None,,,,,0,0,0,0,0,102,102,135,277.5100209712982,,,,,,,,,,,,,,,,,,,,,,,,,,,,,,,,,,,,,,,,,,,,,,,,,,,,,,,,,,,,,,,,,,,,,,,,,,,,,,,,,198.24465922640707,60.70908271744137,199.7006366220481,139.37924064543816,81.19446324526699,141.3701806728019,2.2,2.21,-196,-276,0,258,236,272,277.4952619075775,277.4953169822693,277.4975678920746,277.5100209712982,277.65980982780457,277.65980982780457,277.65980982780457,277.65980982780457,277.65980982780457,277.65980982780457,277.65980982780457,278.6278157234192,2,1.1153910160064697,None,,,,,,,,,,,,,,,,,,138,3,2025-02-27_09h27.48.060,comp,2024.2.4,60.043691002115835,2025-02-27 09h28.19.373499 -0500,
103,103,0,critical,whd,20.0,3.0,lower,57.0,133.0,133.0,57.0,78.0,78.0,2,1.4606244564056396,None,,,,,0,0,0,0,0,103,103,92,278.64319920539856,,,,,,,,,,,,,,,,,,,,,,,,,,,,,,,,,,,,,,,,,,,,,,,,,,,,,,,,,,,,,,,,,,,,,,,,,,,,,,,,,57.0,133.0,133.0,57.0,78.0,78.0,3.0,3.2,-191,-279,0,9,164,285,278.62863206863403,278.62867426872253,278.6310701370239,278.64319920539856,278.79320192337036,278.79320192337036,278.79320192337036,278.79320192337036,278.79320192337036,278.79320192337036,278.79320192337036,280.11134815216064,2,1.4606244564056396,None,,,,,,,,,,,,,,,,,,138,3,2025-02-27_09h27.48.060,comp,2024.2.4,60.043691002115835,2025-02-27 09h28.19.373499 -0500,
104,104,0,filler_random,None,None,None,None,None,None,None,None,None,None,2,1.4499092102050781,None,,,,,0,0,0,0,0,104,104,162,280.12661695480347,,,,,,,,,,,,,,,,,,,,,,,,,,,,,,,,,,,,,,,,,,,,,,,,,,,,,,,,,,,,,,,,,,,,,,,,,,,,,,,,,165.08099175596584,86.50090701631149,64.47735337386403,151.14612204827742,73.7129600775707,133.47643154816654,3.0,3.2,-215,-252,0,5,238,282,280.1122348308563,280.1122889518738,280.11434412002563,280.12661695480347,280.27658319473267,280.27658319473267,280.27658319473267,280.27658319473267,280.27658319473267,280.27658319473267,280.27658319473267,281.59407925605774,2,1.4499092102050781,None,,,,,,,,,,,,,,,,,,138,3,2025-02-27_09h27.48.060,comp,2024.2.4,60.043691002115835,2025-02-27 09h28.19.373499 -0500,
105,105,0,critical,hdw,20.0,1.0,lower,133.0,57.0,78.0,78.0,57.0,133.0,1,2.750298500061035,None,,,,,0,0,0,0,0,105,105,114,281.60952949523926,,,,,,,,,,,,,,,,,,,,,,,,,,,,,,,,,,,,,,,,,,,,,,,,,,,,,,,,,,,,,,,,,,,,,,,,,,,,,,,,,133.0,57.0,78.0,78.0,57.0,133.0,1.0,1.1,-644,286,-480,257,-278,262,281.5948791503906,281.5949203968048,281.5975091457367,281.60952949523926,281.7597966194153,281.7597966194153,281.7597966194153,281.7597966194153,281.7597966194153,281.7597966194153,281.7597966194153,284.37748622894287,1,2.750298500061035,None,,,,,,,,,,,,,,,,,,138,3,2025-02-27_09h27.48.060,comp,2024.2.4,60.043691002115835,2025-02-27 09h28.19.373499 -0500,
106,106,0,critical,dhw,35.0,3.0,lower,70.0,70.0,133.0,57.0,57.0,133.0,2,1.1504316329956055,None,,,,,0,0,0,0,0,106,106,50,284.3928632736206,,,,,,,,,,,,,,,,,,,,,,,,,,,,,,,,,,,,,,,,,,,,,,,,,,,,,,,,,,,,,,,,,,,,,,,,,,,,,,,,,70.0,70.0,133.0,57.0,57.0,133.0,3.0,3.2,-160,-256,0,-10,191,254,284.3782649040222,284.3783175945282,284.380676984787,284.3928632736206,284.5429906845093,284.5429906845093,284.5429906845093,284.5429906845093,284.5429906845093,284.5429906845093,284.5429906845093,285.5607805252075,2,1.1504316329956055,None,,,,,,,,,,,,,,,,,,138,3,2025-02-27_09h27.48.060,comp,2024.2.4,60.043691002115835,2025-02-27 09h28.19.373499 -0500,
107,107,0,catch,None,None,None,None,None,None,None,None,None,None,2,0.9269709587097168,None,,,,,0,0,0,0,0,107,107,126,285.5763087272644,,,,,,,,,,,,,,,,,,,,,,,,,,,,,,,,,,,,,,,,,,,,,,,,,,,,,,,,,,,,,,,,,,,,,,,,,,,,,,,,,91,99,111,79,129,196,1.0,1.2,-185,-18,0,7,234,7,285.56185960769653,285.5619013309479,285.5645320415497,285.5763087272644,285.72640562057495,285.72640562057495,285.72640562057495,285.72640562057495,285.72640562057495,285.72640562057495,285.72640562057495,286.5107614994049,2,0.9269709587097168,None,,,,,,,,,,,,,,,,,,138,3,2025-02-27_09h27.48.060,comp,2024.2.4,60.043691002115835,2025-02-27 09h28.19.373499 -0500,
108,108,0,critical,dwh,35.0,3.0,upper,127.0,127.0,125.0,200.0,200.0,125.0,2,2.304659366607666,None,,,,,0,0,0,0,0,108,108,63,286.5264186859131,,,,,,,,,,,,,,,,,,,,,,,,,,,,,,,,,,,,,,,,,,,,,,,,,,,,,,,,,,,,,,,,,,,,,,,,,,,,,,,,,127.0,127.0,125.0,200.0,200.0,125.0,3.0,3.1,-260,274,0,-7,258,-281,286.5115592479706,286.5116012096405,286.5146369934082,286.5264186859131,286.67658042907715,286.67658042907715,286.67658042907715,286.67658042907715,286.67658042907715,286.67658042907715,286.67658042907715,288.84417724609375,2,2.304659366607666,None,,,,,,,,,,,,,,,,,,138,3,2025-02-27_09h27.48.060,comp,2024.2.4,60.043691002115835,2025-02-27 09h28.19.373499 -0500,
109,109,0,filler_random,None,None,None,None,None,None,None,None,None,None,1,2.786982536315918,None,,,,,0,0,0,0,0,109,109,144,288.8595266342163,,,,,,,,,,,,,,,,,,,,,,,,,,,,,,,,,,,,,,,,,,,,,,,,,,,,,,,,,,,,,,,,,,,,,,,,,,,,,,,,,138.6280187785442,150.3865247601109,181.02893854518794,82.97231744584836,199.76551716326415,57.93678277630263,2.1,2.11,-213,280,0,257,166,-273,288.8450973033905,288.8451406955719,288.8472065925598,288.8595266342163,289.0099422931671,289.0099422931671,289.0099422931671,289.0099422931671,289.0099422931671,289.0099422931671,289.0099422931671,291.66095066070557,1,2.786982536315918,None,,,,,,,,,,,,,,,,,,138,3,2025-02-27_09h27.48.060,comp,2024.2.4,60.043691002115835,2025-02-27 09h28.19.373499 -0500,
110,110,0,critical,hwd,20.0,1.0,upper,200.0,125.0,125.0,200.0,141.0,141.0,2,6.242857456207275,None,,,,,0,0,0,0,0,110,110,103,291.67635917663574,,,,,,,,,,,,,,,,,,,,,,,,,,,,,,,,,,,,,,,,,,,,,,,,,,,,,,,,,,,,,,,,,,,,,,,,,,,,,,,,,200.0,125.0,125.0,200.0,141.0,141.0,1.0,1.3,222,-273,480,-260,746,-288,291.66174840927124,291.6617901325226,291.6638526916504,291.67635917663574,291.82663106918335,291.82663106918335,291.82663106918335,291.82663106918335,291.82663106918335,291.82663106918335,291.82663106918335,297.92752861976624,2,6.242857456207275,None,,,,,,,,,,,,,,,,,,138,3,2025-02-27_09h27.48.060,comp,2024.2.4,60.043691002115835,2025-02-27 09h28.19.373499 -0500,
111,111,0,filler_square,None,None,None,None,None,None,None,None,None,None,3,1.2498173713684082,None,,,,,0,0,0,0,0,111,111,173,297.94309401512146,,,,,,,,,,,,,,,,,,,,,,,,,,,,,,,,,,,,,,,,,,,,,,,,,,,,,,,,,,,,,,,,,,,,,,,,,,,,,,,,,65.68624627773389,66.86669621092358,74.66239639531787,66.57096632963582,92.01543509582768,92.01543509582768,2.2,2.21,-163,-271,0,267,175,251,297.928505897522,297.9285469055176,297.93098640441895,297.94309401512146,298.09293937683105,298.09293937683105,298.09293937683105,298.09293937683105,298.09293937683105,298.09293937683105,298.09293937683105,299.19439578056335,3,1.2498173713684082,None,,,,,,,,,,,,,,,,,,138,3,2025-02-27_09h27.48.060,comp,2024.2.4,60.043691002115835,2025-02-27 09h28.19.373499 -0500,
112,112,0,filler_random,None,None,None,None,None,None,None,None,None,None,2,1.3991401195526123,None,,,,,0,0,0,0,0,112,112,133,299.20965123176575,,,,,,,,,,,,,,,,,,,,,,,,,,,,,,,,,,,,,,,,,,,,,,,,,,,,,,,,,,,,,,,,,,,,,,,,,,,,,,,,,73.1153415520319,66.12860918143254,155.55791713167818,137.20172884696967,131.28574819587675,158.95532223021607,2.2,2.22,-198,286,0,-258,244,-278,299.1953024864197,299.19534516334534,299.19745779037476,299.20965123176575,299.3597218990326,299.3597218990326,299.3597218990326,299.3597218990326,299.3597218990326,299.3597218990326,299.3597218990326,300.61088037490845,2,1.3991401195526123,None,,,,,,,,,,,,,,,,,,138,3,2025-02-27_09h27.48.060,comp,2024.2.4,60.043691002115835,2025-02-27 09h28.19.373499 -0500,
113,113,0,filler_square,None,None,None,None,None,None,None,None,None,None,1,1.8448755741119385,None,,,,,0,0,0,0,0,113,113,182,300.62633514404297,,,,,,,,,,,,,,,,,,,,,,,,,,,,,,,,,,,,,,,,,,,,,,,,,,,,,,,,,,,,,,,,,,,,,,,,,,,,,,,,,160.97253979648616,160.97253979648616,155.16568842081153,82.73437595855575,156.9998839178612,123.90274874341908,2.1,2.12,-218,-256,0,-255,199,256,300.6118206977844,300.61186146736145,300.61395359039307,300.62633514404297,300.77670073509216,300.77670073509216,300.77670073509216,300.77670073509216,300.77670073509216,300.77670073509216,300.77670073509216,302.4776005744934,1,1.8448755741119385,None,,,,,,,,,,,,,,,,,,138,3,2025-02-27_09h27.48.060,comp,2024.2.4,60.043691002115835,2025-02-27 09h28.19.373499 -0500,
114,114,0,critical,hdw,20.0,3.0,lower,133.0,57.0,78.0,78.0,57.0,133.0,3,2.674513578414917,None,,,,,0,0,0,0,0,114,114,116,302.4930281639099,,,,,,,,,,,,,,,,,,,,,,,,,,,,,,,,,,,,,,,,,,,,,,,,,,,,,,,,,,,,,,,,,,,,,,,,,,,,,,,,,133.0,57.0,78.0,78.0,57.0,133.0,3.0,3.1,-164,271,0,-2,202,-260,302.4783778190613,302.47841811180115,302.4808328151703,302.4930281639099,302.64302492141724,302.64302492141724,302.64302492141724,302.64302492141724,302.64302492141724,302.64302492141724,302.64302492141724,305.1774227619171,3,2.674513578414917,None,,,,,,,,,,,,,,,,,,138,3,2025-02-27_09h27.48.060,comp,2024.2.4,60.043691002115835,2025-02-27 09h28.19.373499 -0500,
115,115,0,critical,hwd,35.0,4.0,upper,200.0,125.0,125.0,200.0,127.0,127.0,2,1.7339136600494385,None,,,,,0,0,0,0,0,115,115,101,305.19315910339355,,,,,,,,,,,,,,,,,,,,,,,,,,,,,,,,,,,,,,,,,,,,,,,,,,,,,,,,,,,,,,,,,,,,,,,,,,,,,,,,,200.0,125.0,125.0,200.0,127.0,127.0,4.0,4.2,-258,17,0,-282,260,-5,305.17817854881287,305.1782202720642,305.18034863471985,305.19315910339355,305.34312915802,305.34312915802,305.34312915802,305.34312915802,305.34312915802,305.34312915802,305.34312915802,306.94420194625854,2,1.7339136600494385,None,,,,,,,,,,,,,,,,,,138,3,2025-02-27_09h27.48.060,comp,2024.2.4,60.043691002115835,2025-02-27 09h28.19.373499 -0500,
116,116,0,filler_random,None,None,None,None,None,None,None,None,None,None,3,3.7191925048828125,None,,,,,0,0,0,0,0,116,116,154,306.95935893058777,,,,,,,,,,,,,,,,,,,,,,,,,,,,,,,,,,,,,,,,,,,,,,,,,,,,,,,,,,,,,,,,,,,,,,,,,,,,,,,,,175.00119459072633,104.71808324019798,145.67899477852475,114.38731087258523,120.87995945143402,188.199073442892,3.0,3.1,-206,285,0,-7,247,-264,306.9451060295105,306.94514656066895,306.94743967056274,306.95935893058777,307.10971665382385,307.10971665382385,307.10971665382385,307.10971665382385,307.10971665382385,307.10971665382385,307.10971665382385,310.6940348148346,3,3.7191925048828125,None,,,,,,,,,,,,,,,,,,138,3,2025-02-27_09h27.48.060,comp,2024.2.4,60.043691002115835,2025-02-27 09h28.19.373499 -0500,
117,117,0,critical,dhw,20.0,4.0,upper,141.0,141.0,200.0,125.0,125.0,200.0,3,0.904879093170166,None,,,,,0,0,0,0,0,117,117,59,310.70938205718994,,,,,,,,,,,,,,,,,,,,,,,,,,,,,,,,,,,,,,,,,,,,,,,,,,,,,,,,,,,,,,,,,,,,,,,,,,,,,,,,,141.0,141.0,200.0,125.0,125.0,200.0,4.0,4.1,-229,-256,0,-20,258,-264,310.6948211193085,310.6948616504669,310.69739747047424,310.70938205718994,310.85975337028503,310.85975337028503,310.85975337028503,310.85975337028503,310.85975337028503,310.85975337028503,310.85975337028503,311.62740659713745,3,0.904879093170166,None,,,,,,,,,,,,,,,,,,138,3,2025-02-27_09h27.48.060,comp,2024.2.4,60.043691002115835,2025-02-27 09h28.19.373499 -0500,
118,118,0,critical,dwh,20.0,4.0,upper,141.0,141.0,125.0,200.0,200.0,125.0,2,2.451643466949463,None,,,,,0,0,0,0,0,118,118,71,311.64269161224365,,,,,,,,,,,,,,,,,,,,,,,,,,,,,,,,,,,,,,,,,,,,,,,,,,,,,,,,,,,,,,,,,,,,,,,,,,,,,,,,,141.0,141.0,125.0,200.0,200.0,125.0,4.0,4.2,-266,5,0,-268,258,-20,311.62816882133484,311.62820863723755,311.6306006908417,311.64269161224365,311.79350686073303,311.79350686073303,311.79350686073303,311.79350686073303,311.79350686073303,311.79350686073303,311.79350686073303,314.1108236312866,2,2.451643466949463,None,,,,,,,,,,,,,,,,,,138,3,2025-02-27_09h27.48.060,comp,2024.2.4,60.043691002115835,2025-02-27 09h28.19.373499 -0500,
119,119,0,critical,hwd,20.0,2.1,upper,200.0,125.0,125.0,200.0,141.0,141.0,2,3.344907522201538,None,,,,,0,0,0,0,0,119,119,43,314.1261034011841,,,,,,,,,,,,,,,,,,,,,,,,,,,,,,,,,,,,,,,,,,,,,,,,,,,,,,,,,,,,,,,,,,,,,,,,,,,,,,,,,200.0,125.0,125.0,200.0,141.0,141.0,2.1,2.11,-258,266,0,264,266,-269,314.11162090301514,314.111661195755,314.1138107776642,314.1261034011841,314.27639269828796,314.27639269828796,314.27639269828796,314.27639269828796,314.27639269828796,314.27639269828796,314.27639269828796,317.47744369506836,2,3.344907522201538,None,,,,,,,,,,,,,,,,,,138,3,2025-02-27_09h27.48.060,comp,2024.2.4,60.043691002115835,2025-02-27 09h28.19.373499 -0500,
120,120,0,critical,dwh,20.0,2.1,lower,78.0,78.0,57.0,133.0,133.0,57.0,2,2.217320442199707,None,,,,,0,0,0,0,0,120,120,6,317.4928877353668,,,,,,,,,,,,,,,,,,,,,,,,,,,,,,,,,,,,,,,,,,,,,,,,,,,,,,,,,,,,,,,,,,,,,,,,,,,,,,,,,78.0,78.0,57.0,133.0,133.0,57.0,2.1,2.12,-202,-286,0,-272,191,259,317.47821068763733,317.4782521724701,317.48060631752014,317.4928877353668,317.64284348487854,317.64284348487854,317.64284348487854,317.64284348487854,317.64284348487854,317.64284348487854,317.64284348487854,319.7274250984192,2,2.217320442199707,None,,,,,,,,,,,,,,,,,,138,3,2025-02-27_09h27.48.060,comp,2024.2.4,60.043691002115835,2025-02-27 09h28.19.373499 -0500,
121,121,0,critical,hdw,20.0,1.0,upper,200.0,125.0,141.0,141.0,125.0,200.0,3,2.4819626808166504,None,,,,,0,0,0,0,0,121,121,115,319.7426540851593,,,,,,,,,,,,,,,,,,,,,,,,,,,,,,,,,,,,,,,,,,,,,,,,,,,,,,,,,,,,,,,,,,,,,,,,,,,,,,,,,200.0,125.0,141.0,141.0,125.0,200.0,1.0,1.1,-709,264,-480,262,-214,285,319.72821855545044,319.7282600402832,319.7307450771332,319.7426540851593,319.893098115921,319.893098115921,319.893098115921,319.893098115921,319.893098115921,319.893098115921,319.893098115921,322.2274954319,3,2.4819626808166504,None,,,,,,,,,,,,,,,,,,138,3,2025-02-27_09h27.48.060,comp,2024.2.4,60.043691002115835,2025-02-27 09h28.19.373499 -0500,
122,122,0,critical,whd,35.0,2.1,lower,57.0,133.0,133.0,57.0,70.0,70.0,2,2.628169298171997,None,,,,,0,0,0,0,0,122,122,36,322.2430944442749,,,,,,,,,,,,,,,,,,,,,,,,,,,,,,,,,,,,,,,,,,,,,,,,,,,,,,,,,,,,,,,,,,,,,,,,,,,,,,,,,57.0,133.0,133.0,57.0,70.0,70.0,2.1,2.11,-191,270,0,276,160,-267,322.2284417152405,322.2284851074219,322.2307302951813,322.2430944442749,322.39291858673096,322.39291858673096,322.39291858673096,322.39291858673096,322.39291858673096,322.39291858673096,322.39291858673096,324.8773853778839,2,2.628169298171997,None,,,,,,,,,,,,,,,,,,138,3,2025-02-27_09h27.48.060,comp,2024.2.4,60.043691002115835,2025-02-27 09h28.19.373499 -0500,
123,123,0,filler_random,None,None,None,None,None,None,None,None,None,None,3,1.8748962879180908,None,,,,,0,0,0,0,0,123,123,153,324.8929262161255,,,,,,,,,,,,,,,,,,,,,,,,,,,,,,,,,,,,,,,,,,,,,,,,,,,,,,,,,,,,,,,,,,,,,,,,,,,,,,,,,64.2179178194211,182.3899822932751,62.77935640874273,67.39813013140906,128.7533495007703,127.94865431212112,4.0,4.2,-221,-2,0,-272,194,-4,324.8784990310669,324.87854290008545,324.880984544754,324.8929262161255,325.04284834861755,325.04284834861755,325.04284834861755,325.04284834861755,325.04284834861755,325.04284834861755,325.04284834861755,326.77722930908203,3,1.8748962879180908,None,,,,,,,,,,,,,,,,,,138,3,2025-02-27_09h27.48.060,comp,2024.2.4,60.043691002115835,2025-02-27 09h28.19.373499 -0500,
124,124,0,critical,wdh,35.0,2.1,upper,125.0,200.0,127.0,127.0,200.0,125.0,1,3.1670336723327637,None,,,,,0,0,0,0,0,124,124,9,326.79285073280334,,,,,,,,,,,,,,,,,,,,,,,,,,,,,,,,,,,,,,,,,,,,,,,,,,,,,,,,,,,,,,,,,,,,,,,,,,,,,,,,,125.0,200.0,127.0,127.0,200.0,125.0,2.1,2.12,-260,-259,0,-289,222,263,326.7780363559723,326.77807569503784,326.7801556587219,326.79285073280334,326.94291400909424,326.94291400909424,326.94291400909424,326.94291400909424,326.94291400909424,326.94291400909424,326.94291400909424,329.97759461402893,1,3.1670336723327637,None,,,,,,,,,,,,,,,,,,138,3,2025-02-27_09h27.48.060,comp,2024.2.4,60.043691002115835,2025-02-27 09h28.19.373499 -0500,
125,125,0,critical,hwd,35.0,3.0,upper,200.0,125.0,125.0,200.0,127.0,127.0,2,3.310427188873291,None,,,,,0,0,0,0,0,125,125,99,329.9926426410675,,,,,,,,,,,,,,,,,,,,,,,,,,,,,,,,,,,,,,,,,,,,,,,,,,,,,,,,,,,,,,,,,,,,,,,,,,,,,,,,,200.0,125.0,125.0,200.0,127.0,127.0,3.0,3.1,-258,274,0,12,260,-258,329.9784758090973,329.97851753234863,329.98091435432434,329.9926426410675,330.14287543296814,330.14287543296814,330.14287543296814,330.14287543296814,330.14287543296814,330.14287543296814,330.14287543296814,333.31062936782837,2,3.310427188873291,None,,,,,,,,,,,,,,,,,,138,3,2025-02-27_09h27.48.060,comp,2024.2.4,60.043691002115835,2025-02-27 09h28.19.373499 -0500,
126,126,0,filler_random,None,None,None,None,None,None,None,None,None,None,2,1.0719304084777832,None,,,,,0,0,0,0,0,126,126,163,333.32614827156067,,,,,,,,,,,,,,,,,,,,,,,,,,,,,,,,,,,,,,,,,,,,,,,,,,,,,,,,,,,,,,,,,,,,,,,,,,,,,,,,,111.74871380944961,143.4478351636975,170.0240543387066,172.79134191839137,94.89674550466027,145.44830728833304,2.1,2.12,-254,-290,0,-267,255,251,333.3115191459656,333.31156039237976,333.313960313797,333.32614827156067,333.4762225151062,333.4762225151062,333.4762225151062,333.4762225151062,333.4762225151062,333.4762225151062,333.4762225151062,334.4106698036194,2,1.0719304084777832,None,,,,,,,,,,,,,,,,,,138,3,2025-02-27_09h27.48.060,comp,2024.2.4,60.043691002115835,2025-02-27 09h28.19.373499 -0500,
127,127,0,critical,dhw,20.0,3.0,upper,141.0,141.0,200.0,125.0,125.0,200.0,3,3.4288806915283203,None,,,,,0,0,0,0,0,127,127,57,334.4260230064392,,,,,,,,,,,,,,,,,,,,,,,,,,,,,,,,,,,,,,,,,,,,,,,,,,,,,,,,,,,,,,,,,,,,,,,,,,,,,,,,,141.0,141.0,200.0,125.0,125.0,200.0,3.0,3.2,-229,-281,0,-18,258,266,334.41145181655884,334.4114921092987,334.4139950275421,334.4260230064392,334.5763404369354,334.5763404369354,334.5763404369354,334.5763404369354,334.5763404369354,334.5763404369354,334.5763404369354,337.8607211112976,3,3.4288806915283203,None,,,,,,,,,,,,,,,,,,138,3,2025-02-27_09h27.48.060,comp,2024.2.4,60.043691002115835,2025-02-27 09h28.19.373499 -0500,
128,128,0,critical,dwh,20.0,2.1,upper,141.0,141.0,125.0,200.0,200.0,125.0,2,2.378870725631714,None,,,,,0,0,0,0,0,128,128,31,337.8760998249054,,,,,,,,,,,,,,,,,,,,,,,,,,,,,,,,,,,,,,,,,,,,,,,,,,,,,,,,,,,,,,,,,,,,,,,,,,,,,,,,,141.0,141.0,125.0,200.0,200.0,125.0,2.1,2.12,-266,-289,0,-267,258,284,337.86152625083923,337.8615674972534,337.8638963699341,337.8760998249054,338.0262198448181,338.0262198448181,338.0262198448181,338.0262198448181,338.0262198448181,338.0262198448181,338.0262198448181,340.2606797218323,2,2.378870725631714,None,,,,,,,,,,,,,,,,,,138,3,2025-02-27_09h27.48.060,comp,2024.2.4,60.043691002115835,2025-02-27 09h28.19.373499 -0500,
129,129,0,critical,dhw,20.0,2.1,upper,141.0,141.0,200.0,125.0,125.0,200.0,3,3.1379246711730957,None,,,,,0,0,0,0,0,129,129,27,340.2761118412018,,,,,,,,,,,,,,,,,,,,,,,,,,,,,,,,,,,,,,,,,,,,,,,,,,,,,,,,,,,,,,,,,,,,,,,,,,,,,,,,,141.0,141.0,200.0,125.0,125.0,200.0,2.1,2.12,-229,-284,0,-253,258,251,340.2614769935608,340.26151943206787,340.26387906074524,340.2761118412018,340.42630100250244,340.42630100250244,340.42630100250244,340.42630100250244,340.42630100250244,340.42630100250244,340.42630100250244,343.42732644081116,3,3.1379246711730957,None,,,,,,,,,,,,,,,,,,138,3,2025-02-27_09h27.48.060,comp,2024.2.4,60.043691002115835,2025-02-27 09h28.19.373499 -0500,
130,130,0,critical,hwd,35.0,3.0,lower,133.0,57.0,57.0,133.0,70.0,70.0,2,2.0515828132629395,None,,,,,0,0,0,0,0,130,130,98,343.44252610206604,,,,,,,,,,,,,,,,,,,,,,,,,,,,,,,,,,,,,,,,,,,,,,,,,,,,,,,,,,,,,,,,,,,,,,,,,,,,,,,,,133.0,57.0,57.0,133.0,70.0,70.0,3.0,3.1,-191,273,0,15,198,-288,343.4280695915222,343.4281096458435,343.43007802963257,343.44252610206604,343.59254360198975,343.59254360198975,343.59254360198975,343.59254360198975,343.59254360198975,343.59254360198975,343.59254360198975,345.51056694984436,2,2.0515828132629395,None,,,,,,,,,,,,,,,,,,138,3,2025-02-27_09h27.48.060,comp,2024.2.4,60.043691002115835,2025-02-27 09h28.19.373499 -0500,
131,131,0,critical,dhw,35.0,3.0,upper,127.0,127.0,200.0,125.0,125.0,200.0,3,1.577117681503296,None,,,,,0,0,0,0,0,131,131,51,345.5258493423462,,,,,,,,,,,,,,,,,,,,,,,,,,,,,,,,,,,,,,,,,,,,,,,,,,,,,,,,,,,,,,,,,,,,,,,,,,,,,,,,,127.0,127.0,200.0,125.0,125.0,200.0,3.0,3.2,-222,-265,0,9,258,265,345.5113456249237,345.5113878250122,345.51385855674744,345.5258493423462,345.67623019218445,345.67623019218445,345.67623019218445,345.67623019218445,345.67623019218445,345.67623019218445,345.67623019218445,347.1104624271393,3,1.577117681503296,None,,,,,,,,,,,,,,,,,,138,3,2025-02-27_09h27.48.060,comp,2024.2.4,60.043691002115835,2025-02-27 09h28.19.373499 -0500,
132,132,0,critical,dhw,20.0,2.1,upper,141.0,141.0,200.0,125.0,125.0,200.0,3,1.298656940460205,None,,,,,0,0,0,0,0,132,132,3,347.12599635124207,,,,,,,,,,,,,,,,,,,,,,,,,,,,,,,,,,,,,,,,,,,,,,,,,,,,,,,,,,,,,,,,,,,,,,,,,,,,,,,,,141.0,141.0,200.0,125.0,125.0,200.0,2.1,2.12,-229,-281,0,-251,258,255,347.1112277507782,347.11126828193665,347.1136074066162,347.12599635124207,347.2760753631592,347.2760753631592,347.2760753631592,347.2760753631592,347.2760753631592,347.2760753631592,347.2760753631592,348.4274432659149,3,1.298656940460205,None,,,,,,,,,,,,,,,,,,138,3,2025-02-27_09h27.48.060,comp,2024.2.4,60.043691002115835,2025-02-27 09h28.19.373499 -0500,
133,133,0,catch,None,None,None,None,None,None,None,None,None,None,2,0.9390733242034912,None,,,,,0,0,0,0,0,133,133,127,348.4427671432495,,,,,,,,,,,,,,,,,,,,,,,,,,,,,,,,,,,,,,,,,,,,,,,,,,,,,,,,,,,,,,,,,,,,,,,,,,,,,,,,,71,119,198,127,86,104,2.1,2.12,-219,-279,0,-252,212,263,348.42846965789795,348.42851066589355,348.43059825897217,348.4427671432495,348.5929551124573,348.5929551124573,348.5929551124573,348.5929551124573,348.5929551124573,348.5929551124573,348.5929551124573,349.39394330978394,2,0.9390733242034912,None,,,,,,,,,,,,,,,,,,138,3,2025-02-27_09h27.48.060,comp,2024.2.4,60.043691002115835,2025-02-27 09h28.19.373499 -0500,
134,134,0,catch,None,None,None,None,None,None,None,None,None,None,2,0.726099967956543,None,,,,,0,0,0,0,0,134,134,125,349.4091782569885,,,,,,,,,,,,,,,,,,,,,,,,,,,,,,,,,,,,,,,,,,,,,,,,,,,,,,,,,,,,,,,,,,,,,,,,,,,,,,,,,68,122,188,137,69,121,2.2,2.21,-226,-284,0,263,225,271,349.3949918746948,349.39503598213196,349.39771127700806,349.4091782569885,349.55946254730225,349.55946254730225,349.55946254730225,349.55946254730225,349.55946254730225,349.55946254730225,349.55946254730225,350.1441168785095,2,0.726099967956543,None,,,,,,,,,,,,,,,,,,138,3,2025-02-27_09h27.48.060,comp,2024.2.4,60.043691002115835,2025-02-27 09h28.19.373499 -0500,
135,135,0,critical,hwd,20.0,2.1,lower,133.0,57.0,57.0,133.0,78.0,78.0,2,1.2494127750396729,None,,,,,0,0,0,0,0,135,135,42,350.1593954563141,,,,,,,,,,,,,,,,,,,,,,,,,,,,,,,,,,,,,,,,,,,,,,,,,,,,,,,,,,,,,,,,,,,,,,,,,,,,,,,,,133.0,57.0,57.0,133.0,78.0,78.0,2.1,2.12,-191,-260,0,-260,202,290,350.1449258327484,350.1449673175812,350.14736771583557,350.1593954563141,350.3092312812805,350.3092312812805,350.3092312812805,350.3092312812805,350.3092312812805,350.3092312812805,350.3092312812805,351.4270565509796,2,1.2494127750396729,None,,,,,,,,,,,,,,,,,,138,3,2025-02-27_09h27.48.060,comp,2024.2.4,60.043691002115835,2025-02-27 09h28.19.373499 -0500,
136,136,0,filler_random,None,None,None,None,None,None,None,None,None,None,1,1.0675277709960938,None,,,,,0,0,0,0,0,136,136,146,351.4425296783447,,,,,,,,,,,,,,,,,,,,,,,,,,,,,,,,,,,,,,,,,,,,,,,,,,,,,,,,,,,,,,,,,,,,,,,,,,,,,,,,,158.6022132542392,186.9945971126552,104.1783268402989,63.30874045205041,158.42818310413227,81.58988602104887,4.0,4.1,-221,-259,0,-6,168,-255,351.42795968055725,351.4280002117157,351.43063282966614,351.4425296783447,351.59288716316223,351.59288716316223,351.59288716316223,351.59288716316223,351.59288716316223,351.59288716316223,351.59288716316223,352.5270903110504,1,1.0675277709960938,None,,,,,,,,,,,,,,,,,,138,3,2025-02-27_09h27.48.060,comp,2024.2.4,60.043691002115835,2025-02-27 09h28.19.373499 -0500,
137,137,0,critical,whd,20.0,4.0,lower,57.0,133.0,133.0,57.0,78.0,78.0,2,1.6087660789489746,None,,,,,0,0,0,0,0,137,137,94,352.54250144958496,,,,,,,,,,,,,,,,,,,,,,,,,,,,,,,,,,,,,,,,,,,,,,,,,,,,,,,,,,,,,,,,,,,,,,,,,,,,,,,,,57.0,133.0,133.0,57.0,78.0,78.0,4.0,4.1,-191,-283,0,12,164,-280,352.52790331840515,352.5279438495636,352.53048062324524,352.54250144958496,352.692498922348,352.692498922348,352.692498922348,352.692498922348,352.692498922348,352.692498922348,352.692498922348,354.16030859947205,2,1.6087660789489746,None,,,,,,,,,,,,,,,,,,138,3,2025-02-27_09h27.48.060,comp,2024.2.4,60.043691002115835,2025-02-27 09h28.19.373499 -0500,
138,138,0,filler_square,None,None,None,None,None,None,None,None,None,None,1,0.8380594253540039,None,,,,,0,0,0,0,0,138,138,199,354.17594623565674,,,,,,,,,,,,,,,,,,,,,,,,,,,,,,,,,,,,,,,,,,,,,,,,,,,,,,,,,,,,,,,,,,,,,,,,,,,,,,,,,141.1123935373423,141.1123935373423,66.65869172617904,85.5955684378622,138.1028497740238,72.98200515400598,4.0,4.2,-209,13,0,-284,175,-8,354.16124176979065,354.16129779815674,354.16357469558716,354.17594623565674,354.3259434700012,354.3259434700012,354.3259434700012,354.3259434700012,354.3259434700012,354.3259434700012,354.3259434700012,355.02690386772156,1,0.8380594253540039,None,,,,,,,,,,,,,,,,,,138,3,2025-02-27_09h27.48.060,comp,2024.2.4,60.043691002115835,2025-02-27 09h28.19.373499 -0500,
139,139,0,critical,dhw,35.0,2.1,lower,70.0,70.0,133.0,57.0,57.0,133.0,2,0.9394626617431641,None,,,,,0,0,0,0,0,139,139,24,355.042414188385,,,,,,,,,,,,,,,,,,,,,,,,,,,,,,,,,,,,,,,,,,,,,,,,,,,,,,,,,,,,,,,,,,,,,,,,,,,,,,,,,70.0,70.0,133.0,57.0,57.0,133.0,2.1,2.12,-160,-284,0,-282,191,258,355.02770256996155,355.0277442932129,355.0301730632782,355.042414188385,355.19256567955017,355.19256567955017,355.19256567955017,355.19256567955017,355.19256567955017,355.19256567955017,355.19256567955017,355.9939513206482,2,0.9394626617431641,None,,,,,,,,,,,,,,,,,,138,3,2025-02-27_09h27.48.060,comp,2024.2.4,60.043691002115835,2025-02-27 09h28.19.373499 -0500,
