thisN,thisTrialN,thisRepN,effect,order,distance,config,diag,h_1,w_1,h_2,w_2,h_3,w_3,rect_choice.keys,rect_choice.rt,rect_choice.duration,instructions_loop.thisRepN,instructions_loop.thisTrialN,instructions_loop.thisN,instructions_loop.thisIndex,blocks.thisRepN,blocks.thisTrialN,blocks.thisN,blocks.thisIndex,trials.thisRepN,trials.thisTrialN,trials.thisN,trials.thisIndex,thisRow.t,notes,consent.started,agree_button.started,decline_button.started,consent_img.started,mouse.started,consent.stopped,agree_button.numClicks,agree_button.timesOn,agree_button.timesOff,decline_button.numClicks,decline_button.timesOn,decline_button.timesOff,mouse.x,mouse.y,mouse.leftButton,mouse.midButton,mouse.rightButton,mouse.time,mouse.clicked_name,exp_params.started,exp_params.stopped,welcome.started,welcome_text.started,welcome.stopped,instructions_1.started,instructions_1_text_1.started,instructions_1_text_2.started,key_resp.started,instructions_1.stopped,instructions_loop.key_resp.keys,instructions_loop.key_resp.rt,instructions_loop.key_resp.duration,instructions_2.started,instructions_2_text_1.started,instructions_2_text_2.started,key_resp_2.started,instructions_2.stopped,instructions_loop.key_resp_2.keys,instructions_loop.key_resp_2.rt,instructions_loop.key_resp_2.duration,instructions_3.started,instructions_3_text_1.started,r1_instr3.started,r2_instr3.started,r3_instr3.started,r1_instr3_label.started,r2_instr3_label.started,r3_instr3_label.started,instructions_3_text_3.started,instructions_3_text_4.started,key_resp_3.started,instructions_3.stopped,instructions_loop.key_resp_3.keys,instructions_loop.key_resp_3.rt,instructions_loop.key_resp_3.duration,instructions_4.started,instructions_4_text_1.started,instructions_4_text_3.started,instructions_4_text_2.started,key_resp_4.started,instructions_4.stopped,instructions_loop.key_resp_4.keys,instructions_loop.key_resp_4.rt,instructions_loop.key_resp_4.duration,instructions_5.started,instructions_5_text_1.started,instructions_5_text_2.started,key_resp_5.started,instructions_5.stopped,instructions_loop.key_resp_5.keys,instructions_loop.key_resp_5.rt,instructions_loop.key_resp_5.duration,start_exp.started,start_exp_text.started,key_resp_6.started,start_exp.stopped,key_resp_6.keys,key_resp_6.rt,key_resp_6.duration,h_1_tmp,w_1_tmp,h_2_tmp,w_2_tmp,h_3_tmp,w_3_tmp,config_tmp,config_tmp_1,r_1_x,r_1_y,r_2_x,r_2_y,r_3_x,r_3_y,pre_trial.started,pre_trial.stopped,choice_trial.started,rect_choice.started,r_1.started,r_2.started,r_3.started,r_1_label.started,r_2_label.started,r_3_label.started,prompt.started,choice_trial.stopped,trials.rect_choice.keys,trials.rect_choice.rt,trials.rect_choice.duration,end_block.started,end_block_text.started,end_block.stopped,end.started,end_text.started,key_resp_7.started,end.stopped,key_resp_7.keys,key_resp_7.rt,key_resp_7.duration,debriefing.started,debrief_form.started,end_debrief.started,debriefing.stopped,end_debrief.keys,end_debrief.rt,end_debrief.duration,participant,computer,date,expName,psychopyVersion,frameRate,expStart,
,,,,,,,,,,,,,,,,,,,,,,,,,,,,,,,0.01500391960144043,0.041239261627197266,0.041239261627197266,0.041239261627197266,0.01466512680053711,46.327287435531616,1,[46.28478980064392],[46.284801959991455],0,,,[-69.0],[-506.0],[1],[0],[0],[46.31173920631409],['agree_button'],,,,,,,,,,,,,,,,,,,,,,,,,,,,,,,,,,,,,,,,,,,,,,,,,,,,,,,,,,,,,,,,,,,,,,,,,,,,,,,,,,,,,,,,,,,,,,,,,,,,,,,,,,,139,3,2025-02-27_10h26.57.551,comp,2024.2.4,61.2864546879863,2025-02-27 10h27.08.996287 -0500,
,,,,,,,,,,,,,,,,,,,,,,,,,,,,,,,,,,,,,,,,,,,,,,,,,,46.32756328582764,46.32759737968445,,,,,,,,,,,,,,,,,,,,,,,,,,,,,,,,,,,,,,,,,,,,,,,,,,,,,,,,,,,,,,,,,,,,,,,,,,,,,,,,,,,,,,,,,,,,,,,,,,,,,,,,,139,3,2025-02-27_10h26.57.551,comp,2024.2.4,61.2864546879863,2025-02-27 10h27.08.996287 -0500,
,,,,,,,,,,,,,,,,,,,,,,,,,,,,,,,,,,,,,,,,,,,,,,,,,,,,46.32762050628662,46.341134786605835,48.32987189292908,,,,,,,,,,,,,,,,,,,,,,,,,,,,,,,,,,,,,,,,,,,,,,,,,,,,,,,,,,,,,,,,,,,,,,,,,,,,,,,,,,,,,,,,,,,,,,,,,,,,,,139,3,2025-02-27_10h26.57.551,comp,2024.2.4,61.2864546879863,2025-02-27 10h27.08.996287 -0500,
0,0,0,,,,,,,,,,,,,,,0,0,0,0,,,,,,,,,48.34692049026489,,,,,,,,,,,,,,,,,,,,,,,,,,48.330424785614014,48.34692049026489,48.34692049026489,49.829827547073364,53.98161721229553,space,4.138095855712891,None,53.98169493675232,53.99660563468933,53.99660563468933,55.49687337875366,65.43100547790527,space,9.927945613861084,None,65.43109059333801,65.45451354980469,65.45451354980469,65.45451354980469,65.45451354980469,65.45451354980469,65.45451354980469,65.45451354980469,65.45451354980469,65.45451354980469,66.93010306358337,74.26471090316772,space,7.3179497718811035,None,74.26479649543762,74.28002119064331,74.28002119064331,74.28002119064331,75.76372003555298,83.73096561431885,space,7.95812463760376,None,83.73105096817017,83.74672675132751,83.74672675132751,85.26371240615845,86.69742274284363,space,1.4165923595428467,None,86.69753217697144,86.71297764778137,86.71297764778137,88.41389513015747,space,1.6868617534637451,None,,,,,,,,,,,,,,,,,,,,,,,,,,,,,,,,,,,,,,,,,,,,,,,139,3,2025-02-27_10h26.57.551,comp,2024.2.4,61.2864546879863,2025-02-27 10h27.08.996287 -0500,
0,0,0,critical,dhw,20.0,1.0,lower,78.0,78.0,133.0,57.0,57.0,133.0,2,45.240230083465576,None,,,,,0,0,0,0,0,0,0,54,88.47270393371582,,,,,,,,,,,,,,,,,,,,,,,,,,,,,,,,,,,,,,,,,,,,,,,,,,,,,,,,,,,,,,,,,,,,,,,,,,,,,,,,,78.0,78.0,133.0,57.0,57.0,133.0,1.0,1.2,-164,15,0,5,191,-19,88.45922350883484,88.45926785469055,88.46126389503479,88.47270393371582,88.61819815635681,88.61819815635681,88.61819815635681,88.61819815635681,88.61819815635681,88.61819815635681,88.61819815635681,133.73049020767212,2,45.240230083465576,None,,,,,,,,,,,,,,,,,,139,3,2025-02-27_10h26.57.551,comp,2024.2.4,61.2864546879863,2025-02-27 10h27.08.996287 -0500,
1,1,0,filler_random,None,None,None,None,None,None,None,None,None,None,1,19.06234574317932,None,,,,,0,0,0,0,0,1,1,159,133.7458918094635,,,,,,,,,,,,,,,,,,,,,,,,,,,,,,,,,,,,,,,,,,,,,,,,,,,,,,,,,,,,,,,,,,,,,,,,,,,,,,,,,188.12148285233448,86.20598472088722,82.56024169440067,114.92341343155104,63.41017847992542,140.80796533585647,2.2,2.22,-197,276,0,-278,224,-267,133.731449842453,133.7314898967743,133.73400259017944,133.7458918094635,133.8960657119751,133.8960657119751,133.8960657119751,133.8960657119751,133.8960657119751,133.8960657119751,133.8960657119751,152.81381177902222,1,19.06234574317932,None,,,,,,,,,,,,,,,,,,139,3,2025-02-27_10h26.57.551,comp,2024.2.4,61.2864546879863,2025-02-27 10h27.08.996287 -0500,
2,2,0,critical,wdh,35.0,1.0,upper,125.0,200.0,127.0,127.0,200.0,125.0,1,17.058767795562744,None,,,,,0,0,0,0,0,2,2,73,152.8294334411621,,,,,,,,,,,,,,,,,,,,,,,,,,,,,,,,,,,,,,,,,,,,,,,,,,,,,,,,,,,,,,,,,,,,,,,,,,,,,,,,,125.0,200.0,127.0,127.0,200.0,125.0,1.0,1.1,-740,254,-480,265,-258,286,152.8146333694458,152.8146722316742,152.81717777252197,152.8294334411621,152.9794557094574,152.9794557094574,152.9794557094574,152.9794557094574,152.9794557094574,152.9794557094574,152.9794557094574,169.89707255363464,1,17.058767795562744,None,,,,,,,,,,,,,,,,,,139,3,2025-02-27_10h26.57.551,comp,2024.2.4,61.2864546879863,2025-02-27 10h27.08.996287 -0500,
3,3,0,critical,hwd,20.0,2.1,lower,133.0,57.0,57.0,133.0,78.0,78.0,1,11.350228071212769,None,,,,,0,0,0,0,0,3,3,18,169.91284322738647,,,,,,,,,,,,,,,,,,,,,,,,,,,,,,,,,,,,,,,,,,,,,,,,,,,,,,,,,,,,,,,,,,,,,,,,,,,,,,,,,133.0,57.0,57.0,133.0,78.0,78.0,2.1,2.11,-191,266,0,259,202,-265,169.89787125587463,169.8979127407074,169.9000051021576,169.91284322738647,170.0627121925354,170.0627121925354,170.0627121925354,170.0627121925354,170.0627121925354,170.0627121925354,170.0627121925354,181.28010940551758,1,11.350228071212769,None,,,,,,,,,,,,,,,,,,139,3,2025-02-27_10h26.57.551,comp,2024.2.4,61.2864546879863,2025-02-27 10h27.08.996287 -0500,
4,4,0,filler_random,None,None,None,None,None,None,None,None,None,None,1,12.86599326133728,None,,,,,0,0,0,0,0,4,4,136,181.29567670822144,,,,,,,,,,,,,,,,,,,,,,,,,,,,,,,,,,,,,,,,,,,,,,,,,,,,,,,,,,,,,,,,,,,,,,,,,,,,,,,,,82.1669811762263,170.6770889081461,104.89838505590481,97.67377290768704,134.92787994205594,81.94876101046499,1.0,1.1,-710,266,-480,257,-294,282,181.28101325035095,181.28105354309082,181.28339552879333,181.29567670822144,181.4460530281067,181.4460530281067,181.4460530281067,181.4460530281067,181.4460530281067,181.4460530281067,181.4460530281067,194.16350030899048,1,12.86599326133728,None,,,,,,,,,,,,,,,,,,139,3,2025-02-27_10h26.57.551,comp,2024.2.4,61.2864546879863,2025-02-27 10h27.08.996287 -0500,
5,5,0,critical,hdw,20.0,1.0,upper,200.0,125.0,141.0,141.0,125.0,200.0,3,22.844738245010376,None,,,,,0,0,0,0,0,5,5,115,194.17905831336975,,,,,,,,,,,,,,,,,,,,,,,,,,,,,,,,,,,,,,,,,,,,,,,,,,,,,,,,,,,,,,,,,,,,,,,,,,,,,,,,,200.0,125.0,141.0,141.0,125.0,200.0,1.0,1.3,251,-285,480,-276,746,-284,194.16430711746216,194.16434717178345,194.166437625885,194.17905831336975,194.3291938304901,194.3291938304901,194.3291938304901,194.3291938304901,194.3291938304901,194.3291938304901,194.3291938304901,217.0302324295044,3,22.844738245010376,None,,,,,,,,,,,,,,,,,,139,3,2025-02-27_10h26.57.551,comp,2024.2.4,61.2864546879863,2025-02-27 10h27.08.996287 -0500,
6,6,0,critical,dwh,35.0,2.1,upper,127.0,127.0,125.0,200.0,200.0,125.0,2,8.715926885604858,None,,,,,0,0,0,0,0,6,6,5,217.0456187725067,,,,,,,,,,,,,,,,,,,,,,,,,,,,,,,,,,,,,,,,,,,,,,,,,,,,,,,,,,,,,,,,,,,,,,,,,,,,,,,,,127.0,127.0,125.0,200.0,200.0,125.0,2.1,2.12,-260,-253,0,-257,258,279,217.03104901313782,217.03109192848206,217.03347063064575,217.0456187725067,217.1960699558258,217.1960699558258,217.1960699558258,217.1960699558258,217.1960699558258,217.1960699558258,217.1960699558258,225.7634575366974,2,8.715926885604858,None,,,,,,,,,,,,,,,,,,139,3,2025-02-27_10h26.57.551,comp,2024.2.4,61.2864546879863,2025-02-27 10h27.08.996287 -0500,
7,7,0,critical,hdw,20.0,1.0,lower,133.0,57.0,78.0,78.0,57.0,133.0,3,10.300355434417725,None,,,,,0,0,0,0,0,7,7,114,225.77884197235107,,,,,,,,,,,,,,,,,,,,,,,,,,,,,,,,,,,,,,,,,,,,,,,,,,,,,,,,,,,,,,,,,,,,,,,,,,,,,,,,,133.0,57.0,78.0,78.0,57.0,133.0,1.0,1.1,-644,288,-480,265,-278,250,225.764253616333,225.76429438591003,225.7664132118225,225.77884197235107,225.9288206100464,225.9288206100464,225.9288206100464,225.9288206100464,225.9288206100464,225.9288206100464,225.9288206100464,236.0964674949646,3,10.300355434417725,None,,,,,,,,,,,,,,,,,,139,3,2025-02-27_10h26.57.551,comp,2024.2.4,61.2864546879863,2025-02-27 10h27.08.996287 -0500,
8,8,0,critical,dwh,20.0,2.1,upper,141.0,141.0,125.0,200.0,200.0,125.0,3,10.718852281570435,None,,,,,0,0,0,0,0,8,8,31,236.11192631721497,,,,,,,,,,,,,,,,,,,,,,,,,,,,,,,,,,,,,,,,,,,,,,,,,,,,,,,,,,,,,,,,,,,,,,,,,,,,,,,,,141.0,141.0,125.0,200.0,200.0,125.0,2.1,2.11,-266,273,0,273,258,-263,236.09728980064392,236.09732913970947,236.09977626800537,236.11192631721497,236.2622537612915,236.2622537612915,236.2622537612915,236.2622537612915,236.2622537612915,236.2622537612915,236.2622537612915,246.8466444015503,3,10.718852281570435,None,,,,,,,,,,,,,,,,,,139,3,2025-02-27_10h26.57.551,comp,2024.2.4,61.2864546879863,2025-02-27 10h27.08.996287 -0500,
9,9,0,critical,hdw,35.0,4.0,lower,133.0,57.0,70.0,70.0,57.0,133.0,2,8.68870735168457,None,,,,,0,0,0,0,0,9,9,112,246.86180973052979,,,,,,,,,,,,,,,,,,,,,,,,,,,,,,,,,,,,,,,,,,,,,,,,,,,,,,,,,,,,,,,,,,,,,,,,,,,,,,,,,133.0,57.0,70.0,70.0,57.0,133.0,4.0,4.1,-160,-282,0,-2,198,-287,246.84744501113892,246.84748435020447,246.84966731071472,246.86180973052979,247.0119342803955,247.0119342803955,247.0119342803955,247.0119342803955,247.0119342803955,247.0119342803955,247.0119342803955,255.56296586990356,2,8.68870735168457,None,,,,,,,,,,,,,,,,,,139,3,2025-02-27_10h26.57.551,comp,2024.2.4,61.2864546879863,2025-02-27 10h27.08.996287 -0500,
10,10,0,critical,hdw,20.0,2.1,lower,133.0,57.0,78.0,78.0,57.0,133.0,2,7.252118110656738,None,,,,,0,0,0,0,0,10,10,22,255.5783977508545,,,,,,,,,,,,,,,,,,,,,,,,,,,,,,,,,,,,,,,,,,,,,,,,,,,,,,,,,,,,,,,,,,,,,,,,,,,,,,,,,133.0,57.0,78.0,78.0,57.0,133.0,2.1,2.11,-164,254,0,255,202,-286,255.56374192237854,255.56378149986267,255.56605052947998,255.5783977508545,255.7285177707672,255.7285177707672,255.7285177707672,255.7285177707672,255.7285177707672,255.7285177707672,255.7285177707672,262.8463137149811,2,7.252118110656738,None,,,,,,,,,,,,,,,,,,139,3,2025-02-27_10h26.57.551,comp,2024.2.4,61.2864546879863,2025-02-27 10h27.08.996287 -0500,
11,11,0,critical,dhw,35.0,4.0,upper,127.0,127.0,200.0,125.0,125.0,200.0,2,7.809959411621094,None,,,,,0,0,0,0,0,11,11,53,262.86174154281616,,,,,,,,,,,,,,,,,,,,,,,,,,,,,,,,,,,,,,,,,,,,,,,,,,,,,,,,,,,,,,,,,,,,,,,,,,,,,,,,,127.0,127.0,200.0,125.0,125.0,200.0,4.0,4.2,-222,3,0,-284,258,0,262.847119808197,262.84715962409973,262.84956908226013,262.86174154281616,263.01210141181946,263.01210141181946,263.01210141181946,263.01210141181946,263.01210141181946,263.01210141181946,263.01210141181946,270.67973017692566,2,7.809959411621094,None,,,,,,,,,,,,,,,,,,139,3,2025-02-27_10h26.57.551,comp,2024.2.4,61.2864546879863,2025-02-27 10h27.08.996287 -0500,
12,12,0,critical,hdw,20.0,2.1,upper,200.0,125.0,141.0,141.0,125.0,200.0,2,41.73524498939514,None,,,,,0,0,0,0,0,12,12,47,270.6951823234558,,,,,,,,,,,,,,,,,,,,,,,,,,,,,,,,,,,,,,,,,,,,,,,,,,,,,,,,,,,,,,,,,,,,,,,,,,,,,,,,,200.0,125.0,141.0,141.0,125.0,200.0,2.1,2.11,-229,253,0,251,266,-290,270.68055391311646,270.6805942058563,270.68316745758057,270.6951823234558,270.84527564048767,270.84527564048767,270.84527564048767,270.84527564048767,270.84527564048767,270.84527564048767,270.84527564048767,312.4461281299591,2,41.73524498939514,None,,,,,,,,,,,,,,,,,,139,3,2025-02-27_10h26.57.551,comp,2024.2.4,61.2864546879863,2025-02-27 10h27.08.996287 -0500,
13,13,0,critical,dhw,35.0,2.1,lower,70.0,70.0,133.0,57.0,57.0,133.0,2,10.521519899368286,None,,,,,0,0,0,0,0,13,13,0,312.4613835811615,,,,,,,,,,,,,,,,,,,,,,,,,,,,,,,,,,,,,,,,,,,,,,,,,,,,,,,,,,,,,,,,,,,,,,,,,,,,,,,,,70.0,70.0,133.0,57.0,57.0,133.0,2.1,2.11,-160,256,0,253,191,-281,312.44688606262207,312.4469246864319,312.4488694667816,312.4613835811615,312.6115117073059,312.6115117073059,312.6115117073059,312.6115117073059,312.6115117073059,312.6115117073059,312.6115117073059,322.99587893486023,2,10.521519899368286,None,,,,,,,,,,,,,,,,,,139,3,2025-02-27_10h26.57.551,comp,2024.2.4,61.2864546879863,2025-02-27 10h27.08.996287 -0500,
14,14,0,critical,wdh,20.0,4.0,upper,125.0,200.0,141.0,141.0,200.0,125.0,2,19.843748331069946,None,,,,,0,0,0,0,0,14,14,83,323.0112268924713,,,,,,,,,,,,,,,,,,,,,,,,,,,,,,,,,,,,,,,,,,,,,,,,,,,,,,,,,,,,,,,,,,,,,,,,,,,,,,,,,125.0,200.0,141.0,141.0,200.0,125.0,4.0,4.2,-266,-7,0,-280,229,4,322.99667739868164,322.9967164993286,322.99870133399963,323.0112268924713,323.16171741485596,323.16171741485596,323.16171741485596,323.16171741485596,323.16171741485596,323.16171741485596,323.16171741485596,342.8625683784485,2,19.843748331069946,None,,,,,,,,,,,,,,,,,,139,3,2025-02-27_10h26.57.551,comp,2024.2.4,61.2864546879863,2025-02-27 10h27.08.996287 -0500,
15,15,0,critical,dhw,35.0,2.1,lower,70.0,70.0,133.0,57.0,57.0,133.0,3,5.935951232910156,None,,,,,0,0,0,0,0,15,15,24,342.8781979084015,,,,,,,,,,,,,,,,,,,,,,,,,,,,,,,,,,,,,,,,,,,,,,,,,,,,,,,,,,,,,,,,,,,,,,,,,,,,,,,,,70.0,70.0,133.0,57.0,57.0,133.0,2.1,2.12,-160,-275,0,-282,191,260,342.8633849620819,342.86342549324036,342.865868806839,342.8781979084015,343.027982711792,343.027982711792,343.027982711792,343.027982711792,343.027982711792,343.027982711792,343.027982711792,348.82898116111755,3,5.935951232910156,None,,,,,,,,,,,,,,,,,,139,3,2025-02-27_10h26.57.551,comp,2024.2.4,61.2864546879863,2025-02-27 10h27.08.996287 -0500,
16,16,0,filler_square,None,None,None,None,None,None,None,None,None,None,1,7.385664463043213,None,,,,,0,0,0,0,0,16,16,204,348.84444785118103,,,,,,,,,,,,,,,,,,,,,,,,,,,,,,,,,,,,,,,,,,,,,,,,,,,,,,,,,,,,,,,,,,,,,,,,,,,,,,,,,160.9713742438853,160.9713742438853,138.0735940832078,151.83094679844658,98.52689508101975,142.8129455713597,4.0,4.1,-252,-284,0,-7,243,-268,348.8299033641815,348.82994294166565,348.8323724269867,348.84444785118103,348.9946811199188,348.9946811199188,348.9946811199188,348.9946811199188,348.9946811199188,348.9946811199188,348.9946811199188,356.245831489563,1,7.385664463043213,None,,,,,,,,,,,,,,,,,,139,3,2025-02-27_10h26.57.551,comp,2024.2.4,61.2864546879863,2025-02-27 10h27.08.996287 -0500,
17,17,0,catch,None,None,None,None,None,None,None,None,None,None,3,3.7849080562591553,None,,,,,0,0,0,0,0,17,17,127,356.2610750198364,,,,,,,,,,,,,,,,,,,,,,,,,,,,,,,,,,,,,,,,,,,,,,,,,,,,,,,,,,,,,,,,,,,,,,,,,,,,,,,,,105,85,126,64,127,198,4.0,4.2,-170,2,0,-269,227,4,356.24687910079956,356.246919631958,356.249226808548,356.2610750198364,356.41127848625183,356.41127848625183,356.41127848625183,356.41127848625183,356.41127848625183,356.41127848625183,356.41127848625183,360.06237864494324,3,3.7849080562591553,None,,,,,,,,,,,,,,,,,,139,3,2025-02-27_10h26.57.551,comp,2024.2.4,61.2864546879863,2025-02-27 10h27.08.996287 -0500,
18,18,0,critical,dhw,20.0,2.1,upper,141.0,141.0,200.0,125.0,125.0,200.0,3,5.8409423828125,None,,,,,0,0,0,0,0,18,18,27,360.0777962207794,,,,,,,,,,,,,,,,,,,,,,,,,,,,,,,,,,,,,,,,,,,,,,,,,,,,,,,,,,,,,,,,,,,,,,,,,,,,,,,,,141.0,141.0,200.0,125.0,125.0,200.0,2.1,2.11,-229,270,0,252,258,-286,360.06321477890015,360.06325483322144,360.0656657218933,360.0777962207794,360.22816824913025,360.22816824913025,360.22816824913025,360.22816824913025,360.22816824913025,360.22816824913025,360.22816824913025,365.929399728775,3,5.8409423828125,None,,,,,,,,,,,,,,,,,,139,3,2025-02-27_10h26.57.551,comp,2024.2.4,61.2864546879863,2025-02-27 10h27.08.996287 -0500,
19,19,0,filler_square,None,None,None,None,None,None,None,None,None,None,3,2.253355026245117,None,,,,,0,0,0,0,0,19,19,178,365.94464683532715,,,,,,,,,,,,,,,,,,,,,,,,,,,,,,,,,,,,,,,,,,,,,,,,,,,,,,,,,,,,,,,,,,,,,,,,,,,,,,,,,57.56365876409757,70.33289642039895,111.33218459576398,96.33738653779585,122.59015527620036,122.59015527620036,4.0,4.1,-179,-280,0,2,205,-257,365.93031191825867,365.93035197257996,365.93241715431213,365.94464683532715,366.09445667266846,366.09445667266846,366.09445667266846,366.09445667266846,366.09445667266846,366.09445667266846,366.09445667266846,368.21216917037964,3,2.253355026245117,None,,,,,,,,,,,,,,,,,,139,3,2025-02-27_10h26.57.551,comp,2024.2.4,61.2864546879863,2025-02-27 10h27.08.996287 -0500,
20,20,0,filler_square,None,None,None,None,None,None,None,None,None,None,1,3.002180814743042,None,,,,,0,0,0,0,0,20,20,193,368.22766160964966,,,,,,,,,,,,,,,,,,,,,,,,,,,,,,,,,,,,,,,,,,,,,,,,,,,,,,,,,,,,,,,,,,,,,,,,,,,,,,,,,125.90834039775083,125.90834039775083,106.76292014626668,115.54002809690671,118.88419766544196,62.68718538739985,4.0,4.1,-217,-258,0,11,185,-256,368.21331238746643,368.2133526802063,368.21580243110657,368.22766160964966,368.3779134750366,368.3779134750366,368.3779134750366,368.3779134750366,368.3779134750366,368.3779134750366,368.3779134750366,371.2456088066101,1,3.002180814743042,None,,,,,,,,,,,,,,,,,,139,3,2025-02-27_10h26.57.551,comp,2024.2.4,61.2864546879863,2025-02-27 10h27.08.996287 -0500,
21,21,0,critical,whd,35.0,4.0,upper,125.0,200.0,200.0,125.0,127.0,127.0,1,4.761634826660156,None,,,,,0,0,0,0,0,21,21,89,371.26100611686707,,,,,,,,,,,,,,,,,,,,,,,,,,,,,,,,,,,,,,,,,,,,,,,,,,,,,,,,,,,,,,,,,,,,,,,,,,,,,,,,,125.0,200.0,200.0,125.0,127.0,127.0,4.0,4.2,-258,-1,0,-255,222,9,371.2464098930359,371.24644923210144,371.2485363483429,371.26100611686707,371.41123127937317,371.41123127937317,371.41123127937317,371.41123127937317,371.41123127937317,371.41123127937317,371.41123127937317,376.02900671958923,1,4.761634826660156,None,,,,,,,,,,,,,,,,,,139,3,2025-02-27_10h26.57.551,comp,2024.2.4,61.2864546879863,2025-02-27 10h27.08.996287 -0500,
22,22,0,critical,dhw,20.0,3.0,upper,141.0,141.0,200.0,125.0,125.0,200.0,3,3.1379473209381104,None,,,,,0,0,0,0,0,22,22,57,376.0445475578308,,,,,,,,,,,,,,,,,,,,,,,,,,,,,,,,,,,,,,,,,,,,,,,,,,,,,,,,,,,,,,,,,,,,,,,,,,,,,,,,,141.0,141.0,200.0,125.0,125.0,200.0,3.0,3.1,-229,258,0,16,258,-282,376.02982330322266,376.02986335754395,376.0318856239319,376.0445475578308,376.1946339607239,376.1946339607239,376.1946339607239,376.1946339607239,376.1946339607239,376.1946339607239,376.1946339607239,379.1959173679352,3,3.1379473209381104,None,,,,,,,,,,,,,,,,,,139,3,2025-02-27_10h26.57.551,comp,2024.2.4,61.2864546879863,2025-02-27 10h27.08.996287 -0500,
23,23,0,filler_random,None,None,None,None,None,None,None,None,None,None,1,1.467308521270752,None,,,,,0,0,0,0,0,23,23,165,379.21097111701965,,,,,,,,,,,,,,,,,,,,,,,,,,,,,,,,,,,,,,,,,,,,,,,,,,,,,,,,,,,,,,,,,,,,,,,,,,,,,,,,,146.07415830429204,137.29783257413865,97.95341672338134,68.48261701562548,57.15292361286642,127.24732725128787,3.0,3.1,-199,278,0,8,194,-260,379.19680881500244,379.19684863090515,379.1993680000305,379.21097111701965,379.3610472679138,379.3610472679138,379.3610472679138,379.3610472679138,379.3610472679138,379.3610472679138,379.3610472679138,380.6955409049988,1,1.467308521270752,None,,,,,,,,,,,,,,,,,,139,3,2025-02-27_10h26.57.551,comp,2024.2.4,61.2864546879863,2025-02-27 10h27.08.996287 -0500,
24,24,0,filler_random,None,None,None,None,None,None,None,None,None,None,1,2.8227460384368896,None,,,,,0,0,0,0,0,24,24,139,380.7109155654907,,,,,,,,,,,,,,,,,,,,,,,,,,,,,,,,,,,,,,,,,,,,,,,,,,,,,,,,,,,,,,,,,,,,,,,,,,,,,,,,,82.32704131180978,198.0718569086191,131.08053676351017,78.15919735389721,100.49950452374698,58.89838429650158,4.0,4.1,-234,-257,0,-16,165,-274,380.69649863243103,380.69653940200806,380.6994819641113,380.7109155654907,380.86121559143066,380.86121559143066,380.86121559143066,380.86121559143066,380.86121559143066,380.86121559143066,380.86121559143066,383.5458641052246,1,2.8227460384368896,None,,,,,,,,,,,,,,,,,,139,3,2025-02-27_10h26.57.551,comp,2024.2.4,61.2864546879863,2025-02-27 10h27.08.996287 -0500,
25,25,0,filler_random,None,None,None,None,None,None,None,None,None,None,1,3.1175718307495117,None,,,,,0,0,0,0,0,25,25,145,383.560884475708,,,,,,,,,,,,,,,,,,,,,,,,,,,,,,,,,,,,,,,,,,,,,,,,,,,,,,,,,,,,,,,,,,,,,,,,,,,,,,,,,199.49539006606267,141.9182988729595,121.50112715477637,167.10682354022333,179.5081543205045,118.28411605950693,1.0,1.1,-731,250,-480,289,-241,262,383.5468256473541,383.54686880111694,383.54943561553955,383.560884475708,383.711350440979,383.711350440979,383.711350440979,383.711350440979,383.711350440979,383.711350440979,383.711350440979,386.69569182395935,1,3.1175718307495117,None,,,,,,,,,,,,,,,,,,139,3,2025-02-27_10h26.57.551,comp,2024.2.4,61.2864546879863,2025-02-27 10h27.08.996287 -0500,
26,26,0,filler_random,None,None,None,None,None,None,None,None,None,None,3,2.2492942810058594,None,,,,,0,0,0,0,0,26,26,167,386.71096992492676,,,,,,,,,,,,,,,,,,,,,,,,,,,,,,,,,,,,,,,,,,,,,,,,,,,,,,,,,,,,,,,,,,,,,,,,,,,,,,,,,162.58571835372115,62.56832162156494,92.78147344062936,114.35174519467056,166.6366676036634,116.85635150247582,3.0,3.2,-184,-254,0,-7,212,280,386.6966197490692,386.69666028022766,386.6991436481476,386.71096992492676,386.86120414733887,386.86120414733887,386.86120414733887,386.86120414733887,386.86120414733887,386.86120414733887,386.86120414733887,388.9622344970703,3,2.2492942810058594,None,,,,,,,,,,,,,,,,,,139,3,2025-02-27_10h26.57.551,comp,2024.2.4,61.2864546879863,2025-02-27 10h27.08.996287 -0500,
27,27,0,filler_square,None,None,None,None,None,None,None,None,None,None,2,2.0852134227752686,None,,,,,0,0,0,0,0,27,27,196,388.9777853488922,,,,,,,,,,,,,,,,,,,,,,,,,,,,,,,,,,,,,,,,,,,,,,,,,,,,,,,,,,,,,,,,,,,,,,,,,,,,,,,,,120.13055668023352,102.89424007576318,120.39561487625699,120.39561487625699,99.20745735674711,105.17374717981035,2.2,2.21,-208,-284,0,284,209,256,388.963148355484,388.96318650245667,388.9655282497406,388.9777853488922,389.12771797180176,389.12771797180176,389.12771797180176,389.12771797180176,389.12771797180176,389.12771797180176,389.12771797180176,391.0789318084717,2,2.0852134227752686,None,,,,,,,,,,,,,,,,,,139,3,2025-02-27_10h26.57.551,comp,2024.2.4,61.2864546879863,2025-02-27 10h27.08.996287 -0500,
28,28,0,critical,hdw,20.0,3.0,upper,200.0,125.0,141.0,141.0,125.0,200.0,3,3.888120651245117,None,,,,,0,0,0,0,0,28,28,117,391.09425592422485,,,,,,,,,,,,,,,,,,,,,,,,,,,,,,,,,,,,,,,,,,,,,,,,,,,,,,,,,,,,,,,,,,,,,,,,,,,,,,,,,200.0,125.0,141.0,141.0,125.0,200.0,3.0,3.1,-229,257,0,4,266,-282,391.07973647117615,391.07977652549744,391.0823264122009,391.09425592422485,391.24451637268066,391.24451637268066,391.24451637268066,391.24451637268066,391.24451637268066,391.24451637268066,391.24451637268066,394.9955680370331,3,3.888120651245117,None,,,,,,,,,,,,,,,,,,139,3,2025-02-27_10h26.57.551,comp,2024.2.4,61.2864546879863,2025-02-27 10h27.08.996287 -0500,
29,29,0,filler_square,None,None,None,None,None,None,None,None,None,None,1,3.365274667739868,None,,,,,0,0,0,0,0,29,29,171,395.0108597278595,,,,,,,,,,,,,,,,,,,,,,,,,,,,,,,,,,,,,,,,,,,,,,,,,,,,,,,,,,,,,,,,,,,,,,,,,,,,,,,,,90.35949261150063,90.35949261150063,89.30244038767358,74.00992836505404,89.57201524239238,59.45512737364303,4.0,4.2,-178,16,0,-263,163,12,394.99654245376587,394.99658370018005,394.9990861415863,395.0108597278595,395.16103744506836,395.16103744506836,395.16103744506836,395.16103744506836,395.16103744506836,395.16103744506836,395.16103744506836,398.3788378238678,1,3.365274667739868,None,,,,,,,,,,,,,,,,,,139,3,2025-02-27_10h26.57.551,comp,2024.2.4,61.2864546879863,2025-02-27 10h27.08.996287 -0500,
30,30,0,critical,dwh,35.0,3.0,lower,70.0,70.0,57.0,133.0,133.0,57.0,3,3.6762003898620605,None,,,,,0,0,0,0,0,30,30,62,398.3943600654602,,,,,,,,,,,,,,,,,,,,,,,,,,,,,,,,,,,,,,,,,,,,,,,,,,,,,,,,,,,,,,,,,,,,,,,,,,,,,,,,,70.0,70.0,57.0,133.0,133.0,57.0,3.0,3.2,-198,-281,0,-5,191,282,398.3796525001526,398.37969183921814,398.38203263282776,398.3943600654602,398.54451394081116,398.54451394081116,398.54451394081116,398.54451394081116,398.54451394081116,398.54451394081116,398.54451394081116,402.07865285873413,3,3.6762003898620605,None,,,,,,,,,,,,,,,,,,139,3,2025-02-27_10h26.57.551,comp,2024.2.4,61.2864546879863,2025-02-27 10h27.08.996287 -0500,
31,31,0,filler_random,None,None,None,None,None,None,None,None,None,None,1,1.4168353080749512,None,,,,,0,0,0,0,0,31,31,140,402.0943157672882,,,,,,,,,,,,,,,,,,,,,,,,,,,,,,,,,,,,,,,,,,,,,,,,,,,,,,,,,,,,,,,,,,,,,,,,,,,,,,,,,112.49639069955008,175.46746731601365,128.60172176493862,97.90312611119424,186.67546466467067,59.733363628162124,2.1,2.12,-233,-271,0,-278,175,265,402.07956075668335,402.0796015262604,402.08216643333435,402.0943157672882,402.24457907676697,402.24457907676697,402.24457907676697,402.24457907676697,402.24457907676697,402.24457907676697,402.24457907676697,403.5123474597931,1,1.4168353080749512,None,,,,,,,,,,,,,,,,,,139,3,2025-02-27_10h26.57.551,comp,2024.2.4,61.2864546879863,2025-02-27 10h27.08.996287 -0500,
32,32,0,filler_square,None,None,None,None,None,None,None,None,None,None,1,1.4701018333435059,None,,,,,0,0,0,0,0,32,32,207,403.52761816978455,,,,,,,,,,,,,,,,,,,,,,,,,,,,,,,,,,,,,,,,,,,,,,,,,,,,,,,,,,,,,,,,,,,,,,,,,,,,,,,,,91.12182140187295,91.12182140187295,59.605994353059806,57.9910290872567,78.69264994947474,61.29141886616509,2.1,2.12,-171,-256,0,-274,156,276,403.51331543922424,403.5133581161499,403.51548171043396,403.52761816978455,403.6775641441345,403.6775641441345,403.6775641441345,403.6775641441345,403.6775641441345,403.6775641441345,403.6775641441345,405.0119185447693,1,1.4701018333435059,None,,,,,,,,,,,,,,,,,,139,3,2025-02-27_10h26.57.551,comp,2024.2.4,61.2864546879863,2025-02-27 10h27.08.996287 -0500,
33,33,0,filler_random,None,None,None,None,None,None,None,None,None,None,1,1.5489943027496338,None,,,,,0,0,0,0,0,33,33,144,405.02743792533875,,,,,,,,,,,,,,,,,,,,,,,,,,,,,,,,,,,,,,,,,,,,,,,,,,,,,,,,,,,,,,,,,,,,,,,,,,,,,,,,,154.1863606656657,96.4547947307519,85.70128764302456,74.81134072028742,62.33961009427324,59.09150058350506,4.0,4.1,-182,-274,0,7,163,-255,405.01284527778625,405.0128872394562,405.0152335166931,405.02743792533875,405.17760848999023,405.17760848999023,405.17760848999023,405.17760848999023,405.17760848999023,405.17760848999023,405.17760848999023,406.578813791275,1,1.5489943027496338,None,,,,,,,,,,,,,,,,,,139,3,2025-02-27_10h26.57.551,comp,2024.2.4,61.2864546879863,2025-02-27 10h27.08.996287 -0500,
34,34,0,critical,hwd,20.0,3.0,upper,200.0,125.0,125.0,200.0,141.0,141.0,2,8.37117075920105,None,,,,,0,0,0,0,0,34,34,105,406.5944519042969,,,,,,,,,,,,,,,,,,,,,,,,,,,,,,,,,,,,,,,,,,,,,,,,,,,,,,,,,,,,,,,,,,,,,,,,,,,,,,,,,200.0,125.0,125.0,200.0,141.0,141.0,3.0,3.1,-258,278,0,-3,266,-263,406.57968616485596,406.5797235965729,406.5830738544464,406.5944519042969,406.74453258514404,406.74453258514404,406.74453258514404,406.74453258514404,406.74453258514404,406.74453258514404,406.74453258514404,414.9788329601288,2,8.37117075920105,None,,,,,,,,,,,,,,,,,,139,3,2025-02-27_10h26.57.551,comp,2024.2.4,61.2864546879863,2025-02-27 10h27.08.996287 -0500,
35,35,0,filler_random,None,None,None,None,None,None,None,None,None,None,3,10.517184019088745,None,,,,,0,0,0,0,0,35,35,143,414.9939453601837,,,,,,,,,,,,,,,,,,,,,,,,,,,,,,,,,,,,,,,,,,,,,,,,,,,,,,,,,,,,,,,,,,,,,,,,,,,,,,,,,169.9697448923202,150.42033832667812,161.61608261499575,95.37931177682609,191.11105589836043,141.07643472801732,1.0,1.1,-699,262,-480,277,-266,261,414.97975420951843,414.9797930717468,414.9820635318756,414.9939453601837,415.1446714401245,415.1446714401245,415.1446714401245,415.1446714401245,415.1446714401245,415.1446714401245,415.1446714401245,425.5288498401642,3,10.517184019088745,None,,,,,,,,,,,,,,,,,,139,3,2025-02-27_10h26.57.551,comp,2024.2.4,61.2864546879863,2025-02-27 10h27.08.996287 -0500,
36,36,0,critical,dhw,20.0,4.0,upper,141.0,141.0,200.0,125.0,125.0,200.0,3,4.653439044952393,None,,,,,0,0,0,0,0,36,36,59,425.54409980773926,,,,,,,,,,,,,,,,,,,,,,,,,,,,,,,,,,,,,,,,,,,,,,,,,,,,,,,,,,,,,,,,,,,,,,,,,,,,,,,,,141.0,141.0,200.0,125.0,125.0,200.0,4.0,4.1,-229,-277,0,-19,258,-255,425.52965927124023,425.5296993255615,425.53320384025574,425.54409980773926,425.69430208206177,425.69430208206177,425.69430208206177,425.69430208206177,425.69430208206177,425.69430208206177,425.69430208206177,430.2120726108551,3,4.653439044952393,None,,,,,,,,,,,,,,,,,,139,3,2025-02-27_10h26.57.551,comp,2024.2.4,61.2864546879863,2025-02-27 10h27.08.996287 -0500,
37,37,0,filler_random,None,None,None,None,None,None,None,None,None,None,2,2.2591259479522705,None,,,,,0,0,0,0,0,37,37,163,430.22727513313293,,,,,,,,,,,,,,,,,,,,,,,,,,,,,,,,,,,,,,,,,,,,,,,,,,,,,,,,,,,,,,,,,,,,,,,,,,,,,,,,,60.87355037862687,91.69216933762283,85.70859016085862,157.05955473141876,70.12859138393753,120.01216097963885,3.0,3.1,-220,281,0,-10,235,-287,430.2129786014557,430.213018655777,430.21515107154846,430.22727513313293,430.3774347305298,430.3774347305298,430.3774347305298,430.3774347305298,430.3774347305298,430.3774347305298,430.3774347305298,432.4950976371765,2,2.2591259479522705,None,,,,,,,,,,,,,,,,,,139,3,2025-02-27_10h26.57.551,comp,2024.2.4,61.2864546879863,2025-02-27 10h27.08.996287 -0500,
38,38,0,critical,hdw,35.0,2.1,lower,133.0,57.0,70.0,70.0,57.0,133.0,1,3.9182496070861816,None,,,,,0,0,0,0,0,38,38,44,432.5112645626068,,,,,,,,,,,,,,,,,,,,,,,,,,,,,,,,,,,,,,,,,,,,,,,,,,,,,,,,,,,,,,,,,,,,,,,,,,,,,,,,,133.0,57.0,70.0,70.0,57.0,133.0,2.1,2.11,-160,268,0,287,198,-273,432.4959330558777,432.49598717689514,432.4981679916382,432.5112645626068,432.66062116622925,432.66062116622925,432.66062116622925,432.66062116622925,432.66062116622925,432.66062116622925,432.66062116622925,436.4451696872711,1,3.9182496070861816,None,,,,,,,,,,,,,,,,,,139,3,2025-02-27_10h26.57.551,comp,2024.2.4,61.2864546879863,2025-02-27 10h27.08.996287 -0500,
39,39,0,critical,dwh,35.0,4.0,upper,127.0,127.0,125.0,200.0,200.0,125.0,2,5.99369740486145,None,,,,,0,0,0,0,0,39,39,65,436.46054673194885,,,,,,,,,,,,,,,,,,,,,,,,,,,,,,,,,,,,,,,,,,,,,,,,,,,,,,,,,,,,,,,,,,,,,,,,,,,,,,,,,127.0,127.0,125.0,200.0,200.0,125.0,4.0,4.1,-260,-276,0,2,258,-278,436.4460017681122,436.4460413455963,436.44844031333923,436.46054673194885,436.61116123199463,436.61116123199463,436.61116123199463,436.61116123199463,436.61116123199463,436.61116123199463,436.61116123199463,442.46193504333496,2,5.99369740486145,None,,,,,,,,,,,,,,,,,,139,3,2025-02-27_10h26.57.551,comp,2024.2.4,61.2864546879863,2025-02-27 10h27.08.996287 -0500,
40,40,0,catch,None,None,None,None,None,None,None,None,None,None,2,1.2333638668060303,None,,,,,0,0,0,0,0,40,40,128,442.4774658679962,,,,,,,,,,,,,,,,,,,,,,,,,,,,,,,,,,,,,,,,,,,,,,,,,,,,,,,,,,,,,,,,,,,,,,,,,,,,,,,,,111,79,147,178,108,82,2.2,2.22,-224,256,0,-270,226,-253,442.46298575401306,442.4630253314972,442.4650628566742,442.4774658679962,442.62741017341614,442.62741017341614,442.62741017341614,442.62741017341614,442.62741017341614,442.62741017341614,442.62741017341614,443.728374004364,2,1.2333638668060303,None,,,,,,,,,,,,,,,,,,139,3,2025-02-27_10h26.57.551,comp,2024.2.4,61.2864546879863,2025-02-27 10h27.08.996287 -0500,
41,41,0,critical,hdw,35.0,1.0,upper,200.0,125.0,127.0,127.0,125.0,200.0,3,3.438184976577759,None,,,,,0,0,0,0,0,41,41,109,443.7438597679138,,,,,,,,,,,,,,,,,,,,,,,,,,,,,,,,,,,,,,,,,,,,,,,,,,,,,,,,,,,,,,,,,,,,,,,,,,,,,,,,,200.0,125.0,127.0,127.0,125.0,200.0,1.0,1.2,-222,10,0,-19,260,12,443.7291328907013,443.72917103767395,443.73152232170105,443.7438597679138,443.89416098594666,443.89416098594666,443.89416098594666,443.89416098594666,443.89416098594666,443.89416098594666,443.89416098594666,447.1952826976776,3,3.438184976577759,None,,,,,,,,,,,,,,,,,,139,3,2025-02-27_10h26.57.551,comp,2024.2.4,61.2864546879863,2025-02-27 10h27.08.996287 -0500,
42,42,0,catch,None,None,None,None,None,None,None,None,None,None,2,1.1869282722473145,None,,,,,0,0,0,0,0,42,42,120,447.210458278656,,,,,,,,,,,,,,,,,,,,,,,,,,,,,,,,,,,,,,,,,,,,,,,,,,,,,,,,,,,,,,,,,,,,,,,,,,,,,,,,,106,84,187,138,112,78,3.0,3.2,-207,-266,0,-15,204,261,447.1962614059448,447.1962990760803,447.1986274719238,447.210458278656,447.3606758117676,447.3606758117676,447.3606758117676,447.3606758117676,447.3606758117676,447.3606758117676,447.3606758117676,448.41182804107666,2,1.1869282722473145,None,,,,,,,,,,,,,,,,,,139,3,2025-02-27_10h26.57.551,comp,2024.2.4,61.2864546879863,2025-02-27 10h27.08.996287 -0500,
43,43,0,filler_square,None,None,None,None,None,None,None,None,None,None,2,2.067007303237915,None,,,,,0,0,0,0,0,43,43,187,448.4271910190582,,,,,,,,,,,,,,,,,,,,,,,,,,,,,,,,,,,,,,,,,,,,,,,,,,,,,,,,,,,,,,,,,,,,,,,,,,,,,,,,,62.58254996276502,112.71114295809139,113.53281354391149,113.53281354391149,90.28066109761563,58.23547657008625,4.0,4.2,-209,-7,0,-284,182,-9,448.4127492904663,448.41278767585754,448.41529726982117,448.4271910190582,448.5772740840912,448.5772740840912,448.5772740840912,448.5772740840912,448.5772740840912,448.5772740840912,448.5772740840912,450.49531984329224,2,2.067007303237915,None,,,,,,,,,,,,,,,,,,139,3,2025-02-27_10h26.57.551,comp,2024.2.4,61.2864546879863,2025-02-27 10h27.08.996287 -0500,
44,44,0,filler_square,None,None,None,None,None,None,None,None,None,None,2,1.911435842514038,None,,,,,0,0,0,0,0,44,44,185,450.51074838638306,,,,,,,,,,,,,,,,,,,,,,,,,,,,,,,,,,,,,,,,,,,,,,,,,,,,,,,,,,,,,,,,,,,,,,,,,,,,,,,,,121.13501923589547,97.69868001465065,155.17906951649448,155.17906951649448,138.30394004462596,88.27894393737981,2.2,2.21,-222,-255,0,285,218,253,450.49624848365784,450.49628829956055,450.4986128807068,450.51074838638306,450.6606743335724,450.6606743335724,450.6606743335724,450.6606743335724,450.6606743335724,450.6606743335724,450.6606743335724,452.4285373687744,2,1.911435842514038,None,,,,,,,,,,,,,,,,,,139,3,2025-02-27_10h26.57.551,comp,2024.2.4,61.2864546879863,2025-02-27 10h27.08.996287 -0500,
45,45,0,filler_random,None,None,None,None,None,None,None,None,None,None,1,1.4099438190460205,None,,,,,0,0,0,0,0,45,45,151,452.4442780017853,,,,,,,,,,,,,,,,,,,,,,,,,,,,,,,,,,,,,,,,,,,,,,,,,,,,,,,,,,,,,,,,,,,,,,,,,,,,,,,,,154.4271573580791,172.44209821706153,142.96346522198695,78.15795190259152,59.710136907570686,195.12453780391263,1.0,1.1,-701,273,-480,274,-247,263,452.429443359375,452.4294831752777,452.4320476055145,452.4442780017853,452.59403371810913,452.59403371810913,452.59403371810913,452.59403371810913,452.59403371810913,452.59403371810913,452.59403371810913,453.86180567741394,1,1.4099438190460205,None,,,,,,,,,,,,,,,,,,139,3,2025-02-27_10h26.57.551,comp,2024.2.4,61.2864546879863,2025-02-27 10h27.08.996287 -0500,
46,46,0,critical,whd,20.0,1.0,lower,57.0,133.0,133.0,57.0,78.0,78.0,2,13.800239562988281,None,,,,,0,0,0,0,0,46,46,90,453.8772168159485,,,,,,,,,,,,,,,,,,,,,,,,,,,,,,,,,,,,,,,,,,,,,,,,,,,,,,,,,,,,,,,,,,,,,,,,,,,,,,,,,57.0,133.0,133.0,57.0,78.0,78.0,1.0,1.2,-191,9,0,4,164,18,453.8625729084015,453.8626124858856,453.8647837638855,453.8772168159485,454.02725529670715,454.02725529670715,454.02725529670715,454.02725529670715,454.02725529670715,454.02725529670715,454.02725529670715,467.6948628425598,2,13.800239562988281,None,,,,,,,,,,,,,,,,,,139,3,2025-02-27_10h26.57.551,comp,2024.2.4,61.2864546879863,2025-02-27 10h27.08.996287 -0500,
47,47,0,critical,whd,20.0,4.0,lower,57.0,133.0,133.0,57.0,78.0,78.0,2,7.254834413528442,None,,,,,0,0,0,0,0,47,47,94,467.71032094955444,,,,,,,,,,,,,,,,,,,,,,,,,,,,,,,,,,,,,,,,,,,,,,,,,,,,,,,,,,,,,,,,,,,,,,,,,,,,,,,,,57.0,133.0,133.0,57.0,78.0,78.0,4.0,4.2,-191,18,0,-280,164,16,467.69564390182495,467.69568371772766,467.6978724002838,467.71032094955444,467.86047196388245,467.86047196388245,467.86047196388245,467.86047196388245,467.86047196388245,467.86047196388245,467.86047196388245,474.9782507419586,2,7.254834413528442,None,,,,,,,,,,,,,,,,,,139,3,2025-02-27_10h26.57.551,comp,2024.2.4,61.2864546879863,2025-02-27 10h27.08.996287 -0500,
48,48,0,critical,dwh,35.0,1.0,lower,70.0,70.0,57.0,133.0,133.0,57.0,3,4.155561208724976,None,,,,,0,0,0,0,0,48,48,60,474.9935896396637,,,,,,,,,,,,,,,,,,,,,,,,,,,,,,,,,,,,,,,,,,,,,,,,,,,,,,,,,,,,,,,,,,,,,,,,,,,,,,,,,70.0,70.0,57.0,133.0,133.0,57.0,1.0,1.3,282,-272,480,-255,671,-271,474.9790780544281,474.97911763191223,474.98153042793274,474.9935896396637,475.1437084674835,475.1437084674835,475.1437084674835,475.1437084674835,475.1437084674835,475.1437084674835,475.1437084674835,479.1615536212921,3,4.155561208724976,None,,,,,,,,,,,,,,,,,,139,3,2025-02-27_10h26.57.551,comp,2024.2.4,61.2864546879863,2025-02-27 10h27.08.996287 -0500,
49,49,0,filler_random,None,None,None,None,None,None,None,None,None,None,1,5.452224493026733,None,,,,,0,0,0,0,0,49,49,158,479.1769771575928,,,,,,,,,,,,,,,,,,,,,,,,,,,,,,,,,,,,,,,,,,,,,,,,,,,,,,,,,,,,,,,,,,,,,,,,,,,,,,,,,162.25461129804594,87.87776650029231,101.77918349012828,115.80791055055973,166.04874593644774,68.46102512751705,2.1,2.12,-198,-274,0,-287,188,283,479.16248750686646,479.162526845932,479.1650266647339,479.1769771575928,479.3274390697479,479.3274390697479,479.3274390697479,479.3274390697479,479.3274390697479,479.3274390697479,479.3274390697479,484.64481568336487,1,5.452224493026733,None,,,,,,,,,,,,,,,,,,139,3,2025-02-27_10h26.57.551,comp,2024.2.4,61.2864546879863,2025-02-27 10h27.08.996287 -0500,
50,50,0,filler_random,None,None,None,None,None,None,None,None,None,None,1,7.993648290634155,None,,,,,0,0,0,0,0,50,50,146,484.6602237224579,,,,,,,,,,,,,,,,,,,,,,,,,,,,,,,,,,,,,,,,,,,,,,,,,,,,,,,,,,,,,,,,,,,,,,,,,,,,,,,,,87.41368028300381,161.21106131102306,132.7509607518631,79.54290212843678,85.1795044179216,105.77196101870337,3.0,3.1,-216,282,0,-8,189,-286,484.6457278728485,484.6457691192627,484.64832067489624,484.6602237224579,484.8104496002197,484.8104496002197,484.8104496002197,484.8104496002197,484.8104496002197,484.8104496002197,484.8104496002197,492.661386013031,1,7.993648290634155,None,,,,,,,,,,,,,,,,,,139,3,2025-02-27_10h26.57.551,comp,2024.2.4,61.2864546879863,2025-02-27 10h27.08.996287 -0500,
51,51,0,filler_square,None,None,None,None,None,None,None,None,None,None,2,1.7930126190185547,None,,,,,0,0,0,0,0,51,51,208,492.6770541667938,,,,,,,,,,,,,,,,,,,,,,,,,,,,,,,,,,,,,,,,,,,,,,,,,,,,,,,,,,,,,,,,,,,,,,,,,,,,,,,,,67.68289772352085,76.80732515693465,102.96287725602406,102.96287725602406,93.93137729211443,98.05327415864409,1.0,1.3,294,-275,480,-268,677,-254,492.6623160839081,492.66235613822937,492.66488575935364,492.6770541667938,492.8269820213318,492.8269820213318,492.8269820213318,492.8269820213318,492.8269820213318,492.8269820213318,492.8269820213318,494.4780385494232,2,1.7930126190185547,None,,,,,,,,,,,,,,,,,,139,3,2025-02-27_10h26.57.551,comp,2024.2.4,61.2864546879863,2025-02-27 10h27.08.996287 -0500,
52,52,0,catch,None,None,None,None,None,None,None,None,None,None,1,1.1835598945617676,None,,,,,0,0,0,0,0,52,52,129,494.4937410354614,,,,,,,,,,,,,,,,,,,,,,,,,,,,,,,,,,,,,,,,,,,,,,,,,,,,,,,,,,,,,,,,,,,,,,,,,,,,,,,,,144,181,97,93,112,78,2.2,2.22,-233,264,0,-251,182,-271,494.47909808158875,494.47914004325867,494.48147916793823,494.4937410354614,494.6436791419983,494.6436791419983,494.6436791419983,494.6436791419983,494.6436791419983,494.6436791419983,494.6436791419983,495.69472193717957,1,1.1835598945617676,None,,,,,,,,,,,,,,,,,,139,3,2025-02-27_10h26.57.551,comp,2024.2.4,61.2864546879863,2025-02-27 10h27.08.996287 -0500,
53,53,0,critical,wdh,20.0,3.0,upper,125.0,200.0,141.0,141.0,200.0,125.0,3,11.584015846252441,None,,,,,0,0,0,0,0,53,53,81,495.7101547718048,,,,,,,,,,,,,,,,,,,,,,,,,,,,,,,,,,,,,,,,,,,,,,,,,,,,,,,,,,,,,,,,,,,,,,,,,,,,,,,,,125.0,200.0,141.0,141.0,200.0,125.0,3.0,3.1,-266,287,0,-10,229,-269,495.6955213546753,495.69556164741516,495.6976306438446,495.7101547718048,495.8607654571533,495.8607654571533,495.8607654571533,495.8607654571533,495.8607654571533,495.8607654571533,495.8607654571533,507.31164145469666,3,11.584015846252441,None,,,,,,,,,,,,,,,,,,139,3,2025-02-27_10h26.57.551,comp,2024.2.4,61.2864546879863,2025-02-27 10h27.08.996287 -0500,
54,54,0,critical,whd,20.0,2.1,upper,125.0,200.0,200.0,125.0,141.0,141.0,2,11.150572776794434,None,,,,,0,0,0,0,0,54,54,39,507.3267900943756,,,,,,,,,,,,,,,,,,,,,,,,,,,,,,,,,,,,,,,,,,,,,,,,,,,,,,,,,,,,,,,,,,,,,,,,,,,,,,,,,125.0,200.0,200.0,125.0,141.0,141.0,2.1,2.11,-258,290,0,280,229,-289,507.3124432563782,507.312481880188,507.31491112709045,507.3267900943756,507.47731709480286,507.47731709480286,507.47731709480286,507.47731709480286,507.47731709480286,507.47731709480286,507.47731709480286,518.4947776794434,2,11.150572776794434,None,,,,,,,,,,,,,,,,,,139,3,2025-02-27_10h26.57.551,comp,2024.2.4,61.2864546879863,2025-02-27 10h27.08.996287 -0500,
55,55,0,critical,wdh,35.0,4.0,upper,125.0,200.0,127.0,127.0,200.0,125.0,3,4.721456050872803,None,,,,,0,0,0,0,0,55,55,77,518.5101056098938,,,,,,,,,,,,,,,,,,,,,,,,,,,,,,,,,,,,,,,,,,,,,,,,,,,,,,,,,,,,,,,,,,,,,,,,,,,,,,,,,125.0,200.0,127.0,127.0,200.0,125.0,4.0,4.2,-260,-6,0,-288,222,-16,518.4955747127533,518.495614528656,518.4981260299683,518.5101056098938,518.6602520942688,518.6602520942688,518.6602520942688,518.6602520942688,518.6602520942688,518.6602520942688,518.6602520942688,523.2463982105255,3,4.721456050872803,None,,,,,,,,,,,,,,,,,,139,3,2025-02-27_10h26.57.551,comp,2024.2.4,61.2864546879863,2025-02-27 10h27.08.996287 -0500,
56,56,0,critical,dhw,35.0,3.0,lower,70.0,70.0,133.0,57.0,57.0,133.0,2,3.376689910888672,None,,,,,0,0,0,0,0,56,56,50,523.2609376907349,,,,,,,,,,,,,,,,,,,,,,,,,,,,,,,,,,,,,,,,,,,,,,,,,,,,,,,,,,,,,,,,,,,,,,,,,,,,,,,,,70.0,70.0,133.0,57.0,57.0,133.0,3.0,3.2,-160,-278,0,-2,191,283,523.2471792697906,523.2472169399261,523.2496023178101,523.2609376907349,523.4100584983826,523.4100584983826,523.4100584983826,523.4100584983826,523.4100584983826,523.4100584983826,523.4100584983826,526.6445369720459,2,3.376689910888672,None,,,,,,,,,,,,,,,,,,139,3,2025-02-27_10h26.57.551,comp,2024.2.4,61.2864546879863,2025-02-27 10h27.08.996287 -0500,
57,57,0,critical,dwh,20.0,4.0,upper,141.0,141.0,125.0,200.0,200.0,125.0,2,2.8006646633148193,None,,,,,0,0,0,0,0,57,57,71,526.6601490974426,,,,,,,,,,,,,,,,,,,,,,,,,,,,,,,,,,,,,,,,,,,,,,,,,,,,,,,,,,,,,,,,,,,,,,,,,,,,,,,,,141.0,141.0,125.0,200.0,200.0,125.0,4.0,4.2,-266,-15,0,-251,258,-14,526.6453185081482,526.6453597545624,526.6477129459381,526.6601490974426,526.8103530406952,526.8103530406952,526.8103530406952,526.8103530406952,526.8103530406952,526.8103530406952,526.8103530406952,529.4778797626495,2,2.8006646633148193,None,,,,,,,,,,,,,,,,,,139,3,2025-02-27_10h26.57.551,comp,2024.2.4,61.2864546879863,2025-02-27 10h27.08.996287 -0500,
58,58,0,critical,dwh,20.0,3.0,lower,78.0,78.0,57.0,133.0,133.0,57.0,3,11.639423131942749,None,,,,,0,0,0,0,0,58,58,68,529.4932112693787,,,,,,,,,,,,,,,,,,,,,,,,,,,,,,,,,,,,,,,,,,,,,,,,,,,,,,,,,,,,,,,,,,,,,,,,,,,,,,,,,78.0,78.0,57.0,133.0,133.0,57.0,3.0,3.2,-202,-288,0,19,191,255,529.4786887168884,529.4787275791168,529.4807691574097,529.4932112693787,529.6434273719788,529.6434273719788,529.6434273719788,529.6434273719788,529.6434273719788,529.6434273719788,529.6434273719788,541.1447179317474,3,11.639423131942749,None,,,,,,,,,,,,,,,,,,139,3,2025-02-27_10h26.57.551,comp,2024.2.4,61.2864546879863,2025-02-27 10h27.08.996287 -0500,
59,59,0,filler_random,None,None,None,None,None,None,None,None,None,None,1,1.5418193340301514,None,,,,,0,0,0,0,0,59,59,155,541.1598465442657,,,,,,,,,,,,,,,,,,,,,,,,,,,,,,,,,,,,,,,,,,,,,,,,,,,,,,,,,,,,,,,,,,,,,,,,,,,,,,,,,128.51916082339255,179.16981355403652,98.88864392601684,107.5629848803267,155.64181331162482,77.30485096917982,4.0,4.1,-239,-272,0,-15,188,-269,541.1456184387207,541.1456575393677,541.1481523513794,541.1598465442657,541.3100261688232,541.3100261688232,541.3100261688232,541.3100261688232,541.3100261688232,541.3100261688232,541.3100261688232,542.7114033699036,1,1.5418193340301514,None,,,,,,,,,,,,,,,,,,139,3,2025-02-27_10h26.57.551,comp,2024.2.4,61.2864546879863,2025-02-27 10h27.08.996287 -0500,
60,60,0,filler_square,None,None,None,None,None,None,None,None,None,None,3,2.4545862674713135,None,,,,,0,0,0,0,0,60,60,176,542.726797580719,,,,,,,,,,,,,,,,,,,,,,,,,,,,,,,,,,,,,,,,,,,,,,,,,,,,,,,,,,,,,,,,,,,,,,,,,,,,,,,,,64.49008621380334,60.37252486808193,60.6959472551109,64.59037801557017,64.69711841680129,64.69711841680129,2.2,2.21,-158,-289,0,269,161,276,542.7123925685883,542.7124338150024,542.7147521972656,542.726797580719,542.8765690326691,542.8765690326691,542.8765690326691,542.8765690326691,542.8765690326691,542.8765690326691,542.8765690326691,545.1943047046661,3,2.4545862674713135,None,,,,,,,,,,,,,,,,,,139,3,2025-02-27_10h26.57.551,comp,2024.2.4,61.2864546879863,2025-02-27 10h27.08.996287 -0500,
61,61,0,filler_random,None,None,None,None,None,None,None,None,None,None,1,1.2276957035064697,None,,,,,0,0,0,0,0,61,61,169,545.2097775936127,,,,,,,,,,,,,,,,,,,,,,,,,,,,,,,,,,,,,,,,,,,,,,,,,,,,,,,,,,,,,,,,,,,,,,,,,,,,,,,,,153.8637156538519,180.5826542067515,60.56971994704434,160.72759391720268,163.73186817068122,93.94968512379879,1.0,1.2,-267,19,0,5,223,6,545.1952004432678,545.195240020752,545.1976795196533,545.2097775936127,545.360004901886,545.360004901886,545.360004901886,545.360004901886,545.360004901886,545.360004901886,545.360004901886,546.4444692134857,1,1.2276957035064697,None,,,,,,,,,,,,,,,,,,139,3,2025-02-27_10h26.57.551,comp,2024.2.4,61.2864546879863,2025-02-27 10h27.08.996287 -0500,
62,62,0,filler_square,None,None,None,None,None,None,None,None,None,None,2,3.168657064437866,None,,,,,0,0,0,0,0,62,62,175,546.4600718021393,,,,,,,,,,,,,,,,,,,,,,,,,,,,,,,,,,,,,,,,,,,,,,,,,,,,,,,,,,,,,,,,,,,,,,,,,,,,,,,,,61.209844788280705,68.29496218691511,87.10067374727045,87.10067374727045,75.28666758149117,76.82119867804495,3.0,3.1,-174,255,0,10,178,-261,546.4454379081726,546.4454805850983,546.447559595108,546.4600718021393,546.6098861694336,546.6098861694336,546.6098861694336,546.6098861694336,546.6098861694336,546.6098861694336,546.6098861694336,549.6444840431213,2,3.168657064437866,None,,,,,,,,,,,,,,,,,,139,3,2025-02-27_10h26.57.551,comp,2024.2.4,61.2864546879863,2025-02-27 10h27.08.996287 -0500,
63,63,0,critical,wdh,20.0,1.0,upper,125.0,200.0,141.0,141.0,200.0,125.0,1,3.9616539478302,None,,,,,0,0,0,0,0,63,63,79,549.6598505973816,,,,,,,,,,,,,,,,,,,,,,,,,,,,,,,,,,,,,,,,,,,,,,,,,,,,,,,,,,,,,,,,,,,,,,,,,,,,,,,,,125.0,200.0,141.0,141.0,200.0,125.0,1.0,1.3,214,-279,480,-257,709,-254,549.6453094482422,549.6453495025635,549.6477608680725,549.6598505973816,549.8100955486298,549.8100955486298,549.8100955486298,549.8100955486298,549.8100955486298,549.8100955486298,549.8100955486298,553.6278853416443,1,3.9616539478302,None,,,,,,,,,,,,,,,,,,139,3,2025-02-27_10h26.57.551,comp,2024.2.4,61.2864546879863,2025-02-27 10h27.08.996287 -0500,
64,64,0,filler_square,None,None,None,None,None,None,None,None,None,None,1,4.5051047801971436,None,,,,,0,0,0,0,0,64,64,209,553.6433613300323,,,,,,,,,,,,,,,,,,,,,,,,,,,,,,,,,,,,,,,,,,,,,,,,,,,,,,,,,,,,,,,,,,,,,,,,,,,,,,,,,68.227306746349,68.227306746349,61.8249210547355,67.57626007793577,62.060050801928526,62.507180708371436,2.1,2.11,-164,276,0,285,161,-260,553.6288418769836,553.6288824081421,553.6310150623322,553.6433613300323,553.7932069301605,553.7932069301605,553.7932069301605,553.7932069301605,553.7932069301605,553.7932069301605,553.7932069301605,558.1610116958618,1,4.5051047801971436,None,,,,,,,,,,,,,,,,,,139,3,2025-02-27_10h26.57.551,comp,2024.2.4,61.2864546879863,2025-02-27 10h27.08.996287 -0500,
65,65,0,critical,hdw,35.0,2.1,upper,200.0,125.0,127.0,127.0,125.0,200.0,3,3.868243932723999,None,,,,,0,0,0,0,0,65,65,21,558.1763799190521,,,,,,,,,,,,,,,,,,,,,,,,,,,,,,,,,,,,,,,,,,,,,,,,,,,,,,,,,,,,,,,,,,,,,,,,,,,,,,,,,200.0,125.0,127.0,127.0,125.0,200.0,2.1,2.12,-222,-252,0,-272,260,272,558.1618392467499,558.1618783473969,558.1642074584961,558.1763799190521,558.3267149925232,558.3267149925232,558.3267149925232,558.3267149925232,558.3267149925232,558.3267149925232,558.3267149925232,562.0611140727997,3,3.868243932723999,None,,,,,,,,,,,,,,,,,,139,3,2025-02-27_10h26.57.551,comp,2024.2.4,61.2864546879863,2025-02-27 10h27.08.996287 -0500,
66,66,0,critical,hdw,20.0,3.0,lower,133.0,57.0,78.0,78.0,57.0,133.0,1,2.91396164894104,None,,,,,0,0,0,0,0,66,66,116,562.076411485672,,,,,,,,,,,,,,,,,,,,,,,,,,,,,,,,,,,,,,,,,,,,,,,,,,,,,,,,,,,,,,,,,,,,,,,,,,,,,,,,,133.0,57.0,78.0,78.0,57.0,133.0,3.0,3.1,-164,277,0,-15,202,-266,562.0618834495544,562.0619220733643,562.0643041133881,562.076411485672,562.2267444133759,562.2267444133759,562.2267444133759,562.2267444133759,562.2267444133759,562.2267444133759,562.2267444133759,564.9944226741791,1,2.91396164894104,None,,,,,,,,,,,,,,,,,,139,3,2025-02-27_10h26.57.551,comp,2024.2.4,61.2864546879863,2025-02-27 10h27.08.996287 -0500,
67,67,0,critical,dwh,20.0,2.1,lower,78.0,78.0,57.0,133.0,133.0,57.0,3,5.443491458892822,None,,,,,0,0,0,0,0,67,67,6,565.0099151134491,,,,,,,,,,,,,,,,,,,,,,,,,,,,,,,,,,,,,,,,,,,,,,,,,,,,,,,,,,,,,,,,,,,,,,,,,,,,,,,,,78.0,78.0,57.0,133.0,133.0,57.0,2.1,2.11,-202,279,0,279,191,-253,564.9952056407928,564.995246887207,564.9973382949829,565.0099151134491,565.1598660945892,565.1598660945892,565.1598660945892,565.1598660945892,565.1598660945892,565.1598660945892,565.1598660945892,570.4609982967377,3,5.443491458892822,None,,,,,,,,,,,,,,,,,,139,3,2025-02-27_10h26.57.551,comp,2024.2.4,61.2864546879863,2025-02-27 10h27.08.996287 -0500,
68,68,0,critical,dhw,35.0,2.1,upper,127.0,127.0,200.0,125.0,125.0,200.0,3,1.7519161701202393,None,,,,,0,0,0,0,0,68,68,25,570.476690530777,,,,,,,,,,,,,,,,,,,,,,,,,,,,,,,,,,,,,,,,,,,,,,,,,,,,,,,,,,,,,,,,,,,,,,,,,,,,,,,,,127.0,127.0,200.0,125.0,125.0,200.0,2.1,2.11,-222,253,0,283,258,-272,570.4617865085602,570.4618256092072,570.4638731479645,570.476690530777,570.626650094986,570.626650094986,570.626650094986,570.626650094986,570.626650094986,570.626650094986,570.626650094986,572.2443420886993,3,1.7519161701202393,None,,,,,,,,,,,,,,,,,,139,3,2025-02-27_10h26.57.551,comp,2024.2.4,61.2864546879863,2025-02-27 10h27.08.996287 -0500,
69,69,0,filler_random,None,None,None,None,None,None,None,None,None,None,1,9.267251968383789,None,,,,,0,0,0,0,0,69,69,135,572.2596468925476,,,,,,,,,,,,,,,,,,,,,,,,,,,,,,,,,,,,,,,,,,,,,,,,,,,,,,,,,,,,,,,,,,,,,,,,,,,,,,,,,145.1776749448244,100.23490332181518,177.65934197295982,77.70336659340616,108.20873888073416,117.9844061629633,2.1,2.12,-185,-266,0,-255,194,274,572.2452783584595,572.2453193664551,572.2477490901947,572.2596468925476,572.4098036289215,572.4098036289215,572.4098036289215,572.4098036289215,572.4098036289215,572.4098036289215,572.4098036289215,581.5442419052124,1,9.267251968383789,None,,,,,,,,,,,,,,,,,,139,3,2025-02-27_10h26.57.551,comp,2024.2.4,61.2864546879863,2025-02-27 10h27.08.996287 -0500,
70,70,0,critical,dhw,20.0,3.0,lower,78.0,78.0,133.0,57.0,57.0,133.0,2,3.2155396938323975,None,,,,,0,0,0,0,0,70,70,56,581.5596115589142,,,,,,,,,,,,,,,,,,,,,,,,,,,,,,,,,,,,,,,,,,,,,,,,,,,,,,,,,,,,,,,,,,,,,,,,,,,,,,,,,78.0,78.0,133.0,57.0,57.0,133.0,3.0,3.1,-164,251,0,-5,191,-280,581.5450274944305,581.5450670719147,581.5479633808136,581.5596115589142,581.7097845077515,581.7097845077515,581.7097845077515,581.7097845077515,581.7097845077515,581.7097845077515,581.7097845077515,584.7776198387146,2,3.2155396938323975,None,,,,,,,,,,,,,,,,,,139,3,2025-02-27_10h26.57.551,comp,2024.2.4,61.2864546879863,2025-02-27 10h27.08.996287 -0500,
71,71,0,filler_random,None,None,None,None,None,None,None,None,None,None,2,5.1245646476745605,None,,,,,0,0,0,0,0,71,71,131,584.7931299209595,,,,,,,,,,,,,,,,,,,,,,,,,,,,,,,,,,,,,,,,,,,,,,,,,,,,,,,,,,,,,,,,,,,,,,,,,,,,,,,,,143.47123535928557,137.58910374065368,106.55517895519895,171.78450688302203,132.34073896218874,155.1741439853724,3.0,3.2,-251,-278,0,-11,259,256,584.7785105705261,584.7785511016846,584.7806258201599,584.7931299209595,584.9431502819061,584.9431502819061,584.9431502819061,584.9431502819061,584.9431502819061,584.9431502819061,584.9431502819061,589.9275953769684,2,5.1245646476745605,None,,,,,,,,,,,,,,,,,,139,3,2025-02-27_10h26.57.551,comp,2024.2.4,61.2864546879863,2025-02-27 10h27.08.996287 -0500,
72,72,0,filler_square,None,None,None,None,None,None,None,None,None,None,2,2.0853514671325684,None,,,,,0,0,0,0,0,72,72,174,589.9431982040405,,,,,,,,,,,,,,,,,,,,,,,,,,,,,,,,,,,,,,,,,,,,,,,,,,,,,,,,,,,,,,,,,,,,,,,,,,,,,,,,,145.58618803099918,118.53347027712414,161.3710580486503,161.3710580486503,151.1568519993857,155.85553906589365,1.0,1.1,-716,276,-480,283,-225,251,589.9285547733307,589.9285955429077,589.931022644043,589.9431982040405,590.0931797027588,590.0931797027588,590.0931797027588,590.0931797027588,590.0931797027588,590.0931797027588,590.0931797027588,592.0442223548889,2,2.0853514671325684,None,,,,,,,,,,,,,,,,,,139,3,2025-02-27_10h26.57.551,comp,2024.2.4,61.2864546879863,2025-02-27 10h27.08.996287 -0500,
73,73,0,critical,whd,35.0,3.0,upper,125.0,200.0,200.0,125.0,127.0,127.0,1,1.6837999820709229,None,,,,,0,0,0,0,0,73,73,87,592.059451341629,,,,,,,,,,,,,,,,,,,,,,,,,,,,,,,,,,,,,,,,,,,,,,,,,,,,,,,,,,,,,,,,,,,,,,,,,,,,,,,,,125.0,200.0,200.0,125.0,127.0,127.0,3.0,3.1,-258,286,0,-10,222,-286,592.0450332164764,592.0450711250305,592.0480420589447,592.059451341629,592.2098269462585,592.2098269462585,592.2098269462585,592.2098269462585,592.2098269462585,592.2098269462585,592.2098269462585,593.7444999217987,1,1.6837999820709229,None,,,,,,,,,,,,,,,,,,139,3,2025-02-27_10h26.57.551,comp,2024.2.4,61.2864546879863,2025-02-27 10h27.08.996287 -0500,
74,74,0,critical,dwh,35.0,4.0,lower,70.0,70.0,57.0,133.0,133.0,57.0,3,2.3584043979644775,None,,,,,0,0,0,0,0,74,74,64,593.759731054306,,,,,,,,,,,,,,,,,,,,,,,,,,,,,,,,,,,,,,,,,,,,,,,,,,,,,,,,,,,,,,,,,,,,,,,,,,,,,,,,,70.0,70.0,57.0,133.0,133.0,57.0,4.0,4.1,-198,-289,0,20,191,-255,593.7452960014343,593.7453360557556,593.7477643489838,593.759731054306,593.9096076488495,593.9096076488495,593.9096076488495,593.9096076488495,593.9096076488495,593.9096076488495,593.9096076488495,596.127347946167,3,2.3584043979644775,None,,,,,,,,,,,,,,,,,,139,3,2025-02-27_10h26.57.551,comp,2024.2.4,61.2864546879863,2025-02-27 10h27.08.996287 -0500,
75,75,0,critical,whd,20.0,1.0,upper,125.0,200.0,200.0,125.0,141.0,141.0,2,4.446681261062622,None,,,,,0,0,0,0,0,75,75,91,596.1431398391724,,,,,,,,,,,,,,,,,,,,,,,,,,,,,,,,,,,,,,,,,,,,,,,,,,,,,,,,,,,,,,,,,,,,,,,,,,,,,,,,,125.0,200.0,200.0,125.0,141.0,141.0,1.0,1.1,-738,280,-480,278,-251,275,596.1281445026398,596.1281831264496,596.1305718421936,596.1431398391724,596.2932469844818,596.2932469844818,596.2932469844818,596.2932469844818,596.2932469844818,596.2932469844818,596.2932469844818,600.5943462848663,2,4.446681261062622,None,,,,,,,,,,,,,,,,,,139,3,2025-02-27_10h26.57.551,comp,2024.2.4,61.2864546879863,2025-02-27 10h27.08.996287 -0500,
76,76,0,critical,hdw,20.0,2.1,lower,133.0,57.0,78.0,78.0,57.0,133.0,1,5.802749872207642,None,,,,,0,0,0,0,0,76,76,46,600.6097202301025,,,,,,,,,,,,,,,,,,,,,,,,,,,,,,,,,,,,,,,,,,,,,,,,,,,,,,,,,,,,,,,,,,,,,,,,,,,,,,,,,133.0,57.0,78.0,78.0,57.0,133.0,2.1,2.12,-164,-261,0,-264,202,280,600.5951242446899,600.5951638221741,600.5972535610199,600.6097202301025,600.7599472999573,600.7599472999573,600.7599472999573,600.7599472999573,600.7599472999573,600.7599472999573,600.7599472999573,606.4273545742035,1,5.802749872207642,None,,,,,,,,,,,,,,,,,,139,3,2025-02-27_10h26.57.551,comp,2024.2.4,61.2864546879863,2025-02-27 10h27.08.996287 -0500,
77,77,0,filler_random,None,None,None,None,None,None,None,None,None,None,1,10.42647409439087,None,,,,,0,0,0,0,0,77,77,130,606.4427359104156,,,,,,,,,,,,,,,,,,,,,,,,,,,,,,,,,,,,,,,,,,,,,,,,,,,,,,,,,,,,,,,,,,,,,,,,,,,,,,,,,134.9250075158418,172.2646420504698,133.96744817658384,166.20474751521962,83.92698346537904,102.25637809947219,2.1,2.11,-265,255,0,254,230,-258,606.4282381534576,606.4282765388489,606.4306497573853,606.4427359104156,606.5930016040802,606.5930016040802,606.5930016040802,606.5930016040802,606.5930016040802,606.5930016040802,606.5930016040802,616.8773305416107,1,10.42647409439087,None,,,,,,,,,,,,,,,,,,139,3,2025-02-27_10h26.57.551,comp,2024.2.4,61.2864546879863,2025-02-27 10h27.08.996287 -0500,
78,78,0,critical,dhw,35.0,2.1,upper,127.0,127.0,200.0,125.0,125.0,200.0,3,2.0967650413513184,None,,,,,0,0,0,0,0,78,78,1,616.8929631710052,,,,,,,,,,,,,,,,,,,,,,,,,,,,,,,,,,,,,,,,,,,,,,,,,,,,,,,,,,,,,,,,,,,,,,,,,,,,,,,,,127.0,127.0,200.0,125.0,125.0,200.0,2.1,2.12,-222,-257,0,-289,258,282,616.8781344890594,616.878175497055,616.8805603981018,616.8929631710052,617.0431132316589,617.0431132316589,617.0431132316589,617.0431132316589,617.0431132316589,617.0431132316589,617.0431132316589,618.9941427707672,3,2.0967650413513184,None,,,,,,,,,,,,,,,,,,139,3,2025-02-27_10h26.57.551,comp,2024.2.4,61.2864546879863,2025-02-27 10h27.08.996287 -0500,
79,79,0,filler_random,None,None,None,None,None,None,None,None,None,None,2,3.1382875442504883,None,,,,,0,0,0,0,0,79,79,133,619.0098326206207,,,,,,,,,,,,,,,,,,,,,,,,,,,,,,,,,,,,,,,,,,,,,,,,,,,,,,,,,,,,,,,,,,,,,,,,,,,,,,,,,79.58591708761742,100.62506456320509,86.32062053697207,193.70984745691646,152.61344317216506,113.13188795567125,1.0,1.3,237,-284,480,-268,729,-261,618.9950633049011,618.9951047897339,618.9972140789032,619.0098326206207,619.1595513820648,619.1595513820648,619.1595513820648,619.1595513820648,619.1595513820648,619.1595513820648,619.1595513820648,622.1606194972992,2,3.1382875442504883,None,,,,,,,,,,,,,,,,,,139,3,2025-02-27_10h26.57.551,comp,2024.2.4,61.2864546879863,2025-02-27 10h27.08.996287 -0500,
80,80,0,filler_random,None,None,None,None,None,None,None,None,None,None,2,2.460897445678711,None,,,,,0,0,0,0,0,80,80,157,622.1760714054108,,,,,,,,,,,,,,,,,,,,,,,,,,,,,,,,,,,,,,,,,,,,,,,,,,,,,,,,,,,,,,,,,,,,,,,,,,,,,,,,,86.51629732123018,155.85412515315198,175.5125080275177,99.18373140780318,185.74965722036634,74.1468358022752,3.0,3.1,-224,256,0,8,183,-284,622.1615355014801,622.1615762710571,622.1641483306885,622.1760714054108,622.3261213302612,622.3261213302612,622.3261213302612,622.3261213302612,622.3261213302612,622.3261213302612,622.3261213302612,624.6439383029938,2,2.460897445678711,None,,,,,,,,,,,,,,,,,,139,3,2025-02-27_10h26.57.551,comp,2024.2.4,61.2864546879863,2025-02-27 10h27.08.996287 -0500,
81,81,0,filler_random,None,None,None,None,None,None,None,None,None,None,1,2.0831212997436523,None,,,,,0,0,0,0,0,81,81,147,624.6595551967621,,,,,,,,,,,,,,,,,,,,,,,,,,,,,,,,,,,,,,,,,,,,,,,,,,,,,,,,,,,,,,,,,,,,,,,,,,,,,,,,,110.87490803158991,179.5218864864503,88.59148625213172,149.643572217113,76.62167760572234,120.44177267094861,2.1,2.11,-261,286,0,264,231,-285,624.6448655128479,624.6449060440063,624.6470727920532,624.6595551967621,624.809451341629,624.809451341629,624.809451341629,624.809451341629,624.809451341629,624.809451341629,624.809451341629,626.7440268993378,1,2.0831212997436523,None,,,,,,,,,,,,,,,,,,139,3,2025-02-27_10h26.57.551,comp,2024.2.4,61.2864546879863,2025-02-27 10h27.08.996287 -0500,
82,82,0,filler_random,None,None,None,None,None,None,None,None,None,None,3,1.7886145114898682,None,,,,,0,0,0,0,0,82,82,166,626.7594792842865,,,,,,,,,,,,,,,,,,,,,,,,,,,,,,,,,,,,,,,,,,,,,,,,,,,,,,,,,,,,,,,,,,,,,,,,,,,,,,,,,88.67534230263902,119.64184059244135,137.54575682084527,62.320414788177736,175.53867906576497,106.43165865048712,2.2,2.21,-187,-254,0,264,180,275,626.7449123859406,626.7449662685394,626.7472581863403,626.7594792842865,626.9095265865326,626.9095265865326,626.9095265865326,626.9095265865326,626.9095265865326,626.9095265865326,626.9095265865326,628.5607850551605,3,1.7886145114898682,None,,,,,,,,,,,,,,,,,,139,3,2025-02-27_10h26.57.551,comp,2024.2.4,61.2864546879863,2025-02-27 10h27.08.996287 -0500,
83,83,0,critical,whd,20.0,2.1,lower,57.0,133.0,133.0,57.0,78.0,78.0,2,2.6450016498565674,None,,,,,0,0,0,0,0,83,83,14,628.5759937763214,,,,,,,,,,,,,,,,,,,,,,,,,,,,,,,,,,,,,,,,,,,,,,,,,,,,,,,,,,,,,,,,,,,,,,,,,,,,,,,,,57.0,133.0,133.0,57.0,78.0,78.0,2.1,2.11,-191,282,0,274,164,-258,628.561580657959,628.5616204738617,628.5641939640045,628.5759937763214,628.7260355949402,628.7260355949402,628.7260355949402,628.7260355949402,628.7260355949402,628.7260355949402,628.7260355949402,631.22718501091,2,2.6450016498565674,None,,,,,,,,,,,,,,,,,,139,3,2025-02-27_10h26.57.551,comp,2024.2.4,61.2864546879863,2025-02-27 10h27.08.996287 -0500,
84,84,0,filler_square,None,None,None,None,None,None,None,None,None,None,1,5.7780656814575195,None,,,,,0,0,0,0,0,84,84,177,631.2428247928619,,,,,,,,,,,,,,,,,,,,,,,,,,,,,,,,,,,,,,,,,,,,,,,,,,,,,,,,,,,,,,,,,,,,,,,,,,,,,,,,,70.01617727004282,70.01617727004282,59.452712187538836,64.07246557772997,57.83853765320687,63.00286371534823,2.2,2.21,-163,-259,0,270,160,283,631.2281067371368,631.2281475067139,631.230566740036,631.2428247928619,631.3931143283844,631.3931143283844,631.3931143283844,631.3931143283844,631.3931143283844,631.3931143283844,631.3931143283844,637.0270791053772,1,5.7780656814575195,None,,,,,,,,,,,,,,,,,,139,3,2025-02-27_10h26.57.551,comp,2024.2.4,61.2864546879863,2025-02-27 10h27.08.996287 -0500,
85,85,0,critical,whd,20.0,4.0,upper,125.0,200.0,200.0,125.0,141.0,141.0,2,4.2265026569366455,None,,,,,0,0,0,0,0,85,85,95,637.0427169799805,,,,,,,,,,,,,,,,,,,,,,,,,,,,,,,,,,,,,,,,,,,,,,,,,,,,,,,,,,,,,,,,,,,,,,,,,,,,,,,,,125.0,200.0,200.0,125.0,141.0,141.0,4.0,4.2,-258,1,0,-263,229,5,637.0278639793396,637.0279040336609,637.0301117897034,637.0427169799805,637.1928286552429,637.1928286552429,637.1928286552429,637.1928286552429,637.1928286552429,637.1928286552429,637.1928286552429,641.2772533893585,2,4.2265026569366455,None,,,,,,,,,,,,,,,,,,139,3,2025-02-27_10h26.57.551,comp,2024.2.4,61.2864546879863,2025-02-27 10h27.08.996287 -0500,
86,86,0,critical,hwd,20.0,4.0,upper,200.0,125.0,125.0,200.0,141.0,141.0,2,2.151244640350342,None,,,,,0,0,0,0,0,86,86,107,641.2928698062897,,,,,,,,,,,,,,,,,,,,,,,,,,,,,,,,,,,,,,,,,,,,,,,,,,,,,,,,,,,,,,,,,,,,,,,,,,,,,,,,,200.0,125.0,125.0,200.0,141.0,141.0,4.0,4.2,-258,-4,0,-266,266,-11,641.2780592441559,641.2781000137329,641.2804918289185,641.2928698062897,641.4428403377533,641.4428403377533,641.4428403377533,641.4428403377533,641.4428403377533,641.4428403377533,641.4428403377533,643.4606306552887,2,2.151244640350342,None,,,,,,,,,,,,,,,,,,139,3,2025-02-27_10h26.57.551,comp,2024.2.4,61.2864546879863,2025-02-27 10h27.08.996287 -0500,
87,87,0,critical,dwh,20.0,1.0,upper,141.0,141.0,125.0,200.0,200.0,125.0,2,2.0253937244415283,None,,,,,0,0,0,0,0,87,87,67,643.4758162498474,,,,,,,,,,,,,,,,,,,,,,,,,,,,,,,,,,,,,,,,,,,,,,,,,,,,,,,,,,,,,,,,,,,,,,,,,,,,,,,,,141.0,141.0,125.0,200.0,200.0,125.0,1.0,1.1,-746,277,-480,274,-222,278,643.4614040851593,643.4614448547363,643.4638559818268,643.4758162498474,643.6260941028595,643.6260941028595,643.6260941028595,643.6260941028595,643.6260941028595,643.6260941028595,643.6260941028595,645.5106081962585,2,2.0253937244415283,None,,,,,,,,,,,,,,,,,,139,3,2025-02-27_10h26.57.551,comp,2024.2.4,61.2864546879863,2025-02-27 10h27.08.996287 -0500,
88,88,0,critical,dwh,35.0,2.1,lower,70.0,70.0,57.0,133.0,133.0,57.0,3,3.126829147338867,None,,,,,0,0,0,0,0,88,88,4,645.5260574817657,,,,,,,,,,,,,,,,,,,,,,,,,,,,,,,,,,,,,,,,,,,,,,,,,,,,,,,,,,,,,,,,,,,,,,,,,,,,,,,,,70.0,70.0,57.0,133.0,133.0,57.0,2.1,2.11,-198,271,0,268,191,-270,645.5114161968231,645.5114557743073,645.5139741897583,645.5260574817657,645.6758480072021,645.6758480072021,645.6758480072021,645.6758480072021,645.6758480072021,645.6758480072021,645.6758480072021,648.6602549552917,3,3.126829147338867,None,,,,,,,,,,,,,,,,,,139,3,2025-02-27_10h26.57.551,comp,2024.2.4,61.2864546879863,2025-02-27 10h27.08.996287 -0500,
89,89,0,critical,hwd,20.0,2.1,upper,200.0,125.0,125.0,200.0,141.0,141.0,2,2.6337761878967285,None,,,,,0,0,0,0,0,89,89,43,648.6760194301605,,,,,,,,,,,,,,,,,,,,,,,,,,,,,,,,,,,,,,,,,,,,,,,,,,,,,,,,,,,,,,,,,,,,,,,,,,,,,,,,,200.0,125.0,125.0,200.0,141.0,141.0,2.1,2.12,-258,-275,0,-283,266,274,648.6610562801361,648.6610963344574,648.6635184288025,648.6760194301605,648.8261544704437,648.8261544704437,648.8261544704437,648.8261544704437,648.8261544704437,648.8261544704437,648.8261544704437,651.3271934986115,2,2.6337761878967285,None,,,,,,,,,,,,,,,,,,139,3,2025-02-27_10h26.57.551,comp,2024.2.4,61.2864546879863,2025-02-27 10h27.08.996287 -0500,
90,90,0,filler_square,None,None,None,None,None,None,None,None,None,None,2,2.269590139389038,None,,,,,0,0,0,0,0,90,90,170,651.3424341678619,,,,,,,,,,,,,,,,,,,,,,,,,,,,,,,,,,,,,,,,,,,,,,,,,,,,,,,,,,,,,,,,,,,,,,,,,,,,,,,,,106.6250811380985,118.43443862256419,137.5043685137765,137.5043685137765,136.34841744920638,71.55177623242959,3.0,3.2,-224,-260,0,12,201,270,651.3281426429749,651.328182220459,651.3305335044861,651.3424341678619,651.4928150177002,651.4928150177002,651.4928150177002,651.4928150177002,651.4928150177002,651.4928150177002,651.4928150177002,653.6270568370819,2,2.269590139389038,None,,,,,,,,,,,,,,,,,,139,3,2025-02-27_10h26.57.551,comp,2024.2.4,61.2864546879863,2025-02-27 10h27.08.996287 -0500,
91,91,0,filler_random,None,None,None,None,None,None,None,None,None,None,2,1.001711130142212,None,,,,,0,0,0,0,0,91,91,164,653.6422803401947,,,,,,,,,,,,,,,,,,,,,,,,,,,,,,,,,,,,,,,,,,,,,,,,,,,,,,,,,,,,,,,,,,,,,,,,,,,,,,,,,69.21750087607502,143.82875404715662,157.77219331309783,192.97441564049018,80.50440355309145,135.4849320584426,3.0,3.2,-264,-284,0,19,260,258,653.6279270648956,653.6279802322388,653.630300283432,653.6422803401947,653.7926523685455,653.7926523685455,653.7926523685455,653.7926523685455,653.7926523685455,653.7926523685455,653.7926523685455,654.6603553295135,2,1.001711130142212,None,,,,,,,,,,,,,,,,,,139,3,2025-02-27_10h26.57.551,comp,2024.2.4,61.2864546879863,2025-02-27 10h27.08.996287 -0500,
92,92,0,filler_square,None,None,None,None,None,None,None,None,None,None,3,1.2561607360839844,None,,,,,0,0,0,0,0,92,92,191,654.6758353710175,,,,,,,,,,,,,,,,,,,,,,,,,,,,,,,,,,,,,,,,,,,,,,,,,,,,,,,,,,,,,,,,,,,,,,,,,,,,,,,,,102.02820339521148,91.57677194459666,96.22230572557146,71.27386071434108,144.64071920383347,144.64071920383347,1.0,1.3,303,-282,480,-270,684,-267,654.6613101959229,654.661349773407,654.6637699604034,654.6758353710175,654.8260552883148,654.8260552883148,654.8260552883148,654.8260552883148,654.8260552883148,654.8260552883148,654.8260552883148,655.944503068924,3,1.2561607360839844,None,,,,,,,,,,,,,,,,,,139,3,2025-02-27_10h26.57.551,comp,2024.2.4,61.2864546879863,2025-02-27 10h27.08.996287 -0500,
93,93,0,critical,dwh,20.0,3.0,upper,141.0,141.0,125.0,200.0,200.0,125.0,2,1.798844575881958,None,,,,,0,0,0,0,0,93,93,69,655.9595136642456,,,,,,,,,,,,,,,,,,,,,,,,,,,,,,,,,,,,,,,,,,,,,,,,,,,,,,,,,,,,,,,,,,,,,,,,,,,,,,,,,141.0,141.0,125.0,200.0,200.0,125.0,3.0,3.1,-266,263,0,-1,258,-271,655.9453203678131,655.9453589916229,655.9472951889038,655.9595136642456,656.1108374595642,656.1108374595642,656.1108374595642,656.1108374595642,656.1108374595642,656.1108374595642,656.1108374595642,657.7605957984924,2,1.798844575881958,None,,,,,,,,,,,,,,,,,,139,3,2025-02-27_10h26.57.551,comp,2024.2.4,61.2864546879863,2025-02-27 10h27.08.996287 -0500,
94,94,0,critical,wdh,20.0,1.0,lower,57.0,133.0,78.0,78.0,133.0,57.0,3,2.2851853370666504,None,,,,,0,0,0,0,0,94,94,78,657.7759003639221,,,,,,,,,,,,,,,,,,,,,,,,,,,,,,,,,,,,,,,,,,,,,,,,,,,,,,,,,,,,,,,,,,,,,,,,,,,,,,,,,57.0,133.0,78.0,78.0,133.0,57.0,1.0,1.1,-682,250,-480,267,-316,255,657.7614390850067,657.761479139328,657.7636568546295,657.7759003639221,657.9260098934174,657.9260098934174,657.9260098934174,657.9260098934174,657.9260098934174,657.9260098934174,657.9260098934174,660.0769865512848,3,2.2851853370666504,None,,,,,,,,,,,,,,,,,,139,3,2025-02-27_10h26.57.551,comp,2024.2.4,61.2864546879863,2025-02-27 10h27.08.996287 -0500,
95,95,0,critical,hwd,35.0,4.0,upper,200.0,125.0,125.0,200.0,127.0,127.0,2,1.760359525680542,None,,,,,0,0,0,0,0,95,95,101,660.0924324989319,,,,,,,,,,,,,,,,,,,,,,,,,,,,,,,,,,,,,,,,,,,,,,,,,,,,,,,,,,,,,,,,,,,,,,,,,,,,,,,,,200.0,125.0,125.0,200.0,127.0,127.0,4.0,4.1,-258,-287,0,11,260,-279,660.0777730941772,660.0778119564056,660.0800840854645,660.0924324989319,660.2426879405975,660.2426879405975,660.2426879405975,660.2426879405975,660.2426879405975,660.2426879405975,660.2426879405975,661.8604874610901,2,1.760359525680542,None,,,,,,,,,,,,,,,,,,139,3,2025-02-27_10h26.57.551,comp,2024.2.4,61.2864546879863,2025-02-27 10h27.08.996287 -0500,
96,96,0,filler_square,None,None,None,None,None,None,None,None,None,None,1,1.8499963283538818,None,,,,,0,0,0,0,0,96,96,173,661.8760108947754,,,,,,,,,,,,,,,,,,,,,,,,,,,,,,,,,,,,,,,,,,,,,,,,,,,,,,,,,,,,,,,,,,,,,,,,,,,,,,,,,132.56909456412285,132.56909456412285,94.07622532427752,110.42406000397582,63.16455447100468,126.6081874804133,1.0,1.1,-697,278,-480,265,-265,274,661.8614313602448,661.8614711761475,661.8638591766357,661.8760108947754,662.0258917808533,662.0258917808533,662.0258917808533,662.0258917808533,662.0258917808533,662.0258917808533,662.0258917808533,663.7272734642029,1,1.8499963283538818,None,,,,,,,,,,,,,,,,,,139,3,2025-02-27_10h26.57.551,comp,2024.2.4,61.2864546879863,2025-02-27 10h27.08.996287 -0500,
97,97,0,critical,wdh,35.0,3.0,lower,57.0,133.0,70.0,70.0,133.0,57.0,3,2.783442735671997,None,,,,,0,0,0,0,0,97,97,74,663.7426147460938,,,,,,,,,,,,,,,,,,,,,,,,,,,,,,,,,,,,,,,,,,,,,,,,,,,,,,,,,,,,,,,,,,,,,,,,,,,,,,,,,57.0,133.0,70.0,70.0,133.0,57.0,3.0,3.2,-198,-265,0,1,160,280,663.7280712127686,663.7281124591827,663.7305011749268,663.7426147460938,663.8925132751465,663.8925132751465,663.8925132751465,663.8925132751465,663.8925132751465,663.8925132751465,663.8925132751465,666.5435469150543,3,2.783442735671997,None,,,,,,,,,,,,,,,,,,139,3,2025-02-27_10h26.57.551,comp,2024.2.4,61.2864546879863,2025-02-27 10h27.08.996287 -0500,
98,98,0,critical,hwd,20.0,3.0,lower,133.0,57.0,57.0,133.0,78.0,78.0,1,3.99931263923645,None,,,,,0,0,0,0,0,98,98,104,666.5590727329254,,,,,,,,,,,,,,,,,,,,,,,,,,,,,,,,,,,,,,,,,,,,,,,,,,,,,,,,,,,,,,,,,,,,,,,,,,,,,,,,,133.0,57.0,57.0,133.0,78.0,78.0,3.0,3.1,-191,275,0,7,202,-273,666.5445675849915,666.5446078777313,666.5474305152893,666.5590727329254,666.7090501785278,666.7090501785278,666.7090501785278,666.7090501785278,666.7090501785278,666.7090501785278,666.7090501785278,670.5603356361389,1,3.99931263923645,None,,,,,,,,,,,,,,,,,,139,3,2025-02-27_10h26.57.551,comp,2024.2.4,61.2864546879863,2025-02-27 10h27.08.996287 -0500,
99,99,0,critical,whd,35.0,4.0,lower,57.0,133.0,133.0,57.0,70.0,70.0,2,1.716714859008789,None,,,,,0,0,0,0,0,99,99,88,670.5759253501892,,,,,,,,,,,,,,,,,,,,,,,,,,,,,,,,,,,,,,,,,,,,,,,,,,,,,,,,,,,,,,,,,,,,,,,,,,,,,,,,,57.0,133.0,133.0,57.0,70.0,70.0,4.0,4.1,-191,-269,0,1,160,-287,670.5611126422882,670.5611505508423,670.5634577274323,670.5759253501892,670.7258064746857,670.7258064746857,670.7258064746857,670.7258064746857,670.7258064746857,670.7258064746857,670.7258064746857,672.3101308345795,2,1.716714859008789,None,,,,,,,,,,,,,,,,,,139,3,2025-02-27_10h26.57.551,comp,2024.2.4,61.2864546879863,2025-02-27 10h27.08.996287 -0500,
100,100,0,critical,dwh,35.0,3.0,upper,127.0,127.0,125.0,200.0,200.0,125.0,3,3.854839324951172,None,,,,,0,0,0,0,0,100,100,63,672.3255939483643,,,,,,,,,,,,,,,,,,,,,,,,,,,,,,,,,,,,,,,,,,,,,,,,,,,,,,,,,,,,,,,,,,,,,,,,,,,,,,,,,127.0,127.0,125.0,200.0,200.0,125.0,3.0,3.1,-260,288,0,-20,258,-258,672.3108856678009,672.3109247684479,672.3131654262543,672.3255939483643,672.476035118103,672.476035118103,672.476035118103,672.476035118103,672.476035118103,672.476035118103,672.476035118103,676.1936638355255,3,3.854839324951172,None,,,,,,,,,,,,,,,,,,139,3,2025-02-27_10h26.57.551,comp,2024.2.4,61.2864546879863,2025-02-27 10h27.08.996287 -0500,
101,101,0,critical,whd,20.0,3.0,lower,57.0,133.0,133.0,57.0,78.0,78.0,2,1.6031064987182617,None,,,,,0,0,0,0,0,101,101,92,676.2089059352875,,,,,,,,,,,,,,,,,,,,,,,,,,,,,,,,,,,,,,,,,,,,,,,,,,,,,,,,,,,,,,,,,,,,,,,,,,,,,,,,,57.0,133.0,133.0,57.0,78.0,78.0,3.0,3.2,-191,-268,0,4,164,271,676.1944561004639,676.1944949626923,676.1969957351685,676.2089059352875,676.3590607643127,676.3590607643127,676.3590607643127,676.3590607643127,676.3590607643127,676.3590607643127,676.3590607643127,677.8268458843231,2,1.6031064987182617,None,,,,,,,,,,,,,,,,,,139,3,2025-02-27_10h26.57.551,comp,2024.2.4,61.2864546879863,2025-02-27 10h27.08.996287 -0500,
102,102,0,filler_square,None,None,None,None,None,None,None,None,None,None,2,1.9535298347473145,None,,,,,0,0,0,0,0,102,102,206,677.842348575592,,,,,,,,,,,,,,,,,,,,,,,,,,,,,,,,,,,,,,,,,,,,,,,,,,,,,,,,,,,,,,,,,,,,,,,,,,,,,,,,,76.38341353865314,82.26018119277816,91.75243657467303,91.75243657467303,80.24021095015785,61.018599192529706,3.0,3.2,-183,-268,0,2,172,253,677.8277654647827,677.8278036117554,677.830411195755,677.842348575592,677.9925272464752,677.9925272464752,677.9925272464752,677.9925272464752,677.9925272464752,677.9925272464752,677.9925272464752,679.8101091384888,2,1.9535298347473145,None,,,,,,,,,,,,,,,,,,139,3,2025-02-27_10h26.57.551,comp,2024.2.4,61.2864546879863,2025-02-27 10h27.08.996287 -0500,
103,103,0,critical,dhw,35.0,1.0,upper,127.0,127.0,200.0,125.0,125.0,200.0,3,1.7330033779144287,None,,,,,0,0,0,0,0,103,103,49,679.8255350589752,,,,,,,,,,,,,,,,,,,,,,,,,,,,,,,,,,,,,,,,,,,,,,,,,,,,,,,,,,,,,,,,,,,,,,,,,,,,,,,,,127.0,127.0,200.0,125.0,125.0,200.0,1.0,1.3,258,-263,480,-258,738,-251,679.8108968734741,679.8109369277954,679.8132622241974,679.8255350589752,679.9758780002594,679.9758780002594,679.9758780002594,679.9758780002594,679.9758780002594,679.9758780002594,679.9758780002594,681.5604679584503,3,1.7330033779144287,None,,,,,,,,,,,,,,,,,,139,3,2025-02-27_10h26.57.551,comp,2024.2.4,61.2864546879863,2025-02-27 10h27.08.996287 -0500,
104,104,0,critical,wdh,20.0,4.0,lower,57.0,133.0,78.0,78.0,133.0,57.0,3,1.9004085063934326,None,,,,,0,0,0,0,0,104,104,82,681.5758075714111,,,,,,,,,,,,,,,,,,,,,,,,,,,,,,,,,,,,,,,,,,,,,,,,,,,,,,,,,,,,,,,,,,,,,,,,,,,,,,,,,57.0,133.0,78.0,78.0,133.0,57.0,4.0,4.1,-202,-267,0,16,164,-284,681.56125664711,681.5612959861755,681.5633850097656,681.5758075714111,681.7257370948792,681.7257370948792,681.7257370948792,681.7257370948792,681.7257370948792,681.7257370948792,681.7257370948792,683.493462562561,3,1.9004085063934326,None,,,,,,,,,,,,,,,,,,139,3,2025-02-27_10h26.57.551,comp,2024.2.4,61.2864546879863,2025-02-27 10h27.08.996287 -0500,
105,105,0,critical,whd,20.0,2.1,upper,125.0,200.0,200.0,125.0,141.0,141.0,2,12.022583246231079,None,,,,,0,0,0,0,0,105,105,15,683.5089273452759,,,,,,,,,,,,,,,,,,,,,,,,,,,,,,,,,,,,,,,,,,,,,,,,,,,,,,,,,,,,,,,,,,,,,,,,,,,,,,,,,125.0,200.0,200.0,125.0,141.0,141.0,2.1,2.12,-258,-276,0,-258,229,273,683.4942741394043,683.4943134784698,683.4967942237854,683.5089273452759,683.6595101356506,683.6595101356506,683.6595101356506,683.6595101356506,683.6595101356506,683.6595101356506,683.6595101356506,695.5438010692596,2,12.022583246231079,None,,,,,,,,,,,,,,,,,,139,3,2025-02-27_10h26.57.551,comp,2024.2.4,61.2864546879863,2025-02-27 10h27.08.996287 -0500,
106,106,0,critical,hwd,35.0,2.1,lower,133.0,57.0,57.0,133.0,70.0,70.0,2,2.4368703365325928,None,,,,,0,0,0,0,0,106,106,40,695.5588583946228,,,,,,,,,,,,,,,,,,,,,,,,,,,,,,,,,,,,,,,,,,,,,,,,,,,,,,,,,,,,,,,,,,,,,,,,,,,,,,,,,133.0,57.0,57.0,133.0,70.0,70.0,2.1,2.11,-191,272,0,252,198,-260,695.5446038246155,695.5446436405182,695.5471465587616,695.5588583946228,695.7089929580688,695.7089929580688,695.7089929580688,695.7089929580688,695.7089929580688,695.7089929580688,695.7089929580688,698.0099115371704,2,2.4368703365325928,None,,,,,,,,,,,,,,,,,,139,3,2025-02-27_10h26.57.551,comp,2024.2.4,61.2864546879863,2025-02-27 10h27.08.996287 -0500,
107,107,0,filler_random,None,None,None,None,None,None,None,None,None,None,2,1.0754988193511963,None,,,,,0,0,0,0,0,107,107,141,698.0254511833191,,,,,,,,,,,,,,,,,,,,,,,,,,,,,,,,,,,,,,,,,,,,,,,,,,,,,,,,,,,,,,,,,,,,,,,,,,,,,,,,,136.64784011202005,116.98348289423168,186.11297817223513,163.9228425737238,106.50908119533622,135.2117842263878,3.0,3.1,-236,281,0,-20,246,-265,698.0108478069305,698.0108871459961,698.0132458209991,698.0254511833191,698.1757593154907,698.1757593154907,698.1757593154907,698.1757593154907,698.1757593154907,698.1757593154907,698.1757593154907,699.1102063655853,2,1.0754988193511963,None,,,,,,,,,,,,,,,,,,139,3,2025-02-27_10h26.57.551,comp,2024.2.4,61.2864546879863,2025-02-27 10h27.08.996287 -0500,
108,108,0,filler_square,None,None,None,None,None,None,None,None,None,None,2,1.342874526977539,None,,,,,0,0,0,0,0,108,108,182,699.1257195472717,,,,,,,,,,,,,,,,,,,,,,,,,,,,,,,,,,,,,,,,,,,,,,,,,,,,,,,,,,,,,,,,,,,,,,,,,,,,,,,,,59.09251577643678,114.44936636066363,173.9123364248199,173.9123364248199,135.5264697466935,163.0978560224499,2.1,2.11,-240,251,0,281,265,-253,699.111165523529,699.1112062931061,699.1132957935333,699.1257195472717,699.2758157253265,699.2758157253265,699.2758157253265,699.2758157253265,699.2758157253265,699.2758157253265,699.2758157253265,700.4768598079681,2,1.342874526977539,None,,,,,,,,,,,,,,,,,,139,3,2025-02-27_10h26.57.551,comp,2024.2.4,61.2864546879863,2025-02-27 10h27.08.996287 -0500,
109,109,0,critical,hdw,20.0,4.0,upper,200.0,125.0,141.0,141.0,125.0,200.0,3,1.833428144454956,None,,,,,0,0,0,0,0,109,109,119,700.4925224781036,,,,,,,,,,,,,,,,,,,,,,,,,,,,,,,,,,,,,,,,,,,,,,,,,,,,,,,,,,,,,,,,,,,,,,,,,,,,,,,,,200.0,125.0,141.0,141.0,125.0,200.0,4.0,4.1,-229,-290,0,3,266,-276,700.4776601791382,700.477700471878,700.47971534729,700.4925224781036,700.6425423622131,700.6425423622131,700.6425423622131,700.6425423622131,700.6425423622131,700.6425423622131,700.6425423622131,702.3271286487579,3,1.833428144454956,None,,,,,,,,,,,,,,,,,,139,3,2025-02-27_10h26.57.551,comp,2024.2.4,61.2864546879863,2025-02-27 10h27.08.996287 -0500,
110,110,0,filler_square,None,None,None,None,None,None,None,None,None,None,1,1.550084114074707,None,,,,,0,0,0,0,0,110,110,184,702.3424589633942,,,,,,,,,,,,,,,,,,,,,,,,,,,,,,,,,,,,,,,,,,,,,,,,,,,,,,,,,,,,,,,,,,,,,,,,,,,,,,,,,159.42143672480927,159.42143672480927,67.79225508981634,127.79623914877932,96.97443141356055,58.74645332885634,2.2,2.22,-240,261,0,-273,189,-277,702.3280744552612,702.3281168937683,702.3301901817322,702.3424589633942,702.4925127029419,702.4925127029419,702.4925127029419,702.4925127029419,702.4925127029419,702.4925127029419,702.4925127029419,703.910064458847,1,1.550084114074707,None,,,,,,,,,,,,,,,,,,139,3,2025-02-27_10h26.57.551,comp,2024.2.4,61.2864546879863,2025-02-27 10h27.08.996287 -0500,
111,111,0,critical,whd,35.0,2.1,lower,57.0,133.0,133.0,57.0,70.0,70.0,2,2.143500804901123,None,,,,,0,0,0,0,0,111,111,36,703.9253096580505,,,,,,,,,,,,,,,,,,,,,,,,,,,,,,,,,,,,,,,,,,,,,,,,,,,,,,,,,,,,,,,,,,,,,,,,,,,,,,,,,57.0,133.0,133.0,57.0,70.0,70.0,2.1,2.11,-191,283,0,268,160,-283,703.9108338356018,703.9108734130859,703.9131557941437,703.9253096580505,704.0754282474518,704.0754282474518,704.0754282474518,704.0754282474518,704.0754282474518,704.0754282474518,704.0754282474518,706.0768265724182,2,2.143500804901123,None,,,,,,,,,,,,,,,,,,139,3,2025-02-27_10h26.57.551,comp,2024.2.4,61.2864546879863,2025-02-27 10h27.08.996287 -0500,
112,112,0,critical,hwd,35.0,2.1,lower,133.0,57.0,57.0,133.0,70.0,70.0,1,2.3351292610168457,None,,,,,0,0,0,0,0,112,112,16,706.0924689769745,,,,,,,,,,,,,,,,,,,,,,,,,,,,,,,,,,,,,,,,,,,,,,,,,,,,,,,,,,,,,,,,,,,,,,,,,,,,,,,,,133.0,57.0,57.0,133.0,70.0,70.0,2.1,2.11,-191,252,0,255,198,-284,706.077645778656,706.0776858329773,706.0797152519226,706.0924689769745,706.2425243854523,706.2425243854523,706.2425243854523,706.2425243854523,706.2425243854523,706.2425243854523,706.2425243854523,708.4432799816132,1,2.3351292610168457,None,,,,,,,,,,,,,,,,,,139,3,2025-02-27_10h26.57.551,comp,2024.2.4,61.2864546879863,2025-02-27 10h27.08.996287 -0500,
113,113,0,filler_square,None,None,None,None,None,None,None,None,None,None,2,1.1531190872192383,None,,,,,0,0,0,0,0,113,113,188,708.4588148593903,,,,,,,,,,,,,,,,,,,,,,,,,,,,,,,,,,,,,,,,,,,,,,,,,,,,,,,,,,,,,,,,,,,,,,,,,,,,,,,,,72.69836517341963,62.44952004483121,125.7045342200307,125.7045342200307,96.21412884167871,93.3047884705042,2.2,2.22,-190,280,0,-278,206,-257,708.4442327022552,708.4442737102509,708.4466850757599,708.4588148593903,708.608959197998,708.608959197998,708.608959197998,708.608959197998,708.608959197998,708.608959197998,708.608959197998,709.6266129016876,2,1.1531190872192383,None,,,,,,,,,,,,,,,,,,139,3,2025-02-27_10h26.57.551,comp,2024.2.4,61.2864546879863,2025-02-27 10h27.08.996287 -0500,
114,114,0,filler_random,None,None,None,None,None,None,None,None,None,None,1,2.0504872798919678,None,,,,,0,0,0,0,0,114,114,149,709.6420745849609,,,,,,,,,,,,,,,,,,,,,,,,,,,,,,,,,,,,,,,,,,,,,,,,,,,,,,,,,,,,,,,,,,,,,,,,,,,,,,,,,155.14344728561815,141.99006271414953,93.27894553140872,185.22577187417062,82.01353447066694,174.2876085547397,2.1,2.12,-260,-276,0,-272,276,268,709.6275215148926,709.6275629997253,709.6295900344849,709.6420745849609,709.7922525405884,709.7922525405884,709.7922525405884,709.7922525405884,709.7922525405884,709.7922525405884,709.7922525405884,711.7101509571075,1,2.0504872798919678,None,,,,,,,,,,,,,,,,,,139,3,2025-02-27_10h26.57.551,comp,2024.2.4,61.2864546879863,2025-02-27 10h27.08.996287 -0500,
115,115,0,critical,wdh,35.0,2.1,upper,125.0,200.0,127.0,127.0,200.0,125.0,1,5.822149753570557,None,,,,,0,0,0,0,0,115,115,9,711.7253341674805,,,,,,,,,,,,,,,,,,,,,,,,,,,,,,,,,,,,,,,,,,,,,,,,,,,,,,,,,,,,,,,,,,,,,,,,,,,,,,,,,125.0,200.0,127.0,127.0,200.0,125.0,2.1,2.12,-260,-257,0,-252,222,278,711.7109162807465,711.7109727859497,711.7133166790009,711.7253341674805,711.8757457733154,711.8757457733154,711.8757457733154,711.8757457733154,711.8757457733154,711.8757457733154,711.8757457733154,717.5601570606232,1,5.822149753570557,None,,,,,,,,,,,,,,,,,,139,3,2025-02-27_10h26.57.551,comp,2024.2.4,61.2864546879863,2025-02-27 10h27.08.996287 -0500,
116,116,0,filler_random,None,None,None,None,None,None,None,None,None,None,2,1.3721907138824463,None,,,,,0,0,0,0,0,116,116,150,717.5753531455994,,,,,,,,,,,,,,,,,,,,,,,,,,,,,,,,,,,,,,,,,,,,,,,,,,,,,,,,,,,,,,,,,,,,,,,,,,,,,,,,,117.73241590969394,74.74083875161165,199.7375649848129,146.36330488452563,78.17142093009275,61.832330247312456,3.0,3.1,-207,278,0,-6,200,-281,717.5610897541046,717.5611300468445,717.5634381771088,717.5753531455994,717.7254796028137,717.7254796028137,717.7254796028137,717.7254796028137,717.7254796028137,717.7254796028137,717.7254796028137,718.9600231647491,2,1.3721907138824463,None,,,,,,,,,,,,,,,,,,139,3,2025-02-27_10h26.57.551,comp,2024.2.4,61.2864546879863,2025-02-27 10h27.08.996287 -0500,
117,117,0,critical,wdh,20.0,2.1,upper,125.0,200.0,141.0,141.0,200.0,125.0,3,2.1387274265289307,None,,,,,0,0,0,0,0,117,117,35,718.9753596782684,,,,,,,,,,,,,,,,,,,,,,,,,,,,,,,,,,,,,,,,,,,,,,,,,,,,,,,,,,,,,,,,,,,,,,,,,,,,,,,,,125.0,200.0,141.0,141.0,200.0,125.0,2.1,2.11,-266,268,0,273,229,-277,718.9607911109924,718.9608294963837,718.9639320373535,718.9753596782684,719.1256768703461,719.1256768703461,719.1256768703461,719.1256768703461,719.1256768703461,719.1256768703461,719.1256768703461,721.1265268325806,3,2.1387274265289307,None,,,,,,,,,,,,,,,,,,139,3,2025-02-27_10h26.57.551,comp,2024.2.4,61.2864546879863,2025-02-27 10h27.08.996287 -0500,
118,118,0,filler_square,None,None,None,None,None,None,None,None,None,None,3,1.7746446132659912,None,,,,,0,0,0,0,0,118,118,198,721.1420602798462,,,,,,,,,,,,,,,,,,,,,,,,,,,,,,,,,,,,,,,,,,,,,,,,,,,,,,,,,,,,,,,,,,,,,,,,,,,,,,,,,72.43425818774779,81.72320411217628,70.30345330741642,63.79741187689425,111.22309819914699,111.22309819914699,3.0,3.1,-169,258,0,-19,184,-254,721.1274902820587,721.1275312900543,721.129979133606,721.1420602798462,721.292032957077,721.292032957077,721.292032957077,721.292032957077,721.292032957077,721.292032957077,721.292032957077,722.9265792369843,3,1.7746446132659912,None,,,,,,,,,,,,,,,,,,139,3,2025-02-27_10h26.57.551,comp,2024.2.4,61.2864546879863,2025-02-27 10h27.08.996287 -0500,
119,119,0,filler_square,None,None,None,None,None,None,None,None,None,None,3,1.142143726348877,None,,,,,0,0,0,0,0,119,119,180,722.9423274993896,,,,,,,,,,,,,,,,,,,,,,,,,,,,,,,,,,,,,,,,,,,,,,,,,,,,,,,,,,,,,,,,,,,,,,,,,,,,,,,,,81.4608031198872,60.381736537561586,103.55843539532576,88.7484582070462,121.24827412153994,121.24827412153994,2.2,2.21,-171,-270,0,277,201,276,722.9275598526001,722.9275996685028,722.9300050735474,722.9423274993896,723.0920498371124,723.0920498371124,723.0920498371124,723.0920498371124,723.0920498371124,723.0920498371124,723.0920498371124,724.0931758880615,3,1.142143726348877,None,,,,,,,,,,,,,,,,,,139,3,2025-02-27_10h26.57.551,comp,2024.2.4,61.2864546879863,2025-02-27 10h27.08.996287 -0500,
120,120,0,filler_random,None,None,None,None,None,None,None,None,None,None,2,1.8330285549163818,None,,,,,0,0,0,0,0,120,120,138,724.1091706752777,,,,,,,,,,,,,,,,,,,,,,,,,,,,,,,,,,,,,,,,,,,,,,,,,,,,,,,,,,,,,,,,,,,,,,,,,,,,,,,,,145.17855256358757,85.30230465166981,181.38251518335926,109.76437249265936,65.76629636676456,88.95945217624904,1.0,1.2,-194,-3,0,-1,195,-2,724.0941014289856,724.0941421985626,724.096227645874,724.1091706752777,724.2587578296661,724.2587578296661,724.2587578296661,724.2587578296661,724.2587578296661,724.2587578296661,724.2587578296661,725.9434742927551,2,1.8330285549163818,None,,,,,,,,,,,,,,,,,,139,3,2025-02-27_10h26.57.551,comp,2024.2.4,61.2864546879863,2025-02-27 10h27.08.996287 -0500,
121,121,0,filler_square,None,None,None,None,None,None,None,None,None,None,3,0.9988577365875244,None,,,,,0,0,0,0,0,121,121,179,725.9588305950165,,,,,,,,,,,,,,,,,,,,,,,,,,,,,,,,,,,,,,,,,,,,,,,,,,,,,,,,,,,,,,,,,,,,,,,,,,,,,,,,,146.55929357143657,70.81183184958867,141.61372753666632,98.25206065643177,162.58628523576198,162.58628523576198,4.0,4.2,-181,-9,0,-258,226,-6,725.9444530010223,725.9444944858551,725.9471037387848,725.9588305950165,726.1091668605804,726.1091668605804,726.1091668605804,726.1091668605804,726.1091668605804,726.1091668605804,726.1091668605804,726.9606094360352,3,0.9988577365875244,None,,,,,,,,,,,,,,,,,,139,3,2025-02-27_10h26.57.551,comp,2024.2.4,61.2864546879863,2025-02-27 10h27.08.996287 -0500,
122,122,0,filler_square,None,None,None,None,None,None,None,None,None,None,1,1.2674996852874756,None,,,,,0,0,0,0,0,122,122,181,726.976012468338,,,,,,,,,,,,,,,,,,,,,,,,,,,,,,,,,,,,,,,,,,,,,,,,,,,,,,,,,,,,,,,,,,,,,,,,,,,,,,,,,162.1993256745816,162.1993256745816,159.89116846064047,106.07910744755935,94.94043316528601,125.64720907387849,3.0,3.1,-230,260,0,-13,212,-284,726.9615399837494,726.9615790843964,726.9634473323822,726.976012468338,727.1260118484497,727.1260118484497,727.1260118484497,727.1260118484497,727.1260118484497,727.1260118484497,727.1260118484497,728.2598264217377,1,1.2674996852874756,None,,,,,,,,,,,,,,,,,,139,3,2025-02-27_10h26.57.551,comp,2024.2.4,61.2864546879863,2025-02-27 10h27.08.996287 -0500,
123,123,0,filler_square,None,None,None,None,None,None,None,None,None,None,2,1.8170673847198486,None,,,,,0,0,0,0,0,123,123,190,728.2752945423126,,,,,,,,,,,,,,,,,,,,,,,,,,,,,,,,,,,,,,,,,,,,,,,,,,,,,,,,,,,,,,,,,,,,,,,,,,,,,,,,,128.62518839954106,60.56685279348378,161.2333723065284,161.2333723065284,95.37008955424936,99.24629007923348,2.2,2.22,-207,269,0,-262,226,-255,728.2609000205994,728.2609417438507,728.2635459899902,728.2752945423126,728.4254686832428,728.4254686832428,728.4254686832428,728.4254686832428,728.4254686832428,728.4254686832428,728.4254686832428,730.1098246574402,2,1.8170673847198486,None,,,,,,,,,,,,,,,,,,139,3,2025-02-27_10h26.57.551,comp,2024.2.4,61.2864546879863,2025-02-27 10h27.08.996287 -0500,
124,124,0,critical,hdw,35.0,1.0,lower,133.0,57.0,70.0,70.0,57.0,133.0,1,3.838263988494873,None,,,,,0,0,0,0,0,124,124,108,730.1252083778381,,,,,,,,,,,,,,,,,,,,,,,,,,,,,,,,,,,,,,,,,,,,,,,,,,,,,,,,,,,,,,,,,,,,,,,,,,,,,,,,,133.0,57.0,70.0,70.0,57.0,133.0,1.0,1.3,320,-257,480,-283,678,-264,730.1106560230255,730.1106953620911,730.1132674217224,730.1252083778381,730.2753772735596,730.2753772735596,730.2753772735596,730.2753772735596,730.2753772735596,730.2753772735596,730.2753772735596,733.9765858650208,1,3.838263988494873,None,,,,,,,,,,,,,,,,,,139,3,2025-02-27_10h26.57.551,comp,2024.2.4,61.2864546879863,2025-02-27 10h27.08.996287 -0500,
125,125,0,critical,whd,35.0,3.0,lower,57.0,133.0,133.0,57.0,70.0,70.0,2,1.860548496246338,None,,,,,0,0,0,0,0,125,125,86,733.991898059845,,,,,,,,,,,,,,,,,,,,,,,,,,,,,,,,,,,,,,,,,,,,,,,,,,,,,,,,,,,,,,,,,,,,,,,,,,,,,,,,,57.0,133.0,133.0,57.0,70.0,70.0,3.0,3.1,-191,253,0,1,160,-258,733.9774367809296,733.977477312088,733.9799938201904,733.991898059845,734.1420078277588,734.1420078277588,734.1420078277588,734.1420078277588,734.1420078277588,734.1420078277588,734.1420078277588,735.8598124980927,2,1.860548496246338,None,,,,,,,,,,,,,,,,,,139,3,2025-02-27_10h26.57.551,comp,2024.2.4,61.2864546879863,2025-02-27 10h27.08.996287 -0500,
126,126,0,filler_random,None,None,None,None,None,None,None,None,None,None,3,1.041198968887329,None,,,,,0,0,0,0,0,126,126,168,735.8755083084106,,,,,,,,,,,,,,,,,,,,,,,,,,,,,,,,,,,,,,,,,,,,,,,,,,,,,,,,,,,,,,,,,,,,,,,,,,,,,,,,,124.22299489214015,85.09826117068393,104.40329417214998,121.44173990991773,193.04810459805262,196.05565954642904,3.0,3.1,-199,250,0,-6,255,-270,735.8607819080353,735.8608241081238,735.8636405467987,735.8755083084106,736.0254580974579,736.0254580974579,736.0254580974579,736.0254580974579,736.0254580974579,736.0254580974579,736.0254580974579,736.9267344474792,3,1.041198968887329,None,,,,,,,,,,,,,,,,,,139,3,2025-02-27_10h26.57.551,comp,2024.2.4,61.2864546879863,2025-02-27 10h27.08.996287 -0500,
127,127,0,filler_random,None,None,None,None,None,None,None,None,None,None,1,1.1171786785125732,None,,,,,0,0,0,0,0,127,127,154,736.9422163963318,,,,,,,,,,,,,,,,,,,,,,,,,,,,,,,,,,,,,,,,,,,,,,,,,,,,,,,,,,,,,,,,,,,,,,,,,,,,,,,,,160.07984583294606,146.8106839813836,59.585712895929014,139.55516653556344,158.96617351518364,99.45153941308769,2.1,2.11,-239,271,0,269,216,-283,736.9276394844055,736.9276809692383,736.9301133155823,736.9422163963318,737.0922291278839,737.0922291278839,737.0922291278839,737.0922291278839,737.0922291278839,737.0922291278839,737.0922291278839,738.0764737129211,1,1.1171786785125732,None,,,,,,,,,,,,,,,,,,139,3,2025-02-27_10h26.57.551,comp,2024.2.4,61.2864546879863,2025-02-27 10h27.08.996287 -0500,
128,128,0,critical,dhw,20.0,2.1,lower,78.0,78.0,133.0,57.0,57.0,133.0,2,1.8554472923278809,None,,,,,0,0,0,0,0,128,128,26,738.0918164253235,,,,,,,,,,,,,,,,,,,,,,,,,,,,,,,,,,,,,,,,,,,,,,,,,,,,,,,,,,,,,,,,,,,,,,,,,,,,,,,,,78.0,78.0,133.0,57.0,57.0,133.0,2.1,2.12,-164,-262,0,-279,191,280,738.0773015022278,738.0773441791534,738.0799071788788,738.0918164253235,738.2418684959412,738.2418684959412,738.2418684959412,738.2418684959412,738.2418684959412,738.2418684959412,738.2418684959412,739.9598126411438,2,1.8554472923278809,None,,,,,,,,,,,,,,,,,,139,3,2025-02-27_10h26.57.551,comp,2024.2.4,61.2864546879863,2025-02-27 10h27.08.996287 -0500,
129,129,0,critical,wdh,35.0,1.0,lower,57.0,133.0,70.0,70.0,133.0,57.0,3,1.2202026844024658,None,,,,,0,0,0,0,0,129,129,72,739.9752180576324,,,,,,,,,,,,,,,,,,,,,,,,,,,,,,,,,,,,,,,,,,,,,,,,,,,,,,,,,,,,,,,,,,,,,,,,,,,,,,,,,57.0,133.0,70.0,70.0,133.0,57.0,1.0,1.2,-198,-17,0,9,160,12,739.9606158733368,739.9606547355652,739.9633445739746,739.9752180576324,740.1252417564392,740.1252417564392,740.1252417564392,740.1252417564392,740.1252417564392,740.1252417564392,740.1252417564392,741.2097461223602,3,1.2202026844024658,None,,,,,,,,,,,,,,,,,,139,3,2025-02-27_10h26.57.551,comp,2024.2.4,61.2864546879863,2025-02-27 10h27.08.996287 -0500,
130,130,0,filler_random,None,None,None,None,None,None,None,None,None,None,2,0.9635977745056152,None,,,,,0,0,0,0,0,130,130,153,741.225225687027,,,,,,,,,,,,,,,,,,,,,,,,,,,,,,,,,,,,,,,,,,,,,,,,,,,,,,,,,,,,,,,,,,,,,,,,,,,,,,,,,63.38797747561374,118.22728648978135,173.4371493430827,158.55539626208886,89.68801477394265,148.26875298345203,2.1,2.11,-234,283,0,268,249,-253,741.210648059845,741.2106890678406,741.2132549285889,741.225225687027,741.3757922649384,741.3757922649384,741.3757922649384,741.3757922649384,741.3757922649384,741.3757922649384,741.3757922649384,742.1933093070984,2,0.9635977745056152,None,,,,,,,,,,,,,,,,,,139,3,2025-02-27_10h26.57.551,comp,2024.2.4,61.2864546879863,2025-02-27 10h27.08.996287 -0500,
131,131,0,critical,hwd,20.0,2.1,upper,200.0,125.0,125.0,200.0,141.0,141.0,2,6.96489691734314,None,,,,,0,0,0,0,0,131,131,19,742.2087290287018,,,,,,,,,,,,,,,,,,,,,,,,,,,,,,,,,,,,,,,,,,,,,,,,,,,,,,,,,,,,,,,,,,,,,,,,,,,,,,,,,200.0,125.0,125.0,200.0,141.0,141.0,2.1,2.12,-258,-254,0,-278,266,289,742.1941301822662,742.1941692829132,742.1962671279907,742.2087290287018,742.3588545322418,742.3588545322418,742.3588545322418,742.3588545322418,742.3588545322418,742.3588545322418,742.3588545322418,749.1768095493317,2,6.96489691734314,None,,,,,,,,,,,,,,,,,,139,3,2025-02-27_10h26.57.551,comp,2024.2.4,61.2864546879863,2025-02-27 10h27.08.996287 -0500,
132,132,0,filler_random,None,None,None,None,None,None,None,None,None,None,1,1.5001773834228516,None,,,,,0,0,0,0,0,132,132,161,749.1920599937439,,,,,,,,,,,,,,,,,,,,,,,,,,,,,,,,,,,,,,,,,,,,,,,,,,,,,,,,,,,,,,,,,,,,,,,,,,,,,,,,,175.19020483788307,161.18570894115535,115.91044151859457,132.37101343520538,82.56835243895347,152.3715266369013,4.0,4.2,-243,-13,0,-282,238,11,749.1776814460754,749.177720785141,749.1797392368317,749.1920599937439,749.3420991897583,749.3420991897583,749.3420991897583,749.3420991897583,749.3420991897583,749.3420991897583,749.3420991897583,750.7096807956696,1,1.5001773834228516,None,,,,,,,,,,,,,,,,,,139,3,2025-02-27_10h26.57.551,comp,2024.2.4,61.2864546879863,2025-02-27 10h27.08.996287 -0500,
133,133,0,critical,hwd,35.0,1.0,upper,200.0,125.0,125.0,200.0,127.0,127.0,2,1.4382908344268799,None,,,,,0,0,0,0,0,133,133,97,750.7250382900238,,,,,,,,,,,,,,,,,,,,,,,,,,,,,,,,,,,,,,,,,,,,,,,,,,,,,,,,,,,,,,,,,,,,,,,,,,,,,,,,,200.0,125.0,125.0,200.0,127.0,127.0,1.0,1.2,-258,3,0,8,260,0,750.7104938030243,750.7105333805084,750.7131044864655,750.7250382900238,750.8754050731659,750.8754050731659,750.8754050731659,750.8754050731659,750.8754050731659,750.8754050731659,750.8754050731659,752.176632642746,2,1.4382908344268799,None,,,,,,,,,,,,,,,,,,139,3,2025-02-27_10h26.57.551,comp,2024.2.4,61.2864546879863,2025-02-27 10h27.08.996287 -0500,
134,134,0,critical,wdh,35.0,2.1,lower,57.0,133.0,70.0,70.0,133.0,57.0,3,1.7716639041900635,None,,,,,0,0,0,0,0,134,134,8,752.1916847229004,,,,,,,,,,,,,,,,,,,,,,,,,,,,,,,,,,,,,,,,,,,,,,,,,,,,,,,,,,,,,,,,,,,,,,,,,,,,,,,,,57.0,133.0,70.0,70.0,133.0,57.0,2.1,2.11,-198,285,0,263,160,-256,752.1774225234985,752.1774618625641,752.1798903942108,752.1916847229004,752.3418545722961,752.3418545722961,752.3418545722961,752.3418545722961,752.3418545722961,752.3418545722961,752.3418545722961,753.9762942790985,3,1.7716639041900635,None,,,,,,,,,,,,,,,,,,139,3,2025-02-27_10h26.57.551,comp,2024.2.4,61.2864546879863,2025-02-27 10h27.08.996287 -0500,
135,135,0,critical,hwd,20.0,1.0,upper,200.0,125.0,125.0,200.0,141.0,141.0,2,13.788111686706543,None,,,,,0,0,0,0,0,135,135,103,753.9917254447937,,,,,,,,,,,,,,,,,,,,,,,,,,,,,,,,,,,,,,,,,,,,,,,,,,,,,,,,,,,,,,,,,,,,,,,,,,,,,,,,,200.0,125.0,125.0,200.0,141.0,141.0,1.0,1.2,-258,11,0,10,266,-12,753.9770605564117,753.9771008491516,753.9794864654541,753.9917254447937,754.1423511505127,754.1423511505127,754.1423511505127,754.1423511505127,754.1423511505127,754.1423511505127,754.1423511505127,767.7931447029114,2,13.788111686706543,None,,,,,,,,,,,,,,,,,,139,3,2025-02-27_10h26.57.551,comp,2024.2.4,61.2864546879863,2025-02-27 10h27.08.996287 -0500,
136,136,0,critical,hwd,20.0,1.0,lower,133.0,57.0,57.0,133.0,78.0,78.0,1,2.676023006439209,None,,,,,0,0,0,0,0,136,136,102,767.8083634376526,,,,,,,,,,,,,,,,,,,,,,,,,,,,,,,,,,,,,,,,,,,,,,,,,,,,,,,,,,,,,,,,,,,,,,,,,,,,,,,,,133.0,57.0,57.0,133.0,78.0,78.0,1.0,1.3,289,-278,480,-264,682,-270,767.7939386367798,767.7939915657043,767.7971348762512,767.8083634376526,767.9584140777588,767.9584140777588,767.9584140777588,767.9584140777588,767.9584140777588,767.9584140777588,767.9584140777588,770.4928312301636,1,2.676023006439209,None,,,,,,,,,,,,,,,,,,139,3,2025-02-27_10h26.57.551,comp,2024.2.4,61.2864546879863,2025-02-27 10h27.08.996287 -0500,
137,137,0,filler_random,None,None,None,None,None,None,None,None,None,None,2,1.8649489879608154,None,,,,,0,0,0,0,0,137,137,142,770.5086007118225,,,,,,,,,,,,,,,,,,,,,,,,,,,,,,,,,,,,,,,,,,,,,,,,,,,,,,,,,,,,,,,,,,,,,,,,,,,,,,,,,137.4661254617115,152.5849923112831,154.00265005337906,149.6305080778028,82.6105866408771,113.44373137657746,2.1,2.12,-247,-278,0,-278,228,289,770.4937689304352,770.4938089847565,770.496458530426,770.5086007118225,770.6585795879364,770.6585795879364,770.6585795879364,770.6585795879364,770.6585795879364,770.6585795879364,770.6585795879364,772.3765561580658,2,1.8649489879608154,None,,,,,,,,,,,,,,,,,,139,3,2025-02-27_10h26.57.551,comp,2024.2.4,61.2864546879863,2025-02-27 10h27.08.996287 -0500,
138,138,0,critical,dhw,20.0,1.0,upper,141.0,141.0,200.0,125.0,125.0,200.0,3,1.6438913345336914,None,,,,,0,0,0,0,0,138,138,55,772.3919394016266,,,,,,,,,,,,,,,,,,,,,,,,,,,,,,,,,,,,,,,,,,,,,,,,,,,,,,,,,,,,,,,,,,,,,,,,,,,,,,,,,141.0,141.0,200.0,125.0,125.0,200.0,1.0,1.3,251,-257,480,-273,738,-277,772.3773415088654,772.3773808479309,772.3794739246368,772.3919394016266,772.5420110225677,772.5420110225677,772.5420110225677,772.5420110225677,772.5420110225677,772.5420110225677,772.5420110225677,774.0429728031158,3,1.6438913345336914,None,,,,,,,,,,,,,,,,,,139,3,2025-02-27_10h26.57.551,comp,2024.2.4,61.2864546879863,2025-02-27 10h27.08.996287 -0500,
139,139,0,critical,wdh,20.0,2.1,upper,125.0,200.0,141.0,141.0,200.0,125.0,3,2.7774946689605713,None,,,,,0,0,0,0,0,139,139,11,774.0585298538208,,,,,,,,,,,,,,,,,,,,,,,,,,,,,,,,,,,,,,,,,,,,,,,,,,,,,,,,,,,,,,,,,,,,,,,,,,,,,,,,,125.0,200.0,141.0,141.0,200.0,125.0,2.1,2.11,-266,269,0,253,229,-264,774.0438632965088,774.0439033508301,774.0460891723633,774.0585298538208,774.2086498737335,774.2086498737335,774.2086498737335,774.2086498737335,774.2086498737335,774.2086498737335,774.2086498737335,776.8429727554321,3,2.7774946689605713,None,,,,,,,,,,,,,,,,,,139,3,2025-02-27_10h26.57.551,comp,2024.2.4,61.2864546879863,2025-02-27 10h27.08.996287 -0500,
140,140,0,critical,wdh,35.0,3.0,upper,125.0,200.0,127.0,127.0,200.0,125.0,3,1.1045198440551758,None,,,,,0,0,0,0,0,140,140,75,776.8585453033447,,,,,,,,,,,,,,,,,,,,,,,,,,,,,,,,,,,,,,,,,,,,,,,,,,,,,,,,,,,,,,,,,,,,,,,,,,,,,,,,,125.0,200.0,127.0,127.0,200.0,125.0,3.0,3.1,-260,266,0,-4,222,-272,776.8437314033508,776.8437712192535,776.8458907604218,776.8585453033447,777.0085654258728,777.0085654258728,777.0085654258728,777.0085654258728,777.0085654258728,777.0085654258728,777.0085654258728,777.976202249527,3,1.1045198440551758,None,,,,,,,,,,,,,,,,,,139,3,2025-02-27_10h26.57.551,comp,2024.2.4,61.2864546879863,2025-02-27 10h27.08.996287 -0500,
