thisN,thisTrialN,thisRepN,effect,order,distance,config,diag,h_1,w_1,h_2,w_2,h_3,w_3,rect_choice.keys,rect_choice.rt,rect_choice.duration,instructions_loop.thisRepN,instructions_loop.thisTrialN,instructions_loop.thisN,instructions_loop.thisIndex,blocks.thisRepN,blocks.thisTrialN,blocks.thisN,blocks.thisIndex,trials.thisRepN,trials.thisTrialN,trials.thisN,trials.thisIndex,thisRow.t,notes,consent.started,agree_button.started,decline_button.started,consent_img.started,mouse.started,consent.stopped,agree_button.numClicks,agree_button.timesOn,agree_button.timesOff,decline_button.numClicks,decline_button.timesOn,decline_button.timesOff,mouse.x,mouse.y,mouse.leftButton,mouse.midButton,mouse.rightButton,mouse.time,mouse.clicked_name,exp_params.started,exp_params.stopped,welcome.started,welcome_text.started,welcome.stopped,instructions_1.started,instructions_1_text_1.started,instructions_1_text_2.started,key_resp.started,instructions_1.stopped,instructions_loop.key_resp.keys,instructions_loop.key_resp.rt,instructions_loop.key_resp.duration,instructions_2.started,instructions_2_text_1.started,instructions_2_text_2.started,key_resp_2.started,instructions_2.stopped,instructions_loop.key_resp_2.keys,instructions_loop.key_resp_2.rt,instructions_loop.key_resp_2.duration,instructions_3.started,instructions_3_text_1.started,r1_instr3.started,r2_instr3.started,r3_instr3.started,r1_instr3_label.started,r2_instr3_label.started,r3_instr3_label.started,instructions_3_text_3.started,instructions_3_text_4.started,key_resp_3.started,instructions_3.stopped,instructions_loop.key_resp_3.keys,instructions_loop.key_resp_3.rt,instructions_loop.key_resp_3.duration,instructions_4.started,instructions_4_text_1.started,instructions_4_text_3.started,instructions_4_text_2.started,key_resp_4.started,instructions_4.stopped,instructions_loop.key_resp_4.keys,instructions_loop.key_resp_4.rt,instructions_loop.key_resp_4.duration,instructions_5.started,instructions_5_text_1.started,instructions_5_text_2.started,key_resp_5.started,instructions_5.stopped,instructions_loop.key_resp_5.keys,instructions_loop.key_resp_5.rt,instructions_loop.key_resp_5.duration,start_exp.started,start_exp_text.started,key_resp_6.started,start_exp.stopped,key_resp_6.keys,key_resp_6.rt,key_resp_6.duration,h_1_tmp,w_1_tmp,h_2_tmp,w_2_tmp,h_3_tmp,w_3_tmp,config_tmp,config_tmp_1,r_1_x,r_1_y,r_2_x,r_2_y,r_3_x,r_3_y,pre_trial.started,pre_trial.stopped,choice_trial.started,rect_choice.started,r_1.started,r_2.started,r_3.started,r_1_label.started,r_2_label.started,r_3_label.started,prompt.started,choice_trial.stopped,trials.rect_choice.keys,trials.rect_choice.rt,trials.rect_choice.duration,end_block.started,end_block_text.started,end_block.stopped,end.started,end_text.started,key_resp_7.started,end.stopped,key_resp_7.keys,key_resp_7.rt,key_resp_7.duration,debriefing.started,debrief_form.started,end_debrief.started,debriefing.stopped,end_debrief.keys,end_debrief.rt,end_debrief.duration,participant,computer,date,expName,psychopyVersion,frameRate,expStart,
,,,,,,,,,,,,,,,,,,,,,,,,,,,,,,,0.01472926139831543,0.03787064552307129,0.03787064552307129,0.03787064552307129,0.014521121978759766,17.525034427642822,1,[17.484556674957275],[17.48457932472229],0,,,[-62.0],[-501.0],[1],[0],[0],[17.50985050201416],['agree_button'],,,,,,,,,,,,,,,,,,,,,,,,,,,,,,,,,,,,,,,,,,,,,,,,,,,,,,,,,,,,,,,,,,,,,,,,,,,,,,,,,,,,,,,,,,,,,,,,,,,,,,,,,,,13,2,2025-02-18_14h03.44.902,comp,2024.2.4,55.66694626418781,2025-02-18 14h03.56.777068 -0500,
,,,,,,,,,,,,,,,,,,,,,,,,,,,,,,,,,,,,,,,,,,,,,,,,,,17.52553677558899,17.525604248046875,,,,,,,,,,,,,,,,,,,,,,,,,,,,,,,,,,,,,,,,,,,,,,,,,,,,,,,,,,,,,,,,,,,,,,,,,,,,,,,,,,,,,,,,,,,,,,,,,,,,,,,,,13,2,2025-02-18_14h03.44.902,comp,2024.2.4,55.66694626418781,2025-02-18 14h03.56.777068 -0500,
,,,,,,,,,,,,,,,,,,,,,,,,,,,,,,,,,,,,,,,,,,,,,,,,,,,,17.525648832321167,17.54316473007202,19.52582311630249,,,,,,,,,,,,,,,,,,,,,,,,,,,,,,,,,,,,,,,,,,,,,,,,,,,,,,,,,,,,,,,,,,,,,,,,,,,,,,,,,,,,,,,,,,,,,,,,,,,,,,13,2,2025-02-18_14h03.44.902,comp,2024.2.4,55.66694626418781,2025-02-18 14h03.56.777068 -0500,
0,0,0,,,,,,,,,,,,,,,0,0,0,0,,,,,,,,,19.54259967803955,,,,,,,,,,,,,,,,,,,,,,,,,,19.526758909225464,19.54259967803955,19.54259967803955,21.03412890434265,31.534413814544678,space,10.491588354110718,None,31.53455877304077,31.5498366355896,31.5498366355896,33.05148506164551,42.036731004714966,space,8.969570636749268,None,42.036903858184814,42.064292669296265,42.064292669296265,42.064292669296265,42.064292669296265,42.064292669296265,42.064292669296265,42.064292669296265,42.064292669296265,42.064292669296265,43.534265756607056,50.34141683578491,space,6.790725231170654,None,50.34158134460449,50.36250925064087,50.36250925064087,50.36250925064087,51.86010766029358,59.79255819320679,space,7.922125577926636,None,59.79271197319031,59.80799913406372,59.80799913406372,61.30630588531494,64.95966506004333,space,3.6350274085998535,None,64.9599220752716,64.97873020172119,64.97873020172119,66.52760434150696,space,1.5462000370025635,None,,,,,,,,,,,,,,,,,,,,,,,,,,,,,,,,,,,,,,,,,,,,,,,13,2,2025-02-18_14h03.44.902,comp,2024.2.4,55.66694626418781,2025-02-18 14h03.56.777068 -0500,
0,0,0,filler_square,None,None,None,None,None,None,None,None,None,None,3,28.210142612457275,None,,,,,0,0,0,0,0,0,0,190,66.60295057296753,,,,,,,,,,,,,,,,,,,,,,,,,,,,,,,,,,,,,,,,,,,,,,,,,,,,,,,,,,,,,,,,,,,,,,,,,,,,,,,,,122.804445932211,76.39698138967866,149.6714610638059,60.6318773022515,155.71964690241447,155.71964690241447,1.0,1.1,-645,281,-480,289,-276,251,66.5867211818695,66.58676815032959,66.5879762172699,66.60295057296753,66.75173282623291,66.75173282623291,66.75173282623291,66.75173282623291,66.75173282623291,66.75173282623291,66.75173282623291,94.82336044311523,3,28.210142612457275,None,,,,,,,,,,,,,,,,,,13,2,2025-02-18_14h03.44.902,comp,2024.2.4,55.66694626418781,2025-02-18 14h03.56.777068 -0500,
1,1,0,critical,hwd,35.0,3.0,lower,133.0,57.0,57.0,133.0,70.0,70.0,2,13.877949476242065,None,,,,,0,0,0,0,0,1,1,98,94.83912444114685,,,,,,,,,,,,,,,,,,,,,,,,,,,,,,,,,,,,,,,,,,,,,,,,,,,,,,,,,,,,,,,,,,,,,,,,,,,,,,,,,133.0,57.0,57.0,133.0,70.0,70.0,3.0,3.1,-191,278,0,4,198,-275,94.82510924339294,94.82521414756775,94.82804131507874,94.83912444114685,94.98848295211792,94.98848295211792,94.98848295211792,94.98848295211792,94.98848295211792,94.98848295211792,94.98848295211792,108.73117089271545,2,13.877949476242065,None,,,,,,,,,,,,,,,,,,13,2,2025-02-18_14h03.44.902,comp,2024.2.4,55.66694626418781,2025-02-18 14h03.56.777068 -0500,
2,2,0,filler_random,None,None,None,None,None,None,None,None,None,None,2,2.427213430404663,None,,,,,0,0,0,0,0,2,2,160,108.74665069580078,,,,,,,,,,,,,,,,,,,,,,,,,,,,,,,,,,,,,,,,,,,,,,,,,,,,,,,,,,,,,,,,,,,,,,,,,,,,,,,,,114.68516756256766,125.61125053885756,114.58538066345199,155.47540789685905,128.58200785592825,112.20243146957483,4.0,4.2,-237,14,0,-276,230,15,108.73291635513306,108.73299598693848,108.73584389686584,108.74665069580078,108.8928472995758,108.8928472995758,108.8928472995758,108.8928472995758,108.8928472995758,108.8928472995758,108.8928472995758,111.17771315574646,2,2.427213430404663,None,,,,,,,,,,,,,,,,,,13,2,2025-02-18_14h03.44.902,comp,2024.2.4,55.66694626418781,2025-02-18 14h03.56.777068 -0500,
3,3,0,critical,wdh,35.0,2.1,upper,125.0,200.0,127.0,127.0,200.0,125.0,1,8.395206689834595,None,,,,,0,0,0,0,0,3,3,33,111.19472670555115,,,,,,,,,,,,,,,,,,,,,,,,,,,,,,,,,,,,,,,,,,,,,,,,,,,,,,,,,,,,,,,,,,,,,,,,,,,,,,,,,125.0,200.0,127.0,127.0,200.0,125.0,2.1,2.12,-260,-275,0,-254,222,275,111.17962980270386,111.17978096008301,111.18302035331726,111.19472670555115,111.34151983261108,111.34151983261108,111.34151983261108,111.34151983261108,111.34151983261108,111.34151983261108,111.34151983261108,119.59495091438293,1,8.395206689834595,None,,,,,,,,,,,,,,,,,,13,2,2025-02-18_14h03.44.902,comp,2024.2.4,55.66694626418781,2025-02-18 14h03.56.777068 -0500,
4,4,0,critical,hwd,35.0,4.0,lower,133.0,57.0,57.0,133.0,70.0,70.0,1,7.074781894683838,None,,,,,0,0,0,0,0,4,4,100,119.61101841926575,,,,,,,,,,,,,,,,,,,,,,,,,,,,,,,,,,,,,,,,,,,,,,,,,,,,,,,,,,,,,,,,,,,,,,,,,,,,,,,,,133.0,57.0,57.0,133.0,70.0,70.0,4.0,4.1,-191,-258,0,19,198,-260,119.59660410881042,119.59668731689453,119.60013198852539,119.61101841926575,119.76130819320679,119.76130819320679,119.76130819320679,119.76130819320679,119.76130819320679,119.76130819320679,119.76130819320679,126.6905369758606,1,7.074781894683838,None,,,,,,,,,,,,,,,,,,13,2,2025-02-18_14h03.44.902,comp,2024.2.4,55.66694626418781,2025-02-18 14h03.56.777068 -0500,
5,5,0,filler_square,None,None,None,None,None,None,None,None,None,None,1,8.449294805526733,None,,,,,0,0,0,0,0,5,5,195,126.70781373977661,,,,,,,,,,,,,,,,,,,,,,,,,,,,,,,,,,,,,,,,,,,,,,,,,,,,,,,,,,,,,,,,,,,,,,,,,,,,,,,,,70.85055011566513,70.85055011566513,67.28106649580968,67.7522786369978,70.46110888074946,60.16912335068635,2.1,2.11,-165,268,0,276,160,-255,126.69262456893921,126.69270539283752,126.69598484039307,126.70781373977661,126.84934091567993,126.84934091567993,126.84934091567993,126.84934091567993,126.84934091567993,126.84934091567993,126.84934091567993,135.16695427894592,1,8.449294805526733,None,,,,,,,,,,,,,,,,,,13,2,2025-02-18_14h03.44.902,comp,2024.2.4,55.66694626418781,2025-02-18 14h03.56.777068 -0500,
6,6,0,critical,wdh,20.0,2.1,lower,57.0,133.0,78.0,78.0,133.0,57.0,1,9.981501340866089,None,,,,,0,0,0,0,0,6,6,34,135.18370175361633,,,,,,,,,,,,,,,,,,,,,,,,,,,,,,,,,,,,,,,,,,,,,,,,,,,,,,,,,,,,,,,,,,,,,,,,,,,,,,,,,57.0,133.0,78.0,78.0,133.0,57.0,2.1,2.12,-202,-282,0,-275,164,253,135.1684718132019,135.16855382919312,135.1719799041748,135.18370175361633,135.32927012443542,135.32927012443542,135.32927012443542,135.32927012443542,135.32927012443542,135.32927012443542,135.32927012443542,145.16959261894226,1,9.981501340866089,None,,,,,,,,,,,,,,,,,,13,2,2025-02-18_14h03.44.902,comp,2024.2.4,55.66694626418781,2025-02-18 14h03.56.777068 -0500,
7,7,0,critical,whd,20.0,2.1,upper,125.0,200.0,200.0,125.0,141.0,141.0,2,7.724135875701904,None,,,,,0,0,0,0,0,7,7,39,145.18533158302307,,,,,,,,,,,,,,,,,,,,,,,,,,,,,,,,,,,,,,,,,,,,,,,,,,,,,,,,,,,,,,,,,,,,,,,,,,,,,,,,,125.0,200.0,200.0,125.0,141.0,141.0,2.1,2.11,-258,274,0,255,229,-254,145.1711630821228,145.17124390602112,145.17443251609802,145.18533158302307,145.3352427482605,145.3352427482605,145.3352427482605,145.3352427482605,145.3352427482605,145.3352427482605,145.3352427482605,152.9275839328766,2,7.724135875701904,None,,,,,,,,,,,,,,,,,,13,2,2025-02-18_14h03.44.902,comp,2024.2.4,55.66694626418781,2025-02-18 14h03.56.777068 -0500,
8,8,0,filler_square,None,None,None,None,None,None,None,None,None,None,3,1.7970609664916992,None,,,,,0,0,0,0,0,8,8,207,152.94429636001587,,,,,,,,,,,,,,,,,,,,,,,,,,,,,,,,,,,,,,,,,,,,,,,,,,,,,,,,,,,,,,,,,,,,,,,,,,,,,,,,,71.32189175583127,129.55346206385912,106.40122104992605,85.34503632105238,131.29198503097842,131.29198503097842,3.0,3.2,-203,-278,0,8,204,256,152.92958188056946,152.92966508865356,152.9329845905304,152.94429636001587,153.10072588920593,153.10072588920593,153.10072588920593,153.10072588920593,153.10072588920593,153.10072588920593,153.10072588920593,154.75688123703003,3,1.7970609664916992,None,,,,,,,,,,,,,,,,,,13,2,2025-02-18_14h03.44.902,comp,2024.2.4,55.66694626418781,2025-02-18 14h03.56.777068 -0500,
9,9,0,catch,None,None,None,None,None,None,None,None,None,None,1,1.9287843704223633,None,,,,,0,0,0,0,0,9,9,121,154.77320218086243,,,,,,,,,,,,,,,,,,,,,,,,,,,,,,,,,,,,,,,,,,,,,,,,,,,,,,,,,,,,,,,,,,,,,,,,,,,,,,,,,148,177,132,58,70,120,2.2,2.22,-214,250,0,-264,185,-268,154.75898337364197,154.75906682014465,154.76228189468384,154.77320218086243,154.92709946632385,154.92709946632385,154.92709946632385,154.92709946632385,154.92709946632385,154.92709946632385,154.92709946632385,156.70538926124573,1,1.9287843704223633,None,,,,,,,,,,,,,,,,,,13,2,2025-02-18_14h03.44.902,comp,2024.2.4,55.66694626418781,2025-02-18 14h03.56.777068 -0500,
10,10,0,filler_square,None,None,None,None,None,None,None,None,None,None,1,0.9798429012298584,None,,,,,0,0,0,0,0,10,10,177,156.72165369987488,,,,,,,,,,,,,,,,,,,,,,,,,,,,,,,,,,,,,,,,,,,,,,,,,,,,,,,,,,,,,,,,,,,,,,,,,,,,,,,,,134.06258166269245,134.06258166269245,76.79729592661923,79.86769062037914,78.61342711703358,70.61488388430234,4.0,4.1,-203,-279,0,11,171,-268,156.70721769332886,156.70729732513428,156.71065831184387,156.72165369987488,156.8783347606659,156.8783347606659,156.8783347606659,156.8783347606659,156.8783347606659,156.8783347606659,156.8783347606659,157.7068989276886,1,0.9798429012298584,None,,,,,,,,,,,,,,,,,,13,2,2025-02-18_14h03.44.902,comp,2024.2.4,55.66694626418781,2025-02-18 14h03.56.777068 -0500,
11,11,0,critical,whd,35.0,4.0,lower,57.0,133.0,133.0,57.0,70.0,70.0,1,2.6731364727020264,None,,,,,0,0,0,0,0,11,11,88,157.7239899635315,,,,,,,,,,,,,,,,,,,,,,,,,,,,,,,,,,,,,,,,,,,,,,,,,,,,,,,,,,,,,,,,,,,,,,,,,,,,,,,,,57.0,133.0,133.0,57.0,70.0,70.0,4.0,4.2,-191,-10,0,-289,160,-19,157.7084186077118,157.70849800109863,157.7118580341339,157.7239899635315,157.87310194969177,157.87310194969177,157.87310194969177,157.87310194969177,157.87310194969177,157.87310194969177,157.87310194969177,160.40711212158203,1,2.6731364727020264,None,,,,,,,,,,,,,,,,,,13,2,2025-02-18_14h03.44.902,comp,2024.2.4,55.66694626418781,2025-02-18 14h03.56.777068 -0500,
12,12,0,critical,dwh,20.0,2.1,lower,78.0,78.0,57.0,133.0,133.0,57.0,3,3.334155321121216,None,,,,,0,0,0,0,0,12,12,6,160.42338395118713,,,,,,,,,,,,,,,,,,,,,,,,,,,,,,,,,,,,,,,,,,,,,,,,,,,,,,,,,,,,,,,,,,,,,,,,,,,,,,,,,78.0,78.0,57.0,133.0,133.0,57.0,2.1,2.11,-202,261,0,275,191,-257,160.40868020057678,160.4087951183319,160.41218519210815,160.42338395118713,160.57734775543213,160.57734775543213,160.57734775543213,160.57734775543213,160.57734775543213,160.57734775543213,160.57734775543213,163.76341462135315,3,3.334155321121216,None,,,,,,,,,,,,,,,,,,13,2,2025-02-18_14h03.44.902,comp,2024.2.4,55.66694626418781,2025-02-18 14h03.56.777068 -0500,
13,13,0,critical,hwd,20.0,1.0,lower,133.0,57.0,57.0,133.0,78.0,78.0,2,4.117880344390869,None,,,,,0,0,0,0,0,13,13,102,163.78433537483215,,,,,,,,,,,,,,,,,,,,,,,,,,,,,,,,,,,,,,,,,,,,,,,,,,,,,,,,,,,,,,,,,,,,,,,,,,,,,,,,,133.0,57.0,57.0,133.0,78.0,78.0,1.0,1.3,289,-264,480,-279,682,-257,163.76507806777954,163.76521277427673,163.76848149299622,163.78433537483215,163.92537879943848,163.92537879943848,163.92537879943848,163.92537879943848,163.92537879943848,163.92537879943848,163.92537879943848,167.90842700004578,2,4.117880344390869,None,,,,,,,,,,,,,,,,,,13,2,2025-02-18_14h03.44.902,comp,2024.2.4,55.66694626418781,2025-02-18 14h03.56.777068 -0500,
14,14,0,critical,whd,35.0,1.0,upper,125.0,200.0,200.0,125.0,127.0,127.0,2,2.488889455795288,None,,,,,0,0,0,0,0,14,14,85,167.92481660842896,,,,,,,,,,,,,,,,,,,,,,,,,,,,,,,,,,,,,,,,,,,,,,,,,,,,,,,,,,,,,,,,,,,,,,,,,,,,,,,,,125.0,200.0,200.0,125.0,127.0,127.0,1.0,1.3,222,-258,480,-265,702,-252,167.9100251197815,167.9101071357727,167.9131932258606,167.92481660842896,168.08442497253418,168.08442497253418,168.08442497253418,168.08442497253418,168.08442497253418,168.08442497253418,168.08442497253418,170.4325966835022,2,2.488889455795288,None,,,,,,,,,,,,,,,,,,13,2,2025-02-18_14h03.44.902,comp,2024.2.4,55.66694626418781,2025-02-18 14h03.56.777068 -0500,
15,15,0,critical,dhw,20.0,2.1,lower,78.0,78.0,133.0,57.0,57.0,133.0,3,4.86130690574646,None,,,,,0,0,0,0,0,15,15,2,170.44828295707703,,,,,,,,,,,,,,,,,,,,,,,,,,,,,,,,,,,,,,,,,,,,,,,,,,,,,,,,,,,,,,,,,,,,,,,,,,,,,,,,,78.0,78.0,133.0,57.0,57.0,133.0,2.1,2.11,-164,259,0,262,191,-258,170.43420672416687,170.43428683280945,170.43717432022095,170.44828295707703,170.5947036743164,170.5947036743164,170.5947036743164,170.5947036743164,170.5947036743164,170.5947036743164,170.5947036743164,175.3275592327118,3,4.86130690574646,None,,,,,,,,,,,,,,,,,,13,2,2025-02-18_14h03.44.902,comp,2024.2.4,55.66694626418781,2025-02-18 14h03.56.777068 -0500,
16,16,0,filler_random,None,None,None,None,None,None,None,None,None,None,3,1.5494110584259033,None,,,,,0,0,0,0,0,16,16,155,175.34385895729065,,,,,,,,,,,,,,,,,,,,,,,,,,,,,,,,,,,,,,,,,,,,,,,,,,,,,,,,,,,,,,,,,,,,,,,,,,,,,,,,,149.0692022329324,87.71116146668969,166.83410022908492,138.89137974273723,182.99644834073104,155.99323113213012,4.0,4.1,-209,-256,0,2,243,-263,175.32930493354797,175.32938361167908,175.3325390815735,175.34385895729065,175.4846498966217,175.4846498966217,175.4846498966217,175.4846498966217,175.4846498966217,175.4846498966217,175.4846498966217,176.90970182418823,3,1.5494110584259033,None,,,,,,,,,,,,,,,,,,13,2,2025-02-18_14h03.44.902,comp,2024.2.4,55.66694626418781,2025-02-18 14h03.56.777068 -0500,
17,17,0,filler_square,None,None,None,None,None,None,None,None,None,None,3,1.864379644393921,None,,,,,0,0,0,0,0,17,17,203,176.92558312416077,,,,,,,,,,,,,,,,,,,,,,,,,,,,,,,,,,,,,,,,,,,,,,,,,,,,,,,,,,,,,,,,,,,,,,,,,,,,,,,,,92.28299339302326,115.9448651785608,61.889376307238926,70.02614990788058,123.87168854925729,123.87168854925729,3.0,3.2,-189,-285,0,4,193,264,176.9115273952484,176.91160202026367,176.91445899009705,176.92558312416077,177.06254696846008,177.06254696846008,177.06254696846008,177.06254696846008,177.06254696846008,177.06254696846008,177.06254696846008,178.79860043525696,3,1.864379644393921,None,,,,,,,,,,,,,,,,,,13,2,2025-02-18_14h03.44.902,comp,2024.2.4,55.66694626418781,2025-02-18 14h03.56.777068 -0500,
18,18,0,critical,whd,20.0,1.0,upper,125.0,200.0,200.0,125.0,141.0,141.0,2,9.254266262054443,None,,,,,0,0,0,0,0,18,18,91,178.81494450569153,,,,,,,,,,,,,,,,,,,,,,,,,,,,,,,,,,,,,,,,,,,,,,,,,,,,,,,,,,,,,,,,,,,,,,,,,,,,,,,,,125.0,200.0,200.0,125.0,141.0,141.0,1.0,1.3,222,-257,480,-286,709,-276,178.80033707618713,178.80047369003296,178.80397605895996,178.81494450569153,178.96292567253113,178.96292567253113,178.96292567253113,178.96292567253113,178.96292567253113,178.96292567253113,178.96292567253113,188.08368372917175,2,9.254266262054443,None,,,,,,,,,,,,,,,,,,13,2,2025-02-18_14h03.44.902,comp,2024.2.4,55.66694626418781,2025-02-18 14h03.56.777068 -0500,
19,19,0,critical,dwh,20.0,1.0,lower,78.0,78.0,57.0,133.0,133.0,57.0,3,6.625474214553833,None,,,,,0,0,0,0,0,19,19,66,188.10109305381775,,,,,,,,,,,,,,,,,,,,,,,,,,,,,,,,,,,,,,,,,,,,,,,,,,,,,,,,,,,,,,,,,,,,,,,,,,,,,,,,,78.0,78.0,57.0,133.0,133.0,57.0,1.0,1.2,-202,-13,0,-8,191,4,188.0852210521698,188.08529806137085,188.08837413787842,188.10109305381775,188.25204157829285,188.25204157829285,188.25204157829285,188.25204157829285,188.25204157829285,188.25204157829285,188.25204157829285,194.73717164993286,3,6.625474214553833,None,,,,,,,,,,,,,,,,,,13,2,2025-02-18_14h03.44.902,comp,2024.2.4,55.66694626418781,2025-02-18 14h03.56.777068 -0500,
20,20,0,filler_random,None,None,None,None,None,None,None,None,None,None,1,1.4892079830169678,None,,,,,0,0,0,0,0,20,20,150,194.75679802894592,,,,,,,,,,,,,,,,,,,,,,,,,,,,,,,,,,,,,,,,,,,,,,,,,,,,,,,,,,,,,,,,,,,,,,,,,,,,,,,,,157.0081739020938,171.61720155379066,81.94705376107261,130.06225822408754,61.64279693864561,173.00266131066894,3.0,3.1,-247,279,0,17,248,-284,194.73919296264648,194.73927640914917,194.74255561828613,194.75679802894592,194.9018976688385,194.9018976688385,194.9018976688385,194.9018976688385,194.9018976688385,194.9018976688385,194.9018976688385,196.25108122825623,1,1.4892079830169678,None,,,,,,,,,,,,,,,,,,13,2,2025-02-18_14h03.44.902,comp,2024.2.4,55.66694626418781,2025-02-18 14h03.56.777068 -0500,
21,21,0,critical,dwh,20.0,4.0,lower,78.0,78.0,57.0,133.0,133.0,57.0,2,5.831980466842651,None,,,,,0,0,0,0,0,21,21,70,196.2694981098175,,,,,,,,,,,,,,,,,,,,,,,,,,,,,,,,,,,,,,,,,,,,,,,,,,,,,,,,,,,,,,,,,,,,,,,,,,,,,,,,,78.0,78.0,57.0,133.0,133.0,57.0,4.0,4.2,-202,-7,0,-271,191,7,196.25256991386414,196.25265049934387,196.25577759742737,196.2694981098175,196.41930961608887,196.41930961608887,196.41930961608887,196.41930961608887,196.41930961608887,196.41930961608887,196.41930961608887,202.11972188949585,2,5.831980466842651,None,,,,,,,,,,,,,,,,,,13,2,2025-02-18_14h03.44.902,comp,2024.2.4,55.66694626418781,2025-02-18 14h03.56.777068 -0500,
22,22,0,critical,wdh,35.0,1.0,upper,125.0,200.0,127.0,127.0,200.0,125.0,3,8.206856966018677,None,,,,,0,0,0,0,0,22,22,73,202.1350817680359,,,,,,,,,,,,,,,,,,,,,,,,,,,,,,,,,,,,,,,,,,,,,,,,,,,,,,,,,,,,,,,,,,,,,,,,,,,,,,,,,125.0,200.0,127.0,127.0,200.0,125.0,1.0,1.1,-740,268,-480,282,-258,251,202.12133193016052,202.12141013145447,202.1246988773346,202.1350817680359,202.27642107009888,202.27642107009888,202.27642107009888,202.27642107009888,202.27642107009888,202.27642107009888,202.27642107009888,210.34554314613342,3,8.206856966018677,None,,,,,,,,,,,,,,,,,,13,2,2025-02-18_14h03.44.902,comp,2024.2.4,55.66694626418781,2025-02-18 14h03.56.777068 -0500,
23,23,0,filler_square,None,None,None,None,None,None,None,None,None,None,2,1.3792400360107422,None,,,,,0,0,0,0,0,23,23,175,210.3620617389679,,,,,,,,,,,,,,,,,,,,,,,,,,,,,,,,,,,,,,,,,,,,,,,,,,,,,,,,,,,,,,,,,,,,,,,,,,,,,,,,,103.79393246741881,63.39162227405035,115.83274639272992,115.83274639272992,67.8838184088325,93.10548057324107,2.1,2.12,-186,-252,0,-252,200,269,210.34759163856506,210.34767174720764,210.3509018421173,210.3620617389679,210.50419664382935,210.50419664382935,210.50419664382935,210.50419664382935,210.50419664382935,210.50419664382935,210.50419664382935,211.75621461868286,2,1.3792400360107422,None,,,,,,,,,,,,,,,,,,13,2,2025-02-18_14h03.44.902,comp,2024.2.4,55.66694626418781,2025-02-18 14h03.56.777068 -0500,
24,24,0,critical,wdh,20.0,3.0,upper,125.0,200.0,141.0,141.0,200.0,125.0,1,9.585839033126831,None,,,,,0,0,0,0,0,24,24,81,211.77133631706238,,,,,,,,,,,,,,,,,,,,,,,,,,,,,,,,,,,,,,,,,,,,,,,,,,,,,,,,,,,,,,,,,,,,,,,,,,,,,,,,,125.0,200.0,141.0,141.0,200.0,125.0,3.0,3.1,-266,255,0,9,229,-290,211.7577133178711,211.75781226158142,211.7607569694519,211.77133631706238,211.92673420906067,211.92673420906067,211.92673420906067,211.92673420906067,211.92673420906067,211.92673420906067,211.92673420906067,221.36715388298035,1,9.585839033126831,None,,,,,,,,,,,,,,,,,,13,2,2025-02-18_14h03.44.902,comp,2024.2.4,55.66694626418781,2025-02-18 14h03.56.777068 -0500,
25,25,0,filler_random,None,None,None,None,None,None,None,None,None,None,2,4.262291193008423,None,,,,,0,0,0,0,0,25,25,157,221.3830885887146,,,,,,,,,,,,,,,,,,,,,,,,,,,,,,,,,,,,,,,,,,,,,,,,,,,,,,,,,,,,,,,,,,,,,,,,,,,,,,,,,116.95250937892058,136.91943553510805,102.43937849906368,194.9264460788202,184.03511171720476,76.97443382211007,3.0,3.1,-262,286,0,19,232,-251,221.36893248558044,221.36901307106018,221.37189984321594,221.3830885887146,221.52615809440613,221.52615809440613,221.52615809440613,221.52615809440613,221.52615809440613,221.52615809440613,221.52615809440613,225.66244864463806,2,4.262291193008423,None,,,,,,,,,,,,,,,,,,13,2,2025-02-18_14h03.44.902,comp,2024.2.4,55.66694626418781,2025-02-18 14h03.56.777068 -0500,
26,26,0,filler_square,None,None,None,None,None,None,None,None,None,None,3,1.5931808948516846,None,,,,,0,0,0,0,0,26,26,196,225.6785638332367,,,,,,,,,,,,,,,,,,,,,,,,,,,,,,,,,,,,,,,,,,,,,,,,,,,,,,,,,,,,,,,,,,,,,,,,,,,,,,,,,122.38472627341646,149.60114975280106,90.91249233053674,109.97047957826348,153.2025731146661,153.2025731146661,4.0,4.1,-226,-285,0,-1,228,-287,225.6644847393036,225.66456294059753,225.6682436466217,225.6785638332367,225.82758474349976,225.82758474349976,225.82758474349976,225.82758474349976,225.82758474349976,225.82758474349976,225.82758474349976,227.2775535583496,3,1.5931808948516846,None,,,,,,,,,,,,,,,,,,13,2,2025-02-18_14h03.44.902,comp,2024.2.4,55.66694626418781,2025-02-18 14h03.56.777068 -0500,
27,27,0,critical,dwh,35.0,2.1,lower,70.0,70.0,57.0,133.0,133.0,57.0,2,2.7492313385009766,None,,,,,0,0,0,0,0,27,27,4,227.2963993549347,,,,,,,,,,,,,,,,,,,,,,,,,,,,,,,,,,,,,,,,,,,,,,,,,,,,,,,,,,,,,,,,,,,,,,,,,,,,,,,,,70.0,70.0,57.0,133.0,133.0,57.0,2.1,2.11,-198,263,0,258,191,-276,227.27913165092468,227.27920961380005,227.28236532211304,227.2963993549347,227.4447774887085,227.4447774887085,227.4447774887085,227.4447774887085,227.4447774887085,227.4447774887085,227.4447774887085,230.06223130226135,2,2.7492313385009766,None,,,,,,,,,,,,,,,,,,13,2,2025-02-18_14h03.44.902,comp,2024.2.4,55.66694626418781,2025-02-18 14h03.56.777068 -0500,
28,28,0,critical,hwd,35.0,1.0,lower,133.0,57.0,57.0,133.0,70.0,70.0,1,4.392428159713745,None,,,,,0,0,0,0,0,28,28,96,230.07794046401978,,,,,,,,,,,,,,,,,,,,,,,,,,,,,,,,,,,,,,,,,,,,,,,,,,,,,,,,,,,,,,,,,,,,,,,,,,,,,,,,,133.0,57.0,57.0,133.0,70.0,70.0,1.0,1.3,289,-251,480,-275,678,-286,230.06398820877075,230.06412768363953,230.06755566596985,230.07794046401978,230.2320954799652,230.2320954799652,230.2320954799652,230.2320954799652,230.2320954799652,230.2320954799652,230.2320954799652,234.48079228401184,1,4.392428159713745,None,,,,,,,,,,,,,,,,,,13,2,2025-02-18_14h03.44.902,comp,2024.2.4,55.66694626418781,2025-02-18 14h03.56.777068 -0500,
29,29,0,filler_random,None,None,None,None,None,None,None,None,None,None,3,1.6045191287994385,None,,,,,0,0,0,0,0,29,29,166,234.49686765670776,,,,,,,,,,,,,,,,,,,,,,,,,,,,,,,,,,,,,,,,,,,,,,,,,,,,,,,,,,,,,,,,,,,,,,,,,,,,,,,,,111.9022639159993,87.07847873124962,115.67200011331802,142.5161037040628,155.59624874640087,128.95594897333928,1.0,1.2,-211,1,0,2,232,-16,234.48246312141418,234.4825427532196,234.4859869480133,234.49686765670776,234.64867067337036,234.64867067337036,234.64867067337036,234.64867067337036,234.64867067337036,234.64867067337036,234.64867067337036,236.11810302734375,3,1.6045191287994385,None,,,,,,,,,,,,,,,,,,13,2,2025-02-18_14h03.44.902,comp,2024.2.4,55.66694626418781,2025-02-18 14h03.56.777068 -0500,
30,30,0,critical,dwh,35.0,3.0,upper,127.0,127.0,125.0,200.0,200.0,125.0,2,2.503357172012329,None,,,,,0,0,0,0,0,30,30,63,236.1338415145874,,,,,,,,,,,,,,,,,,,,,,,,,,,,,,,,,,,,,,,,,,,,,,,,,,,,,,,,,,,,,,,,,,,,,,,,,,,,,,,,,127.0,127.0,125.0,200.0,200.0,125.0,3.0,3.2,-260,-289,0,19,258,281,236.11971306800842,236.11987280845642,236.12348246574402,236.1338415145874,236.28445076942444,236.28445076942444,236.28445076942444,236.28445076942444,236.28445076942444,236.28445076942444,236.28445076942444,238.6494529247284,2,2.503357172012329,None,,,,,,,,,,,,,,,,,,13,2,2025-02-18_14h03.44.902,comp,2024.2.4,55.66694626418781,2025-02-18 14h03.56.777068 -0500,
31,31,0,critical,hwd,20.0,2.1,upper,200.0,125.0,125.0,200.0,141.0,141.0,2,3.002448558807373,None,,,,,0,0,0,0,0,31,31,19,238.66713190078735,,,,,,,,,,,,,,,,,,,,,,,,,,,,,,,,,,,,,,,,,,,,,,,,,,,,,,,,,,,,,,,,,,,,,,,,,,,,,,,,,200.0,125.0,125.0,200.0,141.0,141.0,2.1,2.11,-258,285,0,288,266,-262,238.6510739326477,238.6511516571045,238.65416979789734,238.66713190078735,238.81609845161438,238.81609845161438,238.81609845161438,238.81609845161438,238.81609845161438,238.81609845161438,238.81609845161438,241.67228150367737,2,3.002448558807373,None,,,,,,,,,,,,,,,,,,13,2,2025-02-18_14h03.44.902,comp,2024.2.4,55.66694626418781,2025-02-18 14h03.56.777068 -0500,
32,32,0,critical,whd,35.0,2.1,lower,57.0,133.0,133.0,57.0,70.0,70.0,2,4.076287746429443,None,,,,,0,0,0,0,0,32,32,12,241.68990397453308,,,,,,,,,,,,,,,,,,,,,,,,,,,,,,,,,,,,,,,,,,,,,,,,,,,,,,,,,,,,,,,,,,,,,,,,,,,,,,,,,57.0,133.0,133.0,57.0,70.0,70.0,2.1,2.11,-191,278,0,266,160,-271,241.6738362312317,241.67391681671143,241.67678260803223,241.68990397453308,241.83227849006653,241.83227849006653,241.83227849006653,241.83227849006653,241.83227849006653,241.83227849006653,241.83227849006653,245.77187252044678,2,4.076287746429443,None,,,,,,,,,,,,,,,,,,13,2,2025-02-18_14h03.44.902,comp,2024.2.4,55.66694626418781,2025-02-18 14h03.56.777068 -0500,
33,33,0,filler_square,None,None,None,None,None,None,None,None,None,None,1,1.7368967533111572,None,,,,,0,0,0,0,0,33,33,176,245.78827238082886,,,,,,,,,,,,,,,,,,,,,,,,,,,,,,,,,,,,,,,,,,,,,,,,,,,,,,,,,,,,,,,,,,,,,,,,,,,,,,,,,160.10596373849847,160.10596373849847,71.20349530952043,68.65287486086396,133.88844445856836,87.88228009055034,2.2,2.21,-210,-258,0,277,174,276,245.77392053604126,245.77400279045105,245.7772252559662,245.78827238082886,245.9423315525055,245.9423315525055,245.9423315525055,245.9423315525055,245.9423315525055,245.9423315525055,245.9423315525055,247.53543972969055,1,1.7368967533111572,None,,,,,,,,,,,,,,,,,,13,2,2025-02-18_14h03.44.902,comp,2024.2.4,55.66694626418781,2025-02-18 14h03.56.777068 -0500,
34,34,0,filler_random,None,None,None,None,None,None,None,None,None,None,3,3.6305129528045654,None,,,,,0,0,0,0,0,34,34,153,247.5514817237854,,,,,,,,,,,,,,,,,,,,,,,,,,,,,,,,,,,,,,,,,,,,,,,,,,,,,,,,,,,,,,,,,,,,,,,,,,,,,,,,,134.46246601503728,195.93988018080165,164.5796048381666,102.07082608396166,170.96964904426358,183.08534888914988,1.0,1.1,-725,284,-480,259,-241,259,247.537184715271,247.53726148605347,247.5407111644745,247.5514817237854,247.69928646087646,247.69928646087646,247.69928646087646,247.69928646087646,247.69928646087646,247.69928646087646,247.69928646087646,251.18863081932068,3,3.6305129528045654,None,,,,,,,,,,,,,,,,,,13,2,2025-02-18_14h03.44.902,comp,2024.2.4,55.66694626418781,2025-02-18 14h03.56.777068 -0500,
35,35,0,filler_random,None,None,None,None,None,None,None,None,None,None,2,2.376750946044922,None,,,,,0,0,0,0,0,35,35,130,251.20530438423157,,,,,,,,,,,,,,,,,,,,,,,,,,,,,,,,,,,,,,,,,,,,,,,,,,,,,,,,,,,,,,,,,,,,,,,,,,,,,,,,,198.95334526165485,138.83098467716638,169.249361183379,163.99933552812996,120.78243131401452,184.13391773451212,2.2,2.22,-247,258,0,-277,270,-260,251.1905493736267,251.19063234329224,251.19384241104126,251.20530438423157,251.3554458618164,251.3554458618164,251.3554458618164,251.3554458618164,251.3554458618164,251.3554458618164,251.3554458618164,253.58498620986938,2,2.376750946044922,None,,,,,,,,,,,,,,,,,,13,2,2025-02-18_14h03.44.902,comp,2024.2.4,55.66694626418781,2025-02-18 14h03.56.777068 -0500,
36,36,0,critical,wdh,35.0,2.1,lower,57.0,133.0,70.0,70.0,133.0,57.0,1,4.762906551361084,None,,,,,0,0,0,0,0,36,36,32,253.60326647758484,,,,,,,,,,,,,,,,,,,,,,,,,,,,,,,,,,,,,,,,,,,,,,,,,,,,,,,,,,,,,,,,,,,,,,,,,,,,,,,,,57.0,133.0,70.0,70.0,133.0,57.0,2.1,2.12,-198,-278,0,-268,160,255,253.586660861969,253.5868227481842,253.59029603004456,253.60326647758484,253.75692462921143,253.75692462921143,253.75692462921143,253.75692462921143,253.75692462921143,253.75692462921143,253.75692462921143,258.3721435070038,1,4.762906551361084,None,,,,,,,,,,,,,,,,,,13,2,2025-02-18_14h03.44.902,comp,2024.2.4,55.66694626418781,2025-02-18 14h03.56.777068 -0500,
37,37,0,filler_random,None,None,None,None,None,None,None,None,None,None,3,5.616863965988159,None,,,,,0,0,0,0,0,37,37,156,258.3890461921692,,,,,,,,,,,,,,,,,,,,,,,,,,,,,,,,,,,,,,,,,,,,,,,,,,,,,,,,,,,,,,,,,,,,,,,,,,,,,,,,,150.67368414828886,125.57246848607518,183.38217264905973,89.8583899756651,153.14998578202716,126.51253944913417,1.0,1.2,-204,11,0,-11,204,11,258.37395763397217,258.3740384578705,258.37743401527405,258.3890461921692,258.53808426856995,258.53808426856995,258.53808426856995,258.53808426856995,258.53808426856995,258.53808426856995,258.53808426856995,264.0152676105499,3,5.616863965988159,None,,,,,,,,,,,,,,,,,,13,2,2025-02-18_14h03.44.902,comp,2024.2.4,55.66694626418781,2025-02-18 14h03.56.777068 -0500,
38,38,0,critical,dhw,20.0,4.0,upper,141.0,141.0,200.0,125.0,125.0,200.0,3,3.923823118209839,None,,,,,0,0,0,0,0,38,38,59,264.0338442325592,,,,,,,,,,,,,,,,,,,,,,,,,,,,,,,,,,,,,,,,,,,,,,,,,,,,,,,,,,,,,,,,,,,,,,,,,,,,,,,,,141.0,141.0,200.0,125.0,125.0,200.0,4.0,4.1,-229,-272,0,12,258,-282,264.0167758464813,264.01685905456543,264.0197012424469,264.0338442325592,264.1785705089569,264.1785705089569,264.1785705089569,264.1785705089569,264.1785705089569,264.1785705089569,264.1785705089569,267.9784858226776,3,3.923823118209839,None,,,,,,,,,,,,,,,,,,13,2,2025-02-18_14h03.44.902,comp,2024.2.4,55.66694626418781,2025-02-18 14h03.56.777068 -0500,
39,39,0,filler_random,None,None,None,None,None,None,None,None,None,None,1,1.7077219486236572,None,,,,,0,0,0,0,0,39,39,169,267.99436020851135,,,,,,,,,,,,,,,,,,,,,,,,,,,,,,,,,,,,,,,,,,,,,,,,,,,,,,,,,,,,,,,,,,,,,,,,,,,,,,,,,145.11100150115885,160.7276136241091,156.42060375965661,135.71902886937792,158.6250705665566,60.25728558339105,1.0,1.3,236,-265,480,-260,674,-275,267.9803113937378,267.98039054870605,267.98326086997986,267.99436020851135,268.1409206390381,268.1409206390381,268.1409206390381,268.1409206390381,268.1409206390381,268.1409206390381,268.1409206390381,269.71041083335876,1,1.7077219486236572,None,,,,,,,,,,,,,,,,,,13,2,2025-02-18_14h03.44.902,comp,2024.2.4,55.66694626418781,2025-02-18 14h03.56.777068 -0500,
40,40,0,critical,dhw,35.0,1.0,upper,127.0,127.0,200.0,125.0,125.0,200.0,2,2.239870309829712,None,,,,,0,0,0,0,0,40,40,49,269.72733092308044,,,,,,,,,,,,,,,,,,,,,,,,,,,,,,,,,,,,,,,,,,,,,,,,,,,,,,,,,,,,,,,,,,,,,,,,,,,,,,,,,127.0,127.0,200.0,125.0,125.0,200.0,1.0,1.2,-222,1,0,6,258,13,269.7121593952179,269.7123050689697,269.71570682525635,269.72733092308044,269.8742034435272,269.8742034435272,269.8742034435272,269.8742034435272,269.8742034435272,269.8742034435272,269.8742034435272,271.97831439971924,2,2.239870309829712,None,,,,,,,,,,,,,,,,,,13,2,2025-02-18_14h03.44.902,comp,2024.2.4,55.66694626418781,2025-02-18 14h03.56.777068 -0500,
41,41,0,filler_random,None,None,None,None,None,None,None,None,None,None,3,1.4506866931915283,None,,,,,0,0,0,0,0,41,41,152,271.9945242404938,,,,,,,,,,,,,,,,,,,,,,,,,,,,,,,,,,,,,,,,,,,,,,,,,,,,,,,,,,,,,,,,,,,,,,,,,,,,,,,,,131.31491353595624,138.74159533086197,86.0485943711889,99.48901956710772,146.79232369945325,156.79981555390842,4.0,4.1,-215,-281,0,13,224,-272,271.98013520240784,271.9802598953247,271.9835681915283,271.9945242404938,272.14154291152954,272.14154291152954,272.14154291152954,272.14154291152954,272.14154291152954,272.14154291152954,272.14154291152954,273.45714116096497,3,1.4506866931915283,None,,,,,,,,,,,,,,,,,,13,2,2025-02-18_14h03.44.902,comp,2024.2.4,55.66694626418781,2025-02-18 14h03.56.777068 -0500,
42,42,0,filler_square,None,None,None,None,None,None,None,None,None,None,1,2.004456043243408,None,,,,,0,0,0,0,0,42,42,178,273.4729714393616,,,,,,,,,,,,,,,,,,,,,,,,,,,,,,,,,,,,,,,,,,,,,,,,,,,,,,,,,,,,,,,,,,,,,,,,,,,,,,,,,119.91597635054208,119.91597635054208,91.84810050888993,84.29348811199802,88.02470695690054,105.80978007366255,1.0,1.3,282,-275,480,-286,671,-254,273.45894980430603,273.45903038978577,273.46213459968567,273.4729714393616,273.60734820365906,273.60734820365906,273.60734820365906,273.60734820365906,273.60734820365906,273.60734820365906,273.60734820365906,275.4926073551178,1,2.004456043243408,None,,,,,,,,,,,,,,,,,,13,2,2025-02-18_14h03.44.902,comp,2024.2.4,55.66694626418781,2025-02-18 14h03.56.777068 -0500,
43,43,0,critical,dhw,35.0,1.0,lower,70.0,70.0,133.0,57.0,57.0,133.0,2,5.424664258956909,None,,,,,0,0,0,0,0,43,43,48,275.5085759162903,,,,,,,,,,,,,,,,,,,,,,,,,,,,,,,,,,,,,,,,,,,,,,,,,,,,,,,,,,,,,,,,,,,,,,,,,,,,,,,,,70.0,70.0,133.0,57.0,57.0,133.0,1.0,1.1,-640,258,-480,260,-289,259,275.4941551685333,275.4942328929901,275.49734807014465,275.5085759162903,275.6600852012634,275.6600852012634,275.6600852012634,275.6600852012634,275.6600852012634,275.6600852012634,275.6600852012634,280.943927526474,2,5.424664258956909,None,,,,,,,,,,,,,,,,,,13,2,2025-02-18_14h03.44.902,comp,2024.2.4,55.66694626418781,2025-02-18 14h03.56.777068 -0500,
44,44,0,catch,None,None,None,None,None,None,None,None,None,None,1,1.56483793258667,None,,,,,0,0,0,0,0,44,44,122,280.96038031578064,,,,,,,,,,,,,,,,,,,,,,,,,,,,,,,,,,,,,,,,,,,,,,,,,,,,,,,,,,,,,,,,,,,,,,,,,,,,,,,,,157,168,67,123,85,105,1.0,1.1,-722,252,-480,269,-270,263,280.94590067863464,280.9459819793701,280.948979139328,280.96038031578064,281.11470460891724,281.11470460891724,281.11470460891724,281.11470460891724,281.11470460891724,281.11470460891724,281.11470460891724,282.5288758277893,1,1.56483793258667,None,,,,,,,,,,,,,,,,,,13,2,2025-02-18_14h03.44.902,comp,2024.2.4,55.66694626418781,2025-02-18 14h03.56.777068 -0500,
45,45,0,critical,hdw,35.0,1.0,lower,133.0,57.0,70.0,70.0,57.0,133.0,3,2.220317840576172,None,,,,,0,0,0,0,0,45,45,108,282.544939994812,,,,,,,,,,,,,,,,,,,,,,,,,,,,,,,,,,,,,,,,,,,,,,,,,,,,,,,,,,,,,,,,,,,,,,,,,,,,,,,,,133.0,57.0,70.0,70.0,57.0,133.0,1.0,1.2,-160,5,0,-9,198,-13,282.5305323600769,282.53067111968994,282.5341877937317,282.544939994812,282.696302652359,282.696302652359,282.696302652359,282.696302652359,282.696302652359,282.696302652359,282.696302652359,284.78118109703064,3,2.220317840576172,None,,,,,,,,,,,,,,,,,,13,2,2025-02-18_14h03.44.902,comp,2024.2.4,55.66694626418781,2025-02-18 14h03.56.777068 -0500,
46,46,0,critical,whd,20.0,2.1,lower,57.0,133.0,133.0,57.0,78.0,78.0,2,3.5914247035980225,None,,,,,0,0,0,0,0,46,46,38,284.7992079257965,,,,,,,,,,,,,,,,,,,,,,,,,,,,,,,,,,,,,,,,,,,,,,,,,,,,,,,,,,,,,,,,,,,,,,,,,,,,,,,,,57.0,133.0,133.0,57.0,78.0,78.0,2.1,2.12,-191,-290,0,-284,164,268,284.7830173969269,284.783154964447,284.78652000427246,284.7992079257965,284.9548316001892,284.9548316001892,284.9548316001892,284.9548316001892,284.9548316001892,284.9548316001892,284.9548316001892,288.3965187072754,2,3.5914247035980225,None,,,,,,,,,,,,,,,,,,13,2,2025-02-18_14h03.44.902,comp,2024.2.4,55.66694626418781,2025-02-18 14h03.56.777068 -0500,
47,47,0,critical,dhw,20.0,1.0,upper,141.0,141.0,200.0,125.0,125.0,200.0,3,2.782705783843994,None,,,,,0,0,0,0,0,47,47,55,288.4148371219635,,,,,,,,,,,,,,,,,,,,,,,,,,,,,,,,,,,,,,,,,,,,,,,,,,,,,,,,,,,,,,,,,,,,,,,,,,,,,,,,,141.0,141.0,200.0,125.0,125.0,200.0,1.0,1.1,-709,270,-480,275,-222,274,288.3980746269226,288.39815187454224,288.40103459358215,288.4148371219635,288.55057072639465,288.55057072639465,288.55057072639465,288.55057072639465,288.55057072639465,288.55057072639465,288.55057072639465,291.2026343345642,3,2.782705783843994,None,,,,,,,,,,,,,,,,,,13,2,2025-02-18_14h03.44.902,comp,2024.2.4,55.66694626418781,2025-02-18 14h03.56.777068 -0500,
48,48,0,critical,dhw,35.0,2.1,lower,70.0,70.0,133.0,57.0,57.0,133.0,2,3.0088417530059814,None,,,,,0,0,0,0,0,48,48,24,291.2204339504242,,,,,,,,,,,,,,,,,,,,,,,,,,,,,,,,,,,,,,,,,,,,,,,,,,,,,,,,,,,,,,,,,,,,,,,,,,,,,,,,,70.0,70.0,133.0,57.0,57.0,133.0,2.1,2.12,-160,-287,0,-286,191,287,291.20426297187805,291.2043414115906,291.2072513103485,291.2204339504242,291.3651144504547,291.3651144504547,291.3651144504547,291.3651144504547,291.3651144504547,291.3651144504547,291.3651144504547,294.23358058929443,2,3.0088417530059814,None,,,,,,,,,,,,,,,,,,13,2,2025-02-18_14h03.44.902,comp,2024.2.4,55.66694626418781,2025-02-18 14h03.56.777068 -0500,
49,49,0,filler_random,None,None,None,None,None,None,None,None,None,None,1,2.9478964805603027,None,,,,,0,0,0,0,0,49,49,163,294.24984192848206,,,,,,,,,,,,,,,,,,,,,,,,,,,,,,,,,,,,,,,,,,,,,,,,,,,,,,,,,,,,,,,,,,,,,,,,,,,,,,,,,175.25010072649388,124.13353960791565,159.24463499904948,105.64721259288908,74.66967287615309,196.1140561523048,2.2,2.22,-211,277,0,-279,247,-268,294.23534893989563,294.23545837402344,294.23898816108704,294.24984192848206,294.4019134044647,294.4019134044647,294.4019134044647,294.4019134044647,294.4019134044647,294.4019134044647,294.4019134044647,297.19991517066956,1,2.9478964805603027,None,,,,,,,,,,,,,,,,,,13,2,2025-02-18_14h03.44.902,comp,2024.2.4,55.66694626418781,2025-02-18 14h03.56.777068 -0500,
50,50,0,filler_square,None,None,None,None,None,None,None,None,None,None,2,3.1691625118255615,None,,,,,0,0,0,0,0,50,50,193,297.2204239368439,,,,,,,,,,,,,,,,,,,,,,,,,,,,,,,,,,,,,,,,,,,,,,,,,,,,,,,,,,,,,,,,,,,,,,,,,,,,,,,,,71.33080411130297,81.59295414716036,96.40040974360566,96.40040974360566,78.60885563867569,65.00121709857228,3.0,3.2,-185,-259,0,-17,177,257,297.20169138908386,297.2017934322357,297.20490193367004,297.2204239368439,297.36697697639465,297.36697697639465,297.36697697639465,297.36697697639465,297.36697697639465,297.36697697639465,297.36697697639465,300.4029276371002,2,3.1691625118255615,None,,,,,,,,,,,,,,,,,,13,2,2025-02-18_14h03.44.902,comp,2024.2.4,55.66694626418781,2025-02-18 14h03.56.777068 -0500,
51,51,0,catch,None,None,None,None,None,None,None,None,None,None,2,1.9308035373687744,None,,,,,0,0,0,0,0,51,51,124,300.41849541664124,,,,,,,,,,,,,,,,,,,,,,,,,,,,,,,,,,,,,,,,,,,,,,,,,,,,,,,,,,,,,,,,,,,,,,,,,,,,,,,,,87,103,155,170,98,92,3.0,3.1,-232,266,0,-10,227,-286,300.40503191947937,300.40513467788696,300.40818452835083,300.41849541664124,300.56782603263855,300.56782603263855,300.56782603263855,300.56782603263855,300.56782603263855,300.56782603263855,300.56782603263855,302.3662939071655,2,1.9308035373687744,None,,,,,,,,,,,,,,,,,,13,2,2025-02-18_14h03.44.902,comp,2024.2.4,55.66694626418781,2025-02-18 14h03.56.777068 -0500,
52,52,0,critical,dwh,20.0,3.0,upper,141.0,141.0,125.0,200.0,200.0,125.0,2,6.584700107574463,None,,,,,0,0,0,0,0,52,52,69,302.38146352767944,,,,,,,,,,,,,,,,,,,,,,,,,,,,,,,,,,,,,,,,,,,,,,,,,,,,,,,,,,,,,,,,,,,,,,,,,,,,,,,,,141.0,141.0,125.0,200.0,200.0,125.0,3.0,3.2,-266,-255,0,11,258,255,302.3677921295166,302.367871761322,302.37079548835754,302.38146352767944,302.51914286613464,302.51914286613464,302.51914286613464,302.51914286613464,302.51914286613464,302.51914286613464,302.51914286613464,308.9713785648346,2,6.584700107574463,None,,,,,,,,,,,,,,,,,,13,2,2025-02-18_14h03.44.902,comp,2024.2.4,55.66694626418781,2025-02-18 14h03.56.777068 -0500,
53,53,0,catch,None,None,None,None,None,None,None,None,None,None,2,1.1462507247924805,None,,,,,0,0,0,0,0,53,53,129,308.9881327152252,,,,,,,,,,,,,,,,,,,,,,,,,,,,,,,,,,,,,,,,,,,,,,,,,,,,,,,,,,,,,,,,,,,,,,,,,,,,,,,,,58,132,199,126,121,69,3.0,3.2,-225,-266,0,7,194,280,308.9733090400696,308.9734437465668,308.977308511734,308.9881327152252,309.13516092300415,309.13516092300415,309.13516092300415,309.13516092300415,309.13516092300415,309.13516092300415,309.13516092300415,310.14220213890076,2,1.1462507247924805,None,,,,,,,,,,,,,,,,,,13,2,2025-02-18_14h03.44.902,comp,2024.2.4,55.66694626418781,2025-02-18 14h03.56.777068 -0500,
54,54,0,critical,hdw,20.0,3.0,lower,133.0,57.0,78.0,78.0,57.0,133.0,3,4.571271657943726,None,,,,,0,0,0,0,0,54,54,116,310.1620545387268,,,,,,,,,,,,,,,,,,,,,,,,,,,,,,,,,,,,,,,,,,,,,,,,,,,,,,,,,,,,,,,,,,,,,,,,,,,,,,,,,133.0,57.0,78.0,78.0,57.0,133.0,3.0,3.2,-164,-267,0,-18,202,261,310.1439399719238,310.1440222263336,310.1473035812378,310.1620545387268,310.30165219306946,310.30165219306946,310.30165219306946,310.30165219306946,310.30165219306946,310.30165219306946,310.30165219306946,314.74560737609863,3,4.571271657943726,None,,,,,,,,,,,,,,,,,,13,2,2025-02-18_14h03.44.902,comp,2024.2.4,55.66694626418781,2025-02-18 14h03.56.777068 -0500,
55,55,0,critical,whd,35.0,4.0,upper,125.0,200.0,200.0,125.0,127.0,127.0,1,2.1941235065460205,None,,,,,0,0,0,0,0,55,55,89,314.76329922676086,,,,,,,,,,,,,,,,,,,,,,,,,,,,,,,,,,,,,,,,,,,,,,,,,,,,,,,,,,,,,,,,,,,,,,,,,,,,,,,,,125.0,200.0,200.0,125.0,127.0,127.0,4.0,4.2,-258,3,0,-287,222,19,314.74716901779175,314.7472484111786,314.7501163482666,314.76329922676086,314.90380573272705,314.90380573272705,314.90380573272705,314.90380573272705,314.90380573272705,314.90380573272705,314.90380573272705,316.97282123565674,1,2.1941235065460205,None,,,,,,,,,,,,,,,,,,13,2,2025-02-18_14h03.44.902,comp,2024.2.4,55.66694626418781,2025-02-18 14h03.56.777068 -0500,
56,56,0,critical,dhw,20.0,3.0,upper,141.0,141.0,200.0,125.0,125.0,200.0,3,2.216094970703125,None,,,,,0,0,0,0,0,56,56,57,316.98919105529785,,,,,,,,,,,,,,,,,,,,,,,,,,,,,,,,,,,,,,,,,,,,,,,,,,,,,,,,,,,,,,,,,,,,,,,,,,,,,,,,,141.0,141.0,200.0,125.0,125.0,200.0,3.0,3.2,-229,-274,0,16,258,263,316.9743800163269,316.97448778152466,316.97791147232056,316.98919105529785,317.1402349472046,317.1402349472046,317.1402349472046,317.1402349472046,317.1402349472046,317.1402349472046,317.1402349472046,319.20754289627075,3,2.216094970703125,None,,,,,,,,,,,,,,,,,,13,2,2025-02-18_14h03.44.902,comp,2024.2.4,55.66694626418781,2025-02-18 14h03.56.777068 -0500,
57,57,0,critical,dhw,20.0,4.0,lower,78.0,78.0,133.0,57.0,57.0,133.0,3,1.7492949962615967,None,,,,,0,0,0,0,0,57,57,58,319.22420501708984,,,,,,,,,,,,,,,,,,,,,,,,,,,,,,,,,,,,,,,,,,,,,,,,,,,,,,,,,,,,,,,,,,,,,,,,,,,,,,,,,78.0,78.0,133.0,57.0,57.0,133.0,4.0,4.2,-164,3,0,-272,191,6,319.20918369293213,319.2092626094818,319.2133057117462,319.22420501708984,319.3718583583832,319.3718583583832,319.3718583583832,319.3718583583832,319.3718583583832,319.3718583583832,319.3718583583832,320.990731716156,3,1.7492949962615967,None,,,,,,,,,,,,,,,,,,13,2,2025-02-18_14h03.44.902,comp,2024.2.4,55.66694626418781,2025-02-18 14h03.56.777068 -0500,
58,58,0,filler_random,None,None,None,None,None,None,None,None,None,None,3,5.958574295043945,None,,,,,0,0,0,0,0,58,58,154,321.0068554878235,,,,,,,,,,,,,,,,,,,,,,,,,,,,,,,,,,,,,,,,,,,,,,,,,,,,,,,,,,,,,,,,,,,,,,,,,,,,,,,,,93.00749322135218,96.297478426346,92.14379537594996,123.55981211509331,103.3193996957047,128.44124705296025,1.0,1.3,274,-276,480,-257,702,-278,320.99268412590027,320.99280071258545,320.9964759349823,321.0068554878235,321.1575994491577,321.1575994491577,321.1575994491577,321.1575994491577,321.1575994491577,321.1575994491577,321.1575994491577,326.9759831428528,3,5.958574295043945,None,,,,,,,,,,,,,,,,,,13,2,2025-02-18_14h03.44.902,comp,2024.2.4,55.66694626418781,2025-02-18 14h03.56.777068 -0500,
59,59,0,filler_random,None,None,None,None,None,None,None,None,None,None,1,1.476475477218628,None,,,,,0,0,0,0,0,59,59,141,326.9929852485657,,,,,,,,,,,,,,,,,,,,,,,,,,,,,,,,,,,,,,,,,,,,,,,,,,,,,,,,,,,,,,,,,,,,,,,,,,,,,,,,,169.28719843338482,195.51754952413637,81.92300817766863,148.52962936443248,121.38098711533117,69.70419348919177,2.2,2.22,-268,274,0,-259,205,-270,326.97767400741577,326.97778248786926,326.98125529289246,326.9929852485657,327.14278864860535,327.14278864860535,327.14278864860535,327.14278864860535,327.14278864860535,327.14278864860535,327.14278864860535,328.4738154411316,1,1.476475477218628,None,,,,,,,,,,,,,,,,,,13,2,2025-02-18_14h03.44.902,comp,2024.2.4,55.66694626418781,2025-02-18 14h03.56.777068 -0500,
60,60,0,critical,hwd,35.0,2.1,lower,133.0,57.0,57.0,133.0,70.0,70.0,2,2.6814074516296387,None,,,,,0,0,0,0,0,60,60,40,328.49272084236145,,,,,,,,,,,,,,,,,,,,,,,,,,,,,,,,,,,,,,,,,,,,,,,,,,,,,,,,,,,,,,,,,,,,,,,,,,,,,,,,,133.0,57.0,57.0,133.0,70.0,70.0,2.1,2.12,-191,-282,0,-270,198,252,328.4753108024597,328.47539043426514,328.4783284664154,328.49272084236145,328.6329815387726,328.6329815387726,328.6329815387726,328.6329815387726,328.6329815387726,328.6329815387726,328.6329815387726,331.17669224739075,2,2.6814074516296387,None,,,,,,,,,,,,,,,,,,13,2,2025-02-18_14h03.44.902,comp,2024.2.4,55.66694626418781,2025-02-18 14h03.56.777068 -0500,
61,61,0,critical,wdh,20.0,2.1,upper,125.0,200.0,141.0,141.0,200.0,125.0,1,4.690400838851929,None,,,,,0,0,0,0,0,61,61,11,331.19501209259033,,,,,,,,,,,,,,,,,,,,,,,,,,,,,,,,,,,,,,,,,,,,,,,,,,,,,,,,,,,,,,,,,,,,,,,,,,,,,,,,,125.0,200.0,141.0,141.0,200.0,125.0,2.1,2.12,-266,-279,0,-255,229,262,331.17821502685547,331.1782910823822,331.1812312602997,331.19501209259033,331.34516644477844,331.34516644477844,331.34516644477844,331.34516644477844,331.34516644477844,331.34516644477844,331.34516644477844,335.9042694568634,1,4.690400838851929,None,,,,,,,,,,,,,,,,,,13,2,2025-02-18_14h03.44.902,comp,2024.2.4,55.66694626418781,2025-02-18 14h03.56.777068 -0500,
62,62,0,critical,hdw,20.0,4.0,upper,200.0,125.0,141.0,141.0,125.0,200.0,1,3.8726837635040283,None,,,,,0,0,0,0,0,62,62,119,335.9247839450836,,,,,,,,,,,,,,,,,,,,,,,,,,,,,,,,,,,,,,,,,,,,,,,,,,,,,,,,,,,,,,,,,,,,,,,,,,,,,,,,,200.0,125.0,141.0,141.0,125.0,200.0,4.0,4.1,-229,-262,0,-18,266,-265,335.90599727630615,335.90609765052795,335.9093930721283,335.9247839450836,336.0605971813202,336.0605971813202,336.0605971813202,336.0605971813202,336.0605971813202,336.0605971813202,336.0605971813202,339.8176419734955,1,3.8726837635040283,None,,,,,,,,,,,,,,,,,,13,2,2025-02-18_14h03.44.902,comp,2024.2.4,55.66694626418781,2025-02-18 14h03.56.777068 -0500,
63,63,0,critical,wdh,35.0,1.0,lower,57.0,133.0,70.0,70.0,133.0,57.0,1,5.217652320861816,None,,,,,0,0,0,0,0,63,63,72,339.83682656288147,,,,,,,,,,,,,,,,,,,,,,,,,,,,,,,,,,,,,,,,,,,,,,,,,,,,,,,,,,,,,,,,,,,,,,,,,,,,,,,,,57.0,133.0,70.0,70.0,133.0,57.0,1.0,1.1,-678,260,-480,285,-320,288,339.8192436695099,339.8193669319153,339.8228533267975,339.83682656288147,339.9801802635193,339.9801802635193,339.9801802635193,339.9801802635193,339.9801802635193,339.9801802635193,339.9801802635193,345.06205582618713,1,5.217652320861816,None,,,,,,,,,,,,,,,,,,13,2,2025-02-18_14h03.44.902,comp,2024.2.4,55.66694626418781,2025-02-18 14h03.56.777068 -0500,
64,64,0,critical,dhw,20.0,1.0,lower,78.0,78.0,133.0,57.0,57.0,133.0,2,5.261531352996826,None,,,,,0,0,0,0,0,64,64,54,345.07983803749084,,,,,,,,,,,,,,,,,,,,,,,,,,,,,,,,,,,,,,,,,,,,,,,,,,,,,,,,,,,,,,,,,,,,,,,,,,,,,,,,,78.0,78.0,133.0,57.0,57.0,133.0,1.0,1.1,-644,275,-480,277,-289,288,345.0635497570038,345.0636270046234,345.0665054321289,345.07983803749084,345.23090958595276,345.23090958595276,345.23090958595276,345.23090958595276,345.23090958595276,345.23090958595276,345.23090958595276,350.3574161529541,2,5.261531352996826,None,,,,,,,,,,,,,,,,,,13,2,2025-02-18_14h03.44.902,comp,2024.2.4,55.66694626418781,2025-02-18 14h03.56.777068 -0500,
65,65,0,filler_random,None,None,None,None,None,None,None,None,None,None,1,2.5645694732666016,None,,,,,0,0,0,0,0,65,65,161,350.3767020702362,,,,,,,,,,,,,,,,,,,,,,,,,,,,,,,,,,,,,,,,,,,,,,,,,,,,,,,,,,,,,,,,,,,,,,,,,,,,,,,,,183.29582073787378,83.32810276062801,126.61729565718485,107.15854876447642,114.57397050658554,67.97158853977767,4.0,4.1,-191,-280,0,1,184,-278,350.35910391807556,350.35918641090393,350.3620455265045,350.3767020702362,350.51699137687683,350.51699137687683,350.51699137687683,350.51699137687683,350.51699137687683,350.51699137687683,350.51699137687683,352.95097732543945,1,2.5645694732666016,None,,,,,,,,,,,,,,,,,,13,2,2025-02-18_14h03.44.902,comp,2024.2.4,55.66694626418781,2025-02-18 14h03.56.777068 -0500,
66,66,0,critical,dwh,35.0,2.1,upper,127.0,127.0,125.0,200.0,200.0,125.0,2,4.8304431438446045,None,,,,,0,0,0,0,0,66,66,29,352.96737718582153,,,,,,,,,,,,,,,,,,,,,,,,,,,,,,,,,,,,,,,,,,,,,,,,,,,,,,,,,,,,,,,,,,,,,,,,,,,,,,,,,127.0,127.0,125.0,200.0,200.0,125.0,2.1,2.12,-260,-252,0,-264,258,285,352.95252537727356,352.95260548591614,352.9561347961426,352.96737718582153,353.1167047023773,353.1167047023773,353.1167047023773,353.1167047023773,353.1167047023773,353.1167047023773,353.1167047023773,357.80178809165955,2,4.8304431438446045,None,,,,,,,,,,,,,,,,,,13,2,2025-02-18_14h03.44.902,comp,2024.2.4,55.66694626418781,2025-02-18 14h03.56.777068 -0500,
67,67,0,catch,None,None,None,None,None,None,None,None,None,None,3,1.7795138359069824,None,,,,,0,0,0,0,0,67,67,128,357.8186914920807,,,,,,,,,,,,,,,,,,,,,,,,,,,,,,,,,,,,,,,,,,,,,,,,,,,,,,,,,,,,,,,,,,,,,,,,,,,,,,,,,111,79,83,107,127,198,1.0,1.3,291,-250,480,-289,728,-286,357.80395221710205,357.8040316104889,357.80730509757996,357.8186914920807,357.9717972278595,357.9717972278595,357.9717972278595,357.9717972278595,357.9717972278595,357.9717972278595,357.9717972278595,359.60436940193176,3,1.7795138359069824,None,,,,,,,,,,,,,,,,,,13,2,2025-02-18_14h03.44.902,comp,2024.2.4,55.66694626418781,2025-02-18 14h03.56.777068 -0500,
68,68,0,filler_random,None,None,None,None,None,None,None,None,None,None,3,1.16147780418396,None,,,,,0,0,0,0,0,68,68,147,359.62059116363525,,,,,,,,,,,,,,,,,,,,,,,,,,,,,,,,,,,,,,,,,,,,,,,,,,,,,,,,,,,,,,,,,,,,,,,,,,,,,,,,,149.121530323752,105.6072270288377,88.70551991459395,112.4653870433122,197.4623477043656,137.57457305060728,4.0,4.1,-205,-276,0,13,221,-272,359.6061007976532,359.60619711875916,359.60940313339233,359.62059116363525,359.7584390640259,359.7584390640259,359.7584390640259,359.7584390640259,359.7584390640259,359.7584390640259,359.7584390640259,360.7871606349945,3,1.16147780418396,None,,,,,,,,,,,,,,,,,,13,2,2025-02-18_14h03.44.902,comp,2024.2.4,55.66694626418781,2025-02-18 14h03.56.777068 -0500,
69,69,0,critical,whd,35.0,3.0,lower,57.0,133.0,133.0,57.0,70.0,70.0,1,5.88994026184082,None,,,,,0,0,0,0,0,69,69,86,360.8038489818573,,,,,,,,,,,,,,,,,,,,,,,,,,,,,,,,,,,,,,,,,,,,,,,,,,,,,,,,,,,,,,,,,,,,,,,,,,,,,,,,,57.0,133.0,133.0,57.0,70.0,70.0,3.0,3.1,-191,266,0,-19,160,-271,360.7888011932373,360.7888824939728,360.7929513454437,360.8038489818573,360.956693649292,360.956693649292,360.956693649292,360.956693649292,360.956693649292,360.956693649292,360.956693649292,366.6964614391327,1,5.88994026184082,None,,,,,,,,,,,,,,,,,,13,2,2025-02-18_14h03.44.902,comp,2024.2.4,55.66694626418781,2025-02-18 14h03.56.777068 -0500,
70,70,0,filler_square,None,None,None,None,None,None,None,None,None,None,1,2.0685296058654785,None,,,,,0,0,0,0,0,70,70,172,366.7129611968994,,,,,,,,,,,,,,,,,,,,,,,,,,,,,,,,,,,,,,,,,,,,,,,,,,,,,,,,,,,,,,,,,,,,,,,,,,,,,,,,,104.12681504658075,104.12681504658075,97.75139512540163,95.27773145095247,73.82846227860428,59.81550104829971,1.0,1.3,284,-255,480,-250,654,-261,366.69884181022644,366.6989767551422,366.70199704170227,366.7129611968994,366.85268545150757,366.85268545150757,366.85268545150757,366.85268545150757,366.85268545150757,366.85268545150757,366.85268545150757,368.79172253608704,1,2.0685296058654785,None,,,,,,,,,,,,,,,,,,13,2,2025-02-18_14h03.44.902,comp,2024.2.4,55.66694626418781,2025-02-18 14h03.56.777068 -0500,
71,71,0,filler_square,None,None,None,None,None,None,None,None,None,None,3,2.596050977706909,None,,,,,0,0,0,0,0,71,71,191,368.80930042266846,,,,,,,,,,,,,,,,,,,,,,,,,,,,,,,,,,,,,,,,,,,,,,,,,,,,,,,,,,,,,,,,,,,,,,,,,,,,,,,,,86.13035074235006,57.18433839333629,65.3806436199154,111.39629985026639,140.64875971535594,140.64875971535594,3.0,3.2,-180,-272,0,-12,222,285,368.7938492298126,368.7939305305481,368.79772877693176,368.80930042266846,368.95831656455994,368.95831656455994,368.95831656455994,368.95831656455994,368.95831656455994,368.95831656455994,368.95831656455994,371.40751481056213,3,2.596050977706909,None,,,,,,,,,,,,,,,,,,13,2,2025-02-18_14h03.44.902,comp,2024.2.4,55.66694626418781,2025-02-18 14h03.56.777068 -0500,
72,72,0,critical,hwd,20.0,2.1,lower,133.0,57.0,57.0,133.0,78.0,78.0,2,2.877873420715332,None,,,,,0,0,0,0,0,72,72,42,371.4235851764679,,,,,,,,,,,,,,,,,,,,,,,,,,,,,,,,,,,,,,,,,,,,,,,,,,,,,,,,,,,,,,,,,,,,,,,,,,,,,,,,,133.0,57.0,57.0,133.0,78.0,78.0,2.1,2.11,-191,271,0,253,202,-264,371.4091122150421,371.4091899394989,371.4126753807068,371.4235851764679,371.5727627277374,371.5727627277374,371.5727627277374,371.5727627277374,371.5727627277374,371.5727627277374,371.5727627277374,374.3160319328308,2,2.877873420715332,None,,,,,,,,,,,,,,,,,,13,2,2025-02-18_14h03.44.902,comp,2024.2.4,55.66694626418781,2025-02-18 14h03.56.777068 -0500,
73,73,0,critical,hwd,35.0,2.1,upper,200.0,125.0,125.0,200.0,127.0,127.0,1,2.2312090396881104,None,,,,,0,0,0,0,0,73,73,17,374.3349404335022,,,,,,,,,,,,,,,,,,,,,,,,,,,,,,,,,,,,,,,,,,,,,,,,,,,,,,,,,,,,,,,,,,,,,,,,,,,,,,,,,200.0,125.0,125.0,200.0,127.0,127.0,2.1,2.11,-258,253,0,253,260,-278,374.3175756931305,374.3176534175873,374.3206076622009,374.3349404335022,374.47427773475647,374.47427773475647,374.47427773475647,374.47427773475647,374.47427773475647,374.47427773475647,374.47427773475647,376.5759994983673,1,2.2312090396881104,None,,,,,,,,,,,,,,,,,,13,2,2025-02-18_14h03.44.902,comp,2024.2.4,55.66694626418781,2025-02-18 14h03.56.777068 -0500,
74,74,0,filler_random,None,None,None,None,None,None,None,None,None,None,3,4.5008461475372314,None,,,,,0,0,0,0,0,74,74,137,376.59255290031433,,,,,,,,,,,,,,,,,,,,,,,,,,,,,,,,,,,,,,,,,,,,,,,,,,,,,,,,,,,,,,,,,,,,,,,,,,,,,,,,,199.64732030898537,80.97103029810026,137.03307217177166,140.87352142694758,199.6074885667672,120.04373612364586,3.0,3.2,-207,-275,0,1,226,258,376.57776618003845,376.577880859375,376.58175826072693,376.59255290031433,376.74051117897034,376.74051117897034,376.74051117897034,376.74051117897034,376.74051117897034,376.74051117897034,376.74051117897034,381.1116268634796,3,4.5008461475372314,None,,,,,,,,,,,,,,,,,,13,2,2025-02-18_14h03.44.902,comp,2024.2.4,55.66694626418781,2025-02-18 14h03.56.777068 -0500,
75,75,0,filler_random,None,None,None,None,None,None,None,None,None,None,2,7.4921345710754395,None,,,,,0,0,0,0,0,75,75,131,381.1298909187317,,,,,,,,,,,,,,,,,,,,,,,,,,,,,,,,,,,,,,,,,,,,,,,,,,,,,,,,,,,,,,,,,,,,,,,,,,,,,,,,,162.42189736134486,102.28751125392576,122.9883491494001,186.67280409322905,159.9771731241709,132.6459669397775,3.0,3.1,-240,286,0,-13,256,-251,381.1134648323059,381.113543510437,381.1172432899475,381.1298909187317,381.2764346599579,381.2764346599579,381.2764346599579,381.2764346599579,381.2764346599579,381.2764346599579,381.2764346599579,388.6313991546631,2,7.4921345710754395,None,,,,,,,,,,,,,,,,,,13,2,2025-02-18_14h03.44.902,comp,2024.2.4,55.66694626418781,2025-02-18 14h03.56.777068 -0500,
76,76,0,filler_random,None,None,None,None,None,None,None,None,None,None,1,1.6998467445373535,None,,,,,0,0,0,0,0,76,76,134,388.64968943595886,,,,,,,,,,,,,,,,,,,,,,,,,,,,,,,,,,,,,,,,,,,,,,,,,,,,,,,,,,,,,,,,,,,,,,,,,,,,,,,,,168.06052884294462,122.24543837875878,143.7248855315363,169.83264370308098,130.27306892634846,127.40119380447493,3.0,3.1,-242,289,0,-7,245,-284,388.6335289478302,388.63366651535034,388.6367025375366,388.64968943595886,388.79536986351013,388.79536986351013,388.79536986351013,388.79536986351013,388.79536986351013,388.79536986351013,388.79536986351013,390.3640630245209,1,1.6998467445373535,None,,,,,,,,,,,,,,,,,,13,2,2025-02-18_14h03.44.902,comp,2024.2.4,55.66694626418781,2025-02-18 14h03.56.777068 -0500,
77,77,0,critical,hdw,20.0,1.0,upper,200.0,125.0,141.0,141.0,125.0,200.0,1,2.3699615001678467,None,,,,,0,0,0,0,0,77,77,115,390.37979674339294,,,,,,,,,,,,,,,,,,,,,,,,,,,,,,,,,,,,,,,,,,,,,,,,,,,,,,,,,,,,,,,,,,,,,,,,,,,,,,,,,200.0,125.0,141.0,141.0,125.0,200.0,1.0,1.1,-709,281,-480,287,-214,276,390.3656871318817,390.3658285140991,390.36931705474854,390.37979674339294,390.5343642234802,390.5343642234802,390.5343642234802,390.5343642234802,390.5343642234802,390.5343642234802,390.5343642234802,392.75217843055725,1,2.3699615001678467,None,,,,,,,,,,,,,,,,,,13,2,2025-02-18_14h03.44.902,comp,2024.2.4,55.66694626418781,2025-02-18 14h03.56.777068 -0500,
78,78,0,critical,whd,20.0,3.0,lower,57.0,133.0,133.0,57.0,78.0,78.0,2,2.7764968872070312,None,,,,,0,0,0,0,0,78,78,92,392.77299213409424,,,,,,,,,,,,,,,,,,,,,,,,,,,,,,,,,,,,,,,,,,,,,,,,,,,,,,,,,,,,,,,,,,,,,,,,,,,,,,,,,57.0,133.0,133.0,57.0,78.0,78.0,3.0,3.1,-191,253,0,14,164,-258,392.7538616657257,392.7539405822754,392.7572343349457,392.77299213409424,392.9135341644287,392.9135341644287,392.9135341644287,392.9135341644287,392.9135341644287,392.9135341644287,392.9135341644287,395.56637597084045,2,2.7764968872070312,None,,,,,,,,,,,,,,,,,,13,2,2025-02-18_14h03.44.902,comp,2024.2.4,55.66694626418781,2025-02-18 14h03.56.777068 -0500,
79,79,0,filler_random,None,None,None,None,None,None,None,None,None,None,3,2.7121846675872803,None,,,,,0,0,0,0,0,79,79,164,395.5816743373871,,,,,,,,,,,,,,,,,,,,,,,,,,,,,,,,,,,,,,,,,,,,,,,,,,,,,,,,,,,,,,,,,,,,,,,,,,,,,,,,,149.12405979662154,67.43116670322081,89.16682469162151,90.07284230013008,94.08978967895375,136.76642581051283,2.1,2.12,-175,-288,0,-282,209,253,395.56824111938477,395.5683217048645,395.57142210006714,395.5816743373871,395.72939562797546,395.72939562797546,395.72939562797546,395.72939562797546,395.72939562797546,395.72939562797546,395.72939562797546,398.2987279891968,3,2.7121846675872803,None,,,,,,,,,,,,,,,,,,13,2,2025-02-18_14h03.44.902,comp,2024.2.4,55.66694626418781,2025-02-18 14h03.56.777068 -0500,
80,80,0,critical,dwh,20.0,1.0,upper,141.0,141.0,125.0,200.0,200.0,125.0,2,7.002195596694946,None,,,,,0,0,0,0,0,80,80,67,398.31515192985535,,,,,,,,,,,,,,,,,,,,,,,,,,,,,,,,,,,,,,,,,,,,,,,,,,,,,,,,,,,,,,,,,,,,,,,,,,,,,,,,,141.0,141.0,125.0,200.0,200.0,125.0,1.0,1.3,214,-260,480,-263,738,-259,398.3003149032593,398.3003921508789,398.3044242858887,398.31515192985535,398.4717719554901,398.4717719554901,398.4717719554901,398.4717719554901,398.4717719554901,398.4717719554901,398.4717719554901,405.3349611759186,2,7.002195596694946,None,,,,,,,,,,,,,,,,,,13,2,2025-02-18_14h03.44.902,comp,2024.2.4,55.66694626418781,2025-02-18 14h03.56.777068 -0500,
81,81,0,critical,hwd,35.0,4.0,upper,200.0,125.0,125.0,200.0,127.0,127.0,2,3.428764581680298,None,,,,,0,0,0,0,0,81,81,101,405.35355854034424,,,,,,,,,,,,,,,,,,,,,,,,,,,,,,,,,,,,,,,,,,,,,,,,,,,,,,,,,,,,,,,,,,,,,,,,,,,,,,,,,200.0,125.0,125.0,200.0,127.0,127.0,4.0,4.2,-258,12,0,-267,260,-15,405.33660888671875,405.33668780326843,405.3400173187256,405.35355854034424,405.5014102458954,405.5014102458954,405.5014102458954,405.5014102458954,405.5014102458954,405.5014102458954,405.5014102458954,408.7851822376251,2,3.428764581680298,None,,,,,,,,,,,,,,,,,,13,2,2025-02-18_14h03.44.902,comp,2024.2.4,55.66694626418781,2025-02-18 14h03.56.777068 -0500,
82,82,0,critical,hdw,35.0,2.1,upper,200.0,125.0,127.0,127.0,125.0,200.0,3,2.4920365810394287,None,,,,,0,0,0,0,0,82,82,21,408.80135130882263,,,,,,,,,,,,,,,,,,,,,,,,,,,,,,,,,,,,,,,,,,,,,,,,,,,,,,,,,,,,,,,,,,,,,,,,,,,,,,,,,200.0,125.0,127.0,127.0,125.0,200.0,2.1,2.11,-222,274,0,259,260,-289,408.7868666648865,408.7869465351105,408.79043793678284,408.80135130882263,408.9522178173065,408.9522178173065,408.9522178173065,408.9522178173065,408.9522178173065,408.9522178173065,408.9522178173065,411.3052279949188,3,2.4920365810394287,None,,,,,,,,,,,,,,,,,,13,2,2025-02-18_14h03.44.902,comp,2024.2.4,55.66694626418781,2025-02-18 14h03.56.777068 -0500,
83,83,0,filler_square,None,None,None,None,None,None,None,None,None,None,2,2.0126774311065674,None,,,,,0,0,0,0,0,83,83,209,411.3218777179718,,,,,,,,,,,,,,,,,,,,,,,,,,,,,,,,,,,,,,,,,,,,,,,,,,,,,,,,,,,,,,,,,,,,,,,,,,,,,,,,,159.08092045032424,151.16981320483097,170.15569012859666,170.15569012859666,95.61258990229479,152.5668252278732,2.1,2.12,-257,-261,0,-285,257,262,411.30761981010437,411.30777502059937,411.31112813949585,411.3218777179718,411.4735300540924,411.4735300540924,411.4735300540924,411.4735300540924,411.4735300540924,411.4735300540924,411.4735300540924,413.33812856674194,2,2.0126774311065674,None,,,,,,,,,,,,,,,,,,13,2,2025-02-18_14h03.44.902,comp,2024.2.4,55.66694626418781,2025-02-18 14h03.56.777068 -0500,
84,84,0,critical,wdh,20.0,2.1,lower,57.0,133.0,78.0,78.0,133.0,57.0,3,10.058175325393677,None,,,,,0,0,0,0,0,84,84,10,413.3551833629608,,,,,,,,,,,,,,,,,,,,,,,,,,,,,,,,,,,,,,,,,,,,,,,,,,,,,,,,,,,,,,,,,,,,,,,,,,,,,,,,,57.0,133.0,78.0,78.0,133.0,57.0,2.1,2.11,-202,262,0,284,164,-252,413.33989930152893,413.33998012542725,413.34385418891907,413.3551833629608,413.503719329834,413.503719329834,413.503719329834,413.503719329834,413.503719329834,413.503719329834,413.503719329834,423.42901253700256,3,10.058175325393677,None,,,,,,,,,,,,,,,,,,13,2,2025-02-18_14h03.44.902,comp,2024.2.4,55.66694626418781,2025-02-18 14h03.56.777068 -0500,
85,85,0,filler_random,None,None,None,None,None,None,None,None,None,None,2,1.7600343227386475,None,,,,,0,0,0,0,0,85,85,140,423.4454593658447,,,,,,,,,,,,,,,,,,,,,,,,,,,,,,,,,,,,,,,,,,,,,,,,,,,,,,,,,,,,,,,,,,,,,,,,,,,,,,,,,188.53433746507613,112.7226607405359,153.96047370830428,137.7416353772806,63.08720397102924,139.93184393993334,3.0,3.2,-221,-277,0,9,235,281,423.43090891838074,423.43098998069763,423.4342303276062,423.4454593658447,423.5893933773041,423.5893933773041,423.5893933773041,423.5893933773041,423.5893933773041,423.5893933773041,423.5893933773041,425.21086263656616,2,1.7600343227386475,None,,,,,,,,,,,,,,,,,,13,2,2025-02-18_14h03.44.902,comp,2024.2.4,55.66694626418781,2025-02-18 14h03.56.777068 -0500,
86,86,0,critical,wdh,35.0,2.1,upper,125.0,200.0,127.0,127.0,200.0,125.0,1,2.4544517993927,None,,,,,0,0,0,0,0,86,86,9,425.23182821273804,,,,,,,,,,,,,,,,,,,,,,,,,,,,,,,,,,,,,,,,,,,,,,,,,,,,,,,,,,,,,,,,,,,,,,,,,,,,,,,,,125.0,200.0,127.0,127.0,200.0,125.0,2.1,2.12,-260,-282,0,-256,222,257,425.2124629020691,425.2125434875488,425.2159492969513,425.23182821273804,425.37345123291016,425.37345123291016,425.37345123291016,425.37345123291016,425.37345123291016,425.37345123291016,425.37345123291016,427.6912455558777,1,2.4544517993927,None,,,,,,,,,,,,,,,,,,13,2,2025-02-18_14h03.44.902,comp,2024.2.4,55.66694626418781,2025-02-18 14h03.56.777068 -0500,
87,87,0,critical,hwd,35.0,2.1,lower,133.0,57.0,57.0,133.0,70.0,70.0,2,2.4200708866119385,None,,,,,0,0,0,0,0,87,87,16,427.70605397224426,,,,,,,,,,,,,,,,,,,,,,,,,,,,,,,,,,,,,,,,,,,,,,,,,,,,,,,,,,,,,,,,,,,,,,,,,,,,,,,,,133.0,57.0,57.0,133.0,70.0,70.0,2.1,2.12,-191,-252,0,-277,198,260,427.6928024291992,427.6928918361664,427.6962342262268,427.70605397224426,427.8458478450775,427.8458478450775,427.8458478450775,427.8458478450775,427.8458478450775,427.8458478450775,427.8458478450775,430.12852454185486,2,2.4200708866119385,None,,,,,,,,,,,,,,,,,,13,2,2025-02-18_14h03.44.902,comp,2024.2.4,55.66694626418781,2025-02-18 14h03.56.777068 -0500,
88,88,0,critical,dwh,35.0,1.0,lower,70.0,70.0,57.0,133.0,133.0,57.0,3,7.24558162689209,None,,,,,0,0,0,0,0,88,88,60,430.14429998397827,,,,,,,,,,,,,,,,,,,,,,,,,,,,,,,,,,,,,,,,,,,,,,,,,,,,,,,,,,,,,,,,,,,,,,,,,,,,,,,,,70.0,70.0,57.0,133.0,133.0,57.0,1.0,1.2,-198,-2,0,5,191,6,430.1305661201477,430.1306474208832,430.1335496902466,430.14429998397827,430.2918131351471,430.2918131351471,430.2918131351471,430.2918131351471,430.2918131351471,430.2918131351471,430.2918131351471,437.39295768737793,3,7.24558162689209,None,,,,,,,,,,,,,,,,,,13,2,2025-02-18_14h03.44.902,comp,2024.2.4,55.66694626418781,2025-02-18 14h03.56.777068 -0500,
89,89,0,filler_square,None,None,None,None,None,None,None,None,None,None,1,3.490461826324463,None,,,,,0,0,0,0,0,89,89,171,437.4118390083313,,,,,,,,,,,,,,,,,,,,,,,,,,,,,,,,,,,,,,,,,,,,,,,,,,,,,,,,,,,,,,,,,,,,,,,,,,,,,,,,,92.82974420212187,86.78748313851673,69.2778266051971,80.1031098934111,97.24088157005897,97.24088157005897,3.0,3.2,-179,-270,0,-2,185,288,437.3947093486786,437.39483523368835,437.3979711532593,437.4118390083313,437.5613708496094,437.5613708496094,437.5613708496094,437.5613708496094,437.5613708496094,437.5613708496094,437.5613708496094,440.91947889328003,1,3.490461826324463,None,,,,,,,,,,,,,,,,,,13,2,2025-02-18_14h03.44.902,comp,2024.2.4,55.66694626418781,2025-02-18 14h03.56.777068 -0500,
90,90,0,filler_random,None,None,None,None,None,None,None,None,None,None,3,4.514337778091431,None,,,,,0,0,0,0,0,90,90,148,440.93991112709045,,,,,,,,,,,,,,,,,,,,,,,,,,,,,,,,,,,,,,,,,,,,,,,,,,,,,,,,,,,,,,,,,,,,,,,,,,,,,,,,,160.19251513866277,99.23998253059995,152.89920392963506,167.23414516193588,153.45124298777142,179.5322604302924,2.1,2.11,-229,277,0,272,269,-286,440.9212670326233,440.92140340805054,440.9246025085449,440.93991112709045,441.07952070236206,441.07952070236206,441.07952070236206,441.07952070236206,441.07952070236206,441.07952070236206,441.07952070236206,445.46361207962036,3,4.514337778091431,None,,,,,,,,,,,,,,,,,,13,2,2025-02-18_14h03.44.902,comp,2024.2.4,55.66694626418781,2025-02-18 14h03.56.777068 -0500,
91,91,0,filler_square,None,None,None,None,None,None,None,None,None,None,2,1.549626350402832,None,,,,,0,0,0,0,0,91,91,206,445.48043155670166,,,,,,,,,,,,,,,,,,,,,,,,,,,,,,,,,,,,,,,,,,,,,,,,,,,,,,,,,,,,,,,,,,,,,,,,,,,,,,,,,149.08150374627712,83.39676806877586,182.0619836161649,182.0619836161649,66.36320967874573,120.01855505825233,1.0,1.1,-709,285,-480,283,-233,284,445.46548795700073,445.4655692577362,445.4690012931824,445.48043155670166,445.62782430648804,445.62782430648804,445.62782430648804,445.62782430648804,445.62782430648804,445.62782430648804,445.62782430648804,447.03211855888367,2,1.549626350402832,None,,,,,,,,,,,,,,,,,,13,2,2025-02-18_14h03.44.902,comp,2024.2.4,55.66694626418781,2025-02-18 14h03.56.777068 -0500,
92,92,0,critical,wdh,20.0,4.0,lower,57.0,133.0,78.0,78.0,133.0,57.0,3,2.0382609367370605,None,,,,,0,0,0,0,0,92,92,82,447.04931592941284,,,,,,,,,,,,,,,,,,,,,,,,,,,,,,,,,,,,,,,,,,,,,,,,,,,,,,,,,,,,,,,,,,,,,,,,,,,,,,,,,57.0,133.0,78.0,78.0,133.0,57.0,4.0,4.1,-202,-259,0,-16,164,-279,447.0339229106903,447.0340054035187,447.03784704208374,447.04931592941284,447.1965057849884,447.1965057849884,447.1965057849884,447.1965057849884,447.1965057849884,447.1965057849884,447.1965057849884,449.0982542037964,3,2.0382609367370605,None,,,,,,,,,,,,,,,,,,13,2,2025-02-18_14h03.44.902,comp,2024.2.4,55.66694626418781,2025-02-18 14h03.56.777068 -0500,
93,93,0,critical,dhw,35.0,3.0,lower,70.0,70.0,133.0,57.0,57.0,133.0,2,5.571409702301025,None,,,,,0,0,0,0,0,93,93,50,449.11419916152954,,,,,,,,,,,,,,,,,,,,,,,,,,,,,,,,,,,,,,,,,,,,,,,,,,,,,,,,,,,,,,,,,,,,,,,,,,,,,,,,,70.0,70.0,133.0,57.0,57.0,133.0,3.0,3.2,-160,-265,0,-1,191,258,449.09984278678894,449.09991979599,449.1034061908722,449.11419916152954,449.25025725364685,449.25025725364685,449.25025725364685,449.25025725364685,449.25025725364685,449.25025725364685,449.25025725364685,454.7005772590637,2,5.571409702301025,None,,,,,,,,,,,,,,,,,,13,2,2025-02-18_14h03.44.902,comp,2024.2.4,55.66694626418781,2025-02-18 14h03.56.777068 -0500,
94,94,0,critical,hdw,20.0,2.1,upper,200.0,125.0,141.0,141.0,125.0,200.0,3,2.1295166015625,None,,,,,0,0,0,0,0,94,94,47,454.7165243625641,,,,,,,,,,,,,,,,,,,,,,,,,,,,,,,,,,,,,,,,,,,,,,,,,,,,,,,,,,,,,,,,,,,,,,,,,,,,,,,,,200.0,125.0,141.0,141.0,125.0,200.0,2.1,2.12,-229,-265,0,-269,266,268,454.70219802856445,454.7022957801819,454.70582151412964,454.7165243625641,454.8726227283478,454.8726227283478,454.8726227283478,454.8726227283478,454.8726227283478,454.8726227283478,454.8726227283478,456.85497999191284,3,2.1295166015625,None,,,,,,,,,,,,,,,,,,13,2,2025-02-18_14h03.44.902,comp,2024.2.4,55.66694626418781,2025-02-18 14h03.56.777068 -0500,
95,95,0,filler_square,None,None,None,None,None,None,None,None,None,None,3,5.534702301025391,None,,,,,0,0,0,0,0,95,95,184,456.87084674835205,,,,,,,,,,,,,,,,,,,,,,,,,,,,,,,,,,,,,,,,,,,,,,,,,,,,,,,,,,,,,,,,,,,,,,,,,,,,,,,,,60.01229682726724,57.66963707327396,61.4070261878191,61.08149010660238,61.72890030949635,61.72890030949635,1.0,1.1,-635,276,-480,257,-323,251,456.8568437099457,456.8569257259369,456.85987663269043,456.87084674835205,457.01432728767395,457.01432728767395,457.01432728767395,457.01432728767395,457.01432728767395,457.01432728767395,457.01432728767395,462.4184069633484,3,5.534702301025391,None,,,,,,,,,,,,,,,,,,13,2,2025-02-18_14h03.44.902,comp,2024.2.4,55.66694626418781,2025-02-18 14h03.56.777068 -0500,
96,96,0,critical,dwh,35.0,3.0,lower,70.0,70.0,57.0,133.0,133.0,57.0,3,2.903700351715088,None,,,,,0,0,0,0,0,96,96,62,462.4376766681671,,,,,,,,,,,,,,,,,,,,,,,,,,,,,,,,,,,,,,,,,,,,,,,,,,,,,,,,,,,,,,,,,,,,,,,,,,,,,,,,,70.0,70.0,57.0,133.0,133.0,57.0,3.0,3.1,-198,262,0,-15,191,-257,462.4199306964874,462.4200105667114,462.4231698513031,462.4376766681671,462.5862395763397,462.5862395763397,462.5862395763397,462.5862395763397,462.5862395763397,462.5862395763397,462.5862395763397,465.3511826992035,3,2.903700351715088,None,,,,,,,,,,,,,,,,,,13,2,2025-02-18_14h03.44.902,comp,2024.2.4,55.66694626418781,2025-02-18 14h03.56.777068 -0500,
97,97,0,critical,hwd,20.0,3.0,upper,200.0,125.0,125.0,200.0,141.0,141.0,2,4.0052080154418945,None,,,,,0,0,0,0,0,97,97,105,465.3682463169098,,,,,,,,,,,,,,,,,,,,,,,,,,,,,,,,,,,,,,,,,,,,,,,,,,,,,,,,,,,,,,,,,,,,,,,,,,,,,,,,,200.0,125.0,125.0,200.0,141.0,141.0,3.0,3.2,-258,-251,0,8,266,251,465.35279536247253,465.3528926372528,465.35622239112854,465.3682463169098,465.50333189964294,465.50333189964294,465.50333189964294,465.50333189964294,465.50333189964294,465.50333189964294,465.50333189964294,469.3901438713074,2,4.0052080154418945,None,,,,,,,,,,,,,,,,,,13,2,2025-02-18_14h03.44.902,comp,2024.2.4,55.66694626418781,2025-02-18 14h03.56.777068 -0500,
98,98,0,catch,None,None,None,None,None,None,None,None,None,None,3,0.7750136852264404,None,,,,,0,0,0,0,0,98,98,125,469.4064588546753,,,,,,,,,,,,,,,,,,,,,,,,,,,,,,,,,,,,,,,,,,,,,,,,,,,,,,,,,,,,,,,,,,,,,,,,,,,,,,,,,122,68,117,73,129,196,1.0,1.2,-166,-1,0,17,230,18,469.3923444747925,469.3924264907837,469.39531207084656,469.4064588546753,469.5542516708374,469.5542516708374,469.5542516708374,469.5542516708374,469.5542516708374,469.5542516708374,469.5542516708374,470.1932089328766,3,0.7750136852264404,None,,,,,,,,,,,,,,,,,,13,2,2025-02-18_14h03.44.902,comp,2024.2.4,55.66694626418781,2025-02-18 14h03.56.777068 -0500,
99,99,0,filler_random,None,None,None,None,None,None,None,None,None,None,2,0.9482152462005615,None,,,,,0,0,0,0,0,99,99,168,470.2093303203583,,,,,,,,,,,,,,,,,,,,,,,,,,,,,,,,,,,,,,,,,,,,,,,,,,,,,,,,,,,,,,,,,,,,,,,,,,,,,,,,,122.90826016486864,94.04627822135893,98.00532180649594,168.8084213522477,157.97353492103645,69.5923981111188,1.0,1.2,-227,-15,0,1,215,11,470.1948821544647,470.19496178627014,470.1978166103363,470.2093303203583,470.3598065376282,470.3598065376282,470.3598065376282,470.3598065376282,470.3598065376282,470.3598065376282,470.3598065376282,471.1724536418915,2,0.9482152462005615,None,,,,,,,,,,,,,,,,,,13,2,2025-02-18_14h03.44.902,comp,2024.2.4,55.66694626418781,2025-02-18 14h03.56.777068 -0500,
100,100,0,critical,hdw,35.0,1.0,upper,200.0,125.0,127.0,127.0,125.0,200.0,3,1.978501558303833,None,,,,,0,0,0,0,0,100,100,109,471.18780994415283,,,,,,,,,,,,,,,,,,,,,,,,,,,,,,,,,,,,,,,,,,,,,,,,,,,,,,,,,,,,,,,,,,,,,,,,,,,,,,,,,200.0,125.0,127.0,127.0,125.0,200.0,1.0,1.2,-222,-11,0,-3,260,-19,471.17401576042175,471.17409443855286,471.1774740219116,471.18780994415283,471.3410725593567,471.3410725593567,471.3410725593567,471.3410725593567,471.3410725593567,471.3410725593567,471.3410725593567,473.17227816581726,3,1.978501558303833,None,,,,,,,,,,,,,,,,,,13,2,2025-02-18_14h03.44.902,comp,2024.2.4,55.66694626418781,2025-02-18 14h03.56.777068 -0500,
101,101,0,critical,hwd,20.0,2.1,upper,200.0,125.0,125.0,200.0,141.0,141.0,2,4.384662389755249,None,,,,,0,0,0,0,0,101,101,43,473.1888356208801,,,,,,,,,,,,,,,,,,,,,,,,,,,,,,,,,,,,,,,,,,,,,,,,,,,,,,,,,,,,,,,,,,,,,,,,,,,,,,,,,200.0,125.0,125.0,200.0,141.0,141.0,2.1,2.11,-258,267,0,263,266,-271,473.17391705513,473.1740491390228,473.17756390571594,473.1888356208801,473.3374149799347,473.3374149799347,473.3374149799347,473.3374149799347,473.3374149799347,473.3374149799347,473.3374149799347,477.589058637619,2,4.384662389755249,None,,,,,,,,,,,,,,,,,,13,2,2025-02-18_14h03.44.902,comp,2024.2.4,55.66694626418781,2025-02-18 14h03.56.777068 -0500,
102,102,0,filler_square,None,None,None,None,None,None,None,None,None,None,3,1.8165700435638428,None,,,,,0,0,0,0,0,102,102,197,477.6054060459137,,,,,,,,,,,,,,,,,,,,,,,,,,,,,,,,,,,,,,,,,,,,,,,,,,,,,,,,,,,,,,,,,,,,,,,,,,,,,,,,,66.86318671549806,100.17980897698895,85.17792632967645,98.20061698140262,108.43094310716417,108.43094310716417,2.1,2.11,-195,260,0,278,199,-284,477.590779542923,477.59085965156555,477.593955039978,477.6054060459137,477.74408173561096,477.74408173561096,477.74408173561096,477.74408173561096,477.74408173561096,477.74408173561096,477.74408173561096,479.42602920532227,3,1.8165700435638428,None,,,,,,,,,,,,,,,,,,13,2,2025-02-18_14h03.44.902,comp,2024.2.4,55.66694626418781,2025-02-18 14h03.56.777068 -0500,
103,103,0,critical,whd,20.0,4.0,upper,125.0,200.0,200.0,125.0,141.0,141.0,1,2.8194375038146973,None,,,,,0,0,0,0,0,103,103,95,479.44242429733276,,,,,,,,,,,,,,,,,,,,,,,,,,,,,,,,,,,,,,,,,,,,,,,,,,,,,,,,,,,,,,,,,,,,,,,,,,,,,,,,,125.0,200.0,200.0,125.0,141.0,141.0,4.0,4.1,-258,-253,0,20,229,-278,479.42789602279663,479.4280264377594,479.431458234787,479.44242429733276,479.589879989624,479.589879989624,479.589879989624,479.589879989624,479.589879989624,479.589879989624,479.589879989624,482.2751250267029,1,2.8194375038146973,None,,,,,,,,,,,,,,,,,,13,2,2025-02-18_14h03.44.902,comp,2024.2.4,55.66694626418781,2025-02-18 14h03.56.777068 -0500,
104,104,0,filler_square,None,None,None,None,None,None,None,None,None,None,2,1.346513032913208,None,,,,,0,0,0,0,0,104,104,180,482.2913353443146,,,,,,,,,,,,,,,,,,,,,,,,,,,,,,,,,,,,,,,,,,,,,,,,,,,,,,,,,,,,,,,,,,,,,,,,,,,,,,,,,81.92878559242205,100.00996867798784,113.01489237209982,113.01489237209982,87.1581042463449,70.239786442657,2.2,2.21,-203,-287,0,272,188,274,482.2769339084625,482.27701234817505,482.28019165992737,482.2913353443146,482.4418966770172,482.4418966770172,482.4418966770172,482.4418966770172,482.4418966770172,482.4418966770172,482.4418966770172,483.64239621162415,2,1.346513032913208,None,,,,,,,,,,,,,,,,,,13,2,2025-02-18_14h03.44.902,comp,2024.2.4,55.66694626418781,2025-02-18 14h03.56.777068 -0500,
105,105,0,filler_square,None,None,None,None,None,None,None,None,None,None,2,1.0671377182006836,None,,,,,0,0,0,0,0,105,105,187,483.6667890548706,,,,,,,,,,,,,,,,,,,,,,,,,,,,,,,,,,,,,,,,,,,,,,,,,,,,,,,,,,,,,,,,,,,,,,,,,,,,,,,,,72.73502144192042,70.56101623880424,112.85728412390304,112.85728412390304,72.92567154481989,89.75334141170413,4.0,4.1,-188,-260,0,-15,197,-255,483.64415168762207,483.6442322731018,483.6471128463745,483.6667890548706,483.8093206882477,483.8093206882477,483.8093206882477,483.8093206882477,483.8093206882477,483.8093206882477,483.8093206882477,484.74222230911255,2,1.0671377182006836,None,,,,,,,,,,,,,,,,,,13,2,2025-02-18_14h03.44.902,comp,2024.2.4,55.66694626418781,2025-02-18 14h03.56.777068 -0500,
106,106,0,filler_square,None,None,None,None,None,None,None,None,None,None,3,1.990368127822876,None,,,,,0,0,0,0,0,106,106,199,484.7590594291687,,,,,,,,,,,,,,,,,,,,,,,,,,,,,,,,,,,,,,,,,,,,,,,,,,,,,,,,,,,,,,,,,,,,,,,,,,,,,,,,,62.84455296478674,58.98272940623076,95.43092076893845,95.58800841651372,97.66644272032373,97.66644272032373,2.2,2.22,-173,265,0,-269,193,-270,484.74406385421753,484.74414706230164,484.74748396873474,484.7590594291687,484.9072813987732,484.9072813987732,484.9072813987732,484.9072813987732,484.9072813987732,484.9072813987732,484.9072813987732,486.75956559181213,3,1.990368127822876,None,,,,,,,,,,,,,,,,,,13,2,2025-02-18_14h03.44.902,comp,2024.2.4,55.66694626418781,2025-02-18 14h03.56.777068 -0500,
107,107,0,critical,hwd,35.0,3.0,upper,200.0,125.0,125.0,200.0,127.0,127.0,2,2.653571844100952,None,,,,,0,0,0,0,0,107,107,99,486.7758438587189,,,,,,,,,,,,,,,,,,,,,,,,,,,,,,,,,,,,,,,,,,,,,,,,,,,,,,,,,,,,,,,,,,,,,,,,,,,,,,,,,200.0,125.0,125.0,200.0,127.0,127.0,3.0,3.1,-258,260,0,17,260,-282,486.76122188568115,486.76130294799805,486.7646691799164,486.7758438587189,486.92715883255005,486.92715883255005,486.92715883255005,486.92715883255005,486.92715883255005,486.92715883255005,486.92715883255005,489.44281029701233,2,2.653571844100952,None,,,,,,,,,,,,,,,,,,13,2,2025-02-18_14h03.44.902,comp,2024.2.4,55.66694626418781,2025-02-18 14h03.56.777068 -0500,
108,108,0,filler_square,None,None,None,None,None,None,None,None,None,None,2,1.731261968612671,None,,,,,0,0,0,0,0,108,108,185,489.4590697288513,,,,,,,,,,,,,,,,,,,,,,,,,,,,,,,,,,,,,,,,,,,,,,,,,,,,,,,,,,,,,,,,,,,,,,,,,,,,,,,,,92.34209701703725,97.23962453126067,103.92074709872593,103.92074709872593,57.357168453367755,83.24056383766043,2.1,2.12,-197,-254,0,-254,190,273,489.4446337223053,489.444712638855,489.4475965499878,489.4590697288513,489.5985267162323,489.5985267162323,489.5985267162323,489.5985267162323,489.5985267162323,489.5985267162323,489.5985267162323,491.19824409484863,2,1.731261968612671,None,,,,,,,,,,,,,,,,,,13,2,2025-02-18_14h03.44.902,comp,2024.2.4,55.66694626418781,2025-02-18 14h03.56.777068 -0500,
109,109,0,critical,dwh,35.0,4.0,upper,127.0,127.0,125.0,200.0,200.0,125.0,2,4.254392147064209,None,,,,,0,0,0,0,0,109,109,65,491.2151665687561,,,,,,,,,,,,,,,,,,,,,,,,,,,,,,,,,,,,,,,,,,,,,,,,,,,,,,,,,,,,,,,,,,,,,,,,,,,,,,,,,127.0,127.0,125.0,200.0,200.0,125.0,4.0,4.2,-260,0,0,-250,258,-18,491.2000460624695,491.2001302242279,491.2034478187561,491.2151665687561,491.3609936237335,491.3609936237335,491.3609936237335,491.3609936237335,491.3609936237335,491.3609936237335,491.3609936237335,495.47955775260925,2,4.254392147064209,None,,,,,,,,,,,,,,,,,,13,2,2025-02-18_14h03.44.902,comp,2024.2.4,55.66694626418781,2025-02-18 14h03.56.777068 -0500,
110,110,0,critical,hdw,35.0,2.1,upper,200.0,125.0,127.0,127.0,125.0,200.0,3,2.7259745597839355,None,,,,,0,0,0,0,0,110,110,45,495.4954490661621,,,,,,,,,,,,,,,,,,,,,,,,,,,,,,,,,,,,,,,,,,,,,,,,,,,,,,,,,,,,,,,,,,,,,,,,,,,,,,,,,200.0,125.0,127.0,127.0,125.0,200.0,2.1,2.11,-222,264,0,267,260,-274,495.48112654685974,495.4812083244324,495.4845292568207,495.4954490661621,495.6509370803833,495.6509370803833,495.6509370803833,495.6509370803833,495.6509370803833,495.6509370803833,495.6509370803833,498.23654317855835,3,2.7259745597839355,None,,,,,,,,,,,,,,,,,,13,2,2025-02-18_14h03.44.902,comp,2024.2.4,55.66694626418781,2025-02-18 14h03.56.777068 -0500,
111,111,0,filler_square,None,None,None,None,None,None,None,None,None,None,1,2.212486505508423,None,,,,,0,0,0,0,0,111,111,204,498.25707364082336,,,,,,,,,,,,,,,,,,,,,,,,,,,,,,,,,,,,,,,,,,,,,,,,,,,,,,,,,,,,,,,,,,,,,,,,,,,,,,,,,60.474863235852474,60.474863235852474,57.48338225812453,57.77594319068345,57.099621259671885,57.9128875021241,1.0,1.1,-635,290,-480,254,-326,267,498.23833680152893,498.23841738700867,498.24127078056335,498.25707364082336,498.39281582832336,498.39281582832336,498.39281582832336,498.39281582832336,498.39281582832336,498.39281582832336,498.39281582832336,500.47965693473816,1,2.212486505508423,None,,,,,,,,,,,,,,,,,,13,2,2025-02-18_14h03.44.902,comp,2024.2.4,55.66694626418781,2025-02-18 14h03.56.777068 -0500,
112,112,0,critical,hwd,20.0,3.0,lower,133.0,57.0,57.0,133.0,78.0,78.0,2,2.4301352500915527,None,,,,,0,0,0,0,0,112,112,104,500.4958736896515,,,,,,,,,,,,,,,,,,,,,,,,,,,,,,,,,,,,,,,,,,,,,,,,,,,,,,,,,,,,,,,,,,,,,,,,,,,,,,,,,133.0,57.0,57.0,133.0,78.0,78.0,3.0,3.2,-191,-261,0,-16,202,274,500.48125100135803,500.4813311100006,500.48427152633667,500.4958736896515,500.65381813049316,500.65381813049316,500.65381813049316,500.65381813049316,500.65381813049316,500.65381813049316,500.65381813049316,502.9324617385864,2,2.4301352500915527,None,,,,,,,,,,,,,,,,,,13,2,2025-02-18_14h03.44.902,comp,2024.2.4,55.66694626418781,2025-02-18 14h03.56.777068 -0500,
113,113,0,critical,dhw,35.0,2.1,upper,127.0,127.0,200.0,125.0,125.0,200.0,3,1.9091615676879883,None,,,,,0,0,0,0,0,113,113,1,502.9532091617584,,,,,,,,,,,,,,,,,,,,,,,,,,,,,,,,,,,,,,,,,,,,,,,,,,,,,,,,,,,,,,,,,,,,,,,,,,,,,,,,,127.0,127.0,200.0,125.0,125.0,200.0,2.1,2.12,-222,-254,0,-262,258,277,502.9340136051178,502.9341199398041,502.93742966651917,502.9532091617584,503.0981729030609,503.0981729030609,503.0981729030609,503.0981729030609,503.0981729030609,503.0981729030609,503.0981729030609,504.869512796402,3,1.9091615676879883,None,,,,,,,,,,,,,,,,,,13,2,2025-02-18_14h03.44.902,comp,2024.2.4,55.66694626418781,2025-02-18 14h03.56.777068 -0500,
114,114,0,critical,wdh,20.0,1.0,lower,57.0,133.0,78.0,78.0,133.0,57.0,1,2.2726919651031494,None,,,,,0,0,0,0,0,114,114,78,504.8856601715088,,,,,,,,,,,,,,,,,,,,,,,,,,,,,,,,,,,,,,,,,,,,,,,,,,,,,,,,,,,,,,,,,,,,,,,,,,,,,,,,,57.0,133.0,78.0,78.0,133.0,57.0,1.0,1.1,-682,277,-480,279,-316,255,504.87118005752563,504.8713126182556,504.87472200393677,504.8856601715088,505.03198504447937,505.03198504447937,505.03198504447937,505.03198504447937,505.03198504447937,505.03198504447937,505.03198504447937,507.16491985321045,1,2.2726919651031494,None,,,,,,,,,,,,,,,,,,13,2,2025-02-18_14h03.44.902,comp,2024.2.4,55.66694626418781,2025-02-18 14h03.56.777068 -0500,
115,115,0,critical,wdh,20.0,3.0,lower,57.0,133.0,78.0,78.0,133.0,57.0,3,1.9613726139068604,None,,,,,0,0,0,0,0,115,115,80,507.1812810897827,,,,,,,,,,,,,,,,,,,,,,,,,,,,,,,,,,,,,,,,,,,,,,,,,,,,,,,,,,,,,,,,,,,,,,,,,,,,,,,,,57.0,133.0,78.0,78.0,133.0,57.0,3.0,3.1,-202,269,0,-18,164,-269,507.1664228439331,507.16650128364563,507.1695907115936,507.1812810897827,507.34389424324036,507.34389424324036,507.34389424324036,507.34389424324036,507.34389424324036,507.34389424324036,507.34389424324036,509.1506485939026,3,1.9613726139068604,None,,,,,,,,,,,,,,,,,,13,2,2025-02-18_14h03.44.902,comp,2024.2.4,55.66694626418781,2025-02-18 14h03.56.777068 -0500,
116,116,0,filler_random,None,None,None,None,None,None,None,None,None,None,3,2.76562762260437,None,,,,,0,0,0,0,0,116,116,159,509.16803097724915,,,,,,,,,,,,,,,,,,,,,,,,,,,,,,,,,,,,,,,,,,,,,,,,,,,,,,,,,,,,,,,,,,,,,,,,,,,,,,,,,126.1470468298808,168.11787052675305,176.19377714896024,127.5625228415483,149.4211211247678,158.77114837394276,4.0,4.2,-244,-18,0,-254,239,-13,509.1523983478546,509.1524784564972,509.15637278556824,509.16803097724915,509.3167281150818,509.3167281150818,509.3167281150818,509.3167281150818,509.3167281150818,509.3167281150818,509.3167281150818,511.9508912563324,3,2.76562762260437,None,,,,,,,,,,,,,,,,,,13,2,2025-02-18_14h03.44.902,comp,2024.2.4,55.66694626418781,2025-02-18 14h03.56.777068 -0500,
117,117,0,filler_random,None,None,None,None,None,None,None,None,None,None,2,2.702359914779663,None,,,,,0,0,0,0,0,117,117,132,511.96727108955383,,,,,,,,,,,,,,,,,,,,,,,,,,,,,,,,,,,,,,,,,,,,,,,,,,,,,,,,,,,,,,,,,,,,,,,,,,,,,,,,,118.20142470662618,191.11799155160367,183.64488347495399,163.76482656864482,147.34154665569784,156.38814161324666,4.0,4.1,-273,-281,0,2,256,-251,511.9529175758362,511.953054189682,511.956716299057,511.96727108955383,512.1174051761627,512.1174051761627,512.1174051761627,512.1174051761627,512.1174051761627,512.1174051761627,512.1174051761627,514.6838405132294,2,2.702359914779663,None,,,,,,,,,,,,,,,,,,13,2,2025-02-18_14h03.44.902,comp,2024.2.4,55.66694626418781,2025-02-18 14h03.56.777068 -0500,
118,118,0,filler_square,None,None,None,None,None,None,None,None,None,None,1,3.571281671524048,None,,,,,0,0,0,0,0,118,118,179,514.6991391181946,,,,,,,,,,,,,,,,,,,,,,,,,,,,,,,,,,,,,,,,,,,,,,,,,,,,,,,,,,,,,,,,,,,,,,,,,,,,,,,,,116.76540169601066,116.76540169601066,73.89060609083735,62.2814117410084,107.02145727564402,114.77888095950067,2.1,2.12,-186,-270,0,-261,185,260,514.6856362819672,514.6857130527496,514.6888372898102,514.6991391181946,514.8504595756531,514.8504595756531,514.8504595756531,514.8504595756531,514.8504595756531,514.8504595756531,514.8504595756531,518.2767705917358,1,3.571281671524048,None,,,,,,,,,,,,,,,,,,13,2,2025-02-18_14h03.44.902,comp,2024.2.4,55.66694626418781,2025-02-18 14h03.56.777068 -0500,
119,119,0,filler_square,None,None,None,None,None,None,None,None,None,None,3,1.465907096862793,None,,,,,0,0,0,0,0,119,119,182,518.2915494441986,,,,,,,,,,,,,,,,,,,,,,,,,,,,,,,,,,,,,,,,,,,,,,,,,,,,,,,,,,,,,,,,,,,,,,,,,,,,,,,,,69.57358944853098,80.86170103677003,73.89310923480323,61.980995541741706,89.35846727702535,89.35846727702535,2.2,2.21,-167,-277,0,262,172,258,518.2785630226135,518.2786419391632,518.2815141677856,518.2915494441986,518.4370374679565,518.4370374679565,518.4370374679565,518.4370374679565,518.4370374679565,518.4370374679565,518.4370374679565,519.7689030170441,3,1.465907096862793,None,,,,,,,,,,,,,,,,,,13,2,2025-02-18_14h03.44.902,comp,2024.2.4,55.66694626418781,2025-02-18 14h03.56.777068 -0500,
120,120,0,critical,dhw,20.0,2.1,upper,141.0,141.0,200.0,125.0,125.0,200.0,3,2.948085069656372,None,,,,,0,0,0,0,0,120,120,3,519.7858574390411,,,,,,,,,,,,,,,,,,,,,,,,,,,,,,,,,,,,,,,,,,,,,,,,,,,,,,,,,,,,,,,,,,,,,,,,,,,,,,,,,141.0,141.0,200.0,125.0,125.0,200.0,2.1,2.11,-229,257,0,251,258,-269,519.7705354690552,519.7706677913666,519.7740004062653,519.7858574390411,519.9263350963593,519.9263350963593,519.9263350963593,519.9263350963593,519.9263350963593,519.9263350963593,519.9263350963593,522.7367196083069,3,2.948085069656372,None,,,,,,,,,,,,,,,,,,13,2,2025-02-18_14h03.44.902,comp,2024.2.4,55.66694626418781,2025-02-18 14h03.56.777068 -0500,
121,121,0,critical,wdh,35.0,3.0,upper,125.0,200.0,127.0,127.0,200.0,125.0,3,3.722839117050171,None,,,,,0,0,0,0,0,121,121,75,522.7556257247925,,,,,,,,,,,,,,,,,,,,,,,,,,,,,,,,,,,,,,,,,,,,,,,,,,,,,,,,,,,,,,,,,,,,,,,,,,,,,,,,,125.0,200.0,127.0,127.0,200.0,125.0,3.0,3.1,-260,284,0,1,222,-270,522.738284111023,522.7383649349213,522.7412283420563,522.7556257247925,522.9129183292389,522.9129183292389,522.9129183292389,522.9129183292389,522.9129183292389,522.9129183292389,522.9129183292389,526.489022731781,3,3.722839117050171,None,,,,,,,,,,,,,,,,,,13,2,2025-02-18_14h03.44.902,comp,2024.2.4,55.66694626418781,2025-02-18 14h03.56.777068 -0500,
122,122,0,critical,dwh,35.0,1.0,upper,127.0,127.0,125.0,200.0,200.0,125.0,2,5.516299247741699,None,,,,,0,0,0,0,0,122,122,61,526.5052437782288,,,,,,,,,,,,,,,,,,,,,,,,,,,,,,,,,,,,,,,,,,,,,,,,,,,,,,,,,,,,,,,,,,,,,,,,,,,,,,,,,127.0,127.0,125.0,200.0,200.0,125.0,1.0,1.1,-740,287,-480,279,-222,257,526.4906437397003,526.4907238483429,526.4941112995148,526.5052437782288,526.6614422798157,526.6614422798157,526.6614422798157,526.6614422798157,526.6614422798157,526.6614422798157,526.6614422798157,532.0401585102081,2,5.516299247741699,None,,,,,,,,,,,,,,,,,,13,2,2025-02-18_14h03.44.902,comp,2024.2.4,55.66694626418781,2025-02-18 14h03.56.777068 -0500,
123,123,0,filler_random,None,None,None,None,None,None,None,None,None,None,1,0.9420654773712158,None,,,,,0,0,0,0,0,123,123,136,532.0562343597412,,,,,,,,,,,,,,,,,,,,,,,,,,,,,,,,,,,,,,,,,,,,,,,,,,,,,,,,,,,,,,,,,,,,,,,,,,,,,,,,,135.6143053893959,139.50355634697252,94.03620052757746,73.96114759006278,76.56074693374285,126.18234546358757,1.0,1.2,-203,8,0,14,196,14,532.0418479442596,532.0419261455536,532.045051574707,532.0562343597412,532.2073941230774,532.2073941230774,532.2073941230774,532.2073941230774,532.2073941230774,532.2073941230774,532.2073941230774,533.0078024864197,1,0.9420654773712158,None,,,,,,,,,,,,,,,,,,13,2,2025-02-18_14h03.44.902,comp,2024.2.4,55.66694626418781,2025-02-18 14h03.56.777068 -0500,
124,124,0,filler_square,None,None,None,None,None,None,None,None,None,None,1,1.0375392436981201,None,,,,,0,0,0,0,0,124,124,205,533.0239870548248,,,,,,,,,,,,,,,,,,,,,,,,,,,,,,,,,,,,,,,,,,,,,,,,,,,,,,,,,,,,,,,,,,,,,,,,,,,,,,,,,183.86713106133612,183.86713106133612,173.717536461596,118.80650544078014,179.65124687197113,85.27360389949541,4.0,4.2,-247,-9,0,-284,198,0,533.0096662044525,533.0097680091858,533.0132019519806,533.0239870548248,533.1723041534424,533.1723041534424,533.1723041534424,533.1723041534424,533.1723041534424,533.1723041534424,533.1723041534424,534.0748403072357,1,1.0375392436981201,None,,,,,,,,,,,,,,,,,,13,2,2025-02-18_14h03.44.902,comp,2024.2.4,55.66694626418781,2025-02-18 14h03.56.777068 -0500,
125,125,0,filler_random,None,None,None,None,None,None,None,None,None,None,1,1.5306408405303955,None,,,,,0,0,0,0,0,125,125,135,534.0908300876617,,,,,,,,,,,,,,,,,,,,,,,,,,,,,,,,,,,,,,,,,,,,,,,,,,,,,,,,,,,,,,,,,,,,,,,,,,,,,,,,,122.12347218968107,167.41516255960192,103.87172629970269,174.49859265377262,70.78827880803473,136.24251450038435,1.0,1.2,-267,9,0,-17,251,14,534.0765571594238,534.0766353607178,534.0797026157379,534.0908300876617,534.2406239509583,534.2406239509583,534.2406239509583,534.2406239509583,534.2406239509583,534.2406239509583,534.2406239509583,535.6251873970032,1,1.5306408405303955,None,,,,,,,,,,,,,,,,,,13,2,2025-02-18_14h03.44.902,comp,2024.2.4,55.66694626418781,2025-02-18 14h03.56.777068 -0500,
126,126,0,critical,hdw,20.0,3.0,upper,200.0,125.0,141.0,141.0,125.0,200.0,3,1.757399082183838,None,,,,,0,0,0,0,0,126,126,117,535.6415994167328,,,,,,,,,,,,,,,,,,,,,,,,,,,,,,,,,,,,,,,,,,,,,,,,,,,,,,,,,,,,,,,,,,,,,,,,,,,,,,,,,200.0,125.0,141.0,141.0,125.0,200.0,3.0,3.1,-229,257,0,-8,266,-270,535.6266896724701,535.6267886161804,535.6308228969574,535.6415994167328,535.7837288379669,535.7837288379669,535.7837288379669,535.7837288379669,535.7837288379669,535.7837288379669,535.7837288379669,537.4095697402954,3,1.757399082183838,None,,,,,,,,,,,,,,,,,,13,2,2025-02-18_14h03.44.902,comp,2024.2.4,55.66694626418781,2025-02-18 14h03.56.777068 -0500,
127,127,0,filler_random,None,None,None,None,None,None,None,None,None,None,2,3.276298761367798,None,,,,,0,0,0,0,0,127,127,133,537.4259946346283,,,,,,,,,,,,,,,,,,,,,,,,,,,,,,,,,,,,,,,,,,,,,,,,,,,,,,,,,,,,,,,,,,,,,,,,,,,,,,,,,182.3178474459067,141.25047121157138,116.30561928413977,189.41590863333803,70.03555254154047,79.22347160121886,4.0,4.2,-261,-6,0,-262,230,-7,537.4112567901611,537.4113383293152,537.4148905277252,537.4259946346283,537.5817189216614,537.5817189216614,537.5817189216614,537.5817189216614,537.5817189216614,537.5817189216614,537.5817189216614,540.712236404419,2,3.276298761367798,None,,,,,,,,,,,,,,,,,,13,2,2025-02-18_14h03.44.902,comp,2024.2.4,55.66694626418781,2025-02-18 14h03.56.777068 -0500,
128,128,0,critical,hwd,20.0,4.0,lower,133.0,57.0,57.0,133.0,78.0,78.0,1,8.28562593460083,None,,,,,0,0,0,0,0,128,128,106,540.7278728485107,,,,,,,,,,,,,,,,,,,,,,,,,,,,,,,,,,,,,,,,,,,,,,,,,,,,,,,,,,,,,,,,,,,,,,,,,,,,,,,,,133.0,57.0,57.0,133.0,78.0,78.0,4.0,4.2,-191,-18,0,-254,202,-10,540.7138602733612,540.713939666748,540.7168898582458,540.7278728485107,540.8762412071228,540.8762412071228,540.8762412071228,540.8762412071228,540.8762412071228,540.8762412071228,540.8762412071228,549.0304291248322,1,8.28562593460083,None,,,,,,,,,,,,,,,,,,13,2,2025-02-18_14h03.44.902,comp,2024.2.4,55.66694626418781,2025-02-18 14h03.56.777068 -0500,
129,129,0,filler_random,None,None,None,None,None,None,None,None,None,None,3,0.9590907096862793,None,,,,,0,0,0,0,0,129,129,144,549.0471427440643,,,,,,,,,,,,,,,,,,,,,,,,,,,,,,,,,,,,,,,,,,,,,,,,,,,,,,,,,,,,,,,,,,,,,,,,,,,,,,,,,72.48588886081279,98.90441663068577,79.26745040471098,83.4189447378838,166.54767975028983,168.12602453452894,4.0,4.1,-187,-290,0,20,222,-282,549.0323443412781,549.0324788093567,549.0359752178192,549.0471427440643,549.1954281330109,549.1954281330109,549.1954281330109,549.1954281330109,549.1954281330109,549.1954281330109,549.1954281330109,550.0139625072479,3,0.9590907096862793,None,,,,,,,,,,,,,,,,,,13,2,2025-02-18_14h03.44.902,comp,2024.2.4,55.66694626418781,2025-02-18 14h03.56.777068 -0500,
130,130,0,critical,hwd,20.0,2.1,lower,133.0,57.0,57.0,133.0,78.0,78.0,2,3.9512081146240234,None,,,,,0,0,0,0,0,130,130,18,550.0304358005524,,,,,,,,,,,,,,,,,,,,,,,,,,,,,,,,,,,,,,,,,,,,,,,,,,,,,,,,,,,,,,,,,,,,,,,,,,,,,,,,,133.0,57.0,57.0,133.0,78.0,78.0,2.1,2.12,-191,-284,0,-265,202,287,550.0156810283661,550.0158457756042,550.0196521282196,550.0304358005524,550.1796412467957,550.1796412467957,550.1796412467957,550.1796412467957,550.1796412467957,550.1796412467957,550.1796412467957,553.9971351623535,2,3.9512081146240234,None,,,,,,,,,,,,,,,,,,13,2,2025-02-18_14h03.44.902,comp,2024.2.4,55.66694626418781,2025-02-18 14h03.56.777068 -0500,
131,131,0,critical,wdh,35.0,4.0,lower,57.0,133.0,70.0,70.0,133.0,57.0,3,3.26570987701416,None,,,,,0,0,0,0,0,131,131,76,554.012419462204,,,,,,,,,,,,,,,,,,,,,,,,,,,,,,,,,,,,,,,,,,,,,,,,,,,,,,,,,,,,,,,,,,,,,,,,,,,,,,,,,57.0,133.0,70.0,70.0,133.0,57.0,4.0,4.2,-198,-11,0,-275,160,-7,553.9986188411713,553.9986970424652,554.0020966529846,554.012419462204,554.1631140708923,554.1631140708923,554.1631140708923,554.1631140708923,554.1631140708923,554.1631140708923,554.1631140708923,557.2886307239532,3,3.26570987701416,None,,,,,,,,,,,,,,,,,,13,2,2025-02-18_14h03.44.902,comp,2024.2.4,55.66694626418781,2025-02-18 14h03.56.777068 -0500,
132,132,0,critical,hwd,35.0,2.1,upper,200.0,125.0,125.0,200.0,127.0,127.0,2,3.6961352825164795,None,,,,,0,0,0,0,0,132,132,41,557.3094954490662,,,,,,,,,,,,,,,,,,,,,,,,,,,,,,,,,,,,,,,,,,,,,,,,,,,,,,,,,,,,,,,,,,,,,,,,,,,,,,,,,200.0,125.0,125.0,200.0,127.0,127.0,2.1,2.12,-258,-281,0,-252,260,261,557.29030585289,557.2904427051544,557.2936596870422,557.3094954490662,557.4480640888214,557.4480640888214,557.4480640888214,557.4480640888214,557.4480640888214,557.4480640888214,557.4480640888214,561.0213453769684,2,3.6961352825164795,None,,,,,,,,,,,,,,,,,,13,2,2025-02-18_14h03.44.902,comp,2024.2.4,55.66694626418781,2025-02-18 14h03.56.777068 -0500,
133,133,0,critical,whd,20.0,1.0,lower,57.0,133.0,133.0,57.0,78.0,78.0,2,1.9457907676696777,None,,,,,0,0,0,0,0,133,133,90,561.0365853309631,,,,,,,,,,,,,,,,,,,,,,,,,,,,,,,,,,,,,,,,,,,,,,,,,,,,,,,,,,,,,,,,,,,,,,,,,,,,,,,,,57.0,133.0,133.0,57.0,78.0,78.0,1.0,1.1,-671,282,-480,288,-316,257,561.0228698253632,561.0229496955872,561.0258193016052,561.0365853309631,561.1820266246796,561.1820266246796,561.1820266246796,561.1820266246796,561.1820266246796,561.1820266246796,561.1820266246796,562.9899764060974,2,1.9457907676696777,None,,,,,,,,,,,,,,,,,,13,2,2025-02-18_14h03.44.902,comp,2024.2.4,55.66694626418781,2025-02-18 14h03.56.777068 -0500,
134,134,0,filler_random,None,None,None,None,None,None,None,None,None,None,1,1.5256876945495605,None,,,,,0,0,0,0,0,134,134,149,563.0079164505005,,,,,,,,,,,,,,,,,,,,,,,,,,,,,,,,,,,,,,,,,,,,,,,,,,,,,,,,,,,,,,,,,,,,,,,,,,,,,,,,,154.62577813048608,193.466477818893,155.83047144504724,175.16660397924167,113.97621441253355,182.37547617196986,3.0,3.2,-280,-288,0,-15,275,252,562.9916791915894,562.9918732643127,562.994767665863,563.0079164505005,563.154501914978,563.154501914978,563.154501914978,563.154501914978,563.154501914978,563.154501914978,563.154501914978,564.5500829219818,1,1.5256876945495605,None,,,,,,,,,,,,,,,,,,13,2,2025-02-18_14h03.44.902,comp,2024.2.4,55.66694626418781,2025-02-18 14h03.56.777068 -0500,
135,135,0,critical,dhw,20.0,2.1,lower,78.0,78.0,133.0,57.0,57.0,133.0,2,2.535818099975586,None,,,,,0,0,0,0,0,135,135,26,564.5656929016113,,,,,,,,,,,,,,,,,,,,,,,,,,,,,,,,,,,,,,,,,,,,,,,,,,,,,,,,,,,,,,,,,,,,,,,,,,,,,,,,,78.0,78.0,133.0,57.0,57.0,133.0,2.1,2.12,-164,-256,0,-257,191,281,564.5515837669373,564.5516607761383,564.5548903942108,564.5656929016113,564.719242811203,564.719242811203,564.719242811203,564.719242811203,564.719242811203,564.719242811203,564.719242811203,567.1162185668945,2,2.535818099975586,None,,,,,,,,,,,,,,,,,,13,2,2025-02-18_14h03.44.902,comp,2024.2.4,55.66694626418781,2025-02-18 14h03.56.777068 -0500,
136,136,0,critical,dhw,35.0,4.0,upper,127.0,127.0,200.0,125.0,125.0,200.0,3,1.009960651397705,None,,,,,0,0,0,0,0,136,136,53,567.1315393447876,,,,,,,,,,,,,,,,,,,,,,,,,,,,,,,,,,,,,,,,,,,,,,,,,,,,,,,,,,,,,,,,,,,,,,,,,,,,,,,,,127.0,127.0,200.0,125.0,125.0,200.0,4.0,4.2,-222,-15,0,-253,258,18,567.117858171463,567.1179721355438,567.121267080307,567.1315393447876,567.2838096618652,567.2838096618652,567.2838096618652,567.2838096618652,567.2838096618652,567.2838096618652,567.2838096618652,568.1526296138763,3,1.009960651397705,None,,,,,,,,,,,,,,,,,,13,2,2025-02-18_14h03.44.902,comp,2024.2.4,55.66694626418781,2025-02-18 14h03.56.777068 -0500,
137,137,0,filler_random,None,None,None,None,None,None,None,None,None,None,2,1.2944309711456299,None,,,,,0,0,0,0,0,137,137,165,568.1689546108246,,,,,,,,,,,,,,,,,,,,,,,,,,,,,,,,,,,,,,,,,,,,,,,,,,,,,,,,,,,,,,,,,,,,,,,,,,,,,,,,,186.35793120255806,64.94886670844407,78.13630412924141,120.81180886856603,140.00140457327905,79.69782583943508,3.0,3.2,-189,-282,0,-17,196,285,568.154346704483,568.1544268131256,568.1575846672058,568.1689546108246,568.3181762695312,568.3181762695312,568.3181762695312,568.3181762695312,568.3181762695312,568.3181762695312,568.3181762695312,569.4683196544647,2,1.2944309711456299,None,,,,,,,,,,,,,,,,,,13,2,2025-02-18_14h03.44.902,comp,2024.2.4,55.66694626418781,2025-02-18 14h03.56.777068 -0500,
138,138,0,filler_random,None,None,None,None,None,None,None,None,None,None,2,1.4660229682922363,None,,,,,0,0,0,0,0,138,138,143,569.4844264984131,,,,,,,,,,,,,,,,,,,,,,,,,,,,,,,,,,,,,,,,,,,,,,,,,,,,,,,,,,,,,,,,,,,,,,,,,,,,,,,,,66.69576733397699,181.74439050599457,196.9486560274212,121.11511264071845,105.1043984857282,133.23969247032886,4.0,4.2,-247,10,0,-270,223,16,569.4699850082397,569.4700629711151,569.4729726314545,569.4844264984131,569.638542175293,569.638542175293,569.638542175293,569.638542175293,569.638542175293,569.638542175293,569.638542175293,570.9537718296051,2,1.4660229682922363,None,,,,,,,,,,,,,,,,,,13,2,2025-02-18_14h03.44.902,comp,2024.2.4,55.66694626418781,2025-02-18 14h03.56.777068 -0500,
139,139,0,critical,hdw,35.0,3.0,lower,133.0,57.0,70.0,70.0,57.0,133.0,1,1.5643107891082764,None,,,,,0,0,0,0,0,139,139,110,570.9692370891571,,,,,,,,,,,,,,,,,,,,,,,,,,,,,,,,,,,,,,,,,,,,,,,,,,,,,,,,,,,,,,,,,,,,,,,,,,,,,,,,,133.0,57.0,70.0,70.0,57.0,133.0,3.0,3.1,-160,280,0,-14,198,-280,570.9552822113037,570.9553611278534,570.9584450721741,570.9692370891571,571.118816614151,571.118816614151,571.118816614151,571.118816614151,571.118816614151,571.118816614151,571.118816614151,572.5374262332916,1,1.5643107891082764,None,,,,,,,,,,,,,,,,,,13,2,2025-02-18_14h03.44.902,comp,2024.2.4,55.66694626418781,2025-02-18 14h03.56.777068 -0500,
140,140,0,catch,None,None,None,None,None,None,None,None,None,None,2,1.0120306015014648,None,,,,,0,0,0,0,0,140,140,126,572.5542840957642,,,,,,,,,,,,,,,,,,,,,,,,,,,,,,,,,,,,,,,,,,,,,,,,,,,,,,,,,,,,,,,,,,,,,,,,,,,,,,,,,143,182,84,106,113,77,4.0,4.2,-240,-7,0,-265,188,3,572.5394749641418,572.5396111011505,572.5435373783112,572.5542840957642,572.711704492569,572.711704492569,572.711704492569,572.711704492569,572.711704492569,572.711704492569,572.711704492569,573.5689494609833,2,1.0120306015014648,None,,,,,,,,,,,,,,,,,,13,2,2025-02-18_14h03.44.902,comp,2024.2.4,55.66694626418781,2025-02-18 14h03.56.777068 -0500,
