thisN,thisTrialN,thisRepN,effect,order,distance,config,diag,h_1,w_1,h_2,w_2,h_3,w_3,rect_choice.keys,rect_choice.rt,rect_choice.duration,instructions_loop.thisRepN,instructions_loop.thisTrialN,instructions_loop.thisN,instructions_loop.thisIndex,blocks.thisRepN,blocks.thisTrialN,blocks.thisN,blocks.thisIndex,trials.thisRepN,trials.thisTrialN,trials.thisN,trials.thisIndex,thisRow.t,notes,consent.started,agree_button.started,decline_button.started,consent_img.started,mouse.started,consent.stopped,agree_button.numClicks,agree_button.timesOn,agree_button.timesOff,decline_button.numClicks,decline_button.timesOn,decline_button.timesOff,mouse.x,mouse.y,mouse.leftButton,mouse.midButton,mouse.rightButton,mouse.time,mouse.clicked_name,exp_params.started,exp_params.stopped,welcome.started,welcome_text.started,welcome_text.stopped,welcome.stopped,instructions_1.started,instructions_1_text_1.started,instructions_1_text_2.started,key_resp.started,instructions_1.stopped,instructions_loop.key_resp.keys,instructions_loop.key_resp.rt,instructions_loop.key_resp.duration,instructions_2.started,instructions_2_text_1.started,instructions_2_text_2.started,key_resp_2.started,instructions_2.stopped,instructions_loop.key_resp_2.keys,instructions_loop.key_resp_2.rt,instructions_loop.key_resp_2.duration,instructions_3.started,instructions_3_text_1.started,r1_instr3.started,r2_instr3.started,r3_instr3.started,r1_instr3_label.started,r2_instr3_label.started,r3_instr3_label.started,instructions_3_text_3.started,instructions_3_text_4.started,key_resp_3.started,instructions_3.stopped,instructions_loop.key_resp_3.keys,instructions_loop.key_resp_3.rt,instructions_loop.key_resp_3.duration,instructions_4.started,instructions_4_text_1.started,instructions_4_text_3.started,instructions_4_text_2.started,key_resp_4.started,instructions_4.stopped,instructions_loop.key_resp_4.keys,instructions_loop.key_resp_4.rt,instructions_loop.key_resp_4.duration,instructions_5.started,instructions_5_text_1.started,instructions_5_text_2.started,key_resp_5.started,instructions_5.stopped,instructions_loop.key_resp_5.keys,instructions_loop.key_resp_5.rt,instructions_loop.key_resp_5.duration,start_exp.started,start_exp_text.started,key_resp_6.started,start_exp.stopped,key_resp_6.keys,key_resp_6.rt,key_resp_6.duration,h_1_tmp,w_1_tmp,h_2_tmp,w_2_tmp,h_3_tmp,w_3_tmp,config_tmp,config_tmp_1,r_1_x,r_1_y,r_2_x,r_2_y,r_3_x,r_3_y,pre_trial.started,pre_trial.stopped,choice_trial.started,rect_choice.started,r_1.started,r_2.started,r_3.started,r_1_label.started,r_2_label.started,r_3_label.started,prompt.started,choice_trial.stopped,trials.rect_choice.keys,trials.rect_choice.rt,trials.rect_choice.duration,end_block.started,end_block_text.started,end_block.stopped,end.started,end_text.started,key_resp_7.started,end.stopped,key_resp_7.keys,key_resp_7.rt,key_resp_7.duration,debriefing.started,debrief_form.started,end_debrief.started,debriefing.stopped,end_debrief.keys,end_debrief.rt,end_debrief.duration,participant,computer,date,expName,psychopyVersion,frameRate,expStart,
,,,,,,,,,,,,,,,,,,,,,,,,,,,,,,,0.017281055450439453,0.04326939582824707,0.04326939582824707,0.04326939582824707,0.016714096069335938,15.145130157470703,1,[15.100659608840942],[15.10067105293274],0,,,[-76.0],[-497.0],[1],[0],[0],[15.127134084701538],['agree_button'],,,,,,,,,,,,,,,,,,,,,,,,,,,,,,,,,,,,,,,,,,,,,,,,,,,,,,,,,,,,,,,,,,,,,,,,,,,,,,,,,,,,,,,,,,,,,,,,,,,,,,,,,,,,140,5,2025-02-27_10h27.38.063,comp,2024.2.4,60.093586756872156,2025-02-27 10h27.49.100372 -0500,
,,,,,,,,,,,,,,,,,,,,,,,,,,,,,,,,,,,,,,,,,,,,,,,,,,15.145395040512085,15.145427942276001,,,,,,,,,,,,,,,,,,,,,,,,,,,,,,,,,,,,,,,,,,,,,,,,,,,,,,,,,,,,,,,,,,,,,,,,,,,,,,,,,,,,,,,,,,,,,,,,,,,,,,,,,,140,5,2025-02-27_10h27.38.063,comp,2024.2.4,60.093586756872156,2025-02-27 10h27.49.100372 -0500,
,,,,,,,,,,,,,,,,,,,,,,,,,,,,,,,,,,,,,,,,,,,,,,,,,,,,15.1454496383667,15.158632278442383,17.15975522994995,17.141923666000366,,,,,,,,,,,,,,,,,,,,,,,,,,,,,,,,,,,,,,,,,,,,,,,,,,,,,,,,,,,,,,,,,,,,,,,,,,,,,,,,,,,,,,,,,,,,,,,,,,,,,,140,5,2025-02-27_10h27.38.063,comp,2024.2.4,60.093586756872156,2025-02-27 10h27.49.100372 -0500,
0,0,0,,,,,,,,,,,,,,,0,0,0,0,,,,,,,,,17.15975522994995,,,,,,,,,,,,,,,,,,,,,,,,,,,17.142613172531128,17.15975522994995,17.15975522994995,18.658499479293823,21.560146808624268,space,2.8946638107299805,None,21.560229539871216,21.575870990753174,21.575870990753174,23.075276136398315,28.326541662216187,space,5.24562406539917,None,28.326650857925415,28.34910011291504,28.34910011291504,28.34910011291504,28.34910011291504,28.34910011291504,28.34910011291504,28.34910011291504,28.34910011291504,28.34910011291504,29.825619220733643,40.593297719955444,space,10.750484943389893,None,40.593385457992554,40.60879373550415,40.60879373550415,40.60879373550415,42.108545541763306,47.95976161956787,space,5.84444522857666,None,47.95984745025635,47.97547650337219,47.97547650337219,49.47514224052429,49.80975604057312,space,0.33352231979370117,None,49.80986976623535,49.825175285339355,49.825175285339355,50.90932559967041,space,1.071291208267212,None,,,,,,,,,,,,,,,,,,,,,,,,,,,,,,,,,,,,,,,,,,,,,,,140,5,2025-02-27_10h27.38.063,comp,2024.2.4,60.093586756872156,2025-02-27 10h27.49.100372 -0500,
0,0,0,critical,hdw,35.0,4.0,lower,133.0,57.0,70.0,70.0,57.0,133.0,1,4.216151714324951,None,,,,,0,0,0,0,0,0,0,112,50.968544721603394,,,,,,,,,,,,,,,,,,,,,,,,,,,,,,,,,,,,,,,,,,,,,,,,,,,,,,,,,,,,,,,,,,,,,,,,,,,,,,,,,,133.0,57.0,70.0,70.0,57.0,133.0,4.0,4.1,-160,-252,0,-16,198,-256,50.95497488975525,50.95502161979675,50.957026720047,50.968544721603394,51.11150074005127,51.11150074005127,51.11150074005127,51.11150074005127,51.11150074005127,51.11150074005127,51.11150074005127,55.192994356155396,1,4.216151714324951,None,,,,,,,,,,,,,,,,,,140,5,2025-02-27_10h27.38.063,comp,2024.2.4,60.093586756872156,2025-02-27 10h27.49.100372 -0500,
1,1,0,critical,wdh,35.0,2.1,lower,57.0,133.0,70.0,70.0,133.0,57.0,3,5.79211950302124,None,,,,,0,0,0,0,0,1,1,32,55.20864772796631,,,,,,,,,,,,,,,,,,,,,,,,,,,,,,,,,,,,,,,,,,,,,,,,,,,,,,,,,,,,,,,,,,,,,,,,,,,,,,,,,,57.0,133.0,70.0,70.0,133.0,57.0,2.1,2.12,-198,-252,0,-283,160,252,55.19381403923035,55.19385600090027,55.1963906288147,55.20864772796631,55.358431339263916,55.358431339263916,55.358431339263916,55.358431339263916,55.358431339263916,55.358431339263916,55.358431339263916,61.009514808654785,3,5.79211950302124,None,,,,,,,,,,,,,,,,,,140,5,2025-02-27_10h27.38.063,comp,2024.2.4,60.093586756872156,2025-02-27 10h27.49.100372 -0500,
2,2,0,filler_square,None,None,None,None,None,None,None,None,None,None,3,2.750297784805298,None,,,,,0,0,0,0,0,2,2,186,61.02532696723938,,,,,,,,,,,,,,,,,,,,,,,,,,,,,,,,,,,,,,,,,,,,,,,,,,,,,,,,,,,,,,,,,,,,,,,,,,,,,,,,,,63.24629337101173,69.7808754501924,64.02953176405197,65.04683784435147,72.53521005410454,72.53521005410454,3.0,3.2,-163,-277,0,1,165,282,61.010470151901245,61.01051354408264,61.01256203651428,61.02532696723938,61.17545795440674,61.17545795440674,61.17545795440674,61.17545795440674,61.17545795440674,61.17545795440674,61.17545795440674,63.792728900909424,3,2.750297784805298,None,,,,,,,,,,,,,,,,,,140,5,2025-02-27_10h27.38.063,comp,2024.2.4,60.093586756872156,2025-02-27 10h27.49.100372 -0500,
3,3,0,filler_square,None,None,None,None,None,None,None,None,None,None,2,3.6501147747039795,None,,,,,0,0,0,0,0,3,3,208,63.808258295059204,,,,,,,,,,,,,,,,,,,,,,,,,,,,,,,,,,,,,,,,,,,,,,,,,,,,,,,,,,,,,,,,,,,,,,,,,,,,,,,,,,60.61916538383232,64.281026971626,77.41781174957197,77.41781174957197,76.02372834825046,61.06545964914655,2.2,2.21,-167,-281,0,254,165,282,63.79369926452637,63.79374146461487,63.7961163520813,63.808258295059204,63.95834732055664,63.95834732055664,63.95834732055664,63.95834732055664,63.95834732055664,63.95834732055664,63.95834732055664,67.45973491668701,2,3.6501147747039795,None,,,,,,,,,,,,,,,,,,140,5,2025-02-27_10h27.38.063,comp,2024.2.4,60.093586756872156,2025-02-27 10h27.49.100372 -0500,
4,4,0,critical,dwh,35.0,2.1,lower,70.0,70.0,57.0,133.0,133.0,57.0,3,5.639050483703613,None,,,,,0,0,0,0,0,4,4,28,67.47508478164673,,,,,,,,,,,,,,,,,,,,,,,,,,,,,,,,,,,,,,,,,,,,,,,,,,,,,,,,,,,,,,,,,,,,,,,,,,,,,,,,,,70.0,70.0,57.0,133.0,133.0,57.0,2.1,2.12,-198,-289,0,-288,191,289,67.4604983329773,67.46053957939148,67.46296286582947,67.47508478164673,67.62505173683167,67.62505173683167,67.62505173683167,67.62505173683167,67.62505173683167,67.62505173683167,67.62505173683167,73.12733578681946,3,5.639050483703613,None,,,,,,,,,,,,,,,,,,140,5,2025-02-27_10h27.38.063,comp,2024.2.4,60.093586756872156,2025-02-27 10h27.49.100372 -0500,
5,5,0,critical,dhw,20.0,2.1,upper,141.0,141.0,200.0,125.0,125.0,200.0,3,4.210737228393555,None,,,,,0,0,0,0,0,5,5,27,73.14173698425293,,,,,,,,,,,,,,,,,,,,,,,,,,,,,,,,,,,,,,,,,,,,,,,,,,,,,,,,,,,,,,,,,,,,,,,,,,,,,,,,,,141.0,141.0,200.0,125.0,125.0,200.0,2.1,2.11,-229,260,0,250,258,-268,73.12807583808899,73.12811255455017,73.13007926940918,73.14173698425293,73.2919282913208,73.2919282913208,73.2919282913208,73.2919282913208,73.2919282913208,73.2919282913208,73.2919282913208,77.35978722572327,3,4.210737228393555,None,,,,,,,,,,,,,,,,,,140,5,2025-02-27_10h27.38.063,comp,2024.2.4,60.093586756872156,2025-02-27 10h27.49.100372 -0500,
6,6,0,critical,dhw,20.0,2.1,upper,141.0,141.0,200.0,125.0,125.0,200.0,2,6.057553052902222,None,,,,,0,0,0,0,0,6,6,3,77.37521433830261,,,,,,,,,,,,,,,,,,,,,,,,,,,,,,,,,,,,,,,,,,,,,,,,,,,,,,,,,,,,,,,,,,,,,,,,,,,,,,,,,,141.0,141.0,200.0,125.0,125.0,200.0,2.1,2.12,-229,-266,0,-288,258,285,77.36068296432495,77.36072874069214,77.36275124549866,77.37521433830261,77.52522397041321,77.52522397041321,77.52522397041321,77.52522397041321,77.52522397041321,77.52522397041321,77.52522397041321,83.44289469718933,2,6.057553052902222,None,,,,,,,,,,,,,,,,,,140,5,2025-02-27_10h27.38.063,comp,2024.2.4,60.093586756872156,2025-02-27 10h27.49.100372 -0500,
7,7,0,critical,whd,35.0,4.0,lower,57.0,133.0,133.0,57.0,70.0,70.0,2,3.3999693393707275,None,,,,,0,0,0,0,0,7,7,88,83.45830368995667,,,,,,,,,,,,,,,,,,,,,,,,,,,,,,,,,,,,,,,,,,,,,,,,,,,,,,,,,,,,,,,,,,,,,,,,,,,,,,,,,,57.0,133.0,133.0,57.0,70.0,70.0,4.0,4.2,-191,-14,0,-258,160,-17,83.443683385849,83.44372582435608,83.4460825920105,83.45830368995667,83.60824632644653,83.60824632644653,83.60824632644653,83.60824632644653,83.60824632644653,83.60824632644653,83.60824632644653,86.87601232528687,2,3.3999693393707275,None,,,,,,,,,,,,,,,,,,140,5,2025-02-27_10h27.38.063,comp,2024.2.4,60.093586756872156,2025-02-27 10h27.49.100372 -0500,
8,8,0,critical,hwd,20.0,3.0,upper,200.0,125.0,125.0,200.0,141.0,141.0,2,2.3173177242279053,None,,,,,0,0,0,0,0,8,8,105,86.89148426055908,,,,,,,,,,,,,,,,,,,,,,,,,,,,,,,,,,,,,,,,,,,,,,,,,,,,,,,,,,,,,,,,,,,,,,,,,,,,,,,,,,200.0,125.0,125.0,200.0,141.0,141.0,3.0,3.1,-258,260,0,17,266,-251,86.87681794166565,86.87686014175415,86.87930226325989,86.89148426055908,87.04184079170227,87.04184079170227,87.04184079170227,87.04184079170227,87.04184079170227,87.04184079170227,87.04184079170227,89.2262327671051,2,2.3173177242279053,None,,,,,,,,,,,,,,,,,,140,5,2025-02-27_10h27.38.063,comp,2024.2.4,60.093586756872156,2025-02-27 10h27.49.100372 -0500,
9,9,0,filler_square,None,None,None,None,None,None,None,None,None,None,2,3.2700514793395996,None,,,,,0,0,0,0,0,9,9,203,89.24154257774353,,,,,,,,,,,,,,,,,,,,,,,,,,,,,,,,,,,,,,,,,,,,,,,,,,,,,,,,,,,,,,,,,,,,,,,,,,,,,,,,,,67.46380117171792,64.97356014172578,69.1045088001322,69.1045088001322,67.4938250398453,61.63504805466535,1.0,1.1,-643,282,-480,286,-319,272,89.22719740867615,89.22723960876465,89.22967529296875,89.24154257774353,89.39164996147156,89.39164996147156,89.39164996147156,89.39164996147156,89.39164996147156,89.39164996147156,89.39164996147156,92.52609276771545,2,3.2700514793395996,None,,,,,,,,,,,,,,,,,,140,5,2025-02-27_10h27.38.063,comp,2024.2.4,60.093586756872156,2025-02-27 10h27.49.100372 -0500,
10,10,0,filler_random,None,None,None,None,None,None,None,None,None,None,2,1.1634621620178223,None,,,,,0,0,0,0,0,10,10,145,92.54144787788391,,,,,,,,,,,,,,,,,,,,,,,,,,,,,,,,,,,,,,,,,,,,,,,,,,,,,,,,,,,,,,,,,,,,,,,,,,,,,,,,,,86.51681888397236,105.32246071837879,154.86025212232153,173.47109492415163,61.21250103078906,96.37525105309805,2.2,2.21,-235,-290,0,282,231,257,92.5270128250122,92.52705550193787,92.52951288223267,92.54144787788391,92.69164538383484,92.69164538383484,92.69164538383484,92.69164538383484,92.69164538383484,92.69164538383484,92.69164538383484,93.70941972732544,2,1.1634621620178223,None,,,,,,,,,,,,,,,,,,140,5,2025-02-27_10h27.38.063,comp,2024.2.4,60.093586756872156,2025-02-27 10h27.49.100372 -0500,
11,11,0,filler_random,None,None,None,None,None,None,None,None,None,None,1,1.43453049659729,None,,,,,0,0,0,0,0,11,11,164,93.72491407394409,,,,,,,,,,,,,,,,,,,,,,,,,,,,,,,,,,,,,,,,,,,,,,,,,,,,,,,,,,,,,,,,,,,,,,,,,,,,,,,,,,157.5491872736884,122.20663023554997,70.10862735232398,138.12418570022766,78.66642820883115,144.81500325444202,2.2,2.22,-226,269,0,-285,237,-259,93.71034049987793,93.71038269996643,93.71301245689392,93.72491407394409,93.87483167648315,93.87483167648315,93.87483167648315,93.87483167648315,93.87483167648315,93.87483167648315,93.87483167648315,95.17591071128845,1,1.43453049659729,None,,,,,,,,,,,,,,,,,,140,5,2025-02-27_10h27.38.063,comp,2024.2.4,60.093586756872156,2025-02-27 10h27.49.100372 -0500,
12,12,0,filler_random,None,None,None,None,None,None,None,None,None,None,2,1.441615343093872,None,,,,,0,0,0,0,0,12,12,134,95.19145178794861,,,,,,,,,,,,,,,,,,,,,,,,,,,,,,,,,,,,,,,,,,,,,,,,,,,,,,,,,,,,,,,,,,,,,,,,,,,,,,,,,,121.29166185647242,79.4932987998598,192.35191401279525,128.8906084770216,183.111550771713,90.99632975515166,3.0,3.2,-200,-279,0,5,206,290,95.17683434486389,95.17687654495239,95.17926669120789,95.19145178794861,95.34165263175964,95.34165263175964,95.34165263175964,95.34165263175964,95.34165263175964,95.34165263175964,95.34165263175964,96.64285326004028,2,1.441615343093872,None,,,,,,,,,,,,,,,,,,140,5,2025-02-27_10h27.38.063,comp,2024.2.4,60.093586756872156,2025-02-27 10h27.49.100372 -0500,
13,13,0,critical,hwd,20.0,2.1,upper,200.0,125.0,125.0,200.0,141.0,141.0,1,3.141894817352295,None,,,,,0,0,0,0,0,13,13,43,96.65836644172668,,,,,,,,,,,,,,,,,,,,,,,,,,,,,,,,,,,,,,,,,,,,,,,,,,,,,,,,,,,,,,,,,,,,,,,,,,,,,,,,,,200.0,125.0,125.0,200.0,141.0,141.0,2.1,2.12,-258,-259,0,-265,266,271,96.64364957809448,96.6436927318573,96.64580583572388,96.65836644172668,96.80831718444824,96.80831718444824,96.80831718444824,96.80831718444824,96.80831718444824,96.80831718444824,96.80831718444824,99.80965447425842,1,3.141894817352295,None,,,,,,,,,,,,,,,,,,140,5,2025-02-27_10h27.38.063,comp,2024.2.4,60.093586756872156,2025-02-27 10h27.49.100372 -0500,
14,14,0,filler_random,None,None,None,None,None,None,None,None,None,None,3,0.8951022624969482,None,,,,,0,0,0,0,0,14,14,168,99.82502102851868,,,,,,,,,,,,,,,,,,,,,,,,,,,,,,,,,,,,,,,,,,,,,,,,,,,,,,,,,,,,,,,,,,,,,,,,,,,,,,,,,,123.85424909137907,85.33586026517274,66.90216718163704,63.29531842850826,133.97336283973567,186.27806350614483,3.0,3.2,-170,-289,0,-10,221,260,99.81055402755737,99.8106095790863,99.81282353401184,99.82502102851868,99.97474837303162,99.97474837303162,99.97474837303162,99.97474837303162,99.97474837303162,99.97474837303162,99.97474837303162,100.72594976425171,3,0.8951022624969482,None,,,,,,,,,,,,,,,,,,140,5,2025-02-27_10h27.38.063,comp,2024.2.4,60.093586756872156,2025-02-27 10h27.49.100372 -0500,
15,15,0,critical,wdh,20.0,2.1,upper,125.0,200.0,141.0,141.0,200.0,125.0,1,2.2837255001068115,None,,,,,0,0,0,0,0,15,15,35,100.74152565002441,,,,,,,,,,,,,,,,,,,,,,,,,,,,,,,,,,,,,,,,,,,,,,,,,,,,,,,,,,,,,,,,,,,,,,,,,,,,,,,,,,125.0,200.0,141.0,141.0,200.0,125.0,2.1,2.11,-266,255,0,261,229,-250,100.7267472743988,100.72678780555725,100.72909212112427,100.74152565002441,100.89172840118408,100.89172840118408,100.89172840118408,100.89172840118408,100.89172840118408,100.89172840118408,100.89172840118408,103.0428216457367,1,2.2837255001068115,None,,,,,,,,,,,,,,,,,,140,5,2025-02-27_10h27.38.063,comp,2024.2.4,60.093586756872156,2025-02-27 10h27.49.100372 -0500,
16,16,0,critical,wdh,35.0,1.0,upper,125.0,200.0,127.0,127.0,200.0,125.0,3,5.774574279785156,None,,,,,0,0,0,0,0,16,16,73,103.05805993080139,,,,,,,,,,,,,,,,,,,,,,,,,,,,,,,,,,,,,,,,,,,,,,,,,,,,,,,,,,,,,,,,,,,,,,,,,,,,,,,,,,125.0,200.0,127.0,127.0,200.0,125.0,1.0,1.2,-260,-20,0,-17,222,-9,103.04363632202148,103.04367637634277,103.04572677612305,103.05805993080139,103.20836758613586,103.20836758613586,103.20836758613586,103.20836758613586,103.20836758613586,103.20836758613586,103.20836758613586,108.84271025657654,3,5.774574279785156,None,,,,,,,,,,,,,,,,,,140,5,2025-02-27_10h27.38.063,comp,2024.2.4,60.093586756872156,2025-02-27 10h27.49.100372 -0500,
17,17,0,filler_random,None,None,None,None,None,None,None,None,None,None,1,2.8310346603393555,None,,,,,0,0,0,0,0,17,17,167,108.85847806930542,,,,,,,,,,,,,,,,,,,,,,,,,,,,,,,,,,,,,,,,,,,,,,,,,,,,,,,,,,,,,,,,,,,,,,,,,,,,,,,,,,180.9302141221049,90.23940242557802,63.89073057229773,76.7988261207392,173.80027069948983,86.94971452608388,3.0,3.2,-180,-250,0,14,178,270,108.8436107635498,108.84365200996399,108.84573864936829,108.85847806930542,109.00819134712219,109.00819134712219,109.00819134712219,109.00819134712219,109.00819134712219,109.00819134712219,109.00819134712219,111.69269847869873,1,2.8310346603393555,None,,,,,,,,,,,,,,,,,,140,5,2025-02-27_10h27.38.063,comp,2024.2.4,60.093586756872156,2025-02-27 10h27.49.100372 -0500,
18,18,0,filler_random,None,None,None,None,None,None,None,None,None,None,2,0.883284330368042,None,,,,,0,0,0,0,0,18,18,165,111.70851445198059,,,,,,,,,,,,,,,,,,,,,,,,,,,,,,,,,,,,,,,,,,,,,,,,,,,,,,,,,,,,,,,,,,,,,,,,,,,,,,,,,,106.78467171036003,193.64222668521705,168.36401908924674,145.10061139572343,67.67162989557472,67.56887067411301,2.1,2.11,-265,273,0,275,202,-264,111.6937198638916,111.6937620639801,111.69591760635376,111.70851445198059,111.85806584358215,111.85806584358215,111.85806584358215,111.85806584358215,111.85806584358215,111.85806584358215,111.85806584358215,112.60929036140442,2,0.883284330368042,None,,,,,,,,,,,,,,,,,,140,5,2025-02-27_10h27.38.063,comp,2024.2.4,60.093586756872156,2025-02-27 10h27.49.100372 -0500,
19,19,0,critical,wdh,20.0,2.1,lower,57.0,133.0,78.0,78.0,133.0,57.0,3,6.568075656890869,None,,,,,0,0,0,0,0,19,19,34,112.62460207939148,,,,,,,,,,,,,,,,,,,,,,,,,,,,,,,,,,,,,,,,,,,,,,,,,,,,,,,,,,,,,,,,,,,,,,,,,,,,,,,,,,57.0,133.0,78.0,78.0,133.0,57.0,2.1,2.12,-202,-274,0,-287,164,254,112.61009550094604,112.61013770103455,112.61263847351074,112.62460207939148,112.77465605735779,112.77465605735779,112.77465605735779,112.77465605735779,112.77465605735779,112.77465605735779,112.77465605735779,119.20917701721191,3,6.568075656890869,None,,,,,,,,,,,,,,,,,,140,5,2025-02-27_10h27.38.063,comp,2024.2.4,60.093586756872156,2025-02-27 10h27.49.100372 -0500,
20,20,0,filler_square,None,None,None,None,None,None,None,None,None,None,2,1.3341422080993652,None,,,,,0,0,0,0,0,20,20,187,119.24114799499512,,,,,,,,,,,,,,,,,,,,,,,,,,,,,,,,,,,,,,,,,,,,,,,,,,,,,,,,,,,,,,,,,,,,,,,,,,,,,,,,,,96.14395664960499,133.88021697213566,137.44529687163174,137.44529687163174,118.84144041964242,112.66077149062218,3.0,3.1,-232,273,0,-6,221,-285,119.21015691757202,119.21019983291626,119.2127013206482,119.24114799499512,119.37477540969849,119.37477540969849,119.37477540969849,119.37477540969849,119.37477540969849,119.37477540969849,119.37477540969849,120.59244155883789,2,1.3341422080993652,None,,,,,,,,,,,,,,,,,,140,5,2025-02-27_10h27.38.063,comp,2024.2.4,60.093586756872156,2025-02-27 10h27.49.100372 -0500,
21,21,0,critical,wdh,20.0,1.0,lower,57.0,133.0,78.0,78.0,133.0,57.0,1,3.376305341720581,None,,,,,0,0,0,0,0,21,21,78,120.60782933235168,,,,,,,,,,,,,,,,,,,,,,,,,,,,,,,,,,,,,,,,,,,,,,,,,,,,,,,,,,,,,,,,,,,,,,,,,,,,,,,,,,57.0,133.0,78.0,78.0,133.0,57.0,1.0,1.1,-682,278,-480,274,-316,282,120.59325838088989,120.59329915046692,120.59532713890076,120.60782933235168,120.75791263580322,120.75791263580322,120.75791263580322,120.75791263580322,120.75791263580322,120.75791263580322,120.75791263580322,123.99236631393433,1,3.376305341720581,None,,,,,,,,,,,,,,,,,,140,5,2025-02-27_10h27.38.063,comp,2024.2.4,60.093586756872156,2025-02-27 10h27.49.100372 -0500,
22,22,0,critical,dwh,20.0,4.0,lower,78.0,78.0,57.0,133.0,133.0,57.0,2,2.4499030113220215,None,,,,,0,0,0,0,0,22,22,70,124.00809812545776,,,,,,,,,,,,,,,,,,,,,,,,,,,,,,,,,,,,,,,,,,,,,,,,,,,,,,,,,,,,,,,,,,,,,,,,,,,,,,,,,,78.0,78.0,57.0,133.0,133.0,57.0,4.0,4.2,-202,-13,0,-267,191,-4,123.99316358566284,123.99320554733276,123.99574685096741,124.00809812545776,124.15817260742188,124.15817260742188,124.15817260742188,124.15817260742188,124.15817260742188,124.15817260742188,124.15817260742188,126.4593186378479,2,2.4499030113220215,None,,,,,,,,,,,,,,,,,,140,5,2025-02-27_10h27.38.063,comp,2024.2.4,60.093586756872156,2025-02-27 10h27.49.100372 -0500,
23,23,0,critical,hdw,20.0,1.0,upper,200.0,125.0,141.0,141.0,125.0,200.0,3,2.668476104736328,None,,,,,0,0,0,0,0,23,23,115,126.4746880531311,,,,,,,,,,,,,,,,,,,,,,,,,,,,,,,,,,,,,,,,,,,,,,,,,,,,,,,,,,,,,,,,,,,,,,,,,,,,,,,,,,200.0,125.0,141.0,141.0,125.0,200.0,1.0,1.1,-709,261,-480,257,-214,277,126.4601058959961,126.46014833450317,126.46269726753235,126.4746880531311,126.62486147880554,126.62486147880554,126.62486147880554,126.62486147880554,126.62486147880554,126.62486147880554,126.62486147880554,129.1592755317688,3,2.668476104736328,None,,,,,,,,,,,,,,,,,,140,5,2025-02-27_10h27.38.063,comp,2024.2.4,60.093586756872156,2025-02-27 10h27.49.100372 -0500,
24,24,0,filler_random,None,None,None,None,None,None,None,None,None,None,1,1.87257719039917,None,,,,,0,0,0,0,0,24,24,159,129.17458987236023,,,,,,,,,,,,,,,,,,,,,,,,,,,,,,,,,,,,,,,,,,,,,,,,,,,,,,,,,,,,,,,,,,,,,,,,,,,,,,,,,,102.38056603256925,116.6998447272519,83.6364106904881,139.34275712417093,86.62148255072081,80.24482250015286,1.0,1.3,256,-285,480,-284,686,-286,129.16016745567322,129.16020584106445,129.16272044181824,129.17458987236023,129.3248097896576,129.3248097896576,129.3248097896576,129.3248097896576,129.3248097896576,129.3248097896576,129.3248097896576,131.05916905403137,1,1.87257719039917,None,,,,,,,,,,,,,,,,,,140,5,2025-02-27_10h27.38.063,comp,2024.2.4,60.093586756872156,2025-02-27 10h27.49.100372 -0500,
25,25,0,filler_random,None,None,None,None,None,None,None,None,None,None,3,1.677560806274414,None,,,,,0,0,0,0,0,25,25,156,131.0745143890381,,,,,,,,,,,,,,,,,,,,,,,,,,,,,,,,,,,,,,,,,,,,,,,,,,,,,,,,,,,,,,,,,,,,,,,,,,,,,,,,,,97.94440603746912,79.41202313913969,106.84808662605535,91.54146502641746,188.4692024553876,84.8534540090822,1.0,1.3,299,-271,480,-251,664,-284,131.06010174751282,131.0601451396942,131.0625970363617,131.0745143890381,131.22466945648193,131.22466945648193,131.22466945648193,131.22466945648193,131.22466945648193,131.22466945648193,131.22466945648193,132.75913000106812,3,1.677560806274414,None,,,,,,,,,,,,,,,,,,140,5,2025-02-27_10h27.38.063,comp,2024.2.4,60.093586756872156,2025-02-27 10h27.49.100372 -0500,
26,26,0,critical,whd,20.0,4.0,upper,125.0,200.0,200.0,125.0,141.0,141.0,1,2.650312900543213,None,,,,,0,0,0,0,0,26,26,95,132.77465152740479,,,,,,,,,,,,,,,,,,,,,,,,,,,,,,,,,,,,,,,,,,,,,,,,,,,,,,,,,,,,,,,,,,,,,,,,,,,,,,,,,,125.0,200.0,200.0,125.0,141.0,141.0,4.0,4.2,-258,18,0,-264,229,20,132.75992131233215,132.7599618434906,132.76203870773315,132.77465152740479,132.92482781410217,132.92482781410217,132.92482781410217,132.92482781410217,132.92482781410217,132.92482781410217,132.92482781410217,135.44254231452942,1,2.650312900543213,None,,,,,,,,,,,,,,,,,,140,5,2025-02-27_10h27.38.063,comp,2024.2.4,60.093586756872156,2025-02-27 10h27.49.100372 -0500,
27,27,0,filler_random,None,None,None,None,None,None,None,None,None,None,3,12.405148029327393,None,,,,,0,0,0,0,0,27,27,132,135.45783019065857,,,,,,,,,,,,,,,,,,,,,,,,,,,,,,,,,,,,,,,,,,,,,,,,,,,,,,,,,,,,,,,,,,,,,,,,,,,,,,,,,,171.31752667794126,153.3830626964761,103.84250217150213,190.28063619415295,134.78316016320784,170.21525933855474,2.2,2.21,-268,-265,0,286,276,263,135.44347190856934,135.44351315498352,135.4467327594757,135.45783019065857,135.60806226730347,135.60806226730347,135.60806226730347,135.60806226730347,135.60806226730347,135.60806226730347,135.60806226730347,147.87592887878418,3,12.405148029327393,None,,,,,,,,,,,,,,,,,,140,5,2025-02-27_10h27.38.063,comp,2024.2.4,60.093586756872156,2025-02-27 10h27.49.100372 -0500,
28,28,0,filler_random,None,None,None,None,None,None,None,None,None,None,3,1.0769054889678955,None,,,,,0,0,0,0,0,28,28,133,147.89111733436584,,,,,,,,,,,,,,,,,,,,,,,,,,,,,,,,,,,,,,,,,,,,,,,,,,,,,,,,,,,,,,,,,,,,,,,,,,,,,,,,,,189.58988637410877,168.65661730321813,118.84353163608837,59.20107512398428,188.11885006606693,192.54747178576028,3.0,3.2,-210,-279,0,3,222,273,147.87684226036072,147.87688541412354,147.87896871566772,147.89111733436584,148.04141545295715,148.04141545295715,148.04141545295715,148.04141545295715,148.04141545295715,148.04141545295715,148.04141545295715,148.97593450546265,3,1.0769054889678955,None,,,,,,,,,,,,,,,,,,140,5,2025-02-27_10h27.38.063,comp,2024.2.4,60.093586756872156,2025-02-27 10h27.49.100372 -0500,
29,29,0,filler_square,None,None,None,None,None,None,None,None,None,None,1,8.833131790161133,None,,,,,0,0,0,0,0,29,29,181,148.9913284778595,,,,,,,,,,,,,,,,,,,,,,,,,,,,,,,,,,,,,,,,,,,,,,,,,,,,,,,,,,,,,,,,,,,,,,,,,,,,,,,,,,63.86328296092909,63.86328296092909,58.6488828317256,60.13837492938558,57.787009817143314,58.40739745597816,2.1,2.11,-158,273,0,263,155,-257,148.97688722610474,148.97692823410034,148.97895646095276,148.9913284778595,149.1410493850708,149.1410493850708,149.1410493850708,149.1410493850708,149.1410493850708,149.1410493850708,149.1410493850708,157.84217476844788,1,8.833131790161133,None,,,,,,,,,,,,,,,,,,140,5,2025-02-27_10h27.38.063,comp,2024.2.4,60.093586756872156,2025-02-27 10h27.49.100372 -0500,
30,30,0,catch,None,None,None,None,None,None,None,None,None,None,1,0.9669439792633057,None,,,,,0,0,0,0,0,30,30,129,157.8577265739441,,,,,,,,,,,,,,,,,,,,,,,,,,,,,,,,,,,,,,,,,,,,,,,,,,,,,,,,,,,,,,,,,,,,,,,,,,,,,,,,,,127,198,77,113,98,92,2.1,2.11,-252,286,0,257,198,-253,157.8432309627533,157.84327363967896,157.8458228111267,157.8577265739441,158.00779700279236,158.00779700279236,158.00779700279236,158.00779700279236,158.00779700279236,158.00779700279236,158.00779700279236,158.84239053726196,1,0.9669439792633057,None,,,,,,,,,,,,,,,,,,140,5,2025-02-27_10h27.38.063,comp,2024.2.4,60.093586756872156,2025-02-27 10h27.49.100372 -0500,
31,31,0,filler_random,None,None,None,None,None,None,None,None,None,None,1,0.9340074062347412,None,,,,,0,0,0,0,0,31,31,142,158.85763430595398,,,,,,,,,,,,,,,,,,,,,,,,,,,,,,,,,,,,,,,,,,,,,,,,,,,,,,,,,,,,,,,,,,,,,,,,,,,,,,,,,,195.69472996656768,149.77552071015873,118.69361446274922,80.16277923780976,101.0335457940777,92.16048010563712,4.0,4.1,-211,-277,0,-13,182,-274,158.84326648712158,158.8433072566986,158.84550666809082,158.85763430595398,159.00794219970703,159.00794219970703,159.00794219970703,159.00794219970703,159.00794219970703,159.00794219970703,159.00794219970703,159.80908584594727,1,0.9340074062347412,None,,,,,,,,,,,,,,,,,,140,5,2025-02-27_10h27.38.063,comp,2024.2.4,60.093586756872156,2025-02-27 10h27.49.100372 -0500,
32,32,0,critical,dhw,20.0,4.0,lower,78.0,78.0,133.0,57.0,57.0,133.0,3,2.967434883117676,None,,,,,0,0,0,0,0,32,32,58,159.8243432044983,,,,,,,,,,,,,,,,,,,,,,,,,,,,,,,,,,,,,,,,,,,,,,,,,,,,,,,,,,,,,,,,,,,,,,,,,,,,,,,,,,78.0,78.0,133.0,57.0,57.0,133.0,4.0,4.2,-164,-6,0,-277,191,-19,159.8098750114441,159.80991578102112,159.81228923797607,159.8243432044983,159.97426915168762,159.97426915168762,159.97426915168762,159.97426915168762,159.97426915168762,159.97426915168762,159.97426915168762,162.8089575767517,3,2.967434883117676,None,,,,,,,,,,,,,,,,,,140,5,2025-02-27_10h27.38.063,comp,2024.2.4,60.093586756872156,2025-02-27 10h27.49.100372 -0500,
33,33,0,critical,dwh,35.0,2.1,upper,127.0,127.0,125.0,200.0,200.0,125.0,2,6.400585889816284,None,,,,,0,0,0,0,0,33,33,29,162.82423162460327,,,,,,,,,,,,,,,,,,,,,,,,,,,,,,,,,,,,,,,,,,,,,,,,,,,,,,,,,,,,,,,,,,,,,,,,,,,,,,,,,,127.0,127.0,125.0,200.0,200.0,125.0,2.1,2.11,-260,270,0,260,258,-264,162.8097939491272,162.80983471870422,162.81228280067444,162.82423162460327,162.97453784942627,162.97453784942627,162.97453784942627,162.97453784942627,162.97453784942627,162.97453784942627,162.97453784942627,169.22607684135437,2,6.400585889816284,None,,,,,,,,,,,,,,,,,,140,5,2025-02-27_10h27.38.063,comp,2024.2.4,60.093586756872156,2025-02-27 10h27.49.100372 -0500,
34,34,0,critical,whd,20.0,2.1,upper,125.0,200.0,200.0,125.0,141.0,141.0,1,7.878688097000122,None,,,,,0,0,0,0,0,34,34,15,169.2412724494934,,,,,,,,,,,,,,,,,,,,,,,,,,,,,,,,,,,,,,,,,,,,,,,,,,,,,,,,,,,,,,,,,,,,,,,,,,,,,,,,,,125.0,200.0,200.0,125.0,141.0,141.0,2.1,2.12,-258,-289,0,-260,229,265,169.2269368171692,169.2269787788391,169.22910237312317,169.2412724494934,169.39116144180298,169.39116144180298,169.39116144180298,169.39116144180298,169.39116144180298,169.39116144180298,169.39116144180298,177.12584352493286,1,7.878688097000122,None,,,,,,,,,,,,,,,,,,140,5,2025-02-27_10h27.38.063,comp,2024.2.4,60.093586756872156,2025-02-27 10h27.49.100372 -0500,
35,35,0,filler_square,None,None,None,None,None,None,None,None,None,None,3,1.3000869750976562,None,,,,,0,0,0,0,0,35,35,207,177.14113235473633,,,,,,,,,,,,,,,,,,,,,,,,,,,,,,,,,,,,,,,,,,,,,,,,,,,,,,,,,,,,,,,,,,,,,,,,,,,,,,,,,,107.92357409672076,174.7109927259815,137.16547967545083,90.07504958052738,198.27809499110347,198.27809499110347,1.0,1.3,252,-258,480,-288,720,-281,177.12677311897278,177.12681412696838,177.12882256507874,177.14113235473633,177.2911741733551,177.2911741733551,177.2911741733551,177.2911741733551,177.2911741733551,177.2911741733551,177.2911741733551,178.45883178710938,3,1.3000869750976562,None,,,,,,,,,,,,,,,,,,140,5,2025-02-27_10h27.38.063,comp,2024.2.4,60.093586756872156,2025-02-27 10h27.49.100372 -0500,
36,36,0,filler_square,None,None,None,None,None,None,None,None,None,None,2,6.004800319671631,None,,,,,0,0,0,0,0,36,36,192,178.47414112091064,,,,,,,,,,,,,,,,,,,,,,,,,,,,,,,,,,,,,,,,,,,,,,,,,,,,,,,,,,,,,,,,,,,,,,,,,,,,,,,,,,64.99120672770626,61.56834408721289,67.04577576034737,67.04577576034737,59.781113567337236,62.71957393804895,1.0,1.1,-640,279,-480,278,-319,268,178.45978784561157,178.4598286151886,178.46217823028564,178.47414112091064,178.62418127059937,178.62418127059937,178.62418127059937,178.62418127059937,178.62418127059937,178.62418127059937,178.62418127059937,184.4919731616974,2,6.004800319671631,None,,,,,,,,,,,,,,,,,,140,5,2025-02-27_10h27.38.063,comp,2024.2.4,60.093586756872156,2025-02-27 10h27.49.100372 -0500,
37,37,0,critical,whd,35.0,2.1,upper,125.0,200.0,200.0,125.0,127.0,127.0,2,3.4443438053131104,None,,,,,0,0,0,0,0,37,37,13,184.507422208786,,,,,,,,,,,,,,,,,,,,,,,,,,,,,,,,,,,,,,,,,,,,,,,,,,,,,,,,,,,,,,,,,,,,,,,,,,,,,,,,,,125.0,200.0,200.0,125.0,127.0,127.0,2.1,2.12,-258,-272,0,-259,222,252,184.4927899837494,184.49283123016357,184.4952676296234,184.507422208786,184.65773105621338,184.65773105621338,184.65773105621338,184.65773105621338,184.65773105621338,184.65773105621338,184.65773105621338,187.959055185318,2,3.4443438053131104,None,,,,,,,,,,,,,,,,,,140,5,2025-02-27_10h27.38.063,comp,2024.2.4,60.093586756872156,2025-02-27 10h27.49.100372 -0500,
38,38,0,critical,wdh,20.0,4.0,upper,125.0,200.0,141.0,141.0,200.0,125.0,1,3.384410858154297,None,,,,,0,0,0,0,0,38,38,83,187.97441864013672,,,,,,,,,,,,,,,,,,,,,,,,,,,,,,,,,,,,,,,,,,,,,,,,,,,,,,,,,,,,,,,,,,,,,,,,,,,,,,,,,,125.0,200.0,141.0,141.0,200.0,125.0,4.0,4.2,-266,-9,0,-287,229,-1,187.95984530448914,187.95988774299622,187.96197247505188,187.97441864013672,188.12438774108887,188.12438774108887,188.12438774108887,188.12438774108887,188.12438774108887,188.12438774108887,188.12438774108887,191.3755328655243,1,3.384410858154297,None,,,,,,,,,,,,,,,,,,140,5,2025-02-27_10h27.38.063,comp,2024.2.4,60.093586756872156,2025-02-27 10h27.49.100372 -0500,
39,39,0,critical,hdw,35.0,1.0,upper,200.0,125.0,127.0,127.0,125.0,200.0,3,4.000798940658569,None,,,,,0,0,0,0,0,39,39,109,191.39077305793762,,,,,,,,,,,,,,,,,,,,,,,,,,,,,,,,,,,,,,,,,,,,,,,,,,,,,,,,,,,,,,,,,,,,,,,,,,,,,,,,,,200.0,125.0,127.0,127.0,125.0,200.0,1.0,1.2,-222,-3,0,-17,260,-9,191.37633323669434,191.37637567520142,191.37848329544067,191.39077305793762,191.54163670539856,191.54163670539856,191.54163670539856,191.54163670539856,191.54163670539856,191.54163670539856,191.54163670539856,195.408784866333,3,4.000798940658569,None,,,,,,,,,,,,,,,,,,140,5,2025-02-27_10h27.38.063,comp,2024.2.4,60.093586756872156,2025-02-27 10h27.49.100372 -0500,
40,40,0,critical,whd,35.0,2.1,lower,57.0,133.0,133.0,57.0,70.0,70.0,2,2.222611665725708,None,,,,,0,0,0,0,0,40,40,36,195.42405939102173,,,,,,,,,,,,,,,,,,,,,,,,,,,,,,,,,,,,,,,,,,,,,,,,,,,,,,,,,,,,,,,,,,,,,,,,,,,,,,,,,,57.0,133.0,133.0,57.0,70.0,70.0,2.1,2.11,-191,261,0,256,160,-274,195.40956950187683,195.40962052345276,195.41285037994385,195.42405939102173,195.57407474517822,195.57407474517822,195.57407474517822,195.57407474517822,195.57407474517822,195.57407474517822,195.57407474517822,197.65931177139282,2,2.222611665725708,None,,,,,,,,,,,,,,,,,,140,5,2025-02-27_10h27.38.063,comp,2024.2.4,60.093586756872156,2025-02-27 10h27.49.100372 -0500,
41,41,0,critical,dhw,20.0,4.0,upper,141.0,141.0,200.0,125.0,125.0,200.0,3,4.014728546142578,None,,,,,0,0,0,0,0,41,41,59,197.67417335510254,,,,,,,,,,,,,,,,,,,,,,,,,,,,,,,,,,,,,,,,,,,,,,,,,,,,,,,,,,,,,,,,,,,,,,,,,,,,,,,,,,141.0,141.0,200.0,125.0,125.0,200.0,4.0,4.2,-229,-8,0,-282,258,17,197.66010928153992,197.66014862060547,197.6631362438202,197.67417335510254,197.8243911266327,197.8243911266327,197.8243911266327,197.8243911266327,197.8243911266327,197.8243911266327,197.8243911266327,201.69235634803772,3,4.014728546142578,None,,,,,,,,,,,,,,,,,,140,5,2025-02-27_10h27.38.063,comp,2024.2.4,60.093586756872156,2025-02-27 10h27.49.100372 -0500,
42,42,0,filler_random,None,None,None,None,None,None,None,None,None,None,2,2.9873714447021484,None,,,,,0,0,0,0,0,42,42,154,201.70766401290894,,,,,,,,,,,,,,,,,,,,,,,,,,,,,,,,,,,,,,,,,,,,,,,,,,,,,,,,,,,,,,,,,,,,,,,,,,,,,,,,,,107.36868317961962,95.84268324119603,157.75652928616014,175.11879039524217,187.98688703927837,86.6285790936393,2.2,2.22,-231,273,0,-276,227,-279,201.6932942867279,201.69333624839783,201.69543313980103,201.70766401290894,201.8575084209442,201.8575084209442,201.8575084209442,201.8575084209442,201.8575084209442,201.8575084209442,201.8575084209442,204.70869302749634,2,2.9873714447021484,None,,,,,,,,,,,,,,,,,,140,5,2025-02-27_10h27.38.063,comp,2024.2.4,60.093586756872156,2025-02-27 10h27.49.100372 -0500,
43,43,0,filler_square,None,None,None,None,None,None,None,None,None,None,3,5.002748012542725,None,,,,,0,0,0,0,0,43,43,197,204.72407293319702,,,,,,,,,,,,,,,,,,,,,,,,,,,,,,,,,,,,,,,,,,,,,,,,,,,,,,,,,,,,,,,,,,,,,,,,,,,,,,,,,,59.61081838274395,64.20935364521407,62.690276510179075,57.63777155339397,64.72649925222528,64.72649925222528,1.0,1.2,-157,12,0,1,157,12,204.70960760116577,204.70964908599854,204.71168899536133,204.72407293319702,204.87398409843445,204.87398409843445,204.87398409843445,204.87398409843445,204.87398409843445,204.87398409843445,204.87398409843445,209.74174642562866,3,5.002748012542725,None,,,,,,,,,,,,,,,,,,140,5,2025-02-27_10h27.38.063,comp,2024.2.4,60.093586756872156,2025-02-27 10h27.49.100372 -0500,
44,44,0,critical,dhw,20.0,3.0,upper,141.0,141.0,200.0,125.0,125.0,200.0,3,5.953391075134277,None,,,,,0,0,0,0,0,44,44,57,209.75730633735657,,,,,,,,,,,,,,,,,,,,,,,,,,,,,,,,,,,,,,,,,,,,,,,,,,,,,,,,,,,,,,,,,,,,,,,,,,,,,,,,,,141.0,141.0,200.0,125.0,125.0,200.0,3.0,3.2,-229,-252,0,-19,258,261,209.74264526367188,209.74268651008606,209.745187997818,209.75730633735657,209.90756964683533,209.90756964683533,209.90756964683533,209.90756964683533,209.90756964683533,209.90756964683533,209.90756964683533,215.725359916687,3,5.953391075134277,None,,,,,,,,,,,,,,,,,,140,5,2025-02-27_10h27.38.063,comp,2024.2.4,60.093586756872156,2025-02-27 10h27.49.100372 -0500,
45,45,0,critical,whd,35.0,3.0,upper,125.0,200.0,200.0,125.0,127.0,127.0,1,1.6507360935211182,None,,,,,0,0,0,0,0,45,45,87,215.74064183235168,,,,,,,,,,,,,,,,,,,,,,,,,,,,,,,,,,,,,,,,,,,,,,,,,,,,,,,,,,,,,,,,,,,,,,,,,,,,,,,,,,125.0,200.0,200.0,125.0,127.0,127.0,3.0,3.1,-258,262,0,13,222,-263,215.72618317604065,215.72622442245483,215.72870135307312,215.74064183235168,215.89086294174194,215.89086294174194,215.89086294174194,215.89086294174194,215.89086294174194,215.89086294174194,215.89086294174194,217.40855598449707,1,1.6507360935211182,None,,,,,,,,,,,,,,,,,,140,5,2025-02-27_10h27.38.063,comp,2024.2.4,60.093586756872156,2025-02-27 10h27.49.100372 -0500,
46,46,0,critical,dhw,35.0,4.0,lower,70.0,70.0,133.0,57.0,57.0,133.0,2,4.407425880432129,None,,,,,0,0,0,0,0,46,46,52,217.4240062236786,,,,,,,,,,,,,,,,,,,,,,,,,,,,,,,,,,,,,,,,,,,,,,,,,,,,,,,,,,,,,,,,,,,,,,,,,,,,,,,,,,70.0,70.0,133.0,57.0,57.0,133.0,4.0,4.1,-160,-290,0,16,191,-284,217.40936398506165,217.40940499305725,217.41144156455994,217.4240062236786,217.57402324676514,217.57402324676514,217.57402324676514,217.57402324676514,217.57402324676514,217.57402324676514,217.57402324676514,221.8417534828186,2,4.407425880432129,None,,,,,,,,,,,,,,,,,,140,5,2025-02-27_10h27.38.063,comp,2024.2.4,60.093586756872156,2025-02-27 10h27.49.100372 -0500,
47,47,0,critical,hwd,20.0,1.0,lower,133.0,57.0,57.0,133.0,78.0,78.0,2,2.0211174488067627,None,,,,,0,0,0,0,0,47,47,102,221.85753655433655,,,,,,,,,,,,,,,,,,,,,,,,,,,,,,,,,,,,,,,,,,,,,,,,,,,,,,,,,,,,,,,,,,,,,,,,,,,,,,,,,,133.0,57.0,57.0,133.0,78.0,78.0,1.0,1.1,-671,267,-480,268,-278,267,221.8425464630127,221.84260320663452,221.84491348266602,221.85753655433655,222.00731325149536,222.00731325149536,222.00731325149536,222.00731325149536,222.00731325149536,222.00731325149536,222.00731325149536,223.89172863960266,2,2.0211174488067627,None,,,,,,,,,,,,,,,,,,140,5,2025-02-27_10h27.38.063,comp,2024.2.4,60.093586756872156,2025-02-27 10h27.49.100372 -0500,
48,48,0,critical,hdw,20.0,2.1,upper,200.0,125.0,141.0,141.0,125.0,200.0,3,2.717379570007324,None,,,,,0,0,0,0,0,48,48,23,223.90713667869568,,,,,,,,,,,,,,,,,,,,,,,,,,,,,,,,,,,,,,,,,,,,,,,,,,,,,,,,,,,,,,,,,,,,,,,,,,,,,,,,,,200.0,125.0,141.0,141.0,125.0,200.0,2.1,2.11,-229,264,0,285,266,-254,223.89251017570496,223.89255023002625,223.894868850708,223.90713667869568,224.0574872493744,224.0574872493744,224.0574872493744,224.0574872493744,224.0574872493744,224.0574872493744,224.0574872493744,226.64193058013916,3,2.717379570007324,None,,,,,,,,,,,,,,,,,,140,5,2025-02-27_10h27.38.063,comp,2024.2.4,60.093586756872156,2025-02-27 10h27.49.100372 -0500,
49,49,0,filler_random,None,None,None,None,None,None,None,None,None,None,2,4.1746745109558105,None,,,,,0,0,0,0,0,49,49,149,226.6571545600891,,,,,,,,,,,,,,,,,,,,,,,,,,,,,,,,,,,,,,,,,,,,,,,,,,,,,,,,,,,,,,,,,,,,,,,,,,,,,,,,,,93.02915121872996,68.13929546104761,59.85642555211799,165.5010353437596,67.86539804252463,72.22575773056698,2.1,2.11,-213,274,0,270,215,-271,226.64284086227417,226.6428828239441,226.64522457122803,226.6571545600891,226.80723810195923,226.80723810195923,226.80723810195923,226.80723810195923,226.80723810195923,226.80723810195923,226.80723810195923,230.8417615890503,2,4.1746745109558105,None,,,,,,,,,,,,,,,,,,140,5,2025-02-27_10h27.38.063,comp,2024.2.4,60.093586756872156,2025-02-27 10h27.49.100372 -0500,
50,50,0,critical,whd,20.0,2.1,lower,57.0,133.0,133.0,57.0,78.0,78.0,2,4.293648719787598,None,,,,,0,0,0,0,0,50,50,38,230.85767483711243,,,,,,,,,,,,,,,,,,,,,,,,,,,,,,,,,,,,,,,,,,,,,,,,,,,,,,,,,,,,,,,,,,,,,,,,,,,,,,,,,,57.0,133.0,133.0,57.0,78.0,78.0,2.1,2.12,-191,-262,0,-262,164,283,230.84256267547607,230.84261751174927,230.84469771385193,230.85767483711243,231.007315158844,231.007315158844,231.007315158844,231.007315158844,231.007315158844,231.007315158844,231.007315158844,235.15854811668396,2,4.293648719787598,None,,,,,,,,,,,,,,,,,,140,5,2025-02-27_10h27.38.063,comp,2024.2.4,60.093586756872156,2025-02-27 10h27.49.100372 -0500,
51,51,0,catch,None,None,None,None,None,None,None,None,None,None,2,0.8573782444000244,None,,,,,0,0,0,0,0,51,51,122,235.17413115501404,,,,,,,,,,,,,,,,,,,,,,,,,,,,,,,,,,,,,,,,,,,,,,,,,,,,,,,,,,,,,,,,,,,,,,,,,,,,,,,,,,130,60,129,196,110,80,1.0,1.2,-224,-4,0,-12,234,-16,235.15956950187683,235.15962481498718,235.16200518608093,235.17413115501404,235.32402086257935,235.32402086257935,235.32402086257935,235.32402086257935,235.32402086257935,235.32402086257935,235.32402086257935,236.04173612594604,2,0.8573782444000244,None,,,,,,,,,,,,,,,,,,140,5,2025-02-27_10h27.38.063,comp,2024.2.4,60.093586756872156,2025-02-27 10h27.49.100372 -0500,
52,52,0,critical,hwd,35.0,1.0,upper,200.0,125.0,125.0,200.0,127.0,127.0,1,2.7584519386291504,None,,,,,0,0,0,0,0,52,52,97,236.05729031562805,,,,,,,,,,,,,,,,,,,,,,,,,,,,,,,,,,,,,,,,,,,,,,,,,,,,,,,,,,,,,,,,,,,,,,,,,,,,,,,,,,200.0,125.0,125.0,200.0,127.0,127.0,1.0,1.3,222,-279,480,-277,740,-265,236.04260349273682,236.04264426231384,236.04501485824585,236.05729031562805,236.20735120773315,236.20735120773315,236.20735120773315,236.20735120773315,236.20735120773315,236.20735120773315,236.20735120773315,238.82523250579834,1,2.7584519386291504,None,,,,,,,,,,,,,,,,,,140,5,2025-02-27_10h27.38.063,comp,2024.2.4,60.093586756872156,2025-02-27 10h27.49.100372 -0500,
53,53,0,catch,None,None,None,None,None,None,None,None,None,None,2,1.1019220352172852,None,,,,,0,0,0,0,0,53,53,124,238.8407838344574,,,,,,,,,,,,,,,,,,,,,,,,,,,,,,,,,,,,,,,,,,,,,,,,,,,,,,,,,,,,,,,,,,,,,,,,,,,,,,,,,,86,104,160,165,87,103,1.0,1.3,250,-265,480,-289,710,-288,238.82627701759338,238.82631969451904,238.82871317863464,238.8407838344574,238.9906952381134,238.9906952381134,238.9906952381134,238.9906952381134,238.9906952381134,238.9906952381134,238.9906952381134,239.9583761692047,2,1.1019220352172852,None,,,,,,,,,,,,,,,,,,140,5,2025-02-27_10h27.38.063,comp,2024.2.4,60.093586756872156,2025-02-27 10h27.49.100372 -0500,
54,54,0,filler_square,None,None,None,None,None,None,None,None,None,None,2,2.433985948562622,None,,,,,0,0,0,0,0,54,54,179,239.97373485565186,,,,,,,,,,,,,,,,,,,,,,,,,,,,,,,,,,,,,,,,,,,,,,,,,,,,,,,,,,,,,,,,,,,,,,,,,,,,,,,,,,80.90898373010403,117.72168162051989,155.94182325373205,155.94182325373205,141.8474826751514,121.25442248458948,2.1,2.11,-233,282,0,288,235,-261,239.95933413505554,239.95937490463257,239.9618785381317,239.97373485565186,240.1239185333252,240.1239185333252,240.1239185333252,240.1239185333252,240.1239185333252,240.1239185333252,240.1239185333252,242.42515444755554,2,2.433985948562622,None,,,,,,,,,,,,,,,,,,140,5,2025-02-27_10h27.38.063,comp,2024.2.4,60.093586756872156,2025-02-27 10h27.49.100372 -0500,
55,55,0,filler_square,None,None,None,None,None,None,None,None,None,None,3,1.2787809371948242,None,,,,,0,0,0,0,0,55,55,199,242.44049191474915,,,,,,,,,,,,,,,,,,,,,,,,,,,,,,,,,,,,,,,,,,,,,,,,,,,,,,,,,,,,,,,,,,,,,,,,,,,,,,,,,,168.31969309947738,141.72223350920228,108.82288823581183,99.54612549855403,170.884951381695,170.884951381695,4.0,4.2,-217,-12,0,-259,231,15,242.426096200943,242.42613577842712,242.42859077453613,242.44049191474915,242.59073615074158,242.59073615074158,242.59073615074158,242.59073615074158,242.59073615074158,242.59073615074158,242.59073615074158,243.72532057762146,3,1.2787809371948242,None,,,,,,,,,,,,,,,,,,140,5,2025-02-27_10h27.38.063,comp,2024.2.4,60.093586756872156,2025-02-27 10h27.49.100372 -0500,
56,56,0,critical,whd,20.0,1.0,upper,125.0,200.0,200.0,125.0,141.0,141.0,2,2.9326395988464355,None,,,,,0,0,0,0,0,56,56,91,243.74072527885437,,,,,,,,,,,,,,,,,,,,,,,,,,,,,,,,,,,,,,,,,,,,,,,,,,,,,,,,,,,,,,,,,,,,,,,,,,,,,,,,,,125.0,200.0,200.0,125.0,141.0,141.0,1.0,1.3,222,-270,480,-256,709,-276,243.72611546516418,243.72615838050842,243.7285635471344,243.74072527885437,243.890855550766,243.890855550766,243.890855550766,243.890855550766,243.890855550766,243.890855550766,243.890855550766,246.67529439926147,2,2.9326395988464355,None,,,,,,,,,,,,,,,,,,140,5,2025-02-27_10h27.38.063,comp,2024.2.4,60.093586756872156,2025-02-27 10h27.49.100372 -0500,
57,57,0,filler_random,None,None,None,None,None,None,None,None,None,None,3,1.7500360012054443,None,,,,,0,0,0,0,0,57,57,146,246.69071292877197,,,,,,,,,,,,,,,,,,,,,,,,,,,,,,,,,,,,,,,,,,,,,,,,,,,,,,,,,,,,,,,,,,,,,,,,,,,,,,,,,,108.86913576138429,119.82200739434683,58.445783523269746,113.43682030472928,138.65796419908844,153.17112984948727,2.2,2.22,-213,256,0,-262,229,-278,246.67616963386536,246.67621111869812,246.6786766052246,246.69071292877197,246.84059238433838,246.84059238433838,246.84059238433838,246.84059238433838,246.84059238433838,246.84059238433838,246.84059238433838,248.45832777023315,3,1.7500360012054443,None,,,,,,,,,,,,,,,,,,140,5,2025-02-27_10h27.38.063,comp,2024.2.4,60.093586756872156,2025-02-27 10h27.49.100372 -0500,
58,58,0,filler_random,None,None,None,None,None,None,None,None,None,None,3,3.1340997219085693,None,,,,,0,0,0,0,0,58,58,151,248.4735496044159,,,,,,,,,,,,,,,,,,,,,,,,,,,,,,,,,,,,,,,,,,,,,,,,,,,,,,,,,,,,,,,,,,,,,,,,,,,,,,,,,,176.81869351297186,180.50108410070675,123.36249826329346,69.41902327002192,175.9336630034929,188.55938232530693,3.0,3.1,-221,254,0,8,225,-279,248.45921158790588,248.45925307273865,248.4617178440094,248.4735496044159,248.62397456169128,248.62397456169128,248.62397456169128,248.62397456169128,248.62397456169128,248.62397456169128,248.62397456169128,251.6251311302185,3,3.1340997219085693,None,,,,,,,,,,,,,,,,,,140,5,2025-02-27_10h27.38.063,comp,2024.2.4,60.093586756872156,2025-02-27 10h27.49.100372 -0500,
59,59,0,filler_square,None,None,None,None,None,None,None,None,None,None,2,1.6327271461486816,None,,,,,0,0,0,0,0,59,59,185,251.64045333862305,,,,,,,,,,,,,,,,,,,,,,,,,,,,,,,,,,,,,,,,,,,,,,,,,,,,,,,,,,,,,,,,,,,,,,,,,,,,,,,,,,58.555333862749414,57.27328577232644,61.60472104672709,61.60472104672709,58.79440475845129,57.12910210418778,3.0,3.2,-155,-254,0,-19,155,264,251.6261124610901,251.62615442276,251.628559589386,251.64045333862305,251.79047465324402,251.79047465324402,251.79047465324402,251.79047465324402,251.79047465324402,251.79047465324402,251.79047465324402,253.27517676353455,2,1.6327271461486816,None,,,,,,,,,,,,,,,,,,140,5,2025-02-27_10h27.38.063,comp,2024.2.4,60.093586756872156,2025-02-27 10h27.49.100372 -0500,
60,60,0,filler_random,None,None,None,None,None,None,None,None,None,None,2,5.581944465637207,None,,,,,0,0,0,0,0,60,60,169,253.29055881500244,,,,,,,,,,,,,,,,,,,,,,,,,,,,,,,,,,,,,,,,,,,,,,,,,,,,,,,,,,,,,,,,,,,,,,,,,,,,,,,,,,142.85684902336604,164.01998135198434,148.80168481081677,176.22648805383315,98.45560858479914,138.14796947139322,3.0,3.2,-266,-252,0,4,253,287,253.27606797218323,253.27610898017883,253.27817130088806,253.29055881500244,253.44061517715454,253.44061517715454,253.44061517715454,253.44061517715454,253.44061517715454,253.44061517715454,253.44061517715454,258.8751142024994,2,5.581944465637207,None,,,,,,,,,,,,,,,,,,140,5,2025-02-27_10h27.38.063,comp,2024.2.4,60.093586756872156,2025-02-27 10h27.49.100372 -0500,
61,61,0,catch,None,None,None,None,None,None,None,None,None,None,3,1.0043957233428955,None,,,,,0,0,0,0,0,61,61,128,258.8906033039093,,,,,,,,,,,,,,,,,,,,,,,,,,,,,,,,,,,,,,,,,,,,,,,,,,,,,,,,,,,,,,,,,,,,,,,,,,,,,,,,,,113,77,73,117,179,146,4.0,4.2,-193,15,0,-271,228,18,258.8761510848999,258.8761947154999,258.87825417518616,258.8906033039093,259.0404965877533,259.0404965877533,259.0404965877533,259.0404965877533,259.0404965877533,259.0404965877533,259.0404965877533,259.90814304351807,3,1.0043957233428955,None,,,,,,,,,,,,,,,,,,140,5,2025-02-27_10h27.38.063,comp,2024.2.4,60.093586756872156,2025-02-27 10h27.49.100372 -0500,
62,62,0,critical,dhw,35.0,3.0,lower,70.0,70.0,133.0,57.0,57.0,133.0,3,6.30028223991394,None,,,,,0,0,0,0,0,62,62,50,259.92360520362854,,,,,,,,,,,,,,,,,,,,,,,,,,,,,,,,,,,,,,,,,,,,,,,,,,,,,,,,,,,,,,,,,,,,,,,,,,,,,,,,,,70.0,70.0,133.0,57.0,57.0,133.0,3.0,3.1,-160,272,0,18,191,-281,259.9089252948761,259.9089677333832,259.91142177581787,259.92360520362854,260.0737998485565,260.0737998485565,260.0737998485565,260.0737998485565,260.0737998485565,260.0737998485565,260.0737998485565,266.22509694099426,3,6.30028223991394,None,,,,,,,,,,,,,,,,,,140,5,2025-02-27_10h27.38.063,comp,2024.2.4,60.093586756872156,2025-02-27 10h27.49.100372 -0500,
63,63,0,critical,dhw,35.0,2.1,lower,70.0,70.0,133.0,57.0,57.0,133.0,2,2.9106202125549316,None,,,,,0,0,0,0,0,63,63,24,266.24041056632996,,,,,,,,,,,,,,,,,,,,,,,,,,,,,,,,,,,,,,,,,,,,,,,,,,,,,,,,,,,,,,,,,,,,,,,,,,,,,,,,,,70.0,70.0,133.0,57.0,57.0,133.0,2.1,2.12,-160,-266,0,-252,191,265,266.2259199619293,266.2259624004364,266.2286546230316,266.24041056632996,266.39031887054443,266.39031887054443,266.39031887054443,266.39031887054443,266.39031887054443,266.39031887054443,266.39031887054443,269.158077955246,2,2.9106202125549316,None,,,,,,,,,,,,,,,,,,140,5,2025-02-27_10h27.38.063,comp,2024.2.4,60.093586756872156,2025-02-27 10h27.49.100372 -0500,
64,64,0,filler_square,None,None,None,None,None,None,None,None,None,None,1,0.9608986377716064,None,,,,,0,0,0,0,0,64,64,209,269.1741988658905,,,,,,,,,,,,,,,,,,,,,,,,,,,,,,,,,,,,,,,,,,,,,,,,,,,,,,,,,,,,,,,,,,,,,,,,,,,,,,,,,,95.3242691084923,95.3242691084923,83.0136473417834,63.663780133483314,60.1511742841884,58.658808896507374,2.1,2.12,-175,-260,0,-263,157,258,269.1590690612793,269.15911078453064,269.16119742393494,269.1741988658905,269.3236093521118,269.3236093521118,269.3236093521118,269.3236093521118,269.3236093521118,269.3236093521118,269.3236093521118,270.14133405685425,1,0.9608986377716064,None,,,,,,,,,,,,,,,,,,140,5,2025-02-27_10h27.38.063,comp,2024.2.4,60.093586756872156,2025-02-27 10h27.49.100372 -0500,
65,65,0,critical,wdh,20.0,3.0,lower,57.0,133.0,78.0,78.0,133.0,57.0,3,1.7780189514160156,None,,,,,0,0,0,0,0,65,65,80,270.1570372581482,,,,,,,,,,,,,,,,,,,,,,,,,,,,,,,,,,,,,,,,,,,,,,,,,,,,,,,,,,,,,,,,,,,,,,,,,,,,,,,,,,57.0,133.0,78.0,78.0,133.0,57.0,3.0,3.2,-202,-286,0,14,164,287,270.1421182155609,270.14215993881226,270.1447172164917,270.1570372581482,270.30701327323914,270.30701327323914,270.30701327323914,270.30701327323914,270.30701327323914,270.30701327323914,270.30701327323914,271.94138073921204,3,1.7780189514160156,None,,,,,,,,,,,,,,,,,,140,5,2025-02-27_10h27.38.063,comp,2024.2.4,60.093586756872156,2025-02-27 10h27.49.100372 -0500,
66,66,0,filler_square,None,None,None,None,None,None,None,None,None,None,2,0.9778482913970947,None,,,,,0,0,0,0,0,66,66,175,271.9571588039398,,,,,,,,,,,,,,,,,,,,,,,,,,,,,,,,,,,,,,,,,,,,,,,,,,,,,,,,,,,,,,,,,,,,,,,,,,,,,,,,,,85.75386311151468,177.35455700243241,182.84572172915153,182.84572172915153,60.02585913774474,69.6214380283163,4.0,4.2,-276,16,0,-288,222,-5,271.9423153400421,271.94235706329346,271.9445436000824,271.9571588039398,272.10702872276306,272.10702872276306,272.10702872276306,272.10702872276306,272.10702872276306,272.10702872276306,272.10702872276306,272.9415535926819,2,0.9778482913970947,None,,,,,,,,,,,,,,,,,,140,5,2025-02-27_10h27.38.063,comp,2024.2.4,60.093586756872156,2025-02-27 10h27.49.100372 -0500,
67,67,0,critical,wdh,35.0,2.1,upper,125.0,200.0,127.0,127.0,200.0,125.0,1,6.536955833435059,None,,,,,0,0,0,0,0,67,67,33,272.95714592933655,,,,,,,,,,,,,,,,,,,,,,,,,,,,,,,,,,,,,,,,,,,,,,,,,,,,,,,,,,,,,,,,,,,,,,,,,,,,,,,,,,125.0,200.0,127.0,127.0,200.0,125.0,2.1,2.12,-260,-252,0,-264,222,253,272.94237446784973,272.9424157142639,272.9444818496704,272.95714592933655,273.10713148117065,273.10713148117065,273.10713148117065,273.10713148117065,273.10713148117065,273.10713148117065,273.10713148117065,279.5082948207855,1,6.536955833435059,None,,,,,,,,,,,,,,,,,,140,5,2025-02-27_10h27.38.063,comp,2024.2.4,60.093586756872156,2025-02-27 10h27.49.100372 -0500,
68,68,0,critical,hdw,35.0,2.1,upper,200.0,125.0,127.0,127.0,125.0,200.0,3,2.3865861892700195,None,,,,,0,0,0,0,0,68,68,21,279.5237069129944,,,,,,,,,,,,,,,,,,,,,,,,,,,,,,,,,,,,,,,,,,,,,,,,,,,,,,,,,,,,,,,,,,,,,,,,,,,,,,,,,,200.0,125.0,127.0,127.0,125.0,200.0,2.1,2.11,-222,269,0,278,260,-278,279.5090937614441,279.509135723114,279.5116539001465,279.5237069129944,279.6739559173584,279.6739559173584,279.6739559173584,279.6739559173584,279.6739559173584,279.6739559173584,279.6739559173584,281.92493724823,3,2.3865861892700195,None,,,,,,,,,,,,,,,,,,140,5,2025-02-27_10h27.38.063,comp,2024.2.4,60.093586756872156,2025-02-27 10h27.49.100372 -0500,
69,69,0,critical,dwh,20.0,2.1,upper,141.0,141.0,125.0,200.0,200.0,125.0,2,3.5859744548797607,None,,,,,0,0,0,0,0,69,69,31,281.9401783943176,,,,,,,,,,,,,,,,,,,,,,,,,,,,,,,,,,,,,,,,,,,,,,,,,,,,,,,,,,,,,,,,,,,,,,,,,,,,,,,,,,141.0,141.0,125.0,200.0,200.0,125.0,2.1,2.12,-266,-258,0,-266,258,267,281.9257411956787,281.92578172683716,281.92810130119324,281.9401783943176,282.09040904045105,282.09040904045105,282.09040904045105,282.09040904045105,282.09040904045105,282.09040904045105,282.09040904045105,285.5415406227112,2,3.5859744548797607,None,,,,,,,,,,,,,,,,,,140,5,2025-02-27_10h27.38.063,comp,2024.2.4,60.093586756872156,2025-02-27 10h27.49.100372 -0500,
70,70,0,catch,None,None,None,None,None,None,None,None,None,None,1,1.1053082942962646,None,,,,,0,0,0,0,0,70,70,126,285.55673813819885,,,,,,,,,,,,,,,,,,,,,,,,,,,,,,,,,,,,,,,,,,,,,,,,,,,,,,,,,,,,,,,,,,,,,,,,,,,,,,,,,,166,159,97,93,130,60,1.0,1.3,258,-272,480,-279,652,-287,285.54261350631714,285.5426552295685,285.54492235183716,285.55673813819885,285.70695328712463,285.70695328712463,285.70695328712463,285.70695328712463,285.70695328712463,285.70695328712463,285.70695328712463,286.67476439476013,1,1.1053082942962646,None,,,,,,,,,,,,,,,,,,140,5,2025-02-27_10h27.38.063,comp,2024.2.4,60.093586756872156,2025-02-27 10h27.49.100372 -0500,
71,71,0,filler_random,None,None,None,None,None,None,None,None,None,None,1,2.844860315322876,None,,,,,0,0,0,0,0,71,71,161,286.6901230812073,,,,,,,,,,,,,,,,,,,,,,,,,,,,,,,,,,,,,,,,,,,,,,,,,,,,,,,,,,,,,,,,,,,,,,,,,,,,,,,,,,198.7131940949328,127.04864516997252,171.73091462888425,92.07830593320955,66.81206775392769,126.44136962609308,3.0,3.1,-206,252,0,-19,205,-277,286.6756479740143,286.67568802833557,286.6780045032501,286.6901230812073,286.84040236473083,286.84040236473083,286.84040236473083,286.84040236473083,286.84040236473083,286.84040236473083,286.84040236473083,289.5415415763855,1,2.844860315322876,None,,,,,,,,,,,,,,,,,,140,5,2025-02-27_10h27.38.063,comp,2024.2.4,60.093586756872156,2025-02-27 10h27.49.100372 -0500,
72,72,0,critical,whd,35.0,2.1,upper,125.0,200.0,200.0,125.0,127.0,127.0,2,2.7530596256256104,None,,,,,0,0,0,0,0,72,72,37,289.55715894699097,,,,,,,,,,,,,,,,,,,,,,,,,,,,,,,,,,,,,,,,,,,,,,,,,,,,,,,,,,,,,,,,,,,,,,,,,,,,,,,,,,125.0,200.0,200.0,125.0,127.0,127.0,2.1,2.12,-258,-279,0,-272,222,254,289.5423893928528,289.5424349308014,289.54447054862976,289.55715894699097,289.7069892883301,289.7069892883301,289.7069892883301,289.7069892883301,289.7069892883301,289.7069892883301,289.7069892883301,292.32485485076904,2,2.7530596256256104,None,,,,,,,,,,,,,,,,,,140,5,2025-02-27_10h27.38.063,comp,2024.2.4,60.093586756872156,2025-02-27 10h27.49.100372 -0500,
73,73,0,filler_random,None,None,None,None,None,None,None,None,None,None,2,2.369947910308838,None,,,,,0,0,0,0,0,73,73,144,292.3401908874512,,,,,,,,,,,,,,,,,,,,,,,,,,,,,,,,,,,,,,,,,,,,,,,,,,,,,,,,,,,,,,,,,,,,,,,,,,,,,,,,,,59.45758111584385,127.18476739068252,112.33604911024739,82.37999996284739,78.095816754474,63.19648536828209,1.0,1.2,-201,10,0,-10,169,-9,292.32577085494995,292.3258123397827,292.3290984630585,292.3401908874512,292.49032258987427,292.49032258987427,292.49032258987427,292.49032258987427,292.49032258987427,292.49032258987427,292.49032258987427,294.7245194911957,2,2.369947910308838,None,,,,,,,,,,,,,,,,,,140,5,2025-02-27_10h27.38.063,comp,2024.2.4,60.093586756872156,2025-02-27 10h27.49.100372 -0500,
74,74,0,critical,hdw,35.0,2.1,lower,133.0,57.0,70.0,70.0,57.0,133.0,1,3.932321548461914,None,,,,,0,0,0,0,0,74,74,20,294.74003505706787,,,,,,,,,,,,,,,,,,,,,,,,,,,,,,,,,,,,,,,,,,,,,,,,,,,,,,,,,,,,,,,,,,,,,,,,,,,,,,,,,,133.0,57.0,70.0,70.0,57.0,133.0,2.1,2.11,-160,263,0,273,198,-253,294.7252984046936,294.72533893585205,294.72754096984863,294.74003505706787,294.8902254104614,294.8902254104614,294.8902254104614,294.8902254104614,294.8902254104614,294.8902254104614,294.8902254104614,298.6746618747711,1,3.932321548461914,None,,,,,,,,,,,,,,,,,,140,5,2025-02-27_10h27.38.063,comp,2024.2.4,60.093586756872156,2025-02-27 10h27.49.100372 -0500,
75,75,0,critical,dhw,20.0,2.1,lower,78.0,78.0,133.0,57.0,57.0,133.0,3,2.966399908065796,None,,,,,0,0,0,0,0,75,75,2,298.69018507003784,,,,,,,,,,,,,,,,,,,,,,,,,,,,,,,,,,,,,,,,,,,,,,,,,,,,,,,,,,,,,,,,,,,,,,,,,,,,,,,,,,78.0,78.0,133.0,57.0,57.0,133.0,2.1,2.12,-164,-257,0,-262,191,267,298.67542147636414,298.67546105384827,298.6774640083313,298.69018507003784,298.84010004997253,298.84010004997253,298.84010004997253,298.84010004997253,298.84010004997253,298.84010004997253,298.84010004997253,301.6582832336426,3,2.966399908065796,None,,,,,,,,,,,,,,,,,,140,5,2025-02-27_10h27.38.063,comp,2024.2.4,60.093586756872156,2025-02-27 10h27.49.100372 -0500,
76,76,0,critical,dwh,20.0,2.1,lower,78.0,78.0,57.0,133.0,133.0,57.0,3,3.566541910171509,None,,,,,0,0,0,0,0,76,76,30,301.67364597320557,,,,,,,,,,,,,,,,,,,,,,,,,,,,,,,,,,,,,,,,,,,,,,,,,,,,,,,,,,,,,,,,,,,,,,,,,,,,,,,,,,78.0,78.0,57.0,133.0,133.0,57.0,2.1,2.12,-202,-275,0,-273,191,267,301.6590871810913,301.6591284275055,301.66119146347046,301.67364597320557,301.82361912727356,301.82361912727356,301.82361912727356,301.82361912727356,301.82361912727356,301.82361912727356,301.82361912727356,305.2414433956146,3,3.566541910171509,None,,,,,,,,,,,,,,,,,,140,5,2025-02-27_10h27.38.063,comp,2024.2.4,60.093586756872156,2025-02-27 10h27.49.100372 -0500,
77,77,0,critical,wdh,35.0,2.1,upper,125.0,200.0,127.0,127.0,200.0,125.0,3,2.694154739379883,None,,,,,0,0,0,0,0,77,77,9,305.2568483352661,,,,,,,,,,,,,,,,,,,,,,,,,,,,,,,,,,,,,,,,,,,,,,,,,,,,,,,,,,,,,,,,,,,,,,,,,,,,,,,,,,125.0,200.0,127.0,127.0,200.0,125.0,2.1,2.12,-260,-266,0,-280,222,253,305.24223256111145,305.2422733306885,305.24439430236816,305.2568483352661,305.4069347381592,305.4069347381592,305.4069347381592,305.4069347381592,305.4069347381592,305.4069347381592,305.4069347381592,307.9580843448639,3,2.694154739379883,None,,,,,,,,,,,,,,,,,,140,5,2025-02-27_10h27.38.063,comp,2024.2.4,60.093586756872156,2025-02-27 10h27.49.100372 -0500,
78,78,0,filler_square,None,None,None,None,None,None,None,None,None,None,3,1.8003649711608887,None,,,,,0,0,0,0,0,78,78,191,307.9735734462738,,,,,,,,,,,,,,,,,,,,,,,,,,,,,,,,,,,,,,,,,,,,,,,,,,,,,,,,,,,,,,,,,,,,,,,,,,,,,,,,,,59.51378119533275,64.97042850999136,58.17083995528575,65.10039878123072,66.75493299798934,66.75493299798934,1.0,1.2,-161,2,0,-7,162,0,307.95904088020325,307.9590826034546,307.9611568450928,307.9735734462738,308.1232533454895,308.1232533454895,308.1232533454895,308.1232533454895,308.1232533454895,308.1232533454895,308.1232533454895,309.7910940647125,3,1.8003649711608887,None,,,,,,,,,,,,,,,,,,140,5,2025-02-27_10h27.38.063,comp,2024.2.4,60.093586756872156,2025-02-27 10h27.49.100372 -0500,
79,79,0,filler_random,None,None,None,None,None,None,None,None,None,None,3,1.033757209777832,None,,,,,0,0,0,0,0,79,79,138,309.8065559864044,,,,,,,,,,,,,,,,,,,,,,,,,,,,,,,,,,,,,,,,,,,,,,,,,,,,,,,,,,,,,,,,,,,,,,,,,,,,,,,,,,164.13258468277658,63.442223313025075,107.07652477432187,102.58017384006295,195.85300006983695,132.56329636025495,2.2,2.22,-179,265,0,-275,214,-271,309.7919931411743,309.7920343875885,309.7945079803467,309.8065559864044,309.9567515850067,309.9567515850067,309.9567515850067,309.9567515850067,309.9567515850067,309.9567515850067,309.9567515850067,310.8414716720581,3,1.033757209777832,None,,,,,,,,,,,,,,,,,,140,5,2025-02-27_10h27.38.063,comp,2024.2.4,60.093586756872156,2025-02-27 10h27.49.100372 -0500,
80,80,0,filler_random,None,None,None,None,None,None,None,None,None,None,3,2.9262166023254395,None,,,,,0,0,0,0,0,80,80,163,310.85683941841125,,,,,,,,,,,,,,,,,,,,,,,,,,,,,,,,,,,,,,,,,,,,,,,,,,,,,,,,,,,,,,,,,,,,,,,,,,,,,,,,,,142.78469011914837,80.57802337463417,73.00871121868107,151.13668057973987,150.05737885970302,99.25778447253875,2.1,2.11,-212,271,0,261,221,-267,310.8423936367035,310.8424367904663,310.84460711479187,310.85683941841125,311.0067596435547,311.0067596435547,311.0067596435547,311.0067596435547,311.0067596435547,311.0067596435547,311.0067596435547,313.7912290096283,3,2.9262166023254395,None,,,,,,,,,,,,,,,,,,140,5,2025-02-27_10h27.38.063,comp,2024.2.4,60.093586756872156,2025-02-27 10h27.49.100372 -0500,
81,81,0,critical,dwh,20.0,3.0,upper,141.0,141.0,125.0,200.0,200.0,125.0,3,2.5032577514648438,None,,,,,0,0,0,0,0,81,81,69,313.80677223205566,,,,,,,,,,,,,,,,,,,,,,,,,,,,,,,,,,,,,,,,,,,,,,,,,,,,,,,,,,,,,,,,,,,,,,,,,,,,,,,,,,141.0,141.0,125.0,200.0,200.0,125.0,3.0,3.1,-266,269,0,9,258,-282,313.79201555252075,313.792058467865,313.79409074783325,313.80677223205566,313.95676255226135,313.95676255226135,313.95676255226135,313.95676255226135,313.95676255226135,313.95676255226135,313.95676255226135,316.3247034549713,3,2.5032577514648438,None,,,,,,,,,,,,,,,,,,140,5,2025-02-27_10h27.38.063,comp,2024.2.4,60.093586756872156,2025-02-27 10h27.49.100372 -0500,
82,82,0,critical,wdh,35.0,3.0,upper,125.0,200.0,127.0,127.0,200.0,125.0,1,1.7482686042785645,None,,,,,0,0,0,0,0,82,82,75,316.3399660587311,,,,,,,,,,,,,,,,,,,,,,,,,,,,,,,,,,,,,,,,,,,,,,,,,,,,,,,,,,,,,,,,,,,,,,,,,,,,,,,,,,125.0,200.0,127.0,127.0,200.0,125.0,3.0,3.1,-260,253,0,6,222,-267,316.32549023628235,316.32553219795227,316.32759189605713,316.3399660587311,316.4902696609497,316.4902696609497,316.4902696609497,316.4902696609497,316.4902696609497,316.4902696609497,316.4902696609497,318.09154534339905,1,1.7482686042785645,None,,,,,,,,,,,,,,,,,,140,5,2025-02-27_10h27.38.063,comp,2024.2.4,60.093586756872156,2025-02-27 10h27.49.100372 -0500,
83,83,0,critical,dhw,35.0,1.0,upper,127.0,127.0,200.0,125.0,125.0,200.0,3,3.6191914081573486,None,,,,,0,0,0,0,0,83,83,49,318.1068856716156,,,,,,,,,,,,,,,,,,,,,,,,,,,,,,,,,,,,,,,,,,,,,,,,,,,,,,,,,,,,,,,,,,,,,,,,,,,,,,,,,,127.0,127.0,200.0,125.0,125.0,200.0,1.0,1.1,-702,252,-480,288,-222,270,318.0923402309418,318.09238147735596,318.09450125694275,318.1068856716156,318.25726342201233,318.25726342201233,318.25726342201233,318.25726342201233,318.25726342201233,318.25726342201233,318.25726342201233,321.7414770126343,3,3.6191914081573486,None,,,,,,,,,,,,,,,,,,140,5,2025-02-27_10h27.38.063,comp,2024.2.4,60.093586756872156,2025-02-27 10h27.49.100372 -0500,
84,84,0,filler_square,None,None,None,None,None,None,None,None,None,None,1,2.2997677326202393,None,,,,,0,0,0,0,0,84,84,202,321.7566440105438,,,,,,,,,,,,,,,,,,,,,,,,,,,,,,,,,,,,,,,,,,,,,,,,,,,,,,,,,,,,,,,,,,,,,,,,,,,,,,,,,,76.28092927500235,76.28092927500235,70.50985432797214,63.7780993823831,61.545824797831095,69.02882020815608,2.2,2.22,-166,268,0,-275,162,-269,321.7424592971802,321.7425010204315,321.7449791431427,321.7566440105438,321.90667748451233,321.90667748451233,321.90667748451233,321.90667748451233,321.90667748451233,321.90667748451233,321.90667748451233,324.07442021369934,1,2.2997677326202393,None,,,,,,,,,,,,,,,,,,140,5,2025-02-27_10h27.38.063,comp,2024.2.4,60.093586756872156,2025-02-27 10h27.49.100372 -0500,
85,85,0,filler_square,None,None,None,None,None,None,None,None,None,None,1,9.100118637084961,None,,,,,0,0,0,0,0,85,85,174,324.09008049964905,,,,,,,,,,,,,,,,,,,,,,,,,,,,,,,,,,,,,,,,,,,,,,,,,,,,,,,,,,,,,,,,,,,,,,,,,,,,,,,,,,67.27618515605825,67.27618515605825,65.40030547479722,64.5942015346804,61.72513861983874,60.37814190295249,3.0,3.2,-162,-264,0,-10,158,264,324.0753843784332,324.07542729377747,324.0780303478241,324.09008049964905,324.23985409736633,324.23985409736633,324.23985409736633,324.23985409736633,324.23985409736633,324.23985409736633,324.23985409736633,333.2076189517975,1,9.100118637084961,None,,,,,,,,,,,,,,,,,,140,5,2025-02-27_10h27.38.063,comp,2024.2.4,60.093586756872156,2025-02-27 10h27.49.100372 -0500,
86,86,0,critical,hwd,20.0,1.0,upper,200.0,125.0,125.0,200.0,141.0,141.0,2,9.167458772659302,None,,,,,0,0,0,0,0,86,86,103,333.22306418418884,,,,,,,,,,,,,,,,,,,,,,,,,,,,,,,,,,,,,,,,,,,,,,,,,,,,,,,,,,,,,,,,,,,,,,,,,,,,,,,,,,200.0,125.0,125.0,200.0,141.0,141.0,1.0,1.1,-738,276,-480,287,-214,270,333.20838356018066,333.20842361450195,333.2106544971466,333.22306418418884,333.3734083175659,333.3734083175659,333.3734083175659,333.3734083175659,333.3734083175659,333.3734083175659,333.3734083175659,342.40785336494446,2,9.167458772659302,None,,,,,,,,,,,,,,,,,,140,5,2025-02-27_10h27.38.063,comp,2024.2.4,60.093586756872156,2025-02-27 10h27.49.100372 -0500,
87,87,0,filler_square,None,None,None,None,None,None,None,None,None,None,1,1.2335093021392822,None,,,,,0,0,0,0,0,87,87,206,342.4231333732605,,,,,,,,,,,,,,,,,,,,,,,,,,,,,,,,,,,,,,,,,,,,,,,,,,,,,,,,,,,,,,,,,,,,,,,,,,,,,,,,,,146.56607352309993,146.56607352309993,140.31556540367097,81.10637620135617,78.97955555060082,107.73292754656791,1.0,1.3,270,-270,480,-268,670,-255,342.40879917144775,342.4088411331177,342.4109630584717,342.4231333732605,342.5733757019043,342.5733757019043,342.5733757019043,342.5733757019043,342.5733757019043,342.5733757019043,342.5733757019043,343.6580100059509,1,1.2335093021392822,None,,,,,,,,,,,,,,,,,,140,5,2025-02-27_10h27.38.063,comp,2024.2.4,60.093586756872156,2025-02-27 10h27.49.100372 -0500,
88,88,0,filler_random,None,None,None,None,None,None,None,None,None,None,2,3.5094339847564697,None,,,,,0,0,0,0,0,88,88,153,343.67324924468994,,,,,,,,,,,,,,,,,,,,,,,,,,,,,,,,,,,,,,,,,,,,,,,,,,,,,,,,,,,,,,,,,,,,,,,,,,,,,,,,,,178.59035759565967,106.49365086964062,80.09634115988126,198.9018178818894,78.51495596493174,169.02658034023636,3.0,3.1,-249,262,0,-4,280,-279,343.6588957309723,343.6589398384094,343.6610507965088,343.67324924468994,343.8239758014679,343.8239758014679,343.8239758014679,343.8239758014679,343.8239758014679,343.8239758014679,343.8239758014679,347.1910834312439,2,3.5094339847564697,None,,,,,,,,,,,,,,,,,,140,5,2025-02-27_10h27.38.063,comp,2024.2.4,60.093586756872156,2025-02-27 10h27.49.100372 -0500,
89,89,0,critical,hwd,20.0,2.1,upper,200.0,125.0,125.0,200.0,141.0,141.0,1,3.3191921710968018,None,,,,,0,0,0,0,0,89,89,19,347.2066857814789,,,,,,,,,,,,,,,,,,,,,,,,,,,,,,,,,,,,,,,,,,,,,,,,,,,,,,,,,,,,,,,,,,,,,,,,,,,,,,,,,,200.0,125.0,125.0,200.0,141.0,141.0,2.1,2.11,-258,288,0,274,266,-283,347.1918954849243,347.19193601608276,347.19437170028687,347.2066857814789,347.35670042037964,347.35670042037964,347.35670042037964,347.35670042037964,347.35670042037964,347.35670042037964,347.35670042037964,350.5411002635956,1,3.3191921710968018,None,,,,,,,,,,,,,,,,,,140,5,2025-02-27_10h27.38.063,comp,2024.2.4,60.093586756872156,2025-02-27 10h27.49.100372 -0500,
90,90,0,filler_random,None,None,None,None,None,None,None,None,None,None,2,0.8504350185394287,None,,,,,0,0,0,0,0,90,90,139,350.55632638931274,,,,,,,,,,,,,,,,,,,,,,,,,,,,,,,,,,,,,,,,,,,,,,,,,,,,,,,,,,,,,,,,,,,,,,,,,,,,,,,,,,112.33908031158097,127.73382675151416,174.24541647737226,114.500486031136,132.24330095171405,79.22466468444435,1.0,1.1,-697,257,-480,283,-287,266,350.54196405410767,350.54200506210327,350.54433488845825,350.55632638931274,350.7066316604614,350.7066316604614,350.7066316604614,350.7066316604614,350.7066316604614,350.7066316604614,350.7066316604614,351.40789103507996,2,0.8504350185394287,None,,,,,,,,,,,,,,,,,,140,5,2025-02-27_10h27.38.063,comp,2024.2.4,60.093586756872156,2025-02-27 10h27.49.100372 -0500,
91,91,0,filler_random,None,None,None,None,None,None,None,None,None,None,1,1.295269250869751,None,,,,,0,0,0,0,0,91,91,143,351.4232454299927,,,,,,,,,,,,,,,,,,,,,,,,,,,,,,,,,,,,,,,,,,,,,,,,,,,,,,,,,,,,,,,,,,,,,,,,,,,,,,,,,,155.11932172251335,143.96969727635616,97.27424580902496,114.76029666042983,100.8650708709953,133.26719241226886,4.0,4.1,-225,-273,0,-4,220,-266,351.4088087081909,351.4088656902313,351.41139459609985,351.4232454299927,351.57317304611206,351.57317304611206,351.57317304611206,351.57317304611206,351.57317304611206,351.57317304611206,351.57317304611206,352.724383354187,1,1.295269250869751,None,,,,,,,,,,,,,,,,,,140,5,2025-02-27_10h27.38.063,comp,2024.2.4,60.093586756872156,2025-02-27 10h27.49.100372 -0500,
92,92,0,critical,dwh,35.0,1.0,upper,127.0,127.0,125.0,200.0,200.0,125.0,3,1.0265893936157227,None,,,,,0,0,0,0,0,92,92,61,352.7399756908417,,,,,,,,,,,,,,,,,,,,,,,,,,,,,,,,,,,,,,,,,,,,,,,,,,,,,,,,,,,,,,,,,,,,,,,,,,,,,,,,,,127.0,127.0,125.0,200.0,200.0,125.0,1.0,1.2,-260,11,0,-5,258,18,352.7251477241516,352.7251899242401,352.72760105133057,352.7399756908417,352.88995838165283,352.88995838165283,352.88995838165283,352.88995838165283,352.88995838165283,352.88995838165283,352.88995838165283,353.77441930770874,3,1.0265893936157227,None,,,,,,,,,,,,,,,,,,140,5,2025-02-27_10h27.38.063,comp,2024.2.4,60.093586756872156,2025-02-27 10h27.49.100372 -0500,
93,93,0,filler_random,None,None,None,None,None,None,None,None,None,None,1,1.4246203899383545,None,,,,,0,0,0,0,0,93,93,130,353.78986740112305,,,,,,,,,,,,,,,,,,,,,,,,,,,,,,,,,,,,,,,,,,,,,,,,,,,,,,,,,,,,,,,,,,,,,,,,,,,,,,,,,,94.5908262309404,184.4666303836393,81.93861542623242,101.08282008644916,80.24855891190003,72.56288341922726,2.1,2.12,-239,-260,0,-253,183,276,353.7753698825836,353.7754120826721,353.77801394462585,353.78986740112305,353.93985199928284,353.93985199928284,353.93985199928284,353.93985199928284,353.93985199928284,353.93985199928284,353.93985199928284,355.2240946292877,1,1.4246203899383545,None,,,,,,,,,,,,,,,,,,140,5,2025-02-27_10h27.38.063,comp,2024.2.4,60.093586756872156,2025-02-27 10h27.49.100372 -0500,
94,94,0,critical,hwd,35.0,3.0,lower,133.0,57.0,57.0,133.0,70.0,70.0,2,4.783512115478516,None,,,,,0,0,0,0,0,94,94,98,355.2398569583893,,,,,,,,,,,,,,,,,,,,,,,,,,,,,,,,,,,,,,,,,,,,,,,,,,,,,,,,,,,,,,,,,,,,,,,,,,,,,,,,,,133.0,57.0,57.0,133.0,70.0,70.0,3.0,3.1,-191,255,0,-6,198,-251,355.2248523235321,355.22489309310913,355.22726607322693,355.2398569583893,355.38965606689453,355.38965606689453,355.38965606689453,355.38965606689453,355.38965606689453,355.38965606689453,355.38965606689453,360.04082465171814,2,4.783512115478516,None,,,,,,,,,,,,,,,,,,140,5,2025-02-27_10h27.38.063,comp,2024.2.4,60.093586756872156,2025-02-27 10h27.49.100372 -0500,
95,95,0,critical,wdh,35.0,2.1,lower,57.0,133.0,70.0,70.0,133.0,57.0,1,2.9669342041015625,None,,,,,0,0,0,0,0,95,95,8,360.05641317367554,,,,,,,,,,,,,,,,,,,,,,,,,,,,,,,,,,,,,,,,,,,,,,,,,,,,,,,,,,,,,,,,,,,,,,,,,,,,,,,,,,57.0,133.0,70.0,70.0,133.0,57.0,2.1,2.12,-198,-287,0,-262,160,262,360.0416193008423,360.04166054725647,360.04393792152405,360.05641317367554,360.20644330978394,360.20644330978394,360.20644330978394,360.20644330978394,360.20644330978394,360.20644330978394,360.20644330978394,363.04084277153015,1,2.9669342041015625,None,,,,,,,,,,,,,,,,,,140,5,2025-02-27_10h27.38.063,comp,2024.2.4,60.093586756872156,2025-02-27 10h27.49.100372 -0500,
96,96,0,critical,hdw,35.0,3.0,lower,133.0,57.0,70.0,70.0,57.0,133.0,3,5.085561275482178,None,,,,,0,0,0,0,0,96,96,110,363.0561172962189,,,,,,,,,,,,,,,,,,,,,,,,,,,,,,,,,,,,,,,,,,,,,,,,,,,,,,,,,,,,,,,,,,,,,,,,,,,,,,,,,,133.0,57.0,70.0,70.0,57.0,133.0,3.0,3.2,-160,-255,0,18,198,261,363.04156589508057,363.04161763191223,363.04390716552734,363.0561172962189,363.2063539028168,363.2063539028168,363.2063539028168,363.2063539028168,363.2063539028168,363.2063539028168,363.2063539028168,368.1574423313141,3,5.085561275482178,None,,,,,,,,,,,,,,,,,,140,5,2025-02-27_10h27.38.063,comp,2024.2.4,60.093586756872156,2025-02-27 10h27.49.100372 -0500,
97,97,0,filler_square,None,None,None,None,None,None,None,None,None,None,1,1.4175519943237305,None,,,,,0,0,0,0,0,97,97,205,368.17296862602234,,,,,,,,,,,,,,,,,,,,,,,,,,,,,,,,,,,,,,,,,,,,,,,,,,,,,,,,,,,,,,,,,,,,,,,,,,,,,,,,,,188.83926360842864,188.83926360842864,73.93667749936522,180.68478400421907,176.1320179768761,175.92386615855662,4.0,4.1,-281,-259,0,-17,274,-280,368.1584196090698,368.1584610939026,368.1610040664673,368.17296862602234,368.32320404052734,368.32320404052734,368.32320404052734,368.32320404052734,368.32320404052734,368.32320404052734,368.32320404052734,369.6077995300293,1,1.4175519943237305,None,,,,,,,,,,,,,,,,,,140,5,2025-02-27_10h27.38.063,comp,2024.2.4,60.093586756872156,2025-02-27 10h27.49.100372 -0500,
98,98,0,catch,None,None,None,None,None,None,None,None,None,None,1,0.8079779148101807,None,,,,,0,0,0,0,0,98,98,127,369.62295961380005,,,,,,,,,,,,,,,,,,,,,,,,,,,,,,,,,,,,,,,,,,,,,,,,,,,,,,,,,,,,,,,,,,,,,,,,,,,,,,,,,,167,158,102,88,123,67,2.1,2.12,-219,-260,0,-258,174,286,369.60883688926697,369.60887837409973,369.61094427108765,369.62295961380005,369.77306866645813,369.77306866645813,369.77306866645813,369.77306866645813,369.77306866645813,369.77306866645813,369.77306866645813,370.44086027145386,1,0.8079779148101807,None,,,,,,,,,,,,,,,,,,140,5,2025-02-27_10h27.38.063,comp,2024.2.4,60.093586756872156,2025-02-27 10h27.49.100372 -0500,
99,99,0,critical,hwd,20.0,4.0,lower,133.0,57.0,57.0,133.0,78.0,78.0,1,7.085376262664795,None,,,,,0,0,0,0,0,99,99,106,370.456481218338,,,,,,,,,,,,,,,,,,,,,,,,,,,,,,,,,,,,,,,,,,,,,,,,,,,,,,,,,,,,,,,,,,,,,,,,,,,,,,,,,,133.0,57.0,57.0,133.0,78.0,78.0,4.0,4.2,-191,14,0,-282,202,4,370.4417452812195,370.44178771972656,370.4439654350281,370.456481218338,370.60619854927063,370.60619854927063,370.60619854927063,370.60619854927063,370.60619854927063,370.60619854927063,370.60619854927063,377.55748772621155,1,7.085376262664795,None,,,,,,,,,,,,,,,,,,140,5,2025-02-27_10h27.38.063,comp,2024.2.4,60.093586756872156,2025-02-27 10h27.49.100372 -0500,
100,100,0,critical,wdh,20.0,1.0,upper,125.0,200.0,141.0,141.0,200.0,125.0,3,4.921388387680054,None,,,,,0,0,0,0,0,100,100,79,377.572838306427,,,,,,,,,,,,,,,,,,,,,,,,,,,,,,,,,,,,,,,,,,,,,,,,,,,,,,,,,,,,,,,,,,,,,,,,,,,,,,,,,,125.0,200.0,141.0,141.0,200.0,125.0,1.0,1.3,214,-286,480,-283,709,-267,377.5582683086395,377.5583076477051,377.5608766078949,377.572838306427,377.72310090065,377.72310090065,377.72310090065,377.72310090065,377.72310090065,377.72310090065,377.72310090065,382.5075635910034,3,4.921388387680054,None,,,,,,,,,,,,,,,,,,140,5,2025-02-27_10h27.38.063,comp,2024.2.4,60.093586756872156,2025-02-27 10h27.49.100372 -0500,
101,101,0,filler_square,None,None,None,None,None,None,None,None,None,None,3,1.8028604984283447,None,,,,,0,0,0,0,0,101,101,178,382.52274322509766,,,,,,,,,,,,,,,,,,,,,,,,,,,,,,,,,,,,,,,,,,,,,,,,,,,,,,,,,,,,,,,,,,,,,,,,,,,,,,,,,,85.83228483274436,72.37943516702074,64.35294184092571,57.88849785899071,87.31381311954406,87.31381311954406,1.0,1.2,-161,9,0,-11,169,-17,382.50848269462585,382.5085234642029,382.51078486442566,382.52274322509766,382.672842502594,382.672842502594,382.672842502594,382.672842502594,382.672842502594,382.672842502594,382.672842502594,384.340603351593,3,1.8028604984283447,None,,,,,,,,,,,,,,,,,,140,5,2025-02-27_10h27.38.063,comp,2024.2.4,60.093586756872156,2025-02-27 10h27.49.100372 -0500,
102,102,0,critical,dhw,35.0,2.1,upper,127.0,127.0,200.0,125.0,125.0,200.0,3,2.058316946029663,None,,,,,0,0,0,0,0,102,102,1,384.35609889030457,,,,,,,,,,,,,,,,,,,,,,,,,,,,,,,,,,,,,,,,,,,,,,,,,,,,,,,,,,,,,,,,,,,,,,,,,,,,,,,,,,127.0,127.0,200.0,125.0,125.0,200.0,2.1,2.12,-222,-254,0,-270,258,255,384.3413894176483,384.34143018722534,384.3437123298645,384.35609889030457,384.5063989162445,384.5063989162445,384.5063989162445,384.5063989162445,384.5063989162445,384.5063989162445,384.5063989162445,386.42422342300415,3,2.058316946029663,None,,,,,,,,,,,,,,,,,,140,5,2025-02-27_10h27.38.063,comp,2024.2.4,60.093586756872156,2025-02-27 10h27.49.100372 -0500,
103,103,0,filler_random,None,None,None,None,None,None,None,None,None,None,3,1.1108589172363281,None,,,,,0,0,0,0,0,103,103,140,386.43981766700745,,,,,,,,,,,,,,,,,,,,,,,,,,,,,,,,,,,,,,,,,,,,,,,,,,,,,,,,,,,,,,,,,,,,,,,,,,,,,,,,,,84.97649098415374,89.94634463136312,122.41897323689516,165.69228632944763,149.12127837573968,183.15008673890657,2.1,2.11,-224,255,0,288,270,-288,386.42518043518066,386.425222158432,386.4277517795563,386.43981766700745,386.58987283706665,386.58987283706665,386.58987283706665,386.58987283706665,386.58987283706665,386.58987283706665,386.58987283706665,387.55749464035034,3,1.1108589172363281,None,,,,,,,,,,,,,,,,,,140,5,2025-02-27_10h27.38.063,comp,2024.2.4,60.093586756872156,2025-02-27 10h27.49.100372 -0500,
104,104,0,filler_random,None,None,None,None,None,None,None,None,None,None,1,3.0500214099884033,None,,,,,0,0,0,0,0,104,104,147,387.573215007782,,,,,,,,,,,,,,,,,,,,,,,,,,,,,,,,,,,,,,,,,,,,,,,,,,,,,,,,,,,,,,,,,,,,,,,,,,,,,,,,,,100.41087533663239,142.95368362379284,134.8239433450417,113.73031494737631,113.54912187216031,108.47782829650072,3.0,3.2,-224,-286,0,-16,207,283,387.5583806037903,387.55842208862305,387.560489654541,387.573215007782,387.7231135368347,387.7231135368347,387.7231135368347,387.7231135368347,387.7231135368347,387.7231135368347,387.7231135368347,390.64077854156494,1,3.0500214099884033,None,,,,,,,,,,,,,,,,,,140,5,2025-02-27_10h27.38.063,comp,2024.2.4,60.093586756872156,2025-02-27 10h27.49.100372 -0500,
105,105,0,filler_square,None,None,None,None,None,None,None,None,None,None,2,1.6780383586883545,None,,,,,0,0,0,0,0,105,105,194,390.6561417579651,,,,,,,,,,,,,,,,,,,,,,,,,,,,,,,,,,,,,,,,,,,,,,,,,,,,,,,,,,,,,,,,,,,,,,,,,,,,,,,,,,73.44658586017991,67.04876293805944,90.20223187472888,90.20223187472888,67.91424170201385,80.66097632288876,3.0,3.1,-175,268,0,9,181,-288,390.6417281627655,390.64176988601685,390.6438362598419,390.6561417579651,390.8061730861664,390.8061730861664,390.8061730861664,390.8061730861664,390.8061730861664,390.8061730861664,390.8061730861664,392.34051036834717,2,1.6780383586883545,None,,,,,,,,,,,,,,,,,,140,5,2025-02-27_10h27.38.063,comp,2024.2.4,60.093586756872156,2025-02-27 10h27.49.100372 -0500,
106,106,0,critical,wdh,20.0,4.0,lower,57.0,133.0,78.0,78.0,133.0,57.0,3,2.8012022972106934,None,,,,,0,0,0,0,0,106,106,82,392.35628747940063,,,,,,,,,,,,,,,,,,,,,,,,,,,,,,,,,,,,,,,,,,,,,,,,,,,,,,,,,,,,,,,,,,,,,,,,,,,,,,,,,,57.0,133.0,78.0,78.0,133.0,57.0,4.0,4.2,-202,16,0,-274,164,-6,392.3412892818451,392.34133076667786,392.343309879303,392.35628747940063,392.50621509552,392.50621509552,392.50621509552,392.50621509552,392.50621509552,392.50621509552,392.50621509552,395.17395067214966,3,2.8012022972106934,None,,,,,,,,,,,,,,,,,,140,5,2025-02-27_10h27.38.063,comp,2024.2.4,60.093586756872156,2025-02-27 10h27.49.100372 -0500,
107,107,0,filler_random,None,None,None,None,None,None,None,None,None,None,3,1.6413145065307617,None,,,,,0,0,0,0,0,107,107,141,395.1893615722656,,,,,,,,,,,,,,,,,,,,,,,,,,,,,,,,,,,,,,,,,,,,,,,,,,,,,,,,,,,,,,,,,,,,,,,,,,,,,,,,,,60.88352029865868,149.0127776940073,142.82956277943947,77.29782756535545,93.27083064057126,189.58743071994144,2.2,2.22,-209,270,0,-276,229,-265,395.17484045028687,395.17488050460815,395.17723536491394,395.1893615722656,395.33962082862854,395.33962082862854,395.33962082862854,395.33962082862854,395.33962082862854,395.33962082862854,395.33962082862854,396.8404951095581,3,1.6413145065307617,None,,,,,,,,,,,,,,,,,,140,5,2025-02-27_10h27.38.063,comp,2024.2.4,60.093586756872156,2025-02-27 10h27.49.100372 -0500,
108,108,0,critical,dhw,35.0,3.0,upper,127.0,127.0,200.0,125.0,125.0,200.0,2,2.733975410461426,None,,,,,0,0,0,0,0,108,108,51,396.85616874694824,,,,,,,,,,,,,,,,,,,,,,,,,,,,,,,,,,,,,,,,,,,,,,,,,,,,,,,,,,,,,,,,,,,,,,,,,,,,,,,,,,127.0,127.0,200.0,125.0,125.0,200.0,3.0,3.2,-222,-277,0,-14,258,284,396.8412833213806,396.84132623672485,396.8435056209564,396.85616874694824,397.0063900947571,397.0063900947571,397.0063900947571,397.0063900947571,397.0063900947571,397.0063900947571,397.0063900947571,399.6074764728546,2,2.733975410461426,None,,,,,,,,,,,,,,,,,,140,5,2025-02-27_10h27.38.063,comp,2024.2.4,60.093586756872156,2025-02-27 10h27.49.100372 -0500,
109,109,0,filler_square,None,None,None,None,None,None,None,None,None,None,1,1.4805562496185303,None,,,,,0,0,0,0,0,109,109,173,399.6227033138275,,,,,,,,,,,,,,,,,,,,,,,,,,,,,,,,,,,,,,,,,,,,,,,,,,,,,,,,,,,,,,,,,,,,,,,,,,,,,,,,,,93.98014045641254,93.98014045641254,57.159997880026474,68.14907186881047,59.21325698544935,81.6205156551996,3.0,3.1,-177,274,0,20,171,-256,399.6084063053131,399.60844683647156,399.6109941005707,399.6227033138275,399.7726950645447,399.7726950645447,399.7726950645447,399.7726950645447,399.7726950645447,399.7726950645447,399.7726950645447,401.1073842048645,1,1.4805562496185303,None,,,,,,,,,,,,,,,,,,140,5,2025-02-27_10h27.38.063,comp,2024.2.4,60.093586756872156,2025-02-27 10h27.49.100372 -0500,
110,110,0,critical,dwh,20.0,1.0,upper,141.0,141.0,125.0,200.0,200.0,125.0,3,4.500357151031494,None,,,,,0,0,0,0,0,110,110,67,401.1228678226471,,,,,,,,,,,,,,,,,,,,,,,,,,,,,,,,,,,,,,,,,,,,,,,,,,,,,,,,,,,,,,,,,,,,,,,,,,,,,,,,,,141.0,141.0,125.0,200.0,200.0,125.0,1.0,1.1,-746,285,-480,284,-222,282,401.1081819534302,401.1082229614258,401.1106731891632,401.1228678226471,401.2731053829193,401.2731053829193,401.2731053829193,401.2731053829193,401.2731053829193,401.2731053829193,401.2731053829193,405.64065885543823,3,4.500357151031494,None,,,,,,,,,,,,,,,,,,140,5,2025-02-27_10h27.38.063,comp,2024.2.4,60.093586756872156,2025-02-27 10h27.49.100372 -0500,
111,111,0,filler_square,None,None,None,None,None,None,None,None,None,None,3,0.9103207588195801,None,,,,,0,0,0,0,0,111,111,170,405.6559453010559,,,,,,,,,,,,,,,,,,,,,,,,,,,,,,,,,,,,,,,,,,,,,,,,,,,,,,,,,,,,,,,,,,,,,,,,,,,,,,,,,,82.12663116104179,130.02923706921732,63.943551677575655,136.66366759086543,169.88300377704337,169.88300377704337,3.0,3.2,-229,-260,0,19,249,264,405.6416189670563,405.6416606903076,405.6438317298889,405.6559453010559,405.8065721988678,405.8065721988678,405.8065721988678,405.8065721988678,405.8065721988678,405.8065721988678,405.8065721988678,406.57398557662964,3,0.9103207588195801,None,,,,,,,,,,,,,,,,,,140,5,2025-02-27_10h27.38.063,comp,2024.2.4,60.093586756872156,2025-02-27 10h27.49.100372 -0500,
112,112,0,critical,dwh,35.0,4.0,upper,127.0,127.0,125.0,200.0,200.0,125.0,2,6.544492721557617,None,,,,,0,0,0,0,0,112,112,65,406.5896186828613,,,,,,,,,,,,,,,,,,,,,,,,,,,,,,,,,,,,,,,,,,,,,,,,,,,,,,,,,,,,,,,,,,,,,,,,,,,,,,,,,,127.0,127.0,125.0,200.0,200.0,125.0,4.0,4.2,-260,-10,0,-260,258,0,406.5747811794281,406.5748236179352,406.577157497406,406.5896186828613,406.7396285533905,406.7396285533905,406.7396285533905,406.7396285533905,406.7396285533905,406.7396285533905,406.7396285533905,413.1406502723694,2,6.544492721557617,None,,,,,,,,,,,,,,,,,,140,5,2025-02-27_10h27.38.063,comp,2024.2.4,60.093586756872156,2025-02-27 10h27.49.100372 -0500,
113,113,0,critical,dwh,20.0,2.1,lower,78.0,78.0,57.0,133.0,133.0,57.0,2,3.3470828533172607,None,,,,,0,0,0,0,0,113,113,6,413.1562030315399,,,,,,,,,,,,,,,,,,,,,,,,,,,,,,,,,,,,,,,,,,,,,,,,,,,,,,,,,,,,,,,,,,,,,,,,,,,,,,,,,,78.0,78.0,57.0,133.0,133.0,57.0,2.1,2.12,-202,-267,0,-259,191,275,413.1414215564728,413.14146280288696,413.1434876918793,413.1562030315399,413.2926731109619,413.2926731109619,413.2926731109619,413.2926731109619,413.2926731109619,413.2926731109619,413.2926731109619,416.5072588920593,2,3.3470828533172607,None,,,,,,,,,,,,,,,,,,140,5,2025-02-27_10h27.38.063,comp,2024.2.4,60.093586756872156,2025-02-27 10h27.49.100372 -0500,
114,114,0,filler_square,None,None,None,None,None,None,None,None,None,None,2,3.099881649017334,None,,,,,0,0,0,0,0,114,114,171,416.52320194244385,,,,,,,,,,,,,,,,,,,,,,,,,,,,,,,,,,,,,,,,,,,,,,,,,,,,,,,,,,,,,,,,,,,,,,,,,,,,,,,,,,177.40189789429388,183.53788130731925,194.9105033849189,194.9105033849189,62.73298511764269,140.76674973590707,2.2,2.21,-285,-288,0,266,264,251,416.50822162628174,416.5082628726959,416.5103349685669,416.52320194244385,416.6729323863983,416.6729323863983,416.6729323863983,416.6729323863983,416.6729323863983,416.6729323863983,416.6729323863983,419.6406674385071,2,3.099881649017334,None,,,,,,,,,,,,,,,,,,140,5,2025-02-27_10h27.38.063,comp,2024.2.4,60.093586756872156,2025-02-27 10h27.49.100372 -0500,
115,115,0,critical,whd,35.0,3.0,lower,57.0,133.0,133.0,57.0,70.0,70.0,2,3.062007188796997,None,,,,,0,0,0,0,0,115,115,86,419.65593433380127,,,,,,,,,,,,,,,,,,,,,,,,,,,,,,,,,,,,,,,,,,,,,,,,,,,,,,,,,,,,,,,,,,,,,,,,,,,,,,,,,,57.0,133.0,133.0,57.0,70.0,70.0,3.0,3.2,-191,-265,0,17,160,259,419.64144229888916,419.6414840221405,419.64374232292175,419.65593433380127,419.80597853660583,419.80597853660583,419.80597853660583,419.80597853660583,419.80597853660583,419.80597853660583,419.80597853660583,422.7237322330475,2,3.062007188796997,None,,,,,,,,,,,,,,,,,,140,5,2025-02-27_10h27.38.063,comp,2024.2.4,60.093586756872156,2025-02-27 10h27.49.100372 -0500,
116,116,0,critical,hdw,20.0,2.1,upper,200.0,125.0,141.0,141.0,125.0,200.0,3,2.1783456802368164,None,,,,,0,0,0,0,0,116,116,47,422.73963928222656,,,,,,,,,,,,,,,,,,,,,,,,,,,,,,,,,,,,,,,,,,,,,,,,,,,,,,,,,,,,,,,,,,,,,,,,,,,,,,,,,,200.0,125.0,141.0,141.0,125.0,200.0,2.1,2.11,-229,274,0,253,266,-260,422.72447395324707,422.7245132923126,422.7264606952667,422.73963928222656,422.8895230293274,422.8895230293274,422.8895230293274,422.8895230293274,422.8895230293274,422.8895230293274,422.8895230293274,424.9239385128021,3,2.1783456802368164,None,,,,,,,,,,,,,,,,,,140,5,2025-02-27_10h27.38.063,comp,2024.2.4,60.093586756872156,2025-02-27 10h27.49.100372 -0500,
117,117,0,critical,dhw,20.0,1.0,upper,141.0,141.0,200.0,125.0,125.0,200.0,3,6.450857400894165,None,,,,,0,0,0,0,0,117,117,55,424.93941712379456,,,,,,,,,,,,,,,,,,,,,,,,,,,,,,,,,,,,,,,,,,,,,,,,,,,,,,,,,,,,,,,,,,,,,,,,,,,,,,,,,,141.0,141.0,200.0,125.0,125.0,200.0,1.0,1.1,-709,279,-480,252,-222,278,424.9246883392334,424.92472672462463,424.92670798301697,424.93941712379456,425.0894956588745,425.0894956588745,425.0894956588745,425.0894956588745,425.0894956588745,425.0894956588745,425.0894956588745,431.4074423313141,3,6.450857400894165,None,,,,,,,,,,,,,,,,,,140,5,2025-02-27_10h27.38.063,comp,2024.2.4,60.093586756872156,2025-02-27 10h27.49.100372 -0500,
118,118,0,filler_random,None,None,None,None,None,None,None,None,None,None,2,3.8803610801696777,None,,,,,0,0,0,0,0,118,118,131,431.4224851131439,,,,,,,,,,,,,,,,,,,,,,,,,,,,,,,,,,,,,,,,,,,,,,,,,,,,,,,,,,,,,,,,,,,,,,,,,,,,,,,,,,175.39921710553122,116.58511529690185,168.0074137989626,149.40656849080034,156.6841640082763,96.69584610522358,3.0,3.1,-229,288,0,11,219,-256,431.4083378314972,431.40837955474854,431.4104628562927,431.4224851131439,431.572655916214,431.572655916214,431.572655916214,431.572655916214,431.572655916214,431.572655916214,431.572655916214,435.30727100372314,2,3.8803610801696777,None,,,,,,,,,,,,,,,,,,140,5,2025-02-27_10h27.38.063,comp,2024.2.4,60.093586756872156,2025-02-27 10h27.49.100372 -0500,
119,119,0,critical,hdw,20.0,2.1,lower,133.0,57.0,78.0,78.0,57.0,133.0,3,5.227501153945923,None,,,,,0,0,0,0,0,119,119,46,435.322642326355,,,,,,,,,,,,,,,,,,,,,,,,,,,,,,,,,,,,,,,,,,,,,,,,,,,,,,,,,,,,,,,,,,,,,,,,,,,,,,,,,,133.0,57.0,78.0,78.0,57.0,133.0,2.1,2.11,-164,259,0,279,202,-258,435.3080894947052,435.3081319332123,435.31067395210266,435.322642326355,435.4726049900055,435.4726049900055,435.4726049900055,435.4726049900055,435.4726049900055,435.4726049900055,435.4726049900055,440.55699467658997,3,5.227501153945923,None,,,,,,,,,,,,,,,,,,140,5,2025-02-27_10h27.38.063,comp,2024.2.4,60.093586756872156,2025-02-27 10h27.49.100372 -0500,
120,120,0,critical,dwh,20.0,4.0,upper,141.0,141.0,125.0,200.0,200.0,125.0,3,3.499070644378662,None,,,,,0,0,0,0,0,120,120,71,440.57265067100525,,,,,,,,,,,,,,,,,,,,,,,,,,,,,,,,,,,,,,,,,,,,,,,,,,,,,,,,,,,,,,,,,,,,,,,,,,,,,,,,,,141.0,141.0,125.0,200.0,200.0,125.0,4.0,4.1,-266,-289,0,-8,258,-277,440.55777764320374,440.5578193664551,440.55988812446594,440.57265067100525,440.7227966785431,440.7227966785431,440.7227966785431,440.7227966785431,440.7227966785431,440.7227966785431,440.7227966785431,444.0739288330078,3,3.499070644378662,None,,,,,,,,,,,,,,,,,,140,5,2025-02-27_10h27.38.063,comp,2024.2.4,60.093586756872156,2025-02-27 10h27.49.100372 -0500,
121,121,0,critical,dhw,20.0,3.0,lower,78.0,78.0,133.0,57.0,57.0,133.0,2,2.5334746837615967,None,,,,,0,0,0,0,0,121,121,56,444.08933663368225,,,,,,,,,,,,,,,,,,,,,,,,,,,,,,,,,,,,,,,,,,,,,,,,,,,,,,,,,,,,,,,,,,,,,,,,,,,,,,,,,,78.0,78.0,133.0,57.0,57.0,133.0,3.0,3.1,-164,253,0,-20,191,-281,444.0746922492981,444.074729681015,444.07696509361267,444.08933663368225,444.2392578125,444.2392578125,444.2392578125,444.2392578125,444.2392578125,444.2392578125,444.2392578125,446.62411165237427,2,2.5334746837615967,None,,,,,,,,,,,,,,,,,,140,5,2025-02-27_10h27.38.063,comp,2024.2.4,60.093586756872156,2025-02-27 10h27.49.100372 -0500,
122,122,0,critical,whd,20.0,2.1,upper,125.0,200.0,200.0,125.0,141.0,141.0,2,1.6785953044891357,None,,,,,0,0,0,0,0,122,122,39,446.63929295539856,,,,,,,,,,,,,,,,,,,,,,,,,,,,,,,,,,,,,,,,,,,,,,,,,,,,,,,,,,,,,,,,,,,,,,,,,,,,,,,,,,125.0,200.0,200.0,125.0,141.0,141.0,2.1,2.12,-258,-257,0,-284,229,254,446.62493228912354,446.62497544288635,446.6271402835846,446.63929295539856,446.78941774368286,446.78941774368286,446.78941774368286,446.78941774368286,446.78941774368286,446.78941774368286,446.78941774368286,448.3237419128418,2,1.6785953044891357,None,,,,,,,,,,,,,,,,,,140,5,2025-02-27_10h27.38.063,comp,2024.2.4,60.093586756872156,2025-02-27 10h27.49.100372 -0500,
123,123,0,critical,wdh,35.0,1.0,lower,57.0,133.0,70.0,70.0,133.0,57.0,3,3.9632315635681152,None,,,,,0,0,0,0,0,123,123,72,448.3394892215729,,,,,,,,,,,,,,,,,,,,,,,,,,,,,,,,,,,,,,,,,,,,,,,,,,,,,,,,,,,,,,,,,,,,,,,,,,,,,,,,,,57.0,133.0,70.0,70.0,133.0,57.0,1.0,1.3,282,-286,480,-272,640,-271,448.32453417778015,448.3245871067047,448.32665824890137,448.3394892215729,448.48913073539734,448.48913073539734,448.48913073539734,448.48913073539734,448.48913073539734,448.48913073539734,448.48913073539734,452.30719900131226,3,3.9632315635681152,None,,,,,,,,,,,,,,,,,,140,5,2025-02-27_10h27.38.063,comp,2024.2.4,60.093586756872156,2025-02-27 10h27.49.100372 -0500,
124,124,0,critical,hwd,20.0,3.0,lower,133.0,57.0,57.0,133.0,78.0,78.0,1,4.48299241065979,None,,,,,0,0,0,0,0,124,124,104,452.32296800613403,,,,,,,,,,,,,,,,,,,,,,,,,,,,,,,,,,,,,,,,,,,,,,,,,,,,,,,,,,,,,,,,,,,,,,,,,,,,,,,,,,133.0,57.0,57.0,133.0,78.0,78.0,3.0,3.1,-191,284,0,9,202,-266,452.3081171512604,452.30816078186035,452.310250043869,452.32296800613403,452.47243785858154,452.47243785858154,452.47243785858154,452.47243785858154,452.47243785858154,452.47243785858154,452.47243785858154,456.8070602416992,1,4.48299241065979,None,,,,,,,,,,,,,,,,,,140,5,2025-02-27_10h27.38.063,comp,2024.2.4,60.093586756872156,2025-02-27 10h27.49.100372 -0500,
125,125,0,critical,hwd,35.0,2.1,lower,133.0,57.0,57.0,133.0,70.0,70.0,1,1.8870327472686768,None,,,,,0,0,0,0,0,125,125,40,456.82238960266113,,,,,,,,,,,,,,,,,,,,,,,,,,,,,,,,,,,,,,,,,,,,,,,,,,,,,,,,,,,,,,,,,,,,,,,,,,,,,,,,,,133.0,57.0,57.0,133.0,70.0,70.0,2.1,2.11,-191,287,0,266,198,-256,456.80785155296326,456.80789256095886,456.8102276325226,456.82238960266113,456.97235798835754,456.97235798835754,456.97235798835754,456.97235798835754,456.97235798835754,456.97235798835754,456.97235798835754,458.7234170436859,1,1.8870327472686768,None,,,,,,,,,,,,,,,,,,140,5,2025-02-27_10h27.38.063,comp,2024.2.4,60.093586756872156,2025-02-27 10h27.49.100372 -0500,
126,126,0,critical,dwh,35.0,2.1,lower,70.0,70.0,57.0,133.0,133.0,57.0,3,3.643043279647827,None,,,,,0,0,0,0,0,126,126,4,458.73888301849365,,,,,,,,,,,,,,,,,,,,,,,,,,,,,,,,,,,,,,,,,,,,,,,,,,,,,,,,,,,,,,,,,,,,,,,,,,,,,,,,,,70.0,70.0,57.0,133.0,133.0,57.0,2.1,2.11,-198,269,0,283,191,-289,458.7241909503937,458.72423100471497,458.7267861366272,458.73888301849365,458.8890714645386,458.8890714645386,458.8890714645386,458.8890714645386,458.8890714645386,458.8890714645386,458.8890714645386,462.39011907577515,3,3.643043279647827,None,,,,,,,,,,,,,,,,,,140,5,2025-02-27_10h27.38.063,comp,2024.2.4,60.093586756872156,2025-02-27 10h27.49.100372 -0500,
127,127,0,critical,hwd,35.0,4.0,upper,200.0,125.0,125.0,200.0,127.0,127.0,1,2.0964255332946777,None,,,,,0,0,0,0,0,127,127,101,462.405859708786,,,,,,,,,,,,,,,,,,,,,,,,,,,,,,,,,,,,,,,,,,,,,,,,,,,,,,,,,,,,,,,,,,,,,,,,,,,,,,,,,,200.0,125.0,125.0,200.0,127.0,127.0,4.0,4.1,-258,-257,0,-2,260,-250,462.39090752601624,462.39094972610474,462.3934097290039,462.405859708786,462.5558910369873,462.5558910369873,462.5558910369873,462.5558910369873,462.5558910369873,462.5558910369873,462.5558910369873,464.50707268714905,1,2.0964255332946777,None,,,,,,,,,,,,,,,,,,140,5,2025-02-27_10h27.38.063,comp,2024.2.4,60.093586756872156,2025-02-27 10h27.49.100372 -0500,
128,128,0,filler_square,None,None,None,None,None,None,None,None,None,None,3,1.2593622207641602,None,,,,,0,0,0,0,0,128,128,201,464.5225450992584,,,,,,,,,,,,,,,,,,,,,,,,,,,,,,,,,,,,,,,,,,,,,,,,,,,,,,,,,,,,,,,,,,,,,,,,,,,,,,,,,,152.4439741542345,117.25918090260487,136.07664079802598,106.62430578332314,166.52241139826793,166.52241139826793,3.0,3.2,-208,-256,0,-9,233,251,464.50811195373535,464.50815320014954,464.5102882385254,464.5225450992584,464.6725437641144,464.6725437641144,464.6725437641144,464.6725437641144,464.6725437641144,464.6725437641144,464.6725437641144,465.7902843952179,3,1.2593622207641602,None,,,,,,,,,,,,,,,,,,140,5,2025-02-27_10h27.38.063,comp,2024.2.4,60.093586756872156,2025-02-27 10h27.49.100372 -0500,
129,129,0,critical,dhw,35.0,4.0,upper,127.0,127.0,200.0,125.0,125.0,200.0,3,3.408524751663208,None,,,,,0,0,0,0,0,129,129,53,465.80580163002014,,,,,,,,,,,,,,,,,,,,,,,,,,,,,,,,,,,,,,,,,,,,,,,,,,,,,,,,,,,,,,,,,,,,,,,,,,,,,,,,,,127.0,127.0,200.0,125.0,125.0,200.0,4.0,4.1,-222,-269,0,4,258,-257,465.79109835624695,465.7911379337311,465.79373478889465,465.80580163002014,465.95588541030884,465.95588541030884,465.95588541030884,465.95588541030884,465.95588541030884,465.95588541030884,465.95588541030884,469.2238392829895,3,3.408524751663208,None,,,,,,,,,,,,,,,,,,140,5,2025-02-27_10h27.38.063,comp,2024.2.4,60.093586756872156,2025-02-27 10h27.49.100372 -0500,
130,130,0,critical,whd,20.0,1.0,lower,57.0,133.0,133.0,57.0,78.0,78.0,2,6.542855501174927,None,,,,,0,0,0,0,0,130,130,90,469.23924350738525,,,,,,,,,,,,,,,,,,,,,,,,,,,,,,,,,,,,,,,,,,,,,,,,,,,,,,,,,,,,,,,,,,,,,,,,,,,,,,,,,,57.0,133.0,133.0,57.0,78.0,78.0,1.0,1.2,-191,-1,0,9,164,-8,469.22461128234863,469.22465229034424,469.2267246246338,469.23924350738525,469.38908290863037,469.38908290863037,469.38908290863037,469.38908290863037,469.38908290863037,469.38908290863037,469.38908290863037,475.79015731811523,2,6.542855501174927,None,,,,,,,,,,,,,,,,,,140,5,2025-02-27_10h27.38.063,comp,2024.2.4,60.093586756872156,2025-02-27 10h27.49.100372 -0500,
131,131,0,critical,hwd,35.0,3.0,upper,200.0,125.0,125.0,200.0,127.0,127.0,1,8.624397993087769,None,,,,,0,0,0,0,0,131,131,99,475.80574584007263,,,,,,,,,,,,,,,,,,,,,,,,,,,,,,,,,,,,,,,,,,,,,,,,,,,,,,,,,,,,,,,,,,,,,,,,,,,,,,,,,,200.0,125.0,125.0,200.0,127.0,127.0,3.0,3.2,-258,-269,0,8,260,288,475.7909665107727,475.79100823402405,475.79350185394287,475.80574584007263,475.95596742630005,475.95596742630005,475.95596742630005,475.95596742630005,475.95596742630005,475.95596742630005,475.95596742630005,484.4403200149536,1,8.624397993087769,None,,,,,,,,,,,,,,,,,,140,5,2025-02-27_10h27.38.063,comp,2024.2.4,60.093586756872156,2025-02-27 10h27.49.100372 -0500,
132,132,0,critical,hdw,35.0,1.0,lower,133.0,57.0,70.0,70.0,57.0,133.0,1,5.236516952514648,None,,,,,0,0,0,0,0,132,132,108,484.4723770618439,,,,,,,,,,,,,,,,,,,,,,,,,,,,,,,,,,,,,,,,,,,,,,,,,,,,,,,,,,,,,,,,,,,,,,,,,,,,,,,,,,133.0,57.0,70.0,70.0,57.0,133.0,1.0,1.3,320,-269,480,-269,678,-276,484.4411177635193,484.4411590099335,484.44364047050476,484.4723770618439,484.60553789138794,484.60553789138794,484.60553789138794,484.60553789138794,484.60553789138794,484.60553789138794,484.60553789138794,489.7232584953308,1,5.236516952514648,None,,,,,,,,,,,,,,,,,,140,5,2025-02-27_10h27.38.063,comp,2024.2.4,60.093586756872156,2025-02-27 10h27.49.100372 -0500,
133,133,0,filler_random,None,None,None,None,None,None,None,None,None,None,3,1.4353256225585938,None,,,,,0,0,0,0,0,133,133,148,489.7386796474457,,,,,,,,,,,,,,,,,,,,,,,,,,,,,,,,,,,,,,,,,,,,,,,,,,,,,,,,,,,,,,,,,,,,,,,,,,,,,,,,,,126.04024136081861,70.79225518420033,120.11901168303541,58.41902594773851,164.99849094956178,63.40836116932743,2.2,2.22,-161,288,0,-285,157,-254,489.7241609096527,489.7242019176483,489.7268786430359,489.7386796474457,489.88880586624146,489.88880586624146,489.88880586624146,489.88880586624146,489.88880586624146,489.88880586624146,489.88880586624146,491.1899573802948,3,1.4353256225585938,None,,,,,,,,,,,,,,,,,,140,5,2025-02-27_10h27.38.063,comp,2024.2.4,60.093586756872156,2025-02-27 10h27.49.100372 -0500,
134,134,0,critical,hdw,35.0,4.0,upper,200.0,125.0,127.0,127.0,125.0,200.0,1,2.551339626312256,None,,,,,0,0,0,0,0,134,134,113,491.20538091659546,,,,,,,,,,,,,,,,,,,,,,,,,,,,,,,,,,,,,,,,,,,,,,,,,,,,,,,,,,,,,,,,,,,,,,,,,,,,,,,,,,200.0,125.0,127.0,127.0,125.0,200.0,4.0,4.2,-222,16,0,-284,260,-7,491.19074416160583,491.1907858848572,491.1931755542755,491.20538091659546,491.35555481910706,491.35555481910706,491.35555481910706,491.35555481910706,491.35555481910706,491.35555481910706,491.35555481910706,493.77364230155945,1,2.551339626312256,None,,,,,,,,,,,,,,,,,,140,5,2025-02-27_10h27.38.063,comp,2024.2.4,60.093586756872156,2025-02-27 10h27.49.100372 -0500,
135,135,0,critical,whd,35.0,4.0,upper,125.0,200.0,200.0,125.0,127.0,127.0,1,1.9522151947021484,None,,,,,0,0,0,0,0,135,135,89,493.7886700630188,,,,,,,,,,,,,,,,,,,,,,,,,,,,,,,,,,,,,,,,,,,,,,,,,,,,,,,,,,,,,,,,,,,,,,,,,,,,,,,,,,125.0,200.0,200.0,125.0,127.0,127.0,4.0,4.1,-258,-268,0,8,222,-290,493.7744400501251,493.77448201179504,493.77672839164734,493.7886700630188,493.93902802467346,493.93902802467346,493.93902802467346,493.93902802467346,493.93902802467346,493.93902802467346,493.93902802467346,495.7566909790039,1,1.9522151947021484,None,,,,,,,,,,,,,,,,,,140,5,2025-02-27_10h27.38.063,comp,2024.2.4,60.093586756872156,2025-02-27 10h27.49.100372 -0500,
136,136,0,critical,hdw,20.0,3.0,upper,200.0,125.0,141.0,141.0,125.0,200.0,3,3.3371145725250244,None,,,,,0,0,0,0,0,136,136,117,495.77201628685,,,,,,,,,,,,,,,,,,,,,,,,,,,,,,,,,,,,,,,,,,,,,,,,,,,,,,,,,,,,,,,,,,,,,,,,,,,,,,,,,,200.0,125.0,141.0,141.0,125.0,200.0,3.0,3.2,-229,-283,0,-7,266,263,495.75745701789856,495.7574987411499,495.7598252296448,495.77201628685,495.92236590385437,495.92236590385437,495.92236590385437,495.92236590385437,495.92236590385437,495.92236590385437,495.92236590385437,499.1236479282379,3,3.3371145725250244,None,,,,,,,,,,,,,,,,,,140,5,2025-02-27_10h27.38.063,comp,2024.2.4,60.093586756872156,2025-02-27 10h27.49.100372 -0500,
137,137,0,filler_square,None,None,None,None,None,None,None,None,None,None,2,1.2268891334533691,None,,,,,0,0,0,0,0,137,137,189,499.1387405395508,,,,,,,,,,,,,,,,,,,,,,,,,,,,,,,,,,,,,,,,,,,,,,,,,,,,,,,,,,,,,,,,,,,,,,,,,,,,,,,,,,60.34059801052547,113.08751779255107,120.28609699471353,120.28609699471353,101.74641816920898,60.23629053759812,4.0,4.1,-213,-252,0,-20,186,-260,499.12459349632263,499.1246371269226,499.1267042160034,499.1387405395508,499.28884983062744,499.28884983062744,499.28884983062744,499.28884983062744,499.28884983062744,499.28884983062744,499.28884983062744,500.37334156036377,2,1.2268891334533691,None,,,,,,,,,,,,,,,,,,140,5,2025-02-27_10h27.38.063,comp,2024.2.4,60.093586756872156,2025-02-27 10h27.49.100372 -0500,
138,138,0,critical,dhw,20.0,1.0,lower,78.0,78.0,133.0,57.0,57.0,133.0,2,2.9605016708374023,None,,,,,0,0,0,0,0,138,138,54,500.388956785202,,,,,,,,,,,,,,,,,,,,,,,,,,,,,,,,,,,,,,,,,,,,,,,,,,,,,,,,,,,,,,,,,,,,,,,,,,,,,,,,,,78.0,78.0,133.0,57.0,57.0,133.0,1.0,1.1,-644,277,-480,254,-289,271,500.37413907051086,500.3741798400879,500.37664270401,500.388956785202,500.5388090610504,500.5388090610504,500.5388090610504,500.5388090610504,500.5388090610504,500.5388090610504,500.5388090610504,503.35650062561035,2,2.9605016708374023,None,,,,,,,,,,,,,,,,,,140,5,2025-02-27_10h27.38.063,comp,2024.2.4,60.093586756872156,2025-02-27 10h27.49.100372 -0500,
139,139,0,critical,wdh,20.0,3.0,upper,125.0,200.0,141.0,141.0,200.0,125.0,1,3.704547643661499,None,,,,,0,0,0,0,0,139,139,81,503.37225556373596,,,,,,,,,,,,,,,,,,,,,,,,,,,,,,,,,,,,,,,,,,,,,,,,,,,,,,,,,,,,,,,,,,,,,,,,,,,,,,,,,,125.0,200.0,141.0,141.0,200.0,125.0,3.0,3.2,-266,-282,0,-3,229,272,503.35728669166565,503.35732793807983,503.3593988418579,503.37225556373596,503.5224516391754,503.5224516391754,503.5224516391754,503.5224516391754,503.5224516391754,503.5224516391754,503.5224516391754,507.0901732444763,1,3.704547643661499,None,,,,,,,,,,,,,,,,,,140,5,2025-02-27_10h27.38.063,comp,2024.2.4,60.093586756872156,2025-02-27 10h27.49.100372 -0500,
