thisN,thisTrialN,thisRepN,effect,order,distance,config,diag,h_1,w_1,h_2,w_2,h_3,w_3,rect_choice.keys,rect_choice.rt,rect_choice.duration,instructions_loop.thisRepN,instructions_loop.thisTrialN,instructions_loop.thisN,instructions_loop.thisIndex,blocks.thisRepN,blocks.thisTrialN,blocks.thisN,blocks.thisIndex,trials.thisRepN,trials.thisTrialN,trials.thisN,trials.thisIndex,thisRow.t,notes,consent.started,agree_button.started,decline_button.started,consent_img.started,mouse.started,consent.stopped,agree_button.numClicks,agree_button.timesOn,agree_button.timesOff,decline_button.numClicks,decline_button.timesOn,decline_button.timesOff,mouse.x,mouse.y,mouse.leftButton,mouse.midButton,mouse.rightButton,mouse.time,mouse.clicked_name,exp_params.started,exp_params.stopped,welcome.started,welcome_text.started,welcome.stopped,instructions_1.started,instructions_1_text_1.started,instructions_1_text_2.started,key_resp.started,instructions_1.stopped,instructions_loop.key_resp.keys,instructions_loop.key_resp.rt,instructions_loop.key_resp.duration,instructions_2.started,instructions_2_text_1.started,instructions_2_text_2.started,key_resp_2.started,instructions_2.stopped,instructions_loop.key_resp_2.keys,instructions_loop.key_resp_2.rt,instructions_loop.key_resp_2.duration,instructions_3.started,instructions_3_text_1.started,r1_instr3.started,r2_instr3.started,r3_instr3.started,r1_instr3_label.started,r2_instr3_label.started,r3_instr3_label.started,instructions_3_text_3.started,instructions_3_text_4.started,key_resp_3.started,instructions_3.stopped,instructions_loop.key_resp_3.keys,instructions_loop.key_resp_3.rt,instructions_loop.key_resp_3.duration,instructions_4.started,instructions_4_text_1.started,instructions_4_text_3.started,instructions_4_text_2.started,key_resp_4.started,instructions_4.stopped,instructions_loop.key_resp_4.keys,instructions_loop.key_resp_4.rt,instructions_loop.key_resp_4.duration,instructions_5.started,instructions_5_text_1.started,instructions_5_text_2.started,key_resp_5.started,instructions_5.stopped,instructions_loop.key_resp_5.keys,instructions_loop.key_resp_5.rt,instructions_loop.key_resp_5.duration,start_exp.started,start_exp_text.started,key_resp_6.started,start_exp.stopped,key_resp_6.keys,key_resp_6.rt,key_resp_6.duration,h_1_tmp,w_1_tmp,h_2_tmp,w_2_tmp,h_3_tmp,w_3_tmp,config_tmp,config_tmp_1,r_1_x,r_1_y,r_2_x,r_2_y,r_3_x,r_3_y,pre_trial.started,pre_trial.stopped,choice_trial.started,rect_choice.started,r_1.started,r_2.started,r_3.started,r_1_label.started,r_2_label.started,r_3_label.started,prompt.started,choice_trial.stopped,trials.rect_choice.keys,trials.rect_choice.rt,trials.rect_choice.duration,end_block.started,end_block_text.started,end_block.stopped,end.started,end_text.started,key_resp_7.started,end.stopped,key_resp_7.keys,key_resp_7.rt,key_resp_7.duration,debriefing.started,debrief_form.started,end_debrief.started,debriefing.stopped,end_debrief.keys,end_debrief.rt,end_debrief.duration,participant,computer,date,expName,psychopyVersion,frameRate,expStart,
,,,,,,,,,,,,,,,,,,,,,,,,,,,,,,,0.01478433609008789,0.03495502471923828,0.03495502471923828,0.03495502471923828,0.014595508575439453,15.542864799499512,1,[15.505556106567383],[15.505577087402344],0,,,[-72.0],[-484.0],[1],[0],[0],[15.527464389801025],['agree_button'],,,,,,,,,,,,,,,,,,,,,,,,,,,,,,,,,,,,,,,,,,,,,,,,,,,,,,,,,,,,,,,,,,,,,,,,,,,,,,,,,,,,,,,,,,,,,,,,,,,,,,,,,,,141,2,2025-02-27_10h32.21.258,comp,2024.2.4,57.56353969524003,2025-02-27 10h32.33.324579 -0500,
,,,,,,,,,,,,,,,,,,,,,,,,,,,,,,,,,,,,,,,,,,,,,,,,,,15.543383121490479,15.54344916343689,,,,,,,,,,,,,,,,,,,,,,,,,,,,,,,,,,,,,,,,,,,,,,,,,,,,,,,,,,,,,,,,,,,,,,,,,,,,,,,,,,,,,,,,,,,,,,,,,,,,,,,,,141,2,2025-02-27_10h32.21.258,comp,2024.2.4,57.56353969524003,2025-02-27 10h32.33.324579 -0500,
,,,,,,,,,,,,,,,,,,,,,,,,,,,,,,,,,,,,,,,,,,,,,,,,,,,,15.543493032455444,15.561534404754639,17.559439420700073,,,,,,,,,,,,,,,,,,,,,,,,,,,,,,,,,,,,,,,,,,,,,,,,,,,,,,,,,,,,,,,,,,,,,,,,,,,,,,,,,,,,,,,,,,,,,,,,,,,,,,141,2,2025-02-27_10h32.21.258,comp,2024.2.4,57.56353969524003,2025-02-27 10h32.33.324579 -0500,
0,0,0,,,,,,,,,,,,,,,0,0,0,0,,,,,,,,,17.576367139816284,,,,,,,,,,,,,,,,,,,,,,,,,,17.560338258743286,17.576367139816284,17.576367139816284,19.03982400894165,21.14426898956299,space,2.0822813510894775,None,21.14442014694214,21.159581899642944,21.159581899642944,22.64478850364685,29.41425395011902,space,6.763405799865723,None,29.414403676986694,29.44490694999695,29.44490694999695,29.44490694999695,29.44490694999695,29.44490694999695,29.44490694999695,29.44490694999695,29.44490694999695,29.44490694999695,30.94239616394043,35.197858810424805,space,4.241207122802734,None,35.19801735877991,35.218600273132324,35.218600273132324,35.218600273132324,36.71279001235962,41.617607831954956,space,4.887691259384155,None,41.61780858039856,41.63485789299011,41.63485789299011,43.13279676437378,43.66863536834717,space,0.5312316417694092,None,43.66885948181152,43.68419909477234,43.68419909477234,45.08391332626343,space,1.3958430290222168,None,,,,,,,,,,,,,,,,,,,,,,,,,,,,,,,,,,,,,,,,,,,,,,,141,2,2025-02-27_10h32.21.258,comp,2024.2.4,57.56353969524003,2025-02-27 10h32.33.324579 -0500,
0,0,0,filler_square,None,None,None,None,None,None,None,None,None,None,3,1.975963830947876,None,,,,,0,0,0,0,0,0,0,205,45.159743309020996,,,,,,,,,,,,,,,,,,,,,,,,,,,,,,,,,,,,,,,,,,,,,,,,,,,,,,,,,,,,,,,,,,,,,,,,,,,,,,,,,58.99973857415183,62.758895614555726,112.45352153915348,102.93987949230468,123.63370934401621,123.63370934401621,2.2,2.21,-179,-277,0,269,209,259,45.142985820770264,45.143017530441284,45.1441068649292,45.159743309020996,45.30923008918762,45.30923008918762,45.30923008918762,45.30923008918762,45.30923008918762,45.30923008918762,45.30923008918762,47.13777804374695,3,1.975963830947876,None,,,,,,,,,,,,,,,,,,141,2,2025-02-27_10h32.21.258,comp,2024.2.4,57.56353969524003,2025-02-27 10h32.33.324579 -0500,
1,1,0,critical,dwh,20.0,2.1,lower,78.0,78.0,57.0,133.0,133.0,57.0,2,1.8625314235687256,None,,,,,0,0,0,0,0,1,1,30,47.15324640274048,,,,,,,,,,,,,,,,,,,,,,,,,,,,,,,,,,,,,,,,,,,,,,,,,,,,,,,,,,,,,,,,,,,,,,,,,,,,,,,,,78.0,78.0,57.0,133.0,133.0,57.0,2.1,2.12,-202,-266,0,-266,191,261,47.139204025268555,47.13926553726196,47.14255714416504,47.15324640274048,47.307063579559326,47.307063579559326,47.307063579559326,47.307063579559326,47.307063579559326,47.307063579559326,47.307063579559326,49.02092742919922,2,1.8625314235687256,None,,,,,,,,,,,,,,,,,,141,2,2025-02-27_10h32.21.258,comp,2024.2.4,57.56353969524003,2025-02-27 10h32.33.324579 -0500,
2,2,0,filler_random,None,None,None,None,None,None,None,None,None,None,2,2.0522022247314453,None,,,,,0,0,0,0,0,2,2,130,49.036890268325806,,,,,,,,,,,,,,,,,,,,,,,,,,,,,,,,,,,,,,,,,,,,,,,,,,,,,,,,,,,,,,,,,,,,,,,,,,,,,,,,,146.54962930204624,68.25603104854329,169.84488459284393,108.6355456404601,143.75977103637365,109.90248170827398,3.0,3.2,-184,-290,0,-3,205,287,49.02260112762451,49.022679805755615,49.02608823776245,49.036890268325806,49.18381667137146,49.18381667137146,49.18381667137146,49.18381667137146,49.18381667137146,49.18381667137146,49.18381667137146,51.10602903366089,2,2.0522022247314453,None,,,,,,,,,,,,,,,,,,141,2,2025-02-27_10h32.21.258,comp,2024.2.4,57.56353969524003,2025-02-27 10h32.33.324579 -0500,
3,3,0,critical,hwd,35.0,4.0,lower,133.0,57.0,57.0,133.0,70.0,70.0,2,4.388322114944458,None,,,,,0,0,0,0,0,3,3,100,51.12324810028076,,,,,,,,,,,,,,,,,,,,,,,,,,,,,,,,,,,,,,,,,,,,,,,,,,,,,,,,,,,,,,,,,,,,,,,,,,,,,,,,,133.0,57.0,57.0,133.0,70.0,70.0,4.0,4.2,-191,-13,0,-259,198,-8,51.10780167579651,51.107882022857666,51.11237645149231,51.12324810028076,51.27514719963074,51.27514719963074,51.27514719963074,51.27514719963074,51.27514719963074,51.27514719963074,51.27514719963074,55.52162313461304,2,4.388322114944458,None,,,,,,,,,,,,,,,,,,141,2,2025-02-27_10h32.21.258,comp,2024.2.4,57.56353969524003,2025-02-27 10h32.33.324579 -0500,
4,4,0,filler_square,None,None,None,None,None,None,None,None,None,None,1,1.5659899711608887,None,,,,,0,0,0,0,0,4,4,186,55.53818368911743,,,,,,,,,,,,,,,,,,,,,,,,,,,,,,,,,,,,,,,,,,,,,,,,,,,,,,,,,,,,,,,,,,,,,,,,,,,,,,,,,178.2043525944831,178.2043525944831,116.78174326414171,175.90463314006965,108.10021153093828,99.43061571795663,3.0,3.2,-273,-265,0,-3,234,282,55.52338790893555,55.52346420288086,55.52662944793701,55.53818368911743,55.69231700897217,55.69231700897217,55.69231700897217,55.69231700897217,55.69231700897217,55.69231700897217,55.69231700897217,57.110331773757935,1,1.5659899711608887,None,,,,,,,,,,,,,,,,,,141,2,2025-02-27_10h32.21.258,comp,2024.2.4,57.56353969524003,2025-02-27 10h32.33.324579 -0500,
5,5,0,filler_square,None,None,None,None,None,None,None,None,None,None,3,1.5031259059906006,None,,,,,0,0,0,0,0,5,5,178,57.1286940574646,,,,,,,,,,,,,,,,,,,,,,,,,,,,,,,,,,,,,,,,,,,,,,,,,,,,,,,,,,,,,,,,,,,,,,,,,,,,,,,,,141.71223909108963,121.412811367889,141.63141629015539,141.0418363159145,152.49880449163695,152.49880449163695,1.0,1.3,253,-267,480,-290,723,-265,57.11212873458862,57.112255334854126,57.11554789543152,57.1286940574646,57.27319884300232,57.27319884300232,57.27319884300232,57.27319884300232,57.27319884300232,57.27319884300232,57.27319884300232,58.63380575180054,3,1.5031259059906006,None,,,,,,,,,,,,,,,,,,141,2,2025-02-27_10h32.21.258,comp,2024.2.4,57.56353969524003,2025-02-27 10h32.33.324579 -0500,
6,6,0,filler_square,None,None,None,None,None,None,None,None,None,None,1,1.620450496673584,None,,,,,0,0,0,0,0,6,6,188,58.65108585357666,,,,,,,,,,,,,,,,,,,,,,,,,,,,,,,,,,,,,,,,,,,,,,,,,,,,,,,,,,,,,,,,,,,,,,,,,,,,,,,,,92.71409875986807,92.71409875986807,80.8900724112344,76.80598704584254,77.27025771841784,88.16240368740714,2.1,2.11,-181,259,0,281,178,-279,58.63615274429321,58.63623261451721,58.63924026489258,58.65108585357666,58.78907036781311,58.78907036781311,58.78907036781311,58.78907036781311,58.78907036781311,58.78907036781311,58.78907036781311,60.28914189338684,1,1.620450496673584,None,,,,,,,,,,,,,,,,,,141,2,2025-02-27_10h32.21.258,comp,2024.2.4,57.56353969524003,2025-02-27 10h32.33.324579 -0500,
7,7,0,critical,dwh,20.0,3.0,upper,141.0,141.0,125.0,200.0,200.0,125.0,2,1.687147617340088,None,,,,,0,0,0,0,0,7,7,69,60.30504012107849,,,,,,,,,,,,,,,,,,,,,,,,,,,,,,,,,,,,,,,,,,,,,,,,,,,,,,,,,,,,,,,,,,,,,,,,,,,,,,,,,141.0,141.0,125.0,200.0,200.0,125.0,3.0,3.2,-266,-270,0,-3,258,263,60.29059314727783,60.29066562652588,60.29363393783569,60.30504012107849,60.458802223205566,60.458802223205566,60.458802223205566,60.458802223205566,60.458802223205566,60.458802223205566,60.458802223205566,61.997750759124756,2,1.687147617340088,None,,,,,,,,,,,,,,,,,,141,2,2025-02-27_10h32.21.258,comp,2024.2.4,57.56353969524003,2025-02-27 10h32.33.324579 -0500,
8,8,0,filler_square,None,None,None,None,None,None,None,None,None,None,1,1.0885441303253174,None,,,,,0,0,0,0,0,8,8,176,62.01578712463379,,,,,,,,,,,,,,,,,,,,,,,,,,,,,,,,,,,,,,,,,,,,,,,,,,,,,,,,,,,,,,,,,,,,,,,,,,,,,,,,,161.16422396216532,161.16422396216532,62.00715030185252,100.15437545207116,160.7581994594322,58.50294460308378,3.0,3.2,-227,-273,0,-15,175,279,61.99953627586365,61.9996120929718,62.00255870819092,62.01578712463379,62.15766906738281,62.15766906738281,62.15766906738281,62.15766906738281,62.15766906738281,62.15766906738281,62.15766906738281,63.111223459243774,1,1.0885441303253174,None,,,,,,,,,,,,,,,,,,141,2,2025-02-27_10h32.21.258,comp,2024.2.4,57.56353969524003,2025-02-27 10h32.33.324579 -0500,
9,9,0,critical,hwd,20.0,2.1,lower,133.0,57.0,57.0,133.0,78.0,78.0,2,2.521289110183716,None,,,,,0,0,0,0,0,9,9,18,63.1276421546936,,,,,,,,,,,,,,,,,,,,,,,,,,,,,,,,,,,,,,,,,,,,,,,,,,,,,,,,,,,,,,,,,,,,,,,,,,,,,,,,,133.0,57.0,57.0,133.0,78.0,78.0,2.1,2.11,-191,263,0,288,202,-270,63.11284303665161,63.112953186035156,63.11611342430115,63.1276421546936,63.27937650680542,63.27937650680542,63.27937650680542,63.27937650680542,63.27937650680542,63.27937650680542,63.27937650680542,65.6548924446106,2,2.521289110183716,None,,,,,,,,,,,,,,,,,,141,2,2025-02-27_10h32.21.258,comp,2024.2.4,57.56353969524003,2025-02-27 10h32.33.324579 -0500,
10,10,0,critical,hdw,20.0,1.0,upper,200.0,125.0,141.0,141.0,125.0,200.0,1,1.8818423748016357,None,,,,,0,0,0,0,0,10,10,115,65.67156434059143,,,,,,,,,,,,,,,,,,,,,,,,,,,,,,,,,,,,,,,,,,,,,,,,,,,,,,,,,,,,,,,,,,,,,,,,,,,,,,,,,200.0,125.0,141.0,141.0,125.0,200.0,1.0,1.1,-709,257,-480,276,-214,251,65.6564507484436,65.65652823448181,65.65986013412476,65.67156434059143,65.82546734809875,65.82546734809875,65.82546734809875,65.82546734809875,65.82546734809875,65.82546734809875,65.82546734809875,67.56252455711365,1,1.8818423748016357,None,,,,,,,,,,,,,,,,,,141,2,2025-02-27_10h32.21.258,comp,2024.2.4,57.56353969524003,2025-02-27 10h32.33.324579 -0500,
11,11,0,filler_random,None,None,None,None,None,None,None,None,None,None,2,1.746995210647583,None,,,,,0,0,0,0,0,11,11,148,67.58081269264221,,,,,,,,,,,,,,,,,,,,,,,,,,,,,,,,,,,,,,,,,,,,,,,,,,,,,,,,,,,,,,,,,,,,,,,,,,,,,,,,,196.07538560517636,159.50280543407115,150.59992711993823,199.56126727437234,199.38426571313428,111.90129065551365,4.0,4.1,-276,-252,0,11,252,-255,67.56436705589294,67.56444501876831,67.56741118431091,67.58081269264221,67.72582030296326,67.72582030296326,67.72582030296326,67.72582030296326,67.72582030296326,67.72582030296326,67.72582030296326,69.3429491519928,2,1.746995210647583,None,,,,,,,,,,,,,,,,,,141,2,2025-02-27_10h32.21.258,comp,2024.2.4,57.56353969524003,2025-02-27 10h32.33.324579 -0500,
12,12,0,critical,hdw,35.0,4.0,lower,133.0,57.0,70.0,70.0,57.0,133.0,2,2.880898952484131,None,,,,,0,0,0,0,0,12,12,112,69.3588035106659,,,,,,,,,,,,,,,,,,,,,,,,,,,,,,,,,,,,,,,,,,,,,,,,,,,,,,,,,,,,,,,,,,,,,,,,,,,,,,,,,133.0,57.0,70.0,70.0,57.0,133.0,4.0,4.2,-160,9,0,-284,198,14,69.34445714950562,69.34453177452087,69.34758806228638,69.3588035106659,69.51089096069336,69.51089096069336,69.51089096069336,69.51089096069336,69.51089096069336,69.51089096069336,69.51089096069336,72.25225949287415,2,2.880898952484131,None,,,,,,,,,,,,,,,,,,141,2,2025-02-27_10h32.21.258,comp,2024.2.4,57.56353969524003,2025-02-27 10h32.33.324579 -0500,
13,13,0,critical,hdw,20.0,3.0,lower,133.0,57.0,78.0,78.0,57.0,133.0,3,3.22456955909729,None,,,,,0,0,0,0,0,13,13,116,72.27103090286255,,,,,,,,,,,,,,,,,,,,,,,,,,,,,,,,,,,,,,,,,,,,,,,,,,,,,,,,,,,,,,,,,,,,,,,,,,,,,,,,,133.0,57.0,78.0,78.0,57.0,133.0,3.0,3.1,-164,289,0,12,202,-283,72.25380539894104,72.25387978553772,72.25724148750305,72.27103090286255,72.41083574295044,72.41083574295044,72.41083574295044,72.41083574295044,72.41083574295044,72.41083574295044,72.41083574295044,75.51080083847046,3,3.22456955909729,None,,,,,,,,,,,,,,,,,,141,2,2025-02-27_10h32.21.258,comp,2024.2.4,57.56353969524003,2025-02-27 10h32.33.324579 -0500,
14,14,0,critical,hdw,35.0,2.1,upper,200.0,125.0,127.0,127.0,125.0,200.0,3,1.7448816299438477,None,,,,,0,0,0,0,0,14,14,45,75.52745223045349,,,,,,,,,,,,,,,,,,,,,,,,,,,,,,,,,,,,,,,,,,,,,,,,,,,,,,,,,,,,,,,,,,,,,,,,,,,,,,,,,200.0,125.0,127.0,127.0,125.0,200.0,2.1,2.11,-222,278,0,272,260,-268,75.51240158081055,75.51247906684875,75.51587390899658,75.52745223045349,75.67703604698181,75.67703604698181,75.67703604698181,75.67703604698181,75.67703604698181,75.67703604698181,75.67703604698181,77.27799344062805,3,1.7448816299438477,None,,,,,,,,,,,,,,,,,,141,2,2025-02-27_10h32.21.258,comp,2024.2.4,57.56353969524003,2025-02-27 10h32.33.324579 -0500,
15,15,0,filler_random,None,None,None,None,None,None,None,None,None,None,3,1.4974761009216309,None,,,,,0,0,0,0,0,15,15,145,77.29468941688538,,,,,,,,,,,,,,,,,,,,,,,,,,,,,,,,,,,,,,,,,,,,,,,,,,,,,,,,,,,,,,,,,,,,,,,,,,,,,,,,,179.62713844922465,80.34643965465808,140.72486808356956,85.388122142996,188.21292178619518,99.76706759310602,1.0,1.2,-179,-2,0,3,189,17,77.27955293655396,77.27963042259216,77.2828414440155,77.29468941688538,77.4478211402893,77.4478211402893,77.4478211402893,77.4478211402893,77.4478211402893,77.4478211402893,77.4478211402893,78.80047369003296,3,1.4974761009216309,None,,,,,,,,,,,,,,,,,,141,2,2025-02-27_10h32.21.258,comp,2024.2.4,57.56353969524003,2025-02-27 10h32.33.324579 -0500,
16,16,0,critical,whd,20.0,2.1,lower,57.0,133.0,133.0,57.0,78.0,78.0,1,3.727626085281372,None,,,,,0,0,0,0,0,16,16,38,78.81633281707764,,,,,,,,,,,,,,,,,,,,,,,,,,,,,,,,,,,,,,,,,,,,,,,,,,,,,,,,,,,,,,,,,,,,,,,,,,,,,,,,,57.0,133.0,133.0,57.0,78.0,78.0,2.1,2.12,-191,-280,0,-258,164,276,78.80245852470398,78.80253958702087,78.80549597740173,78.81633281707764,78.96307110786438,78.96307110786438,78.96307110786438,78.96307110786438,78.96307110786438,78.96307110786438,78.96307110786438,82.54698920249939,1,3.727626085281372,None,,,,,,,,,,,,,,,,,,141,2,2025-02-27_10h32.21.258,comp,2024.2.4,57.56353969524003,2025-02-27 10h32.33.324579 -0500,
17,17,0,filler_random,None,None,None,None,None,None,None,None,None,None,1,1.0105161666870117,None,,,,,0,0,0,0,0,17,17,159,82.56566166877747,,,,,,,,,,,,,,,,,,,,,,,,,,,,,,,,,,,,,,,,,,,,,,,,,,,,,,,,,,,,,,,,,,,,,,,,,,,,,,,,,159.0443414028012,191.53174395165996,158.77021840443243,90.97715242187908,83.53847789895502,58.84138311608139,3.0,3.1,-237,260,0,-19,171,-262,82.54880666732788,82.54892897605896,82.55233502388,82.56566166877747,82.71517777442932,82.71517777442932,82.71517777442932,82.71517777442932,82.71517777442932,82.71517777442932,82.71517777442932,83.58226037025452,1,1.0105161666870117,None,,,,,,,,,,,,,,,,,,141,2,2025-02-27_10h32.21.258,comp,2024.2.4,57.56353969524003,2025-02-27 10h32.33.324579 -0500,
18,18,0,critical,dhw,35.0,4.0,lower,70.0,70.0,133.0,57.0,57.0,133.0,3,2.3463685512542725,None,,,,,0,0,0,0,0,18,18,52,83.5979573726654,,,,,,,,,,,,,,,,,,,,,,,,,,,,,,,,,,,,,,,,,,,,,,,,,,,,,,,,,,,,,,,,,,,,,,,,,,,,,,,,,70.0,70.0,133.0,57.0,57.0,133.0,4.0,4.2,-160,6,0,-287,191,-9,83.58367085456848,83.58380174636841,83.58725571632385,83.5979573726654,83.75261187553406,83.75261187553406,83.75261187553406,83.75261187553406,83.75261187553406,83.75261187553406,83.75261187553406,85.94985580444336,3,2.3463685512542725,None,,,,,,,,,,,,,,,,,,141,2,2025-02-27_10h32.21.258,comp,2024.2.4,57.56353969524003,2025-02-27 10h32.33.324579 -0500,
19,19,0,critical,dhw,35.0,1.0,upper,127.0,127.0,200.0,125.0,125.0,200.0,3,1.7139701843261719,None,,,,,0,0,0,0,0,19,19,49,85.96570324897766,,,,,,,,,,,,,,,,,,,,,,,,,,,,,,,,,,,,,,,,,,,,,,,,,,,,,,,,,,,,,,,,,,,,,,,,,,,,,,,,,127.0,127.0,200.0,125.0,125.0,200.0,1.0,1.3,258,-271,480,-263,738,-286,85.95133829116821,85.9514172077179,85.95486283302307,85.96570324897766,86.10863614082336,86.10863614082336,86.10863614082336,86.10863614082336,86.10863614082336,86.10863614082336,86.10863614082336,87.68256855010986,3,1.7139701843261719,None,,,,,,,,,,,,,,,,,,141,2,2025-02-27_10h32.21.258,comp,2024.2.4,57.56353969524003,2025-02-27 10h32.33.324579 -0500,
20,20,0,critical,wdh,35.0,3.0,lower,57.0,133.0,70.0,70.0,133.0,57.0,1,2.1097474098205566,None,,,,,0,0,0,0,0,20,20,74,87.69844555854797,,,,,,,,,,,,,,,,,,,,,,,,,,,,,,,,,,,,,,,,,,,,,,,,,,,,,,,,,,,,,,,,,,,,,,,,,,,,,,,,,57.0,133.0,70.0,70.0,133.0,57.0,3.0,3.1,-198,280,0,-11,160,-279,87.68410897254944,87.68418836593628,87.68757557868958,87.69844555854797,87.85020351409912,87.85020351409912,87.85020351409912,87.85020351409912,87.85020351409912,87.85020351409912,87.85020351409912,89.81750822067261,1,2.1097474098205566,None,,,,,,,,,,,,,,,,,,141,2,2025-02-27_10h32.21.258,comp,2024.2.4,57.56353969524003,2025-02-27 10h32.33.324579 -0500,
21,21,0,filler_random,None,None,None,None,None,None,None,None,None,None,2,1.1796965599060059,None,,,,,0,0,0,0,0,21,21,137,89.8360984325409,,,,,,,,,,,,,,,,,,,,,,,,,,,,,,,,,,,,,,,,,,,,,,,,,,,,,,,,,,,,,,,,,,,,,,,,,,,,,,,,,100.23879471146805,97.15304659226797,180.71218818030522,96.9792359061965,104.83631846143024,71.57525234240663,3.0,3.1,-193,276,0,20,180,-260,89.81922245025635,89.81932139396667,89.82270002365112,89.8360984325409,89.98318457603455,89.98318457603455,89.98318457603455,89.98318457603455,89.98318457603455,89.98318457603455,89.98318457603455,91.01808643341064,2,1.1796965599060059,None,,,,,,,,,,,,,,,,,,141,2,2025-02-27_10h32.21.258,comp,2024.2.4,57.56353969524003,2025-02-27 10h32.33.324579 -0500,
22,22,0,critical,hdw,20.0,2.1,lower,133.0,57.0,78.0,78.0,57.0,133.0,3,1.3417391777038574,None,,,,,0,0,0,0,0,22,22,46,91.0345869064331,,,,,,,,,,,,,,,,,,,,,,,,,,,,,,,,,,,,,,,,,,,,,,,,,,,,,,,,,,,,,,,,,,,,,,,,,,,,,,,,,133.0,57.0,78.0,78.0,57.0,133.0,2.1,2.11,-164,275,0,264,202,-279,91.0195939540863,91.01967167854309,91.02291917800903,91.0345869064331,91.18322014808655,91.18322014808655,91.18322014808655,91.18322014808655,91.18322014808655,91.18322014808655,91.18322014808655,92.38287782669067,3,1.3417391777038574,None,,,,,,,,,,,,,,,,,,141,2,2025-02-27_10h32.21.258,comp,2024.2.4,57.56353969524003,2025-02-27 10h32.33.324579 -0500,
23,23,0,critical,dwh,20.0,2.1,upper,141.0,141.0,125.0,200.0,200.0,125.0,2,4.584597826004028,None,,,,,0,0,0,0,0,23,23,31,92.39928340911865,,,,,,,,,,,,,,,,,,,,,,,,,,,,,,,,,,,,,,,,,,,,,,,,,,,,,,,,,,,,,,,,,,,,,,,,,,,,,,,,,141.0,141.0,125.0,200.0,200.0,125.0,2.1,2.12,-266,-269,0,-289,258,268,92.38437533378601,92.38444995880127,92.38758516311646,92.39928340911865,92.55014896392822,92.55014896392822,92.55014896392822,92.55014896392822,92.55014896392822,92.55014896392822,92.55014896392822,96.98712468147278,2,4.584597826004028,None,,,,,,,,,,,,,,,,,,141,2,2025-02-27_10h32.21.258,comp,2024.2.4,57.56353969524003,2025-02-27 10h32.33.324579 -0500,
24,24,0,filler_square,None,None,None,None,None,None,None,None,None,None,3,1.1001553535461426,None,,,,,0,0,0,0,0,24,24,209,97.00364542007446,,,,,,,,,,,,,,,,,,,,,,,,,,,,,,,,,,,,,,,,,,,,,,,,,,,,,,,,,,,,,,,,,,,,,,,,,,,,,,,,,81.36535295679809,92.7529991276925,61.559029103447756,94.55519754721243,107.87750181816295,107.87750181816295,1.0,1.1,-670,283,-480,284,-283,267,96.98910474777222,96.98918509483337,96.99242568016052,97.00364542007446,97.15288782119751,97.15288782119751,97.15288782119751,97.15288782119751,97.15288782119751,97.15288782119751,97.15288782119751,98.10615062713623,3,1.1001553535461426,None,,,,,,,,,,,,,,,,,,141,2,2025-02-27_10h32.21.258,comp,2024.2.4,57.56353969524003,2025-02-27 10h32.33.324579 -0500,
25,25,0,filler_random,None,None,None,None,None,None,None,None,None,None,1,1.3175055980682373,None,,,,,0,0,0,0,0,25,25,142,98.12220454216003,,,,,,,,,,,,,,,,,,,,,,,,,,,,,,,,,,,,,,,,,,,,,,,,,,,,,,,,,,,,,,,,,,,,,,,,,,,,,,,,,107.93962738401817,191.28232590333738,136.84650027219823,192.37020396044704,112.77623539173482,170.9015050064079,2.2,2.22,-288,274,0,-285,278,-287,98.10808753967285,98.10816645622253,98.11124873161316,98.12220454216003,98.26944422721863,98.26944422721863,98.26944422721863,98.26944422721863,98.26944422721863,98.26944422721863,98.26944422721863,99.4520468711853,1,1.3175055980682373,None,,,,,,,,,,,,,,,,,,141,2,2025-02-27_10h32.21.258,comp,2024.2.4,57.56353969524003,2025-02-27 10h32.33.324579 -0500,
26,26,0,critical,whd,35.0,2.1,upper,125.0,200.0,200.0,125.0,127.0,127.0,2,1.4444658756256104,None,,,,,0,0,0,0,0,26,26,13,99.46733593940735,,,,,,,,,,,,,,,,,,,,,,,,,,,,,,,,,,,,,,,,,,,,,,,,,,,,,,,,,,,,,,,,,,,,,,,,,,,,,,,,,125.0,200.0,200.0,125.0,127.0,127.0,2.1,2.11,-258,273,0,261,222,-267,99.45349860191345,99.4535744190216,99.45675992965698,99.46733593940735,99.62098169326782,99.62098169326782,99.62098169326782,99.62098169326782,99.62098169326782,99.62098169326782,99.62098169326782,100.92444729804993,2,1.4444658756256104,None,,,,,,,,,,,,,,,,,,141,2,2025-02-27_10h32.21.258,comp,2024.2.4,57.56353969524003,2025-02-27 10h32.33.324579 -0500,
27,27,0,filler_square,None,None,None,None,None,None,None,None,None,None,3,3.3538525104522705,None,,,,,0,0,0,0,0,27,27,172,100.94227361679077,,,,,,,,,,,,,,,,,,,,,,,,,,,,,,,,,,,,,,,,,,,,,,,,,,,,,,,,,,,,,,,,,,,,,,,,,,,,,,,,,60.758071177685,60.758071177685,57.534948736546916,60.7090669042635,60.27186555874519,57.52855106039085,1.0,1.1,-637,252,-480,270,-325,289,100.9262158870697,100.9262924194336,100.92920446395874,100.94227361679077,101.08748245239258,101.08748245239258,101.08748245239258,101.08748245239258,101.08748245239258,101.08748245239258,101.08748245239258,104.3068037033081,3,3.3538525104522705,None,,,,,,,,,,,,,,,,,,141,2,2025-02-27_10h32.21.258,comp,2024.2.4,57.56353969524003,2025-02-27 10h32.33.324579 -0500,
28,28,0,critical,dwh,35.0,1.0,upper,127.0,127.0,125.0,200.0,200.0,125.0,3,1.3485527038574219,None,,,,,0,0,0,0,0,28,28,61,104.32312679290771,,,,,,,,,,,,,,,,,,,,,,,,,,,,,,,,,,,,,,,,,,,,,,,,,,,,,,,,,,,,,,,,,,,,,,,,,,,,,,,,,127.0,127.0,125.0,200.0,200.0,125.0,1.0,1.3,220,-253,480,-254,738,-288,104.30852890014648,104.3086085319519,104.31202340126038,104.32312679290771,104.4697597026825,104.4697597026825,104.4697597026825,104.4697597026825,104.4697597026825,104.4697597026825,104.4697597026825,105.68837666511536,3,1.3485527038574219,None,,,,,,,,,,,,,,,,,,141,2,2025-02-27_10h32.21.258,comp,2024.2.4,57.56353969524003,2025-02-27 10h32.33.324579 -0500,
29,29,0,critical,dwh,20.0,3.0,lower,78.0,78.0,57.0,133.0,133.0,57.0,2,3.7819323539733887,None,,,,,0,0,0,0,0,29,29,68,105.70610928535461,,,,,,,,,,,,,,,,,,,,,,,,,,,,,,,,,,,,,,,,,,,,,,,,,,,,,,,,,,,,,,,,,,,,,,,,,,,,,,,,,78.0,78.0,57.0,133.0,133.0,57.0,3.0,3.1,-202,272,0,0,191,-279,105.69002628326416,105.69010162353516,105.69373822212219,105.70610928535461,105.8553364276886,105.8553364276886,105.8553364276886,105.8553364276886,105.8553364276886,105.8553364276886,105.8553364276886,109.50883984565735,2,3.7819323539733887,None,,,,,,,,,,,,,,,,,,141,2,2025-02-27_10h32.21.258,comp,2024.2.4,57.56353969524003,2025-02-27 10h32.33.324579 -0500,
30,30,0,critical,dhw,20.0,4.0,upper,141.0,141.0,200.0,125.0,125.0,200.0,3,2.107741117477417,None,,,,,0,0,0,0,0,30,30,59,109.52416515350342,,,,,,,,,,,,,,,,,,,,,,,,,,,,,,,,,,,,,,,,,,,,,,,,,,,,,,,,,,,,,,,,,,,,,,,,,,,,,,,,,141.0,141.0,200.0,125.0,125.0,200.0,4.0,4.2,-229,0,0,-281,258,11,109.5104341506958,109.51051163673401,109.51365494728088,109.52416515350342,109.67353868484497,109.67353868484497,109.67353868484497,109.67353868484497,109.67353868484497,109.67353868484497,109.67353868484497,111.65273380279541,3,2.107741117477417,None,,,,,,,,,,,,,,,,,,141,2,2025-02-27_10h32.21.258,comp,2024.2.4,57.56353969524003,2025-02-27 10h32.33.324579 -0500,
31,31,0,critical,hwd,35.0,3.0,upper,200.0,125.0,125.0,200.0,127.0,127.0,2,1.2475697994232178,None,,,,,0,0,0,0,0,31,31,99,111.6725447177887,,,,,,,,,,,,,,,,,,,,,,,,,,,,,,,,,,,,,,,,,,,,,,,,,,,,,,,,,,,,,,,,,,,,,,,,,,,,,,,,,200.0,125.0,125.0,200.0,127.0,127.0,3.0,3.2,-258,-256,0,-18,260,280,111.65416622161865,111.65424013137817,111.65718531608582,111.6725447177887,111.80726599693298,111.80726599693298,111.80726599693298,111.80726599693298,111.80726599693298,111.80726599693298,111.80726599693298,112.92284536361694,2,1.2475697994232178,None,,,,,,,,,,,,,,,,,,141,2,2025-02-27_10h32.21.258,comp,2024.2.4,57.56353969524003,2025-02-27 10h32.33.324579 -0500,
32,32,0,critical,hwd,35.0,4.0,upper,200.0,125.0,125.0,200.0,127.0,127.0,2,1.0251905918121338,None,,,,,0,0,0,0,0,32,32,101,112.94327306747437,,,,,,,,,,,,,,,,,,,,,,,,,,,,,,,,,,,,,,,,,,,,,,,,,,,,,,,,,,,,,,,,,,,,,,,,,,,,,,,,,200.0,125.0,125.0,200.0,127.0,127.0,4.0,4.1,-258,-270,0,-9,260,-279,112.92441058158875,112.92448687553406,112.92800188064575,112.94327306747437,113.078134059906,113.078134059906,113.078134059906,113.078134059906,113.078134059906,113.078134059906,113.078134059906,113.97345638275146,2,1.0251905918121338,None,,,,,,,,,,,,,,,,,,141,2,2025-02-27_10h32.21.258,comp,2024.2.4,57.56353969524003,2025-02-27 10h32.33.324579 -0500,
33,33,0,critical,dhw,35.0,1.0,lower,70.0,70.0,133.0,57.0,57.0,133.0,3,1.3935751914978027,None,,,,,0,0,0,0,0,33,33,48,113.990483045578,,,,,,,,,,,,,,,,,,,,,,,,,,,,,,,,,,,,,,,,,,,,,,,,,,,,,,,,,,,,,,,,,,,,,,,,,,,,,,,,,70.0,70.0,133.0,57.0,57.0,133.0,1.0,1.3,320,-268,480,-269,671,-278,113.97501182556152,113.97508883476257,113.97824835777283,113.990483045578,114.14262223243713,114.14262223243713,114.14262223243713,114.14262223243713,114.14262223243713,114.14262223243713,114.14262223243713,115.40110468864441,3,1.3935751914978027,None,,,,,,,,,,,,,,,,,,141,2,2025-02-27_10h32.21.258,comp,2024.2.4,57.56353969524003,2025-02-27 10h32.33.324579 -0500,
34,34,0,critical,dwh,35.0,4.0,lower,70.0,70.0,57.0,133.0,133.0,57.0,2,1.2071664333343506,None,,,,,0,0,0,0,0,34,34,64,115.41702651977539,,,,,,,,,,,,,,,,,,,,,,,,,,,,,,,,,,,,,,,,,,,,,,,,,,,,,,,,,,,,,,,,,,,,,,,,,,,,,,,,,70.0,70.0,57.0,133.0,133.0,57.0,4.0,4.1,-198,-262,0,9,191,-279,115.4025948047638,115.40266799926758,115.40557503700256,115.41702651977539,115.55693340301514,115.55693340301514,115.55693340301514,115.55693340301514,115.55693340301514,115.55693340301514,115.55693340301514,116.62908673286438,2,1.2071664333343506,None,,,,,,,,,,,,,,,,,,141,2,2025-02-27_10h32.21.258,comp,2024.2.4,57.56353969524003,2025-02-27 10h32.33.324579 -0500,
35,35,0,critical,whd,20.0,2.1,upper,125.0,200.0,200.0,125.0,141.0,141.0,1,1.3072283267974854,None,,,,,0,0,0,0,0,35,35,39,116.64559412002563,,,,,,,,,,,,,,,,,,,,,,,,,,,,,,,,,,,,,,,,,,,,,,,,,,,,,,,,,,,,,,,,,,,,,,,,,,,,,,,,,125.0,200.0,200.0,125.0,141.0,141.0,2.1,2.11,-258,276,0,282,229,-270,116.63079476356506,116.63087129592896,116.63388442993164,116.64559412002563,116.79056286811829,116.79056286811829,116.79056286811829,116.79056286811829,116.79056286811829,116.79056286811829,116.79056286811829,117.95800065994263,1,1.3072283267974854,None,,,,,,,,,,,,,,,,,,141,2,2025-02-27_10h32.21.258,comp,2024.2.4,57.56353969524003,2025-02-27 10h32.33.324579 -0500,
36,36,0,critical,hdw,35.0,2.1,lower,133.0,57.0,70.0,70.0,57.0,133.0,3,1.1606974601745605,None,,,,,0,0,0,0,0,36,36,44,117.97582364082336,,,,,,,,,,,,,,,,,,,,,,,,,,,,,,,,,,,,,,,,,,,,,,,,,,,,,,,,,,,,,,,,,,,,,,,,,,,,,,,,,133.0,57.0,70.0,70.0,57.0,133.0,2.1,2.11,-160,262,0,273,198,-254,117.95948338508606,117.95955896377563,117.96260166168213,117.97582364082336,118.12622618675232,118.12622618675232,118.12622618675232,118.12622618675232,118.12622618675232,118.12622618675232,118.12622618675232,119.14275884628296,3,1.1606974601745605,None,,,,,,,,,,,,,,,,,,141,2,2025-02-27_10h32.21.258,comp,2024.2.4,57.56353969524003,2025-02-27 10h32.33.324579 -0500,
37,37,0,critical,hdw,35.0,2.1,lower,133.0,57.0,70.0,70.0,57.0,133.0,3,1.2026526927947998,None,,,,,0,0,0,0,0,37,37,20,119.15891122817993,,,,,,,,,,,,,,,,,,,,,,,,,,,,,,,,,,,,,,,,,,,,,,,,,,,,,,,,,,,,,,,,,,,,,,,,,,,,,,,,,133.0,57.0,70.0,70.0,57.0,133.0,2.1,2.12,-160,-270,0,-283,198,259,119.14435935020447,119.14447021484375,119.14806175231934,119.15891122817993,119.30682420730591,119.30682420730591,119.30682420730591,119.30682420730591,119.30682420730591,119.30682420730591,119.30682420730591,120.36984324455261,3,1.2026526927947998,None,,,,,,,,,,,,,,,,,,141,2,2025-02-27_10h32.21.258,comp,2024.2.4,57.56353969524003,2025-02-27 10h32.33.324579 -0500,
38,38,0,filler_random,None,None,None,None,None,None,None,None,None,None,2,1.6414403915405273,None,,,,,0,0,0,0,0,38,38,135,120.39060831069946,,,,,,,,,,,,,,,,,,,,,,,,,,,,,,,,,,,,,,,,,,,,,,,,,,,,,,,,,,,,,,,,,,,,,,,,,,,,,,,,,82.74633701627552,87.62182380307355,176.67227713309,151.3701254066691,181.12606502634083,142.57092032499997,2.2,2.22,-215,254,0,-266,243,-286,120.37166810035706,120.37183022499084,120.3751471042633,120.39060831069946,120.52720189094543,120.52720189094543,120.52720189094543,120.52720189094543,120.52720189094543,120.52720189094543,120.52720189094543,122.04397869110107,2,1.6414403915405273,None,,,,,,,,,,,,,,,,,,141,2,2025-02-27_10h32.21.258,comp,2024.2.4,57.56353969524003,2025-02-27 10h32.33.324579 -0500,
39,39,0,critical,hwd,20.0,4.0,lower,133.0,57.0,57.0,133.0,78.0,78.0,2,2.778949499130249,None,,,,,0,0,0,0,0,39,39,106,122.06161236763,,,,,,,,,,,,,,,,,,,,,,,,,,,,,,,,,,,,,,,,,,,,,,,,,,,,,,,,,,,,,,,,,,,,,,,,,,,,,,,,,133.0,57.0,57.0,133.0,78.0,78.0,4.0,4.1,-191,-266,0,0,202,-264,122.04552912712097,122.04560422897339,122.05003643035889,122.06161236763,122.21076583862305,122.21076583862305,122.21076583862305,122.21076583862305,122.21076583862305,122.21076583862305,122.21076583862305,124.8442964553833,2,2.778949499130249,None,,,,,,,,,,,,,,,,,,141,2,2025-02-27_10h32.21.258,comp,2024.2.4,57.56353969524003,2025-02-27 10h32.33.324579 -0500,
40,40,0,critical,wdh,35.0,1.0,upper,125.0,200.0,127.0,127.0,200.0,125.0,3,2.8124091625213623,None,,,,,0,0,0,0,0,40,40,73,124.85992169380188,,,,,,,,,,,,,,,,,,,,,,,,,,,,,,,,,,,,,,,,,,,,,,,,,,,,,,,,,,,,,,,,,,,,,,,,,,,,,,,,,125.0,200.0,127.0,127.0,200.0,125.0,1.0,1.3,220,-265,480,-276,702,-278,124.84578967094421,124.84586668014526,124.84912824630737,124.85992169380188,125.02056384086609,125.02056384086609,125.02056384086609,125.02056384086609,125.02056384086609,125.02056384086609,125.02056384086609,127.67951774597168,3,2.8124091625213623,None,,,,,,,,,,,,,,,,,,141,2,2025-02-27_10h32.21.258,comp,2024.2.4,57.56353969524003,2025-02-27 10h32.33.324579 -0500,
41,41,0,filler_random,None,None,None,None,None,None,None,None,None,None,1,2.0718650817871094,None,,,,,0,0,0,0,0,41,41,141,127.69580817222595,,,,,,,,,,,,,,,,,,,,,,,,,,,,,,,,,,,,,,,,,,,,,,,,,,,,,,,,,,,,,,,,,,,,,,,,,,,,,,,,,133.747968719717,145.62318209383585,122.60944932529317,116.12364847077289,110.1907916443102,141.01298072192924,1.0,1.2,-227,-13,0,18,225,1,127.68121480941772,127.68129134178162,127.68491983413696,127.69580817222595,127.84363627433777,127.84363627433777,127.84363627433777,127.84363627433777,127.84363627433777,127.84363627433777,127.84363627433777,129.78423714637756,1,2.0718650817871094,None,,,,,,,,,,,,,,,,,,141,2,2025-02-27_10h32.21.258,comp,2024.2.4,57.56353969524003,2025-02-27 10h32.33.324579 -0500,
42,42,0,filler_square,None,None,None,None,None,None,None,None,None,None,1,1.6794769763946533,None,,,,,0,0,0,0,0,42,42,170,129.80022430419922,,,,,,,,,,,,,,,,,,,,,,,,,,,,,,,,,,,,,,,,,,,,,,,,,,,,,,,,,,,,,,,,,,,,,,,,,,,,,,,,,90.45641288250684,90.45641288250684,83.5494870299154,86.50342111458632,76.16053284751285,74.52766380422369,4.0,4.1,-184,-275,0,20,177,-265,129.7860255241394,129.78610134124756,129.78901290893555,129.80022430419922,129.94624948501587,129.94624948501587,129.94624948501587,129.94624948501587,129.94624948501587,129.94624948501587,129.94624948501587,131.49142241477966,1,1.6794769763946533,None,,,,,,,,,,,,,,,,,,141,2,2025-02-27_10h32.21.258,comp,2024.2.4,57.56353969524003,2025-02-27 10h32.33.324579 -0500,
43,43,0,critical,hdw,20.0,2.1,upper,200.0,125.0,141.0,141.0,125.0,200.0,3,2.4281563758850098,None,,,,,0,0,0,0,0,43,43,23,131.50762248039246,,,,,,,,,,,,,,,,,,,,,,,,,,,,,,,,,,,,,,,,,,,,,,,,,,,,,,,,,,,,,,,,,,,,,,,,,,,,,,,,,200.0,125.0,141.0,141.0,125.0,200.0,2.1,2.11,-229,279,0,253,266,-269,131.49303889274597,131.49311542510986,131.49649214744568,131.50762248039246,131.64793252944946,131.64793252944946,131.64793252944946,131.64793252944946,131.64793252944946,131.64793252944946,131.64793252944946,133.94562792778015,3,2.4281563758850098,None,,,,,,,,,,,,,,,,,,141,2,2025-02-27_10h32.21.258,comp,2024.2.4,57.56353969524003,2025-02-27 10h32.33.324579 -0500,
44,44,0,critical,dhw,20.0,1.0,upper,141.0,141.0,200.0,125.0,125.0,200.0,3,2.014554262161255,None,,,,,0,0,0,0,0,44,44,55,133.96157097816467,,,,,,,,,,,,,,,,,,,,,,,,,,,,,,,,,,,,,,,,,,,,,,,,,,,,,,,,,,,,,,,,,,,,,,,,,,,,,,,,,141.0,141.0,200.0,125.0,125.0,200.0,1.0,1.2,-229,-17,0,-15,258,-14,133.94708633422852,133.94716215133667,133.95035767555237,133.96157097816467,134.12016677856445,134.12016677856445,134.12016677856445,134.12016677856445,134.12016677856445,134.12016677856445,134.12016677856445,135.98032569885254,3,2.014554262161255,None,,,,,,,,,,,,,,,,,,141,2,2025-02-27_10h32.21.258,comp,2024.2.4,57.56353969524003,2025-02-27 10h32.33.324579 -0500,
45,45,0,critical,whd,20.0,2.1,lower,57.0,133.0,133.0,57.0,78.0,78.0,3,2.852116346359253,None,,,,,0,0,0,0,0,45,45,14,135.99648189544678,,,,,,,,,,,,,,,,,,,,,,,,,,,,,,,,,,,,,,,,,,,,,,,,,,,,,,,,,,,,,,,,,,,,,,,,,,,,,,,,,57.0,133.0,133.0,57.0,78.0,78.0,2.1,2.11,-191,285,0,287,164,-265,135.98180651664734,135.98188257217407,135.98500156402588,135.99648189544678,136.1452271938324,136.1452271938324,136.1452271938324,136.1452271938324,136.1452271938324,136.1452271938324,136.1452271938324,138.86460781097412,3,2.852116346359253,None,,,,,,,,,,,,,,,,,,141,2,2025-02-27_10h32.21.258,comp,2024.2.4,57.56353969524003,2025-02-27 10h32.33.324579 -0500,
46,46,0,critical,dwh,35.0,3.0,upper,127.0,127.0,125.0,200.0,200.0,125.0,2,1.7517974376678467,None,,,,,0,0,0,0,0,46,46,63,138.88059902191162,,,,,,,,,,,,,,,,,,,,,,,,,,,,,,,,,,,,,,,,,,,,,,,,,,,,,,,,,,,,,,,,,,,,,,,,,,,,,,,,,127.0,127.0,125.0,200.0,200.0,125.0,3.0,3.2,-260,-264,0,-19,258,275,138.86614680290222,138.86621928215027,138.8693232536316,138.88059902191162,139.03294610977173,139.03294610977173,139.03294610977173,139.03294610977173,139.03294610977173,139.03294610977173,139.03294610977173,140.63436794281006,2,1.7517974376678467,None,,,,,,,,,,,,,,,,,,141,2,2025-02-27_10h32.21.258,comp,2024.2.4,57.56353969524003,2025-02-27 10h32.33.324579 -0500,
47,47,0,filler_random,None,None,None,None,None,None,None,None,None,None,1,1.3484411239624023,None,,,,,0,0,0,0,0,47,47,133,140.65160512924194,,,,,,,,,,,,,,,,,,,,,,,,,,,,,,,,,,,,,,,,,,,,,,,,,,,,,,,,,,,,,,,,,,,,,,,,,,,,,,,,,142.9345215004975,108.49763605298133,77.35495965794749,163.8816284796293,72.50209379353815,172.65778917518313,2.2,2.22,-232,260,0,-284,264,-276,140.636474609375,140.63655304908752,140.64045000076294,140.65160512924194,140.7983889579773,140.7983889579773,140.7983889579773,140.7983889579773,140.7983889579773,140.7983889579773,140.7983889579773,142.01616835594177,1,1.3484411239624023,None,,,,,,,,,,,,,,,,,,141,2,2025-02-27_10h32.21.258,comp,2024.2.4,57.56353969524003,2025-02-27 10h32.33.324579 -0500,
48,48,0,catch,None,None,None,None,None,None,None,None,None,None,2,1.9604406356811523,None,,,,,0,0,0,0,0,48,48,122,142.03204560279846,,,,,,,,,,,,,,,,,,,,,,,,,,,,,,,,,,,,,,,,,,,,,,,,,,,,,,,,,,,,,,,,,,,,,,,,,,,,,,,,,75,115,192,133,58,132,2.2,2.22,-220,259,0,-262,228,-257,142.01802015304565,142.0180950164795,142.02142357826233,142.03204560279846,142.18640327453613,142.18640327453613,142.18640327453613,142.18640327453613,142.18640327453613,142.18640327453613,142.18640327453613,143.9994626045227,2,1.9604406356811523,None,,,,,,,,,,,,,,,,,,141,2,2025-02-27_10h32.21.258,comp,2024.2.4,57.56353969524003,2025-02-27 10h32.33.324579 -0500,
49,49,0,filler_square,None,None,None,None,None,None,None,None,None,None,1,1.7509958744049072,None,,,,,0,0,0,0,0,49,49,201,144.01683521270752,,,,,,,,,,,,,,,,,,,,,,,,,,,,,,,,,,,,,,,,,,,,,,,,,,,,,,,,,,,,,,,,,,,,,,,,,,,,,,,,,57.01994468163708,57.032290982709426,57.00301663074237,57.0024273455993,57.035291140548004,57.035291140548004,2.1,2.11,-153,290,0,275,153,-252,144.00146460533142,144.00154852867126,144.00485348701477,144.01683521270752,144.17087817192078,144.17087817192078,144.17087817192078,144.17087817192078,144.17087817192078,144.17087817192078,144.17087817192078,145.77363634109497,1,1.7509958744049072,None,,,,,,,,,,,,,,,,,,141,2,2025-02-27_10h32.21.258,comp,2024.2.4,57.56353969524003,2025-02-27 10h32.33.324579 -0500,
50,50,0,filler_random,None,None,None,None,None,None,None,None,None,None,3,2.248288631439209,None,,,,,0,0,0,0,0,50,50,149,145.79252767562866,,,,,,,,,,,,,,,,,,,,,,,,,,,,,,,,,,,,,,,,,,,,,,,,,,,,,,,,,,,,,,,,,,,,,,,,,,,,,,,,,150.29645192466057,80.00660036820435,95.84803461740303,69.36291011481164,194.13336727276624,163.62108839502054,2.1,2.11,-171,275,0,259,212,-289,145.77534294128418,145.77541971206665,145.77834630012512,145.79252767562866,145.93459129333496,145.93459129333496,145.93459129333496,145.93459129333496,145.93459129333496,145.93459129333496,145.93459129333496,148.043071269989,3,2.248288631439209,None,,,,,,,,,,,,,,,,,,141,2,2025-02-27_10h32.21.258,comp,2024.2.4,57.56353969524003,2025-02-27 10h32.33.324579 -0500,
51,51,0,filler_random,None,None,None,None,None,None,None,None,None,None,1,2.1402900218963623,None,,,,,0,0,0,0,0,51,51,169,148.0601930618286,,,,,,,,,,,,,,,,,,,,,,,,,,,,,,,,,,,,,,,,,,,,,,,,,,,,,,,,,,,,,,,,,,,,,,,,,,,,,,,,,105.91515332924342,162.81767145912053,129.9671947908014,79.51208920109235,71.18765679133847,193.04100900320972,3.0,3.2,-217,-261,0,4,232,284,148.04488062858582,148.0449869632721,148.04825353622437,148.0601930618286,148.20485734939575,148.20485734939575,148.20485734939575,148.20485734939575,148.20485734939575,148.20485734939575,148.20485734939575,150.20664072036743,1,2.1402900218963623,None,,,,,,,,,,,,,,,,,,141,2,2025-02-27_10h32.21.258,comp,2024.2.4,57.56353969524003,2025-02-27 10h32.33.324579 -0500,
52,52,0,critical,hdw,35.0,2.1,upper,200.0,125.0,127.0,127.0,125.0,200.0,3,1.4090173244476318,None,,,,,0,0,0,0,0,52,52,21,150.22313022613525,,,,,,,,,,,,,,,,,,,,,,,,,,,,,,,,,,,,,,,,,,,,,,,,,,,,,,,,,,,,,,,,,,,,,,,,,,,,,,,,,200.0,125.0,127.0,127.0,125.0,200.0,2.1,2.12,-222,-285,0,-259,260,268,150.20823860168457,150.20831561088562,150.21182203292847,150.22313022613525,150.37570190429688,150.37570190429688,150.37570190429688,150.37570190429688,150.37570190429688,150.37570190429688,150.37570190429688,151.63443231582642,3,1.4090173244476318,None,,,,,,,,,,,,,,,,,,141,2,2025-02-27_10h32.21.258,comp,2024.2.4,57.56353969524003,2025-02-27 10h32.33.324579 -0500,
53,53,0,filler_square,None,None,None,None,None,None,None,None,None,None,2,1.419989824295044,None,,,,,0,0,0,0,0,53,53,202,151.65182542800903,,,,,,,,,,,,,,,,,,,,,,,,,,,,,,,,,,,,,,,,,,,,,,,,,,,,,,,,,,,,,,,,,,,,,,,,,,,,,,,,,156.43781391524143,123.87691899513109,159.46038710090113,159.46038710090113,140.77111762467493,128.34761529873344,2.2,2.22,-238,277,0,-282,240,-286,151.6365134716034,151.63659167289734,151.6400043964386,151.65182542800903,151.80021214485168,151.80021214485168,151.80021214485168,151.80021214485168,151.80021214485168,151.80021214485168,151.80021214485168,153.08935570716858,2,1.419989824295044,None,,,,,,,,,,,,,,,,,,141,2,2025-02-27_10h32.21.258,comp,2024.2.4,57.56353969524003,2025-02-27 10h32.33.324579 -0500,
54,54,0,critical,whd,35.0,4.0,upper,125.0,200.0,200.0,125.0,127.0,127.0,1,0.9545435905456543,None,,,,,0,0,0,0,0,54,54,89,153.10983395576477,,,,,,,,,,,,,,,,,,,,,,,,,,,,,,,,,,,,,,,,,,,,,,,,,,,,,,,,,,,,,,,,,,,,,,,,,,,,,,,,,125.0,200.0,200.0,125.0,127.0,127.0,4.0,4.2,-258,16,0,-263,222,9,153.09086298942566,153.09093832969666,153.09437322616577,153.10983395576477,153.2520444393158,153.2520444393158,153.2520444393158,153.2520444393158,153.2520444393158,153.2520444393158,153.2520444393158,154.06755828857422,1,0.9545435905456543,None,,,,,,,,,,,,,,,,,,141,2,2025-02-27_10h32.21.258,comp,2024.2.4,57.56353969524003,2025-02-27 10h32.33.324579 -0500,
55,55,0,critical,dhw,35.0,4.0,upper,127.0,127.0,200.0,125.0,125.0,200.0,3,1.5242936611175537,None,,,,,0,0,0,0,0,55,55,53,154.08482122421265,,,,,,,,,,,,,,,,,,,,,,,,,,,,,,,,,,,,,,,,,,,,,,,,,,,,,,,,,,,,,,,,,,,,,,,,,,,,,,,,,127.0,127.0,200.0,125.0,125.0,200.0,4.0,4.1,-222,-259,0,9,258,-251,154.06918287277222,154.06925868988037,154.07256817817688,154.08482122421265,154.23651385307312,154.23651385307312,154.23651385307312,154.23651385307312,154.23651385307312,154.23651385307312,154.23651385307312,155.61951112747192,3,1.5242936611175537,None,,,,,,,,,,,,,,,,,,141,2,2025-02-27_10h32.21.258,comp,2024.2.4,57.56353969524003,2025-02-27 10h32.33.324579 -0500,
56,56,0,critical,wdh,35.0,2.1,lower,57.0,133.0,70.0,70.0,133.0,57.0,1,1.892509937286377,None,,,,,0,0,0,0,0,56,56,32,155.63631868362427,,,,,,,,,,,,,,,,,,,,,,,,,,,,,,,,,,,,,,,,,,,,,,,,,,,,,,,,,,,,,,,,,,,,,,,,,,,,,,,,,57.0,133.0,70.0,70.0,133.0,57.0,2.1,2.11,-198,280,0,270,160,-264,155.6210653781891,155.62114262580872,155.62439441680908,155.63631868362427,155.7884795665741,155.7884795665741,155.7884795665741,155.7884795665741,155.7884795665741,155.7884795665741,155.7884795665741,157.53844213485718,1,1.892509937286377,None,,,,,,,,,,,,,,,,,,141,2,2025-02-27_10h32.21.258,comp,2024.2.4,57.56353969524003,2025-02-27 10h32.33.324579 -0500,
57,57,0,critical,hdw,35.0,1.0,lower,133.0,57.0,70.0,70.0,57.0,133.0,3,1.8462586402893066,None,,,,,0,0,0,0,0,57,57,108,157.55407905578613,,,,,,,,,,,,,,,,,,,,,,,,,,,,,,,,,,,,,,,,,,,,,,,,,,,,,,,,,,,,,,,,,,,,,,,,,,,,,,,,,133.0,57.0,70.0,70.0,57.0,133.0,1.0,1.2,-160,8,0,-4,198,17,157.53987431526184,157.53997206687927,157.54324340820312,157.55407905578613,157.70531272888184,157.70531272888184,157.70531272888184,157.70531272888184,157.70531272888184,157.70531272888184,157.70531272888184,159.40553307533264,3,1.8462586402893066,None,,,,,,,,,,,,,,,,,,141,2,2025-02-27_10h32.21.258,comp,2024.2.4,57.56353969524003,2025-02-27 10h32.33.324579 -0500,
58,58,0,critical,hwd,35.0,1.0,lower,133.0,57.0,57.0,133.0,70.0,70.0,2,1.624316930770874,None,,,,,0,0,0,0,0,58,58,96,159.42342948913574,,,,,,,,,,,,,,,,,,,,,,,,,,,,,,,,,,,,,,,,,,,,,,,,,,,,,,,,,,,,,,,,,,,,,,,,,,,,,,,,,133.0,57.0,57.0,133.0,70.0,70.0,1.0,1.3,289,-282,480,-261,678,-289,159.40708994865417,159.40716648101807,159.41039443016052,159.42342948913574,159.57164072990417,159.57164072990417,159.57164072990417,159.57164072990417,159.57164072990417,159.57164072990417,159.57164072990417,161.0647304058075,2,1.624316930770874,None,,,,,,,,,,,,,,,,,,141,2,2025-02-27_10h32.21.258,comp,2024.2.4,57.56353969524003,2025-02-27 10h32.33.324579 -0500,
59,59,0,critical,hwd,35.0,2.1,lower,133.0,57.0,57.0,133.0,70.0,70.0,2,1.4173953533172607,None,,,,,0,0,0,0,0,59,59,16,161.08085751533508,,,,,,,,,,,,,,,,,,,,,,,,,,,,,,,,,,,,,,,,,,,,,,,,,,,,,,,,,,,,,,,,,,,,,,,,,,,,,,,,,133.0,57.0,57.0,133.0,70.0,70.0,2.1,2.12,-191,-259,0,-273,198,286,161.06632614135742,161.06640076637268,161.06969213485718,161.08085751533508,161.22300148010254,161.22300148010254,161.22300148010254,161.22300148010254,161.22300148010254,161.22300148010254,161.22300148010254,162.50319576263428,2,1.4173953533172607,None,,,,,,,,,,,,,,,,,,141,2,2025-02-27_10h32.21.258,comp,2024.2.4,57.56353969524003,2025-02-27 10h32.33.324579 -0500,
60,60,0,catch,None,None,None,None,None,None,None,None,None,None,1,1.1041309833526611,None,,,,,0,0,0,0,0,60,60,127,162.51996040344238,,,,,,,,,,,,,,,,,,,,,,,,,,,,,,,,,,,,,,,,,,,,,,,,,,,,,,,,,,,,,,,,,,,,,,,,,,,,,,,,,150,175,118,72,87,103,4.0,4.1,-220,-255,0,-1,184,-280,162.50500202178955,162.50507831573486,162.5080487728119,162.51996040344238,162.6711826324463,162.6711826324463,162.6711826324463,162.6711826324463,162.6711826324463,162.6711826324463,162.6711826324463,163.63961696624756,1,1.1041309833526611,None,,,,,,,,,,,,,,,,,,141,2,2025-02-27_10h32.21.258,comp,2024.2.4,57.56353969524003,2025-02-27 10h32.33.324579 -0500,
61,61,0,filler_square,None,None,None,None,None,None,None,None,None,None,3,1.186450481414795,None,,,,,0,0,0,0,0,61,61,203,163.6538872718811,,,,,,,,,,,,,,,,,,,,,,,,,,,,,,,,,,,,,,,,,,,,,,,,,,,,,,,,,,,,,,,,,,,,,,,,,,,,,,,,,83.79309975990893,88.98530977646391,89.84838721807975,76.35626934188691,103.60239068432205,103.60239068432205,1.0,1.1,-659,253,-480,285,-294,269,163.64140057563782,163.64147567749023,163.64468550682068,163.6538872718811,163.7983226776123,163.7983226776123,163.7983226776123,163.7983226776123,163.7983226776123,163.7983226776123,163.7983226776123,164.8502562046051,3,1.186450481414795,None,,,,,,,,,,,,,,,,,,141,2,2025-02-27_10h32.21.258,comp,2024.2.4,57.56353969524003,2025-02-27 10h32.33.324579 -0500,
62,62,0,critical,hdw,20.0,3.0,upper,200.0,125.0,141.0,141.0,125.0,200.0,3,2.530698537826538,None,,,,,0,0,0,0,0,62,62,117,164.86969423294067,,,,,,,,,,,,,,,,,,,,,,,,,,,,,,,,,,,,,,,,,,,,,,,,,,,,,,,,,,,,,,,,,,,,,,,,,,,,,,,,,200.0,125.0,141.0,141.0,125.0,200.0,3.0,3.1,-229,258,0,15,266,-285,164.85188698768616,164.85196471214294,164.85525012016296,164.86969423294067,165.00346207618713,165.00346207618713,165.00346207618713,165.00346207618713,165.00346207618713,165.00346207618713,165.00346207618713,167.4049527645111,3,2.530698537826538,None,,,,,,,,,,,,,,,,,,141,2,2025-02-27_10h32.21.258,comp,2024.2.4,57.56353969524003,2025-02-27 10h32.33.324579 -0500,
63,63,0,filler_square,None,None,None,None,None,None,None,None,None,None,2,1.170158863067627,None,,,,,0,0,0,0,0,63,63,182,167.42163920402527,,,,,,,,,,,,,,,,,,,,,,,,,,,,,,,,,,,,,,,,,,,,,,,,,,,,,,,,,,,,,,,,,,,,,,,,,,,,,,,,,140.466829040358,144.56413355233994,190.6902264504893,190.6902264504893,103.28945190350251,90.55562358551826,3.0,3.2,-264,-259,0,12,237,283,167.40695142745972,167.4070281982422,167.41026425361633,167.42163920402527,167.5732023715973,167.5732023715973,167.5732023715973,167.5732023715973,167.5732023715973,167.5732023715973,167.5732023715973,168.60742831230164,2,1.170158863067627,None,,,,,,,,,,,,,,,,,,141,2,2025-02-27_10h32.21.258,comp,2024.2.4,57.56353969524003,2025-02-27 10h32.33.324579 -0500,
64,64,0,catch,None,None,None,None,None,None,None,None,None,None,1,0.9758179187774658,None,,,,,0,0,0,0,0,64,64,125,168.62508893013,,,,,,,,,,,,,,,,,,,,,,,,,,,,,,,,,,,,,,,,,,,,,,,,,,,,,,,,,,,,,,,,,,,,,,,,,,,,,,,,,142,183,113,77,117,73,3.0,3.1,-226,286,0,-1,171,-282,168.60927176475525,168.60934615135193,168.61244225502014,168.62508893013,168.78181862831116,168.78181862831116,168.78181862831116,168.78181862831116,168.78181862831116,168.78181862831116,168.78181862831116,169.60929775238037,1,0.9758179187774658,None,,,,,,,,,,,,,,,,,,141,2,2025-02-27_10h32.21.258,comp,2024.2.4,57.56353969524003,2025-02-27 10h32.33.324579 -0500,
65,65,0,critical,whd,20.0,4.0,lower,57.0,133.0,133.0,57.0,78.0,78.0,1,2.4938433170318604,None,,,,,0,0,0,0,0,65,65,94,169.62601971626282,,,,,,,,,,,,,,,,,,,,,,,,,,,,,,,,,,,,,,,,,,,,,,,,,,,,,,,,,,,,,,,,,,,,,,,,,,,,,,,,,57.0,133.0,133.0,57.0,78.0,78.0,4.0,4.2,-191,10,0,-279,164,9,169.61087656021118,169.61095523834229,169.61428666114807,169.62601971626282,169.7738687992096,169.7738687992096,169.7738687992096,169.7738687992096,169.7738687992096,169.7738687992096,169.7738687992096,172.12397027015686,1,2.4938433170318604,None,,,,,,,,,,,,,,,,,,141,2,2025-02-27_10h32.21.258,comp,2024.2.4,57.56353969524003,2025-02-27 10h32.33.324579 -0500,
66,66,0,filler_square,None,None,None,None,None,None,None,None,None,None,2,1.0474984645843506,None,,,,,0,0,0,0,0,66,66,191,172.14438581466675,,,,,,,,,,,,,,,,,,,,,,,,,,,,,,,,,,,,,,,,,,,,,,,,,,,,,,,,,,,,,,,,,,,,,,,,,,,,,,,,,132.19311269571426,157.29808749802592,196.22744766557523,196.22744766557523,90.20382776806004,118.42073004010297,1.0,1.2,-273,12,0,-8,253,-18,172.1256401538849,172.12573766708374,172.1286702156067,172.14438581466675,172.27683854103088,172.27683854103088,172.27683854103088,172.27683854103088,172.27683854103088,172.27683854103088,172.27683854103088,173.1952850818634,2,1.0474984645843506,None,,,,,,,,,,,,,,,,,,141,2,2025-02-27_10h32.21.258,comp,2024.2.4,57.56353969524003,2025-02-27 10h32.33.324579 -0500,
67,67,0,critical,dwh,20.0,4.0,lower,78.0,78.0,57.0,133.0,133.0,57.0,2,1.298231840133667,None,,,,,0,0,0,0,0,67,67,70,173.21357321739197,,,,,,,,,,,,,,,,,,,,,,,,,,,,,,,,,,,,,,,,,,,,,,,,,,,,,,,,,,,,,,,,,,,,,,,,,,,,,,,,,78.0,78.0,57.0,133.0,133.0,57.0,4.0,4.1,-202,-259,0,2,191,-274,173.19693040847778,173.19702816009521,173.20038628578186,173.21357321739197,173.3589358329773,173.3589358329773,173.3589358329773,173.3589358329773,173.3589358329773,173.3589358329773,173.3589358329773,174.5263373851776,2,1.298231840133667,None,,,,,,,,,,,,,,,,,,141,2,2025-02-27_10h32.21.258,comp,2024.2.4,57.56353969524003,2025-02-27 10h32.33.324579 -0500,
68,68,0,critical,whd,35.0,1.0,upper,125.0,200.0,200.0,125.0,127.0,127.0,1,2.6280910968780518,None,,,,,0,0,0,0,0,68,68,85,174.54218292236328,,,,,,,,,,,,,,,,,,,,,,,,,,,,,,,,,,,,,,,,,,,,,,,,,,,,,,,,,,,,,,,,,,,,,,,,,,,,,,,,,125.0,200.0,200.0,125.0,127.0,127.0,1.0,1.3,222,-256,480,-281,702,-267,174.52782917022705,174.5279037952423,174.53182172775269,174.54218292236328,174.69055795669556,174.69055795669556,174.69055795669556,174.69055795669556,174.69055795669556,174.69055795669556,174.69055795669556,177.176828622818,1,2.6280910968780518,None,,,,,,,,,,,,,,,,,,141,2,2025-02-27_10h32.21.258,comp,2024.2.4,57.56353969524003,2025-02-27 10h32.33.324579 -0500,
69,69,0,critical,dwh,20.0,2.1,upper,141.0,141.0,125.0,200.0,200.0,125.0,2,4.014855146408081,None,,,,,0,0,0,0,0,69,69,7,177.1932511329651,,,,,,,,,,,,,,,,,,,,,,,,,,,,,,,,,,,,,,,,,,,,,,,,,,,,,,,,,,,,,,,,,,,,,,,,,,,,,,,,,141.0,141.0,125.0,200.0,200.0,125.0,2.1,2.11,-266,253,0,260,258,-267,177.1783103942871,177.17838668823242,177.18159556388855,177.1932511329651,177.34600257873535,177.34600257873535,177.34600257873535,177.34600257873535,177.34600257873535,177.34600257873535,177.34600257873535,181.22420597076416,2,4.014855146408081,None,,,,,,,,,,,,,,,,,,141,2,2025-02-27_10h32.21.258,comp,2024.2.4,57.56353969524003,2025-02-27 10h32.33.324579 -0500,
70,70,0,critical,whd,20.0,3.0,upper,125.0,200.0,200.0,125.0,141.0,141.0,1,1.633655071258545,None,,,,,0,0,0,0,0,70,70,93,181.2386565208435,,,,,,,,,,,,,,,,,,,,,,,,,,,,,,,,,,,,,,,,,,,,,,,,,,,,,,,,,,,,,,,,,,,,,,,,,,,,,,,,,125.0,200.0,200.0,125.0,141.0,141.0,3.0,3.2,-258,-273,0,3,229,281,181.22564315795898,181.22574996948242,181.2286651134491,181.2386565208435,181.38027215003967,181.38027215003967,181.38027215003967,181.38027215003967,181.38027215003967,181.38027215003967,181.38027215003967,182.8793888092041,1,1.633655071258545,None,,,,,,,,,,,,,,,,,,141,2,2025-02-27_10h32.21.258,comp,2024.2.4,57.56353969524003,2025-02-27 10h32.33.324579 -0500,
71,71,0,filler_square,None,None,None,None,None,None,None,None,None,None,3,2.888676166534424,None,,,,,0,0,0,0,0,71,71,208,182.8954472541809,,,,,,,,,,,,,,,,,,,,,,,,,,,,,,,,,,,,,,,,,,,,,,,,,,,,,,,,,,,,,,,,,,,,,,,,,,,,,,,,,71.32591051750755,123.79889250458731,68.24400636425571,106.64549195055814,134.23344161979261,134.23344161979261,4.0,4.2,-211,17,0,-258,216,-19,182.88119220733643,182.8812713623047,182.88468551635742,182.8954472541809,183.04310393333435,183.04310393333435,183.04310393333435,183.04310393333435,183.04310393333435,183.04310393333435,183.04310393333435,185.8011236190796,3,2.888676166534424,None,,,,,,,,,,,,,,,,,,141,2,2025-02-27_10h32.21.258,comp,2024.2.4,57.56353969524003,2025-02-27 10h32.33.324579 -0500,
72,72,0,filler_random,None,None,None,None,None,None,None,None,None,None,3,1.6074423789978027,None,,,,,0,0,0,0,0,72,72,165,185.81694912910461,,,,,,,,,,,,,,,,,,,,,,,,,,,,,,,,,,,,,,,,,,,,,,,,,,,,,,,,,,,,,,,,,,,,,,,,,,,,,,,,,96.36351835757924,123.29447458865322,94.78068219413474,68.2372814259308,197.918093156648,122.13570411825712,3.0,3.1,-192,268,0,19,191,-262,185.80300545692444,185.80309748649597,185.8065116405487,185.81694912910461,185.96048188209534,185.96048188209534,185.96048188209534,185.96048188209534,185.96048188209534,185.96048188209534,185.96048188209534,187.4329526424408,3,1.6074423789978027,None,,,,,,,,,,,,,,,,,,141,2,2025-02-27_10h32.21.258,comp,2024.2.4,57.56353969524003,2025-02-27 10h32.33.324579 -0500,
73,73,0,critical,dhw,20.0,3.0,upper,141.0,141.0,200.0,125.0,125.0,200.0,3,1.3820509910583496,None,,,,,0,0,0,0,0,73,73,57,187.44984412193298,,,,,,,,,,,,,,,,,,,,,,,,,,,,,,,,,,,,,,,,,,,,,,,,,,,,,,,,,,,,,,,,,,,,,,,,,,,,,,,,,141.0,141.0,200.0,125.0,125.0,200.0,3.0,3.2,-229,-257,0,0,258,256,187.43463706970215,187.43480730056763,187.4381582736969,187.44984412193298,187.5999252796173,187.5999252796173,187.5999252796173,187.5999252796173,187.5999252796173,187.5999252796173,187.5999252796173,188.8377604484558,3,1.3820509910583496,None,,,,,,,,,,,,,,,,,,141,2,2025-02-27_10h32.21.258,comp,2024.2.4,57.56353969524003,2025-02-27 10h32.33.324579 -0500,
74,74,0,catch,None,None,None,None,None,None,None,None,None,None,3,0.9362671375274658,None,,,,,0,0,0,0,0,74,74,129,188.85634875297546,,,,,,,,,,,,,,,,,,,,,,,,,,,,,,,,,,,,,,,,,,,,,,,,,,,,,,,,,,,,,,,,,,,,,,,,,,,,,,,,,79,111,73,117,160,165,4.0,4.2,-210,-8,0,-260,237,8,188.83959031105042,188.8396692276001,188.84256863594055,188.85634875297546,188.99636936187744,188.99636936187744,188.99636936187744,188.99636936187744,188.99636936187744,188.99636936187744,188.99636936187744,189.79854655265808,3,0.9362671375274658,None,,,,,,,,,,,,,,,,,,141,2,2025-02-27_10h32.21.258,comp,2024.2.4,57.56353969524003,2025-02-27 10h32.33.324579 -0500,
75,75,0,critical,wdh,35.0,2.1,upper,125.0,200.0,127.0,127.0,200.0,125.0,1,1.9461171627044678,None,,,,,0,0,0,0,0,75,75,33,189.81455302238464,,,,,,,,,,,,,,,,,,,,,,,,,,,,,,,,,,,,,,,,,,,,,,,,,,,,,,,,,,,,,,,,,,,,,,,,,,,,,,,,,125.0,200.0,127.0,127.0,200.0,125.0,2.1,2.12,-260,-287,0,-286,222,255,189.80005717277527,189.80013298988342,189.80361199378967,189.81455302238464,189.9687647819519,189.9687647819519,189.9687647819519,189.9687647819519,189.9687647819519,189.9687647819519,189.9687647819519,191.76582717895508,1,1.9461171627044678,None,,,,,,,,,,,,,,,,,,141,2,2025-02-27_10h32.21.258,comp,2024.2.4,57.56353969524003,2025-02-27 10h32.33.324579 -0500,
76,76,0,filler_square,None,None,None,None,None,None,None,None,None,None,1,1.1451802253723145,None,,,,,0,0,0,0,0,76,76,181,191.78316617012024,,,,,,,,,,,,,,,,,,,,,,,,,,,,,,,,,,,,,,,,,,,,,,,,,,,,,,,,,,,,,,,,,,,,,,,,,,,,,,,,,178.62839561845766,178.62839561845766,127.52400112504003,178.17670149078822,145.50750551949739,113.44470014731797,1.0,1.1,-754,285,-480,271,-238,274,191.7676374912262,191.76774644851685,191.77174639701843,191.78316617012024,191.9281358718872,191.9281358718872,191.9281358718872,191.9281358718872,191.9281358718872,191.9281358718872,191.9281358718872,192.93077945709229,1,1.1451802253723145,None,,,,,,,,,,,,,,,,,,141,2,2025-02-27_10h32.21.258,comp,2024.2.4,57.56353969524003,2025-02-27 10h32.33.324579 -0500,
77,77,0,critical,hwd,20.0,2.1,lower,133.0,57.0,57.0,133.0,78.0,78.0,3,1.5005390644073486,None,,,,,0,0,0,0,0,77,77,42,192.94765710830688,,,,,,,,,,,,,,,,,,,,,,,,,,,,,,,,,,,,,,,,,,,,,,,,,,,,,,,,,,,,,,,,,,,,,,,,,,,,,,,,,133.0,57.0,57.0,133.0,78.0,78.0,2.1,2.11,-191,281,0,265,202,-281,192.93234086036682,192.9324173927307,192.9359004497528,192.94765710830688,193.0828766822815,193.0828766822815,193.0828766822815,193.0828766822815,193.0828766822815,193.0828766822815,193.0828766822815,194.45483660697937,3,1.5005390644073486,None,,,,,,,,,,,,,,,,,,141,2,2025-02-27_10h32.21.258,comp,2024.2.4,57.56353969524003,2025-02-27 10h32.33.324579 -0500,
78,78,0,filler_random,None,None,None,None,None,None,None,None,None,None,2,2.1606240272521973,None,,,,,0,0,0,0,0,78,78,138,194.47131633758545,,,,,,,,,,,,,,,,,,,,,,,,,,,,,,,,,,,,,,,,,,,,,,,,,,,,,,,,,,,,,,,,,,,,,,,,,,,,,,,,,87.10965086351467,112.65780725154175,160.38741545401405,146.14566436469133,152.58258353766684,90.91135573113719,4.0,4.2,-225,-3,0,-282,215,-11,194.45679211616516,194.4568736553192,194.46028852462769,194.47131633758545,194.61565804481506,194.61565804481506,194.61565804481506,194.61565804481506,194.61565804481506,194.61565804481506,194.61565804481506,196.64415621757507,2,2.1606240272521973,None,,,,,,,,,,,,,,,,,,141,2,2025-02-27_10h32.21.258,comp,2024.2.4,57.56353969524003,2025-02-27 10h32.33.324579 -0500,
79,79,0,filler_square,None,None,None,None,None,None,None,None,None,None,2,0.9186859130859375,None,,,,,0,0,0,0,0,79,79,183,196.66519856452942,,,,,,,,,,,,,,,,,,,,,,,,,,,,,,,,,,,,,,,,,,,,,,,,,,,,,,,,,,,,,,,,,,,,,,,,,,,,,,,,,121.36012930954068,121.54013615261114,199.02339556915015,199.02339556915015,119.25757117095881,140.67563805576862,4.0,4.1,-256,-267,0,-19,266,-274,196.64596104621887,196.6460874080658,196.64936137199402,196.66519856452942,196.80126905441284,196.80126905441284,196.80126905441284,196.80126905441284,196.80126905441284,196.80126905441284,196.80126905441284,197.6032211780548,2,0.9186859130859375,None,,,,,,,,,,,,,,,,,,141,2,2025-02-27_10h32.21.258,comp,2024.2.4,57.56353969524003,2025-02-27 10h32.33.324579 -0500,
80,80,0,critical,whd,35.0,2.1,lower,57.0,133.0,133.0,57.0,70.0,70.0,2,2.1393043994903564,None,,,,,0,0,0,0,0,80,80,36,197.62129616737366,,,,,,,,,,,,,,,,,,,,,,,,,,,,,,,,,,,,,,,,,,,,,,,,,,,,,,,,,,,,,,,,,,,,,,,,,,,,,,,,,57.0,133.0,133.0,57.0,70.0,70.0,2.1,2.12,-191,-257,0,-280,160,271,197.60493850708008,197.605051279068,197.60846185684204,197.62129616737366,197.76681065559387,197.76681065559387,197.76681065559387,197.76681065559387,197.76681065559387,197.76681065559387,197.76681065559387,199.76956129074097,2,2.1393043994903564,None,,,,,,,,,,,,,,,,,,141,2,2025-02-27_10h32.21.258,comp,2024.2.4,57.56353969524003,2025-02-27 10h32.33.324579 -0500,
81,81,0,critical,wdh,35.0,4.0,upper,125.0,200.0,127.0,127.0,200.0,125.0,3,2.3491690158843994,None,,,,,0,0,0,0,0,81,81,77,199.78670406341553,,,,,,,,,,,,,,,,,,,,,,,,,,,,,,,,,,,,,,,,,,,,,,,,,,,,,,,,,,,,,,,,,,,,,,,,,,,,,,,,,125.0,200.0,127.0,127.0,200.0,125.0,4.0,4.1,-260,-278,0,-18,222,-255,199.77125477790833,199.77133321762085,199.7748577594757,199.78670406341553,199.93567037582397,199.93567037582397,199.93567037582397,199.93567037582397,199.93567037582397,199.93567037582397,199.93567037582397,202.14904713630676,3,2.3491690158843994,None,,,,,,,,,,,,,,,,,,141,2,2025-02-27_10h32.21.258,comp,2024.2.4,57.56353969524003,2025-02-27 10h32.33.324579 -0500,
82,82,0,critical,hwd,20.0,2.1,upper,200.0,125.0,125.0,200.0,141.0,141.0,1,0.9317526817321777,None,,,,,0,0,0,0,0,82,82,43,202.16473627090454,,,,,,,,,,,,,,,,,,,,,,,,,,,,,,,,,,,,,,,,,,,,,,,,,,,,,,,,,,,,,,,,,,,,,,,,,,,,,,,,,200.0,125.0,125.0,200.0,141.0,141.0,2.1,2.12,-258,-264,0,-278,266,255,202.15049171447754,202.1505687236786,202.1535427570343,202.16473627090454,202.32837963104248,202.32837963104248,202.32837963104248,202.32837963104248,202.32837963104248,202.32837963104248,202.32837963104248,203.10131812095642,1,0.9317526817321777,None,,,,,,,,,,,,,,,,,,141,2,2025-02-27_10h32.21.258,comp,2024.2.4,57.56353969524003,2025-02-27 10h32.33.324579 -0500,
83,83,0,filler_square,None,None,None,None,None,None,None,None,None,None,2,1.3147366046905518,None,,,,,0,0,0,0,0,83,83,189,203.11745977401733,,,,,,,,,,,,,,,,,,,,,,,,,,,,,,,,,,,,,,,,,,,,,,,,,,,,,,,,,,,,,,,,,,,,,,,,,,,,,,,,,149.40220575832493,149.40220575832493,137.93939780089886,132.32137183815516,121.79016879344078,62.505087296990226,1.0,1.1,-717,281,-480,260,-287,286,203.10306406021118,203.10313963890076,203.10632514953613,203.11745977401733,203.27112746238708,203.27112746238708,203.27112746238708,203.27112746238708,203.27112746238708,203.27112746238708,203.27112746238708,204.43463325500488,2,1.3147366046905518,None,,,,,,,,,,,,,,,,,,141,2,2025-02-27_10h32.21.258,comp,2024.2.4,57.56353969524003,2025-02-27 10h32.33.324579 -0500,
84,84,0,filler_square,None,None,None,None,None,None,None,None,None,None,1,2.2206239700317383,None,,,,,0,0,0,0,0,84,84,174,204.45142579078674,,,,,,,,,,,,,,,,,,,,,,,,,,,,,,,,,,,,,,,,,,,,,,,,,,,,,,,,,,,,,,,,,,,,,,,,,,,,,,,,,59.04377213463151,59.36211917436042,61.85156536189762,61.85156536189762,57.0882908592147,58.72344738113687,2.1,2.12,-157,-260,0,-259,156,280,204.43643522262573,204.4365110397339,204.4396357536316,204.45142579078674,204.60379576683044,204.60379576683044,204.60379576683044,204.60379576683044,204.60379576683044,204.60379576683044,204.60379576683044,206.67415809631348,1,2.2206239700317383,None,,,,,,,,,,,,,,,,,,141,2,2025-02-27_10h32.21.258,comp,2024.2.4,57.56353969524003,2025-02-27 10h32.33.324579 -0500,
85,85,0,critical,hwd,20.0,3.0,lower,133.0,57.0,57.0,133.0,78.0,78.0,2,2.6662838459014893,None,,,,,0,0,0,0,0,85,85,104,206.69510436058044,,,,,,,,,,,,,,,,,,,,,,,,,,,,,,,,,,,,,,,,,,,,,,,,,,,,,,,,,,,,,,,,,,,,,,,,,,,,,,,,,133.0,57.0,57.0,133.0,78.0,78.0,3.0,3.1,-191,259,0,-11,202,-254,206.67599368095398,206.67612671852112,206.67926168441772,206.69510436058044,206.83661103248596,206.83661103248596,206.83661103248596,206.83661103248596,206.83661103248596,206.83661103248596,206.83661103248596,209.370299577713,2,2.6662838459014893,None,,,,,,,,,,,,,,,,,,141,2,2025-02-27_10h32.21.258,comp,2024.2.4,57.56353969524003,2025-02-27 10h32.33.324579 -0500,
86,86,0,critical,wdh,35.0,4.0,lower,57.0,133.0,70.0,70.0,133.0,57.0,3,2.4206881523132324,None,,,,,0,0,0,0,0,86,86,76,209.3873028755188,,,,,,,,,,,,,,,,,,,,,,,,,,,,,,,,,,,,,,,,,,,,,,,,,,,,,,,,,,,,,,,,,,,,,,,,,,,,,,,,,57.0,133.0,70.0,70.0,133.0,57.0,4.0,4.1,-198,-258,0,-17,160,-275,209.37186312675476,209.37193894386292,209.3751494884491,209.3873028755188,209.5390019416809,209.5390019416809,209.5390019416809,209.5390019416809,209.5390019416809,209.5390019416809,209.5390019416809,211.82294368743896,3,2.4206881523132324,None,,,,,,,,,,,,,,,,,,141,2,2025-02-27_10h32.21.258,comp,2024.2.4,57.56353969524003,2025-02-27 10h32.33.324579 -0500,
87,87,0,catch,None,None,None,None,None,None,None,None,None,None,1,1.7848000526428223,None,,,,,0,0,0,0,0,87,87,120,211.838937997818,,,,,,,,,,,,,,,,,,,,,,,,,,,,,,,,,,,,,,,,,,,,,,,,,,,,,,,,,,,,,,,,,,,,,,,,,,,,,,,,,177,148,65,125,70,120,2.1,2.12,-232,-268,0,-277,218,289,211.82481598854065,211.82491850852966,211.8280746936798,211.838937997818,211.99364709854126,211.99364709854126,211.99364709854126,211.99364709854126,211.99364709854126,211.99364709854126,211.99364709854126,213.63585758209229,1,1.7848000526428223,None,,,,,,,,,,,,,,,,,,141,2,2025-02-27_10h32.21.258,comp,2024.2.4,57.56353969524003,2025-02-27 10h32.33.324579 -0500,
88,88,0,critical,hdw,35.0,3.0,lower,133.0,57.0,70.0,70.0,57.0,133.0,3,1.451244831085205,None,,,,,0,0,0,0,0,88,88,110,213.65283846855164,,,,,,,,,,,,,,,,,,,,,,,,,,,,,,,,,,,,,,,,,,,,,,,,,,,,,,,,,,,,,,,,,,,,,,,,,,,,,,,,,133.0,57.0,70.0,70.0,57.0,133.0,3.0,3.1,-160,258,0,-8,198,-288,213.6373782157898,213.63745379447937,213.64123606681824,213.65283846855164,213.81046152114868,213.81046152114868,213.81046152114868,213.81046152114868,213.81046152114868,213.81046152114868,213.81046152114868,215.10656642913818,3,1.451244831085205,None,,,,,,,,,,,,,,,,,,141,2,2025-02-27_10h32.21.258,comp,2024.2.4,57.56353969524003,2025-02-27 10h32.33.324579 -0500,
89,89,0,critical,dhw,20.0,4.0,lower,78.0,78.0,133.0,57.0,57.0,133.0,3,1.6453487873077393,None,,,,,0,0,0,0,0,89,89,58,215.12417316436768,,,,,,,,,,,,,,,,,,,,,,,,,,,,,,,,,,,,,,,,,,,,,,,,,,,,,,,,,,,,,,,,,,,,,,,,,,,,,,,,,78.0,78.0,133.0,57.0,57.0,133.0,4.0,4.2,-164,4,0,-280,191,18,215.10815477371216,215.10823154449463,215.11124467849731,215.12417316436768,215.2725043296814,215.2725043296814,215.2725043296814,215.2725043296814,215.2725043296814,215.2725043296814,215.2725043296814,216.7799768447876,3,1.6453487873077393,None,,,,,,,,,,,,,,,,,,141,2,2025-02-27_10h32.21.258,comp,2024.2.4,57.56353969524003,2025-02-27 10h32.33.324579 -0500,
90,90,0,critical,dwh,20.0,4.0,upper,141.0,141.0,125.0,200.0,200.0,125.0,3,1.6446938514709473,None,,,,,0,0,0,0,0,90,90,71,216.7962794303894,,,,,,,,,,,,,,,,,,,,,,,,,,,,,,,,,,,,,,,,,,,,,,,,,,,,,,,,,,,,,,,,,,,,,,,,,,,,,,,,,141.0,141.0,125.0,200.0,200.0,125.0,4.0,4.2,-266,6,0,-252,258,16,216.78181171417236,216.7819459438324,216.7852168083191,216.7962794303894,216.93963265419006,216.93963265419006,216.93963265419006,216.93963265419006,216.93963265419006,216.93963265419006,216.93963265419006,218.45933556556702,3,1.6446938514709473,None,,,,,,,,,,,,,,,,,,141,2,2025-02-27_10h32.21.258,comp,2024.2.4,57.56353969524003,2025-02-27 10h32.33.324579 -0500,
91,91,0,filler_square,None,None,None,None,None,None,None,None,None,None,3,1.5167806148529053,None,,,,,0,0,0,0,0,91,91,173,218.47637033462524,,,,,,,,,,,,,,,,,,,,,,,,,,,,,,,,,,,,,,,,,,,,,,,,,,,,,,,,,,,,,,,,,,,,,,,,,,,,,,,,,75.35839869799504,145.6101640588703,114.38588648792899,136.14528596244747,148.7389269981416,148.7389269981416,2.1,2.11,-237,288,0,251,238,-261,218.46125054359436,218.4613254070282,218.4649214744568,218.47637033462524,218.62379598617554,218.62379598617554,218.62379598617554,218.62379598617554,218.62379598617554,218.62379598617554,218.62379598617554,220.00961232185364,3,1.5167806148529053,None,,,,,,,,,,,,,,,,,,141,2,2025-02-27_10h32.21.258,comp,2024.2.4,57.56353969524003,2025-02-27 10h32.33.324579 -0500,
92,92,0,filler_square,None,None,None,None,None,None,None,None,None,None,3,3.4716553688049316,None,,,,,0,0,0,0,0,92,92,177,220.02564644813538,,,,,,,,,,,,,,,,,,,,,,,,,,,,,,,,,,,,,,,,,,,,,,,,,,,,,,,,,,,,,,,,,,,,,,,,,,,,,,,,,57.68610993355887,57.68610993355887,57.47889058573146,57.408947100147984,57.131050140367876,57.42796095595562,2.2,2.21,-154,-271,0,251,153,266,220.01148176193237,220.01155972480774,220.01479029655457,220.02564644813538,220.18449902534485,220.18449902534485,220.18449902534485,220.18449902534485,220.18449902534485,220.18449902534485,220.18449902534485,223.5161509513855,3,3.4716553688049316,None,,,,,,,,,,,,,,,,,,141,2,2025-02-27_10h32.21.258,comp,2024.2.4,57.56353969524003,2025-02-27 10h32.33.324579 -0500,
93,93,0,critical,whd,35.0,2.1,upper,125.0,200.0,200.0,125.0,127.0,127.0,2,3.642786979675293,None,,,,,0,0,0,0,0,93,93,37,223.53326272964478,,,,,,,,,,,,,,,,,,,,,,,,,,,,,,,,,,,,,,,,,,,,,,,,,,,,,,,,,,,,,,,,,,,,,,,,,,,,,,,,,125.0,200.0,200.0,125.0,127.0,127.0,2.1,2.11,-258,279,0,268,222,-266,223.51760363578796,223.5176773071289,223.5205533504486,223.53326272964478,223.6776716709137,223.6776716709137,223.6776716709137,223.6776716709137,223.6776716709137,223.6776716709137,223.6776716709137,227.18125987052917,2,3.642786979675293,None,,,,,,,,,,,,,,,,,,141,2,2025-02-27_10h32.21.258,comp,2024.2.4,57.56353969524003,2025-02-27 10h32.33.324579 -0500,
94,94,0,critical,whd,35.0,3.0,lower,57.0,133.0,133.0,57.0,70.0,70.0,2,1.6198937892913818,None,,,,,0,0,0,0,0,94,94,86,227.196923494339,,,,,,,,,,,,,,,,,,,,,,,,,,,,,,,,,,,,,,,,,,,,,,,,,,,,,,,,,,,,,,,,,,,,,,,,,,,,,,,,,57.0,133.0,133.0,57.0,70.0,70.0,3.0,3.1,-191,255,0,-4,160,-259,227.18270254135132,227.18280053138733,227.18606805801392,227.196923494339,227.34619283676147,227.34619283676147,227.34619283676147,227.34619283676147,227.34619283676147,227.34619283676147,227.34619283676147,228.82737016677856,2,1.6198937892913818,None,,,,,,,,,,,,,,,,,,141,2,2025-02-27_10h32.21.258,comp,2024.2.4,57.56353969524003,2025-02-27 10h32.33.324579 -0500,
95,95,0,critical,wdh,20.0,3.0,lower,57.0,133.0,78.0,78.0,133.0,57.0,3,1.360297679901123,None,,,,,0,0,0,0,0,95,95,80,228.8476836681366,,,,,,,,,,,,,,,,,,,,,,,,,,,,,,,,,,,,,,,,,,,,,,,,,,,,,,,,,,,,,,,,,,,,,,,,,,,,,,,,,57.0,133.0,78.0,78.0,133.0,57.0,3.0,3.1,-202,261,0,13,164,-260,228.82883739471436,228.82891511917114,228.83283948898315,228.8476836681366,228.99479341506958,228.99479341506958,228.99479341506958,228.99479341506958,228.99479341506958,228.99479341506958,228.99479341506958,230.2110197544098,3,1.360297679901123,None,,,,,,,,,,,,,,,,,,141,2,2025-02-27_10h32.21.258,comp,2024.2.4,57.56353969524003,2025-02-27 10h32.33.324579 -0500,
96,96,0,critical,wdh,20.0,4.0,lower,57.0,133.0,78.0,78.0,133.0,57.0,1,2.025822401046753,None,,,,,0,0,0,0,0,96,96,82,230.23035526275635,,,,,,,,,,,,,,,,,,,,,,,,,,,,,,,,,,,,,,,,,,,,,,,,,,,,,,,,,,,,,,,,,,,,,,,,,,,,,,,,,57.0,133.0,78.0,78.0,133.0,57.0,4.0,4.2,-202,12,0,-258,164,-19,230.2124786376953,230.2125542163849,230.21544456481934,230.23035526275635,230.38007807731628,230.38007807731628,230.38007807731628,230.38007807731628,230.38007807731628,230.38007807731628,230.38007807731628,232.26044917106628,1,2.025822401046753,None,,,,,,,,,,,,,,,,,,141,2,2025-02-27_10h32.21.258,comp,2024.2.4,57.56353969524003,2025-02-27 10h32.33.324579 -0500,
97,97,0,filler_random,None,None,None,None,None,None,None,None,None,None,2,2.4672200679779053,None,,,,,0,0,0,0,0,97,97,160,232.27697896957397,,,,,,,,,,,,,,,,,,,,,,,,,,,,,,,,,,,,,,,,,,,,,,,,,,,,,,,,,,,,,,,,,,,,,,,,,,,,,,,,,107.33200488196269,106.45213993580589,122.19382783324231,151.04956621688376,88.23308547811797,138.32458172348208,1.0,1.1,-705,285,-480,288,-239,262,232.2623529434204,232.26242995262146,232.26589798927307,232.27697896957397,232.42879962921143,232.42879962921143,232.42879962921143,232.42879962921143,232.42879962921143,232.42879962921143,232.42879962921143,234.76480960845947,2,2.4672200679779053,None,,,,,,,,,,,,,,,,,,141,2,2025-02-27_10h32.21.258,comp,2024.2.4,57.56353969524003,2025-02-27 10h32.33.324579 -0500,
98,98,0,filler_random,None,None,None,None,None,None,None,None,None,None,3,2.3295369148254395,None,,,,,0,0,0,0,0,98,98,131,234.7829728126526,,,,,,,,,,,,,,,,,,,,,,,,,,,,,,,,,,,,,,,,,,,,,,,,,,,,,,,,,,,,,,,,,,,,,,,,,,,,,,,,,127.23691598202244,70.97309751137028,102.46289506466326,124.31262399140364,117.83569656400834,185.86679408936797,2.1,2.11,-194,260,0,263,251,-264,234.7666563987732,234.76677560806274,234.76981687545776,234.7829728126526,234.9293990135193,234.9293990135193,234.9293990135193,234.9293990135193,234.9293990135193,234.9293990135193,234.9293990135193,237.12915563583374,3,2.3295369148254395,None,,,,,,,,,,,,,,,,,,141,2,2025-02-27_10h32.21.258,comp,2024.2.4,57.56353969524003,2025-02-27 10h32.33.324579 -0500,
99,99,0,critical,hdw,35.0,1.0,upper,200.0,125.0,127.0,127.0,125.0,200.0,3,1.6152961254119873,None,,,,,0,0,0,0,0,99,99,109,237.1445460319519,,,,,,,,,,,,,,,,,,,,,,,,,,,,,,,,,,,,,,,,,,,,,,,,,,,,,,,,,,,,,,,,,,,,,,,,,,,,,,,,,200.0,125.0,127.0,127.0,125.0,200.0,1.0,1.2,-222,-15,0,19,260,18,237.13072681427002,237.13080763816833,237.13414478302002,237.1445460319519,237.29675149917603,237.29675149917603,237.29675149917603,237.29675149917603,237.29675149917603,237.29675149917603,237.29675149917603,238.7633810043335,3,1.6152961254119873,None,,,,,,,,,,,,,,,,,,141,2,2025-02-27_10h32.21.258,comp,2024.2.4,57.56353969524003,2025-02-27 10h32.33.324579 -0500,
100,100,0,critical,dhw,20.0,2.1,upper,141.0,141.0,200.0,125.0,125.0,200.0,3,1.877981424331665,None,,,,,0,0,0,0,0,100,100,3,238.77896404266357,,,,,,,,,,,,,,,,,,,,,,,,,,,,,,,,,,,,,,,,,,,,,,,,,,,,,,,,,,,,,,,,,,,,,,,,,,,,,,,,,141.0,141.0,200.0,125.0,125.0,200.0,2.1,2.11,-229,254,0,290,258,-269,238.76487112045288,238.7649643421173,238.76811051368713,238.77896404266357,238.93668460845947,238.93668460845947,238.93668460845947,238.93668460845947,238.93668460845947,238.93668460845947,238.93668460845947,240.663640499115,3,1.877981424331665,None,,,,,,,,,,,,,,,,,,141,2,2025-02-27_10h32.21.258,comp,2024.2.4,57.56353969524003,2025-02-27 10h32.33.324579 -0500,
101,101,0,critical,wdh,20.0,2.1,lower,57.0,133.0,78.0,78.0,133.0,57.0,1,2.687950372695923,None,,,,,0,0,0,0,0,101,101,10,240.68041968345642,,,,,,,,,,,,,,,,,,,,,,,,,,,,,,,,,,,,,,,,,,,,,,,,,,,,,,,,,,,,,,,,,,,,,,,,,,,,,,,,,57.0,133.0,78.0,78.0,133.0,57.0,2.1,2.11,-202,285,0,277,164,-257,240.665265083313,240.66534042358398,240.66862440109253,240.68041968345642,240.83343386650085,240.83343386650085,240.83343386650085,240.83343386650085,240.83343386650085,240.83343386650085,240.83343386650085,243.3869173526764,1,2.687950372695923,None,,,,,,,,,,,,,,,,,,141,2,2025-02-27_10h32.21.258,comp,2024.2.4,57.56353969524003,2025-02-27 10h32.33.324579 -0500,
102,102,0,critical,hdw,20.0,4.0,upper,200.0,125.0,141.0,141.0,125.0,200.0,3,1.363889455795288,None,,,,,0,0,0,0,0,102,102,119,243.40410232543945,,,,,,,,,,,,,,,,,,,,,,,,,,,,,,,,,,,,,,,,,,,,,,,,,,,,,,,,,,,,,,,,,,,,,,,,,,,,,,,,,200.0,125.0,141.0,141.0,125.0,200.0,4.0,4.1,-229,-283,0,-5,266,-260,243.38840436935425,243.38847827911377,243.3913824558258,243.40410232543945,243.54784297943115,243.54784297943115,243.54784297943115,243.54784297943115,243.54784297943115,243.54784297943115,243.54784297943115,244.78210616111755,3,1.363889455795288,None,,,,,,,,,,,,,,,,,,141,2,2025-02-27_10h32.21.258,comp,2024.2.4,57.56353969524003,2025-02-27 10h32.33.324579 -0500,
103,103,0,filler_random,None,None,None,None,None,None,None,None,None,None,2,1.6420011520385742,None,,,,,0,0,0,0,0,103,103,164,244.7979278564453,,,,,,,,,,,,,,,,,,,,,,,,,,,,,,,,,,,,,,,,,,,,,,,,,,,,,,,,,,,,,,,,,,,,,,,,,,,,,,,,,58.07456043803742,197.6544238630322,73.8930918988961,128.97094258800684,110.44456496331992,117.71658577061316,4.0,4.2,-259,-12,0,-265,219,-9,244.78386926651,244.7839846611023,244.787428855896,244.7979278564453,244.952312707901,244.952312707901,244.952312707901,244.952312707901,244.952312707901,244.952312707901,244.952312707901,246.4498643875122,2,1.6420011520385742,None,,,,,,,,,,,,,,,,,,141,2,2025-02-27_10h32.21.258,comp,2024.2.4,57.56353969524003,2025-02-27 10h32.33.324579 -0500,
104,104,0,filler_square,None,None,None,None,None,None,None,None,None,None,3,2.5583505630493164,None,,,,,0,0,0,0,0,104,104,193,246.46557092666626,,,,,,,,,,,,,,,,,,,,,,,,,,,,,,,,,,,,,,,,,,,,,,,,,,,,,,,,,,,,,,,,,,,,,,,,,,,,,,,,,94.92920102256623,63.11512443297475,70.55959510412055,58.01441168090529,125.41199077940226,125.41199077940226,1.0,1.1,-637,288,-480,260,-292,271,246.4515814781189,246.45165634155273,246.45474886894226,246.46557092666626,246.6190721988678,246.6190721988678,246.6190721988678,246.6190721988678,246.6190721988678,246.6190721988678,246.6190721988678,249.04187035560608,3,2.5583505630493164,None,,,,,,,,,,,,,,,,,,141,2,2025-02-27_10h32.21.258,comp,2024.2.4,57.56353969524003,2025-02-27 10h32.33.324579 -0500,
105,105,0,filler_square,None,None,None,None,None,None,None,None,None,None,1,2.1084678173065186,None,,,,,0,0,0,0,0,105,105,179,249.05944180488586,,,,,,,,,,,,,,,,,,,,,,,,,,,,,,,,,,,,,,,,,,,,,,,,,,,,,,,,,,,,,,,,,,,,,,,,,,,,,,,,,108.2795388848107,108.2795388848107,105.59596716971724,101.4380483359634,83.6152149733017,84.07075381543723,3.0,3.2,-201,-273,0,-12,189,267,249.0436508655548,249.0437548160553,249.0466697216034,249.05944180488586,249.2052080631256,249.2052080631256,249.2052080631256,249.2052080631256,249.2052080631256,249.2052080631256,249.2052080631256,251.18348574638367,1,2.1084678173065186,None,,,,,,,,,,,,,,,,,,141,2,2025-02-27_10h32.21.258,comp,2024.2.4,57.56353969524003,2025-02-27 10h32.33.324579 -0500,
106,106,0,filler_random,None,None,None,None,None,None,None,None,None,None,2,1.760319471359253,None,,,,,0,0,0,0,0,106,106,152,251.19998812675476,,,,,,,,,,,,,,,,,,,,,,,,,,,,,,,,,,,,,,,,,,,,,,,,,,,,,,,,,,,,,,,,,,,,,,,,,,,,,,,,,120.78155691151693,130.78119976686878,106.84833943462166,172.67822481204956,94.69683923445072,125.44369065360124,3.0,3.2,-248,-287,0,15,245,268,251.18524527549744,251.1853518486023,251.1886270046234,251.19998812675476,251.35482788085938,251.35482788085938,251.35482788085938,251.35482788085938,251.35482788085938,251.35482788085938,251.35482788085938,252.97217106819153,2,1.760319471359253,None,,,,,,,,,,,,,,,,,,141,2,2025-02-27_10h32.21.258,comp,2024.2.4,57.56353969524003,2025-02-27 10h32.33.324579 -0500,
107,107,0,filler_square,None,None,None,None,None,None,None,None,None,None,1,1.5513970851898193,None,,,,,0,0,0,0,0,107,107,184,252.99330949783325,,,,,,,,,,,,,,,,,,,,,,,,,,,,,,,,,,,,,,,,,,,,,,,,,,,,,,,,,,,,,,,,,,,,,,,,,,,,,,,,,192.52801615259236,192.52801615259236,175.41966090624206,101.16616439587875,176.088104990523,97.90316773384096,2.1,2.12,-243,-280,0,-279,196,285,252.9744589328766,252.97453713417053,252.97750735282898,252.99330949783325,253.13718032836914,253.13718032836914,253.13718032836914,253.13718032836914,253.13718032836914,253.13718032836914,253.13718032836914,254.55221724510193,1,1.5513970851898193,None,,,,,,,,,,,,,,,,,,141,2,2025-02-27_10h32.21.258,comp,2024.2.4,57.56353969524003,2025-02-27 10h32.33.324579 -0500,
108,108,0,filler_square,None,None,None,None,None,None,None,None,None,None,3,1.1474802494049072,None,,,,,0,0,0,0,0,108,108,199,254.57260251045227,,,,,,,,,,,,,,,,,,,,,,,,,,,,,,,,,,,,,,,,,,,,,,,,,,,,,,,,,,,,,,,,,,,,,,,,,,,,,,,,,138.78156096978728,82.34387592204169,124.66119267488727,85.42334102742178,142.7958742099035,142.7958742099035,1.0,1.3,300,-250,480,-286,690,-281,254.55420637130737,254.55428433418274,254.55773091316223,254.57260251045227,254.72079062461853,254.72079062461853,254.72079062461853,254.72079062461853,254.72079062461853,254.72079062461853,254.72079062461853,255.7362298965454,3,1.1474802494049072,None,,,,,,,,,,,,,,,,,,141,2,2025-02-27_10h32.21.258,comp,2024.2.4,57.56353969524003,2025-02-27 10h32.33.324579 -0500,
109,109,0,filler_square,None,None,None,None,None,None,None,None,None,None,2,1.3731119632720947,None,,,,,0,0,0,0,0,109,109,185,255.7556335926056,,,,,,,,,,,,,,,,,,,,,,,,,,,,,,,,,,,,,,,,,,,,,,,,,,,,,,,,,,,,,,,,,,,,,,,,,,,,,,,,,65.58048955794136,71.37736950327862,81.55047591380597,81.55047591380597,60.01115702651776,64.57238203309102,2.2,2.21,-172,-267,0,280,169,270,255.7382321357727,255.7383086681366,255.7421896457672,255.7556335926056,255.90812039375305,255.90812039375305,255.90812039375305,255.90812039375305,255.90812039375305,255.90812039375305,255.90812039375305,257.1341919898987,2,1.3731119632720947,None,,,,,,,,,,,,,,,,,,141,2,2025-02-27_10h32.21.258,comp,2024.2.4,57.56353969524003,2025-02-27 10h32.33.324579 -0500,
110,110,0,critical,hwd,35.0,2.1,lower,133.0,57.0,57.0,133.0,70.0,70.0,1,1.5458276271820068,None,,,,,0,0,0,0,0,110,110,40,257.15075635910034,,,,,,,,,,,,,,,,,,,,,,,,,,,,,,,,,,,,,,,,,,,,,,,,,,,,,,,,,,,,,,,,,,,,,,,,,,,,,,,,,133.0,57.0,57.0,133.0,70.0,70.0,2.1,2.12,-191,-272,0,-279,198,281,257.13573241233826,257.1358118057251,257.13879656791687,257.15075635910034,257.2910165786743,257.2910165786743,257.2910165786743,257.2910165786743,257.2910165786743,257.2910165786743,257.2910165786743,258.701297044754,1,1.5458276271820068,None,,,,,,,,,,,,,,,,,,141,2,2025-02-27_10h32.21.258,comp,2024.2.4,57.56353969524003,2025-02-27 10h32.33.324579 -0500,
111,111,0,critical,hwd,20.0,1.0,upper,200.0,125.0,125.0,200.0,141.0,141.0,2,2.7548444271087646,None,,,,,0,0,0,0,0,111,111,103,258.7170236110687,,,,,,,,,,,,,,,,,,,,,,,,,,,,,,,,,,,,,,,,,,,,,,,,,,,,,,,,,,,,,,,,,,,,,,,,,,,,,,,,,200.0,125.0,125.0,200.0,141.0,141.0,1.0,1.1,-738,268,-480,262,-214,258,258.7028019428253,258.7028777599335,258.7058050632477,258.7170236110687,258.8708472251892,258.8708472251892,258.8708472251892,258.8708472251892,258.8708472251892,258.8708472251892,258.8708472251892,261.48706340789795,2,2.7548444271087646,None,,,,,,,,,,,,,,,,,,141,2,2025-02-27_10h32.21.258,comp,2024.2.4,57.56353969524003,2025-02-27 10h32.33.324579 -0500,
112,112,0,critical,hdw,20.0,1.0,lower,133.0,57.0,78.0,78.0,57.0,133.0,3,1.4496550559997559,None,,,,,0,0,0,0,0,112,112,114,261.5026571750641,,,,,,,,,,,,,,,,,,,,,,,,,,,,,,,,,,,,,,,,,,,,,,,,,,,,,,,,,,,,,,,,,,,,,,,,,,,,,,,,,133.0,57.0,78.0,78.0,57.0,133.0,1.0,1.3,316,-273,480,-281,682,-288,261.4887752532959,261.4889078140259,261.49218797683716,261.5026571750641,261.6557309627533,261.6557309627533,261.6557309627533,261.6557309627533,261.6557309627533,261.6557309627533,261.6557309627533,262.97025966644287,3,1.4496550559997559,None,,,,,,,,,,,,,,,,,,141,2,2025-02-27_10h32.21.258,comp,2024.2.4,57.56353969524003,2025-02-27 10h32.33.324579 -0500,
113,113,0,catch,None,None,None,None,None,None,None,None,None,None,2,1.0374290943145752,None,,,,,0,0,0,0,0,113,113,126,262.98646235466003,,,,,,,,,,,,,,,,,,,,,,,,,,,,,,,,,,,,,,,,,,,,,,,,,,,,,,,,,,,,,,,,,,,,,,,,,,,,,,,,,74,116,155,170,111,79,1.0,1.2,-239,-9,0,16,220,4,262.9720780849457,262.9721529483795,262.9753875732422,262.98646235466003,263.142117023468,263.142117023468,263.142117023468,263.142117023468,263.142117023468,263.142117023468,263.142117023468,264.0427906513214,2,1.0374290943145752,None,,,,,,,,,,,,,,,,,,141,2,2025-02-27_10h32.21.258,comp,2024.2.4,57.56353969524003,2025-02-27 10h32.33.324579 -0500,
114,114,0,critical,whd,20.0,1.0,lower,57.0,133.0,133.0,57.0,78.0,78.0,1,1.788403034210205,None,,,,,0,0,0,0,0,114,114,90,264.0600206851959,,,,,,,,,,,,,,,,,,,,,,,,,,,,,,,,,,,,,,,,,,,,,,,,,,,,,,,,,,,,,,,,,,,,,,,,,,,,,,,,,57.0,133.0,133.0,57.0,78.0,78.0,1.0,1.1,-671,274,-480,270,-316,286,264.0443012714386,264.04437708854675,264.0472836494446,264.0600206851959,264.2051510810852,264.2051510810852,264.2051510810852,264.2051510810852,264.2051510810852,264.2051510810852,264.2051510810852,265.8553366661072,1,1.788403034210205,None,,,,,,,,,,,,,,,,,,141,2,2025-02-27_10h32.21.258,comp,2024.2.4,57.56353969524003,2025-02-27 10h32.33.324579 -0500,
115,115,0,critical,dhw,20.0,2.1,upper,141.0,141.0,200.0,125.0,125.0,200.0,3,2.328427791595459,None,,,,,0,0,0,0,0,115,115,27,265.8718430995941,,,,,,,,,,,,,,,,,,,,,,,,,,,,,,,,,,,,,,,,,,,,,,,,,,,,,,,,,,,,,,,,,,,,,,,,,,,,,,,,,141.0,141.0,200.0,125.0,125.0,200.0,2.1,2.12,-229,-277,0,-260,258,262,265.8568937778473,265.8569962978363,265.86066365242004,265.8718430995941,266.02077531814575,266.02077531814575,266.02077531814575,266.02077531814575,266.02077531814575,266.02077531814575,266.02077531814575,268.2044131755829,3,2.328427791595459,None,,,,,,,,,,,,,,,,,,141,2,2025-02-27_10h32.21.258,comp,2024.2.4,57.56353969524003,2025-02-27 10h32.33.324579 -0500,
116,116,0,filler_square,None,None,None,None,None,None,None,None,None,None,2,0.9470138549804688,None,,,,,0,0,0,0,0,116,116,195,268.22140979766846,,,,,,,,,,,,,,,,,,,,,,,,,,,,,,,,,,,,,,,,,,,,,,,,,,,,,,,,,,,,,,,,,,,,,,,,,,,,,,,,,132.68977666002033,87.2263279019984,181.81624480664607,181.81624480664607,79.20592740648239,73.16144623813135,4.0,4.1,-231,-286,0,-9,223,-254,268.2062542438507,268.206383228302,268.2096073627472,268.22140979766846,268.37258315086365,268.37258315086365,268.37258315086365,268.37258315086365,268.37258315086365,268.37258315086365,268.37258315086365,269.1742458343506,2,0.9470138549804688,None,,,,,,,,,,,,,,,,,,141,2,2025-02-27_10h32.21.258,comp,2024.2.4,57.56353969524003,2025-02-27 10h32.33.324579 -0500,
117,117,0,filler_random,None,None,None,None,None,None,None,None,None,None,1,0.9129674434661865,None,,,,,0,0,0,0,0,117,117,166,269.19108390808105,,,,,,,,,,,,,,,,,,,,,,,,,,,,,,,,,,,,,,,,,,,,,,,,,,,,,,,,,,,,,,,,,,,,,,,,,,,,,,,,,151.37407768147008,134.14331916161564,125.7288934826944,98.5702938693002,64.06102677135458,117.55668838831708,3.0,3.2,-212,-259,0,-3,204,262,269.1760573387146,269.17616295814514,269.1795508861542,269.19108390808105,269.3404061794281,269.3404061794281,269.3404061794281,269.3404061794281,269.3404061794281,269.3404061794281,269.3404061794281,270.1066052913666,1,0.9129674434661865,None,,,,,,,,,,,,,,,,,,141,2,2025-02-27_10h32.21.258,comp,2024.2.4,57.56353969524003,2025-02-27 10h32.33.324579 -0500,
118,118,0,catch,None,None,None,None,None,None,None,None,None,None,2,0.9441921710968018,None,,,,,0,0,0,0,0,118,118,124,270.12268328666687,,,,,,,,,,,,,,,,,,,,,,,,,,,,,,,,,,,,,,,,,,,,,,,,,,,,,,,,,,,,,,,,,,,,,,,,,,,,,,,,,67,123,137,188,83,107,2.2,2.21,-252,-279,0,263,244,285,270.1085112094879,270.1085903644562,270.1119954586029,270.12268328666687,270.26999855041504,270.26999855041504,270.26999855041504,270.26999855041504,270.26999855041504,270.26999855041504,270.26999855041504,271.0725679397583,2,0.9441921710968018,None,,,,,,,,,,,,,,,,,,141,2,2025-02-27_10h32.21.258,comp,2024.2.4,57.56353969524003,2025-02-27 10h32.33.324579 -0500,
119,119,0,filler_random,None,None,None,None,None,None,None,None,None,None,3,0.8455643653869629,None,,,,,0,0,0,0,0,119,119,151,271.0905134677887,,,,,,,,,,,,,,,,,,,,,,,,,,,,,,,,,,,,,,,,,,,,,,,,,,,,,,,,,,,,,,,,,,,,,,,,,,,,,,,,,78.12944261362496,65.4794174404712,65.91637608226077,127.09650515745417,161.7959248365535,134.98268319383985,2.2,2.22,-192,250,0,-254,227,-277,271.074250459671,271.07432675361633,271.0774447917938,271.0905134677887,271.2397983074188,271.2397983074188,271.2397983074188,271.2397983074188,271.2397983074188,271.2397983074188,271.2397983074188,271.9412748813629,3,0.8455643653869629,None,,,,,,,,,,,,,,,,,,141,2,2025-02-27_10h32.21.258,comp,2024.2.4,57.56353969524003,2025-02-27 10h32.33.324579 -0500,
120,120,0,critical,dwh,35.0,1.0,lower,70.0,70.0,57.0,133.0,133.0,57.0,2,1.9764680862426758,None,,,,,0,0,0,0,0,120,120,60,271.95983600616455,,,,,,,,,,,,,,,,,,,,,,,,,,,,,,,,,,,,,,,,,,,,,,,,,,,,,,,,,,,,,,,,,,,,,,,,,,,,,,,,,70.0,70.0,57.0,133.0,133.0,57.0,1.0,1.3,282,-261,480,-259,671,-257,271.9427390098572,271.94282841682434,271.9464020729065,271.95983600616455,272.10818910598755,272.10818910598755,272.10818910598755,272.10818910598755,272.10818910598755,272.10818910598755,272.10818910598755,273.9396719932556,2,1.9764680862426758,None,,,,,,,,,,,,,,,,,,141,2,2025-02-27_10h32.21.258,comp,2024.2.4,57.56353969524003,2025-02-27 10h32.33.324579 -0500,
121,121,0,critical,wdh,35.0,3.0,upper,125.0,200.0,127.0,127.0,200.0,125.0,1,1.844829797744751,None,,,,,0,0,0,0,0,121,121,75,273.95605874061584,,,,,,,,,,,,,,,,,,,,,,,,,,,,,,,,,,,,,,,,,,,,,,,,,,,,,,,,,,,,,,,,,,,,,,,,,,,,,,,,,125.0,200.0,127.0,127.0,200.0,125.0,3.0,3.2,-260,-264,0,-20,222,253,273.9412000179291,273.9412775039673,273.9442837238312,273.95605874061584,274.0932865142822,274.0932865142822,274.0932865142822,274.0932865142822,274.0932865142822,274.0932865142822,274.0932865142822,275.809761762619,1,1.844829797744751,None,,,,,,,,,,,,,,,,,,141,2,2025-02-27_10h32.21.258,comp,2024.2.4,57.56353969524003,2025-02-27 10h32.33.324579 -0500,
122,122,0,critical,whd,35.0,3.0,upper,125.0,200.0,200.0,125.0,127.0,127.0,1,1.5180115699768066,None,,,,,0,0,0,0,0,122,122,87,275.82595705986023,,,,,,,,,,,,,,,,,,,,,,,,,,,,,,,,,,,,,,,,,,,,,,,,,,,,,,,,,,,,,,,,,,,,,,,,,,,,,,,,,125.0,200.0,200.0,125.0,127.0,127.0,3.0,3.2,-258,-260,0,-7,222,285,275.8113615512848,275.81146216392517,275.8149240016937,275.82595705986023,275.97552585601807,275.97552585601807,275.97552585601807,275.97552585601807,275.97552585601807,275.97552585601807,275.97552585601807,277.3480372428894,1,1.5180115699768066,None,,,,,,,,,,,,,,,,,,141,2,2025-02-27_10h32.21.258,comp,2024.2.4,57.56353969524003,2025-02-27 10h32.33.324579 -0500,
123,123,0,catch,None,None,None,None,None,None,None,None,None,None,2,1.4999654293060303,None,,,,,0,0,0,0,0,123,123,121,277.36585807800293,,,,,,,,,,,,,,,,,,,,,,,,,,,,,,,,,,,,,,,,,,,,,,,,,,,,,,,,,,,,,,,,,,,,,,,,,,,,,,,,,128,62,151,174,63,127,4.0,4.2,-214,12,0,-250,246,4,277.3499171733856,277.34999346733093,277.35291290283203,277.36585807800293,277.5081946849823,277.5081946849823,277.5081946849823,277.5081946849823,277.5081946849823,277.5081946849823,277.5081946849823,278.8763859272003,2,1.4999654293060303,None,,,,,,,,,,,,,,,,,,141,2,2025-02-27_10h32.21.258,comp,2024.2.4,57.56353969524003,2025-02-27 10h32.33.324579 -0500,
124,124,0,filler_random,None,None,None,None,None,None,None,None,None,None,1,1.6277542114257812,None,,,,,0,0,0,0,0,124,124,167,278.89255714416504,,,,,,,,,,,,,,,,,,,,,,,,,,,,,,,,,,,,,,,,,,,,,,,,,,,,,,,,,,,,,,,,,,,,,,,,,,,,,,,,,165.2616521671323,195.64084293762548,132.10598101733746,148.75418357061187,148.7002819331057,121.57512946149727,3.0,3.2,-268,-260,0,-5,231,275,278.8780233860016,278.87809896469116,278.8816261291504,278.89255714416504,279.0428161621094,279.0428161621094,279.0428161621094,279.0428161621094,279.0428161621094,279.0428161621094,279.0428161621094,280.52866315841675,1,1.6277542114257812,None,,,,,,,,,,,,,,,,,,141,2,2025-02-27_10h32.21.258,comp,2024.2.4,57.56353969524003,2025-02-27 10h32.33.324579 -0500,
125,125,0,filler_random,None,None,None,None,None,None,None,None,None,None,3,1.0865068435668945,None,,,,,0,0,0,0,0,125,125,162,280.5454125404358,,,,,,,,,,,,,,,,,,,,,,,,,,,,,,,,,,,,,,,,,,,,,,,,,,,,,,,,,,,,,,,,,,,,,,,,,,,,,,,,,82.7397087993016,65.60649195909275,91.14164585681661,113.24099062083168,155.57824666325615,64.12022856247495,1.0,1.2,-185,-14,0,1,185,8,280.530659198761,280.5307903289795,280.5345356464386,280.5454125404358,280.6966404914856,280.6966404914856,280.6966404914856,280.6966404914856,280.6966404914856,280.6966404914856,280.6966404914856,281.64202880859375,3,1.0865068435668945,None,,,,,,,,,,,,,,,,,,141,2,2025-02-27_10h32.21.258,comp,2024.2.4,57.56353969524003,2025-02-27 10h32.33.324579 -0500,
126,126,0,critical,wdh,35.0,1.0,lower,57.0,133.0,70.0,70.0,133.0,57.0,1,1.9257392883300781,None,,,,,0,0,0,0,0,126,126,72,281.6582489013672,,,,,,,,,,,,,,,,,,,,,,,,,,,,,,,,,,,,,,,,,,,,,,,,,,,,,,,,,,,,,,,,,,,,,,,,,,,,,,,,,57.0,133.0,70.0,70.0,133.0,57.0,1.0,1.2,-198,-12,0,14,160,3,281.6434223651886,281.6434965133667,281.64645195007324,281.6582489013672,281.7961947917938,281.7961947917938,281.7961947917938,281.7961947917938,281.7961947917938,281.7961947917938,281.7961947917938,283.59508299827576,1,1.9257392883300781,None,,,,,,,,,,,,,,,,,,141,2,2025-02-27_10h32.21.258,comp,2024.2.4,57.56353969524003,2025-02-27 10h32.33.324579 -0500,
127,127,0,catch,None,None,None,None,None,None,None,None,None,None,3,1.0772931575775146,None,,,,,0,0,0,0,0,127,127,128,283.611204624176,,,,,,,,,,,,,,,,,,,,,,,,,,,,,,,,,,,,,,,,,,,,,,,,,,,,,,,,,,,,,,,,,,,,,,,,,,,,,,,,,127,63,61,129,176,149,1.0,1.1,-672,253,-480,275,-245,286,283.59713339805603,283.5972309112549,283.60048389434814,283.611204624176,283.76717472076416,283.76717472076416,283.76717472076416,283.76717472076416,283.76717472076416,283.76717472076416,283.76717472076416,284.69534063339233,3,1.0772931575775146,None,,,,,,,,,,,,,,,,,,141,2,2025-02-27_10h32.21.258,comp,2024.2.4,57.56353969524003,2025-02-27 10h32.33.324579 -0500,
128,128,0,critical,wdh,20.0,1.0,lower,57.0,133.0,78.0,78.0,133.0,57.0,1,2.6161954402923584,None,,,,,0,0,0,0,0,128,128,78,284.7118811607361,,,,,,,,,,,,,,,,,,,,,,,,,,,,,,,,,,,,,,,,,,,,,,,,,,,,,,,,,,,,,,,,,,,,,,,,,,,,,,,,,57.0,133.0,78.0,78.0,133.0,57.0,1.0,1.1,-682,277,-480,251,-316,262,284.6969244480133,284.69700479507446,284.70105242729187,284.7118811607361,284.86527371406555,284.86527371406555,284.86527371406555,284.86527371406555,284.86527371406555,284.86527371406555,284.86527371406555,287.3345077037811,1,2.6161954402923584,None,,,,,,,,,,,,,,,,,,141,2,2025-02-27_10h32.21.258,comp,2024.2.4,57.56353969524003,2025-02-27 10h32.33.324579 -0500,
129,129,0,filler_square,None,None,None,None,None,None,None,None,None,None,1,4.4848246574401855,None,,,,,0,0,0,0,0,129,129,194,287.35568618774414,,,,,,,,,,,,,,,,,,,,,,,,,,,,,,,,,,,,,,,,,,,,,,,,,,,,,,,,,,,,,,,,,,,,,,,,,,,,,,,,,135.45087815122076,135.45087815122076,127.57726969883046,86.6967811354715,70.49804368103588,121.17214218842622,2.2,2.21,-207,-276,0,282,200,266,287.3364279270172,287.33656120300293,287.3398382663727,287.35568618774414,287.4950716495514,287.4950716495514,287.4950716495514,287.4950716495514,287.4950716495514,287.4950716495514,287.4950716495514,291.8457622528076,1,4.4848246574401855,None,,,,,,,,,,,,,,,,,,141,2,2025-02-27_10h32.21.258,comp,2024.2.4,57.56353969524003,2025-02-27 10h32.33.324579 -0500,
130,130,0,filler_random,None,None,None,None,None,None,None,None,None,None,3,1.5186731815338135,None,,,,,0,0,0,0,0,130,130,144,291.86553978919983,,,,,,,,,,,,,,,,,,,,,,,,,,,,,,,,,,,,,,,,,,,,,,,,,,,,,,,,,,,,,,,,,,,,,,,,,,,,,,,,,131.75555900852044,117.61054624936858,130.21251236318378,60.148614754035826,114.39809060548627,198.0914603789293,1.0,1.2,-185,12,0,13,225,3,291.8473756313324,291.84745049476624,291.8506100177765,291.86553978919983,292.0117676258087,292.0117676258087,292.0117676258087,292.0117676258087,292.0117676258087,292.0117676258087,292.0117676258087,293.3974974155426,3,1.5186731815338135,None,,,,,,,,,,,,,,,,,,141,2,2025-02-27_10h32.21.258,comp,2024.2.4,57.56353969524003,2025-02-27 10h32.33.324579 -0500,
131,131,0,filler_square,None,None,None,None,None,None,None,None,None,None,2,1.4748423099517822,None,,,,,0,0,0,0,0,131,131,204,293.41319489479065,,,,,,,,,,,,,,,,,,,,,,,,,,,,,,,,,,,,,,,,,,,,,,,,,,,,,,,,,,,,,,,,,,,,,,,,,,,,,,,,,61.338952597408834,60.95902203159565,64.0880509558373,59.233792436041355,68.65327882583927,68.65327882583927,3.0,3.2,-156,-265,0,4,160,273,293.3992590904236,293.3993339538574,293.4028363227844,293.41319489479065,293.56079506874084,293.56079506874084,293.56079506874084,293.56079506874084,293.56079506874084,293.56079506874084,293.56079506874084,294.9026403427124,2,1.4748423099517822,None,,,,,,,,,,,,,,,,,,141,2,2025-02-27_10h32.21.258,comp,2024.2.4,57.56353969524003,2025-02-27 10h32.33.324579 -0500,
132,132,0,critical,wdh,20.0,1.0,upper,125.0,200.0,141.0,141.0,200.0,125.0,1,3.191990375518799,None,,,,,0,0,0,0,0,132,132,79,294.9206397533417,,,,,,,,,,,,,,,,,,,,,,,,,,,,,,,,,,,,,,,,,,,,,,,,,,,,,,,,,,,,,,,,,,,,,,,,,,,,,,,,,125.0,200.0,141.0,141.0,200.0,125.0,1.0,1.1,-746,266,-480,289,-251,282,294.9042823314667,294.9043598175049,294.907351732254,294.9206397533417,295.0645742416382,295.0645742416382,295.0645742416382,295.0645742416382,295.0645742416382,295.0645742416382,295.0645742416382,298.1203866004944,1,3.191990375518799,None,,,,,,,,,,,,,,,,,,141,2,2025-02-27_10h32.21.258,comp,2024.2.4,57.56353969524003,2025-02-27 10h32.33.324579 -0500,
133,133,0,catch,None,None,None,None,None,None,None,None,None,None,3,1.1621644496917725,None,,,,,0,0,0,0,0,133,133,123,298.1418104171753,,,,,,,,,,,,,,,,,,,,,,,,,,,,,,,,,,,,,,,,,,,,,,,,,,,,,,,,,,,,,,,,,,,,,,,,,,,,,,,,,112,78,81,109,159,166,4.0,4.2,-190,10,0,-252,234,12,298.12242460250854,298.1225047111511,298.1258547306061,298.1418104171753,298.28235960006714,298.28235960006714,298.28235960006714,298.28235960006714,298.28235960006714,298.28235960006714,298.28235960006714,299.3170096874237,3,1.1621644496917725,None,,,,,,,,,,,,,,,,,,141,2,2025-02-27_10h32.21.258,comp,2024.2.4,57.56353969524003,2025-02-27 10h32.33.324579 -0500,
134,134,0,filler_random,None,None,None,None,None,None,None,None,None,None,1,1.0274887084960938,None,,,,,0,0,0,0,0,134,134,132,299.33320474624634,,,,,,,,,,,,,,,,,,,,,,,,,,,,,,,,,,,,,,,,,,,,,,,,,,,,,,,,,,,,,,,,,,,,,,,,,,,,,,,,,123.77005247474159,197.3519020582817,167.86252837184537,98.56686660635712,153.9290177055363,81.34076754311312,2.1,2.11,-244,258,0,269,186,-265,299.31893396377563,299.3190631866455,299.3228294849396,299.33320474624634,299.482310295105,299.482310295105,299.482310295105,299.482310295105,299.482310295105,299.482310295105,299.482310295105,300.36835289001465,1,1.0274887084960938,None,,,,,,,,,,,,,,,,,,141,2,2025-02-27_10h32.21.258,comp,2024.2.4,57.56353969524003,2025-02-27 10h32.33.324579 -0500,
135,135,0,critical,dhw,35.0,3.0,lower,70.0,70.0,133.0,57.0,57.0,133.0,3,1.864689588546753,None,,,,,0,0,0,0,0,135,135,50,300.38380432128906,,,,,,,,,,,,,,,,,,,,,,,,,,,,,,,,,,,,,,,,,,,,,,,,,,,,,,,,,,,,,,,,,,,,,,,,,,,,,,,,,70.0,70.0,133.0,57.0,57.0,133.0,3.0,3.1,-160,289,0,7,191,-275,300.3699653148651,300.37004017829895,300.37311577796936,300.38380432128906,300.53008008003235,300.53008008003235,300.53008008003235,300.53008008003235,300.53008008003235,300.53008008003235,300.53008008003235,302.26694536209106,3,1.864689588546753,None,,,,,,,,,,,,,,,,,,141,2,2025-02-27_10h32.21.258,comp,2024.2.4,57.56353969524003,2025-02-27 10h32.33.324579 -0500,
136,136,0,critical,whd,20.0,4.0,upper,125.0,200.0,200.0,125.0,141.0,141.0,1,3.2534799575805664,None,,,,,0,0,0,0,0,136,136,95,302.28265953063965,,,,,,,,,,,,,,,,,,,,,,,,,,,,,,,,,,,,,,,,,,,,,,,,,,,,,,,,,,,,,,,,,,,,,,,,,,,,,,,,,125.0,200.0,200.0,125.0,141.0,141.0,4.0,4.2,-258,-8,0,-265,229,-16,302.2685453891754,302.26862239837646,302.2722029685974,302.28265953063965,302.4188115596771,302.4188115596771,302.4188115596771,302.4188115596771,302.4188115596771,302.4188115596771,302.4188115596771,305.538188457489,1,3.2534799575805664,None,,,,,,,,,,,,,,,,,,141,2,2025-02-27_10h32.21.258,comp,2024.2.4,57.56353969524003,2025-02-27 10h32.33.324579 -0500,
137,137,0,critical,wdh,20.0,2.1,upper,125.0,200.0,141.0,141.0,200.0,125.0,3,2.1633317470550537,None,,,,,0,0,0,0,0,137,137,35,305.55659794807434,,,,,,,,,,,,,,,,,,,,,,,,,,,,,,,,,,,,,,,,,,,,,,,,,,,,,,,,,,,,,,,,,,,,,,,,,,,,,,,,,125.0,200.0,141.0,141.0,200.0,125.0,2.1,2.12,-266,-253,0,-288,229,270,305.53980898857117,305.5398955345154,305.54331612586975,305.55659794807434,305.70080375671387,305.70080375671387,305.70080375671387,305.70080375671387,305.70080375671387,305.70080375671387,305.70080375671387,307.7349419593811,3,2.1633317470550537,None,,,,,,,,,,,,,,,,,,141,2,2025-02-27_10h32.21.258,comp,2024.2.4,57.56353969524003,2025-02-27 10h32.33.324579 -0500,
138,138,0,critical,dwh,20.0,2.1,lower,78.0,78.0,57.0,133.0,133.0,57.0,2,3.8985235691070557,None,,,,,0,0,0,0,0,138,138,6,307.75024366378784,,,,,,,,,,,,,,,,,,,,,,,,,,,,,,,,,,,,,,,,,,,,,,,,,,,,,,,,,,,,,,,,,,,,,,,,,,,,,,,,,78.0,78.0,57.0,133.0,133.0,57.0,2.1,2.12,-202,-263,0,-257,191,267,307.7364513874054,307.7365279197693,307.7398958206177,307.75024366378784,307.88817381858826,307.88817381858826,307.88817381858826,307.88817381858826,307.88817381858826,307.88817381858826,307.88817381858826,311.6551055908203,2,3.8985235691070557,None,,,,,,,,,,,,,,,,,,141,2,2025-02-27_10h32.21.258,comp,2024.2.4,57.56353969524003,2025-02-27 10h32.33.324579 -0500,
139,139,0,filler_random,None,None,None,None,None,None,None,None,None,None,3,1.8163933753967285,None,,,,,0,0,0,0,0,139,139,154,311.67156648635864,,,,,,,,,,,,,,,,,,,,,,,,,,,,,,,,,,,,,,,,,,,,,,,,,,,,,,,,,,,,,,,,,,,,,,,,,,,,,,,,,158.5224866815953,78.96469766284119,66.13196702818891,90.9514623173861,93.72401587626935,192.80352218832368,2.2,2.22,-181,261,0,-270,238,-276,311.6569573879242,311.65709018707275,311.66049313545227,311.67156648635864,311.823762178421,311.823762178421,311.823762178421,311.823762178421,311.823762178421,311.823762178421,311.823762178421,313.5029113292694,3,1.8163933753967285,None,,,,,,,,,,,,,,,,,,141,2,2025-02-27_10h32.21.258,comp,2024.2.4,57.56353969524003,2025-02-27 10h32.33.324579 -0500,
