thisN,thisTrialN,thisRepN,effect,order,distance,config,diag,h_1,w_1,h_2,w_2,h_3,w_3,rect_choice.keys,rect_choice.rt,rect_choice.duration,instructions_loop.thisRepN,instructions_loop.thisTrialN,instructions_loop.thisN,instructions_loop.thisIndex,blocks.thisRepN,blocks.thisTrialN,blocks.thisN,blocks.thisIndex,trials.thisRepN,trials.thisTrialN,trials.thisN,trials.thisIndex,thisRow.t,notes,consent.started,agree_button.started,decline_button.started,consent_img.started,mouse.started,consent.stopped,agree_button.numClicks,agree_button.timesOn,agree_button.timesOff,decline_button.numClicks,decline_button.timesOn,decline_button.timesOff,mouse.x,mouse.y,mouse.leftButton,mouse.midButton,mouse.rightButton,mouse.time,mouse.clicked_name,exp_params.started,exp_params.stopped,welcome.started,welcome_text.started,welcome.stopped,instructions_1.started,instructions_1_text_1.started,instructions_1_text_2.started,key_resp.started,instructions_1.stopped,instructions_loop.key_resp.keys,instructions_loop.key_resp.rt,instructions_loop.key_resp.duration,instructions_2.started,instructions_2_text_1.started,instructions_2_text_2.started,key_resp_2.started,instructions_2.stopped,instructions_loop.key_resp_2.keys,instructions_loop.key_resp_2.rt,instructions_loop.key_resp_2.duration,instructions_3.started,instructions_3_text_1.started,r1_instr3.started,r2_instr3.started,r3_instr3.started,r1_instr3_label.started,r2_instr3_label.started,r3_instr3_label.started,instructions_3_text_3.started,instructions_3_text_4.started,key_resp_3.started,instructions_3.stopped,instructions_loop.key_resp_3.keys,instructions_loop.key_resp_3.rt,instructions_loop.key_resp_3.duration,instructions_4.started,instructions_4_text_1.started,instructions_4_text_3.started,instructions_4_text_2.started,key_resp_4.started,instructions_4.stopped,instructions_loop.key_resp_4.keys,instructions_loop.key_resp_4.rt,instructions_loop.key_resp_4.duration,instructions_5.started,instructions_5_text_1.started,instructions_5_text_2.started,key_resp_5.started,instructions_5.stopped,instructions_loop.key_resp_5.keys,instructions_loop.key_resp_5.rt,instructions_loop.key_resp_5.duration,start_exp.started,start_exp_text.started,key_resp_6.started,start_exp.stopped,key_resp_6.keys,key_resp_6.rt,key_resp_6.duration,h_1_tmp,w_1_tmp,h_2_tmp,w_2_tmp,h_3_tmp,w_3_tmp,config_tmp,config_tmp_1,r_1_x,r_1_y,r_2_x,r_2_y,r_3_x,r_3_y,pre_trial.started,pre_trial.stopped,choice_trial.started,rect_choice.started,r_1.started,r_2.started,r_3.started,r_1_label.started,r_2_label.started,r_3_label.started,prompt.started,choice_trial.stopped,trials.rect_choice.keys,trials.rect_choice.rt,trials.rect_choice.duration,end_block.started,end_block_text.started,end_block.stopped,end.started,end_text.started,key_resp_7.started,end.stopped,key_resp_7.keys,key_resp_7.rt,key_resp_7.duration,debriefing.started,debrief_form.started,end_debrief.started,debriefing.stopped,end_debrief.keys,end_debrief.rt,end_debrief.duration,participant,computer,date,expName,psychopyVersion,frameRate,expStart,
,,,,,,,,,,,,,,,,,,,,,,,,,,,,,,,0.015182971954345703,0.03493547439575195,0.03493547439575195,0.03493547439575195,0.014986515045166016,10.814797401428223,1,[10.777244091033936],[10.777265071868896],0,,,[-99.0],[-511.0],[1],[0],[0],[10.799122095108032],['agree_button'],,,,,,,,,,,,,,,,,,,,,,,,,,,,,,,,,,,,,,,,,,,,,,,,,,,,,,,,,,,,,,,,,,,,,,,,,,,,,,,,,,,,,,,,,,,,,,,,,,,,,,,,,,,142,1,2025-02-27_10h33.02.453,comp,2024.2.4,57.475587663788076,2025-02-27 10h33.12.814423 -0500,
,,,,,,,,,,,,,,,,,,,,,,,,,,,,,,,,,,,,,,,,,,,,,,,,,,10.815376043319702,10.815498113632202,,,,,,,,,,,,,,,,,,,,,,,,,,,,,,,,,,,,,,,,,,,,,,,,,,,,,,,,,,,,,,,,,,,,,,,,,,,,,,,,,,,,,,,,,,,,,,,,,,,,,,,,,142,1,2025-02-27_10h33.02.453,comp,2024.2.4,57.475587663788076,2025-02-27 10h33.12.814423 -0500,
,,,,,,,,,,,,,,,,,,,,,,,,,,,,,,,,,,,,,,,,,,,,,,,,,,,,10.815568447113037,10.831367015838623,12.830311298370361,,,,,,,,,,,,,,,,,,,,,,,,,,,,,,,,,,,,,,,,,,,,,,,,,,,,,,,,,,,,,,,,,,,,,,,,,,,,,,,,,,,,,,,,,,,,,,,,,,,,,,142,1,2025-02-27_10h33.02.453,comp,2024.2.4,57.475587663788076,2025-02-27 10h33.12.814423 -0500,
0,0,0,,,,,,,,,,,,,,,0,0,0,0,,,,,,,,,12.846747398376465,,,,,,,,,,,,,,,,,,,,,,,,,,12.831230163574219,12.846747398376465,12.846747398376465,14.329529523849487,17.93197011947632,space,3.5965700149536133,None,17.932150840759277,17.952480792999268,17.952480792999268,19.431884288787842,26.91903567314148,space,7.483789443969727,None,26.91922616958618,26.949814558029175,26.949814558029175,26.949814558029175,26.949814558029175,26.949814558029175,26.949814558029175,26.949814558029175,26.949814558029175,26.949814558029175,28.42341136932373,34.340344190597534,space,5.900444507598877,None,34.34052038192749,34.3564453125,34.3564453125,34.3564453125,35.851372718811035,41.14546775817871,space,5.28839898109436,None,41.14564657211304,41.160244941711426,41.160244941711426,42.6559784412384,44.17496132850647,space,1.5084962844848633,None,44.175188064575195,44.18984818458557,44.18984818458557,45.74203610420227,space,1.550032138824463,None,,,,,,,,,,,,,,,,,,,,,,,,,,,,,,,,,,,,,,,,,,,,,,,142,1,2025-02-27_10h33.02.453,comp,2024.2.4,57.475587663788076,2025-02-27 10h33.12.814423 -0500,
0,0,0,critical,dwh,20.0,2.1,lower,78.0,78.0,57.0,133.0,133.0,57.0,2,11.027865171432495,None,,,,,0,0,0,0,0,0,0,30,45.81588339805603,,,,,,,,,,,,,,,,,,,,,,,,,,,,,,,,,,,,,,,,,,,,,,,,,,,,,,,,,,,,,,,,,,,,,,,,,,,,,,,,,78.0,78.0,57.0,133.0,133.0,57.0,2.1,2.12,-202,-281,0,-285,191,267,45.7993688583374,45.799412965774536,45.801196575164795,45.81588339805603,45.96526527404785,45.96526527404785,45.96526527404785,45.96526527404785,45.96526527404785,45.96526527404785,45.96526527404785,56.85881018638611,2,11.027865171432495,None,,,,,,,,,,,,,,,,,,142,1,2025-02-27_10h33.02.453,comp,2024.2.4,57.475587663788076,2025-02-27 10h33.12.814423 -0500,
1,1,0,filler_random,None,None,None,None,None,None,None,None,None,None,2,2.008073568344116,None,,,,,0,0,0,0,0,1,1,169,56.8760027885437,,,,,,,,,,,,,,,,,,,,,,,,,,,,,,,,,,,,,,,,,,,,,,,,,,,,,,,,,,,,,,,,,,,,,,,,,,,,,,,,,69.34157748824006,65.46015071003326,120.93379390215107,179.67136983031344,123.43554586772818,65.39485318234013,3.0,3.1,-219,283,0,-18,219,-284,56.860650062561035,56.860780477523804,56.86397886276245,56.8760027885437,57.012667655944824,57.012667655944824,57.012667655944824,57.012667655944824,57.012667655944824,57.012667655944824,57.012667655944824,58.90233874320984,2,2.008073568344116,None,,,,,,,,,,,,,,,,,,142,1,2025-02-27_10h33.02.453,comp,2024.2.4,57.475587663788076,2025-02-27 10h33.12.814423 -0500,
2,2,0,critical,whd,20.0,4.0,lower,57.0,133.0,133.0,57.0,78.0,78.0,1,4.394883871078491,None,,,,,0,0,0,0,0,2,2,94,58.92079401016235,,,,,,,,,,,,,,,,,,,,,,,,,,,,,,,,,,,,,,,,,,,,,,,,,,,,,,,,,,,,,,,,,,,,,,,,,,,,,,,,,57.0,133.0,133.0,57.0,78.0,78.0,4.0,4.2,-191,17,0,-257,164,17,58.90391731262207,58.90399980545044,58.90732169151306,58.92079401016235,59.06214714050293,59.06214714050293,59.06214714050293,59.06214714050293,59.06214714050293,59.06214714050293,59.06214714050293,63.329952239990234,1,4.394883871078491,None,,,,,,,,,,,,,,,,,,142,1,2025-02-27_10h33.02.453,comp,2024.2.4,57.475587663788076,2025-02-27 10h33.12.814423 -0500,
3,3,0,critical,whd,35.0,2.1,upper,125.0,200.0,200.0,125.0,127.0,127.0,1,5.1037211418151855,None,,,,,0,0,0,0,0,3,3,37,63.348262310028076,,,,,,,,,,,,,,,,,,,,,,,,,,,,,,,,,,,,,,,,,,,,,,,,,,,,,,,,,,,,,,,,,,,,,,,,,,,,,,,,,125.0,200.0,200.0,125.0,127.0,127.0,2.1,2.12,-258,-282,0,-263,222,274,63.33151650428772,63.33159279823303,63.33464455604553,63.348262310028076,63.48825693130493,63.48825693130493,63.48825693130493,63.48825693130493,63.48825693130493,63.48825693130493,63.48825693130493,68.45440983772278,1,5.1037211418151855,None,,,,,,,,,,,,,,,,,,142,1,2025-02-27_10h33.02.453,comp,2024.2.4,57.475587663788076,2025-02-27 10h33.12.814423 -0500,
4,4,0,critical,hwd,20.0,2.1,upper,200.0,125.0,125.0,200.0,141.0,141.0,2,6.476014852523804,None,,,,,0,0,0,0,0,4,4,19,68.47196412086487,,,,,,,,,,,,,,,,,,,,,,,,,,,,,,,,,,,,,,,,,,,,,,,,,,,,,,,,,,,,,,,,,,,,,,,,,,,,,,,,,200.0,125.0,125.0,200.0,141.0,141.0,2.1,2.12,-258,-270,0,-290,266,252,68.45593285560608,68.45600843429565,68.45887231826782,68.47196412086487,68.61502647399902,68.61502647399902,68.61502647399902,68.61502647399902,68.61502647399902,68.61502647399902,68.61502647399902,74.9595422744751,2,6.476014852523804,None,,,,,,,,,,,,,,,,,,142,1,2025-02-27_10h33.02.453,comp,2024.2.4,57.475587663788076,2025-02-27 10h33.12.814423 -0500,
5,5,0,critical,wdh,35.0,2.1,lower,57.0,133.0,70.0,70.0,133.0,57.0,1,4.518036127090454,None,,,,,0,0,0,0,0,5,5,8,74.97434139251709,,,,,,,,,,,,,,,,,,,,,,,,,,,,,,,,,,,,,,,,,,,,,,,,,,,,,,,,,,,,,,,,,,,,,,,,,,,,,,,,,57.0,133.0,70.0,70.0,133.0,57.0,2.1,2.11,-198,280,0,287,160,-251,74.96103143692017,74.96114587783813,74.96401119232178,74.97434139251709,75.11598896980286,75.11598896980286,75.11598896980286,75.11598896980286,75.11598896980286,75.11598896980286,75.11598896980286,79.50554609298706,1,4.518036127090454,None,,,,,,,,,,,,,,,,,,142,1,2025-02-27_10h33.02.453,comp,2024.2.4,57.475587663788076,2025-02-27 10h33.12.814423 -0500,
6,6,0,critical,wdh,20.0,1.0,upper,125.0,200.0,141.0,141.0,200.0,125.0,3,2.8751235008239746,None,,,,,0,0,0,0,0,6,6,79,79.52108335494995,,,,,,,,,,,,,,,,,,,,,,,,,,,,,,,,,,,,,,,,,,,,,,,,,,,,,,,,,,,,,,,,,,,,,,,,,,,,,,,,,125.0,200.0,141.0,141.0,200.0,125.0,1.0,1.2,-266,13,0,14,229,4,79.50736403465271,79.50748825073242,79.51084017753601,79.52108335494995,79.67549109458923,79.67549109458923,79.67549109458923,79.67549109458923,79.67549109458923,79.67549109458923,79.67549109458923,82.40398836135864,3,2.8751235008239746,None,,,,,,,,,,,,,,,,,,142,1,2025-02-27_10h33.02.453,comp,2024.2.4,57.475587663788076,2025-02-27 10h33.12.814423 -0500,
7,7,0,filler_random,None,None,None,None,None,None,None,None,None,None,2,1.4780933856964111,None,,,,,0,0,0,0,0,7,7,164,82.42175626754761,,,,,,,,,,,,,,,,,,,,,,,,,,,,,,,,,,,,,,,,,,,,,,,,,,,,,,,,,,,,,,,,,,,,,,,,,,,,,,,,,94.85534090747717,84.38341203137131,110.68081484210828,189.22789283574207,87.63039034214695,196.8013778295173,2.2,2.22,-233,271,0,-272,289,-260,82.40568590164185,82.40576219558716,82.40881276130676,82.42175626754761,82.5668158531189,82.5668158531189,82.5668158531189,82.5668158531189,82.5668158531189,82.5668158531189,82.5668158531189,83.90363240242004,2,1.4780933856964111,None,,,,,,,,,,,,,,,,,,142,1,2025-02-27_10h33.02.453,comp,2024.2.4,57.475587663788076,2025-02-27 10h33.12.814423 -0500,
8,8,0,filler_square,None,None,None,None,None,None,None,None,None,None,1,1.2441368103027344,None,,,,,0,0,0,0,0,8,8,197,83.92013502120972,,,,,,,,,,,,,,,,,,,,,,,,,,,,,,,,,,,,,,,,,,,,,,,,,,,,,,,,,,,,,,,,,,,,,,,,,,,,,,,,,183.82554641163023,183.82554641163023,144.4362558993061,130.67023046122299,105.99169474736416,79.75971140487364,4.0,4.1,-253,-261,0,17,201,-263,83.90567564964294,83.90575289726257,83.90928483009338,83.92013502120972,84.07112622261047,84.07112622261047,84.07112622261047,84.07112622261047,84.07112622261047,84.07112622261047,84.07112622261047,85.17090177536011,1,1.2441368103027344,None,,,,,,,,,,,,,,,,,,142,1,2025-02-27_10h33.02.453,comp,2024.2.4,57.475587663788076,2025-02-27 10h33.12.814423 -0500,
9,9,0,filler_square,None,None,None,None,None,None,None,None,None,None,2,2.393232583999634,None,,,,,0,0,0,0,0,9,9,187,85.18693542480469,,,,,,,,,,,,,,,,,,,,,,,,,,,,,,,,,,,,,,,,,,,,,,,,,,,,,,,,,,,,,,,,,,,,,,,,,,,,,,,,,121.78677933069922,113.22109798919763,181.68416603818912,181.68416603818912,81.77546893289046,100.53967755910786,1.0,1.3,237,-277,480,-262,717,-263,85.17270350456238,85.17279601097107,85.17625141143799,85.18693542480469,85.33610892295837,85.33610892295837,85.33610892295837,85.33610892295837,85.33610892295837,85.33610892295837,85.33610892295837,87.58863639831543,2,2.393232583999634,None,,,,,,,,,,,,,,,,,,142,1,2025-02-27_10h33.02.453,comp,2024.2.4,57.475587663788076,2025-02-27 10h33.12.814423 -0500,
10,10,0,filler_square,None,None,None,None,None,None,None,None,None,None,3,2.6465494632720947,None,,,,,0,0,0,0,0,10,10,176,87.60542392730713,,,,,,,,,,,,,,,,,,,,,,,,,,,,,,,,,,,,,,,,,,,,,,,,,,,,,,,,,,,,,,,,,,,,,,,,,,,,,,,,,156.5333342486926,122.61134841416788,110.85460097329303,141.03520158140168,162.68699901612013,162.68699901612013,1.0,1.3,252,-253,480,-273,728,-280,87.59039235115051,87.59046840667725,87.59354305267334,87.60542392730713,87.75554776191711,87.75554776191711,87.75554776191711,87.75554776191711,87.75554776191711,87.75554776191711,87.75554776191711,90.25477480888367,3,2.6465494632720947,None,,,,,,,,,,,,,,,,,,142,1,2025-02-27_10h33.02.453,comp,2024.2.4,57.475587663788076,2025-02-27 10h33.12.814423 -0500,
11,11,0,catch,None,None,None,None,None,None,None,None,None,None,1,1.8578393459320068,None,,,,,0,0,0,0,0,11,11,124,90.27424931526184,,,,,,,,,,,,,,,,,,,,,,,,,,,,,,,,,,,,,,,,,,,,,,,,,,,,,,,,,,,,,,,,,,,,,,,,,,,,,,,,,171,154,115,75,112,78,1.0,1.2,-210,-12,0,7,172,16,90.25664114952087,90.25671982765198,90.25982403755188,90.27424931526184,90.4217882156372,90.4217882156372,90.4217882156372,90.4217882156372,90.4217882156372,90.4217882156372,90.4217882156372,92.14211392402649,1,1.8578393459320068,None,,,,,,,,,,,,,,,,,,142,1,2025-02-27_10h33.02.453,comp,2024.2.4,57.475587663788076,2025-02-27 10h33.12.814423 -0500,
12,12,0,critical,wdh,20.0,3.0,upper,125.0,200.0,141.0,141.0,200.0,125.0,1,2.4111406803131104,None,,,,,0,0,0,0,0,12,12,81,92.16058659553528,,,,,,,,,,,,,,,,,,,,,,,,,,,,,,,,,,,,,,,,,,,,,,,,,,,,,,,,,,,,,,,,,,,,,,,,,,,,,,,,,125.0,200.0,141.0,141.0,200.0,125.0,3.0,3.1,-266,278,0,3,229,-257,92.14412188529968,92.1442608833313,92.14730858802795,92.16058659553528,92.30646324157715,92.30646324157715,92.30646324157715,92.30646324157715,92.30646324157715,92.30646324157715,92.30646324157715,94.58993196487427,1,2.4111406803131104,None,,,,,,,,,,,,,,,,,,142,1,2025-02-27_10h33.02.453,comp,2024.2.4,57.475587663788076,2025-02-27 10h33.12.814423 -0500,
13,13,0,critical,hwd,35.0,2.1,lower,133.0,57.0,57.0,133.0,70.0,70.0,2,2.31608510017395,None,,,,,0,0,0,0,0,13,13,16,94.60767078399658,,,,,,,,,,,,,,,,,,,,,,,,,,,,,,,,,,,,,,,,,,,,,,,,,,,,,,,,,,,,,,,,,,,,,,,,,,,,,,,,,133.0,57.0,57.0,133.0,70.0,70.0,2.1,2.12,-191,-252,0,-288,198,270,94.59147548675537,94.59154891967773,94.59456753730774,94.60767078399658,94.7587080001831,94.7587080001831,94.7587080001831,94.7587080001831,94.7587080001831,94.7587080001831,94.7587080001831,96.94052290916443,2,2.31608510017395,None,,,,,,,,,,,,,,,,,,142,1,2025-02-27_10h33.02.453,comp,2024.2.4,57.475587663788076,2025-02-27 10h33.12.814423 -0500,
14,14,0,filler_random,None,None,None,None,None,None,None,None,None,None,1,2.6045429706573486,None,,,,,0,0,0,0,0,14,14,147,96.96076726913452,,,,,,,,,,,,,,,,,,,,,,,,,,,,,,,,,,,,,,,,,,,,,,,,,,,,,,,,,,,,,,,,,,,,,,,,,,,,,,,,,81.43598896555939,113.52544985596009,75.8978028302086,74.95088862190923,91.84554898472771,76.32760329905985,1.0,1.1,-670,259,-480,253,-308,286,96.942218542099,96.94229459762573,96.94551849365234,96.96076726913452,97.10762190818787,97.10762190818787,97.10762190818787,97.10762190818787,97.10762190818787,97.10762190818787,97.10762190818787,99.57589912414551,1,2.6045429706573486,None,,,,,,,,,,,,,,,,,,142,1,2025-02-27_10h33.02.453,comp,2024.2.4,57.475587663788076,2025-02-27 10h33.12.814423 -0500,
15,15,0,critical,hwd,35.0,3.0,upper,200.0,125.0,125.0,200.0,127.0,127.0,2,1.7802159786224365,None,,,,,0,0,0,0,0,15,15,99,99.592276096344,,,,,,,,,,,,,,,,,,,,,,,,,,,,,,,,,,,,,,,,,,,,,,,,,,,,,,,,,,,,,,,,,,,,,,,,,,,,,,,,,200.0,125.0,125.0,200.0,127.0,127.0,3.0,3.1,-258,266,0,5,260,-281,99.5774176120758,99.57749533653259,99.5815360546112,99.592276096344,99.74219012260437,99.74219012260437,99.74219012260437,99.74219012260437,99.74219012260437,99.74219012260437,99.74219012260437,101.39199256896973,2,1.7802159786224365,None,,,,,,,,,,,,,,,,,,142,1,2025-02-27_10h33.02.453,comp,2024.2.4,57.475587663788076,2025-02-27 10h33.12.814423 -0500,
16,16,0,critical,hwd,20.0,1.0,upper,200.0,125.0,125.0,200.0,141.0,141.0,2,1.7650728225708008,None,,,,,0,0,0,0,0,16,16,103,101.40690112113953,,,,,,,,,,,,,,,,,,,,,,,,,,,,,,,,,,,,,,,,,,,,,,,,,,,,,,,,,,,,,,,,,,,,,,,,,,,,,,,,,200.0,125.0,125.0,200.0,141.0,141.0,1.0,1.2,-258,8,0,-13,266,2,101.39347457885742,101.39354848861694,101.3966965675354,101.40690112113953,101.56015133857727,101.56015133857727,101.56015133857727,101.56015133857727,101.56015133857727,101.56015133857727,101.56015133857727,103.1763174533844,2,1.7650728225708008,None,,,,,,,,,,,,,,,,,,142,1,2025-02-27_10h33.02.453,comp,2024.2.4,57.475587663788076,2025-02-27 10h33.12.814423 -0500,
17,17,0,critical,hdw,35.0,1.0,lower,133.0,57.0,70.0,70.0,57.0,133.0,3,1.5002245903015137,None,,,,,0,0,0,0,0,17,17,108,103.1919903755188,,,,,,,,,,,,,,,,,,,,,,,,,,,,,,,,,,,,,,,,,,,,,,,,,,,,,,,,,,,,,,,,,,,,,,,,,,,,,,,,,133.0,57.0,70.0,70.0,57.0,133.0,1.0,1.3,320,-290,480,-285,678,-253,103.17782831192017,103.17790627479553,103.18126678466797,103.1919903755188,103.34180927276611,103.34180927276611,103.34180927276611,103.34180927276611,103.34180927276611,103.34180927276611,103.34180927276611,104.69678449630737,3,1.5002245903015137,None,,,,,,,,,,,,,,,,,,142,1,2025-02-27_10h33.02.453,comp,2024.2.4,57.475587663788076,2025-02-27 10h33.12.814423 -0500,
18,18,0,critical,hdw,20.0,4.0,lower,133.0,57.0,78.0,78.0,57.0,133.0,3,2.47489333152771,None,,,,,0,0,0,0,0,18,18,118,104.71285343170166,,,,,,,,,,,,,,,,,,,,,,,,,,,,,,,,,,,,,,,,,,,,,,,,,,,,,,,,,,,,,,,,,,,,,,,,,,,,,,,,,133.0,57.0,78.0,78.0,57.0,133.0,4.0,4.2,-164,-5,0,-265,202,0,104.69822239875793,104.69829988479614,104.70129466056824,104.71285343170166,104.86065673828125,104.86065673828125,104.86065673828125,104.86065673828125,104.86065673828125,104.86065673828125,104.86065673828125,107.2004919052124,3,2.47489333152771,None,,,,,,,,,,,,,,,,,,142,1,2025-02-27_10h33.02.453,comp,2024.2.4,57.475587663788076,2025-02-27 10h33.12.814423 -0500,
19,19,0,critical,hdw,20.0,1.0,lower,133.0,57.0,78.0,78.0,57.0,133.0,3,2.1351377964019775,None,,,,,0,0,0,0,0,19,19,114,107.22120690345764,,,,,,,,,,,,,,,,,,,,,,,,,,,,,,,,,,,,,,,,,,,,,,,,,,,,,,,,,,,,,,,,,,,,,,,,,,,,,,,,,133.0,57.0,78.0,78.0,57.0,133.0,1.0,1.1,-644,283,-480,253,-278,271,107.20208096504211,107.20216703414917,107.20544743537903,107.22120690345764,107.36342930793762,107.36342930793762,107.36342930793762,107.36342930793762,107.36342930793762,107.36342930793762,107.36342930793762,109.36327815055847,3,2.1351377964019775,None,,,,,,,,,,,,,,,,,,142,1,2025-02-27_10h33.02.453,comp,2024.2.4,57.475587663788076,2025-02-27 10h33.12.814423 -0500,
20,20,0,filler_square,None,None,None,None,None,None,None,None,None,None,1,1.1839630603790283,None,,,,,0,0,0,0,0,20,20,172,109.37975358963013,,,,,,,,,,,,,,,,,,,,,,,,,,,,,,,,,,,,,,,,,,,,,,,,,,,,,,,,,,,,,,,,,,,,,,,,,,,,,,,,,162.1152389711196,162.1152389711196,146.29085417386693,145.9391229819035,60.919753777073176,58.74322679816879,3.0,3.1,-250,258,0,18,198,-278,109.36508989334106,109.36522889137268,109.36855912208557,109.37975358963013,109.52971816062927,109.52971816062927,109.52971816062927,109.52971816062927,109.52971816062927,109.52971816062927,109.52971816062927,110.58151078224182,1,1.1839630603790283,None,,,,,,,,,,,,,,,,,,142,1,2025-02-27_10h33.02.453,comp,2024.2.4,57.475587663788076,2025-02-27 10h33.12.814423 -0500,
21,21,0,critical,dwh,20.0,1.0,upper,141.0,141.0,125.0,200.0,200.0,125.0,3,5.971961498260498,None,,,,,0,0,0,0,0,21,21,67,110.60039162635803,,,,,,,,,,,,,,,,,,,,,,,,,,,,,,,,,,,,,,,,,,,,,,,,,,,,,,,,,,,,,,,,,,,,,,,,,,,,,,,,,141.0,141.0,125.0,200.0,200.0,125.0,1.0,1.3,214,-284,480,-287,738,-283,110.58315134048462,110.58322787284851,110.58687973022461,110.60039162635803,110.75019598007202,110.75019598007202,110.75019598007202,110.75019598007202,110.75019598007202,110.75019598007202,110.75019598007202,116.58170199394226,3,5.971961498260498,None,,,,,,,,,,,,,,,,,,142,1,2025-02-27_10h33.02.453,comp,2024.2.4,57.475587663788076,2025-02-27 10h33.12.814423 -0500,
22,22,0,critical,hdw,35.0,4.0,upper,200.0,125.0,127.0,127.0,125.0,200.0,1,4.430329084396362,None,,,,,0,0,0,0,0,22,22,113,116.59802889823914,,,,,,,,,,,,,,,,,,,,,,,,,,,,,,,,,,,,,,,,,,,,,,,,,,,,,,,,,,,,,,,,,,,,,,,,,,,,,,,,,200.0,125.0,127.0,127.0,125.0,200.0,4.0,4.1,-222,-253,0,-19,260,-278,116.58319973945618,116.58330273628235,116.58731579780579,116.59802889823914,116.74500036239624,116.74500036239624,116.74500036239624,116.74500036239624,116.74500036239624,116.74500036239624,116.74500036239624,121.035329580307,1,4.430329084396362,None,,,,,,,,,,,,,,,,,,142,1,2025-02-27_10h33.02.453,comp,2024.2.4,57.475587663788076,2025-02-27 10h33.12.814423 -0500,
23,23,0,filler_random,None,None,None,None,None,None,None,None,None,None,3,2.2961108684539795,None,,,,,0,0,0,0,0,23,23,141,121.05172109603882,,,,,,,,,,,,,,,,,,,,,,,,,,,,,,,,,,,,,,,,,,,,,,,,,,,,,,,,,,,,,,,,,,,,,,,,,,,,,,,,,131.75545078720322,61.996421787947455,63.99425233048501,190.01418200630667,182.78767940564734,159.2501486432435,2.1,2.11,-222,278,0,274,271,-263,121.03734588623047,121.03742718696594,121.04085946083069,121.05172109603882,121.20340490341187,121.20340490341187,121.20340490341187,121.20340490341187,121.20340490341187,121.20340490341187,121.20340490341187,123.35290336608887,3,2.2961108684539795,None,,,,,,,,,,,,,,,,,,142,1,2025-02-27_10h33.02.453,comp,2024.2.4,57.475587663788076,2025-02-27 10h33.12.814423 -0500,
24,24,0,filler_random,None,None,None,None,None,None,None,None,None,None,2,1.1823749542236328,None,,,,,0,0,0,0,0,24,24,142,123.37349534034729,,,,,,,,,,,,,,,,,,,,,,,,,,,,,,,,,,,,,,,,,,,,,,,,,,,,,,,,,,,,,,,,,,,,,,,,,,,,,,,,,93.37154613707182,112.23603351697702,182.09816803510114,120.76388898386935,84.35217540985605,126.76234414086706,3.0,3.2,-212,-288,0,16,220,272,123.35460948944092,123.35468888282776,123.35772347450256,123.37349534034729,123.51915049552917,123.51915049552917,123.51915049552917,123.51915049552917,123.51915049552917,123.51915049552917,123.51915049552917,124.5673234462738,2,1.1823749542236328,None,,,,,,,,,,,,,,,,,,142,1,2025-02-27_10h33.02.453,comp,2024.2.4,57.475587663788076,2025-02-27 10h33.12.814423 -0500,
25,25,0,filler_random,None,None,None,None,None,None,None,None,None,None,2,2.868617057800293,None,,,,,0,0,0,0,0,25,25,149,124.58312320709229,,,,,,,,,,,,,,,,,,,,,,,,,,,,,,,,,,,,,,,,,,,,,,,,,,,,,,,,,,,,,,,,,,,,,,,,,,,,,,,,,106.29381960262825,147.68908178213962,187.8685847813966,102.0901370297936,89.44195706505741,194.81873587683205,2.1,2.12,-221,-261,0,-259,244,281,124.56914854049683,124.56922674179077,124.57256007194519,124.58312320709229,124.73324966430664,124.73324966430664,124.73324966430664,124.73324966430664,124.73324966430664,124.73324966430664,124.73324966430664,127.46799516677856,2,2.868617057800293,None,,,,,,,,,,,,,,,,,,142,1,2025-02-27_10h33.02.453,comp,2024.2.4,57.475587663788076,2025-02-27 10h33.12.814423 -0500,
26,26,0,critical,hdw,35.0,2.1,lower,133.0,57.0,70.0,70.0,57.0,133.0,3,3.58453106880188,None,,,,,0,0,0,0,0,26,26,20,127.48395371437073,,,,,,,,,,,,,,,,,,,,,,,,,,,,,,,,,,,,,,,,,,,,,,,,,,,,,,,,,,,,,,,,,,,,,,,,,,,,,,,,,133.0,57.0,70.0,70.0,57.0,133.0,2.1,2.12,-160,-255,0,-289,198,285,127.46948170661926,127.4695565700531,127.47370028495789,127.48395371437073,127.63413858413696,127.63413858413696,127.63413858413696,127.63413858413696,127.63413858413696,127.63413858413696,127.63413858413696,131.0722258090973,3,3.58453106880188,None,,,,,,,,,,,,,,,,,,142,1,2025-02-27_10h33.02.453,comp,2024.2.4,57.475587663788076,2025-02-27 10h33.12.814423 -0500,
27,27,0,filler_random,None,None,None,None,None,None,None,None,None,None,2,1.2355568408966064,None,,,,,0,0,0,0,0,27,27,159,131.08827447891235,,,,,,,,,,,,,,,,,,,,,,,,,,,,,,,,,,,,,,,,,,,,,,,,,,,,,,,,,,,,,,,,,,,,,,,,,,,,,,,,,107.03408086112222,75.22523765183877,94.20546858564296,185.5523748079208,99.46988139210873,141.3972437337299,4.0,4.2,-226,-3,0,-274,259,1,131.07445693016052,131.07455563545227,131.07746863365173,131.08827447891235,131.24124193191528,131.24124193191528,131.24124193191528,131.24124193191528,131.24124193191528,131.24124193191528,131.24124193191528,132.3395869731903,2,1.2355568408966064,None,,,,,,,,,,,,,,,,,,142,1,2025-02-27_10h33.02.453,comp,2024.2.4,57.475587663788076,2025-02-27 10h33.12.814423 -0500,
28,28,0,critical,wdh,20.0,2.1,upper,125.0,200.0,141.0,141.0,200.0,125.0,1,2.2732977867126465,None,,,,,0,0,0,0,0,28,28,35,132.35511589050293,,,,,,,,,,,,,,,,,,,,,,,,,,,,,,,,,,,,,,,,,,,,,,,,,,,,,,,,,,,,,,,,,,,,,,,,,,,,,,,,,125.0,200.0,141.0,141.0,200.0,125.0,2.1,2.12,-266,-278,0,-275,229,274,132.34125566482544,132.34138202667236,132.34486317634583,132.35511589050293,132.50213432312012,132.50213432312012,132.50213432312012,132.50213432312012,132.50213432312012,132.50213432312012,132.50213432312012,134.6394031047821,1,2.2732977867126465,None,,,,,,,,,,,,,,,,,,142,1,2025-02-27_10h33.02.453,comp,2024.2.4,57.475587663788076,2025-02-27 10h33.12.814423 -0500,
29,29,0,critical,dwh,20.0,2.1,upper,141.0,141.0,125.0,200.0,200.0,125.0,3,1.3770785331726074,None,,,,,0,0,0,0,0,29,29,7,134.65895342826843,,,,,,,,,,,,,,,,,,,,,,,,,,,,,,,,,,,,,,,,,,,,,,,,,,,,,,,,,,,,,,,,,,,,,,,,,,,,,,,,,141.0,141.0,125.0,200.0,200.0,125.0,2.1,2.12,-266,-253,0,-275,258,271,134.64110493659973,134.64123249053955,134.64469146728516,134.65895342826843,134.80372190475464,134.80372190475464,134.80372190475464,134.80372190475464,134.80372190475464,134.80372190475464,134.80372190475464,136.0526943206787,3,1.3770785331726074,None,,,,,,,,,,,,,,,,,,142,1,2025-02-27_10h33.02.453,comp,2024.2.4,57.475587663788076,2025-02-27 10h33.12.814423 -0500,
30,30,0,critical,hdw,20.0,2.1,upper,200.0,125.0,141.0,141.0,125.0,200.0,1,1.2876758575439453,None,,,,,0,0,0,0,0,30,30,23,136.06823420524597,,,,,,,,,,,,,,,,,,,,,,,,,,,,,,,,,,,,,,,,,,,,,,,,,,,,,,,,,,,,,,,,,,,,,,,,,,,,,,,,,200.0,125.0,141.0,141.0,125.0,200.0,2.1,2.11,-229,288,0,273,266,-266,136.05434203147888,136.05441522598267,136.0576777458191,136.06823420524597,136.2207269668579,136.2207269668579,136.2207269668579,136.2207269668579,136.2207269668579,136.2207269668579,136.2207269668579,137.35948753356934,1,1.2876758575439453,None,,,,,,,,,,,,,,,,,,142,1,2025-02-27_10h33.02.453,comp,2024.2.4,57.475587663788076,2025-02-27 10h33.12.814423 -0500,
31,31,0,critical,dhw,20.0,1.0,lower,78.0,78.0,133.0,57.0,57.0,133.0,2,4.123144149780273,None,,,,,0,0,0,0,0,31,31,54,137.37695956230164,,,,,,,,,,,,,,,,,,,,,,,,,,,,,,,,,,,,,,,,,,,,,,,,,,,,,,,,,,,,,,,,,,,,,,,,,,,,,,,,,78.0,78.0,133.0,57.0,57.0,133.0,1.0,1.2,-164,-16,0,-17,191,-5,137.36093306541443,137.36100935935974,137.3638904094696,137.37695956230164,137.52130341529846,137.52130341529846,137.52130341529846,137.52130341529846,137.52130341529846,137.52130341529846,137.52130341529846,141.5071108341217,2,4.123144149780273,None,,,,,,,,,,,,,,,,,,142,1,2025-02-27_10h33.02.453,comp,2024.2.4,57.475587663788076,2025-02-27 10h33.12.814423 -0500,
32,32,0,critical,dwh,35.0,2.1,upper,127.0,127.0,125.0,200.0,200.0,125.0,3,1.6309926509857178,None,,,,,0,0,0,0,0,32,32,29,141.52519917488098,,,,,,,,,,,,,,,,,,,,,,,,,,,,,,,,,,,,,,,,,,,,,,,,,,,,,,,,,,,,,,,,,,,,,,,,,,,,,,,,,127.0,127.0,125.0,200.0,200.0,125.0,2.1,2.12,-260,-272,0,-271,258,257,141.50867128372192,141.50874781608582,141.51200532913208,141.52519917488098,141.67111992835999,141.67111992835999,141.67111992835999,141.67111992835999,141.67111992835999,141.67111992835999,141.67111992835999,143.17804527282715,3,1.6309926509857178,None,,,,,,,,,,,,,,,,,,142,1,2025-02-27_10h33.02.453,comp,2024.2.4,57.475587663788076,2025-02-27 10h33.12.814423 -0500,
33,33,0,filler_square,None,None,None,None,None,None,None,None,None,None,2,1.2568933963775635,None,,,,,0,0,0,0,0,33,33,185,143.195387840271,,,,,,,,,,,,,,,,,,,,,,,,,,,,,,,,,,,,,,,,,,,,,,,,,,,,,,,,,,,,,,,,,,,,,,,,,,,,,,,,,143.41308031725418,71.20435625414824,147.08322308782203,147.08322308782203,77.34109698571683,114.93585244905279,3.0,3.2,-205,-277,0,13,227,288,143.17979264259338,143.17986798286438,143.1827049255371,143.195387840271,143.33896350860596,143.33896350860596,143.33896350860596,143.33896350860596,143.33896350860596,143.33896350860596,143.33896350860596,144.47138166427612,2,1.2568933963775635,None,,,,,,,,,,,,,,,,,,142,1,2025-02-27_10h33.02.453,comp,2024.2.4,57.475587663788076,2025-02-27 10h33.12.814423 -0500,
34,34,0,critical,wdh,20.0,4.0,upper,125.0,200.0,141.0,141.0,200.0,125.0,1,2.172480821609497,None,,,,,0,0,0,0,0,34,34,83,144.48736429214478,,,,,,,,,,,,,,,,,,,,,,,,,,,,,,,,,,,,,,,,,,,,,,,,,,,,,,,,,,,,,,,,,,,,,,,,,,,,,,,,,125.0,200.0,141.0,141.0,200.0,125.0,4.0,4.2,-266,-17,0,-267,229,-11,144.47299599647522,144.47309827804565,144.47649884223938,144.48736429214478,144.6355423927307,144.6355423927307,144.6355423927307,144.6355423927307,144.6355423927307,144.6355423927307,144.6355423927307,146.6754252910614,1,2.172480821609497,None,,,,,,,,,,,,,,,,,,142,1,2025-02-27_10h33.02.453,comp,2024.2.4,57.475587663788076,2025-02-27 10h33.12.814423 -0500,
35,35,0,filler_square,None,None,None,None,None,None,None,None,None,None,2,1.1083133220672607,None,,,,,0,0,0,0,0,35,35,184,146.6963551044464,,,,,,,,,,,,,,,,,,,,,,,,,,,,,,,,,,,,,,,,,,,,,,,,,,,,,,,,,,,,,,,,,,,,,,,,,,,,,,,,,70.00038831096298,122.20756815924739,125.6023354274261,125.6023354274261,88.80355192260058,81.1513879200245,3.0,3.2,-220,-263,0,-14,199,288,146.67736268043518,146.67743825912476,146.68029403686523,146.6963551044464,146.83995938301086,146.83995938301086,146.83995938301086,146.83995938301086,146.83995938301086,146.83995938301086,146.83995938301086,147.8074495792389,2,1.1083133220672607,None,,,,,,,,,,,,,,,,,,142,1,2025-02-27_10h33.02.453,comp,2024.2.4,57.475587663788076,2025-02-27 10h33.12.814423 -0500,
36,36,0,filler_square,None,None,None,None,None,None,None,None,None,None,1,1.6765751838684082,None,,,,,0,0,0,0,0,36,36,171,147.82381892204285,,,,,,,,,,,,,,,,,,,,,,,,,,,,,,,,,,,,,,,,,,,,,,,,,,,,,,,,,,,,,,,,,,,,,,,,,,,,,,,,,88.12465004276908,88.12465004276908,69.86293427799313,65.90296191688233,76.91777784976043,84.52707701238243,2.1,2.11,-173,255,0,274,171,-267,147.8092794418335,147.80935788154602,147.8128683567047,147.82381892204285,147.98004794120789,147.98004794120789,147.98004794120789,147.98004794120789,147.98004794120789,147.98004794120789,147.98004794120789,149.50759649276733,1,1.6765751838684082,None,,,,,,,,,,,,,,,,,,142,1,2025-02-27_10h33.02.453,comp,2024.2.4,57.475587663788076,2025-02-27 10h33.12.814423 -0500,
37,37,0,filler_square,None,None,None,None,None,None,None,None,None,None,3,1.496406078338623,None,,,,,0,0,0,0,0,37,37,195,149.5238494873047,,,,,,,,,,,,,,,,,,,,,,,,,,,,,,,,,,,,,,,,,,,,,,,,,,,,,,,,,,,,,,,,,,,,,,,,,,,,,,,,,77.95933142905301,155.31388197071809,141.7751929421894,117.78414092552653,155.75885683955136,155.75885683955136,4.0,4.1,-233,-256,0,-9,233,-253,149.5094702243805,149.50957417488098,149.51291680335999,149.5238494873047,149.68090415000916,149.68090415000916,149.68090415000916,149.68090415000916,149.68090415000916,149.68090415000916,149.68090415000916,151.02388715744019,3,1.496406078338623,None,,,,,,,,,,,,,,,,,,142,1,2025-02-27_10h33.02.453,comp,2024.2.4,57.475587663788076,2025-02-27 10h33.12.814423 -0500,
38,38,0,critical,whd,20.0,3.0,upper,125.0,200.0,200.0,125.0,141.0,141.0,1,1.880565881729126,None,,,,,0,0,0,0,0,38,38,93,151.04327011108398,,,,,,,,,,,,,,,,,,,,,,,,,,,,,,,,,,,,,,,,,,,,,,,,,,,,,,,,,,,,,,,,,,,,,,,,,,,,,,,,,125.0,200.0,200.0,125.0,141.0,141.0,3.0,3.2,-258,-260,0,9,229,254,151.02543354034424,151.0255105495453,151.02865839004517,151.04327011108398,151.19158387184143,151.19158387184143,151.19158387184143,151.19158387184143,151.19158387184143,151.19158387184143,151.19158387184143,152.94196844100952,1,1.880565881729126,None,,,,,,,,,,,,,,,,,,142,1,2025-02-27_10h33.02.453,comp,2024.2.4,57.475587663788076,2025-02-27 10h33.12.814423 -0500,
39,39,0,critical,dhw,35.0,2.1,upper,127.0,127.0,200.0,125.0,125.0,200.0,2,2.159108877182007,None,,,,,0,0,0,0,0,39,39,25,152.95727109909058,,,,,,,,,,,,,,,,,,,,,,,,,,,,,,,,,,,,,,,,,,,,,,,,,,,,,,,,,,,,,,,,,,,,,,,,,,,,,,,,,127.0,127.0,200.0,125.0,125.0,200.0,2.1,2.12,-222,-267,0,-289,258,266,152.94346714019775,152.94354152679443,152.94695854187012,152.95727109909058,153.1068480014801,153.1068480014801,153.1068480014801,153.1068480014801,153.1068480014801,153.1068480014801,153.1068480014801,155.12863039970398,2,2.159108877182007,None,,,,,,,,,,,,,,,,,,142,1,2025-02-27_10h33.02.453,comp,2024.2.4,57.475587663788076,2025-02-27 10h33.12.814423 -0500,
40,40,0,critical,dhw,35.0,1.0,upper,127.0,127.0,200.0,125.0,125.0,200.0,3,2.7126500606536865,None,,,,,0,0,0,0,0,40,40,49,155.1474153995514,,,,,,,,,,,,,,,,,,,,,,,,,,,,,,,,,,,,,,,,,,,,,,,,,,,,,,,,,,,,,,,,,,,,,,,,,,,,,,,,,127.0,127.0,200.0,125.0,125.0,200.0,1.0,1.1,-702,258,-480,253,-222,255,155.13054251670837,155.13067507743835,155.1337423324585,155.1474153995514,155.29279136657715,155.29279136657715,155.29279136657715,155.29279136657715,155.29279136657715,155.29279136657715,155.29279136657715,157.87686109542847,3,2.7126500606536865,None,,,,,,,,,,,,,,,,,,142,1,2025-02-27_10h33.02.453,comp,2024.2.4,57.475587663788076,2025-02-27 10h33.12.814423 -0500,
41,41,0,filler_random,None,None,None,None,None,None,None,None,None,None,2,5.4159300327301025,None,,,,,0,0,0,0,0,41,41,135,157.89247393608093,,,,,,,,,,,,,,,,,,,,,,,,,,,,,,,,,,,,,,,,,,,,,,,,,,,,,,,,,,,,,,,,,,,,,,,,,,,,,,,,,89.04375078606306,127.37814366044299,162.0484222323746,94.34408759384706,126.98056713329842,92.78965424541457,4.0,4.1,-207,-270,0,10,190,-260,157.87864685058594,157.87875986099243,157.88219022750854,157.89247393608093,158.0421667098999,158.0421667098999,158.0421667098999,158.0421667098999,158.0421667098999,158.0421667098999,158.0421667098999,163.31631755828857,2,5.4159300327301025,None,,,,,,,,,,,,,,,,,,142,1,2025-02-27_10h33.02.453,comp,2024.2.4,57.475587663788076,2025-02-27 10h33.12.814423 -0500,
42,42,0,filler_random,None,None,None,None,None,None,None,None,None,None,3,1.25553297996521,None,,,,,0,0,0,0,0,42,42,150,163.33412146568298,,,,,,,,,,,,,,,,,,,,,,,,,,,,,,,,,,,,,,,,,,,,,,,,,,,,,,,,,,,,,,,,,,,,,,,,,,,,,,,,,87.97829966316958,88.81772627232809,61.61383975529313,61.35771636229181,88.87460836586855,156.35218797280993,2.2,2.22,-171,253,0,-275,205,-290,163.3180708885193,163.31815004348755,163.32099986076355,163.33412146568298,163.47855925559998,163.47855925559998,163.47855925559998,163.47855925559998,163.47855925559998,163.47855925559998,163.47855925559998,164.59416341781616,3,1.25553297996521,None,,,,,,,,,,,,,,,,,,142,1,2025-02-27_10h33.02.453,comp,2024.2.4,57.475587663788076,2025-02-27 10h33.12.814423 -0500,
43,43,0,critical,dhw,35.0,2.1,lower,70.0,70.0,133.0,57.0,57.0,133.0,2,2.5535337924957275,None,,,,,0,0,0,0,0,43,43,24,164.61041808128357,,,,,,,,,,,,,,,,,,,,,,,,,,,,,,,,,,,,,,,,,,,,,,,,,,,,,,,,,,,,,,,,,,,,,,,,,,,,,,,,,70.0,70.0,133.0,57.0,57.0,133.0,2.1,2.12,-160,-275,0,-280,191,270,164.59563159942627,164.59570860862732,164.598774433136,164.61041808128357,164.7587707042694,164.7587707042694,164.7587707042694,164.7587707042694,164.7587707042694,164.7587707042694,164.7587707042694,167.1786346435547,2,2.5535337924957275,None,,,,,,,,,,,,,,,,,,142,1,2025-02-27_10h33.02.453,comp,2024.2.4,57.475587663788076,2025-02-27 10h33.12.814423 -0500,
44,44,0,critical,wdh,35.0,2.1,upper,125.0,200.0,127.0,127.0,200.0,125.0,1,1.0877375602722168,None,,,,,0,0,0,0,0,44,44,33,167.19615197181702,,,,,,,,,,,,,,,,,,,,,,,,,,,,,,,,,,,,,,,,,,,,,,,,,,,,,,,,,,,,,,,,,,,,,,,,,,,,,,,,,125.0,200.0,127.0,127.0,200.0,125.0,2.1,2.11,-260,260,0,281,222,-284,167.1801323890686,167.1802089214325,167.18313932418823,167.19615197181702,167.34646463394165,167.34646463394165,167.34646463394165,167.34646463394165,167.34646463394165,167.34646463394165,167.34646463394165,168.29718732833862,1,1.0877375602722168,None,,,,,,,,,,,,,,,,,,142,1,2025-02-27_10h33.02.453,comp,2024.2.4,57.475587663788076,2025-02-27 10h33.12.814423 -0500,
45,45,0,critical,whd,20.0,2.1,lower,57.0,133.0,133.0,57.0,78.0,78.0,2,5.243401765823364,None,,,,,0,0,0,0,0,45,45,14,168.3131229877472,,,,,,,,,,,,,,,,,,,,,,,,,,,,,,,,,,,,,,,,,,,,,,,,,,,,,,,,,,,,,,,,,,,,,,,,,,,,,,,,,57.0,133.0,133.0,57.0,78.0,78.0,2.1,2.12,-191,-268,0,-289,164,284,168.2987198829651,168.29879450798035,168.30282402038574,168.3131229877472,168.46486163139343,168.46486163139343,168.46486163139343,168.46486163139343,168.46486163139343,168.46486163139343,168.46486163139343,173.5652072429657,2,5.243401765823364,None,,,,,,,,,,,,,,,,,,142,1,2025-02-27_10h33.02.453,comp,2024.2.4,57.475587663788076,2025-02-27 10h33.12.814423 -0500,
46,46,0,critical,wdh,35.0,2.1,upper,125.0,200.0,127.0,127.0,200.0,125.0,1,1.7983100414276123,None,,,,,0,0,0,0,0,46,46,9,173.58159041404724,,,,,,,,,,,,,,,,,,,,,,,,,,,,,,,,,,,,,,,,,,,,,,,,,,,,,,,,,,,,,,,,,,,,,,,,,,,,,,,,,125.0,200.0,127.0,127.0,200.0,125.0,2.1,2.12,-260,-264,0,-281,222,261,173.56670928001404,173.5667862892151,173.57077050209045,173.58159041404724,173.73251271247864,173.73251271247864,173.73251271247864,173.73251271247864,173.73251271247864,173.73251271247864,173.73251271247864,175.38202619552612,1,1.7983100414276123,None,,,,,,,,,,,,,,,,,,142,1,2025-02-27_10h33.02.453,comp,2024.2.4,57.475587663788076,2025-02-27 10h33.12.814423 -0500,
47,47,0,critical,wdh,35.0,1.0,upper,125.0,200.0,127.0,127.0,200.0,125.0,3,3.1042490005493164,None,,,,,0,0,0,0,0,47,47,73,175.40356755256653,,,,,,,,,,,,,,,,,,,,,,,,,,,,,,,,,,,,,,,,,,,,,,,,,,,,,,,,,,,,,,,,,,,,,,,,,,,,,,,,,125.0,200.0,127.0,127.0,200.0,125.0,1.0,1.3,220,-281,480,-268,702,-259,175.38357734680176,175.3836545944214,175.3868613243103,175.40356755256653,175.55250144004822,175.55250144004822,175.55250144004822,175.55250144004822,175.55250144004822,175.55250144004822,175.55250144004822,178.5168673992157,3,3.1042490005493164,None,,,,,,,,,,,,,,,,,,142,1,2025-02-27_10h33.02.453,comp,2024.2.4,57.475587663788076,2025-02-27 10h33.12.814423 -0500,
48,48,0,critical,dwh,35.0,2.1,lower,70.0,70.0,57.0,133.0,133.0,57.0,2,2.0467779636383057,None,,,,,0,0,0,0,0,48,48,4,178.53356194496155,,,,,,,,,,,,,,,,,,,,,,,,,,,,,,,,,,,,,,,,,,,,,,,,,,,,,,,,,,,,,,,,,,,,,,,,,,,,,,,,,70.0,70.0,57.0,133.0,133.0,57.0,2.1,2.11,-198,257,0,266,191,-283,178.51832795143127,178.51840615272522,178.52240657806396,178.53356194496155,178.68860363960266,178.68860363960266,178.68860363960266,178.68860363960266,178.68860363960266,178.68860363960266,178.68860363960266,180.5826392173767,2,2.0467779636383057,None,,,,,,,,,,,,,,,,,,142,1,2025-02-27_10h33.02.453,comp,2024.2.4,57.475587663788076,2025-02-27 10h33.12.814423 -0500,
49,49,0,catch,None,None,None,None,None,None,None,None,None,None,1,1.220538854598999,None,,,,,0,0,0,0,0,49,49,128,180.5994062423706,,,,,,,,,,,,,,,,,,,,,,,,,,,,,,,,,,,,,,,,,,,,,,,,,,,,,,,,,,,,,,,,,,,,,,,,,,,,,,,,,168,157,84,106,106,84,2.2,2.21,-228,-265,0,280,191,273,180.58450317382812,180.58458137512207,180.5877513885498,180.5994062423706,180.74948596954346,180.74948596954346,180.74948596954346,180.74948596954346,180.74948596954346,180.74948596954346,180.74948596954346,181.8342752456665,1,1.220538854598999,None,,,,,,,,,,,,,,,,,,142,1,2025-02-27_10h33.02.453,comp,2024.2.4,57.475587663788076,2025-02-27 10h33.12.814423 -0500,
50,50,0,critical,dwh,20.0,4.0,upper,141.0,141.0,125.0,200.0,200.0,125.0,2,2.530245304107666,None,,,,,0,0,0,0,0,50,50,71,181.84997415542603,,,,,,,,,,,,,,,,,,,,,,,,,,,,,,,,,,,,,,,,,,,,,,,,,,,,,,,,,,,,,,,,,,,,,,,,,,,,,,,,,141.0,141.0,125.0,200.0,200.0,125.0,4.0,4.2,-266,14,0,-253,258,-7,181.83584642410278,181.83592057228088,181.83963441848755,181.84997415542603,182.00079655647278,182.00079655647278,182.00079655647278,182.00079655647278,182.00079655647278,182.00079655647278,182.00079655647278,184.3880386352539,2,2.530245304107666,None,,,,,,,,,,,,,,,,,,142,1,2025-02-27_10h33.02.453,comp,2024.2.4,57.475587663788076,2025-02-27 10h33.12.814423 -0500,
51,51,0,critical,whd,35.0,2.1,lower,57.0,133.0,133.0,57.0,70.0,70.0,2,3.269639253616333,None,,,,,0,0,0,0,0,51,51,36,184.40631294250488,,,,,,,,,,,,,,,,,,,,,,,,,,,,,,,,,,,,,,,,,,,,,,,,,,,,,,,,,,,,,,,,,,,,,,,,,,,,,,,,,57.0,133.0,133.0,57.0,70.0,70.0,2.1,2.11,-191,259,0,276,160,-276,184.38996481895447,184.39012145996094,184.39315462112427,184.40631294250488,184.5521423816681,184.5521423816681,184.5521423816681,184.5521423816681,184.5521423816681,184.5521423816681,184.5521423816681,187.67928814888,2,3.269639253616333,None,,,,,,,,,,,,,,,,,,142,1,2025-02-27_10h33.02.453,comp,2024.2.4,57.475587663788076,2025-02-27 10h33.12.814423 -0500,
52,52,0,filler_random,None,None,None,None,None,None,None,None,None,None,2,1.4605441093444824,None,,,,,0,0,0,0,0,52,52,148,187.69541215896606,,,,,,,,,,,,,,,,,,,,,,,,,,,,,,,,,,,,,,,,,,,,,,,,,,,,,,,,,,,,,,,,,,,,,,,,,,,,,,,,,182.13796795941724,57.39735187017625,173.42624020524454,192.344956500935,113.19030435090102,173.39232986567043,3.0,3.2,-221,-262,0,15,279,269,187.68103694915771,187.68119525909424,187.6844301223755,187.69541215896606,187.83720064163208,187.83720064163208,187.83720064163208,187.83720064163208,187.83720064163208,187.83720064163208,187.83720064163208,189.16958236694336,2,1.4605441093444824,None,,,,,,,,,,,,,,,,,,142,1,2025-02-27_10h33.02.453,comp,2024.2.4,57.475587663788076,2025-02-27 10h33.12.814423 -0500,
53,53,0,critical,whd,35.0,2.1,lower,57.0,133.0,133.0,57.0,70.0,70.0,2,2.3863718509674072,None,,,,,0,0,0,0,0,53,53,12,189.18553185462952,,,,,,,,,,,,,,,,,,,,,,,,,,,,,,,,,,,,,,,,,,,,,,,,,,,,,,,,,,,,,,,,,,,,,,,,,,,,,,,,,57.0,133.0,133.0,57.0,70.0,70.0,2.1,2.11,-191,283,0,250,160,-281,189.17110538482666,189.1711847782135,189.17430925369263,189.18553185462952,189.33430361747742,189.33430361747742,189.33430361747742,189.33430361747742,189.33430361747742,189.33430361747742,189.33430361747742,191.58730721473694,2,2.3863718509674072,None,,,,,,,,,,,,,,,,,,142,1,2025-02-27_10h33.02.453,comp,2024.2.4,57.475587663788076,2025-02-27 10h33.12.814423 -0500,
54,54,0,critical,dhw,35.0,4.0,upper,127.0,127.0,200.0,125.0,125.0,200.0,3,2.385420322418213,None,,,,,0,0,0,0,0,54,54,53,191.60268998146057,,,,,,,,,,,,,,,,,,,,,,,,,,,,,,,,,,,,,,,,,,,,,,,,,,,,,,,,,,,,,,,,,,,,,,,,,,,,,,,,,127.0,127.0,200.0,125.0,125.0,200.0,4.0,4.2,-222,0,0,-257,258,-19,191.58880805969238,191.58888220787048,191.59225702285767,191.60268998146057,191.75315117835999,191.75315117835999,191.75315117835999,191.75315117835999,191.75315117835999,191.75315117835999,191.75315117835999,194.00434279441833,3,2.385420322418213,None,,,,,,,,,,,,,,,,,,142,1,2025-02-27_10h33.02.453,comp,2024.2.4,57.475587663788076,2025-02-27 10h33.12.814423 -0500,
55,55,0,filler_random,None,None,None,None,None,None,None,None,None,None,2,0.9416384696960449,None,,,,,0,0,0,0,0,55,55,146,194.02395391464233,,,,,,,,,,,,,,,,,,,,,,,,,,,,,,,,,,,,,,,,,,,,,,,,,,,,,,,,,,,,,,,,,,,,,,,,,,,,,,,,,86.73604767569422,93.5590452014027,160.97638635452978,171.0970332164204,93.1760368038003,165.271088817345,2.1,2.11,-228,264,0,263,264,-267,194.00599002838135,194.00609874725342,194.00931334495544,194.02395391464233,194.17210221290588,194.17210221290588,194.17210221290588,194.17210221290588,194.17210221290588,194.17210221290588,194.17210221290588,194.9701189994812,2,0.9416384696960449,None,,,,,,,,,,,,,,,,,,142,1,2025-02-27_10h33.02.453,comp,2024.2.4,57.475587663788076,2025-02-27 10h33.12.814423 -0500,
56,56,0,filler_square,None,None,None,None,None,None,None,None,None,None,3,1.089428186416626,None,,,,,0,0,0,0,0,56,56,189,194.9866921901703,,,,,,,,,,,,,,,,,,,,,,,,,,,,,,,,,,,,,,,,,,,,,,,,,,,,,,,,,,,,,,,,,,,,,,,,,,,,,,,,,129.5871152234787,110.79735994189232,58.8216091492344,117.88362352328687,184.29950959670964,184.29950959670964,3.0,3.1,-210,259,0,9,247,-258,194.97180461883545,194.97188186645508,194.97479963302612,194.9866921901703,195.12474274635315,195.12474274635315,195.12474274635315,195.12474274635315,195.12474274635315,195.12474274635315,195.12474274635315,196.08908319473267,3,1.089428186416626,None,,,,,,,,,,,,,,,,,,142,1,2025-02-27_10h33.02.453,comp,2024.2.4,57.475587663788076,2025-02-27 10h33.12.814423 -0500,
57,57,0,critical,whd,35.0,3.0,upper,125.0,200.0,200.0,125.0,127.0,127.0,1,1.5950467586517334,None,,,,,0,0,0,0,0,57,57,87,196.1053581237793,,,,,,,,,,,,,,,,,,,,,,,,,,,,,,,,,,,,,,,,,,,,,,,,,,,,,,,,,,,,,,,,,,,,,,,,,,,,,,,,,125.0,200.0,200.0,125.0,127.0,127.0,3.0,3.1,-258,272,0,-20,222,-257,196.09068632125854,196.09078454971313,196.09431338310242,196.1053581237793,196.25503706932068,196.25503706932068,196.25503706932068,196.25503706932068,196.25503706932068,196.25503706932068,196.25503706932068,197.70707488059998,1,1.5950467586517334,None,,,,,,,,,,,,,,,,,,142,1,2025-02-27_10h33.02.453,comp,2024.2.4,57.475587663788076,2025-02-27 10h33.12.814423 -0500,
58,58,0,critical,whd,35.0,1.0,lower,57.0,133.0,133.0,57.0,70.0,70.0,2,2.3035459518432617,None,,,,,0,0,0,0,0,58,58,84,197.72488069534302,,,,,,,,,,,,,,,,,,,,,,,,,,,,,,,,,,,,,,,,,,,,,,,,,,,,,,,,,,,,,,,,,,,,,,,,,,,,,,,,,57.0,133.0,133.0,57.0,70.0,70.0,1.0,1.3,289,-254,480,-256,640,-276,197.70853209495544,197.7086091041565,197.71167039871216,197.72488069534302,197.8816854953766,197.8816854953766,197.8816854953766,197.8816854953766,197.8816854953766,197.8816854953766,197.8816854953766,200.04353618621826,2,2.3035459518432617,None,,,,,,,,,,,,,,,,,,142,1,2025-02-27_10h33.02.453,comp,2024.2.4,57.475587663788076,2025-02-27 10h33.12.814423 -0500,
59,59,0,critical,dhw,20.0,2.1,lower,78.0,78.0,133.0,57.0,57.0,133.0,3,9.552927255630493,None,,,,,0,0,0,0,0,59,59,26,200.05919194221497,,,,,,,,,,,,,,,,,,,,,,,,,,,,,,,,,,,,,,,,,,,,,,,,,,,,,,,,,,,,,,,,,,,,,,,,,,,,,,,,,78.0,78.0,133.0,57.0,57.0,133.0,2.1,2.11,-164,282,0,259,191,-263,200.04517126083374,200.0452480316162,200.04810547828674,200.05919194221497,200.2067186832428,200.2067186832428,200.2067186832428,200.2067186832428,200.2067186832428,200.2067186832428,200.2067186832428,209.62549304962158,3,9.552927255630493,None,,,,,,,,,,,,,,,,,,142,1,2025-02-27_10h33.02.453,comp,2024.2.4,57.475587663788076,2025-02-27 10h33.12.814423 -0500,
60,60,0,filler_random,None,None,None,None,None,None,None,None,None,None,2,1.4268648624420166,None,,,,,0,0,0,0,0,60,60,137,209.64189410209656,,,,,,,,,,,,,,,,,,,,,,,,,,,,,,,,,,,,,,,,,,,,,,,,,,,,,,,,,,,,,,,,,,,,,,,,,,,,,,,,,180.2038319495593,97.35745899285351,117.78542368764583,186.42424472545918,137.16805279881513,70.39244066385083,2.2,2.22,-238,265,0,-266,224,-284,209.62716794013977,209.62727808952332,209.63055729866028,209.64189410209656,209.78203892707825,209.78203892707825,209.78203892707825,209.78203892707825,209.78203892707825,209.78203892707825,209.78203892707825,211.07359266281128,2,1.4268648624420166,None,,,,,,,,,,,,,,,,,,142,1,2025-02-27_10h33.02.453,comp,2024.2.4,57.475587663788076,2025-02-27 10h33.12.814423 -0500,
61,61,0,critical,whd,20.0,2.1,upper,125.0,200.0,200.0,125.0,141.0,141.0,2,3.377305030822754,None,,,,,0,0,0,0,0,61,61,15,211.09082293510437,,,,,,,,,,,,,,,,,,,,,,,,,,,,,,,,,,,,,,,,,,,,,,,,,,,,,,,,,,,,,,,,,,,,,,,,,,,,,,,,,125.0,200.0,200.0,125.0,141.0,141.0,2.1,2.11,-258,281,0,275,229,-268,211.07502555847168,211.07513236999512,211.07798790931702,211.09082293510437,211.22789883613586,211.22789883613586,211.22789883613586,211.22789883613586,211.22789883613586,211.22789883613586,211.22789883613586,214.47980618476868,2,3.377305030822754,None,,,,,,,,,,,,,,,,,,142,1,2025-02-27_10h33.02.453,comp,2024.2.4,57.475587663788076,2025-02-27 10h33.12.814423 -0500,
62,62,0,critical,dhw,35.0,4.0,lower,70.0,70.0,133.0,57.0,57.0,133.0,3,5.018583536148071,None,,,,,0,0,0,0,0,62,62,52,214.4974639415741,,,,,,,,,,,,,,,,,,,,,,,,,,,,,,,,,,,,,,,,,,,,,,,,,,,,,,,,,,,,,,,,,,,,,,,,,,,,,,,,,70.0,70.0,133.0,57.0,57.0,133.0,4.0,4.1,-160,-271,0,-8,191,-275,214.48128962516785,214.48136734962463,214.48428058624268,214.4974639415741,214.64460277557373,214.64460277557373,214.64460277557373,214.64460277557373,214.64460277557373,214.64460277557373,214.64460277557373,219.5271155834198,3,5.018583536148071,None,,,,,,,,,,,,,,,,,,142,1,2025-02-27_10h33.02.453,comp,2024.2.4,57.475587663788076,2025-02-27 10h33.12.814423 -0500,
63,63,0,critical,hwd,35.0,4.0,lower,133.0,57.0,57.0,133.0,70.0,70.0,2,4.228907108306885,None,,,,,0,0,0,0,0,63,63,100,219.54297399520874,,,,,,,,,,,,,,,,,,,,,,,,,,,,,,,,,,,,,,,,,,,,,,,,,,,,,,,,,,,,,,,,,,,,,,,,,,,,,,,,,133.0,57.0,57.0,133.0,70.0,70.0,4.0,4.1,-191,-262,0,-6,198,-256,219.52869200706482,219.52876687049866,219.53212594985962,219.54297399520874,219.69901847839355,219.69901847839355,219.69901847839355,219.69901847839355,219.69901847839355,219.69901847839355,219.69901847839355,223.78343749046326,2,4.228907108306885,None,,,,,,,,,,,,,,,,,,142,1,2025-02-27_10h33.02.453,comp,2024.2.4,57.475587663788076,2025-02-27 10h33.12.814423 -0500,
64,64,0,filler_square,None,None,None,None,None,None,None,None,None,None,3,1.5703275203704834,None,,,,,0,0,0,0,0,64,64,209,223.80157113075256,,,,,,,,,,,,,,,,,,,,,,,,,,,,,,,,,,,,,,,,,,,,,,,,,,,,,,,,,,,,,,,,,,,,,,,,,,,,,,,,,139.20608634457,142.43932726820796,114.53013362314357,90.81267442448448,149.35875411305057,149.35875411305057,4.0,4.2,-213,-6,0,-254,216,-7,223.78537225723267,223.78548955917358,223.7885036468506,223.80157113075256,223.9483518600464,223.9483518600464,223.9483518600464,223.9483518600464,223.9483518600464,223.9483518600464,223.9483518600464,225.38541531562805,3,1.5703275203704834,None,,,,,,,,,,,,,,,,,,142,1,2025-02-27_10h33.02.453,comp,2024.2.4,57.475587663788076,2025-02-27 10h33.12.814423 -0500,
65,65,0,filler_square,None,None,None,None,None,None,None,None,None,None,2,7.573805570602417,None,,,,,0,0,0,0,0,65,65,188,225.40614891052246,,,,,,,,,,,,,,,,,,,,,,,,,,,,,,,,,,,,,,,,,,,,,,,,,,,,,,,,,,,,,,,,,,,,,,,,,,,,,,,,,72.6715974568045,62.28776027975662,81.12853808394777,81.12853808394777,79.15982579417248,72.9414429337686,1.0,1.3,312,-273,480,-287,653,-279,225.38730931282043,225.38738703727722,225.3905131816864,225.40614891052246,225.55330681800842,225.55330681800842,225.55330681800842,225.55330681800842,225.55330681800842,225.55330681800842,225.55330681800842,232.9839382171631,2,7.573805570602417,None,,,,,,,,,,,,,,,,,,142,1,2025-02-27_10h33.02.453,comp,2024.2.4,57.475587663788076,2025-02-27 10h33.12.814423 -0500,
66,66,0,filler_square,None,None,None,None,None,None,None,None,None,None,3,1.5475327968597412,None,,,,,0,0,0,0,0,66,66,198,233.0006844997406,,,,,,,,,,,,,,,,,,,,,,,,,,,,,,,,,,,,,,,,,,,,,,,,,,,,,,,,,,,,,,,,,,,,,,,,,,,,,,,,,78.8344324187843,88.52589561034324,100.61543404625178,75.82860331256612,111.70544474218286,111.70544474218286,2.2,2.22,-178,274,0,-255,190,-251,232.9857668876648,232.98584532737732,232.98988270759583,233.0006844997406,233.1491138935089,233.1491138935089,233.1491138935089,233.1491138935089,233.1491138935089,233.1491138935089,233.1491138935089,234.56715059280396,3,1.5475327968597412,None,,,,,,,,,,,,,,,,,,142,1,2025-02-27_10h33.02.453,comp,2024.2.4,57.475587663788076,2025-02-27 10h33.12.814423 -0500,
67,67,0,critical,dhw,20.0,2.1,upper,141.0,141.0,200.0,125.0,125.0,200.0,3,1.4733588695526123,None,,,,,0,0,0,0,0,67,67,3,234.58648991584778,,,,,,,,,,,,,,,,,,,,,,,,,,,,,,,,,,,,,,,,,,,,,,,,,,,,,,,,,,,,,,,,,,,,,,,,,,,,,,,,,141.0,141.0,200.0,125.0,125.0,200.0,2.1,2.12,-229,-279,0,-263,258,268,234.56870293617249,234.56877779960632,234.57200002670288,234.58648991584778,234.7344958782196,234.7344958782196,234.7344958782196,234.7344958782196,234.7344958782196,234.7344958782196,234.7344958782196,236.07366490364075,3,1.4733588695526123,None,,,,,,,,,,,,,,,,,,142,1,2025-02-27_10h33.02.453,comp,2024.2.4,57.475587663788076,2025-02-27 10h33.12.814423 -0500,
68,68,0,filler_square,None,None,None,None,None,None,None,None,None,None,2,1.0618946552276611,None,,,,,0,0,0,0,0,68,68,180,236.09399151802063,,,,,,,,,,,,,,,,,,,,,,,,,,,,,,,,,,,,,,,,,,,,,,,,,,,,,,,,,,,,,,,,,,,,,,,,,,,,,,,,,127.4264422183072,84.46092007638867,141.53237552097792,141.53237552097792,63.71251288683882,64.34198783789998,3.0,3.1,-209,260,0,2,199,-252,236.07550358772278,236.07563734054565,236.0788323879242,236.09399151802063,236.2358729839325,236.2358729839325,236.2358729839325,236.2358729839325,236.2358729839325,236.2358729839325,236.2358729839325,237.17115187644958,2,1.0618946552276611,None,,,,,,,,,,,,,,,,,,142,1,2025-02-27_10h33.02.453,comp,2024.2.4,57.475587663788076,2025-02-27 10h33.12.814423 -0500,
69,69,0,critical,hwd,20.0,3.0,upper,200.0,125.0,125.0,200.0,141.0,141.0,2,2.8283941745758057,None,,,,,0,0,0,0,0,69,69,105,237.19171810150146,,,,,,,,,,,,,,,,,,,,,,,,,,,,,,,,,,,,,,,,,,,,,,,,,,,,,,,,,,,,,,,,,,,,,,,,,,,,,,,,,200.0,125.0,125.0,200.0,141.0,141.0,3.0,3.2,-258,-253,0,-4,266,273,237.17272400856018,237.17279982566833,237.17648100852966,237.19171810150146,237.33473825454712,237.33473825454712,237.33473825454712,237.33473825454712,237.33473825454712,237.33473825454712,237.33473825454712,240.02297353744507,2,2.8283941745758057,None,,,,,,,,,,,,,,,,,,142,1,2025-02-27_10h33.02.453,comp,2024.2.4,57.475587663788076,2025-02-27 10h33.12.814423 -0500,
70,70,0,filler_random,None,None,None,None,None,None,None,None,None,None,3,0.9297645092010498,None,,,,,0,0,0,0,0,70,70,163,240.04230451583862,,,,,,,,,,,,,,,,,,,,,,,,,,,,,,,,,,,,,,,,,,,,,,,,,,,,,,,,,,,,,,,,,,,,,,,,,,,,,,,,,61.2190156597239,136.6228827464294,102.83730571071783,108.67899871910012,172.5749306524761,119.70871514125969,3.0,3.1,-219,281,0,-7,210,-285,240.02472758293152,240.02480483055115,240.02773594856262,240.04230451583862,240.1869294643402,240.1869294643402,240.1869294643402,240.1869294643402,240.1869294643402,240.1869294643402,240.1869294643402,240.9755458831787,3,0.9297645092010498,None,,,,,,,,,,,,,,,,,,142,1,2025-02-27_10h33.02.453,comp,2024.2.4,57.475587663788076,2025-02-27 10h33.12.814423 -0500,
71,71,0,filler_random,None,None,None,None,None,None,None,None,None,None,1,1.0007483959197998,None,,,,,0,0,0,0,0,71,71,154,240.9957320690155,,,,,,,,,,,,,,,,,,,,,,,,,,,,,,,,,,,,,,,,,,,,,,,,,,,,,,,,,,,,,,,,,,,,,,,,,,,,,,,,,149.44602351755668,157.8987073157973,190.1304903249025,57.019252498743356,75.74516563773142,143.9057771059986,2.2,2.22,-203,260,0,-286,196,-287,240.9772171974182,240.97729396820068,240.98015189170837,240.9957320690155,241.13236236572266,241.13236236572266,241.13236236572266,241.13236236572266,241.13236236572266,241.13236236572266,241.13236236572266,242.0039200782776,1,1.0007483959197998,None,,,,,,,,,,,,,,,,,,142,1,2025-02-27_10h33.02.453,comp,2024.2.4,57.475587663788076,2025-02-27 10h33.12.814423 -0500,
72,72,0,critical,dhw,20.0,4.0,upper,141.0,141.0,200.0,125.0,125.0,200.0,3,1.4883785247802734,None,,,,,0,0,0,0,0,72,72,59,242.019513130188,,,,,,,,,,,,,,,,,,,,,,,,,,,,,,,,,,,,,,,,,,,,,,,,,,,,,,,,,,,,,,,,,,,,,,,,,,,,,,,,,141.0,141.0,200.0,125.0,125.0,200.0,4.0,4.2,-229,-13,0,-267,258,-2,242.00544834136963,242.00552558898926,242.00891494750977,242.019513130188,242.16947865486145,242.16947865486145,242.16947865486145,242.16947865486145,242.16947865486145,242.16947865486145,242.16947865486145,243.5194797515869,3,1.4883785247802734,None,,,,,,,,,,,,,,,,,,142,1,2025-02-27_10h33.02.453,comp,2024.2.4,57.475587663788076,2025-02-27 10h33.12.814423 -0500,
73,73,0,filler_square,None,None,None,None,None,None,None,None,None,None,1,0.9228425025939941,None,,,,,0,0,0,0,0,73,73,199,243.53721737861633,,,,,,,,,,,,,,,,,,,,,,,,,,,,,,,,,,,,,,,,,,,,,,,,,,,,,,,,,,,,,,,,,,,,,,,,,,,,,,,,,174.86925942912058,174.86925942912058,162.4868957729197,97.86191019655627,173.07096019488733,73.97617098251365,4.0,4.2,-232,16,0,-268,182,20,243.52141451835632,243.521493434906,243.52482151985168,243.53721737861633,243.69409847259521,243.69409847259521,243.69409847259521,243.69409847259521,243.69409847259521,243.69409847259521,243.69409847259521,244.47075390815735,1,0.9228425025939941,None,,,,,,,,,,,,,,,,,,142,1,2025-02-27_10h33.02.453,comp,2024.2.4,57.475587663788076,2025-02-27 10h33.12.814423 -0500,
74,74,0,filler_random,None,None,None,None,None,None,None,None,None,None,2,1.1234757900238037,None,,,,,0,0,0,0,0,74,74,136,244.48904490470886,,,,,,,,,,,,,,,,,,,,,,,,,,,,,,,,,,,,,,,,,,,,,,,,,,,,,,,,,,,,,,,,,,,,,,,,,,,,,,,,,66.90641864798343,146.6913064445535,102.20018136537291,189.86866466549594,100.31011153140336,171.6961989850651,2.2,2.21,-264,-265,0,260,277,259,244.47251439094543,244.47262525558472,244.47586512565613,244.48904490470886,244.6383762359619,244.6383762359619,244.6383762359619,244.6383762359619,244.6383762359619,244.6383762359619,244.6383762359619,245.6212615966797,2,1.1234757900238037,None,,,,,,,,,,,,,,,,,,142,1,2025-02-27_10h33.02.453,comp,2024.2.4,57.475587663788076,2025-02-27 10h33.12.814423 -0500,
75,75,0,filler_random,None,None,None,None,None,None,None,None,None,None,2,1.2710332870483398,None,,,,,0,0,0,0,0,75,75,162,245.63702535629272,,,,,,,,,,,,,,,,,,,,,,,,,,,,,,,,,,,,,,,,,,,,,,,,,,,,,,,,,,,,,,,,,,,,,,,,,,,,,,,,,120.89482539542365,187.89021094620443,198.47907377777605,194.91612632166328,75.8018529269697,162.80574065909036,2.1,2.11,-287,259,0,263,275,-281,245.62299227714539,245.62309288978577,245.62644338607788,245.63702535629272,245.79121088981628,245.79121088981628,245.79121088981628,245.79121088981628,245.79121088981628,245.79121088981628,245.79121088981628,246.92144560813904,2,1.2710332870483398,None,,,,,,,,,,,,,,,,,,142,1,2025-02-27_10h33.02.453,comp,2024.2.4,57.475587663788076,2025-02-27 10h33.12.814423 -0500,
76,76,0,critical,dhw,35.0,1.0,lower,70.0,70.0,133.0,57.0,57.0,133.0,3,7.611985921859741,None,,,,,0,0,0,0,0,76,76,48,246.93668460845947,,,,,,,,,,,,,,,,,,,,,,,,,,,,,,,,,,,,,,,,,,,,,,,,,,,,,,,,,,,,,,,,,,,,,,,,,,,,,,,,,70.0,70.0,133.0,57.0,57.0,133.0,1.0,1.1,-640,266,-480,274,-289,270,246.92293691635132,246.92301201820374,246.9264600276947,246.93668460845947,247.08609795570374,247.08609795570374,247.08609795570374,247.08609795570374,247.08609795570374,247.08609795570374,247.08609795570374,254.55804991722107,3,7.611985921859741,None,,,,,,,,,,,,,,,,,,142,1,2025-02-27_10h33.02.453,comp,2024.2.4,57.475587663788076,2025-02-27 10h33.12.814423 -0500,
77,77,0,filler_random,None,None,None,None,None,None,None,None,None,None,3,1.2244157791137695,None,,,,,0,0,0,0,0,77,77,134,254.57413268089294,,,,,,,,,,,,,,,,,,,,,,,,,,,,,,,,,,,,,,,,,,,,,,,,,,,,,,,,,,,,,,,,,,,,,,,,,,,,,,,,,117.15302803972509,71.46417813985151,69.77292558867279,77.3138084093637,153.36437328705523,161.98576062182912,1.0,1.3,310,-288,480,-279,696,-260,254.55976724624634,254.5598440170288,254.56329917907715,254.57413268089294,254.7220480442047,254.7220480442047,254.7220480442047,254.7220480442047,254.7220480442047,254.7220480442047,254.7220480442047,255.80980777740479,3,1.2244157791137695,None,,,,,,,,,,,,,,,,,,142,1,2025-02-27_10h33.02.453,comp,2024.2.4,57.475587663788076,2025-02-27 10h33.12.814423 -0500,
78,78,0,critical,dhw,35.0,3.0,upper,127.0,127.0,200.0,125.0,125.0,200.0,2,1.866952657699585,None,,,,,0,0,0,0,0,78,78,51,255.82513093948364,,,,,,,,,,,,,,,,,,,,,,,,,,,,,,,,,,,,,,,,,,,,,,,,,,,,,,,,,,,,,,,,,,,,,,,,,,,,,,,,,127.0,127.0,200.0,125.0,125.0,200.0,3.0,3.2,-222,-287,0,-6,258,265,255.811292886734,255.81137108802795,255.81444764137268,255.82513093948364,255.9790859222412,255.9790859222412,255.9790859222412,255.9790859222412,255.9790859222412,255.9790859222412,255.9790859222412,257.6952004432678,2,1.866952657699585,None,,,,,,,,,,,,,,,,,,142,1,2025-02-27_10h33.02.453,comp,2024.2.4,57.475587663788076,2025-02-27 10h33.12.814423 -0500,
79,79,0,filler_random,None,None,None,None,None,None,None,None,None,None,3,1.9278669357299805,None,,,,,0,0,0,0,0,79,79,145,257.71635723114014,,,,,,,,,,,,,,,,,,,,,,,,,,,,,,,,,,,,,,,,,,,,,,,,,,,,,,,,,,,,,,,,,,,,,,,,,,,,,,,,,132.71539436932733,127.9755636452044,110.57180012499902,114.55071840742966,88.78975499248483,193.1929718539999,4.0,4.1,-217,-250,0,-12,250,-281,257.69701170921326,257.6971552371979,257.70044779777527,257.71635723114014,257.8582422733307,257.8582422733307,257.8582422733307,257.8582422733307,257.8582422733307,257.8582422733307,257.8582422733307,259.6586375236511,3,1.9278669357299805,None,,,,,,,,,,,,,,,,,,142,1,2025-02-27_10h33.02.453,comp,2024.2.4,57.475587663788076,2025-02-27 10h33.12.814423 -0500,
80,80,0,critical,dhw,20.0,1.0,upper,141.0,141.0,200.0,125.0,125.0,200.0,2,5.306255102157593,None,,,,,0,0,0,0,0,80,80,55,259.6739218235016,,,,,,,,,,,,,,,,,,,,,,,,,,,,,,,,,,,,,,,,,,,,,,,,,,,,,,,,,,,,,,,,,,,,,,,,,,,,,,,,,141.0,141.0,200.0,125.0,125.0,200.0,1.0,1.1,-709,272,-480,285,-222,275,259.66011595726013,259.6602385044098,259.66364645957947,259.6739218235016,259.8238353729248,259.8238353729248,259.8238353729248,259.8238353729248,259.8238353729248,259.8238353729248,259.8238353729248,264.99419498443604,2,5.306255102157593,None,,,,,,,,,,,,,,,,,,142,1,2025-02-27_10h33.02.453,comp,2024.2.4,57.475587663788076,2025-02-27 10h33.12.814423 -0500,
81,81,0,filler_square,None,None,None,None,None,None,None,None,None,None,3,1.450416088104248,None,,,,,0,0,0,0,0,81,81,208,265.0103192329407,,,,,,,,,,,,,,,,,,,,,,,,,,,,,,,,,,,,,,,,,,,,,,,,,,,,,,,,,,,,,,,,,,,,,,,,,,,,,,,,,65.47875613203266,95.78569389623664,65.5547437070293,87.6201850173648,105.88776362952065,105.88776362952065,2.1,2.11,-188,268,0,265,193,-262,264.99592542648315,264.99600100517273,265.0000231266022,265.0103192329407,265.16184401512146,265.16184401512146,265.16184401512146,265.16184401512146,265.16184401512146,265.16184401512146,265.16184401512146,266.46677923202515,3,1.450416088104248,None,,,,,,,,,,,,,,,,,,142,1,2025-02-27_10h33.02.453,comp,2024.2.4,57.475587663788076,2025-02-27 10h33.12.814423 -0500,
82,82,0,critical,hdw,20.0,2.1,lower,133.0,57.0,78.0,78.0,57.0,133.0,3,2.8488919734954834,None,,,,,0,0,0,0,0,82,82,22,266.4833450317383,,,,,,,,,,,,,,,,,,,,,,,,,,,,,,,,,,,,,,,,,,,,,,,,,,,,,,,,,,,,,,,,,,,,,,,,,,,,,,,,,133.0,57.0,78.0,78.0,57.0,133.0,2.1,2.11,-164,271,0,251,202,-267,266.4683618545532,266.46843934059143,266.47175097465515,266.4833450317383,266.6271929740906,266.6271929740906,266.6271929740906,266.6271929740906,266.6271929740906,266.6271929740906,266.6271929740906,269.3452785015106,3,2.8488919734954834,None,,,,,,,,,,,,,,,,,,142,1,2025-02-27_10h33.02.453,comp,2024.2.4,57.475587663788076,2025-02-27 10h33.12.814423 -0500,
83,83,0,filler_square,None,None,None,None,None,None,None,None,None,None,2,1.5071327686309814,None,,,,,0,0,0,0,0,83,83,201,269.36093068122864,,,,,,,,,,,,,,,,,,,,,,,,,,,,,,,,,,,,,,,,,,,,,,,,,,,,,,,,,,,,,,,,,,,,,,,,,,,,,,,,,58.64686761906252,146.91993711152082,171.2670693770948,171.2670693770948,146.78766727486874,161.64378387771188,3.0,3.1,-255,266,0,13,262,-268,269.3471140861511,269.34719014167786,269.35052132606506,269.36093068122864,269.5142288208008,269.5142288208008,269.5142288208008,269.5142288208008,269.5142288208008,269.5142288208008,269.5142288208008,270.8816590309143,2,1.5071327686309814,None,,,,,,,,,,,,,,,,,,142,1,2025-02-27_10h33.02.453,comp,2024.2.4,57.475587663788076,2025-02-27 10h33.12.814423 -0500,
84,84,0,catch,None,None,None,None,None,None,None,None,None,None,3,1.3444128036499023,None,,,,,0,0,0,0,0,84,84,129,270.9001557826996,,,,,,,,,,,,,,,,,,,,,,,,,,,,,,,,,,,,,,,,,,,,,,,,,,,,,,,,,,,,,,,,,,,,,,,,,,,,,,,,,87,103,128,62,157,168,2.1,2.12,-178,-275,0,-262,211,273,270.88420391082764,270.884286403656,270.88720321655273,270.9001557826996,271.0458221435547,271.0458221435547,271.0458221435547,271.0458221435547,271.0458221435547,271.0458221435547,271.0458221435547,272.24786734580994,3,1.3444128036499023,None,,,,,,,,,,,,,,,,,,142,1,2025-02-27_10h33.02.453,comp,2024.2.4,57.475587663788076,2025-02-27 10h33.12.814423 -0500,
85,85,0,critical,hdw,35.0,2.1,upper,200.0,125.0,127.0,127.0,125.0,200.0,1,4.164821147918701,None,,,,,0,0,0,0,0,85,85,21,272.2632133960724,,,,,,,,,,,,,,,,,,,,,,,,,,,,,,,,,,,,,,,,,,,,,,,,,,,,,,,,,,,,,,,,,,,,,,,,,,,,,,,,,200.0,125.0,127.0,127.0,125.0,200.0,2.1,2.12,-222,-261,0,-273,260,252,272.2494740486145,272.24955129623413,272.2525689601898,272.2632133960724,272.412321805954,272.412321805954,272.412321805954,272.412321805954,272.412321805954,272.412321805954,272.412321805954,276.4314889907837,1,4.164821147918701,None,,,,,,,,,,,,,,,,,,142,1,2025-02-27_10h33.02.453,comp,2024.2.4,57.475587663788076,2025-02-27 10h33.12.814423 -0500,
86,86,0,critical,dwh,35.0,3.0,lower,70.0,70.0,57.0,133.0,133.0,57.0,3,3.196984052658081,None,,,,,0,0,0,0,0,86,86,62,276.4471037387848,,,,,,,,,,,,,,,,,,,,,,,,,,,,,,,,,,,,,,,,,,,,,,,,,,,,,,,,,,,,,,,,,,,,,,,,,,,,,,,,,70.0,70.0,57.0,133.0,133.0,57.0,3.0,3.1,-198,272,0,-9,191,-251,276.43291568756104,276.43299102783203,276.43640995025635,276.4471037387848,276.59916615486145,276.59916615486145,276.59916615486145,276.59916615486145,276.59916615486145,276.59916615486145,276.59916615486145,279.64836049079895,3,3.196984052658081,None,,,,,,,,,,,,,,,,,,142,1,2025-02-27_10h33.02.453,comp,2024.2.4,57.475587663788076,2025-02-27 10h33.12.814423 -0500,
87,87,0,critical,dwh,35.0,2.1,lower,70.0,70.0,57.0,133.0,133.0,57.0,3,2.180332660675049,None,,,,,0,0,0,0,0,87,87,28,279.6642527580261,,,,,,,,,,,,,,,,,,,,,,,,,,,,,,,,,,,,,,,,,,,,,,,,,,,,,,,,,,,,,,,,,,,,,,,,,,,,,,,,,70.0,70.0,57.0,133.0,133.0,57.0,2.1,2.11,-198,259,0,253,191,-282,279.6499261856079,279.6500041484833,279.65348267555237,279.6642527580261,279.8159022331238,279.8159022331238,279.8159022331238,279.8159022331238,279.8159022331238,279.8159022331238,279.8159022331238,281.85016083717346,3,2.180332660675049,None,,,,,,,,,,,,,,,,,,142,1,2025-02-27_10h33.02.453,comp,2024.2.4,57.475587663788076,2025-02-27 10h33.12.814423 -0500,
88,88,0,filler_random,None,None,None,None,None,None,None,None,None,None,3,1.0020570755004883,None,,,,,0,0,0,0,0,88,88,166,281.8662631511688,,,,,,,,,,,,,,,,,,,,,,,,,,,,,,,,,,,,,,,,,,,,,,,,,,,,,,,,,,,,,,,,,,,,,,,,,,,,,,,,,69.34736879652687,137.37727785112588,122.22472189968022,124.89816228857589,153.27916452980577,148.33557756200523,2.2,2.21,-227,-287,0,260,233,265,281.8518512248993,281.8519287109375,281.85545325279236,281.8662631511688,282.0158462524414,282.0158462524414,282.0158462524414,282.0158462524414,282.0158462524414,282.0158462524414,282.0158462524414,282.88291478157043,3,1.0020570755004883,None,,,,,,,,,,,,,,,,,,142,1,2025-02-27_10h33.02.453,comp,2024.2.4,57.475587663788076,2025-02-27 10h33.12.814423 -0500,
89,89,0,critical,dhw,20.0,3.0,upper,141.0,141.0,200.0,125.0,125.0,200.0,2,3.690279483795166,None,,,,,0,0,0,0,0,89,89,57,282.89809465408325,,,,,,,,,,,,,,,,,,,,,,,,,,,,,,,,,,,,,,,,,,,,,,,,,,,,,,,,,,,,,,,,,,,,,,,,,,,,,,,,,141.0,141.0,200.0,125.0,125.0,200.0,3.0,3.2,-229,-262,0,-7,258,282,282.88443517684937,282.8845098018646,282.88782238960266,282.89809465408325,283.04955291748047,283.04955291748047,283.04955291748047,283.04955291748047,283.04955291748047,283.04955291748047,283.04955291748047,286.5944890975952,2,3.690279483795166,None,,,,,,,,,,,,,,,,,,142,1,2025-02-27_10h33.02.453,comp,2024.2.4,57.475587663788076,2025-02-27 10h33.12.814423 -0500,
90,90,0,critical,wdh,35.0,4.0,lower,57.0,133.0,70.0,70.0,133.0,57.0,3,3.646219491958618,None,,,,,0,0,0,0,0,90,90,76,286.61460876464844,,,,,,,,,,,,,,,,,,,,,,,,,,,,,,,,,,,,,,,,,,,,,,,,,,,,,,,,,,,,,,,,,,,,,,,,,,,,,,,,,57.0,133.0,70.0,70.0,133.0,57.0,4.0,4.1,-198,-257,0,-17,160,-278,286.5959448814392,286.5960428714752,286.59892654418945,286.61460876464844,286.75181460380554,286.75181460380554,286.75181460380554,286.75181460380554,286.75181460380554,286.75181460380554,286.75181460380554,290.2666733264923,3,3.646219491958618,None,,,,,,,,,,,,,,,,,,142,1,2025-02-27_10h33.02.453,comp,2024.2.4,57.475587663788076,2025-02-27 10h33.12.814423 -0500,
91,91,0,filler_random,None,None,None,None,None,None,None,None,None,None,2,3.60075044631958,None,,,,,0,0,0,0,0,91,91,167,290.28340768814087,,,,,,,,,,,,,,,,,,,,,,,,,,,,,,,,,,,,,,,,,,,,,,,,,,,,,,,,,,,,,,,,,,,,,,,,,,,,,,,,,115.06839791881023,68.43079570495978,129.52463162237882,180.10090290653272,169.18059528371526,145.69456960646633,2.1,2.11,-220,273,0,271,259,-288,290.2684006690979,290.2684795856476,290.2717661857605,290.28340768814087,290.4206120967865,290.4206120967865,290.4206120967865,290.4206120967865,290.4206120967865,290.4206120967865,290.4206120967865,293.88893151283264,2,3.60075044631958,None,,,,,,,,,,,,,,,,,,142,1,2025-02-27_10h33.02.453,comp,2024.2.4,57.475587663788076,2025-02-27 10h33.12.814423 -0500,
92,92,0,critical,whd,20.0,1.0,lower,57.0,133.0,133.0,57.0,78.0,78.0,2,2.3361473083496094,None,,,,,0,0,0,0,0,92,92,90,293.9085555076599,,,,,,,,,,,,,,,,,,,,,,,,,,,,,,,,,,,,,,,,,,,,,,,,,,,,,,,,,,,,,,,,,,,,,,,,,,,,,,,,,57.0,133.0,133.0,57.0,78.0,78.0,1.0,1.2,-191,-5,0,-15,164,-8,293.89051580429077,293.89059376716614,293.89368891716003,293.9085555076599,294.05727314949036,294.05727314949036,294.05727314949036,294.05727314949036,294.05727314949036,294.05727314949036,294.05727314949036,296.2538003921509,2,2.3361473083496094,None,,,,,,,,,,,,,,,,,,142,1,2025-02-27_10h33.02.453,comp,2024.2.4,57.475587663788076,2025-02-27 10h33.12.814423 -0500,
93,93,0,filler_square,None,None,None,None,None,None,None,None,None,None,3,1.0797910690307617,None,,,,,0,0,0,0,0,93,93,207,296.2688341140747,,,,,,,,,,,,,,,,,,,,,,,,,,,,,,,,,,,,,,,,,,,,,,,,,,,,,,,,,,,,,,,,,,,,,,,,,,,,,,,,,124.5631252374037,132.45921013864842,123.02132044726272,113.8999379562772,189.02179340558763,189.02179340558763,3.0,3.1,-219,263,0,11,247,-280,296.2556848526001,296.25576305389404,296.25918412208557,296.2688341140747,296.4234745502472,296.4234745502472,296.4234745502472,296.4234745502472,296.4234745502472,296.4234745502472,296.4234745502472,297.3540287017822,3,1.0797910690307617,None,,,,,,,,,,,,,,,,,,142,1,2025-02-27_10h33.02.453,comp,2024.2.4,57.475587663788076,2025-02-27 10h33.12.814423 -0500,
94,94,0,critical,wdh,35.0,1.0,lower,57.0,133.0,70.0,70.0,133.0,57.0,3,3.578798770904541,None,,,,,0,0,0,0,0,94,94,72,297.36986804008484,,,,,,,,,,,,,,,,,,,,,,,,,,,,,,,,,,,,,,,,,,,,,,,,,,,,,,,,,,,,,,,,,,,,,,,,,,,,,,,,,57.0,133.0,70.0,70.0,133.0,57.0,1.0,1.2,-198,-20,0,-7,160,19,297.35554337501526,297.35562324523926,297.3589828014374,297.36986804008484,297.5177938938141,297.5177938938141,297.5177938938141,297.5177938938141,297.5177938938141,297.5177938938141,297.5177938938141,300.95560932159424,3,3.578798770904541,None,,,,,,,,,,,,,,,,,,142,1,2025-02-27_10h33.02.453,comp,2024.2.4,57.475587663788076,2025-02-27 10h33.12.814423 -0500,
95,95,0,critical,dhw,35.0,2.1,upper,127.0,127.0,200.0,125.0,125.0,200.0,3,6.495476484298706,None,,,,,0,0,0,0,0,95,95,1,300.9728271961212,,,,,,,,,,,,,,,,,,,,,,,,,,,,,,,,,,,,,,,,,,,,,,,,,,,,,,,,,,,,,,,,,,,,,,,,,,,,,,,,,127.0,127.0,200.0,125.0,125.0,200.0,2.1,2.11,-222,272,0,268,258,-269,300.9570860862732,300.9571650028229,300.9612293243408,300.9728271961212,301.11872482299805,301.11872482299805,301.11872482299805,301.11872482299805,301.11872482299805,301.11872482299805,301.11872482299805,307.47740411758423,3,6.495476484298706,None,,,,,,,,,,,,,,,,,,142,1,2025-02-27_10h33.02.453,comp,2024.2.4,57.475587663788076,2025-02-27 10h33.12.814423 -0500,
96,96,0,critical,whd,20.0,2.1,upper,125.0,200.0,200.0,125.0,141.0,141.0,1,3.8706183433532715,None,,,,,0,0,0,0,0,96,96,39,307.4937415122986,,,,,,,,,,,,,,,,,,,,,,,,,,,,,,,,,,,,,,,,,,,,,,,,,,,,,,,,,,,,,,,,,,,,,,,,,,,,,,,,,125.0,200.0,200.0,125.0,141.0,141.0,2.1,2.11,-258,273,0,262,229,-256,307.4789979457855,307.4791169166565,307.48218512535095,307.4937415122986,307.6411576271057,307.6411576271057,307.6411576271057,307.6411576271057,307.6411576271057,307.6411576271057,307.6411576271057,311.3765609264374,1,3.8706183433532715,None,,,,,,,,,,,,,,,,,,142,1,2025-02-27_10h33.02.453,comp,2024.2.4,57.475587663788076,2025-02-27 10h33.12.814423 -0500,
97,97,0,critical,whd,35.0,1.0,upper,125.0,200.0,200.0,125.0,127.0,127.0,1,2.4310829639434814,None,,,,,0,0,0,0,0,97,97,85,311.3971061706543,,,,,,,,,,,,,,,,,,,,,,,,,,,,,,,,,,,,,,,,,,,,,,,,,,,,,,,,,,,,,,,,,,,,,,,,,,,,,,,,,125.0,200.0,200.0,125.0,127.0,127.0,1.0,1.1,-738,284,-480,289,-258,280,311.3780438899994,311.3781671524048,311.3813154697418,311.3971061706543,311.5423045158386,311.5423045158386,311.5423045158386,311.5423045158386,311.5423045158386,311.5423045158386,311.5423045158386,313.84201312065125,1,2.4310829639434814,None,,,,,,,,,,,,,,,,,,142,1,2025-02-27_10h33.02.453,comp,2024.2.4,57.475587663788076,2025-02-27 10h33.12.814423 -0500,
98,98,0,filler_random,None,None,None,None,None,None,None,None,None,None,3,1.7625253200531006,None,,,,,0,0,0,0,0,98,98,151,313.85803508758545,,,,,,,,,,,,,,,,,,,,,,,,,,,,,,,,,,,,,,,,,,,,,,,,,,,,,,,,,,,,,,,,,,,,,,,,,,,,,,,,,76.82303635922095,79.75350624039072,170.70536151658098,114.74075917140723,164.33112325130912,157.3793486614167,2.1,2.11,-193,270,0,267,232,-265,313.8436448574066,313.8437194824219,313.8468987941742,313.85803508758545,314.0095365047455,314.0095365047455,314.0095365047455,314.0095365047455,314.0095365047455,314.0095365047455,314.0095365047455,315.6264636516571,3,1.7625253200531006,None,,,,,,,,,,,,,,,,,,142,1,2025-02-27_10h33.02.453,comp,2024.2.4,57.475587663788076,2025-02-27 10h33.12.814423 -0500,
99,99,0,critical,whd,35.0,4.0,lower,57.0,133.0,133.0,57.0,70.0,70.0,2,5.2833476066589355,None,,,,,0,0,0,0,0,99,99,88,315.64087891578674,,,,,,,,,,,,,,,,,,,,,,,,,,,,,,,,,,,,,,,,,,,,,,,,,,,,,,,,,,,,,,,,,,,,,,,,,,,,,,,,,57.0,133.0,133.0,57.0,70.0,70.0,4.0,4.2,-191,-14,0,-288,160,-14,315.62791633605957,315.62799096107483,315.63133239746094,315.64087891578674,315.79178524017334,315.79178524017334,315.79178524017334,315.79178524017334,315.79178524017334,315.79178524017334,315.79178524017334,320.94350123405457,2,5.2833476066589355,None,,,,,,,,,,,,,,,,,,142,1,2025-02-27_10h33.02.453,comp,2024.2.4,57.475587663788076,2025-02-27 10h33.12.814423 -0500,
100,100,0,critical,hwd,20.0,2.1,lower,133.0,57.0,57.0,133.0,78.0,78.0,2,4.013475179672241,None,,,,,0,0,0,0,0,100,100,18,320.9593253135681,,,,,,,,,,,,,,,,,,,,,,,,,,,,,,,,,,,,,,,,,,,,,,,,,,,,,,,,,,,,,,,,,,,,,,,,,,,,,,,,,133.0,57.0,57.0,133.0,78.0,78.0,2.1,2.11,-191,275,0,264,202,-263,320.94497203826904,320.9450476169586,320.94801020622253,320.9593253135681,321.0967125892639,321.0967125892639,321.0967125892639,321.0967125892639,321.0967125892639,321.0967125892639,321.0967125892639,324.9793562889099,2,4.013475179672241,None,,,,,,,,,,,,,,,,,,142,1,2025-02-27_10h33.02.453,comp,2024.2.4,57.475587663788076,2025-02-27 10h33.12.814423 -0500,
101,101,0,filler_square,None,None,None,None,None,None,None,None,None,None,1,5.569566488265991,None,,,,,0,0,0,0,0,101,101,175,324.9945080280304,,,,,,,,,,,,,,,,,,,,,,,,,,,,,,,,,,,,,,,,,,,,,,,,,,,,,,,,,,,,,,,,,,,,,,,,,,,,,,,,,68.63503601993806,67.39963238241076,70.46705492379851,70.46705492379851,57.82338140281615,63.2928982751008,2.2,2.22,-165,254,0,-256,163,-264,324.981369972229,324.9814624786377,324.98475408554077,324.9945080280304,325.14518332481384,325.14518332481384,325.14518332481384,325.14518332481384,325.14518332481384,325.14518332481384,325.14518332481384,330.5813455581665,1,5.569566488265991,None,,,,,,,,,,,,,,,,,,142,1,2025-02-27_10h33.02.453,comp,2024.2.4,57.475587663788076,2025-02-27 10h33.12.814423 -0500,
102,102,0,filler_square,None,None,None,None,None,None,None,None,None,None,1,1.0558655261993408,None,,,,,0,0,0,0,0,102,102,190,330.59669852256775,,,,,,,,,,,,,,,,,,,,,,,,,,,,,,,,,,,,,,,,,,,,,,,,,,,,,,,,,,,,,,,,,,,,,,,,,,,,,,,,,87.5115785761698,87.5115785761698,60.904800761360036,75.28746596628783,72.84111998993745,59.40435709281951,3.0,3.1,-177,287,0,-4,163,-256,330.5831356048584,330.5832118988037,330.58651638031006,330.59669852256775,330.7426736354828,330.7426736354828,330.7426736354828,330.7426736354828,330.7426736354828,330.7426736354828,330.7426736354828,331.65825176239014,1,1.0558655261993408,None,,,,,,,,,,,,,,,,,,142,1,2025-02-27_10h33.02.453,comp,2024.2.4,57.475587663788076,2025-02-27 10h33.12.814423 -0500,
103,103,0,critical,dwh,35.0,3.0,upper,127.0,127.0,125.0,200.0,200.0,125.0,2,4.442579030990601,None,,,,,0,0,0,0,0,103,103,63,331.67361283302307,,,,,,,,,,,,,,,,,,,,,,,,,,,,,,,,,,,,,,,,,,,,,,,,,,,,,,,,,,,,,,,,,,,,,,,,,,,,,,,,,127.0,127.0,125.0,200.0,200.0,125.0,3.0,3.2,-260,-279,0,-17,258,255,331.65969944000244,331.65977573394775,331.6626281738281,331.67361283302307,331.81410908699036,331.81410908699036,331.81410908699036,331.81410908699036,331.81410908699036,331.81410908699036,331.81410908699036,336.1323313713074,2,4.442579030990601,None,,,,,,,,,,,,,,,,,,142,1,2025-02-27_10h33.02.453,comp,2024.2.4,57.475587663788076,2025-02-27 10h33.12.814423 -0500,
104,104,0,critical,wdh,20.0,2.1,lower,57.0,133.0,78.0,78.0,133.0,57.0,1,4.390639543533325,None,,,,,0,0,0,0,0,104,104,34,336.14950346946716,,,,,,,,,,,,,,,,,,,,,,,,,,,,,,,,,,,,,,,,,,,,,,,,,,,,,,,,,,,,,,,,,,,,,,,,,,,,,,,,,57.0,133.0,78.0,78.0,133.0,57.0,2.1,2.12,-202,-254,0,-256,164,258,336.13378524780273,336.1338589191437,336.13685512542725,336.14950346946716,336.3008279800415,336.3008279800415,336.3008279800415,336.3008279800415,336.3008279800415,336.3008279800415,336.3008279800415,340.5497031211853,1,4.390639543533325,None,,,,,,,,,,,,,,,,,,142,1,2025-02-27_10h33.02.453,comp,2024.2.4,57.475587663788076,2025-02-27 10h33.12.814423 -0500,
105,105,0,critical,hwd,35.0,1.0,lower,133.0,57.0,57.0,133.0,70.0,70.0,2,2.3365700244903564,None,,,,,0,0,0,0,0,105,105,96,340.5725245475769,,,,,,,,,,,,,,,,,,,,,,,,,,,,,,,,,,,,,,,,,,,,,,,,,,,,,,,,,,,,,,,,,,,,,,,,,,,,,,,,,133.0,57.0,57.0,133.0,70.0,70.0,1.0,1.3,289,-260,480,-257,678,-270,340.55118012428284,340.5512590408325,340.55449295043945,340.5725245475769,340.71835589408875,340.71835589408875,340.71835589408875,340.71835589408875,340.71835589408875,340.71835589408875,340.71835589408875,342.9192678928375,2,2.3365700244903564,None,,,,,,,,,,,,,,,,,,142,1,2025-02-27_10h33.02.453,comp,2024.2.4,57.475587663788076,2025-02-27 10h33.12.814423 -0500,
106,106,0,critical,whd,20.0,1.0,upper,125.0,200.0,200.0,125.0,141.0,141.0,2,1.9247612953186035,None,,,,,0,0,0,0,0,106,106,91,342.9355809688568,,,,,,,,,,,,,,,,,,,,,,,,,,,,,,,,,,,,,,,,,,,,,,,,,,,,,,,,,,,,,,,,,,,,,,,,,,,,,,,,,125.0,200.0,200.0,125.0,141.0,141.0,1.0,1.1,-738,259,-480,261,-251,263,342.9207925796509,342.9208710193634,342.9248697757721,342.9355809688568,343.0881004333496,343.0881004333496,343.0881004333496,343.0881004333496,343.0881004333496,343.0881004333496,343.0881004333496,344.8689453601837,2,1.9247612953186035,None,,,,,,,,,,,,,,,,,,142,1,2025-02-27_10h33.02.453,comp,2024.2.4,57.475587663788076,2025-02-27 10h33.12.814423 -0500,
107,107,0,critical,hdw,20.0,2.1,upper,200.0,125.0,141.0,141.0,125.0,200.0,1,1.4802241325378418,None,,,,,0,0,0,0,0,107,107,47,344.88464093208313,,,,,,,,,,,,,,,,,,,,,,,,,,,,,,,,,,,,,,,,,,,,,,,,,,,,,,,,,,,,,,,,,,,,,,,,,,,,,,,,,200.0,125.0,141.0,141.0,125.0,200.0,2.1,2.12,-229,-277,0,-260,266,275,344.87043833732605,344.87051367759705,344.8739697933197,344.88464093208313,345.035662651062,345.035662651062,345.035662651062,345.035662651062,345.035662651062,345.035662651062,345.035662651062,346.3694443702698,1,1.4802241325378418,None,,,,,,,,,,,,,,,,,,142,1,2025-02-27_10h33.02.453,comp,2024.2.4,57.475587663788076,2025-02-27 10h33.12.814423 -0500,
108,108,0,filler_random,None,None,None,None,None,None,None,None,None,None,3,1.6762022972106934,None,,,,,0,0,0,0,0,108,108,160,346.38399839401245,,,,,,,,,,,,,,,,,,,,,,,,,,,,,,,,,,,,,,,,,,,,,,,,,,,,,,,,,,,,,,,,,,,,,,,,,,,,,,,,,83.86723690395588,125.37819899891679,57.39175149831552,130.727000890226,86.00185504589322,136.21031255777154,2.2,2.21,-224,-259,0,267,229,259,346.37110662460327,346.3711841106415,346.3743751049042,346.38399839401245,346.5355432033539,346.5355432033539,346.5355432033539,346.5355432033539,346.5355432033539,346.5355432033539,346.5355432033539,348.0625307559967,3,1.6762022972106934,None,,,,,,,,,,,,,,,,,,142,1,2025-02-27_10h33.02.453,comp,2024.2.4,57.475587663788076,2025-02-27 10h33.12.814423 -0500,
109,109,0,filler_square,None,None,None,None,None,None,None,None,None,None,3,1.420015811920166,None,,,,,0,0,0,0,0,109,109,193,348.0801947116852,,,,,,,,,,,,,,,,,,,,,,,,,,,,,,,,,,,,,,,,,,,,,,,,,,,,,,,,,,,,,,,,,,,,,,,,,,,,,,,,,177.14015164911513,149.35151975516334,73.95148690593896,155.5333958990477,177.42130310270954,177.42130310270954,3.0,3.1,-248,261,0,11,262,-288,348.06433176994324,348.06440782546997,348.06727051734924,348.0801947116852,348.22080159187317,348.22080159187317,348.22080159187317,348.22080159187317,348.22080159187317,348.22080159187317,348.22080159187317,349.5045564174652,3,1.420015811920166,None,,,,,,,,,,,,,,,,,,142,1,2025-02-27_10h33.02.453,comp,2024.2.4,57.475587663788076,2025-02-27 10h33.12.814423 -0500,
110,110,0,critical,dwh,20.0,3.0,upper,141.0,141.0,125.0,200.0,200.0,125.0,2,1.6520535945892334,None,,,,,0,0,0,0,0,110,110,69,349.52016043663025,,,,,,,,,,,,,,,,,,,,,,,,,,,,,,,,,,,,,,,,,,,,,,,,,,,,,,,,,,,,,,,,,,,,,,,,,,,,,,,,,141.0,141.0,125.0,200.0,200.0,125.0,3.0,3.2,-266,-267,0,-16,258,283,349.5059778690338,349.50607681274414,349.50948882102966,349.52016043663025,349.6739921569824,349.6739921569824,349.6739921569824,349.6739921569824,349.6739921569824,349.6739921569824,349.6739921569824,351.1873941421509,2,1.6520535945892334,None,,,,,,,,,,,,,,,,,,142,1,2025-02-27_10h33.02.453,comp,2024.2.4,57.475587663788076,2025-02-27 10h33.12.814423 -0500,
111,111,0,catch,None,None,None,None,None,None,None,None,None,None,1,1.4507482051849365,None,,,,,0,0,0,0,0,111,111,125,351.2016227245331,,,,,,,,,,,,,,,,,,,,,,,,,,,,,,,,,,,,,,,,,,,,,,,,,,,,,,,,,,,,,,,,,,,,,,,,,,,,,,,,,153,172,95,95,77,113,2.2,2.21,-230,-285,0,285,200,284,351.1893141269684,351.1893906593323,351.19245648384094,351.2016227245331,351.3567831516266,351.3567831516266,351.3567831516266,351.3567831516266,351.3567831516266,351.3567831516266,351.3567831516266,352.6707990169525,1,1.4507482051849365,None,,,,,,,,,,,,,,,,,,142,1,2025-02-27_10h33.02.453,comp,2024.2.4,57.475587663788076,2025-02-27 10h33.12.814423 -0500,
112,112,0,critical,hdw,20.0,4.0,upper,200.0,125.0,141.0,141.0,125.0,200.0,3,1.6898524761199951,None,,,,,0,0,0,0,0,112,112,119,352.6902310848236,,,,,,,,,,,,,,,,,,,,,,,,,,,,,,,,,,,,,,,,,,,,,,,,,,,,,,,,,,,,,,,,,,,,,,,,,,,,,,,,,200.0,125.0,141.0,141.0,125.0,200.0,4.0,4.2,-229,15,0,-259,266,-13,352.6722869873047,352.67236042022705,352.6756122112274,352.6902310848236,352.8387849330902,352.8387849330902,352.8387849330902,352.8387849330902,352.8387849330902,352.8387849330902,352.8387849330902,354.3946225643158,3,1.6898524761199951,None,,,,,,,,,,,,,,,,,,142,1,2025-02-27_10h33.02.453,comp,2024.2.4,57.475587663788076,2025-02-27 10h33.12.814423 -0500,
113,113,0,critical,hdw,20.0,1.0,upper,200.0,125.0,141.0,141.0,125.0,200.0,1,1.0000901222229004,None,,,,,0,0,0,0,0,113,113,115,354.41212224960327,,,,,,,,,,,,,,,,,,,,,,,,,,,,,,,,,,,,,,,,,,,,,,,,,,,,,,,,,,,,,,,,,,,,,,,,,,,,,,,,,200.0,125.0,141.0,141.0,125.0,200.0,1.0,1.2,-229,8,0,5,266,-3,354.39608335494995,354.39616346359253,354.39909315109253,354.41212224960327,354.55497670173645,354.55497670173645,354.55497670173645,354.55497670173645,354.55497670173645,354.55497670173645,354.55497670173645,355.4228045940399,1,1.0000901222229004,None,,,,,,,,,,,,,,,,,,142,1,2025-02-27_10h33.02.453,comp,2024.2.4,57.475587663788076,2025-02-27 10h33.12.814423 -0500,
114,114,0,catch,None,None,None,None,None,None,None,None,None,None,3,0.9136741161346436,None,,,,,0,0,0,0,0,114,114,122,355.44291067123413,,,,,,,,,,,,,,,,,,,,,,,,,,,,,,,,,,,,,,,,,,,,,,,,,,,,,,,,,,,,,,,,,,,,,,,,,,,,,,,,,124,66,62,128,157,168,1.0,1.1,-673,287,-480,252,-236,251,355.4248743057251,355.4249498844147,355.4284474849701,355.44291067123413,355.5959711074829,355.5959711074829,355.5959711074829,355.5959711074829,355.5959711074829,355.5959711074829,355.5959711074829,356.3747673034668,3,0.9136741161346436,None,,,,,,,,,,,,,,,,,,142,1,2025-02-27_10h33.02.453,comp,2024.2.4,57.475587663788076,2025-02-27 10h33.12.814423 -0500,
115,115,0,critical,dhw,20.0,2.1,lower,78.0,78.0,133.0,57.0,57.0,133.0,2,2.589930772781372,None,,,,,0,0,0,0,0,115,115,2,356.3902790546417,,,,,,,,,,,,,,,,,,,,,,,,,,,,,,,,,,,,,,,,,,,,,,,,,,,,,,,,,,,,,,,,,,,,,,,,,,,,,,,,,78.0,78.0,133.0,57.0,57.0,133.0,2.1,2.12,-164,-273,0,-272,191,261,356.37649965286255,356.37657713890076,356.37994503974915,356.3902790546417,356.5461678504944,356.5461678504944,356.5461678504944,356.5461678504944,356.5461678504944,356.5461678504944,356.5461678504944,358.9934391975403,2,2.589930772781372,None,,,,,,,,,,,,,,,,,,142,1,2025-02-27_10h33.02.453,comp,2024.2.4,57.475587663788076,2025-02-27 10h33.12.814423 -0500,
116,116,0,critical,hdw,20.0,2.1,lower,133.0,57.0,78.0,78.0,57.0,133.0,3,4.879221200942993,None,,,,,0,0,0,0,0,116,116,46,359.0128982067108,,,,,,,,,,,,,,,,,,,,,,,,,,,,,,,,,,,,,,,,,,,,,,,,,,,,,,,,,,,,,,,,,,,,,,,,,,,,,,,,,133.0,57.0,78.0,78.0,57.0,133.0,2.1,2.12,-164,-276,0,-271,202,283,358.99520778656006,358.99530959129333,358.99861669540405,359.0128982067108,359.15737557411194,359.15737557411194,359.15737557411194,359.15737557411194,359.15737557411194,359.15737557411194,359.15737557411194,363.9067509174347,3,4.879221200942993,None,,,,,,,,,,,,,,,,,,142,1,2025-02-27_10h33.02.453,comp,2024.2.4,57.475587663788076,2025-02-27 10h33.12.814423 -0500,
117,117,0,filler_square,None,None,None,None,None,None,None,None,None,None,2,1.881587266921997,None,,,,,0,0,0,0,0,117,117,203,363.92304587364197,,,,,,,,,,,,,,,,,,,,,,,,,,,,,,,,,,,,,,,,,,,,,,,,,,,,,,,,,,,,,,,,,,,,,,,,,,,,,,,,,61.171547010222305,65.00244475608602,81.7479909750245,81.7479909750245,77.64227766256714,65.90640842628696,4.0,4.1,-169,-270,0,-6,170,-276,363.9087188243866,363.908833026886,363.91201305389404,363.92304587364197,364.0717570781708,364.0717570781708,364.0717570781708,364.0717570781708,364.0717570781708,364.0717570781708,364.0717570781708,365.8122625350952,2,1.881587266921997,None,,,,,,,,,,,,,,,,,,142,1,2025-02-27_10h33.02.453,comp,2024.2.4,57.475587663788076,2025-02-27 10h33.12.814423 -0500,
118,118,0,filler_square,None,None,None,None,None,None,None,None,None,None,3,0.941941499710083,None,,,,,0,0,0,0,0,118,118,182,365.83015727996826,,,,,,,,,,,,,,,,,,,,,,,,,,,,,,,,,,,,,,,,,,,,,,,,,,,,,,,,,,,,,,,,,,,,,,,,,,,,,,,,,118.81000660060153,144.35927014531882,147.310625836041,101.77521463690155,162.34664599859454,162.34664599859454,2.2,2.21,-219,-256,0,262,228,264,365.81415343284607,365.81423473358154,365.8170919418335,365.83015727996826,365.97569274902344,365.97569274902344,365.97569274902344,365.97569274902344,365.97569274902344,365.97569274902344,365.97569274902344,366.77582120895386,3,0.941941499710083,None,,,,,,,,,,,,,,,,,,142,1,2025-02-27_10h33.02.453,comp,2024.2.4,57.475587663788076,2025-02-27 10h33.12.814423 -0500,
119,119,0,filler_random,None,None,None,None,None,None,None,None,None,None,3,1.1482930183410645,None,,,,,0,0,0,0,0,119,119,156,366.7921230792999,,,,,,,,,,,,,,,,,,,,,,,,,,,,,,,,,,,,,,,,,,,,,,,,,,,,,,,,,,,,,,,,,,,,,,,,,,,,,,,,,70.71565831227916,67.60106079739994,70.99144205006088,92.0261409605329,82.34802165699557,131.12971191151462,2.2,2.22,-176,289,0,-253,208,-283,366.7777135372162,366.7778286933899,366.78139781951904,366.7921230792999,366.94143986701965,366.94143986701965,366.94143986701965,366.94143986701965,366.94143986701965,366.94143986701965,366.94143986701965,367.9424297809601,3,1.1482930183410645,None,,,,,,,,,,,,,,,,,,142,1,2025-02-27_10h33.02.453,comp,2024.2.4,57.475587663788076,2025-02-27 10h33.12.814423 -0500,
120,120,0,filler_square,None,None,None,None,None,None,None,None,None,None,3,2.1172258853912354,None,,,,,0,0,0,0,0,120,120,179,367.9589822292328,,,,,,,,,,,,,,,,,,,,,,,,,,,,,,,,,,,,,,,,,,,,,,,,,,,,,,,,,,,,,,,,,,,,,,,,,,,,,,,,,58.293871772420985,58.497893895743566,60.39958421557337,60.39958421557337,58.47667307428761,59.3157557729566,4.0,4.1,-155,-264,0,5,156,-287,367.94417810440063,367.9442563056946,367.9473478794098,367.9589822292328,368.111141204834,368.111141204834,368.111141204834,368.111141204834,368.111141204834,368.111141204834,368.111141204834,370.09612464904785,3,2.1172258853912354,None,,,,,,,,,,,,,,,,,,142,1,2025-02-27_10h33.02.453,comp,2024.2.4,57.475587663788076,2025-02-27 10h33.12.814423 -0500,
121,121,0,filler_square,None,None,None,None,None,None,None,None,None,None,3,1.7864561080932617,None,,,,,0,0,0,0,0,121,121,192,370.11447405815125,,,,,,,,,,,,,,,,,,,,,,,,,,,,,,,,,,,,,,,,,,,,,,,,,,,,,,,,,,,,,,,,,,,,,,,,,,,,,,,,,113.16965150388137,112.64032074546641,84.38642439823539,87.8595423342035,117.7663422017146,117.7663422017146,4.0,4.1,-196,-276,0,2,199,-274,370.0980849266052,370.0981707572937,370.10175824165344,370.11447405815125,370.25929522514343,370.25929522514343,370.25929522514343,370.25929522514343,370.25929522514343,370.25929522514343,370.25929522514343,371.9110732078552,3,1.7864561080932617,None,,,,,,,,,,,,,,,,,,142,1,2025-02-27_10h33.02.453,comp,2024.2.4,57.475587663788076,2025-02-27 10h33.12.814423 -0500,
122,122,0,catch,None,None,None,None,None,None,None,None,None,None,3,0.829545259475708,None,,,,,0,0,0,0,0,122,122,123,371.9277455806732,,,,,,,,,,,,,,,,,,,,,,,,,,,,,,,,,,,,,,,,,,,,,,,,,,,,,,,,,,,,,,,,,,,,,,,,,,,,,,,,,90,100,114,76,177,148,4.0,4.2,-184,13,0,-265,208,-16,371.91291642189026,371.9129948616028,371.9170081615448,371.9277455806732,372.0839660167694,372.0839660167694,372.0839660167694,372.0839660167694,372.0839660167694,372.0839660167694,372.0839660167694,372.7600791454315,3,0.829545259475708,None,,,,,,,,,,,,,,,,,,142,1,2025-02-27_10h33.02.453,comp,2024.2.4,57.475587663788076,2025-02-27 10h33.12.814423 -0500,
123,123,0,filler_square,None,None,None,None,None,None,None,None,None,None,1,1.147550344467163,None,,,,,0,0,0,0,0,123,123,202,372.77695322036743,,,,,,,,,,,,,,,,,,,,,,,,,,,,,,,,,,,,,,,,,,,,,,,,,,,,,,,,,,,,,,,,,,,,,,,,,,,,,,,,,78.64676582887859,78.64676582887859,65.49411947953764,78.27715030841102,58.26338977502426,64.6700887394037,1.0,1.3,306,-279,480,-286,647,-279,372.7620313167572,372.7621343135834,372.7653081417084,372.77695322036743,372.9239649772644,372.9239649772644,372.9239649772644,372.9239649772644,372.9239649772644,372.9239649772644,372.9239649772644,373.927045583725,1,1.147550344467163,None,,,,,,,,,,,,,,,,,,142,1,2025-02-27_10h33.02.453,comp,2024.2.4,57.475587663788076,2025-02-27 10h33.12.814423 -0500,
124,124,0,critical,dwh,20.0,4.0,lower,78.0,78.0,57.0,133.0,133.0,57.0,2,1.9172732830047607,None,,,,,0,0,0,0,0,124,124,70,373.9431531429291,,,,,,,,,,,,,,,,,,,,,,,,,,,,,,,,,,,,,,,,,,,,,,,,,,,,,,,,,,,,,,,,,,,,,,,,,,,,,,,,,78.0,78.0,57.0,133.0,133.0,57.0,4.0,4.2,-202,13,0,-266,191,-11,373.9285509586334,373.928626537323,373.9317681789398,373.9431531429291,374.10003638267517,374.10003638267517,374.10003638267517,374.10003638267517,374.10003638267517,374.10003638267517,374.10003638267517,375.86470341682434,2,1.9172732830047607,None,,,,,,,,,,,,,,,,,,142,1,2025-02-27_10h33.02.453,comp,2024.2.4,57.475587663788076,2025-02-27 10h33.12.814423 -0500,
125,125,0,catch,None,None,None,None,None,None,None,None,None,None,2,0.8518657684326172,None,,,,,0,0,0,0,0,125,125,121,375.8804292678833,,,,,,,,,,,,,,,,,,,,,,,,,,,,,,,,,,,,,,,,,,,,,,,,,,,,,,,,,,,,,,,,,,,,,,,,,,,,,,,,,58,132,188,137,81,109,3.0,3.1,-230,270,0,6,219,-288,375.8667962551117,375.86687660217285,375.8697769641876,375.8804292678833,376.02834939956665,376.02834939956665,376.02834939956665,376.02834939956665,376.02834939956665,376.02834939956665,376.02834939956665,376.7454688549042,2,0.8518657684326172,None,,,,,,,,,,,,,,,,,,142,1,2025-02-27_10h33.02.453,comp,2024.2.4,57.475587663788076,2025-02-27 10h33.12.814423 -0500,
126,126,0,filler_random,None,None,None,None,None,None,None,None,None,None,1,1.2196757793426514,None,,,,,0,0,0,0,0,126,126,168,376.76067447662354,,,,,,,,,,,,,,,,,,,,,,,,,,,,,,,,,,,,,,,,,,,,,,,,,,,,,,,,,,,,,,,,,,,,,,,,,,,,,,,,,159.90314682063206,115.91456697249623,137.4719701914568,90.69448841237345,131.45076375204908,111.32353820709079,4.0,4.1,-199,-272,0,-2,197,-277,376.7471082210541,376.747186422348,376.7504162788391,376.76067447662354,376.9131052494049,376.9131052494049,376.9131052494049,376.9131052494049,376.9131052494049,376.9131052494049,376.9131052494049,378.00223207473755,1,1.2196757793426514,None,,,,,,,,,,,,,,,,,,142,1,2025-02-27_10h33.02.453,comp,2024.2.4,57.475587663788076,2025-02-27 10h33.12.814423 -0500,
127,127,0,filler_random,None,None,None,None,None,None,None,None,None,None,1,1.3110096454620361,None,,,,,0,0,0,0,0,127,127,143,378.021213054657,,,,,,,,,,,,,,,,,,,,,,,,,,,,,,,,,,,,,,,,,,,,,,,,,,,,,,,,,,,,,,,,,,,,,,,,,,,,,,,,,117.96545755035568,134.7828088295323,118.35137831127577,74.22605287424204,195.69914050134352,58.335337464175375,2.1,2.11,-201,263,0,261,162,-281,378.0040318965912,378.004150390625,378.0074281692505,378.021213054657,378.16260528564453,378.16260528564453,378.16260528564453,378.16260528564453,378.16260528564453,378.16260528564453,378.16260528564453,379.34639406204224,1,1.3110096454620361,None,,,,,,,,,,,,,,,,,,142,1,2025-02-27_10h33.02.453,comp,2024.2.4,57.475587663788076,2025-02-27 10h33.12.814423 -0500,
128,128,0,critical,wdh,20.0,2.1,upper,125.0,200.0,141.0,141.0,200.0,125.0,1,1.9950096607208252,None,,,,,0,0,0,0,0,128,128,11,379.36150765419006,,,,,,,,,,,,,,,,,,,,,,,,,,,,,,,,,,,,,,,,,,,,,,,,,,,,,,,,,,,,,,,,,,,,,,,,,,,,,,,,,125.0,200.0,141.0,141.0,200.0,125.0,2.1,2.12,-266,-252,0,-282,229,264,379.34796357154846,379.3480405807495,379.3512008190155,379.36150765419006,379.51330518722534,379.51330518722534,379.51330518722534,379.51330518722534,379.51330518722534,379.51330518722534,379.51330518722534,381.36453008651733,1,1.9950096607208252,None,,,,,,,,,,,,,,,,,,142,1,2025-02-27_10h33.02.453,comp,2024.2.4,57.475587663788076,2025-02-27 10h33.12.814423 -0500,
129,129,0,filler_random,None,None,None,None,None,None,None,None,None,None,2,2.2957050800323486,None,,,,,0,0,0,0,0,129,129,133,381.380667924881,,,,,,,,,,,,,,,,,,,,,,,,,,,,,,,,,,,,,,,,,,,,,,,,,,,,,,,,,,,,,,,,,,,,,,,,,,,,,,,,,109.14747684061143,180.41894296229088,152.07329308967604,144.0936523599279,142.15757154202433,77.56899794886567,4.0,4.2,-258,6,0,-251,207,6,381.36634278297424,381.36647868156433,381.3698263168335,381.380667924881,381.52886962890625,381.52886962890625,381.52886962890625,381.52886962890625,381.52886962890625,381.52886962890625,381.52886962890625,383.68017292022705,2,2.2957050800323486,None,,,,,,,,,,,,,,,,,,142,1,2025-02-27_10h33.02.453,comp,2024.2.4,57.475587663788076,2025-02-27 10h33.12.814423 -0500,
130,130,0,critical,dwh,35.0,1.0,upper,127.0,127.0,125.0,200.0,200.0,125.0,3,1.1553268432617188,None,,,,,0,0,0,0,0,130,130,61,383.6968584060669,,,,,,,,,,,,,,,,,,,,,,,,,,,,,,,,,,,,,,,,,,,,,,,,,,,,,,,,,,,,,,,,,,,,,,,,,,,,,,,,,127.0,127.0,125.0,200.0,200.0,125.0,1.0,1.2,-260,-19,0,20,258,19,383.6815962791443,383.68167185783386,383.68508863449097,383.6968584060669,383.8369345664978,383.8369345664978,383.8369345664978,383.8369345664978,383.8369345664978,383.8369345664978,383.8369345664978,384.8633472919464,3,1.1553268432617188,None,,,,,,,,,,,,,,,,,,142,1,2025-02-27_10h33.02.453,comp,2024.2.4,57.475587663788076,2025-02-27 10h33.12.814423 -0500,
131,131,0,catch,None,None,None,None,None,None,None,None,None,None,3,1.1322612762451172,None,,,,,0,0,0,0,0,131,131,126,384.880553483963,,,,,,,,,,,,,,,,,,,,,,,,,,,,,,,,,,,,,,,,,,,,,,,,,,,,,,,,,,,,,,,,,,,,,,,,,,,,,,,,,97,93,98,92,151,174,2.2,2.22,-188,251,0,-273,229,-268,384.8654136657715,384.8654901981354,384.86873865127563,384.880553483963,385.0199182033539,385.0199182033539,385.0199182033539,385.0199182033539,385.0199182033539,385.0199182033539,385.0199182033539,386.0187749862671,3,1.1322612762451172,None,,,,,,,,,,,,,,,,,,142,1,2025-02-27_10h33.02.453,comp,2024.2.4,57.475587663788076,2025-02-27 10h33.12.814423 -0500,
132,132,0,catch,None,None,None,None,None,None,None,None,None,None,3,0.9372391700744629,None,,,,,0,0,0,0,0,132,132,120,386.0351495742798,,,,,,,,,,,,,,,,,,,,,,,,,,,,,,,,,,,,,,,,,,,,,,,,,,,,,,,,,,,,,,,,,,,,,,,,,,,,,,,,,66,124,70,120,191,134,4.0,4.1,-218,-285,0,8,223,-266,386.0207448005676,386.0208230018616,386.02371072769165,386.0351495742798,386.18249893188477,386.18249893188477,386.18249893188477,386.18249893188477,386.18249893188477,386.18249893188477,386.18249893188477,386.9882550239563,3,0.9372391700744629,None,,,,,,,,,,,,,,,,,,142,1,2025-02-27_10h33.02.453,comp,2024.2.4,57.475587663788076,2025-02-27 10h33.12.814423 -0500,
133,133,0,filler_random,None,None,None,None,None,None,None,None,None,None,3,1.3421342372894287,None,,,,,0,0,0,0,0,133,133,132,387.0061082839966,,,,,,,,,,,,,,,,,,,,,,,,,,,,,,,,,,,,,,,,,,,,,,,,,,,,,,,,,,,,,,,,,,,,,,,,,,,,,,,,,162.94873184371818,62.03932104830707,61.92543612033533,66.68334969117,115.75765098837442,130.39324367998734,1.0,1.2,-160,18,0,8,195,-3,386.98997735977173,386.9901361465454,386.9933567047119,387.0061082839966,387.14947390556335,387.14947390556335,387.14947390556335,387.14947390556335,387.14947390556335,387.14947390556335,387.14947390556335,388.350040435791,3,1.3421342372894287,None,,,,,,,,,,,,,,,,,,142,1,2025-02-27_10h33.02.453,comp,2024.2.4,57.475587663788076,2025-02-27 10h33.12.814423 -0500,
134,134,0,critical,dwh,35.0,4.0,lower,70.0,70.0,57.0,133.0,133.0,57.0,2,2.218165636062622,None,,,,,0,0,0,0,0,134,134,64,388.3701195716858,,,,,,,,,,,,,,,,,,,,,,,,,,,,,,,,,,,,,,,,,,,,,,,,,,,,,,,,,,,,,,,,,,,,,,,,,,,,,,,,,70.0,70.0,57.0,133.0,133.0,57.0,4.0,4.2,-198,-16,0,-263,191,11,388.3515374660492,388.3516104221344,388.35475277900696,388.3701195716858,388.5143539905548,388.5143539905548,388.5143539905548,388.5143539905548,388.5143539905548,388.5143539905548,388.5143539905548,390.60624623298645,2,2.218165636062622,None,,,,,,,,,,,,,,,,,,142,1,2025-02-27_10h33.02.453,comp,2024.2.4,57.475587663788076,2025-02-27 10h33.12.814423 -0500,
135,135,0,filler_square,None,None,None,None,None,None,None,None,None,None,1,1.0734353065490723,None,,,,,0,0,0,0,0,135,135,174,390.6267569065094,,,,,,,,,,,,,,,,,,,,,,,,,,,,,,,,,,,,,,,,,,,,,,,,,,,,,,,,,,,,,,,,,,,,,,,,,,,,,,,,,180.12710278089827,180.12710278089827,114.69642389371435,105.2948653005443,178.32559864696304,100.4074370290785,4.0,4.1,-239,-263,0,-7,199,-284,390.60803508758545,390.6081850528717,390.61142468452454,390.6267569065094,390.77217149734497,390.77217149734497,390.77217149734497,390.77217149734497,390.77217149734497,390.77217149734497,390.77217149734497,391.7143044471741,1,1.0734353065490723,None,,,,,,,,,,,,,,,,,,142,1,2025-02-27_10h33.02.453,comp,2024.2.4,57.475587663788076,2025-02-27 10h33.12.814423 -0500,
136,136,0,filler_square,None,None,None,None,None,None,None,None,None,None,3,5.937967777252197,None,,,,,0,0,0,0,0,136,136,206,391.7302987575531,,,,,,,,,,,,,,,,,,,,,,,,,,,,,,,,,,,,,,,,,,,,,,,,,,,,,,,,,,,,,,,,,,,,,,,,,,,,,,,,,60.04065768763355,73.75561585702425,75.33485068178128,75.33485068178128,71.14304446821427,75.03795147163208,4.0,4.1,-171,-289,0,-11,171,-267,391.71629095077515,391.7163677215576,391.71953535079956,391.7302987575531,391.8845102787018,391.8845102787018,391.8845102787018,391.8845102787018,391.8845102787018,391.8845102787018,391.8845102787018,397.68464255332947,3,5.937967777252197,None,,,,,,,,,,,,,,,,,,142,1,2025-02-27_10h33.02.453,comp,2024.2.4,57.475587663788076,2025-02-27 10h33.12.814423 -0500,
137,137,0,critical,whd,35.0,4.0,upper,125.0,200.0,200.0,125.0,127.0,127.0,1,1.4854717254638672,None,,,,,0,0,0,0,0,137,137,89,397.7031397819519,,,,,,,,,,,,,,,,,,,,,,,,,,,,,,,,,,,,,,,,,,,,,,,,,,,,,,,,,,,,,,,,,,,,,,,,,,,,,,,,,125.0,200.0,200.0,125.0,127.0,127.0,4.0,4.2,-258,1,0,-286,222,-5,397.6861264705658,397.68620228767395,397.68937158584595,397.7031397819519,397.8417468070984,397.8417468070984,397.8417468070984,397.8417468070984,397.8417468070984,397.8417468070984,397.8417468070984,399.1966235637665,1,1.4854717254638672,None,,,,,,,,,,,,,,,,,,142,1,2025-02-27_10h33.02.453,comp,2024.2.4,57.475587663788076,2025-02-27 10h33.12.814423 -0500,
138,138,0,filler_square,None,None,None,None,None,None,None,None,None,None,1,6.085812330245972,None,,,,,0,0,0,0,0,138,138,194,399.21446228027344,,,,,,,,,,,,,,,,,,,,,,,,,,,,,,,,,,,,,,,,,,,,,,,,,,,,,,,,,,,,,,,,,,,,,,,,,,,,,,,,,136.4365429157465,136.4365429157465,129.08654076278972,126.56761810720862,119.49172443609221,117.39067892033242,2.2,2.22,-228,266,0,-280,218,-255,399.1983058452606,399.1983833312988,399.201233625412,399.21446228027344,399.3540234565735,399.3540234565735,399.3540234565735,399.3540234565735,399.3540234565735,399.3540234565735,399.3540234565735,405.30925607681274,1,6.085812330245972,None,,,,,,,,,,,,,,,,,,142,1,2025-02-27_10h33.02.453,comp,2024.2.4,57.475587663788076,2025-02-27 10h33.12.814423 -0500,
139,139,0,critical,whd,20.0,3.0,lower,57.0,133.0,133.0,57.0,78.0,78.0,1,4.67906379699707,None,,,,,0,0,0,0,0,139,139,92,405.3251600265503,,,,,,,,,,,,,,,,,,,,,,,,,,,,,,,,,,,,,,,,,,,,,,,,,,,,,,,,,,,,,,,,,,,,,,,,,,,,,,,,,57.0,133.0,133.0,57.0,78.0,78.0,3.0,3.1,-191,270,0,-8,164,-252,405.31069898605347,405.3107750415802,405.3136510848999,405.3251600265503,405.47179198265076,405.47179198265076,405.47179198265076,405.47179198265076,405.47179198265076,405.47179198265076,405.47179198265076,410.0062503814697,1,4.67906379699707,None,,,,,,,,,,,,,,,,,,142,1,2025-02-27_10h33.02.453,comp,2024.2.4,57.475587663788076,2025-02-27 10h33.12.814423 -0500,
