thisN,thisTrialN,thisRepN,effect,order,distance,config,diag,h_1,w_1,h_2,w_2,h_3,w_3,rect_choice.keys,rect_choice.rt,rect_choice.duration,instructions_loop.thisRepN,instructions_loop.thisTrialN,instructions_loop.thisN,instructions_loop.thisIndex,blocks.thisRepN,blocks.thisTrialN,blocks.thisN,blocks.thisIndex,trials.thisRepN,trials.thisTrialN,trials.thisN,trials.thisIndex,thisRow.t,notes,consent.started,agree_button.started,decline_button.started,consent_img.started,mouse.started,consent.stopped,agree_button.numClicks,agree_button.timesOn,agree_button.timesOff,decline_button.numClicks,decline_button.timesOn,decline_button.timesOff,mouse.x,mouse.y,mouse.leftButton,mouse.midButton,mouse.rightButton,mouse.time,mouse.clicked_name,exp_params.started,exp_params.stopped,welcome.started,welcome_text.started,welcome.stopped,instructions_1.started,instructions_1_text_1.started,instructions_1_text_2.started,key_resp.started,instructions_1.stopped,instructions_loop.key_resp.keys,instructions_loop.key_resp.rt,instructions_loop.key_resp.duration,instructions_2.started,instructions_2_text_1.started,instructions_2_text_2.started,key_resp_2.started,instructions_2.stopped,instructions_loop.key_resp_2.keys,instructions_loop.key_resp_2.rt,instructions_loop.key_resp_2.duration,instructions_3.started,instructions_3_text_1.started,r1_instr3.started,r2_instr3.started,r3_instr3.started,r1_instr3_label.started,r2_instr3_label.started,r3_instr3_label.started,instructions_3_text_3.started,instructions_3_text_4.started,key_resp_3.started,instructions_3.stopped,instructions_loop.key_resp_3.keys,instructions_loop.key_resp_3.rt,instructions_loop.key_resp_3.duration,instructions_4.started,instructions_4_text_1.started,instructions_4_text_3.started,instructions_4_text_2.started,key_resp_4.started,instructions_4.stopped,instructions_loop.key_resp_4.keys,instructions_loop.key_resp_4.rt,instructions_loop.key_resp_4.duration,instructions_5.started,instructions_5_text_1.started,instructions_5_text_2.started,key_resp_5.started,instructions_5.stopped,instructions_loop.key_resp_5.keys,instructions_loop.key_resp_5.rt,instructions_loop.key_resp_5.duration,start_exp.started,start_exp_text.started,key_resp_6.started,start_exp.stopped,key_resp_6.keys,key_resp_6.rt,key_resp_6.duration,h_1_tmp,w_1_tmp,h_2_tmp,w_2_tmp,h_3_tmp,w_3_tmp,config_tmp,config_tmp_1,r_1_x,r_1_y,r_2_x,r_2_y,r_3_x,r_3_y,pre_trial.started,pre_trial.stopped,choice_trial.started,rect_choice.started,r_1.started,r_2.started,r_3.started,r_1_label.started,r_2_label.started,r_3_label.started,prompt.started,choice_trial.stopped,trials.rect_choice.keys,trials.rect_choice.rt,trials.rect_choice.duration,end_block.started,end_block_text.started,end_block.stopped,end.started,end_text.started,key_resp_7.started,end.stopped,key_resp_7.keys,key_resp_7.rt,key_resp_7.duration,debriefing.started,debrief_form.started,end_debrief.started,debriefing.stopped,end_debrief.keys,end_debrief.rt,end_debrief.duration,participant,computer,date,expName,psychopyVersion,frameRate,expStart,
,,,,,,,,,,,,,,,,,,,,,,,,,,,,,,,0.015080451965332031,0.03922772407531738,0.03922772407531738,0.03922772407531738,0.014880657196044922,101.52985072135925,1,[101.48829650878906],[101.48831820487976],0,,,[-77.0],[-489.0],[1],[0],[0],[101.51422429084778],['agree_button'],,,,,,,,,,,,,,,,,,,,,,,,,,,,,,,,,,,,,,,,,,,,,,,,,,,,,,,,,,,,,,,,,,,,,,,,,,,,,,,,,,,,,,,,,,,,,,,,,,,,,,,,,,,143,1,2025-02-27_11h17.02.862,comp,2024.2.4,56.492899166002196,2025-02-27 11h30.06.095449 -0500,
,,,,,,,,,,,,,,,,,,,,,,,,,,,,,,,,,,,,,,,,,,,,,,,,,,101.53036785125732,101.53043460845947,,,,,,,,,,,,,,,,,,,,,,,,,,,,,,,,,,,,,,,,,,,,,,,,,,,,,,,,,,,,,,,,,,,,,,,,,,,,,,,,,,,,,,,,,,,,,,,,,,,,,,,,,143,1,2025-02-27_11h17.02.862,comp,2024.2.4,56.492899166002196,2025-02-27 11h30.06.095449 -0500,
,,,,,,,,,,,,,,,,,,,,,,,,,,,,,,,,,,,,,,,,,,,,,,,,,,,,101.53047823905945,101.54440999031067,103.53221654891968,,,,,,,,,,,,,,,,,,,,,,,,,,,,,,,,,,,,,,,,,,,,,,,,,,,,,,,,,,,,,,,,,,,,,,,,,,,,,,,,,,,,,,,,,,,,,,,,,,,,,,143,1,2025-02-27_11h17.02.862,comp,2024.2.4,56.492899166002196,2025-02-27 11h30.06.095449 -0500,
0,0,0,,,,,,,,,,,,,,,0,0,0,0,,,,,,,,,103.54862117767334,,,,,,,,,,,,,,,,,,,,,,,,,,103.5331072807312,103.54862117767334,103.54862117767334,105.03383731842041,109.60216736793518,space,4.549928903579712,None,109.60231423377991,109.61753606796265,109.61753606796265,111.1178503036499,137.76567387580872,space,26.642346382141113,None,137.76582860946655,137.79287242889404,137.79287242889404,137.79287242889404,137.79287242889404,137.79287242889404,137.79287242889404,137.79287242889404,137.79287242889404,137.79287242889404,139.27768802642822,145.4634280204773,space,6.180552244186401,None,145.4635853767395,145.4842085838318,145.4842085838318,145.4842085838318,146.96228551864624,150.38108491897583,space,3.405543327331543,None,150.38123774528503,150.4000518321991,150.4000518321991,151.88055419921875,153.1675672531128,space,1.2712154388427734,None,153.16777276992798,153.18138670921326,153.18138670921326,155.21300053596497,space,2.028759479522705,None,,,,,,,,,,,,,,,,,,,,,,,,,,,,,,,,,,,,,,,,,,,,,,,143,1,2025-02-27_11h17.02.862,comp,2024.2.4,56.492899166002196,2025-02-27 11h30.06.095449 -0500,
0,0,0,filler_random,None,None,None,None,None,None,None,None,None,None,2,6.2059173583984375,None,,,,,0,0,0,0,0,0,0,140,155.2902979850769,,,,,,,,,,,,,,,,,,,,,,,,,,,,,,,,,,,,,,,,,,,,,,,,,,,,,,,,,,,,,,,,,,,,,,,,,,,,,,,,,73.88810985777067,86.00104611553597,129.99946742446699,117.41052058670226,176.9030502276622,77.90078666119558,2.2,2.21,-198,-254,0,263,194,258,155.27428531646729,155.27434420585632,155.27562880516052,155.2902979850769,155.44052743911743,155.44052743911743,155.44052743911743,155.44052743911743,155.44052743911743,155.44052743911743,155.44052743911743,161.50403833389282,2,6.2059173583984375,None,,,,,,,,,,,,,,,,,,143,1,2025-02-27_11h17.02.862,comp,2024.2.4,56.492899166002196,2025-02-27 11h30.06.095449 -0500,
1,1,0,critical,wdh,35.0,2.1,lower,57.0,133.0,70.0,70.0,133.0,57.0,3,6.503730773925781,None,,,,,0,0,0,0,0,1,1,32,161.52002930641174,,,,,,,,,,,,,,,,,,,,,,,,,,,,,,,,,,,,,,,,,,,,,,,,,,,,,,,,,,,,,,,,,,,,,,,,,,,,,,,,,57.0,133.0,70.0,70.0,133.0,57.0,2.1,2.11,-198,279,0,276,160,-260,161.50568675994873,161.50581002235413,161.5091209411621,161.52002930641174,161.6765787601471,161.6765787601471,161.6765787601471,161.6765787601471,161.6765787601471,161.6765787601471,161.6765787601471,168.03648686408997,3,6.503730773925781,None,,,,,,,,,,,,,,,,,,143,1,2025-02-27_11h17.02.862,comp,2024.2.4,56.492899166002196,2025-02-27 11h30.06.095449 -0500,
2,2,0,critical,hwd,35.0,2.1,upper,200.0,125.0,125.0,200.0,127.0,127.0,1,11.900298357009888,None,,,,,0,0,0,0,0,2,2,41,168.05206727981567,,,,,,,,,,,,,,,,,,,,,,,,,,,,,,,,,,,,,,,,,,,,,,,,,,,,,,,,,,,,,,,,,,,,,,,,,,,,,,,,,200.0,125.0,125.0,200.0,127.0,127.0,2.1,2.12,-258,-266,0,-257,260,259,168.03801441192627,168.03809118270874,168.04112839698792,168.05206727981567,168.20095920562744,168.20095920562744,168.20095920562744,168.20095920562744,168.20095920562744,168.20095920562744,168.20095920562744,179.96126413345337,1,11.900298357009888,None,,,,,,,,,,,,,,,,,,143,1,2025-02-27_11h17.02.862,comp,2024.2.4,56.492899166002196,2025-02-27 11h30.06.095449 -0500,
3,3,0,critical,hwd,20.0,1.0,upper,200.0,125.0,125.0,200.0,141.0,141.0,1,3.156708002090454,None,,,,,0,0,0,0,0,3,3,103,179.97912073135376,,,,,,,,,,,,,,,,,,,,,,,,,,,,,,,,,,,,,,,,,,,,,,,,,,,,,,,,,,,,,,,,,,,,,,,,,,,,,,,,,200.0,125.0,125.0,200.0,141.0,141.0,1.0,1.2,-258,9,0,10,266,-19,179.9630913734436,179.96317195892334,179.9659960269928,179.97912073135376,180.12492632865906,180.12492632865906,180.12492632865906,180.12492632865906,180.12492632865906,180.12492632865906,180.12492632865906,183.1456654071808,1,3.156708002090454,None,,,,,,,,,,,,,,,,,,143,1,2025-02-27_11h17.02.862,comp,2024.2.4,56.492899166002196,2025-02-27 11h30.06.095449 -0500,
4,4,0,critical,hdw,35.0,2.1,upper,200.0,125.0,127.0,127.0,125.0,200.0,3,2.9827470779418945,None,,,,,0,0,0,0,0,4,4,45,183.1610963344574,,,,,,,,,,,,,,,,,,,,,,,,,,,,,,,,,,,,,,,,,,,,,,,,,,,,,,,,,,,,,,,,,,,,,,,,,,,,,,,,,200.0,125.0,127.0,127.0,125.0,200.0,2.1,2.12,-222,-285,0,-267,260,266,183.14752173423767,183.1475989818573,183.15046525001526,183.1610963344574,183.30874752998352,183.30874752998352,183.30874752998352,183.30874752998352,183.30874752998352,183.30874752998352,183.30874752998352,186.15920615196228,3,2.9827470779418945,None,,,,,,,,,,,,,,,,,,143,1,2025-02-27_11h17.02.862,comp,2024.2.4,56.492899166002196,2025-02-27 11h30.06.095449 -0500,
5,5,0,filler_square,None,None,None,None,None,None,None,None,None,None,2,3.3044910430908203,None,,,,,0,0,0,0,0,5,5,175,186.17549991607666,,,,,,,,,,,,,,,,,,,,,,,,,,,,,,,,,,,,,,,,,,,,,,,,,,,,,,,,,,,,,,,,,,,,,,,,,,,,,,,,,67.85260243327028,58.69630947716434,68.60925122967033,68.60925122967033,60.24282455491234,61.01330313982835,2.1,2.11,-160,274,0,250,161,-289,186.16130900382996,186.16138625144958,186.16514039039612,186.17549991607666,186.3270092010498,186.3270092010498,186.3270092010498,186.3270092010498,186.3270092010498,186.3270092010498,186.3270092010498,189.49528431892395,2,3.3044910430908203,None,,,,,,,,,,,,,,,,,,143,1,2025-02-27_11h17.02.862,comp,2024.2.4,56.492899166002196,2025-02-27 11h30.06.095449 -0500,
6,6,0,critical,dwh,35.0,1.0,upper,127.0,127.0,125.0,200.0,200.0,125.0,3,8.25615406036377,None,,,,,0,0,0,0,0,6,6,61,189.5116765499115,,,,,,,,,,,,,,,,,,,,,,,,,,,,,,,,,,,,,,,,,,,,,,,,,,,,,,,,,,,,,,,,,,,,,,,,,,,,,,,,,127.0,127.0,125.0,200.0,200.0,125.0,1.0,1.3,220,-274,480,-279,738,-264,189.49699521064758,189.4971227645874,189.50036454200745,189.5116765499115,189.66015720367432,189.66015720367432,189.66015720367432,189.66015720367432,189.66015720367432,189.66015720367432,189.66015720367432,197.77879858016968,3,8.25615406036377,None,,,,,,,,,,,,,,,,,,143,1,2025-02-27_11h17.02.862,comp,2024.2.4,56.492899166002196,2025-02-27 11h30.06.095449 -0500,
7,7,0,critical,wdh,20.0,3.0,lower,57.0,133.0,78.0,78.0,133.0,57.0,3,3.829338788986206,None,,,,,0,0,0,0,0,7,7,80,197.79521012306213,,,,,,,,,,,,,,,,,,,,,,,,,,,,,,,,,,,,,,,,,,,,,,,,,,,,,,,,,,,,,,,,,,,,,,,,,,,,,,,,,57.0,133.0,78.0,78.0,133.0,57.0,3.0,3.1,-202,269,0,-3,164,-272,197.78032398223877,197.7804045677185,197.7835352420807,197.79521012306213,197.95171332359314,197.95171332359314,197.95171332359314,197.95171332359314,197.95171332359314,197.95171332359314,197.95171332359314,201.63083291053772,3,3.829338788986206,None,,,,,,,,,,,,,,,,,,143,1,2025-02-27_11h17.02.862,comp,2024.2.4,56.492899166002196,2025-02-27 11h30.06.095449 -0500,
8,8,0,filler_random,None,None,None,None,None,None,None,None,None,None,3,2.3368418216705322,None,,,,,0,0,0,0,0,8,8,167,201.64718675613403,,,,,,,,,,,,,,,,,,,,,,,,,,,,,,,,,,,,,,,,,,,,,,,,,,,,,,,,,,,,,,,,,,,,,,,,,,,,,,,,,182.57066342813522,68.09783970873806,166.15055497828354,110.07775811173124,188.24933759783144,132.86946736331345,4.0,4.1,-185,-252,0,16,217,-270,201.63257384300232,201.6326503753662,201.63599371910095,201.64718675613403,201.79864406585693,201.79864406585693,201.79864406585693,201.79864406585693,201.79864406585693,201.79864406585693,201.79864406585693,203.99836134910583,3,2.3368418216705322,None,,,,,,,,,,,,,,,,,,143,1,2025-02-27_11h17.02.862,comp,2024.2.4,56.492899166002196,2025-02-27 11h30.06.095449 -0500,
9,9,0,critical,dhw,20.0,3.0,lower,78.0,78.0,133.0,57.0,57.0,133.0,2,18.529590368270874,None,,,,,0,0,0,0,0,9,9,56,204.01416444778442,,,,,,,,,,,,,,,,,,,,,,,,,,,,,,,,,,,,,,,,,,,,,,,,,,,,,,,,,,,,,,,,,,,,,,,,,,,,,,,,,78.0,78.0,133.0,57.0,57.0,133.0,3.0,3.1,-164,276,0,2,191,-277,203.99983429908752,203.99991011619568,204.00388050079346,204.01416444778442,204.16506791114807,204.16506791114807,204.16506791114807,204.16506791114807,204.16506791114807,204.16506791114807,204.16506791114807,222.55737280845642,2,18.529590368270874,None,,,,,,,,,,,,,,,,,,143,1,2025-02-27_11h17.02.862,comp,2024.2.4,56.492899166002196,2025-02-27 11h30.06.095449 -0500,
10,10,0,critical,dhw,35.0,3.0,lower,70.0,70.0,133.0,57.0,57.0,133.0,3,3.2352941036224365,None,,,,,0,0,0,0,0,10,10,50,222.5726466178894,,,,,,,,,,,,,,,,,,,,,,,,,,,,,,,,,,,,,,,,,,,,,,,,,,,,,,,,,,,,,,,,,,,,,,,,,,,,,,,,,70.0,70.0,133.0,57.0,57.0,133.0,3.0,3.2,-160,-285,0,-3,191,254,222.55892610549927,222.5590419769287,222.5619637966156,222.5726466178894,222.72131037712097,222.72131037712097,222.72131037712097,222.72131037712097,222.72131037712097,222.72131037712097,222.72131037712097,225.82173824310303,3,3.2352941036224365,None,,,,,,,,,,,,,,,,,,143,1,2025-02-27_11h17.02.862,comp,2024.2.4,56.492899166002196,2025-02-27 11h30.06.095449 -0500,
11,11,0,critical,dwh,20.0,3.0,upper,141.0,141.0,125.0,200.0,200.0,125.0,2,17.803443908691406,None,,,,,0,0,0,0,0,11,11,69,225.83703351020813,,,,,,,,,,,,,,,,,,,,,,,,,,,,,,,,,,,,,,,,,,,,,,,,,,,,,,,,,,,,,,,,,,,,,,,,,,,,,,,,,141.0,141.0,125.0,200.0,200.0,125.0,3.0,3.1,-266,275,0,-18,258,-281,225.823340177536,225.82341480255127,225.82669186592102,225.83703351020813,225.98862481117249,225.98862481117249,225.98862481117249,225.98862481117249,225.98862481117249,225.98862481117249,225.98862481117249,243.64977025985718,2,17.803443908691406,None,,,,,,,,,,,,,,,,,,143,1,2025-02-27_11h17.02.862,comp,2024.2.4,56.492899166002196,2025-02-27 11h30.06.095449 -0500,
12,12,0,critical,dwh,20.0,3.0,lower,78.0,78.0,57.0,133.0,133.0,57.0,3,2.9663848876953125,None,,,,,0,0,0,0,0,12,12,68,243.66564989089966,,,,,,,,,,,,,,,,,,,,,,,,,,,,,,,,,,,,,,,,,,,,,,,,,,,,,,,,,,,,,,,,,,,,,,,,,,,,,,,,,78.0,78.0,57.0,133.0,133.0,57.0,3.0,3.2,-202,-276,0,-5,191,281,243.65140438079834,243.65149092674255,243.6547875404358,243.66564989089966,243.8107714653015,243.8107714653015,243.8107714653015,243.8107714653015,243.8107714653015,243.8107714653015,243.8107714653015,246.645494222641,3,2.9663848876953125,None,,,,,,,,,,,,,,,,,,143,1,2025-02-27_11h17.02.862,comp,2024.2.4,56.492899166002196,2025-02-27 11h30.06.095449 -0500,
13,13,0,critical,dhw,20.0,4.0,upper,141.0,141.0,200.0,125.0,125.0,200.0,3,2.434572696685791,None,,,,,0,0,0,0,0,13,13,59,246.66133069992065,,,,,,,,,,,,,,,,,,,,,,,,,,,,,,,,,,,,,,,,,,,,,,,,,,,,,,,,,,,,,,,,,,,,,,,,,,,,,,,,,141.0,141.0,200.0,125.0,125.0,200.0,4.0,4.1,-229,-262,0,-13,258,-254,246.64711046218872,246.64723682403564,246.65100288391113,246.66133069992065,246.81178998947144,246.81178998947144,246.81178998947144,246.81178998947144,246.81178998947144,246.81178998947144,246.81178998947144,249.1123743057251,3,2.434572696685791,None,,,,,,,,,,,,,,,,,,143,1,2025-02-27_11h17.02.862,comp,2024.2.4,56.492899166002196,2025-02-27 11h30.06.095449 -0500,
14,14,0,critical,whd,20.0,2.1,upper,125.0,200.0,200.0,125.0,141.0,141.0,1,10.04013705253601,None,,,,,0,0,0,0,0,14,14,15,249.12786269187927,,,,,,,,,,,,,,,,,,,,,,,,,,,,,,,,,,,,,,,,,,,,,,,,,,,,,,,,,,,,,,,,,,,,,,,,,,,,,,,,,125.0,200.0,200.0,125.0,141.0,141.0,2.1,2.12,-258,-272,0,-254,229,259,249.11396956443787,249.1140913963318,249.1175034046173,249.12786269187927,249.27801489830017,249.27801489830017,249.27801489830017,249.27801489830017,249.27801489830017,249.27801489830017,249.27801489830017,259.18246841430664,1,10.04013705253601,None,,,,,,,,,,,,,,,,,,143,1,2025-02-27_11h17.02.862,comp,2024.2.4,56.492899166002196,2025-02-27 11h30.06.095449 -0500,
15,15,0,critical,hdw,35.0,3.0,lower,133.0,57.0,70.0,70.0,57.0,133.0,1,3.4837000370025635,None,,,,,0,0,0,0,0,15,15,110,259.1962158679962,,,,,,,,,,,,,,,,,,,,,,,,,,,,,,,,,,,,,,,,,,,,,,,,,,,,,,,,,,,,,,,,,,,,,,,,,,,,,,,,,133.0,57.0,70.0,70.0,57.0,133.0,3.0,3.1,-160,259,0,0,198,-260,259.1839179992676,259.1840171813965,259.18723154067993,259.1962158679962,259.349463224411,259.349463224411,259.349463224411,259.349463224411,259.349463224411,259.349463224411,259.349463224411,262.683137178421,1,3.4837000370025635,None,,,,,,,,,,,,,,,,,,143,1,2025-02-27_11h17.02.862,comp,2024.2.4,56.492899166002196,2025-02-27 11h30.06.095449 -0500,
16,16,0,filler_random,None,None,None,None,None,None,None,None,None,None,1,2.4447414875030518,None,,,,,0,0,0,0,0,16,16,156,262.6996018886566,,,,,,,,,,,,,,,,,,,,,,,,,,,,,,,,,,,,,,,,,,,,,,,,,,,,,,,,,,,,,,,,,,,,,,,,,,,,,,,,,195.4413429904445,182.3465928322311,89.48396318457233,193.74104290845054,105.33735377433945,70.20338655187396,2.2,2.22,-284,261,0,-260,228,-275,262.6850881576538,262.6851689815521,262.68861198425293,262.6996018886566,262.8469135761261,262.8469135761261,262.8469135761261,262.8469135761261,262.8469135761261,262.8469135761261,262.8469135761261,265.1519968509674,1,2.4447414875030518,None,,,,,,,,,,,,,,,,,,143,1,2025-02-27_11h17.02.862,comp,2024.2.4,56.492899166002196,2025-02-27 11h30.06.095449 -0500,
17,17,0,filler_square,None,None,None,None,None,None,None,None,None,None,1,2.3919599056243896,None,,,,,0,0,0,0,0,17,17,199,265.1685309410095,,,,,,,,,,,,,,,,,,,,,,,,,,,,,,,,,,,,,,,,,,,,,,,,,,,,,,,,,,,,,,,,,,,,,,,,,,,,,,,,,171.48632039685918,171.48632039685918,145.9848323144688,166.00471994510121,145.187059199657,129.3496205276208,3.0,3.2,-265,-253,0,0,244,287,265.1538760662079,265.15403604507446,265.1577844619751,265.1685309410095,265.3179998397827,265.3179998397827,265.3179998397827,265.3179998397827,265.3179998397827,265.3179998397827,265.3179998397827,267.56843733787537,1,2.3919599056243896,None,,,,,,,,,,,,,,,,,,143,1,2025-02-27_11h17.02.862,comp,2024.2.4,56.492899166002196,2025-02-27 11h30.06.095449 -0500,
18,18,0,filler_square,None,None,None,None,None,None,None,None,None,None,2,4.177513360977173,None,,,,,0,0,0,0,0,18,18,205,267.58486008644104,,,,,,,,,,,,,,,,,,,,,,,,,,,,,,,,,,,,,,,,,,,,,,,,,,,,,,,,,,,,,,,,,,,,,,,,,,,,,,,,,69.97002741076186,81.81791112104767,164.74696278529075,164.74696278529075,153.06281265514818,146.6593575463624,4.0,4.1,-219,-255,0,3,252,-266,267.5702064037323,267.57028579711914,267.57383704185486,267.58486008644104,267.7341420650482,267.7341420650482,267.7341420650482,267.7341420650482,267.7341420650482,267.7341420650482,267.7341420650482,271.7687096595764,2,4.177513360977173,None,,,,,,,,,,,,,,,,,,143,1,2025-02-27_11h17.02.862,comp,2024.2.4,56.492899166002196,2025-02-27 11h30.06.095449 -0500,
19,19,0,filler_square,None,None,None,None,None,None,None,None,None,None,2,1.7110679149627686,None,,,,,0,0,0,0,0,19,19,197,271.78519010543823,,,,,,,,,,,,,,,,,,,,,,,,,,,,,,,,,,,,,,,,,,,,,,,,,,,,,,,,,,,,,,,,,,,,,,,,,,,,,,,,,102.73958592468061,103.45792970725037,165.9858026255772,165.9858026255772,92.37279111349235,127.219458422119,4.0,4.2,-231,-4,0,-258,243,-13,271.77048540115356,271.77056217193604,271.7735879421234,271.78519010543823,271.9368760585785,271.9368760585785,271.9368760585785,271.9368760585785,271.9368760585785,271.9368760585785,271.9368760585785,273.50607681274414,2,1.7110679149627686,None,,,,,,,,,,,,,,,,,,143,1,2025-02-27_11h17.02.862,comp,2024.2.4,56.492899166002196,2025-02-27 11h30.06.095449 -0500,
20,20,0,critical,wdh,35.0,2.1,upper,125.0,200.0,127.0,127.0,200.0,125.0,1,2.8269214630126953,None,,,,,0,0,0,0,0,20,20,33,273.52520275115967,,,,,,,,,,,,,,,,,,,,,,,,,,,,,,,,,,,,,,,,,,,,,,,,,,,,,,,,,,,,,,,,,,,,,,,,,,,,,,,,,125.0,200.0,127.0,127.0,200.0,125.0,2.1,2.11,-260,275,0,260,222,-265,273.50770473480225,273.50778436660767,273.51137495040894,273.52520275115967,273.6698818206787,273.6698818206787,273.6698818206787,273.6698818206787,273.6698818206787,273.6698818206787,273.6698818206787,276.35484194755554,1,2.8269214630126953,None,,,,,,,,,,,,,,,,,,143,1,2025-02-27_11h17.02.862,comp,2024.2.4,56.492899166002196,2025-02-27 11h30.06.095449 -0500,
21,21,0,filler_random,None,None,None,None,None,None,None,None,None,None,2,1.6916768550872803,None,,,,,0,0,0,0,0,21,21,142,276.3730170726776,,,,,,,,,,,,,,,,,,,,,,,,,,,,,,,,,,,,,,,,,,,,,,,,,,,,,,,,,,,,,,,,,,,,,,,,,,,,,,,,,83.32568098676721,85.8065256732018,169.28370507227893,103.13965822391013,173.06602200394295,87.05450974754973,2.2,2.21,-190,-282,0,270,191,258,276.356627702713,276.35670495033264,276.3596189022064,276.3730170726776,276.5208959579468,276.5208959579468,276.5208959579468,276.5208959579468,276.5208959579468,276.5208959579468,276.5208959579468,278.0705943107605,2,1.6916768550872803,None,,,,,,,,,,,,,,,,,,143,1,2025-02-27_11h17.02.862,comp,2024.2.4,56.492899166002196,2025-02-27 11h30.06.095449 -0500,
22,22,0,critical,dhw,35.0,2.1,upper,127.0,127.0,200.0,125.0,125.0,200.0,3,1.9760477542877197,None,,,,,0,0,0,0,0,22,22,1,278.0885772705078,,,,,,,,,,,,,,,,,,,,,,,,,,,,,,,,,,,,,,,,,,,,,,,,,,,,,,,,,,,,,,,,,,,,,,,,,,,,,,,,,127.0,127.0,200.0,125.0,125.0,200.0,2.1,2.11,-222,263,0,261,258,-251,278.0720956325531,278.07217478752136,278.0752923488617,278.0885772705078,278.2398359775543,278.2398359775543,278.2398359775543,278.2398359775543,278.2398359775543,278.2398359775543,278.2398359775543,280.0732681751251,3,1.9760477542877197,None,,,,,,,,,,,,,,,,,,143,1,2025-02-27_11h17.02.862,comp,2024.2.4,56.492899166002196,2025-02-27 11h30.06.095449 -0500,
23,23,0,critical,wdh,35.0,3.0,lower,57.0,133.0,70.0,70.0,133.0,57.0,1,6.271394491195679,None,,,,,0,0,0,0,0,23,23,74,280.08862686157227,,,,,,,,,,,,,,,,,,,,,,,,,,,,,,,,,,,,,,,,,,,,,,,,,,,,,,,,,,,,,,,,,,,,,,,,,,,,,,,,,57.0,133.0,70.0,70.0,133.0,57.0,3.0,3.1,-198,273,0,8,160,-258,280.0748164653778,280.0748918056488,280.0779049396515,280.08862686157227,280.2402844429016,280.2402844429016,280.2402844429016,280.2402844429016,280.2402844429016,280.2402844429016,280.2402844429016,286.3714702129364,1,6.271394491195679,None,,,,,,,,,,,,,,,,,,143,1,2025-02-27_11h17.02.862,comp,2024.2.4,56.492899166002196,2025-02-27 11h30.06.095449 -0500,
24,24,0,filler_random,None,None,None,None,None,None,None,None,None,None,1,2.36401629447937,None,,,,,0,0,0,0,0,24,24,157,286.3882749080658,,,,,,,,,,,,,,,,,,,,,,,,,,,,,,,,,,,,,,,,,,,,,,,,,,,,,,,,,,,,,,,,,,,,,,,,,,,,,,,,,166.07278834301846,189.8650707527813,187.9929673115975,63.762584277612135,133.25363951560928,177.1430749561944,3.0,3.2,-223,-253,0,-12,216,283,286.3731701374054,286.3732464313507,286.37608456611633,286.3882749080658,286.528461933136,286.528461933136,286.528461933136,286.528461933136,286.528461933136,286.528461933136,286.528461933136,288.7592840194702,1,2.36401629447937,None,,,,,,,,,,,,,,,,,,143,1,2025-02-27_11h17.02.862,comp,2024.2.4,56.492899166002196,2025-02-27 11h30.06.095449 -0500,
25,25,0,critical,dhw,20.0,4.0,lower,78.0,78.0,133.0,57.0,57.0,133.0,3,8.632652521133423,None,,,,,0,0,0,0,0,25,25,58,288.77545261383057,,,,,,,,,,,,,,,,,,,,,,,,,,,,,,,,,,,,,,,,,,,,,,,,,,,,,,,,,,,,,,,,,,,,,,,,,,,,,,,,,78.0,78.0,133.0,57.0,57.0,133.0,4.0,4.1,-164,-275,0,-14,191,-273,288.76087379455566,288.7609920501709,288.7645585536957,288.77545261383057,288.925368309021,288.925368309021,288.925368309021,288.925368309021,288.925368309021,288.925368309021,288.925368309021,297.42650079727173,3,8.632652521133423,None,,,,,,,,,,,,,,,,,,143,1,2025-02-27_11h17.02.862,comp,2024.2.4,56.492899166002196,2025-02-27 11h30.06.095449 -0500,
26,26,0,filler_square,None,None,None,None,None,None,None,None,None,None,3,1.6133966445922852,None,,,,,0,0,0,0,0,26,26,188,297.44312286376953,,,,,,,,,,,,,,,,,,,,,,,,,,,,,,,,,,,,,,,,,,,,,,,,,,,,,,,,,,,,,,,,,,,,,,,,,,,,,,,,,132.76559169053644,135.29818784065014,94.28667570840395,76.2233733315179,152.31594372537984,152.31594372537984,3.0,3.1,-202,288,0,-5,210,-266,297.4284222126007,297.4285538196564,297.43177103996277,297.44312286376953,297.5963861942291,297.5963861942291,297.5963861942291,297.5963861942291,297.5963861942291,297.5963861942291,297.5963861942291,299.0620973110199,3,1.6133966445922852,None,,,,,,,,,,,,,,,,,,143,1,2025-02-27_11h17.02.862,comp,2024.2.4,56.492899166002196,2025-02-27 11h30.06.095449 -0500,
27,27,0,critical,dhw,20.0,2.1,lower,78.0,78.0,133.0,57.0,57.0,133.0,3,2.3304057121276855,None,,,,,0,0,0,0,0,27,27,2,299.07798504829407,,,,,,,,,,,,,,,,,,,,,,,,,,,,,,,,,,,,,,,,,,,,,,,,,,,,,,,,,,,,,,,,,,,,,,,,,,,,,,,,,78.0,78.0,133.0,57.0,57.0,133.0,2.1,2.11,-164,288,0,281,191,-282,299.06371665000916,299.0638117790222,299.0672678947449,299.07798504829407,299.2274944782257,299.2274944782257,299.2274944782257,299.2274944782257,299.2274944782257,299.2274944782257,299.2274944782257,301.4135582447052,3,2.3304057121276855,None,,,,,,,,,,,,,,,,,,143,1,2025-02-27_11h17.02.862,comp,2024.2.4,56.492899166002196,2025-02-27 11h30.06.095449 -0500,
28,28,0,filler_square,None,None,None,None,None,None,None,None,None,None,1,1.6741957664489746,None,,,,,0,0,0,0,0,28,28,183,301.42981719970703,,,,,,,,,,,,,,,,,,,,,,,,,,,,,,,,,,,,,,,,,,,,,,,,,,,,,,,,,,,,,,,,,,,,,,,,,,,,,,,,,77.7911395170614,77.7911395170614,63.23125273271406,71.46033124447519,65.70662228495765,59.69144963932427,1.0,1.1,-651,269,-480,273,-318,271,301.41544556617737,301.4155251979828,301.4190106391907,301.42981719970703,301.57741045951843,301.57741045951843,301.57741045951843,301.57741045951843,301.57741045951843,301.57741045951843,301.57741045951843,303.11860728263855,1,1.6741957664489746,None,,,,,,,,,,,,,,,,,,143,1,2025-02-27_11h17.02.862,comp,2024.2.4,56.492899166002196,2025-02-27 11h30.06.095449 -0500,
29,29,0,filler_square,None,None,None,None,None,None,None,None,None,None,2,2.1440463066101074,None,,,,,0,0,0,0,0,29,29,203,303.13590955734253,,,,,,,,,,,,,,,,,,,,,,,,,,,,,,,,,,,,,,,,,,,,,,,,,,,,,,,,,,,,,,,,,,,,,,,,,,,,,,,,,135.1906827240835,145.17517701923651,158.67765323173114,158.67765323173114,135.15447529142918,136.5771972585371,2.2,2.22,-248,280,0,-265,244,-267,303.1203467845917,303.1204209327698,303.1232442855835,303.13590955734253,303.27977323532104,303.27977323532104,303.27977323532104,303.27977323532104,303.27977323532104,303.27977323532104,303.27977323532104,305.2973120212555,2,2.1440463066101074,None,,,,,,,,,,,,,,,,,,143,1,2025-02-27_11h17.02.862,comp,2024.2.4,56.492899166002196,2025-02-27 11h30.06.095449 -0500,
30,30,0,critical,dwh,35.0,3.0,upper,127.0,127.0,125.0,200.0,200.0,125.0,2,3.1755917072296143,None,,,,,0,0,0,0,0,30,30,63,305.31248712539673,,,,,,,,,,,,,,,,,,,,,,,,,,,,,,,,,,,,,,,,,,,,,,,,,,,,,,,,,,,,,,,,,,,,,,,,,,,,,,,,,127.0,127.0,125.0,200.0,200.0,125.0,3.0,3.2,-260,-287,0,-7,258,253,305.29877853393555,305.2988541126251,305.3022611141205,305.31248712539673,305.46573400497437,305.46573400497437,305.46573400497437,305.46573400497437,305.46573400497437,305.46573400497437,305.46573400497437,308.50188398361206,2,3.1755917072296143,None,,,,,,,,,,,,,,,,,,143,1,2025-02-27_11h17.02.862,comp,2024.2.4,56.492899166002196,2025-02-27 11h30.06.095449 -0500,
31,31,0,critical,wdh,35.0,3.0,upper,125.0,200.0,127.0,127.0,200.0,125.0,1,2.602104425430298,None,,,,,0,0,0,0,0,31,31,75,308.518089056015,,,,,,,,,,,,,,,,,,,,,,,,,,,,,,,,,,,,,,,,,,,,,,,,,,,,,,,,,,,,,,,,,,,,,,,,,,,,,,,,,125.0,200.0,127.0,127.0,200.0,125.0,3.0,3.1,-260,268,0,11,222,-255,308.5035400390625,308.503634929657,308.50688791275024,308.518089056015,308.66465067863464,308.66465067863464,308.66465067863464,308.66465067863464,308.66465067863464,308.66465067863464,308.66465067863464,311.1343264579773,1,2.602104425430298,None,,,,,,,,,,,,,,,,,,143,1,2025-02-27_11h17.02.862,comp,2024.2.4,56.492899166002196,2025-02-27 11h30.06.095449 -0500,
32,32,0,critical,hwd,20.0,1.0,lower,133.0,57.0,57.0,133.0,78.0,78.0,1,5.649919748306274,None,,,,,0,0,0,0,0,32,32,102,311.1500961780548,,,,,,,,,,,,,,,,,,,,,,,,,,,,,,,,,,,,,,,,,,,,,,,,,,,,,,,,,,,,,,,,,,,,,,,,,,,,,,,,,133.0,57.0,57.0,133.0,78.0,78.0,1.0,1.2,-191,1,0,7,202,5,311.13589239120483,311.13600611686707,311.13903069496155,311.1500961780548,311.3025813102722,311.3025813102722,311.3025813102722,311.3025813102722,311.3025813102722,311.3025813102722,311.3025813102722,316.8168170452118,1,5.649919748306274,None,,,,,,,,,,,,,,,,,,143,1,2025-02-27_11h17.02.862,comp,2024.2.4,56.492899166002196,2025-02-27 11h30.06.095449 -0500,
33,33,0,filler_random,None,None,None,None,None,None,None,None,None,None,3,1.2640454769134521,None,,,,,0,0,0,0,0,33,33,146,316.83246207237244,,,,,,,,,,,,,,,,,,,,,,,,,,,,,,,,,,,,,,,,,,,,,,,,,,,,,,,,,,,,,,,,,,,,,,,,,,,,,,,,,66.86800277335753,70.15156259084105,118.85228425870523,76.44345052971202,167.07184636753357,185.28267831133473,4.0,4.1,-169,-270,0,-4,227,-280,316.81869173049927,316.8187816143036,316.82214426994324,316.83246207237244,316.9823248386383,316.9823248386383,316.9823248386383,316.9823248386383,316.9823248386383,316.9823248386383,316.9823248386383,318.09927797317505,3,1.2640454769134521,None,,,,,,,,,,,,,,,,,,143,1,2025-02-27_11h17.02.862,comp,2024.2.4,56.492899166002196,2025-02-27 11h30.06.095449 -0500,
34,34,0,filler_square,None,None,None,None,None,None,None,None,None,None,2,1.364877462387085,None,,,,,0,0,0,0,0,34,34,198,318.1152729988098,,,,,,,,,,,,,,,,,,,,,,,,,,,,,,,,,,,,,,,,,,,,,,,,,,,,,,,,,,,,,,,,,,,,,,,,,,,,,,,,,67.89193846822943,68.96150457369868,87.69473472751042,87.69473472751042,85.58177509257811,63.40817066273162,3.0,3.1,-174,262,0,-9,172,-289,318.1012272834778,318.10130405426025,318.1045114994049,318.1152729988098,318.2728941440582,318.2728941440582,318.2728941440582,318.2728941440582,318.2728941440582,318.2728941440582,318.2728941440582,319.4845116138458,2,1.364877462387085,None,,,,,,,,,,,,,,,,,,143,1,2025-02-27_11h17.02.862,comp,2024.2.4,56.492899166002196,2025-02-27 11h30.06.095449 -0500,
35,35,0,critical,dwh,35.0,2.1,upper,127.0,127.0,125.0,200.0,200.0,125.0,2,3.723858594894409,None,,,,,0,0,0,0,0,35,35,5,319.50016140937805,,,,,,,,,,,,,,,,,,,,,,,,,,,,,,,,,,,,,,,,,,,,,,,,,,,,,,,,,,,,,,,,,,,,,,,,,,,,,,,,,127.0,127.0,125.0,200.0,200.0,125.0,2.1,2.12,-260,-270,0,-282,258,289,319.48605823516846,319.4861376285553,319.4895963668823,319.50016140937805,319.6578257083893,319.6578257083893,319.6578257083893,319.6578257083893,319.6578257083893,319.6578257083893,319.6578257083893,323.23738169670105,2,3.723858594894409,None,,,,,,,,,,,,,,,,,,143,1,2025-02-27_11h17.02.862,comp,2024.2.4,56.492899166002196,2025-02-27 11h30.06.095449 -0500,
36,36,0,critical,hdw,35.0,2.1,lower,133.0,57.0,70.0,70.0,57.0,133.0,1,3.9465112686157227,None,,,,,0,0,0,0,0,36,36,20,323.25353479385376,,,,,,,,,,,,,,,,,,,,,,,,,,,,,,,,,,,,,,,,,,,,,,,,,,,,,,,,,,,,,,,,,,,,,,,,,,,,,,,,,133.0,57.0,70.0,70.0,57.0,133.0,2.1,2.11,-160,259,0,282,198,-267,323.23891854286194,323.23907136917114,323.2424097061157,323.25353479385376,323.40216088294983,323.40216088294983,323.40216088294983,323.40216088294983,323.40216088294983,323.40216088294983,323.40216088294983,327.2047562599182,1,3.9465112686157227,None,,,,,,,,,,,,,,,,,,143,1,2025-02-27_11h17.02.862,comp,2024.2.4,56.492899166002196,2025-02-27 11h30.06.095449 -0500,
37,37,0,critical,dwh,35.0,2.1,lower,70.0,70.0,57.0,133.0,133.0,57.0,3,2.5793182849884033,None,,,,,0,0,0,0,0,37,37,28,327.2209196090698,,,,,,,,,,,,,,,,,,,,,,,,,,,,,,,,,,,,,,,,,,,,,,,,,,,,,,,,,,,,,,,,,,,,,,,,,,,,,,,,,70.0,70.0,57.0,133.0,133.0,57.0,2.1,2.11,-198,259,0,274,191,-275,327.2062842845917,327.20636224746704,327.2102379798889,327.2209196090698,327.36878395080566,327.36878395080566,327.36878395080566,327.36878395080566,327.36878395080566,327.36878395080566,327.36878395080566,329.8063471317291,3,2.5793182849884033,None,,,,,,,,,,,,,,,,,,143,1,2025-02-27_11h17.02.862,comp,2024.2.4,56.492899166002196,2025-02-27 11h30.06.095449 -0500,
38,38,0,critical,dwh,35.0,2.1,lower,70.0,70.0,57.0,133.0,133.0,57.0,2,1.8880925178527832,None,,,,,0,0,0,0,0,38,38,4,329.8240475654602,,,,,,,,,,,,,,,,,,,,,,,,,,,,,,,,,,,,,,,,,,,,,,,,,,,,,,,,,,,,,,,,,,,,,,,,,,,,,,,,,70.0,70.0,57.0,133.0,133.0,57.0,2.1,2.11,-198,277,0,257,191,-278,329.80795788764954,329.80804467201233,329.8111426830292,329.8240475654602,329.9706723690033,329.9706723690033,329.9706723690033,329.9706723690033,329.9706723690033,329.9706723690033,329.9706723690033,331.7264795303345,2,1.8880925178527832,None,,,,,,,,,,,,,,,,,,143,1,2025-02-27_11h17.02.862,comp,2024.2.4,56.492899166002196,2025-02-27 11h30.06.095449 -0500,
39,39,0,catch,None,None,None,None,None,None,None,None,None,None,2,1.2051267623901367,None,,,,,0,0,0,0,0,39,39,122,331.7471294403076,,,,,,,,,,,,,,,,,,,,,,,,,,,,,,,,,,,,,,,,,,,,,,,,,,,,,,,,,,,,,,,,,,,,,,,,,,,,,,,,,92,98,195,130,100,90,4.0,4.2,-210,5,0,-268,206,15,331.72845125198364,331.7285306453705,331.7314233779907,331.7471294403076,331.88871002197266,331.88871002197266,331.88871002197266,331.88871002197266,331.88871002197266,331.88871002197266,331.88871002197266,332.95817375183105,2,1.2051267623901367,None,,,,,,,,,,,,,,,,,,143,1,2025-02-27_11h17.02.862,comp,2024.2.4,56.492899166002196,2025-02-27 11h30.06.095449 -0500,
40,40,0,filler_square,None,None,None,None,None,None,None,None,None,None,1,1.047607421875,None,,,,,0,0,0,0,0,40,40,192,332.9765362739563,,,,,,,,,,,,,,,,,,,,,,,,,,,,,,,,,,,,,,,,,,,,,,,,,,,,,,,,,,,,,,,,,,,,,,,,,,,,,,,,,150.06726543443972,150.06726543443972,132.56412624495104,143.7137169682153,110.65915785345278,103.68083995228525,1.0,1.1,-723,254,-480,254,-260,263,332.9600474834442,332.9601275920868,332.96308422088623,332.9765362739563,333.1217231750488,333.1217231750488,333.1217231750488,333.1217231750488,333.1217231750488,333.1217231750488,333.1217231750488,334.03985834121704,1,1.047607421875,None,,,,,,,,,,,,,,,,,,143,1,2025-02-27_11h17.02.862,comp,2024.2.4,56.492899166002196,2025-02-27 11h30.06.095449 -0500,
41,41,0,filler_random,None,None,None,None,None,None,None,None,None,None,2,2.016608953475952,None,,,,,0,0,0,0,0,41,41,147,334.0558695793152,,,,,,,,,,,,,,,,,,,,,,,,,,,,,,,,,,,,,,,,,,,,,,,,,,,,,,,,,,,,,,,,,,,,,,,,,,,,,,,,,60.84722884724903,102.62862920202701,127.3552535005261,169.4037340046891,129.90442530832337,140.25759916544808,3.0,3.1,-232,286,0,0,251,-261,334.04155468940735,334.0416340827942,334.04561853408813,334.0558695793152,334.2057557106018,334.2057557106018,334.2057557106018,334.2057557106018,334.2057557106018,334.2057557106018,334.2057557106018,336.08033514022827,2,2.016608953475952,None,,,,,,,,,,,,,,,,,,143,1,2025-02-27_11h17.02.862,comp,2024.2.4,56.492899166002196,2025-02-27 11h30.06.095449 -0500,
42,42,0,critical,hdw,35.0,2.1,lower,133.0,57.0,70.0,70.0,57.0,133.0,3,2.589290142059326,None,,,,,0,0,0,0,0,42,42,44,336.09931683540344,,,,,,,,,,,,,,,,,,,,,,,,,,,,,,,,,,,,,,,,,,,,,,,,,,,,,,,,,,,,,,,,,,,,,,,,,,,,,,,,,133.0,57.0,70.0,70.0,57.0,133.0,2.1,2.12,-160,-253,0,-261,198,287,336.0817868709564,336.0818636417389,336.08469700813293,336.09931683540344,336.2401616573334,336.2401616573334,336.2401616573334,336.2401616573334,336.2401616573334,336.2401616573334,336.2401616573334,338.69676446914673,3,2.589290142059326,None,,,,,,,,,,,,,,,,,,143,1,2025-02-27_11h17.02.862,comp,2024.2.4,56.492899166002196,2025-02-27 11h30.06.095449 -0500,
43,43,0,critical,hwd,35.0,3.0,lower,133.0,57.0,57.0,133.0,70.0,70.0,1,6.53612756729126,None,,,,,0,0,0,0,0,43,43,98,338.71187138557434,,,,,,,,,,,,,,,,,,,,,,,,,,,,,,,,,,,,,,,,,,,,,,,,,,,,,,,,,,,,,,,,,,,,,,,,,,,,,,,,,133.0,57.0,57.0,133.0,70.0,70.0,3.0,3.2,-191,-282,0,-7,198,268,338.6982445716858,338.6983232498169,338.7011547088623,338.71187138557434,338.85754895210266,338.85754895210266,338.85754895210266,338.85754895210266,338.85754895210266,338.85754895210266,338.85754895210266,345.25821828842163,1,6.53612756729126,None,,,,,,,,,,,,,,,,,,143,1,2025-02-27_11h17.02.862,comp,2024.2.4,56.492899166002196,2025-02-27 11h30.06.095449 -0500,
44,44,0,catch,None,None,None,None,None,None,None,None,None,None,1,1.3338673114776611,None,,,,,0,0,0,0,0,44,44,126,345.27467012405396,,,,,,,,,,,,,,,,,,,,,,,,,,,,,,,,,,,,,,,,,,,,,,,,,,,,,,,,,,,,,,,,,,,,,,,,,,,,,,,,,143,182,93,97,67,123,2.1,2.12,-236,-256,0,-282,206,289,345.2599971294403,345.2600748538971,345.26317501068115,345.27467012405396,345.42646861076355,345.42646861076355,345.42646861076355,345.42646861076355,345.42646861076355,345.42646861076355,345.42646861076355,346.62610507011414,1,1.3338673114776611,None,,,,,,,,,,,,,,,,,,143,1,2025-02-27_11h17.02.862,comp,2024.2.4,56.492899166002196,2025-02-27 11h30.06.095449 -0500,
45,45,0,critical,wdh,20.0,4.0,upper,125.0,200.0,141.0,141.0,200.0,125.0,1,6.004872560501099,None,,,,,0,0,0,0,0,45,45,83,346.6434745788574,,,,,,,,,,,,,,,,,,,,,,,,,,,,,,,,,,,,,,,,,,,,,,,,,,,,,,,,,,,,,,,,,,,,,,,,,,,,,,,,,125.0,200.0,141.0,141.0,200.0,125.0,4.0,4.2,-266,-7,0,-284,229,6,346.627592086792,346.627667427063,346.6308424472809,346.6434745788574,346.7939224243164,346.7939224243164,346.7939224243164,346.7939224243164,346.7939224243164,346.7939224243164,346.7939224243164,352.66183638572693,1,6.004872560501099,None,,,,,,,,,,,,,,,,,,143,1,2025-02-27_11h17.02.862,comp,2024.2.4,56.492899166002196,2025-02-27 11h30.06.095449 -0500,
46,46,0,critical,hwd,20.0,2.1,lower,133.0,57.0,57.0,133.0,78.0,78.0,1,3.8026461601257324,None,,,,,0,0,0,0,0,46,46,42,352.6776795387268,,,,,,,,,,,,,,,,,,,,,,,,,,,,,,,,,,,,,,,,,,,,,,,,,,,,,,,,,,,,,,,,,,,,,,,,,,,,,,,,,133.0,57.0,57.0,133.0,78.0,78.0,2.1,2.11,-191,281,0,276,202,-253,352.66336250305176,352.6634409427643,352.66742634773254,352.6776795387268,352.8264639377594,352.8264639377594,352.8264639377594,352.8264639377594,352.8264639377594,352.8264639377594,352.8264639377594,356.48600125312805,1,3.8026461601257324,None,,,,,,,,,,,,,,,,,,143,1,2025-02-27_11h17.02.862,comp,2024.2.4,56.492899166002196,2025-02-27 11h30.06.095449 -0500,
47,47,0,critical,hwd,35.0,3.0,upper,200.0,125.0,125.0,200.0,127.0,127.0,1,3.050161600112915,None,,,,,0,0,0,0,0,47,47,99,356.50183296203613,,,,,,,,,,,,,,,,,,,,,,,,,,,,,,,,,,,,,,,,,,,,,,,,,,,,,,,,,,,,,,,,,,,,,,,,,,,,,,,,,200.0,125.0,125.0,200.0,127.0,127.0,3.0,3.1,-258,250,0,-17,260,-278,356.48759937286377,356.4876766204834,356.4908938407898,356.50183296203613,356.64627051353455,356.64627051353455,356.64627051353455,356.64627051353455,356.64627051353455,356.64627051353455,356.64627051353455,359.5617353916168,1,3.050161600112915,None,,,,,,,,,,,,,,,,,,143,1,2025-02-27_11h17.02.862,comp,2024.2.4,56.492899166002196,2025-02-27 11h30.06.095449 -0500,
48,48,0,critical,hwd,35.0,2.1,lower,133.0,57.0,57.0,133.0,70.0,70.0,1,6.543574333190918,None,,,,,0,0,0,0,0,48,48,40,359.5784628391266,,,,,,,,,,,,,,,,,,,,,,,,,,,,,,,,,,,,,,,,,,,,,,,,,,,,,,,,,,,,,,,,,,,,,,,,,,,,,,,,,133.0,57.0,57.0,133.0,70.0,70.0,2.1,2.11,-191,266,0,282,198,-290,359.5633454322815,359.56342339515686,359.5667140483856,359.5784628391266,359.73002195358276,359.73002195358276,359.73002195358276,359.73002195358276,359.73002195358276,359.73002195358276,359.73002195358276,366.13264656066895,1,6.543574333190918,None,,,,,,,,,,,,,,,,,,143,1,2025-02-27_11h17.02.862,comp,2024.2.4,56.492899166002196,2025-02-27 11h30.06.095449 -0500,
49,49,0,critical,whd,35.0,2.1,upper,125.0,200.0,200.0,125.0,127.0,127.0,1,6.3870604038238525,None,,,,,0,0,0,0,0,49,49,13,366.1490080356598,,,,,,,,,,,,,,,,,,,,,,,,,,,,,,,,,,,,,,,,,,,,,,,,,,,,,,,,,,,,,,,,,,,,,,,,,,,,,,,,,125.0,200.0,200.0,125.0,127.0,127.0,2.1,2.12,-258,-265,0,-270,222,251,366.13413190841675,366.1342089176178,366.1382930278778,366.1490080356598,366.299827337265,366.299827337265,366.299827337265,366.299827337265,366.299827337265,366.299827337265,366.299827337265,372.55041551589966,1,6.3870604038238525,None,,,,,,,,,,,,,,,,,,143,1,2025-02-27_11h17.02.862,comp,2024.2.4,56.492899166002196,2025-02-27 11h30.06.095449 -0500,
50,50,0,filler_square,None,None,None,None,None,None,None,None,None,None,3,3.2423486709594727,None,,,,,0,0,0,0,0,50,50,189,372.5664556026459,,,,,,,,,,,,,,,,,,,,,,,,,,,,,,,,,,,,,,,,,,,,,,,,,,,,,,,,,,,,,,,,,,,,,,,,,,,,,,,,,75.89768132165176,82.8163655779183,75.66010810008726,62.454908783958274,83.55908567626032,83.55908567626032,1.0,1.1,-649,279,-480,284,-311,286,372.5521569252014,372.5522356033325,372.555273771286,372.5664556026459,372.705265045166,372.705265045166,372.705265045166,372.705265045166,372.705265045166,372.705265045166,372.705265045166,375.81908774375916,3,3.2423486709594727,None,,,,,,,,,,,,,,,,,,143,1,2025-02-27_11h17.02.862,comp,2024.2.4,56.492899166002196,2025-02-27 11h30.06.095449 -0500,
51,51,0,critical,dhw,35.0,3.0,upper,127.0,127.0,200.0,125.0,125.0,200.0,3,3.693480968475342,None,,,,,0,0,0,0,0,51,51,51,375.8347816467285,,,,,,,,,,,,,,,,,,,,,,,,,,,,,,,,,,,,,,,,,,,,,,,,,,,,,,,,,,,,,,,,,,,,,,,,,,,,,,,,,127.0,127.0,200.0,125.0,125.0,200.0,3.0,3.1,-222,262,0,0,258,-290,375.8205635547638,375.82064270973206,375.82402181625366,375.8347816467285,375.9850127696991,375.9850127696991,375.9850127696991,375.9850127696991,375.9850127696991,375.9850127696991,375.9850127696991,379.546560049057,3,3.693480968475342,None,,,,,,,,,,,,,,,,,,143,1,2025-02-27_11h17.02.862,comp,2024.2.4,56.492899166002196,2025-02-27 11h30.06.095449 -0500,
52,52,0,filler_random,None,None,None,None,None,None,None,None,None,None,2,3.714367628097534,None,,,,,0,0,0,0,0,52,52,159,379.56637024879456,,,,,,,,,,,,,,,,,,,,,,,,,,,,,,,,,,,,,,,,,,,,,,,,,,,,,,,,,,,,,,,,,,,,,,,,,,,,,,,,,68.92323861065393,193.0464600330555,195.61198531401325,91.29103651249099,82.3716804293635,146.3475544280759,2.1,2.11,-238,262,0,271,215,-284,379.548220872879,379.54829812049866,379.5511245727539,379.56637024879456,379.7028052806854,379.7028052806854,379.7028052806854,379.7028052806854,379.7028052806854,379.7028052806854,379.7028052806854,383.2868285179138,2,3.714367628097534,None,,,,,,,,,,,,,,,,,,143,1,2025-02-27_11h17.02.862,comp,2024.2.4,56.492899166002196,2025-02-27 11h30.06.095449 -0500,
53,53,0,critical,wdh,20.0,3.0,upper,125.0,200.0,141.0,141.0,200.0,125.0,3,3.481234073638916,None,,,,,0,0,0,0,0,53,53,81,383.303151845932,,,,,,,,,,,,,,,,,,,,,,,,,,,,,,,,,,,,,,,,,,,,,,,,,,,,,,,,,,,,,,,,,,,,,,,,,,,,,,,,,125.0,200.0,141.0,141.0,200.0,125.0,3.0,3.2,-266,-267,0,-10,229,275,383.2883071899414,383.2883846759796,383.291476726532,383.303151845932,383.4547231197357,383.4547231197357,383.4547231197357,383.4547231197357,383.4547231197357,383.4547231197357,383.4547231197357,386.7888836860657,3,3.481234073638916,None,,,,,,,,,,,,,,,,,,143,1,2025-02-27_11h17.02.862,comp,2024.2.4,56.492899166002196,2025-02-27 11h30.06.095449 -0500,
54,54,0,critical,hwd,35.0,1.0,upper,200.0,125.0,125.0,200.0,127.0,127.0,2,2.5314323902130127,None,,,,,0,0,0,0,0,54,54,97,386.80462288856506,,,,,,,,,,,,,,,,,,,,,,,,,,,,,,,,,,,,,,,,,,,,,,,,,,,,,,,,,,,,,,,,,,,,,,,,,,,,,,,,,200.0,125.0,125.0,200.0,127.0,127.0,1.0,1.3,222,-257,480,-288,740,-284,386.79035472869873,386.79043412208557,386.7938549518585,386.80462288856506,386.95726466178894,386.95726466178894,386.95726466178894,386.95726466178894,386.95726466178894,386.95726466178894,386.95726466178894,389.3398640155792,2,2.5314323902130127,None,,,,,,,,,,,,,,,,,,143,1,2025-02-27_11h17.02.862,comp,2024.2.4,56.492899166002196,2025-02-27 11h30.06.095449 -0500,
55,55,0,filler_random,None,None,None,None,None,None,None,None,None,None,1,4.84436821937561,None,,,,,0,0,0,0,0,55,55,139,389.3564305305481,,,,,,,,,,,,,,,,,,,,,,,,,,,,,,,,,,,,,,,,,,,,,,,,,,,,,,,,,,,,,,,,,,,,,,,,,,,,,,,,,106.72458240516792,153.81969325419277,96.04724512777577,134.6216616318306,88.60755335069126,177.49371867598003,2.1,2.11,-240,260,0,281,252,-256,389.3416037559509,389.3416826725006,389.3456892967224,389.3564305305481,389.512722492218,389.512722492218,389.512722492218,389.512722492218,389.512722492218,389.512722492218,389.512722492218,394.2080307006836,1,4.84436821937561,None,,,,,,,,,,,,,,,,,,143,1,2025-02-27_11h17.02.862,comp,2024.2.4,56.492899166002196,2025-02-27 11h30.06.095449 -0500,
56,56,0,catch,None,None,None,None,None,None,None,None,None,None,3,1.9042127132415771,None,,,,,0,0,0,0,0,56,56,121,394.22401666641235,,,,,,,,,,,,,,,,,,,,,,,,,,,,,,,,,,,,,,,,,,,,,,,,,,,,,,,,,,,,,,,,,,,,,,,,,,,,,,,,,101,89,87,103,153,172,4.0,4.1,-192,-269,0,2,234,-255,394.20998215675354,394.21006298065186,394.21321868896484,394.22401666641235,394.3777174949646,394.3777174949646,394.3777174949646,394.3777174949646,394.3777174949646,394.3777174949646,394.3777174949646,396.1425874233246,3,1.9042127132415771,None,,,,,,,,,,,,,,,,,,143,1,2025-02-27_11h17.02.862,comp,2024.2.4,56.492899166002196,2025-02-27 11h30.06.095449 -0500,
57,57,0,critical,wdh,20.0,2.1,upper,125.0,200.0,141.0,141.0,200.0,125.0,1,6.657065153121948,None,,,,,0,0,0,0,0,57,57,35,396.15910363197327,,,,,,,,,,,,,,,,,,,,,,,,,,,,,,,,,,,,,,,,,,,,,,,,,,,,,,,,,,,,,,,,,,,,,,,,,,,,,,,,,125.0,200.0,141.0,141.0,200.0,125.0,2.1,2.11,-266,273,0,267,229,-278,396.1440351009369,396.14413475990295,396.14813232421875,396.15910363197327,396.30667424201965,396.30667424201965,396.30667424201965,396.30667424201965,396.30667424201965,396.30667424201965,396.30667424201965,402.8264446258545,1,6.657065153121948,None,,,,,,,,,,,,,,,,,,143,1,2025-02-27_11h17.02.862,comp,2024.2.4,56.492899166002196,2025-02-27 11h30.06.095449 -0500,
58,58,0,critical,hdw,20.0,4.0,upper,200.0,125.0,141.0,141.0,125.0,200.0,3,4.317713022232056,None,,,,,0,0,0,0,0,58,58,119,402.84265065193176,,,,,,,,,,,,,,,,,,,,,,,,,,,,,,,,,,,,,,,,,,,,,,,,,,,,,,,,,,,,,,,,,,,,,,,,,,,,,,,,,200.0,125.0,141.0,141.0,125.0,200.0,4.0,4.1,-229,-260,0,15,266,-289,402.82789278030396,402.82799530029297,402.8310272693634,402.84265065193176,402.9941782951355,402.9941782951355,402.9941782951355,402.9941782951355,402.9941782951355,402.9941782951355,402.9941782951355,407.16443824768066,3,4.317713022232056,None,,,,,,,,,,,,,,,,,,143,1,2025-02-27_11h17.02.862,comp,2024.2.4,56.492899166002196,2025-02-27 11h30.06.095449 -0500,
59,59,0,filler_random,None,None,None,None,None,None,None,None,None,None,2,4.083714008331299,None,,,,,0,0,0,0,0,59,59,161,407.18050956726074,,,,,,,,,,,,,,,,,,,,,,,,,,,,,,,,,,,,,,,,,,,,,,,,,,,,,,,,,,,,,,,,,,,,,,,,,,,,,,,,,59.39456690215617,60.86346859652861,146.48335480451902,166.03498250053417,159.11719034748361,152.37682101726287,2.1,2.11,-209,251,0,274,255,-268,407.16619539260864,407.16632771492004,407.1695876121521,407.18050956726074,407.3253231048584,407.3253231048584,407.3253231048584,407.3253231048584,407.3253231048584,407.3253231048584,407.3253231048584,411.2798430919647,2,4.083714008331299,None,,,,,,,,,,,,,,,,,,143,1,2025-02-27_11h17.02.862,comp,2024.2.4,56.492899166002196,2025-02-27 11h30.06.095449 -0500,
60,60,0,catch,None,None,None,None,None,None,None,None,None,None,3,1.352541446685791,None,,,,,0,0,0,0,0,60,60,127,411.2956404685974,,,,,,,,,,,,,,,,,,,,,,,,,,,,,,,,,,,,,,,,,,,,,,,,,,,,,,,,,,,,,,,,,,,,,,,,,,,,,,,,,106,84,122,68,191,134,3.0,3.1,-172,256,0,16,197,-253,411.28209710121155,411.2821741104126,411.28540301322937,411.2956404685974,411.4457883834839,411.4457883834839,411.4457883834839,411.4457883834839,411.4457883834839,411.4457883834839,411.4457883834839,412.66392159461975,3,1.352541446685791,None,,,,,,,,,,,,,,,,,,143,1,2025-02-27_11h17.02.862,comp,2024.2.4,56.492899166002196,2025-02-27 11h30.06.095449 -0500,
61,61,0,critical,dhw,20.0,1.0,upper,141.0,141.0,200.0,125.0,125.0,200.0,3,5.704248666763306,None,,,,,0,0,0,0,0,61,61,55,412.67986941337585,,,,,,,,,,,,,,,,,,,,,,,,,,,,,,,,,,,,,,,,,,,,,,,,,,,,,,,,,,,,,,,,,,,,,,,,,,,,,,,,,141.0,141.0,200.0,125.0,125.0,200.0,1.0,1.3,251,-279,480,-256,738,-286,412.6655242443085,412.6656014919281,412.66959524154663,412.67986941337585,412.83083391189575,412.83083391189575,412.83083391189575,412.83083391189575,412.83083391189575,412.83083391189575,412.83083391189575,418.39887833595276,3,5.704248666763306,None,,,,,,,,,,,,,,,,,,143,1,2025-02-27_11h17.02.862,comp,2024.2.4,56.492899166002196,2025-02-27 11h30.06.095449 -0500,
62,62,0,catch,None,None,None,None,None,None,None,None,None,None,2,1.9745264053344727,None,,,,,0,0,0,0,0,62,62,120,418.41814494132996,,,,,,,,,,,,,,,,,,,,,,,,,,,,,,,,,,,,,,,,,,,,,,,,,,,,,,,,,,,,,,,,,,,,,,,,,,,,,,,,,130,60,131,194,124,66,1.0,1.1,-703,259,-480,259,-254,260,418.4007785320282,418.40085554122925,418.40408849716187,418.41814494132996,418.5655868053436,418.5655868053436,418.5655868053436,418.5655868053436,418.5655868053436,418.5655868053436,418.5655868053436,420.3996603488922,2,1.9745264053344727,None,,,,,,,,,,,,,,,,,,143,1,2025-02-27_11h17.02.862,comp,2024.2.4,56.492899166002196,2025-02-27 11h30.06.095449 -0500,
63,63,0,filler_square,None,None,None,None,None,None,None,None,None,None,1,1.104224681854248,None,,,,,0,0,0,0,0,63,63,208,420.4160704612732,,,,,,,,,,,,,,,,,,,,,,,,,,,,,,,,,,,,,,,,,,,,,,,,,,,,,,,,,,,,,,,,,,,,,,,,,,,,,,,,,158.49141573871893,158.49141573871893,77.60199063161792,60.18525768278167,110.54645566623194,113.29534375356408,1.0,1.2,-205,-16,0,-18,183,2,420.4016749858856,420.40175580978394,420.4053168296814,420.4160704612732,420.5706408023834,420.5706408023834,420.5706408023834,420.5706408023834,420.5706408023834,420.5706408023834,420.5706408023834,421.53447580337524,1,1.104224681854248,None,,,,,,,,,,,,,,,,,,143,1,2025-02-27_11h17.02.862,comp,2024.2.4,56.492899166002196,2025-02-27 11h30.06.095449 -0500,
64,64,0,filler_random,None,None,None,None,None,None,None,None,None,None,2,1.1297602653503418,None,,,,,0,0,0,0,0,64,64,165,421.55044770240784,,,,,,,,,,,,,,,,,,,,,,,,,,,,,,,,,,,,,,,,,,,,,,,,,,,,,,,,,,,,,,,,,,,,,,,,,,,,,,,,,147.94851999647324,68.3951408003385,181.51051184272632,157.92052629269153,102.98153852095618,102.47566465550622,1.0,1.3,271,-265,480,-266,706,-275,421.53627586364746,421.53640842437744,421.5402047634125,421.55044770240784,421.70304822921753,421.70304822921753,421.70304822921753,421.70304822921753,421.70304822921753,421.70304822921753,421.70304822921753,422.6831374168396,2,1.1297602653503418,None,,,,,,,,,,,,,,,,,,143,1,2025-02-27_11h17.02.862,comp,2024.2.4,56.492899166002196,2025-02-27 11h30.06.095449 -0500,
65,65,0,filler_random,None,None,None,None,None,None,None,None,None,None,1,1.5399127006530762,None,,,,,0,0,0,0,0,65,65,154,422.7008767127991,,,,,,,,,,,,,,,,,,,,,,,,,,,,,,,,,,,,,,,,,,,,,,,,,,,,,,,,,,,,,,,,,,,,,,,,,,,,,,,,,120.8046057241746,180.93882075363763,141.3112286651059,97.02692032775255,151.11524023456406,87.04975096315471,4.0,4.1,-235,-288,0,-18,188,-267,422.6848084926605,422.6848883628845,422.68783044815063,422.7008767127991,422.8503577709198,422.8503577709198,422.8503577709198,422.8503577709198,422.8503577709198,422.8503577709198,422.8503577709198,424.2512001991272,1,1.5399127006530762,None,,,,,,,,,,,,,,,,,,143,1,2025-02-27_11h17.02.862,comp,2024.2.4,56.492899166002196,2025-02-27 11h30.06.095449 -0500,
66,66,0,critical,whd,35.0,3.0,upper,125.0,200.0,200.0,125.0,127.0,127.0,1,2.6207387447357178,None,,,,,0,0,0,0,0,66,66,87,424.26748847961426,,,,,,,,,,,,,,,,,,,,,,,,,,,,,,,,,,,,,,,,,,,,,,,,,,,,,,,,,,,,,,,,,,,,,,,,,,,,,,,,,125.0,200.0,200.0,125.0,127.0,127.0,3.0,3.2,-258,-256,0,-5,222,280,424.2527165412903,424.25279474258423,424.25684428215027,424.26748847961426,424.41781425476074,424.41781425476074,424.41781425476074,424.41781425476074,424.41781425476074,424.41781425476074,424.41781425476074,426.9033327102661,1,2.6207387447357178,None,,,,,,,,,,,,,,,,,,143,1,2025-02-27_11h17.02.862,comp,2024.2.4,56.492899166002196,2025-02-27 11h30.06.095449 -0500,
67,67,0,critical,whd,20.0,2.1,upper,125.0,200.0,200.0,125.0,141.0,141.0,1,1.7853665351867676,None,,,,,0,0,0,0,0,67,67,39,426.9190924167633,,,,,,,,,,,,,,,,,,,,,,,,,,,,,,,,,,,,,,,,,,,,,,,,,,,,,,,,,,,,,,,,,,,,,,,,,,,,,,,,,125.0,200.0,200.0,125.0,141.0,141.0,2.1,2.11,-258,255,0,269,229,-253,426.9049963951111,426.90512251853943,426.90873289108276,426.9190924167633,427.0690212249756,427.0690212249756,427.0690212249756,427.0690212249756,427.0690212249756,427.0690212249756,427.0690212249756,428.71598267555237,1,1.7853665351867676,None,,,,,,,,,,,,,,,,,,143,1,2025-02-27_11h17.02.862,comp,2024.2.4,56.492899166002196,2025-02-27 11h30.06.095449 -0500,
68,68,0,critical,dhw,20.0,2.1,upper,141.0,141.0,200.0,125.0,125.0,200.0,3,2.1554415225982666,None,,,,,0,0,0,0,0,68,68,27,428.73305106163025,,,,,,,,,,,,,,,,,,,,,,,,,,,,,,,,,,,,,,,,,,,,,,,,,,,,,,,,,,,,,,,,,,,,,,,,,,,,,,,,,141.0,141.0,200.0,125.0,125.0,200.0,2.1,2.11,-229,252,0,262,258,-255,428.7175009250641,428.7175760269165,428.72044610977173,428.73305106163025,428.8880412578583,428.8880412578583,428.8880412578583,428.8880412578583,428.8880412578583,428.8880412578583,428.8880412578583,430.90338349342346,3,2.1554415225982666,None,,,,,,,,,,,,,,,,,,143,1,2025-02-27_11h17.02.862,comp,2024.2.4,56.492899166002196,2025-02-27 11h30.06.095449 -0500,
69,69,0,critical,hwd,20.0,3.0,upper,200.0,125.0,125.0,200.0,141.0,141.0,2,4.241868019104004,None,,,,,0,0,0,0,0,69,69,105,430.9188754558563,,,,,,,,,,,,,,,,,,,,,,,,,,,,,,,,,,,,,,,,,,,,,,,,,,,,,,,,,,,,,,,,,,,,,,,,,,,,,,,,,200.0,125.0,125.0,200.0,141.0,141.0,3.0,3.1,-258,251,0,16,266,-286,430.90501952171326,430.90509939193726,430.9086241722107,430.9188754558563,431.0686106681824,431.0686106681824,431.0686106681824,431.0686106681824,431.0686106681824,431.0686106681824,431.0686106681824,435.17112278938293,2,4.241868019104004,None,,,,,,,,,,,,,,,,,,143,1,2025-02-27_11h17.02.862,comp,2024.2.4,56.492899166002196,2025-02-27 11h30.06.095449 -0500,
70,70,0,filler_square,None,None,None,None,None,None,None,None,None,None,1,1.149101734161377,None,,,,,0,0,0,0,0,70,70,191,435.18703269958496,,,,,,,,,,,,,,,,,,,,,,,,,,,,,,,,,,,,,,,,,,,,,,,,,,,,,,,,,,,,,,,,,,,,,,,,,,,,,,,,,157.33746040492437,157.33746040492437,115.36677609998517,57.73618911124366,136.43401638141708,112.0959925959535,4.0,4.1,-204,-279,0,-7,181,-287,435.172899723053,435.1730115413666,435.17634105682373,435.18703269958496,435.3356182575226,435.3356182575226,435.3356182575226,435.3356182575226,435.3356182575226,435.3356182575226,435.3356182575226,436.35393142700195,1,1.149101734161377,None,,,,,,,,,,,,,,,,,,143,1,2025-02-27_11h17.02.862,comp,2024.2.4,56.492899166002196,2025-02-27 11h30.06.095449 -0500,
71,71,0,critical,whd,35.0,2.1,lower,57.0,133.0,133.0,57.0,70.0,70.0,2,2.726790189743042,None,,,,,0,0,0,0,0,71,71,12,436.3693709373474,,,,,,,,,,,,,,,,,,,,,,,,,,,,,,,,,,,,,,,,,,,,,,,,,,,,,,,,,,,,,,,,,,,,,,,,,,,,,,,,,57.0,133.0,133.0,57.0,70.0,70.0,2.1,2.11,-191,276,0,273,160,-254,436.35542392730713,436.3555009365082,436.3584671020508,436.3693709373474,436.51771306991577,436.51771306991577,436.51771306991577,436.51771306991577,436.51771306991577,436.51771306991577,436.51771306991577,439.11238980293274,2,2.726790189743042,None,,,,,,,,,,,,,,,,,,143,1,2025-02-27_11h17.02.862,comp,2024.2.4,56.492899166002196,2025-02-27 11h30.06.095449 -0500,
72,72,0,critical,wdh,20.0,1.0,upper,125.0,200.0,141.0,141.0,200.0,125.0,3,3.9043009281158447,None,,,,,0,0,0,0,0,72,72,79,439.1279671192169,,,,,,,,,,,,,,,,,,,,,,,,,,,,,,,,,,,,,,,,,,,,,,,,,,,,,,,,,,,,,,,,,,,,,,,,,,,,,,,,,125.0,200.0,141.0,141.0,200.0,125.0,1.0,1.2,-266,-15,0,-11,229,-6,439.1139667034149,439.1140513420105,439.1173663139343,439.1279671192169,439.2728343009949,439.2728343009949,439.2728343009949,439.2728343009949,439.2728343009949,439.2728343009949,439.2728343009949,443.0466709136963,3,3.9043009281158447,None,,,,,,,,,,,,,,,,,,143,1,2025-02-27_11h17.02.862,comp,2024.2.4,56.492899166002196,2025-02-27 11h30.06.095449 -0500,
73,73,0,critical,whd,35.0,1.0,upper,125.0,200.0,200.0,125.0,127.0,127.0,1,2.4819934368133545,None,,,,,0,0,0,0,0,73,73,85,443.06226682662964,,,,,,,,,,,,,,,,,,,,,,,,,,,,,,,,,,,,,,,,,,,,,,,,,,,,,,,,,,,,,,,,,,,,,,,,,,,,,,,,,125.0,200.0,200.0,125.0,127.0,127.0,1.0,1.3,222,-269,480,-280,702,-267,443.04821157455444,443.048287153244,443.05111956596375,443.06226682662964,443.21292209625244,443.21292209625244,443.21292209625244,443.21292209625244,443.21292209625244,443.21292209625244,443.21292209625244,445.5595772266388,1,2.4819934368133545,None,,,,,,,,,,,,,,,,,,143,1,2025-02-27_11h17.02.862,comp,2024.2.4,56.492899166002196,2025-02-27 11h30.06.095449 -0500,
74,74,0,critical,dwh,20.0,2.1,lower,78.0,78.0,57.0,133.0,133.0,57.0,2,10.200855731964111,None,,,,,0,0,0,0,0,74,74,30,445.57541251182556,,,,,,,,,,,,,,,,,,,,,,,,,,,,,,,,,,,,,,,,,,,,,,,,,,,,,,,,,,,,,,,,,,,,,,,,,,,,,,,,,78.0,78.0,57.0,133.0,133.0,57.0,2.1,2.12,-202,-255,0,-257,191,257,445.5612757205963,445.5613543987274,445.56518483161926,445.57541251182556,445.72344422340393,445.72344422340393,445.72344422340393,445.72344422340393,445.72344422340393,445.72344422340393,445.72344422340393,455.7799940109253,2,10.200855731964111,None,,,,,,,,,,,,,,,,,,143,1,2025-02-27_11h17.02.862,comp,2024.2.4,56.492899166002196,2025-02-27 11h30.06.095449 -0500,
75,75,0,critical,dwh,35.0,2.1,upper,127.0,127.0,125.0,200.0,200.0,125.0,2,3.5858848094940186,None,,,,,0,0,0,0,0,75,75,29,455.7992329597473,,,,,,,,,,,,,,,,,,,,,,,,,,,,,,,,,,,,,,,,,,,,,,,,,,,,,,,,,,,,,,,,,,,,,,,,,,,,,,,,,127.0,127.0,125.0,200.0,200.0,125.0,2.1,2.11,-260,258,0,282,258,-290,455.7815291881561,455.781610250473,455.7853102684021,455.7992329597473,455.9448492527008,455.9448492527008,455.9448492527008,455.9448492527008,455.9448492527008,455.9448492527008,455.9448492527008,459.3956742286682,2,3.5858848094940186,None,,,,,,,,,,,,,,,,,,143,1,2025-02-27_11h17.02.862,comp,2024.2.4,56.492899166002196,2025-02-27 11h30.06.095449 -0500,
76,76,0,critical,whd,20.0,3.0,upper,125.0,200.0,200.0,125.0,141.0,141.0,1,4.4844138622283936,None,,,,,0,0,0,0,0,76,76,93,459.41179847717285,,,,,,,,,,,,,,,,,,,,,,,,,,,,,,,,,,,,,,,,,,,,,,,,,,,,,,,,,,,,,,,,,,,,,,,,,,,,,,,,,125.0,200.0,200.0,125.0,141.0,141.0,3.0,3.1,-258,280,0,-20,229,-263,459.39743089675903,459.39752674102783,459.4009802341461,459.41179847717285,459.56309628486633,459.56309628486633,459.56309628486633,459.56309628486633,459.56309628486633,459.56309628486633,459.56309628486633,463.9126076698303,1,4.4844138622283936,None,,,,,,,,,,,,,,,,,,143,1,2025-02-27_11h17.02.862,comp,2024.2.4,56.492899166002196,2025-02-27 11h30.06.095449 -0500,
77,77,0,filler_square,None,None,None,None,None,None,None,None,None,None,3,1.484684705734253,None,,,,,0,0,0,0,0,77,77,179,463.9315309524536,,,,,,,,,,,,,,,,,,,,,,,,,,,,,,,,,,,,,,,,,,,,,,,,,,,,,,,,,,,,,,,,,,,,,,,,,,,,,,,,,128.91202010435183,89.44506195284728,78.88450337526774,130.75572489957784,188.9463331182201,188.9463331182201,3.0,3.1,-206,289,0,7,256,-289,463.9144186973572,463.9144940376282,463.9175662994385,463.9315309524536,464.07917284965515,464.07917284965515,464.07917284965515,464.07917284965515,464.07917284965515,464.07917284965515,464.07917284965515,465.4287977218628,3,1.484684705734253,None,,,,,,,,,,,,,,,,,,143,1,2025-02-27_11h17.02.862,comp,2024.2.4,56.492899166002196,2025-02-27 11h30.06.095449 -0500,
78,78,0,filler_random,None,None,None,None,None,None,None,None,None,None,1,2.4086155891418457,None,,,,,0,0,0,0,0,78,78,141,465.44945192337036,,,,,,,,,,,,,,,,,,,,,,,,,,,,,,,,,,,,,,,,,,,,,,,,,,,,,,,,,,,,,,,,,,,,,,,,,,,,,,,,,199.66114820408984,133.81722629295786,60.58439955697396,119.2866409168639,175.46603252718506,156.70679351977864,1.0,1.3,257,-268,480,-259,714,-283,465.4306466579437,465.43078088760376,465.43423438072205,465.44945192337036,465.5911400318146,465.5911400318146,465.5911400318146,465.5911400318146,465.5911400318146,465.5911400318146,465.5911400318146,467.8635985851288,1,2.4086155891418457,None,,,,,,,,,,,,,,,,,,143,1,2025-02-27_11h17.02.862,comp,2024.2.4,56.492899166002196,2025-02-27 11h30.06.095449 -0500,
79,79,0,critical,whd,20.0,1.0,lower,57.0,133.0,133.0,57.0,78.0,78.0,1,5.680612325668335,None,,,,,0,0,0,0,0,79,79,90,467.8803622722626,,,,,,,,,,,,,,,,,,,,,,,,,,,,,,,,,,,,,,,,,,,,,,,,,,,,,,,,,,,,,,,,,,,,,,,,,,,,,,,,,57.0,133.0,133.0,57.0,78.0,78.0,1.0,1.1,-671,271,-480,290,-316,284,467.8652193546295,467.8652958869934,467.8688368797302,467.8803622722626,468.03606963157654,468.03606963157654,468.03606963157654,468.03606963157654,468.03606963157654,468.03606963157654,468.03606963157654,473.56631326675415,1,5.680612325668335,None,,,,,,,,,,,,,,,,,,143,1,2025-02-27_11h17.02.862,comp,2024.2.4,56.492899166002196,2025-02-27 11h30.06.095449 -0500,
80,80,0,critical,wdh,35.0,2.1,lower,57.0,133.0,70.0,70.0,133.0,57.0,3,9.177650690078735,None,,,,,0,0,0,0,0,80,80,8,473.5827829837799,,,,,,,,,,,,,,,,,,,,,,,,,,,,,,,,,,,,,,,,,,,,,,,,,,,,,,,,,,,,,,,,,,,,,,,,,,,,,,,,,57.0,133.0,70.0,70.0,133.0,57.0,2.1,2.11,-198,273,0,278,160,-257,473.5677869319916,473.5678653717041,473.57119631767273,473.5827829837799,473.73254776000977,473.73254776000977,473.73254776000977,473.73254776000977,473.73254776000977,473.73254776000977,473.73254776000977,482.76502299308777,3,9.177650690078735,None,,,,,,,,,,,,,,,,,,143,1,2025-02-27_11h17.02.862,comp,2024.2.4,56.492899166002196,2025-02-27 11h30.06.095449 -0500,
81,81,0,critical,whd,35.0,2.1,lower,57.0,133.0,133.0,57.0,70.0,70.0,2,3.431586265563965,None,,,,,0,0,0,0,0,81,81,36,482.7851538658142,,,,,,,,,,,,,,,,,,,,,,,,,,,,,,,,,,,,,,,,,,,,,,,,,,,,,,,,,,,,,,,,,,,,,,,,,,,,,,,,,57.0,133.0,133.0,57.0,70.0,70.0,2.1,2.12,-191,-282,0,-260,160,263,482.76650977134705,482.7666051387787,482.76948285102844,482.7851538658142,482.9191138744354,482.9191138744354,482.9191138744354,482.9191138744354,482.9191138744354,482.9191138744354,482.9191138744354,486.2259976863861,2,3.431586265563965,None,,,,,,,,,,,,,,,,,,143,1,2025-02-27_11h17.02.862,comp,2024.2.4,56.492899166002196,2025-02-27 11h30.06.095449 -0500,
82,82,0,filler_square,None,None,None,None,None,None,None,None,None,None,3,2.2597248554229736,None,,,,,0,0,0,0,0,82,82,171,486.2446427345276,,,,,,,,,,,,,,,,,,,,,,,,,,,,,,,,,,,,,,,,,,,,,,,,,,,,,,,,,,,,,,,,,,,,,,,,,,,,,,,,,67.05156832623273,71.70550076005274,60.275431145348925,87.37924135248478,87.38271481689921,87.38271481689921,2.2,2.21,-176,-281,0,279,183,253,486.2278504371643,486.2280077934265,486.23126912117004,486.2446427345276,486.3827760219574,486.3827760219574,486.3827760219574,486.3827760219574,486.3827760219574,486.3827760219574,486.3827760219574,488.5218300819397,3,2.2597248554229736,None,,,,,,,,,,,,,,,,,,143,1,2025-02-27_11h17.02.862,comp,2024.2.4,56.492899166002196,2025-02-27 11h30.06.095449 -0500,
83,83,0,critical,hdw,35.0,1.0,upper,200.0,125.0,127.0,127.0,125.0,200.0,1,3.0549962520599365,None,,,,,0,0,0,0,0,83,83,109,488.5372884273529,,,,,,,,,,,,,,,,,,,,,,,,,,,,,,,,,,,,,,,,,,,,,,,,,,,,,,,,,,,,,,,,,,,,,,,,,,,,,,,,,200.0,125.0,127.0,127.0,125.0,200.0,1.0,1.3,258,-284,480,-251,740,-264,488.52339816093445,488.5234773159027,488.52686047554016,488.5372884273529,488.694100856781,488.694100856781,488.694100856781,488.694100856781,488.694100856781,488.694100856781,488.694100856781,491.6043357849121,1,3.0549962520599365,None,,,,,,,,,,,,,,,,,,143,1,2025-02-27_11h17.02.862,comp,2024.2.4,56.492899166002196,2025-02-27 11h30.06.095449 -0500,
84,84,0,critical,dwh,35.0,4.0,upper,127.0,127.0,125.0,200.0,200.0,125.0,3,1.778794527053833,None,,,,,0,0,0,0,0,84,84,65,491.62196016311646,,,,,,,,,,,,,,,,,,,,,,,,,,,,,,,,,,,,,,,,,,,,,,,,,,,,,,,,,,,,,,,,,,,,,,,,,,,,,,,,,127.0,127.0,125.0,200.0,200.0,125.0,4.0,4.1,-260,-260,0,1,258,-258,491.6059720516205,491.6060519218445,491.6093740463257,491.62196016311646,491.75989961624146,491.75989961624146,491.75989961624146,491.75989961624146,491.75989961624146,491.75989961624146,491.75989961624146,493.4040570259094,3,1.778794527053833,None,,,,,,,,,,,,,,,,,,143,1,2025-02-27_11h17.02.862,comp,2024.2.4,56.492899166002196,2025-02-27 11h30.06.095449 -0500,
85,85,0,critical,hwd,20.0,2.1,lower,133.0,57.0,57.0,133.0,78.0,78.0,1,2.788121461868286,None,,,,,0,0,0,0,0,85,85,18,493.4201548099518,,,,,,,,,,,,,,,,,,,,,,,,,,,,,,,,,,,,,,,,,,,,,,,,,,,,,,,,,,,,,,,,,,,,,,,,,,,,,,,,,133.0,57.0,57.0,133.0,78.0,78.0,2.1,2.12,-191,-272,0,-277,202,257,493.4055528640747,493.4056293964386,493.40849351882935,493.4201548099518,493.57056975364685,493.57056975364685,493.57056975364685,493.57056975364685,493.57056975364685,493.57056975364685,493.57056975364685,496.2230923175812,1,2.788121461868286,None,,,,,,,,,,,,,,,,,,143,1,2025-02-27_11h17.02.862,comp,2024.2.4,56.492899166002196,2025-02-27 11h30.06.095449 -0500,
86,86,0,critical,wdh,20.0,2.1,lower,57.0,133.0,78.0,78.0,133.0,57.0,3,5.866922616958618,None,,,,,0,0,0,0,0,86,86,10,496.2378170490265,,,,,,,,,,,,,,,,,,,,,,,,,,,,,,,,,,,,,,,,,,,,,,,,,,,,,,,,,,,,,,,,,,,,,,,,,,,,,,,,,57.0,133.0,78.0,78.0,133.0,57.0,2.1,2.11,-202,275,0,282,164,-284,496.2247564792633,496.2248365879059,496.228404045105,496.2378170490265,496.3919939994812,496.3919939994812,496.3919939994812,496.3919939994812,496.3919939994812,496.3919939994812,496.3919939994812,502.1246337890625,3,5.866922616958618,None,,,,,,,,,,,,,,,,,,143,1,2025-02-27_11h17.02.862,comp,2024.2.4,56.492899166002196,2025-02-27 11h30.06.095449 -0500,
87,87,0,critical,wdh,20.0,4.0,lower,57.0,133.0,78.0,78.0,133.0,57.0,1,3.1081180572509766,None,,,,,0,0,0,0,0,87,87,82,502.1409032344818,,,,,,,,,,,,,,,,,,,,,,,,,,,,,,,,,,,,,,,,,,,,,,,,,,,,,,,,,,,,,,,,,,,,,,,,,,,,,,,,,57.0,133.0,78.0,78.0,133.0,57.0,4.0,4.2,-202,14,0,-282,164,8,502.12619638442993,502.126273393631,502.12952160835266,502.1409032344818,502.2899580001831,502.2899580001831,502.2899580001831,502.2899580001831,502.2899580001831,502.2899580001831,502.2899580001831,505.25853180885315,1,3.1081180572509766,None,,,,,,,,,,,,,,,,,,143,1,2025-02-27_11h17.02.862,comp,2024.2.4,56.492899166002196,2025-02-27 11h30.06.095449 -0500,
88,88,0,critical,dhw,35.0,2.1,lower,70.0,70.0,133.0,57.0,57.0,133.0,3,1.8553130626678467,None,,,,,0,0,0,0,0,88,88,0,505.28100299835205,,,,,,,,,,,,,,,,,,,,,,,,,,,,,,,,,,,,,,,,,,,,,,,,,,,,,,,,,,,,,,,,,,,,,,,,,,,,,,,,,70.0,70.0,133.0,57.0,57.0,133.0,2.1,2.12,-160,-286,0,-282,191,272,505.2600166797638,505.2600910663605,505.26310324668884,505.28100299835205,505.42672634124756,505.42672634124756,505.42672634124756,505.42672634124756,505.42672634124756,505.42672634124756,505.42672634124756,507.1491889953613,3,1.8553130626678467,None,,,,,,,,,,,,,,,,,,143,1,2025-02-27_11h17.02.862,comp,2024.2.4,56.492899166002196,2025-02-27 11h30.06.095449 -0500,
89,89,0,critical,hwd,20.0,2.1,upper,200.0,125.0,125.0,200.0,141.0,141.0,1,5.747661352157593,None,,,,,0,0,0,0,0,89,89,43,507.1647849082947,,,,,,,,,,,,,,,,,,,,,,,,,,,,,,,,,,,,,,,,,,,,,,,,,,,,,,,,,,,,,,,,,,,,,,,,,,,,,,,,,200.0,125.0,125.0,200.0,141.0,141.0,2.1,2.12,-258,-279,0,-286,266,252,507.15070605278015,507.15078139305115,507.15365839004517,507.1647849082947,507.31006956100464,507.31006956100464,507.31006956100464,507.31006956100464,507.31006956100464,507.31006956100464,507.31006956100464,512.9144494533539,1,5.747661352157593,None,,,,,,,,,,,,,,,,,,143,1,2025-02-27_11h17.02.862,comp,2024.2.4,56.492899166002196,2025-02-27 11h30.06.095449 -0500,
90,90,0,critical,dhw,35.0,1.0,lower,70.0,70.0,133.0,57.0,57.0,133.0,2,2.643660068511963,None,,,,,0,0,0,0,0,90,90,48,512.9331791400909,,,,,,,,,,,,,,,,,,,,,,,,,,,,,,,,,,,,,,,,,,,,,,,,,,,,,,,,,,,,,,,,,,,,,,,,,,,,,,,,,70.0,70.0,133.0,57.0,57.0,133.0,1.0,1.3,320,-256,480,-284,671,-259,512.9161832332611,512.9162602424622,512.9198994636536,512.9331791400909,513.0810451507568,513.0810451507568,513.0810451507568,513.0810451507568,513.0810451507568,513.0810451507568,513.0810451507568,515.5799190998077,2,2.643660068511963,None,,,,,,,,,,,,,,,,,,143,1,2025-02-27_11h17.02.862,comp,2024.2.4,56.492899166002196,2025-02-27 11h30.06.095449 -0500,
91,91,0,critical,wdh,35.0,1.0,upper,125.0,200.0,127.0,127.0,200.0,125.0,1,3.4624624252319336,None,,,,,0,0,0,0,0,91,91,73,515.5944724082947,,,,,,,,,,,,,,,,,,,,,,,,,,,,,,,,,,,,,,,,,,,,,,,,,,,,,,,,,,,,,,,,,,,,,,,,,,,,,,,,,125.0,200.0,127.0,127.0,200.0,125.0,1.0,1.1,-740,252,-480,289,-258,267,515.5814743041992,515.5815510749817,515.584892988205,515.5944724082947,515.7488441467285,515.7488441467285,515.7488441467285,515.7488441467285,515.7488441467285,515.7488441467285,515.7488441467285,519.0639743804932,1,3.4624624252319336,None,,,,,,,,,,,,,,,,,,143,1,2025-02-27_11h17.02.862,comp,2024.2.4,56.492899166002196,2025-02-27 11h30.06.095449 -0500,
92,92,0,critical,hdw,35.0,4.0,upper,200.0,125.0,127.0,127.0,125.0,200.0,3,3.2416138648986816,None,,,,,0,0,0,0,0,92,92,113,519.0792944431305,,,,,,,,,,,,,,,,,,,,,,,,,,,,,,,,,,,,,,,,,,,,,,,,,,,,,,,,,,,,,,,,,,,,,,,,,,,,,,,,,200.0,125.0,127.0,127.0,125.0,200.0,4.0,4.1,-222,-273,0,-15,260,-268,519.0654592514038,519.0655381679535,519.0686163902283,519.0792944431305,519.2301456928253,519.2301456928253,519.2301456928253,519.2301456928253,519.2301456928253,519.2301456928253,519.2301456928253,522.3320763111115,3,3.2416138648986816,None,,,,,,,,,,,,,,,,,,143,1,2025-02-27_11h17.02.862,comp,2024.2.4,56.492899166002196,2025-02-27 11h30.06.095449 -0500,
93,93,0,filler_random,None,None,None,None,None,None,None,None,None,None,1,5.529287099838257,None,,,,,0,0,0,0,0,93,93,137,522.351226568222,,,,,,,,,,,,,,,,,,,,,,,,,,,,,,,,,,,,,,,,,,,,,,,,,,,,,,,,,,,,,,,,,,,,,,,,,,,,,,,,,122.428334936066,154.88737862482105,172.72945757510826,77.9890030401044,156.76043742991249,113.86456980529118,1.0,1.1,-692,258,-480,274,-288,275,522.3337664604187,522.3338449001312,522.3366785049438,522.351226568222,522.4853663444519,522.4853663444519,522.4853663444519,522.4853663444519,522.4853663444519,522.4853663444519,522.4853663444519,527.8832540512085,1,5.529287099838257,None,,,,,,,,,,,,,,,,,,143,1,2025-02-27_11h17.02.862,comp,2024.2.4,56.492899166002196,2025-02-27 11h30.06.095449 -0500,
94,94,0,filler_square,None,None,None,None,None,None,None,None,None,None,1,1.5890076160430908,None,,,,,0,0,0,0,0,94,94,207,527.8993611335754,,,,,,,,,,,,,,,,,,,,,,,,,,,,,,,,,,,,,,,,,,,,,,,,,,,,,,,,,,,,,,,,,,,,,,,,,,,,,,,,,136.11565695953442,136.11565695953442,128.73149794857875,116.72248306722159,95.52299631883258,129.62372431328214,1.0,1.3,258,-266,480,-286,699,-280,527.8849976062775,527.8850784301758,527.8885321617126,527.8993611335754,528.050363779068,528.050363779068,528.050363779068,528.050363779068,528.050363779068,528.050363779068,528.050363779068,529.5027191638947,1,1.5890076160430908,None,,,,,,,,,,,,,,,,,,143,1,2025-02-27_11h17.02.862,comp,2024.2.4,56.492899166002196,2025-02-27 11h30.06.095449 -0500,
95,95,0,critical,dhw,35.0,1.0,upper,127.0,127.0,200.0,125.0,125.0,200.0,3,8.001207828521729,None,,,,,0,0,0,0,0,95,95,49,529.5192115306854,,,,,,,,,,,,,,,,,,,,,,,,,,,,,,,,,,,,,,,,,,,,,,,,,,,,,,,,,,,,,,,,,,,,,,,,,,,,,,,,,127.0,127.0,200.0,125.0,125.0,200.0,1.0,1.1,-702,281,-480,285,-222,266,529.5043320655823,529.5044114589691,529.5080783367157,529.5192115306854,529.6718254089355,529.6718254089355,529.6718254089355,529.6718254089355,529.6718254089355,529.6718254089355,529.6718254089355,537.5357451438904,3,8.001207828521729,None,,,,,,,,,,,,,,,,,,143,1,2025-02-27_11h17.02.862,comp,2024.2.4,56.492899166002196,2025-02-27 11h30.06.095449 -0500,
96,96,0,critical,whd,20.0,4.0,upper,125.0,200.0,200.0,125.0,141.0,141.0,1,2.525784730911255,None,,,,,0,0,0,0,0,96,96,95,537.5549247264862,,,,,,,,,,,,,,,,,,,,,,,,,,,,,,,,,,,,,,,,,,,,,,,,,,,,,,,,,,,,,,,,,,,,,,,,,,,,,,,,,125.0,200.0,200.0,125.0,141.0,141.0,4.0,4.1,-258,-256,0,11,229,-262,537.5372273921967,537.537305355072,537.5402283668518,537.5549247264862,537.70268201828,537.70268201828,537.70268201828,537.70268201828,537.70268201828,537.70268201828,537.70268201828,540.086443901062,1,2.525784730911255,None,,,,,,,,,,,,,,,,,,143,1,2025-02-27_11h17.02.862,comp,2024.2.4,56.492899166002196,2025-02-27 11h30.06.095449 -0500,
97,97,0,critical,whd,20.0,1.0,upper,125.0,200.0,200.0,125.0,141.0,141.0,1,3.313467025756836,None,,,,,0,0,0,0,0,97,97,91,540.1032102108002,,,,,,,,,,,,,,,,,,,,,,,,,,,,,,,,,,,,,,,,,,,,,,,,,,,,,,,,,,,,,,,,,,,,,,,,,,,,,,,,,125.0,200.0,200.0,125.0,141.0,141.0,1.0,1.2,-258,11,0,-18,229,-6,540.0880076885223,540.0880842208862,540.0914928913116,540.1032102108002,540.2590456008911,540.2590456008911,540.2590456008911,540.2590456008911,540.2590456008911,540.2590456008911,540.2590456008911,543.4199304580688,1,3.313467025756836,None,,,,,,,,,,,,,,,,,,143,1,2025-02-27_11h17.02.862,comp,2024.2.4,56.492899166002196,2025-02-27 11h30.06.095449 -0500,
98,98,0,critical,hdw,20.0,1.0,lower,133.0,57.0,78.0,78.0,57.0,133.0,3,3.90126895904541,None,,,,,0,0,0,0,0,98,98,114,543.4360430240631,,,,,,,,,,,,,,,,,,,,,,,,,,,,,,,,,,,,,,,,,,,,,,,,,,,,,,,,,,,,,,,,,,,,,,,,,,,,,,,,,133.0,57.0,78.0,78.0,57.0,133.0,1.0,1.2,-164,2,0,-15,202,10,543.4214022159576,543.4214794635773,543.4243772029877,543.4360430240631,543.5765023231506,543.5765023231506,543.5765023231506,543.5765023231506,543.5765023231506,543.5765023231506,543.5765023231506,547.3431916236877,3,3.90126895904541,None,,,,,,,,,,,,,,,,,,143,1,2025-02-27_11h17.02.862,comp,2024.2.4,56.492899166002196,2025-02-27 11h30.06.095449 -0500,
99,99,0,critical,dwh,20.0,1.0,upper,141.0,141.0,125.0,200.0,200.0,125.0,3,2.9384377002716064,None,,,,,0,0,0,0,0,99,99,67,547.358660697937,,,,,,,,,,,,,,,,,,,,,,,,,,,,,,,,,,,,,,,,,,,,,,,,,,,,,,,,,,,,,,,,,,,,,,,,,,,,,,,,,141.0,141.0,125.0,200.0,200.0,125.0,1.0,1.2,-266,16,0,-3,258,18,547.3450150489807,547.345094203949,547.3479912281036,547.358660697937,547.506236076355,547.506236076355,547.506236076355,547.506236076355,547.506236076355,547.506236076355,547.506236076355,550.307451248169,3,2.9384377002716064,None,,,,,,,,,,,,,,,,,,143,1,2025-02-27_11h17.02.862,comp,2024.2.4,56.492899166002196,2025-02-27 11h30.06.095449 -0500,
100,100,0,critical,dhw,20.0,1.0,lower,78.0,78.0,133.0,57.0,57.0,133.0,2,1.7970333099365234,None,,,,,0,0,0,0,0,100,100,54,550.3240876197815,,,,,,,,,,,,,,,,,,,,,,,,,,,,,,,,,,,,,,,,,,,,,,,,,,,,,,,,,,,,,,,,,,,,,,,,,,,,,,,,,78.0,78.0,133.0,57.0,57.0,133.0,1.0,1.3,316,-281,480,-286,671,-257,550.3089003562927,550.3090107440948,550.3130767345428,550.3240876197815,550.4722149372101,550.4722149372101,550.4722149372101,550.4722149372101,550.4722149372101,550.4722149372101,550.4722149372101,552.1282887458801,2,1.7970333099365234,None,,,,,,,,,,,,,,,,,,143,1,2025-02-27_11h17.02.862,comp,2024.2.4,56.492899166002196,2025-02-27 11h30.06.095449 -0500,
101,101,0,catch,None,None,None,None,None,None,None,None,None,None,2,1.5042226314544678,None,,,,,0,0,0,0,0,101,101,128,552.144996881485,,,,,,,,,,,,,,,,,,,,,,,,,,,,,,,,,,,,,,,,,,,,,,,,,,,,,,,,,,,,,,,,,,,,,,,,,,,,,,,,,72,118,146,179,122,68,2.1,2.11,-244,275,0,258,220,-284,552.1304841041565,552.1305637359619,552.1334156990051,552.144996881485,552.2888562679291,552.2888562679291,552.2888562679291,552.2888562679291,552.2888562679291,552.2888562679291,552.2888562679291,553.658388376236,2,1.5042226314544678,None,,,,,,,,,,,,,,,,,,143,1,2025-02-27_11h17.02.862,comp,2024.2.4,56.492899166002196,2025-02-27 11h30.06.095449 -0500,
102,102,0,critical,dwh,20.0,4.0,upper,141.0,141.0,125.0,200.0,200.0,125.0,3,2.39067006111145,None,,,,,0,0,0,0,0,102,102,71,553.6745512485504,,,,,,,,,,,,,,,,,,,,,,,,,,,,,,,,,,,,,,,,,,,,,,,,,,,,,,,,,,,,,,,,,,,,,,,,,,,,,,,,,141.0,141.0,125.0,200.0,200.0,125.0,4.0,4.1,-266,-289,0,-8,258,-287,553.6598207950592,553.6598973274231,553.6639103889465,553.6745512485504,553.8122239112854,553.8122239112854,553.8122239112854,553.8122239112854,553.8122239112854,553.8122239112854,553.8122239112854,556.0766613483429,3,2.39067006111145,None,,,,,,,,,,,,,,,,,,143,1,2025-02-27_11h17.02.862,comp,2024.2.4,56.492899166002196,2025-02-27 11h30.06.095449 -0500,
103,103,0,critical,hwd,35.0,1.0,lower,133.0,57.0,57.0,133.0,70.0,70.0,1,1.7734344005584717,None,,,,,0,0,0,0,0,103,103,96,556.0937283039093,,,,,,,,,,,,,,,,,,,,,,,,,,,,,,,,,,,,,,,,,,,,,,,,,,,,,,,,,,,,,,,,,,,,,,,,,,,,,,,,,133.0,57.0,57.0,133.0,70.0,70.0,1.0,1.3,289,-264,480,-260,678,-267,556.0782024860382,556.0782785415649,556.0821516513824,556.0937283039093,556.2418479919434,556.2418479919434,556.2418479919434,556.2418479919434,556.2418479919434,556.2418479919434,556.2418479919434,557.8730866909027,1,1.7734344005584717,None,,,,,,,,,,,,,,,,,,143,1,2025-02-27_11h17.02.862,comp,2024.2.4,56.492899166002196,2025-02-27 11h30.06.095449 -0500,
104,104,0,filler_square,None,None,None,None,None,None,None,None,None,None,3,1.5341217517852783,None,,,,,0,0,0,0,0,104,104,187,557.8907790184021,,,,,,,,,,,,,,,,,,,,,,,,,,,,,,,,,,,,,,,,,,,,,,,,,,,,,,,,,,,,,,,,,,,,,,,,,,,,,,,,,69.0121560877026,74.44021210863295,59.62483966789178,63.992938142293916,118.80559168872281,118.80559168872281,1.0,1.3,315,-288,480,-279,667,-264,557.8748536109924,557.8749315738678,557.8777613639832,557.8907790184021,558.0241703987122,558.0241703987122,558.0241703987122,558.0241703987122,558.0241703987122,558.0241703987122,558.0241703987122,559.4417188167572,3,1.5341217517852783,None,,,,,,,,,,,,,,,,,,143,1,2025-02-27_11h17.02.862,comp,2024.2.4,56.492899166002196,2025-02-27 11h30.06.095449 -0500,
105,105,0,filler_random,None,None,None,None,None,None,None,None,None,None,3,1.5192315578460693,None,,,,,0,0,0,0,0,105,105,169,559.457802772522,,,,,,,,,,,,,,,,,,,,,,,,,,,,,,,,,,,,,,,,,,,,,,,,,,,,,,,,,,,,,,,,,,,,,,,,,,,,,,,,,58.19560418488051,164.9623569347852,68.67193531378595,195.1406058142719,179.56286085705494,109.93917866003684,3.0,3.2,-276,-272,0,-11,249,262,559.4434406757355,559.4435160160065,559.4466602802277,559.457802772522,559.5939645767212,559.5939645767212,559.5939645767212,559.5939645767212,559.5939645767212,559.5939645767212,559.5939645767212,560.9793965816498,3,1.5192315578460693,None,,,,,,,,,,,,,,,,,,143,1,2025-02-27_11h17.02.862,comp,2024.2.4,56.492899166002196,2025-02-27 11h30.06.095449 -0500,
106,106,0,filler_random,None,None,None,None,None,None,None,None,None,None,2,1.5643162727355957,None,,,,,0,0,0,0,0,106,106,162,560.9961309432983,,,,,,,,,,,,,,,,,,,,,,,,,,,,,,,,,,,,,,,,,,,,,,,,,,,,,,,,,,,,,,,,,,,,,,,,,,,,,,,,,68.98283880552859,126.26193008285475,170.84788351613258,177.93934762202798,156.3853405615858,177.86742141355006,1.0,1.2,-248,2,0,16,274,4,560.9813196659088,560.9813985824585,560.985294342041,560.9961309432983,561.1432316303253,561.1432316303253,561.1432316303253,561.1432316303253,561.1432316303253,561.1432316303253,561.1432316303253,562.5721433162689,2,1.5643162727355957,None,,,,,,,,,,,,,,,,,,143,1,2025-02-27_11h17.02.862,comp,2024.2.4,56.492899166002196,2025-02-27 11h30.06.095449 -0500,
107,107,0,filler_random,None,None,None,None,None,None,None,None,None,None,2,1.8738772869110107,None,,,,,0,0,0,0,0,107,107,151,562.5907354354858,,,,,,,,,,,,,,,,,,,,,,,,,,,,,,,,,,,,,,,,,,,,,,,,,,,,,,,,,,,,,,,,,,,,,,,,,,,,,,,,,106.6290076659673,126.21733161471921,122.35106147549024,196.87148696709363,101.07565722462982,114.57625285628427,1.0,1.1,-738,272,-480,255,-228,290,562.573798418045,562.5738778114319,562.5772264003754,562.5907354354858,562.727578163147,562.727578163147,562.727578163147,562.727578163147,562.727578163147,562.727578163147,562.727578163147,564.4774153232574,2,1.8738772869110107,None,,,,,,,,,,,,,,,,,,143,1,2025-02-27_11h17.02.862,comp,2024.2.4,56.492899166002196,2025-02-27 11h30.06.095449 -0500,
108,108,0,critical,dhw,35.0,2.1,lower,70.0,70.0,133.0,57.0,57.0,133.0,2,2.0970571041107178,None,,,,,0,0,0,0,0,108,108,24,564.4961285591125,,,,,,,,,,,,,,,,,,,,,,,,,,,,,,,,,,,,,,,,,,,,,,,,,,,,,,,,,,,,,,,,,,,,,,,,,,,,,,,,,70.0,70.0,133.0,57.0,57.0,133.0,2.1,2.12,-160,-269,0,-279,191,268,564.47882604599,564.4789302349091,564.4817788600922,564.4961285591125,564.6440308094025,564.6440308094025,564.6440308094025,564.6440308094025,564.6440308094025,564.6440308094025,564.6440308094025,566.6022245883942,2,2.0970571041107178,None,,,,,,,,,,,,,,,,,,143,1,2025-02-27_11h17.02.862,comp,2024.2.4,56.492899166002196,2025-02-27 11h30.06.095449 -0500,
109,109,0,filler_square,None,None,None,None,None,None,None,None,None,None,1,3.326812267303467,None,,,,,0,0,0,0,0,109,109,178,566.6182000637054,,,,,,,,,,,,,,,,,,,,,,,,,,,,,,,,,,,,,,,,,,,,,,,,,,,,,,,,,,,,,,,,,,,,,,,,,,,,,,,,,63.826960099287696,63.826960099287696,58.188187079232065,60.41220480873009,61.172512233038276,58.20905597401426,1.0,1.2,-158,1,0,7,155,-14,566.6041624546051,566.6042773723602,566.6074914932251,566.6182000637054,566.761824131012,566.761824131012,566.761824131012,566.761824131012,566.761824131012,566.761824131012,566.761824131012,569.9640040397644,1,3.326812267303467,None,,,,,,,,,,,,,,,,,,143,1,2025-02-27_11h17.02.862,comp,2024.2.4,56.492899166002196,2025-02-27 11h30.06.095449 -0500,
110,110,0,critical,dwh,35.0,3.0,lower,70.0,70.0,57.0,133.0,133.0,57.0,2,2.5091567039489746,None,,,,,0,0,0,0,0,110,110,62,569.9798512458801,,,,,,,,,,,,,,,,,,,,,,,,,,,,,,,,,,,,,,,,,,,,,,,,,,,,,,,,,,,,,,,,,,,,,,,,,,,,,,,,,70.0,70.0,57.0,133.0,133.0,57.0,3.0,3.1,-198,254,0,-17,191,-261,569.9654784202576,569.9655544757843,569.9693562984467,569.9798512458801,570.130612373352,570.130612373352,570.130612373352,570.130612373352,570.130612373352,570.130612373352,570.130612373352,572.4972789287567,2,2.5091567039489746,None,,,,,,,,,,,,,,,,,,143,1,2025-02-27_11h17.02.862,comp,2024.2.4,56.492899166002196,2025-02-27 11h30.06.095449 -0500,
111,111,0,filler_random,None,None,None,None,None,None,None,None,None,None,3,4.1830363273620605,None,,,,,0,0,0,0,0,111,111,133,572.513466835022,,,,,,,,,,,,,,,,,,,,,,,,,,,,,,,,,,,,,,,,,,,,,,,,,,,,,,,,,,,,,,,,,,,,,,,,,,,,,,,,,76.07184237713287,62.209423627897294,98.41412238534974,158.79435813983804,105.88146263227628,172.67187966933034,2.1,2.11,-207,269,0,264,262,-276,572.4992394447327,572.4993224143982,572.5027322769165,572.513466835022,572.6645274162292,572.6645274162292,572.6645274162292,572.6645274162292,572.6645274162292,572.6645274162292,572.6645274162292,576.7152290344238,3,4.1830363273620605,None,,,,,,,,,,,,,,,,,,143,1,2025-02-27_11h17.02.862,comp,2024.2.4,56.492899166002196,2025-02-27 11h30.06.095449 -0500,
112,112,0,filler_square,None,None,None,None,None,None,None,None,None,None,2,6.76444935798645,None,,,,,0,0,0,0,0,112,112,209,576.732123374939,,,,,,,,,,,,,,,,,,,,,,,,,,,,,,,,,,,,,,,,,,,,,,,,,,,,,,,,,,,,,,,,,,,,,,,,,,,,,,,,,59.503633858639816,59.05808116518865,61.43381603307021,61.43381603307021,57.858400174129244,60.42042271202989,1.0,1.2,-156,-2,0,-10,157,-20,576.7170114517212,576.7170910835266,576.7210354804993,576.732123374939,576.8847601413727,576.8847601413727,576.8847601413727,576.8847601413727,576.8847601413727,576.8847601413727,576.8847601413727,583.5007586479187,2,6.76444935798645,None,,,,,,,,,,,,,,,,,,143,1,2025-02-27_11h17.02.862,comp,2024.2.4,56.492899166002196,2025-02-27 11h30.06.095449 -0500,
113,113,0,filler_random,None,None,None,None,None,None,None,None,None,None,1,2.5718436241149902,None,,,,,0,0,0,0,0,113,113,132,583.5166947841644,,,,,,,,,,,,,,,,,,,,,,,,,,,,,,,,,,,,,,,,,,,,,,,,,,,,,,,,,,,,,,,,,,,,,,,,,,,,,,,,,77.92959809427882,146.34027429310356,124.16230481958227,75.97113950246775,119.05548986233137,69.31077597057877,4.0,4.2,-207,17,0,-268,169,13,583.5024664402008,583.5025455951691,583.5058400630951,583.5166947841644,583.6682252883911,583.6682252883911,583.6682252883911,583.6682252883911,583.6682252883911,583.6682252883911,583.6682252883911,586.1022262573242,1,2.5718436241149902,None,,,,,,,,,,,,,,,,,,143,1,2025-02-27_11h17.02.862,comp,2024.2.4,56.492899166002196,2025-02-27 11h30.06.095449 -0500,
114,114,0,critical,whd,35.0,3.0,lower,57.0,133.0,133.0,57.0,70.0,70.0,2,3.688720703125,None,,,,,0,0,0,0,0,114,114,86,586.1198854446411,,,,,,,,,,,,,,,,,,,,,,,,,,,,,,,,,,,,,,,,,,,,,,,,,,,,,,,,,,,,,,,,,,,,,,,,,,,,,,,,,57.0,133.0,133.0,57.0,70.0,70.0,3.0,3.2,-191,-278,0,17,160,279,586.1037616729736,586.1038389205933,586.1071705818176,586.1198854446411,586.2713713645935,586.2713713645935,586.2713713645935,586.2713713645935,586.2713713645935,586.2713713645935,586.2713713645935,589.8117990493774,2,3.688720703125,None,,,,,,,,,,,,,,,,,,143,1,2025-02-27_11h17.02.862,comp,2024.2.4,56.492899166002196,2025-02-27 11h30.06.095449 -0500,
115,115,0,critical,whd,20.0,2.1,lower,57.0,133.0,133.0,57.0,78.0,78.0,3,2.0294644832611084,None,,,,,0,0,0,0,0,115,115,14,589.8271250724792,,,,,,,,,,,,,,,,,,,,,,,,,,,,,,,,,,,,,,,,,,,,,,,,,,,,,,,,,,,,,,,,,,,,,,,,,,,,,,,,,57.0,133.0,133.0,57.0,78.0,78.0,2.1,2.12,-191,-261,0,-256,164,255,589.8133189678192,589.8133974075317,589.8162355422974,589.8271250724792,589.9664311408997,589.9664311408997,589.9664311408997,589.9664311408997,589.9664311408997,589.9664311408997,589.9664311408997,591.8705818653107,3,2.0294644832611084,None,,,,,,,,,,,,,,,,,,143,1,2025-02-27_11h17.02.862,comp,2024.2.4,56.492899166002196,2025-02-27 11h30.06.095449 -0500,
116,116,0,critical,hwd,20.0,3.0,lower,133.0,57.0,57.0,133.0,78.0,78.0,1,7.121919393539429,None,,,,,0,0,0,0,0,116,116,104,591.8864860534668,,,,,,,,,,,,,,,,,,,,,,,,,,,,,,,,,,,,,,,,,,,,,,,,,,,,,,,,,,,,,,,,,,,,,,,,,,,,,,,,,133.0,57.0,57.0,133.0,78.0,78.0,3.0,3.1,-191,277,0,18,202,-276,591.8721344470978,591.8722116947174,591.8757452964783,591.8864860534668,592.039977312088,592.039977312088,592.039977312088,592.039977312088,592.039977312088,592.039977312088,592.039977312088,599.0213294029236,1,7.121919393539429,None,,,,,,,,,,,,,,,,,,143,1,2025-02-27_11h17.02.862,comp,2024.2.4,56.492899166002196,2025-02-27 11h30.06.095449 -0500,
117,117,0,critical,hwd,35.0,2.1,upper,200.0,125.0,125.0,200.0,127.0,127.0,2,6.42748236656189,None,,,,,0,0,0,0,0,117,117,17,599.0376636981964,,,,,,,,,,,,,,,,,,,,,,,,,,,,,,,,,,,,,,,,,,,,,,,,,,,,,,,,,,,,,,,,,,,,,,,,,,,,,,,,,200.0,125.0,125.0,200.0,127.0,127.0,2.1,2.12,-258,-250,0,-263,260,257,599.0228743553162,599.0229778289795,599.0262196063995,599.0376636981964,599.1778299808502,599.1778299808502,599.1778299808502,599.1778299808502,599.1778299808502,599.1778299808502,599.1778299808502,605.4753060340881,2,6.42748236656189,None,,,,,,,,,,,,,,,,,,143,1,2025-02-27_11h17.02.862,comp,2024.2.4,56.492899166002196,2025-02-27 11h30.06.095449 -0500,
118,118,0,filler_random,None,None,None,None,None,None,None,None,None,None,3,2.7570207118988037,None,,,,,0,0,0,0,0,118,118,164,605.491372346878,,,,,,,,,,,,,,,,,,,,,,,,,,,,,,,,,,,,,,,,,,,,,,,,,,,,,,,,,,,,,,,,,,,,,,,,,,,,,,,,,156.26226277074312,71.04997263814008,80.7641298227412,97.58125205558746,141.84974736548838,140.26447511649215,4.0,4.2,-180,7,0,-274,215,12,605.4770750999451,605.4771564006805,605.480527639389,605.491372346878,605.6294131278992,605.6294131278992,605.6294131278992,605.6294131278992,605.6294131278992,605.6294131278992,605.6294131278992,608.2593424320221,3,2.7570207118988037,None,,,,,,,,,,,,,,,,,,143,1,2025-02-27_11h17.02.862,comp,2024.2.4,56.492899166002196,2025-02-27 11h30.06.095449 -0500,
119,119,0,critical,wdh,20.0,1.0,lower,57.0,133.0,78.0,78.0,133.0,57.0,1,2.741154432296753,None,,,,,0,0,0,0,0,119,119,78,608.2759072780609,,,,,,,,,,,,,,,,,,,,,,,,,,,,,,,,,,,,,,,,,,,,,,,,,,,,,,,,,,,,,,,,,,,,,,,,,,,,,,,,,57.0,133.0,78.0,78.0,133.0,57.0,1.0,1.3,278,-287,480,-250,644,-260,608.2610476016998,608.2611746788025,608.265239238739,608.2759072780609,608.4255771636963,608.4255771636963,608.4255771636963,608.4255771636963,608.4255771636963,608.4255771636963,608.4255771636963,611.0261642932892,1,2.741154432296753,None,,,,,,,,,,,,,,,,,,143,1,2025-02-27_11h17.02.862,comp,2024.2.4,56.492899166002196,2025-02-27 11h30.06.095449 -0500,
120,120,0,critical,whd,35.0,4.0,upper,125.0,200.0,200.0,125.0,127.0,127.0,1,5.494776248931885,None,,,,,0,0,0,0,0,120,120,89,611.0417954921722,,,,,,,,,,,,,,,,,,,,,,,,,,,,,,,,,,,,,,,,,,,,,,,,,,,,,,,,,,,,,,,,,,,,,,,,,,,,,,,,,125.0,200.0,200.0,125.0,127.0,127.0,4.0,4.1,-258,-260,0,13,222,-272,611.0276856422424,611.0277667045593,611.0311160087585,611.0417954921722,611.1932911872864,611.1932911872864,611.1932911872864,611.1932911872864,611.1932911872864,611.1932911872864,611.1932911872864,616.5502405166626,1,5.494776248931885,None,,,,,,,,,,,,,,,,,,143,1,2025-02-27_11h17.02.862,comp,2024.2.4,56.492899166002196,2025-02-27 11h30.06.095449 -0500,
121,121,0,catch,None,None,None,None,None,None,None,None,None,None,2,1.2587201595306396,None,,,,,0,0,0,0,0,121,121,123,616.5660445690155,,,,,,,,,,,,,,,,,,,,,,,,,,,,,,,,,,,,,,,,,,,,,,,,,,,,,,,,,,,,,,,,,,,,,,,,,,,,,,,,,65,125,131,194,64,126,1.0,1.3,224,-277,480,-255,736,-270,616.552042722702,616.5521214008331,616.5549240112305,616.5660445690155,616.7108914852142,616.7108914852142,616.7108914852142,616.7108914852142,616.7108914852142,616.7108914852142,616.7108914852142,617.8272838592529,2,1.2587201595306396,None,,,,,,,,,,,,,,,,,,143,1,2025-02-27_11h17.02.862,comp,2024.2.4,56.492899166002196,2025-02-27 11h30.06.095449 -0500,
122,122,0,critical,wdh,20.0,2.1,lower,57.0,133.0,78.0,78.0,133.0,57.0,3,3.7288076877593994,None,,,,,0,0,0,0,0,122,122,34,617.8476867675781,,,,,,,,,,,,,,,,,,,,,,,,,,,,,,,,,,,,,,,,,,,,,,,,,,,,,,,,,,,,,,,,,,,,,,,,,,,,,,,,,57.0,133.0,78.0,78.0,133.0,57.0,2.1,2.12,-202,-272,0,-285,164,260,617.8288996219635,617.8290109634399,617.8323178291321,617.8476867675781,618.0002307891846,618.0002307891846,618.0002307891846,618.0002307891846,618.0002307891846,618.0002307891846,618.0002307891846,621.5948436260223,3,3.7288076877593994,None,,,,,,,,,,,,,,,,,,143,1,2025-02-27_11h17.02.862,comp,2024.2.4,56.492899166002196,2025-02-27 11h30.06.095449 -0500,
123,123,0,critical,whd,20.0,4.0,lower,57.0,133.0,133.0,57.0,78.0,78.0,2,3.1270244121551514,None,,,,,0,0,0,0,0,123,123,94,621.6107292175293,,,,,,,,,,,,,,,,,,,,,,,,,,,,,,,,,,,,,,,,,,,,,,,,,,,,,,,,,,,,,,,,,,,,,,,,,,,,,,,,,57.0,133.0,133.0,57.0,78.0,78.0,4.0,4.1,-191,-272,0,-11,164,-256,621.5963160991669,621.5963909626007,621.5994753837585,621.6107292175293,621.7503881454468,621.7503881454468,621.7503881454468,621.7503881454468,621.7503881454468,621.7503881454468,621.7503881454468,624.7487547397614,2,3.1270244121551514,None,,,,,,,,,,,,,,,,,,143,1,2025-02-27_11h17.02.862,comp,2024.2.4,56.492899166002196,2025-02-27 11h30.06.095449 -0500,
124,124,0,filler_random,None,None,None,None,None,None,None,None,None,None,3,1.3042125701904297,None,,,,,0,0,0,0,0,124,124,168,624.7701222896576,,,,,,,,,,,,,,,,,,,,,,,,,,,,,,,,,,,,,,,,,,,,,,,,,,,,,,,,,,,,,,,,,,,,,,,,,,,,,,,,,77.447755915734,132.05315933072944,74.94706308470838,81.63496563792734,179.4604411353911,154.11348416947254,3.0,3.2,-203,-258,0,-14,214,262,624.7506473064423,624.7507421970367,624.7542524337769,624.7701222896576,624.9134676456451,624.9134676456451,624.9134676456451,624.9134676456451,624.9134676456451,624.9134676456451,624.9134676456451,626.0800187587738,3,1.3042125701904297,None,,,,,,,,,,,,,,,,,,143,1,2025-02-27_11h17.02.862,comp,2024.2.4,56.492899166002196,2025-02-27 11h30.06.095449 -0500,
125,125,0,filler_random,None,None,None,None,None,None,None,None,None,None,2,2.69356107711792,None,,,,,0,0,0,0,0,125,125,163,626.0992362499237,,,,,,,,,,,,,,,,,,,,,,,,,,,,,,,,,,,,,,,,,,,,,,,,,,,,,,,,,,,,,,,,,,,,,,,,,,,,,,,,,152.88908736600953,98.75403510738838,151.90216743119134,129.5981749811678,124.57387335572085,85.22135960484009,2.1,2.11,-210,273,0,274,203,-266,626.0816934108734,626.0817720890045,626.0850119590759,626.0992362499237,626.2466566562653,626.2466566562653,626.2466566562653,626.2466566562653,626.2466566562653,626.2466566562653,626.2466566562653,628.8003387451172,2,2.69356107711792,None,,,,,,,,,,,,,,,,,,143,1,2025-02-27_11h17.02.862,comp,2024.2.4,56.492899166002196,2025-02-27 11h30.06.095449 -0500,
126,126,0,filler_square,None,None,None,None,None,None,None,None,None,None,2,1.350069522857666,None,,,,,0,0,0,0,0,126,126,204,628.8183708190918,,,,,,,,,,,,,,,,,,,,,,,,,,,,,,,,,,,,,,,,,,,,,,,,,,,,,,,,,,,,,,,,,,,,,,,,,,,,,,,,,113.69483690047937,75.34525637280564,137.7798276254655,137.7798276254655,76.39627101856821,97.8201752391708,4.0,4.1,-203,-264,0,12,214,-260,628.8022484779358,628.8023264408112,628.8053741455078,628.8183708190918,628.9644513130188,628.9644513130188,628.9644513130188,628.9644513130188,628.9644513130188,628.9644513130188,628.9644513130188,630.1798188686371,2,1.350069522857666,None,,,,,,,,,,,,,,,,,,143,1,2025-02-27_11h17.02.862,comp,2024.2.4,56.492899166002196,2025-02-27 11h30.06.095449 -0500,
127,127,0,filler_square,None,None,None,None,None,None,None,None,None,None,3,1.086458683013916,None,,,,,0,0,0,0,0,127,127,186,630.1945734024048,,,,,,,,,,,,,,,,,,,,,,,,,,,,,,,,,,,,,,,,,,,,,,,,,,,,,,,,,,,,,,,,,,,,,,,,,,,,,,,,,129.1413441368611,72.75017998563803,109.69397795776203,121.41114370501867,130.54729355164557,130.54729355164557,1.0,1.2,-193,-14,0,-14,222,-5,630.1814875602722,630.1815648078918,630.1843800544739,630.1945734024048,630.3471794128418,630.3471794128418,630.3471794128418,630.3471794128418,630.3471794128418,630.3471794128418,630.3471794128418,631.2998559474945,3,1.086458683013916,None,,,,,,,,,,,,,,,,,,143,1,2025-02-27_11h17.02.862,comp,2024.2.4,56.492899166002196,2025-02-27 11h30.06.095449 -0500,
128,128,0,filler_random,None,None,None,None,None,None,None,None,None,None,3,0.9552710056304932,None,,,,,0,0,0,0,0,128,128,158,631.3178753852844,,,,,,,,,,,,,,,,,,,,,,,,,,,,,,,,,,,,,,,,,,,,,,,,,,,,,,,,,,,,,,,,,,,,,,,,,,,,,,,,,77.7929510112011,82.47637129454995,106.04166424188094,169.59296363838087,119.96901331165967,174.56092177730523,1.0,1.2,-222,-7,0,9,268,6,631.3016259670258,631.3017570972443,631.3051099777222,631.3178753852844,631.4658639431,631.4658639431,631.4658639431,631.4658639431,631.4658639431,631.4658639431,631.4658639431,632.2799823284149,3,0.9552710056304932,None,,,,,,,,,,,,,,,,,,143,1,2025-02-27_11h17.02.862,comp,2024.2.4,56.492899166002196,2025-02-27 11h30.06.095449 -0500,
129,129,0,critical,wdh,20.0,2.1,upper,125.0,200.0,141.0,141.0,200.0,125.0,1,2.087503671646118,None,,,,,0,0,0,0,0,129,129,11,632.2969191074371,,,,,,,,,,,,,,,,,,,,,,,,,,,,,,,,,,,,,,,,,,,,,,,,,,,,,,,,,,,,,,,,,,,,,,,,,,,,,,,,,125.0,200.0,141.0,141.0,200.0,125.0,2.1,2.11,-266,269,0,267,229,-267,632.2814605236053,632.2815380096436,632.2844288349152,632.2969191074371,632.4541671276093,632.4541671276093,632.4541671276093,632.4541671276093,632.4541671276093,632.4541671276093,632.4541671276093,634.399560213089,1,2.087503671646118,None,,,,,,,,,,,,,,,,,,143,1,2025-02-27_11h17.02.862,comp,2024.2.4,56.492899166002196,2025-02-27 11h30.06.095449 -0500,
130,130,0,filler_square,None,None,None,None,None,None,None,None,None,None,2,1.6747050285339355,None,,,,,0,0,0,0,0,130,130,190,634.4153983592987,,,,,,,,,,,,,,,,,,,,,,,,,,,,,,,,,,,,,,,,,,,,,,,,,,,,,,,,,,,,,,,,,,,,,,,,,,,,,,,,,65.67289445569968,101.01208242857041,143.47943175331721,143.47943175331721,112.8277698465138,118.0789401837873,1.0,1.3,262,-257,480,-285,707,-266,634.4012751579285,634.4013500213623,634.4045391082764,634.4153983592987,634.5716784000397,634.5716784000397,634.5716784000397,634.5716784000397,634.5716784000397,634.5716784000397,634.5716784000397,636.1008520126343,2,1.6747050285339355,None,,,,,,,,,,,,,,,,,,143,1,2025-02-27_11h17.02.862,comp,2024.2.4,56.492899166002196,2025-02-27 11h30.06.095449 -0500,
131,131,0,critical,dhw,20.0,2.1,upper,141.0,141.0,200.0,125.0,125.0,200.0,3,2.437220811843872,None,,,,,0,0,0,0,0,131,131,3,636.1152422428131,,,,,,,,,,,,,,,,,,,,,,,,,,,,,,,,,,,,,,,,,,,,,,,,,,,,,,,,,,,,,,,,,,,,,,,,,,,,,,,,,141.0,141.0,200.0,125.0,125.0,200.0,2.1,2.11,-229,253,0,267,258,-275,636.1024072170258,636.1024844646454,636.1055462360382,636.1152422428131,636.2678139209747,636.2678139209747,636.2678139209747,636.2678139209747,636.2678139209747,636.2678139209747,636.2678139209747,638.5684061050415,3,2.437220811843872,None,,,,,,,,,,,,,,,,,,143,1,2025-02-27_11h17.02.862,comp,2024.2.4,56.492899166002196,2025-02-27 11h30.06.095449 -0500,
132,132,0,filler_random,None,None,None,None,None,None,None,None,None,None,1,1.3763008117675781,None,,,,,0,0,0,0,0,132,132,152,638.5846476554871,,,,,,,,,,,,,,,,,,,,,,,,,,,,,,,,,,,,,,,,,,,,,,,,,,,,,,,,,,,,,,,,,,,,,,,,,,,,,,,,,106.51717816314397,182.1224890225367,146.30621988821042,69.45273400142187,188.32319970610334,70.95078772408222,1.0,1.3,258,-270,480,-251,646,-257,638.570151090622,638.5702278614044,638.5742709636688,638.5846476554871,638.7316038608551,638.7316038608551,638.7316038608551,638.7316038608551,638.7316038608551,638.7316038608551,638.7316038608551,639.977281332016,1,1.3763008117675781,None,,,,,,,,,,,,,,,,,,143,1,2025-02-27_11h17.02.862,comp,2024.2.4,56.492899166002196,2025-02-27 11h30.06.095449 -0500,
133,133,0,critical,hdw,20.0,4.0,lower,133.0,57.0,78.0,78.0,57.0,133.0,1,2.3197214603424072,None,,,,,0,0,0,0,0,133,133,118,639.9928526878357,,,,,,,,,,,,,,,,,,,,,,,,,,,,,,,,,,,,,,,,,,,,,,,,,,,,,,,,,,,,,,,,,,,,,,,,,,,,,,,,,133.0,57.0,78.0,78.0,57.0,133.0,4.0,4.1,-164,-278,0,4,202,-274,639.9787755012512,639.9788525104523,639.9817044734955,639.9928526878357,640.1337077617645,640.1337077617645,640.1337077617645,640.1337077617645,640.1337077617645,640.1337077617645,640.1337077617645,642.3231630325317,1,2.3197214603424072,None,,,,,,,,,,,,,,,,,,143,1,2025-02-27_11h17.02.862,comp,2024.2.4,56.492899166002196,2025-02-27 11h30.06.095449 -0500,
134,134,0,critical,dwh,20.0,4.0,lower,78.0,78.0,57.0,133.0,133.0,57.0,3,3.3239901065826416,None,,,,,0,0,0,0,0,134,134,70,642.340616941452,,,,,,,,,,,,,,,,,,,,,,,,,,,,,,,,,,,,,,,,,,,,,,,,,,,,,,,,,,,,,,,,,,,,,,,,,,,,,,,,,78.0,78.0,57.0,133.0,133.0,57.0,4.0,4.1,-202,-259,0,-1,191,-275,642.3247218132019,642.3248007297516,642.3276882171631,642.340616941452,642.4852766990662,642.4852766990662,642.4852766990662,642.4852766990662,642.4852766990662,642.4852766990662,642.4852766990662,645.6798663139343,3,3.3239901065826416,None,,,,,,,,,,,,,,,,,,143,1,2025-02-27_11h17.02.862,comp,2024.2.4,56.492899166002196,2025-02-27 11h30.06.095449 -0500,
135,135,0,filler_random,None,None,None,None,None,None,None,None,None,None,3,1.1915452480316162,None,,,,,0,0,0,0,0,135,135,131,645.6970839500427,,,,,,,,,,,,,,,,,,,,,,,,,,,,,,,,,,,,,,,,,,,,,,,,,,,,,,,,,,,,,,,,,,,,,,,,,,,,,,,,,83.0040135800287,135.35198217530387,85.4796550245401,123.13842772053066,150.76607006774734,115.7656660268623,2.1,2.11,-225,257,0,270,215,-280,645.6815297603607,645.6816079616547,645.6844737529755,645.6970839500427,645.8382468223572,645.8382468223572,645.8382468223572,645.8382468223572,645.8382468223572,645.8382468223572,645.8382468223572,646.9039323329926,3,1.1915452480316162,None,,,,,,,,,,,,,,,,,,143,1,2025-02-27_11h17.02.862,comp,2024.2.4,56.492899166002196,2025-02-27 11h30.06.095449 -0500,
136,136,0,critical,hdw,20.0,2.1,upper,200.0,125.0,141.0,141.0,125.0,200.0,3,3.4014089107513428,None,,,,,0,0,0,0,0,136,136,23,646.9198350906372,,,,,,,,,,,,,,,,,,,,,,,,,,,,,,,,,,,,,,,,,,,,,,,,,,,,,,,,,,,,,,,,,,,,,,,,,,,,,,,,,200.0,125.0,141.0,141.0,125.0,200.0,2.1,2.11,-229,264,0,256,266,-250,646.9055697917938,646.9056468009949,646.9095981121063,646.9198350906372,647.0756793022156,647.0756793022156,647.0756793022156,647.0756793022156,647.0756793022156,647.0756793022156,647.0756793022156,650.3382859230042,3,3.4014089107513428,None,,,,,,,,,,,,,,,,,,143,1,2025-02-27_11h17.02.862,comp,2024.2.4,56.492899166002196,2025-02-27 11h30.06.095449 -0500,
137,137,0,critical,hdw,35.0,1.0,lower,133.0,57.0,70.0,70.0,57.0,133.0,1,1.9114360809326172,None,,,,,0,0,0,0,0,137,137,108,650.3537375926971,,,,,,,,,,,,,,,,,,,,,,,,,,,,,,,,,,,,,,,,,,,,,,,,,,,,,,,,,,,,,,,,,,,,,,,,,,,,,,,,,133.0,57.0,70.0,70.0,57.0,133.0,1.0,1.3,320,-270,480,-279,678,-253,650.339902639389,650.3400130271912,650.3434596061707,650.3537375926971,650.5054094791412,650.5054094791412,650.5054094791412,650.5054094791412,650.5054094791412,650.5054094791412,650.5054094791412,652.2707850933075,1,1.9114360809326172,None,,,,,,,,,,,,,,,,,,143,1,2025-02-27_11h17.02.862,comp,2024.2.4,56.492899166002196,2025-02-27 11h30.06.095449 -0500,
138,138,0,critical,hwd,20.0,2.1,upper,200.0,125.0,125.0,200.0,141.0,141.0,1,2.1138839721679688,None,,,,,0,0,0,0,0,138,138,19,652.2870395183563,,,,,,,,,,,,,,,,,,,,,,,,,,,,,,,,,,,,,,,,,,,,,,,,,,,,,,,,,,,,,,,,,,,,,,,,,,,,,,,,,200.0,125.0,125.0,200.0,141.0,141.0,2.1,2.11,-258,279,0,253,266,-250,652.272289276123,652.2723689079285,652.2752728462219,652.2870395183563,652.4423475265503,652.4423475265503,652.4423475265503,652.4423475265503,652.4423475265503,652.4423475265503,652.4423475265503,654.4054362773895,1,2.1138839721679688,None,,,,,,,,,,,,,,,,,,143,1,2025-02-27_11h17.02.862,comp,2024.2.4,56.492899166002196,2025-02-27 11h30.06.095449 -0500,
139,139,0,filler_random,None,None,None,None,None,None,None,None,None,None,3,1.6918165683746338,None,,,,,0,0,0,0,0,139,139,148,654.421407699585,,,,,,,,,,,,,,,,,,,,,,,,,,,,,,,,,,,,,,,,,,,,,,,,,,,,,,,,,,,,,,,,,,,,,,,,,,,,,,,,,172.73393882055544,85.6495896018524,80.98776197147549,83.96604786949574,95.96823536083855,171.82046783990705,4.0,4.2,-181,-10,0,-263,224,-2,654.4070222377777,654.4070992469788,654.4102215766907,654.421407699585,654.5755994319916,654.5755994319916,654.5755994319916,654.5755994319916,654.5755994319916,654.5755994319916,654.5755994319916,656.1203482151031,3,1.6918165683746338,None,,,,,,,,,,,,,,,,,,143,1,2025-02-27_11h17.02.862,comp,2024.2.4,56.492899166002196,2025-02-27 11h30.06.095449 -0500,
140,140,0,filler_square,None,None,None,None,None,None,None,None,None,None,2,2.0235238075256348,None,,,,,0,0,0,0,0,140,140,196,656.1373031139374,,,,,,,,,,,,,,,,,,,,,,,,,,,,,,,,,,,,,,,,,,,,,,,,,,,,,,,,,,,,,,,,,,,,,,,,,,,,,,,,,87.04720922579284,106.89676884859404,107.25419687252494,107.25419687252494,81.9049655828276,102.91261165991676,4.0,4.1,-203,-269,0,-18,201,-257,656.1221876144409,656.1222658157349,656.1251730918884,656.1373031139374,656.2893195152283,656.2893195152283,656.2893195152283,656.2893195152283,656.2893195152283,656.2893195152283,656.2893195152283,658.1739296913147,2,2.0235238075256348,None,,,,,,,,,,,,,,,,,,143,1,2025-02-27_11h17.02.862,comp,2024.2.4,56.492899166002196,2025-02-27 11h30.06.095449 -0500,
