thisN,thisTrialN,thisRepN,effect,order,distance,config,diag,h_1,w_1,h_2,w_2,h_3,w_3,rect_choice.keys,rect_choice.rt,rect_choice.duration,instructions_loop.thisRepN,instructions_loop.thisTrialN,instructions_loop.thisN,instructions_loop.thisIndex,blocks.thisRepN,blocks.thisTrialN,blocks.thisN,blocks.thisIndex,trials.thisRepN,trials.thisTrialN,trials.thisN,trials.thisIndex,thisRow.t,notes,consent.started,agree_button.started,decline_button.started,consent_img.started,mouse.started,consent.stopped,agree_button.numClicks,agree_button.timesOn,agree_button.timesOff,decline_button.numClicks,decline_button.timesOn,decline_button.timesOff,mouse.x,mouse.y,mouse.leftButton,mouse.midButton,mouse.rightButton,mouse.time,mouse.clicked_name,exp_params.started,exp_params.stopped,welcome.started,welcome_text.started,welcome_text.stopped,welcome.stopped,instructions_1.started,instructions_1_text_1.started,instructions_1_text_2.started,key_resp.started,instructions_1.stopped,instructions_loop.key_resp.keys,instructions_loop.key_resp.rt,instructions_loop.key_resp.duration,instructions_2.started,instructions_2_text_1.started,instructions_2_text_2.started,key_resp_2.started,instructions_2.stopped,instructions_loop.key_resp_2.keys,instructions_loop.key_resp_2.rt,instructions_loop.key_resp_2.duration,instructions_3.started,instructions_3_text_1.started,r1_instr3.started,r2_instr3.started,r3_instr3.started,r1_instr3_label.started,r2_instr3_label.started,r3_instr3_label.started,instructions_3_text_3.started,instructions_3_text_4.started,key_resp_3.started,instructions_3.stopped,instructions_loop.key_resp_3.keys,instructions_loop.key_resp_3.rt,instructions_loop.key_resp_3.duration,instructions_4.started,instructions_4_text_1.started,instructions_4_text_3.started,instructions_4_text_2.started,key_resp_4.started,instructions_4.stopped,instructions_loop.key_resp_4.keys,instructions_loop.key_resp_4.rt,instructions_loop.key_resp_4.duration,instructions_5.started,instructions_5_text_1.started,instructions_5_text_2.started,key_resp_5.started,instructions_5.stopped,instructions_loop.key_resp_5.keys,instructions_loop.key_resp_5.rt,instructions_loop.key_resp_5.duration,start_exp.started,start_exp_text.started,key_resp_6.started,start_exp.stopped,key_resp_6.keys,key_resp_6.rt,key_resp_6.duration,h_1_tmp,w_1_tmp,h_2_tmp,w_2_tmp,h_3_tmp,w_3_tmp,config_tmp,config_tmp_1,r_1_x,r_1_y,r_2_x,r_2_y,r_3_x,r_3_y,pre_trial.started,pre_trial.stopped,choice_trial.started,rect_choice.started,r_1.started,r_2.started,r_3.started,r_1_label.started,r_2_label.started,r_3_label.started,prompt.started,choice_trial.stopped,trials.rect_choice.keys,trials.rect_choice.rt,trials.rect_choice.duration,end_block.started,end_block_text.started,end_block.stopped,end.started,end_text.started,key_resp_7.started,end.stopped,key_resp_7.keys,key_resp_7.rt,key_resp_7.duration,debriefing.started,debrief_form.started,end_debrief.started,debriefing.stopped,end_debrief.keys,end_debrief.rt,end_debrief.duration,participant,computer,date,expName,psychopyVersion,frameRate,expStart,
,,,,,,,,,,,,,,,,,,,,,,,,,,,,,,,0.014671087265014648,0.037476301193237305,0.037476301193237305,0.037476301193237305,0.014475822448730469,19.367730617523193,1,[19.328078269958496],[19.328099250793457],0,,,"[201.0, -93.0]","[-540.0, -501.0]","[0, 1]","[0, 0]","[1, 0]","[17.751543760299683, 19.352659463882446]","[None, 'agree_button']",,,,,,,,,,,,,,,,,,,,,,,,,,,,,,,,,,,,,,,,,,,,,,,,,,,,,,,,,,,,,,,,,,,,,,,,,,,,,,,,,,,,,,,,,,,,,,,,,,,,,,,,,,,,144,2,2025-02-27_11h30.29.250,comp,2024.2.4,48.150285964876026,2025-02-27 11h31.04.049692 -0500,
,,,,,,,,,,,,,,,,,,,,,,,,,,,,,,,,,,,,,,,,,,,,,,,,,,19.36829137802124,19.368358373641968,,,,,,,,,,,,,,,,,,,,,,,,,,,,,,,,,,,,,,,,,,,,,,,,,,,,,,,,,,,,,,,,,,,,,,,,,,,,,,,,,,,,,,,,,,,,,,,,,,,,,,,,,,144,2,2025-02-27_11h30.29.250,comp,2024.2.4,48.150285964876026,2025-02-27 11h31.04.049692 -0500,
,,,,,,,,,,,,,,,,,,,,,,,,,,,,,,,,,,,,,,,,,,,,,,,,,,,,19.368401050567627,19.38430380821228,21.38692283630371,21.36746621131897,,,,,,,,,,,,,,,,,,,,,,,,,,,,,,,,,,,,,,,,,,,,,,,,,,,,,,,,,,,,,,,,,,,,,,,,,,,,,,,,,,,,,,,,,,,,,,,,,,,,,,144,2,2025-02-27_11h30.29.250,comp,2024.2.4,48.150285964876026,2025-02-27 11h31.04.049692 -0500,
0,0,0,,,,,,,,,,,,,,,0,0,0,0,,,,,,,,,21.38692283630371,,,,,,,,,,,,,,,,,,,,,,,,,,,21.36835241317749,21.38692283630371,21.38692283630371,22.870972394943237,25.725997924804688,space,2.8491134643554688,None,25.726150274276733,25.745075225830078,25.745075225830078,27.23958945274353,33.82609963417053,space,6.584488153457642,None,33.82625436782837,33.856892585754395,33.856892585754395,33.856892585754395,33.856892585754395,33.856892585754395,33.856892585754395,33.856892585754395,33.856892585754395,33.856892585754395,35.340821743011475,40.91002631187439,space,5.5473644733428955,None,40.91019058227539,40.928449392318726,40.928449392318726,40.928449392318726,42.41103553771973,51.632434368133545,space,9.213454008102417,None,51.63259029388428,51.64753246307373,51.64753246307373,53.149574756622314,55.450002908706665,space,2.298527717590332,None,55.45020627975464,55.46395230293274,55.46395230293274,56.93366622924805,space,1.456329584121704,None,,,,,,,,,,,,,,,,,,,,,,,,,,,,,,,,,,,,,,,,,,,,,,,144,2,2025-02-27_11h30.29.250,comp,2024.2.4,48.150285964876026,2025-02-27 11h31.04.049692 -0500,
0,0,0,filler_square,None,None,None,None,None,None,None,None,None,None,2,4.462642192840576,None,,,,,0,0,0,0,0,0,0,175,57.00933885574341,,,,,,,,,,,,,,,,,,,,,,,,,,,,,,,,,,,,,,,,,,,,,,,,,,,,,,,,,,,,,,,,,,,,,,,,,,,,,,,,,,107.74036758573482,94.7842897438317,118.65712239376305,118.65712239376305,63.24438990685839,116.72029785351657,2.2,2.21,-203,-267,0,269,214,283,56.992915391922,56.99295234680176,56.99434685707092,57.00933885574341,57.156906843185425,57.156906843185425,57.156906843185425,57.156906843185425,57.156906843185425,57.156906843185425,57.156906843185425,61.482962131500244,2,4.462642192840576,None,,,,,,,,,,,,,,,,,,144,2,2025-02-27_11h30.29.250,comp,2024.2.4,48.150285964876026,2025-02-27 11h31.04.049692 -0500,
1,1,0,catch,None,None,None,None,None,None,None,None,None,None,1,2.37215256690979,None,,,,,0,0,0,0,0,1,1,123,61.49994945526123,,,,,,,,,,,,,,,,,,,,,,,,,,,,,,,,,,,,,,,,,,,,,,,,,,,,,,,,,,,,,,,,,,,,,,,,,,,,,,,,,,192,133,118,72,87,103,1.0,1.2,-198,0,0,-17,184,-6,61.48483943939209,61.48493933677673,61.48801350593567,61.49994945526123,61.65281796455383,61.65281796455383,61.65281796455383,61.65281796455383,61.65281796455383,61.65281796455383,61.65281796455383,63.88529682159424,1,2.37215256690979,None,,,,,,,,,,,,,,,,,,144,2,2025-02-27_11h30.29.250,comp,2024.2.4,48.150285964876026,2025-02-27 11h31.04.049692 -0500,
2,2,0,critical,dwh,35.0,2.1,lower,70.0,70.0,57.0,133.0,133.0,57.0,3,6.197097063064575,None,,,,,0,0,0,0,0,2,2,28,63.89898705482483,,,,,,,,,,,,,,,,,,,,,,,,,,,,,,,,,,,,,,,,,,,,,,,,,,,,,,,,,,,,,,,,,,,,,,,,,,,,,,,,,,70.0,70.0,57.0,133.0,133.0,57.0,2.1,2.11,-198,254,0,263,191,-275,63.88681483268738,63.88691210746765,63.88994812965393,63.89898705482483,64.03983283042908,64.03983283042908,64.03983283042908,64.03983283042908,64.03983283042908,64.03983283042908,64.03983283042908,70.1117012500763,3,6.197097063064575,None,,,,,,,,,,,,,,,,,,144,2,2025-02-27_11h30.29.250,comp,2024.2.4,48.150285964876026,2025-02-27 11h31.04.049692 -0500,
3,3,0,critical,wdh,20.0,2.1,upper,125.0,200.0,141.0,141.0,200.0,125.0,1,9.769947052001953,None,,,,,0,0,0,0,0,3,3,35,70.1266188621521,,,,,,,,,,,,,,,,,,,,,,,,,,,,,,,,,,,,,,,,,,,,,,,,,,,,,,,,,,,,,,,,,,,,,,,,,,,,,,,,,,125.0,200.0,141.0,141.0,200.0,125.0,2.1,2.11,-266,286,0,288,229,-278,70.11323809623718,70.11331295967102,70.11630940437317,70.1266188621521,70.2706708908081,70.2706708908081,70.2706708908081,70.2706708908081,70.2706708908081,70.2706708908081,70.2706708908081,79.90269088745117,1,9.769947052001953,None,,,,,,,,,,,,,,,,,,144,2,2025-02-27_11h30.29.250,comp,2024.2.4,48.150285964876026,2025-02-27 11h31.04.049692 -0500,
4,4,0,critical,hwd,35.0,2.1,upper,200.0,125.0,125.0,200.0,127.0,127.0,1,7.15369725227356,None,,,,,0,0,0,0,0,4,4,17,79.91888570785522,,,,,,,,,,,,,,,,,,,,,,,,,,,,,,,,,,,,,,,,,,,,,,,,,,,,,,,,,,,,,,,,,,,,,,,,,,,,,,,,,,200.0,125.0,125.0,200.0,127.0,127.0,2.1,2.11,-258,258,0,275,260,-279,79.90424823760986,79.90432405471802,79.90727233886719,79.91888570785522,80.05576968193054,80.05576968193054,80.05576968193054,80.05576968193054,80.05576968193054,80.05576968193054,80.05576968193054,87.07480692863464,1,7.15369725227356,None,,,,,,,,,,,,,,,,,,144,2,2025-02-27_11h30.29.250,comp,2024.2.4,48.150285964876026,2025-02-27 11h31.04.049692 -0500,
5,5,0,critical,wdh,35.0,3.0,upper,125.0,200.0,127.0,127.0,200.0,125.0,1,3.9421157836914062,None,,,,,0,0,0,0,0,5,5,75,87.09148144721985,,,,,,,,,,,,,,,,,,,,,,,,,,,,,,,,,,,,,,,,,,,,,,,,,,,,,,,,,,,,,,,,,,,,,,,,,,,,,,,,,,125.0,200.0,127.0,127.0,200.0,125.0,3.0,3.2,-260,-282,0,-16,222,281,87.07642388343811,87.07650375366211,87.0800392627716,87.09148144721985,87.24177765846252,87.24177765846252,87.24177765846252,87.24177765846252,87.24177765846252,87.24177765846252,87.24177765846252,91.04524874687195,1,3.9421157836914062,None,,,,,,,,,,,,,,,,,,144,2,2025-02-27_11h30.29.250,comp,2024.2.4,48.150285964876026,2025-02-27 11h31.04.049692 -0500,
6,6,0,critical,hdw,35.0,1.0,lower,133.0,57.0,70.0,70.0,57.0,133.0,1,5.811241149902344,None,,,,,0,0,0,0,0,6,6,108,91.06136322021484,,,,,,,,,,,,,,,,,,,,,,,,,,,,,,,,,,,,,,,,,,,,,,,,,,,,,,,,,,,,,,,,,,,,,,,,,,,,,,,,,,133.0,57.0,70.0,70.0,57.0,133.0,1.0,1.1,-640,267,-480,256,-282,281,91.04692912101746,91.04703831672668,91.05046343803406,91.06136322021484,91.21298885345459,91.21298885345459,91.21298885345459,91.21298885345459,91.21298885345459,91.21298885345459,91.21298885345459,96.87823057174683,1,5.811241149902344,None,,,,,,,,,,,,,,,,,,144,2,2025-02-27_11h30.29.250,comp,2024.2.4,48.150285964876026,2025-02-27 11h31.04.049692 -0500,
7,7,0,filler_random,None,None,None,None,None,None,None,None,None,None,1,2.6583290100097656,None,,,,,0,0,0,0,0,7,7,141,96.89475083351135,,,,,,,,,,,,,,,,,,,,,,,,,,,,,,,,,,,,,,,,,,,,,,,,,,,,,,,,,,,,,,,,,,,,,,,,,,,,,,,,,,194.15701863959885,197.51449187369974,188.24059757959208,67.31245801657916,192.3910585737956,87.67494222241284,4.0,4.1,-228,-286,0,-20,173,-264,96.87989401817322,96.87997150421143,96.88317370414734,96.89475083351135,97.05269861221313,97.05269861221313,97.05269861221313,97.05269861221313,97.05269861221313,97.05269861221313,97.05269861221313,99.56382751464844,1,2.6583290100097656,None,,,,,,,,,,,,,,,,,,144,2,2025-02-27_11h30.29.250,comp,2024.2.4,48.150285964876026,2025-02-27 11h31.04.049692 -0500,
8,8,0,critical,dhw,35.0,2.1,lower,70.0,70.0,133.0,57.0,57.0,133.0,3,3.267630100250244,None,,,,,0,0,0,0,0,8,8,0,99.58064436912537,,,,,,,,,,,,,,,,,,,,,,,,,,,,,,,,,,,,,,,,,,,,,,,,,,,,,,,,,,,,,,,,,,,,,,,,,,,,,,,,,,70.0,70.0,133.0,57.0,57.0,133.0,2.1,2.12,-160,-250,0,-260,191,258,99.56557440757751,99.56569647789001,99.56962037086487,99.58064436912537,99.72855639457703,99.72855639457703,99.72855639457703,99.72855639457703,99.72855639457703,99.72855639457703,99.72855639457703,102.85370993614197,3,3.267630100250244,None,,,,,,,,,,,,,,,,,,144,2,2025-02-27_11h30.29.250,comp,2024.2.4,48.150285964876026,2025-02-27 11h31.04.049692 -0500,
9,9,0,critical,dwh,20.0,1.0,upper,141.0,141.0,125.0,200.0,200.0,125.0,3,4.39514684677124,None,,,,,0,0,0,0,0,9,9,67,102.86903786659241,,,,,,,,,,,,,,,,,,,,,,,,,,,,,,,,,,,,,,,,,,,,,,,,,,,,,,,,,,,,,,,,,,,,,,,,,,,,,,,,,,141.0,141.0,125.0,200.0,200.0,125.0,1.0,1.1,-746,278,-480,267,-222,267,102.855313539505,102.85539245605469,102.85835218429565,102.86903786659241,103.01403403282166,103.01403403282166,103.01403403282166,103.01403403282166,103.01403403282166,103.01403403282166,103.01403403282166,107.26767230033875,3,4.39514684677124,None,,,,,,,,,,,,,,,,,,144,2,2025-02-27_11h30.29.250,comp,2024.2.4,48.150285964876026,2025-02-27 11h31.04.049692 -0500,
10,10,0,filler_random,None,None,None,None,None,None,None,None,None,None,3,6.178622245788574,None,,,,,0,0,0,0,0,10,10,166,107.28561735153198,,,,,,,,,,,,,,,,,,,,,,,,,,,,,,,,,,,,,,,,,,,,,,,,,,,,,,,,,,,,,,,,,,,,,,,,,,,,,,,,,,86.73219645306895,188.15391825298767,142.10923073494894,106.56294446753171,123.91877863154785,147.00312543284278,1.0,1.2,-243,10,0,-6,223,-4,107.26942157745361,107.26950073242188,107.2726263999939,107.28561735153198,107.43243503570557,107.43243503570557,107.43243503570557,107.43243503570557,107.43243503570557,107.43243503570557,107.43243503570557,113.46797251701355,3,6.178622245788574,None,,,,,,,,,,,,,,,,,,144,2,2025-02-27_11h30.29.250,comp,2024.2.4,48.150285964876026,2025-02-27 11h31.04.049692 -0500,
11,11,0,critical,wdh,20.0,1.0,upper,125.0,200.0,141.0,141.0,200.0,125.0,3,3.539466619491577,None,,,,,0,0,0,0,0,11,11,79,113.48456239700317,,,,,,,,,,,,,,,,,,,,,,,,,,,,,,,,,,,,,,,,,,,,,,,,,,,,,,,,,,,,,,,,,,,,,,,,,,,,,,,,,,125.0,200.0,141.0,141.0,200.0,125.0,1.0,1.2,-266,7,0,-5,229,-5,113.46953916549683,113.46961498260498,113.47379660606384,113.48456239700317,113.63209581375122,113.63209581375122,113.63209581375122,113.63209581375122,113.63209581375122,113.63209581375122,113.63209581375122,117.03611135482788,3,3.539466619491577,None,,,,,,,,,,,,,,,,,,144,2,2025-02-27_11h30.29.250,comp,2024.2.4,48.150285964876026,2025-02-27 11h31.04.049692 -0500,
12,12,0,critical,hdw,20.0,1.0,upper,200.0,125.0,141.0,141.0,125.0,200.0,1,2.929295063018799,None,,,,,0,0,0,0,0,12,12,115,117.05516314506531,,,,,,,,,,,,,,,,,,,,,,,,,,,,,,,,,,,,,,,,,,,,,,,,,,,,,,,,,,,,,,,,,,,,,,,,,,,,,,,,,,200.0,125.0,141.0,141.0,125.0,200.0,1.0,1.2,-229,-14,0,1,266,-20,117.03764605522156,117.03772068023682,117.04111242294312,117.05516314506531,117.20312738418579,117.20312738418579,117.20312738418579,117.20312738418579,117.20312738418579,117.20312738418579,117.20312738418579,119.99318027496338,1,2.929295063018799,None,,,,,,,,,,,,,,,,,,144,2,2025-02-27_11h30.29.250,comp,2024.2.4,48.150285964876026,2025-02-27 11h31.04.049692 -0500,
13,13,0,critical,wdh,35.0,1.0,upper,125.0,200.0,127.0,127.0,200.0,125.0,3,3.955676794052124,None,,,,,0,0,0,0,0,13,13,73,120.01276135444641,,,,,,,,,,,,,,,,,,,,,,,,,,,,,,,,,,,,,,,,,,,,,,,,,,,,,,,,,,,,,,,,,,,,,,,,,,,,,,,,,,125.0,200.0,127.0,127.0,200.0,125.0,1.0,1.1,-740,276,-480,274,-258,288,119.9948091506958,119.99495434761047,119.99836039543152,120.01276135444641,120.15399646759033,120.15399646759033,120.15399646759033,120.15399646759033,120.15399646759033,120.15399646759033,120.15399646759033,123.98645853996277,3,3.955676794052124,None,,,,,,,,,,,,,,,,,,144,2,2025-02-27_11h30.29.250,comp,2024.2.4,48.150285964876026,2025-02-27 11h31.04.049692 -0500,
14,14,0,filler_square,None,None,None,None,None,None,None,None,None,None,2,2.749415636062622,None,,,,,0,0,0,0,0,14,14,198,124.00280332565308,,,,,,,,,,,,,,,,,,,,,,,,,,,,,,,,,,,,,,,,,,,,,,,,,,,,,,,,,,,,,,,,,,,,,,,,,,,,,,,,,,61.22723005486293,74.73319254984712,81.72164681681352,81.72164681681352,77.94087205978741,60.23165952695894,3.0,3.2,-174,-278,0,18,167,265,123.98829054832458,123.98837018013,123.99153900146484,124.00280332565308,124.15975761413574,124.15975761413574,124.15975761413574,124.15975761413574,124.15975761413574,124.15975761413574,124.15975761413574,126.75711441040039,2,2.749415636062622,None,,,,,,,,,,,,,,,,,,144,2,2025-02-27_11h30.29.250,comp,2024.2.4,48.150285964876026,2025-02-27 11h31.04.049692 -0500,
15,15,0,filler_random,None,None,None,None,None,None,None,None,None,None,3,2.205821990966797,None,,,,,0,0,0,0,0,15,15,139,126.77855181694031,,,,,,,,,,,,,,,,,,,,,,,,,,,,,,,,,,,,,,,,,,,,,,,,,,,,,,,,,,,,,,,,,,,,,,,,,,,,,,,,,,123.3775232624199,131.728607936857,57.91371276952289,176.6804895294042,146.7098964863174,153.92064625523352,2.1,2.11,-250,283,0,282,261,-284,126.75908946990967,126.75918102264404,126.76265740394592,126.77855181694031,126.92306399345398,126.92306399345398,126.92306399345398,126.92306399345398,126.92306399345398,126.92306399345398,126.92306399345398,128.98996758460999,3,2.205821990966797,None,,,,,,,,,,,,,,,,,,144,2,2025-02-27_11h30.29.250,comp,2024.2.4,48.150285964876026,2025-02-27 11h31.04.049692 -0500,
16,16,0,filler_random,None,None,None,None,None,None,None,None,None,None,1,3.154025077819824,None,,,,,0,0,0,0,0,16,16,150,129.00632047653198,,,,,,,,,,,,,,,,,,,,,,,,,,,,,,,,,,,,,,,,,,,,,,,,,,,,,,,,,,,,,,,,,,,,,,,,,,,,,,,,,,107.25333371835795,93.54393640729573,91.26295501661532,90.11914892309196,138.94203416197084,75.6193581352146,3.0,3.2,-188,-281,0,-12,179,254,128.99170923233032,128.99178981781006,128.995055437088,129.00632047653198,129.15463399887085,129.15463399887085,129.15463399887085,129.15463399887085,129.15463399887085,129.15463399887085,129.15463399887085,132.1772141456604,1,3.154025077819824,None,,,,,,,,,,,,,,,,,,144,2,2025-02-27_11h30.29.250,comp,2024.2.4,48.150285964876026,2025-02-27 11h31.04.049692 -0500,
17,17,0,filler_random,None,None,None,None,None,None,None,None,None,None,3,2.323054075241089,None,,,,,0,0,0,0,0,17,17,143,132.19764828681946,,,,,,,,,,,,,,,,,,,,,,,,,,,,,,,,,,,,,,,,,,,,,,,,,,,,,,,,,,,,,,,,,,,,,,,,,,,,,,,,,,98.93242195338543,188.5515303321551,77.36416024503554,72.58825418177817,147.43459946444943,192.03631436459415,2.2,2.21,-227,-267,0,274,228,273,132.1790852546692,132.17920088768005,132.18240332603455,132.19764828681946,132.34554767608643,132.34554767608643,132.34554767608643,132.34554767608643,132.34554767608643,132.34554767608643,132.34554767608643,134.52828407287598,3,2.323054075241089,None,,,,,,,,,,,,,,,,,,144,2,2025-02-27_11h30.29.250,comp,2024.2.4,48.150285964876026,2025-02-27 11h31.04.049692 -0500,
18,18,0,critical,dwh,20.0,3.0,upper,141.0,141.0,125.0,200.0,200.0,125.0,2,3.567988395690918,None,,,,,0,0,0,0,0,18,18,69,134.5440812110901,,,,,,,,,,,,,,,,,,,,,,,,,,,,,,,,,,,,,,,,,,,,,,,,,,,,,,,,,,,,,,,,,,,,,,,,,,,,,,,,,,141.0,141.0,125.0,200.0,200.0,125.0,3.0,3.2,-266,-264,0,10,258,279,134.53032517433167,134.5304045677185,134.53344774246216,134.5440812110901,134.69671487808228,134.69671487808228,134.69671487808228,134.69671487808228,134.69671487808228,134.69671487808228,134.69671487808228,138.12445044517517,2,3.567988395690918,None,,,,,,,,,,,,,,,,,,144,2,2025-02-27_11h30.29.250,comp,2024.2.4,48.150285964876026,2025-02-27 11h31.04.049692 -0500,
19,19,0,filler_square,None,None,None,None,None,None,None,None,None,None,1,2.0275542736053467,None,,,,,0,0,0,0,0,19,19,180,138.14117121696472,,,,,,,,,,,,,,,,,,,,,,,,,,,,,,,,,,,,,,,,,,,,,,,,,,,,,,,,,,,,,,,,,,,,,,,,,,,,,,,,,,131.0397151469967,131.0397151469967,125.22574459376642,99.83593315353545,127.15681092107343,61.84930513096597,4.0,4.1,-211,-276,0,-10,177,-280,138.12629771232605,138.12639236450195,138.12981605529785,138.14117121696472,138.28789043426514,138.28789043426514,138.28789043426514,138.28789043426514,138.28789043426514,138.28789043426514,138.28789043426514,140.17434072494507,1,2.0275542736053467,None,,,,,,,,,,,,,,,,,,144,2,2025-02-27_11h30.29.250,comp,2024.2.4,48.150285964876026,2025-02-27 11h31.04.049692 -0500,
20,20,0,critical,hwd,20.0,1.0,lower,133.0,57.0,57.0,133.0,78.0,78.0,1,7.137551784515381,None,,,,,0,0,0,0,0,20,20,102,140.1905221939087,,,,,,,,,,,,,,,,,,,,,,,,,,,,,,,,,,,,,,,,,,,,,,,,,,,,,,,,,,,,,,,,,,,,,,,,,,,,,,,,,,133.0,57.0,57.0,133.0,78.0,78.0,1.0,1.1,-671,273,-480,284,-278,252,140.17583560943604,140.17593669891357,140.17888402938843,140.1905221939087,140.32666683197021,140.32666683197021,140.32666683197021,140.32666683197021,140.32666683197021,140.32666683197021,140.32666683197021,147.34384942054749,1,7.137551784515381,None,,,,,,,,,,,,,,,,,,144,2,2025-02-27_11h30.29.250,comp,2024.2.4,48.150285964876026,2025-02-27 11h31.04.049692 -0500,
21,21,0,filler_random,None,None,None,None,None,None,None,None,None,None,1,1.8401288986206055,None,,,,,0,0,0,0,0,21,21,147,147.35995626449585,,,,,,,,,,,,,,,,,,,,,,,,,,,,,,,,,,,,,,,,,,,,,,,,,,,,,,,,,,,,,,,,,,,,,,,,,,,,,,,,,,132.24886117446422,177.14328132787227,91.47004387561941,70.42376644275322,72.78523319229382,127.67215320609496,2.2,2.22,-220,261,0,-281,195,-281,147.3455593585968,147.34563660621643,147.34884405136108,147.35995626449585,147.51156187057495,147.51156187057495,147.51156187057495,147.51156187057495,147.51156187057495,147.51156187057495,147.51156187057495,149.21398425102234,1,1.8401288986206055,None,,,,,,,,,,,,,,,,,,144,2,2025-02-27_11h30.29.250,comp,2024.2.4,48.150285964876026,2025-02-27 11h31.04.049692 -0500,
22,22,0,filler_square,None,None,None,None,None,None,None,None,None,None,2,1.5786995887756348,None,,,,,0,0,0,0,0,22,22,177,149.22946739196777,,,,,,,,,,,,,,,,,,,,,,,,,,,,,,,,,,,,,,,,,,,,,,,,,,,,,,,,,,,,,,,,,,,,,,,,,,,,,,,,,,139.27336762981798,181.75459995828058,189.70142096905113,189.70142096905113,83.56348787004721,188.26405811436825,1.0,1.1,-762,287,-480,289,-195,281,149.2158501148224,149.21598052978516,149.2191982269287,149.22946739196777,149.3816101551056,149.3816101551056,149.3816101551056,149.3816101551056,149.3816101551056,149.3816101551056,149.3816101551056,150.82105231285095,2,1.5786995887756348,None,,,,,,,,,,,,,,,,,,144,2,2025-02-27_11h30.29.250,comp,2024.2.4,48.150285964876026,2025-02-27 11h31.04.049692 -0500,
23,23,0,critical,whd,35.0,2.1,upper,125.0,200.0,200.0,125.0,127.0,127.0,1,3.0208706855773926,None,,,,,0,0,0,0,0,23,23,13,150.83591318130493,,,,,,,,,,,,,,,,,,,,,,,,,,,,,,,,,,,,,,,,,,,,,,,,,,,,,,,,,,,,,,,,,,,,,,,,,,,,,,,,,,125.0,200.0,200.0,125.0,127.0,127.0,2.1,2.11,-258,262,0,270,222,-284,150.82253575325012,150.82261204719543,150.82559466362,150.83591318130493,150.97715139389038,150.97715139389038,150.97715139389038,150.97715139389038,150.97715139389038,150.97715139389038,150.97715139389038,153.86459374427795,1,3.0208706855773926,None,,,,,,,,,,,,,,,,,,144,2,2025-02-27_11h30.29.250,comp,2024.2.4,48.150285964876026,2025-02-27 11h31.04.049692 -0500,
24,24,0,filler_square,None,None,None,None,None,None,None,None,None,None,2,3.655510663986206,None,,,,,0,0,0,0,0,24,24,173,153.88101267814636,,,,,,,,,,,,,,,,,,,,,,,,,,,,,,,,,,,,,,,,,,,,,,,,,,,,,,,,,,,,,,,,,,,,,,,,,,,,,,,,,,62.194287616930254,63.55346520682528,66.0972982360125,66.0972982360125,63.90323482343488,61.20686124008159,2.1,2.11,-161,252,0,257,160,-278,153.8666307926178,153.86671352386475,153.87012648582458,153.88101267814636,154.03209972381592,154.03209972381592,154.03209972381592,154.03209972381592,154.03209972381592,154.03209972381592,154.03209972381592,157.54853296279907,2,3.655510663986206,None,,,,,,,,,,,,,,,,,,144,2,2025-02-27_11h30.29.250,comp,2024.2.4,48.150285964876026,2025-02-27 11h31.04.049692 -0500,
25,25,0,critical,dhw,35.0,3.0,upper,127.0,127.0,200.0,125.0,125.0,200.0,3,5.0523505210876465,None,,,,,0,0,0,0,0,25,25,51,157.56395721435547,,,,,,,,,,,,,,,,,,,,,,,,,,,,,,,,,,,,,,,,,,,,,,,,,,,,,,,,,,,,,,,,,,,,,,,,,,,,,,,,,,127.0,127.0,200.0,125.0,125.0,200.0,3.0,3.1,-222,265,0,12,258,-284,157.5501091480255,157.5501868724823,157.55370378494263,157.56395721435547,157.71858644485474,157.71858644485474,157.71858644485474,157.71858644485474,157.71858644485474,157.71858644485474,157.71858644485474,162.63425397872925,3,5.0523505210876465,None,,,,,,,,,,,,,,,,,,144,2,2025-02-27_11h30.29.250,comp,2024.2.4,48.150285964876026,2025-02-27 11h31.04.049692 -0500,
26,26,0,critical,dwh,20.0,2.1,lower,78.0,78.0,57.0,133.0,133.0,57.0,3,6.244557619094849,None,,,,,0,0,0,0,0,26,26,30,162.65240120887756,,,,,,,,,,,,,,,,,,,,,,,,,,,,,,,,,,,,,,,,,,,,,,,,,,,,,,,,,,,,,,,,,,,,,,,,,,,,,,,,,,78.0,78.0,57.0,133.0,133.0,57.0,2.1,2.12,-202,-276,0,-266,191,261,162.63578367233276,162.63587975502014,162.6397089958191,162.65240120887756,162.79991269111633,162.79991269111633,162.79991269111633,162.79991269111633,162.79991269111633,162.79991269111633,162.79991269111633,168.90407919883728,3,6.244557619094849,None,,,,,,,,,,,,,,,,,,144,2,2025-02-27_11h30.29.250,comp,2024.2.4,48.150285964876026,2025-02-27 11h31.04.049692 -0500,
27,27,0,critical,hwd,35.0,3.0,upper,200.0,125.0,125.0,200.0,127.0,127.0,1,2.2479379177093506,None,,,,,0,0,0,0,0,27,27,99,168.92022466659546,,,,,,,,,,,,,,,,,,,,,,,,,,,,,,,,,,,,,,,,,,,,,,,,,,,,,,,,,,,,,,,,,,,,,,,,,,,,,,,,,,200.0,125.0,125.0,200.0,127.0,127.0,3.0,3.2,-258,-266,0,5,260,282,168.90577125549316,168.90593147277832,168.90940403938293,168.92022466659546,169.06958484649658,169.06958484649658,169.06958484649658,169.06958484649658,169.06958484649658,169.06958484649658,169.06958484649658,171.18526649475098,1,2.2479379177093506,None,,,,,,,,,,,,,,,,,,144,2,2025-02-27_11h30.29.250,comp,2024.2.4,48.150285964876026,2025-02-27 11h31.04.049692 -0500,
28,28,0,filler_random,None,None,None,None,None,None,None,None,None,None,3,1.1595163345336914,None,,,,,0,0,0,0,0,28,28,155,171.2012379169464,,,,,,,,,,,,,,,,,,,,,,,,,,,,,,,,,,,,,,,,,,,,,,,,,,,,,,,,,,,,,,,,,,,,,,,,,,,,,,,,,,66.71609819895642,81.00218833673469,84.02537970978773,124.2536474179553,173.42452956965283,156.3047944103531,2.1,2.12,-199,-289,0,-257,236,253,171.18689918518066,171.18697786331177,171.18998384475708,171.2012379169464,171.35248231887817,171.35248231887817,171.35248231887817,171.35248231887817,171.35248231887817,171.35248231887817,171.35248231887817,172.36851859092712,3,1.1595163345336914,None,,,,,,,,,,,,,,,,,,144,2,2025-02-27_11h30.29.250,comp,2024.2.4,48.150285964876026,2025-02-27 11h31.04.049692 -0500,
29,29,0,filler_random,None,None,None,None,None,None,None,None,None,None,1,3.9507784843444824,None,,,,,0,0,0,0,0,29,29,132,172.3854296207428,,,,,,,,,,,,,,,,,,,,,,,,,,,,,,,,,,,,,,,,,,,,,,,,,,,,,,,,,,,,,,,,,,,,,,,,,,,,,,,,,,93.34174832632911,176.38174623455063,105.68560586659707,130.93446080595942,92.54323837117477,173.67189690379615,3.0,3.1,-250,259,0,15,248,-270,172.37033677101135,172.37041544914246,172.37371563911438,172.3854296207428,172.53648209571838,172.53648209571838,172.53648209571838,172.53648209571838,172.53648209571838,172.53648209571838,172.53648209571838,176.3525516986847,1,3.9507784843444824,None,,,,,,,,,,,,,,,,,,144,2,2025-02-27_11h30.29.250,comp,2024.2.4,48.150285964876026,2025-02-27 11h31.04.049692 -0500,
30,30,0,critical,wdh,35.0,2.1,upper,125.0,200.0,127.0,127.0,200.0,125.0,1,2.632387638092041,None,,,,,0,0,0,0,0,30,30,33,176.36811184883118,,,,,,,,,,,,,,,,,,,,,,,,,,,,,,,,,,,,,,,,,,,,,,,,,,,,,,,,,,,,,,,,,,,,,,,,,,,,,,,,,,125.0,200.0,127.0,127.0,200.0,125.0,2.1,2.11,-260,265,0,256,222,-275,176.35415768623352,176.35423254966736,176.35769939422607,176.36811184883118,176.51142382621765,176.51142382621765,176.51142382621765,176.51142382621765,176.51142382621765,176.51142382621765,176.51142382621765,179.003826379776,1,2.632387638092041,None,,,,,,,,,,,,,,,,,,144,2,2025-02-27_11h30.29.250,comp,2024.2.4,48.150285964876026,2025-02-27 11h31.04.049692 -0500,
31,31,0,critical,dhw,35.0,4.0,lower,70.0,70.0,133.0,57.0,57.0,133.0,3,4.879966974258423,None,,,,,0,0,0,0,0,31,31,52,179.02418422698975,,,,,,,,,,,,,,,,,,,,,,,,,,,,,,,,,,,,,,,,,,,,,,,,,,,,,,,,,,,,,,,,,,,,,,,,,,,,,,,,,,70.0,70.0,133.0,57.0,57.0,133.0,4.0,4.1,-160,-269,0,7,191,-263,179.0054156780243,179.00549173355103,179.00896906852722,179.02418422698975,179.17256546020508,179.17256546020508,179.17256546020508,179.17256546020508,179.17256546020508,179.17256546020508,179.17256546020508,183.90677046775818,3,4.879966974258423,None,,,,,,,,,,,,,,,,,,144,2,2025-02-27_11h30.29.250,comp,2024.2.4,48.150285964876026,2025-02-27 11h31.04.049692 -0500,
32,32,0,filler_random,None,None,None,None,None,None,None,None,None,None,1,1.8850045204162598,None,,,,,0,0,0,0,0,32,32,133,183.9231448173523,,,,,,,,,,,,,,,,,,,,,,,,,,,,,,,,,,,,,,,,,,,,,,,,,,,,,,,,,,,,,,,,,,,,,,,,,,,,,,,,,,122.84868859022923,132.099235041606,85.83922335591757,72.9166179953372,124.7945463397399,100.06984440178009,2.1,2.12,-199,-277,0,-263,182,252,183.90852069854736,183.9086000919342,183.912104845047,183.9231448173523,184.07238698005676,184.07238698005676,184.07238698005676,184.07238698005676,184.07238698005676,184.07238698005676,184.07238698005676,185.8245460987091,1,1.8850045204162598,None,,,,,,,,,,,,,,,,,,144,2,2025-02-27_11h30.29.250,comp,2024.2.4,48.150285964876026,2025-02-27 11h31.04.049692 -0500,
33,33,0,critical,whd,20.0,2.1,lower,57.0,133.0,133.0,57.0,78.0,78.0,2,3.7435858249664307,None,,,,,0,0,0,0,0,33,33,38,185.84050583839417,,,,,,,,,,,,,,,,,,,,,,,,,,,,,,,,,,,,,,,,,,,,,,,,,,,,,,,,,,,,,,,,,,,,,,,,,,,,,,,,,,57.0,133.0,133.0,57.0,78.0,78.0,2.1,2.12,-191,-260,0,-262,164,261,185.82611513137817,185.8261890411377,185.83023881912231,185.84050583839417,185.99277305603027,185.99277305603027,185.99277305603027,185.99277305603027,185.99277305603027,185.99277305603027,185.99277305603027,189.60185289382935,2,3.7435858249664307,None,,,,,,,,,,,,,,,,,,144,2,2025-02-27_11h30.29.250,comp,2024.2.4,48.150285964876026,2025-02-27 11h31.04.049692 -0500,
34,34,0,filler_square,None,None,None,None,None,None,None,None,None,None,1,1.6301953792572021,None,,,,,0,0,0,0,0,34,34,184,189.61854553222656,,,,,,,,,,,,,,,,,,,,,,,,,,,,,,,,,,,,,,,,,,,,,,,,,,,,,,,,,,,,,,,,,,,,,,,,,,,,,,,,,,134.37202643451917,134.37202643451917,97.92097491695687,128.31962829980668,89.82731479169274,118.74507721062963,2.2,2.21,-227,-290,0,257,220,290,189.60374760627747,189.60390090942383,189.60723614692688,189.61854553222656,189.7536063194275,189.7536063194275,189.7536063194275,189.7536063194275,189.7536063194275,189.7536063194275,189.7536063194275,191.25906133651733,1,1.6301953792572021,None,,,,,,,,,,,,,,,,,,144,2,2025-02-27_11h30.29.250,comp,2024.2.4,48.150285964876026,2025-02-27 11h31.04.049692 -0500,
35,35,0,critical,hdw,20.0,4.0,lower,133.0,57.0,78.0,78.0,57.0,133.0,1,9.972878694534302,None,,,,,0,0,0,0,0,35,35,118,191.27534294128418,,,,,,,,,,,,,,,,,,,,,,,,,,,,,,,,,,,,,,,,,,,,,,,,,,,,,,,,,,,,,,,,,,,,,,,,,,,,,,,,,,133.0,57.0,78.0,78.0,57.0,133.0,4.0,4.2,-164,20,0,-269,202,-9,191.2607283592224,191.26088976860046,191.2643804550171,191.27534294128418,191.41540265083313,191.41540265083313,191.41540265083313,191.41540265083313,191.41540265083313,191.41540265083313,191.41540265083313,201.26632237434387,1,9.972878694534302,None,,,,,,,,,,,,,,,,,,144,2,2025-02-27_11h30.29.250,comp,2024.2.4,48.150285964876026,2025-02-27 11h31.04.049692 -0500,
36,36,0,filler_random,None,None,None,None,None,None,None,None,None,None,3,1.484147071838379,None,,,,,0,0,0,0,0,36,36,168,201.283997297287,,,,,,,,,,,,,,,,,,,,,,,,,,,,,,,,,,,,,,,,,,,,,,,,,,,,,,,,,,,,,,,,,,,,,,,,,,,,,,,,,,85.77130960199295,146.8399704599245,145.31660455507142,103.11397674848823,107.9400907819555,163.06784662619367,2.1,2.12,-221,-256,0,-264,229,273,201.2681107521057,201.26818799972534,201.2713303565979,201.283997297287,201.4291126728058,201.4291126728058,201.4291126728058,201.4291126728058,201.4291126728058,201.4291126728058,201.4291126728058,202.77761960029602,3,1.484147071838379,None,,,,,,,,,,,,,,,,,,144,2,2025-02-27_11h30.29.250,comp,2024.2.4,48.150285964876026,2025-02-27 11h31.04.049692 -0500,
37,37,0,critical,dhw,20.0,1.0,upper,141.0,141.0,200.0,125.0,125.0,200.0,2,4.206573247909546,None,,,,,0,0,0,0,0,37,37,55,202.7936291694641,,,,,,,,,,,,,,,,,,,,,,,,,,,,,,,,,,,,,,,,,,,,,,,,,,,,,,,,,,,,,,,,,,,,,,,,,,,,,,,,,,141.0,141.0,200.0,125.0,125.0,200.0,1.0,1.1,-709,272,-480,273,-222,265,202.77928519248962,202.77936005592346,202.78268837928772,202.7936291694641,202.93408513069153,202.93408513069153,202.93408513069153,202.93408513069153,202.93408513069153,202.93408513069153,202.93408513069153,207.01476645469666,2,4.206573247909546,None,,,,,,,,,,,,,,,,,,144,2,2025-02-27_11h30.29.250,comp,2024.2.4,48.150285964876026,2025-02-27 11h31.04.049692 -0500,
38,38,0,critical,hwd,20.0,2.1,upper,200.0,125.0,125.0,200.0,141.0,141.0,1,2.1787734031677246,None,,,,,0,0,0,0,0,38,38,19,207.0299289226532,,,,,,,,,,,,,,,,,,,,,,,,,,,,,,,,,,,,,,,,,,,,,,,,,,,,,,,,,,,,,,,,,,,,,,,,,,,,,,,,,,200.0,125.0,125.0,200.0,141.0,141.0,2.1,2.12,-258,-265,0,-267,266,253,207.01631569862366,207.01639127731323,207.01958537101746,207.0299289226532,207.18114566802979,207.18114566802979,207.18114566802979,207.18114566802979,207.18114566802979,207.18114566802979,207.18114566802979,209.21498847007751,1,2.1787734031677246,None,,,,,,,,,,,,,,,,,,144,2,2025-02-27_11h30.29.250,comp,2024.2.4,48.150285964876026,2025-02-27 11h31.04.049692 -0500,
39,39,0,filler_random,None,None,None,None,None,None,None,None,None,None,1,2.634918212890625,None,,,,,0,0,0,0,0,39,39,165,209.2399549484253,,,,,,,,,,,,,,,,,,,,,,,,,,,,,,,,,,,,,,,,,,,,,,,,,,,,,,,,,,,,,,,,,,,,,,,,,,,,,,,,,,197.29858243477344,179.1390887932672,173.02045607772914,176.8048980964796,92.04229632229524,96.88784222853522,2.2,2.22,-274,260,0,-287,233,-254,209.2166805267334,209.21675729751587,209.2200620174408,209.2399549484253,209.3817446231842,209.3817446231842,209.3817446231842,209.3817446231842,209.3817446231842,209.3817446231842,209.3817446231842,211.8812394142151,1,2.634918212890625,None,,,,,,,,,,,,,,,,,,144,2,2025-02-27_11h30.29.250,comp,2024.2.4,48.150285964876026,2025-02-27 11h31.04.049692 -0500,
40,40,0,filler_square,None,None,None,None,None,None,None,None,None,None,3,2.0240368843078613,None,,,,,0,0,0,0,0,40,40,179,211.8985345363617,,,,,,,,,,,,,,,,,,,,,,,,,,,,,,,,,,,,,,,,,,,,,,,,,,,,,,,,,,,,,,,,,,,,,,,,,,,,,,,,,,84.79859895548259,93.41439917604676,64.28245185693652,76.57358961802301,94.51107117975411,94.51107117975411,1.0,1.1,-661,286,-480,271,-298,261,211.88285160064697,211.88294911384583,211.88590574264526,211.8985345363617,212.05533576011658,212.05533576011658,212.05533576011658,212.05533576011658,212.05533576011658,212.05533576011658,212.05533576011658,213.9330713748932,3,2.0240368843078613,None,,,,,,,,,,,,,,,,,,144,2,2025-02-27_11h30.29.250,comp,2024.2.4,48.150285964876026,2025-02-27 11h31.04.049692 -0500,
41,41,0,critical,wdh,35.0,2.1,upper,125.0,200.0,127.0,127.0,200.0,125.0,1,2.564059019088745,None,,,,,0,0,0,0,0,41,41,9,213.9487566947937,,,,,,,,,,,,,,,,,,,,,,,,,,,,,,,,,,,,,,,,,,,,,,,,,,,,,,,,,,,,,,,,,,,,,,,,,,,,,,,,,,125.0,200.0,127.0,127.0,200.0,125.0,2.1,2.12,-260,-258,0,-261,222,264,213.93455266952515,213.93463015556335,213.93819308280945,213.9487566947937,214.09098267555237,214.09098267555237,214.09098267555237,214.09098267555237,214.09098267555237,214.09098267555237,214.09098267555237,216.52069783210754,1,2.564059019088745,None,,,,,,,,,,,,,,,,,,144,2,2025-02-27_11h30.29.250,comp,2024.2.4,48.150285964876026,2025-02-27 11h31.04.049692 -0500,
42,42,0,critical,dwh,20.0,2.1,lower,78.0,78.0,57.0,133.0,133.0,57.0,2,4.774530649185181,None,,,,,0,0,0,0,0,42,42,6,216.53847455978394,,,,,,,,,,,,,,,,,,,,,,,,,,,,,,,,,,,,,,,,,,,,,,,,,,,,,,,,,,,,,,,,,,,,,,,,,,,,,,,,,,78.0,78.0,57.0,133.0,133.0,57.0,2.1,2.11,-202,289,0,269,191,-277,216.5222520828247,216.52238249778748,216.52543187141418,216.53847455978394,216.6740918159485,216.6740918159485,216.6740918159485,216.6740918159485,216.6740918159485,216.6740918159485,216.6740918159485,221.31860280036926,2,4.774530649185181,None,,,,,,,,,,,,,,,,,,144,2,2025-02-27_11h30.29.250,comp,2024.2.4,48.150285964876026,2025-02-27 11h31.04.049692 -0500,
43,43,0,critical,hwd,35.0,3.0,lower,133.0,57.0,57.0,133.0,70.0,70.0,1,7.432522296905518,None,,,,,0,0,0,0,0,43,43,98,221.33528995513916,,,,,,,,,,,,,,,,,,,,,,,,,,,,,,,,,,,,,,,,,,,,,,,,,,,,,,,,,,,,,,,,,,,,,,,,,,,,,,,,,,133.0,57.0,57.0,133.0,70.0,70.0,3.0,3.1,-191,268,0,10,198,-262,221.32020831108093,221.32029056549072,221.32451391220093,221.33528995513916,221.4829285144806,221.4829285144806,221.4829285144806,221.4829285144806,221.4829285144806,221.4829285144806,221.4829285144806,228.7694549560547,1,7.432522296905518,None,,,,,,,,,,,,,,,,,,144,2,2025-02-27_11h30.29.250,comp,2024.2.4,48.150285964876026,2025-02-27 11h31.04.049692 -0500,
44,44,0,filler_random,None,None,None,None,None,None,None,None,None,None,3,4.270815372467041,None,,,,,0,0,0,0,0,44,44,144,228.785498380661,,,,,,,,,,,,,,,,,,,,,,,,,,,,,,,,,,,,,,,,,,,,,,,,,,,,,,,,,,,,,,,,,,,,,,,,,,,,,,,,,,154.84420968431942,103.87601976575897,190.52038824247882,159.95316527605337,147.1376863616631,190.64219549172435,4.0,4.1,-228,-274,0,4,271,-268,228.77014017105103,228.77017164230347,228.77136158943176,228.785498380661,228.92093753814697,228.92093753814697,228.92093753814697,228.92093753814697,228.92093753814697,228.92093753814697,228.92093753814697,233.07296991348267,3,4.270815372467041,None,,,,,,,,,,,,,,,,,,144,2,2025-02-27_11h30.29.250,comp,2024.2.4,48.150285964876026,2025-02-27 11h31.04.049692 -0500,
45,45,0,filler_random,None,None,None,None,None,None,None,None,None,None,3,1.9843876361846924,None,,,,,0,0,0,0,0,45,45,156,233.08830428123474,,,,,,,,,,,,,,,,,,,,,,,,,,,,,,,,,,,,,,,,,,,,,,,,,,,,,,,,,,,,,,,,,,,,,,,,,,,,,,,,,,175.68423080070266,71.13681777387804,180.6326003339882,75.02357091532865,109.49375093955531,180.4126746037147,2.2,2.22,-169,263,0,-290,224,-261,233.07463026046753,233.07470560073853,233.0780565738678,233.08830428123474,233.24168515205383,233.24168515205383,233.24168515205383,233.24168515205383,233.24168515205383,233.24168515205383,233.24168515205383,235.0815134048462,3,1.9843876361846924,None,,,,,,,,,,,,,,,,,,144,2,2025-02-27_11h30.29.250,comp,2024.2.4,48.150285964876026,2025-02-27 11h31.04.049692 -0500,
46,46,0,critical,wdh,20.0,4.0,upper,125.0,200.0,141.0,141.0,200.0,125.0,3,1.8268723487854004,None,,,,,0,0,0,0,0,46,46,83,235.1017758846283,,,,,,,,,,,,,,,,,,,,,,,,,,,,,,,,,,,,,,,,,,,,,,,,,,,,,,,,,,,,,,,,,,,,,,,,,,,,,,,,,,125.0,200.0,141.0,141.0,200.0,125.0,4.0,4.2,-266,3,0,-288,229,11,235.08305716514587,235.08313822746277,235.08613324165344,235.1017758846283,235.2398386001587,235.2398386001587,235.2398386001587,235.2398386001587,235.2398386001587,235.2398386001587,235.2398386001587,236.94477248191833,3,1.8268723487854004,None,,,,,,,,,,,,,,,,,,144,2,2025-02-27_11h30.29.250,comp,2024.2.4,48.150285964876026,2025-02-27 11h31.04.049692 -0500,
47,47,0,critical,dwh,20.0,1.0,lower,78.0,78.0,57.0,133.0,133.0,57.0,3,3.192253351211548,None,,,,,0,0,0,0,0,47,47,66,236.9603660106659,,,,,,,,,,,,,,,,,,,,,,,,,,,,,,,,,,,,,,,,,,,,,,,,,,,,,,,,,,,,,,,,,,,,,,,,,,,,,,,,,,78.0,78.0,57.0,133.0,133.0,57.0,1.0,1.2,-202,-9,0,18,191,15,236.9462435245514,236.9463174343109,236.94928693771362,236.9603660106659,237.10627794265747,237.10627794265747,237.10627794265747,237.10627794265747,237.10627794265747,237.10627794265747,237.10627794265747,240.1574511528015,3,3.192253351211548,None,,,,,,,,,,,,,,,,,,144,2,2025-02-27_11h30.29.250,comp,2024.2.4,48.150285964876026,2025-02-27 11h31.04.049692 -0500,
48,48,0,filler_random,None,None,None,None,None,None,None,None,None,None,2,2.0446667671203613,None,,,,,0,0,0,0,0,48,48,130,240.1737036705017,,,,,,,,,,,,,,,,,,,,,,,,,,,,,,,,,,,,,,,,,,,,,,,,,,,,,,,,,,,,,,,,,,,,,,,,,,,,,,,,,,144.67321011243226,111.08132168915338,199.1427590320572,129.28208120823763,178.33440605763627,92.669458497194,3.0,3.2,-216,-288,0,-4,207,289,240.1593976020813,240.15947771072388,240.16298031806946,240.1737036705017,240.32301330566406,240.32301330566406,240.32301330566406,240.32301330566406,240.32301330566406,240.32301330566406,240.32301330566406,242.22695922851562,2,2.0446667671203613,None,,,,,,,,,,,,,,,,,,144,2,2025-02-27_11h30.29.250,comp,2024.2.4,48.150285964876026,2025-02-27 11h31.04.049692 -0500,
49,49,0,filler_random,None,None,None,None,None,None,None,None,None,None,1,1.6177899837493896,None,,,,,0,0,0,0,0,49,49,157,242.24642896652222,,,,,,,,,,,,,,,,,,,,,,,,,,,,,,,,,,,,,,,,,,,,,,,,,,,,,,,,,,,,,,,,,,,,,,,,,,,,,,,,,,172.33326492581568,195.82408716278377,114.48408874089563,122.46204777765739,94.4435769590549,115.73526671827092,4.0,4.2,-255,15,0,-263,215,9,242.2290027141571,242.2290849685669,242.232684135437,242.24642896652222,242.3967263698578,242.3967263698578,242.3967263698578,242.3967263698578,242.3967263698578,242.3967263698578,242.3967263698578,243.87920904159546,1,1.6177899837493896,None,,,,,,,,,,,,,,,,,,144,2,2025-02-27_11h30.29.250,comp,2024.2.4,48.150285964876026,2025-02-27 11h31.04.049692 -0500,
50,50,0,critical,hwd,20.0,3.0,upper,200.0,125.0,125.0,200.0,141.0,141.0,2,2.7771971225738525,None,,,,,0,0,0,0,0,50,50,105,243.89552402496338,,,,,,,,,,,,,,,,,,,,,,,,,,,,,,,,,,,,,,,,,,,,,,,,,,,,,,,,,,,,,,,,,,,,,,,,,,,,,,,,,,200.0,125.0,125.0,200.0,141.0,141.0,3.0,3.1,-258,260,0,15,266,-261,243.8807361125946,243.8808093070984,243.88442873954773,243.89552402496338,244.04298162460327,244.04298162460327,244.04298162460327,244.04298162460327,244.04298162460327,244.04298162460327,244.04298162460327,246.67843055725098,2,2.7771971225738525,None,,,,,,,,,,,,,,,,,,144,2,2025-02-27_11h30.29.250,comp,2024.2.4,48.150285964876026,2025-02-27 11h31.04.049692 -0500,
51,51,0,filler_square,None,None,None,None,None,None,None,None,None,None,3,2.0891549587249756,None,,,,,0,0,0,0,0,51,51,176,246.69497394561768,,,,,,,,,,,,,,,,,,,,,,,,,,,,,,,,,,,,,,,,,,,,,,,,,,,,,,,,,,,,,,,,,,,,,,,,,,,,,,,,,,91.85631189999805,101.87047994388652,91.55970505004362,107.50002988713257,115.04684712432959,115.04684712432959,2.1,2.11,-201,269,0,261,207,-252,246.68059277534485,246.68067455291748,246.68406701087952,246.69497394561768,246.8432719707489,246.8432719707489,246.8432719707489,246.8432719707489,246.8432719707489,246.8432719707489,246.8432719707489,248.7960569858551,3,2.0891549587249756,None,,,,,,,,,,,,,,,,,,144,2,2025-02-27_11h30.29.250,comp,2024.2.4,48.150285964876026,2025-02-27 11h31.04.049692 -0500,
52,52,0,filler_random,None,None,None,None,None,None,None,None,None,None,3,0.9911191463470459,None,,,,,0,0,0,0,0,52,52,169,248.8170680999756,,,,,,,,,,,,,,,,,,,,,,,,,,,,,,,,,,,,,,,,,,,,,,,,,,,,,,,,,,,,,,,,,,,,,,,,,,,,,,,,,,153.52593265552906,68.30733883061782,155.1295567671936,59.349739682416654,178.30555711674006,109.15081047710903,1.0,1.1,-640,258,-480,275,-300,272,248.7979052066803,248.79802203178406,248.8014621734619,248.8170680999756,248.96501278877258,248.96501278877258,248.96501278877258,248.96501278877258,248.96501278877258,248.96501278877258,248.96501278877258,249.810444355011,3,0.9911191463470459,None,,,,,,,,,,,,,,,,,,144,2,2025-02-27_11h30.29.250,comp,2024.2.4,48.150285964876026,2025-02-27 11h31.04.049692 -0500,
53,53,0,filler_random,None,None,None,None,None,None,None,None,None,None,2,1.1823139190673828,None,,,,,0,0,0,0,0,53,53,131,249.82641172409058,,,,,,,,,,,,,,,,,,,,,,,,,,,,,,,,,,,,,,,,,,,,,,,,,,,,,,,,,,,,,,,,,,,,,,,,,,,,,,,,,,198.03956416769174,63.043669871296984,196.34186561237556,112.06177237747156,62.47528909811787,123.19286672226316,3.0,3.2,-184,-272,0,18,214,271,249.81214833259583,249.81222414970398,249.81560921669006,249.82641172409058,249.97883796691895,249.97883796691895,249.97883796691895,249.97883796691895,249.97883796691895,249.97883796691895,249.97883796691895,251.01113152503967,2,1.1823139190673828,None,,,,,,,,,,,,,,,,,,144,2,2025-02-27_11h30.29.250,comp,2024.2.4,48.150285964876026,2025-02-27 11h31.04.049692 -0500,
54,54,0,critical,hwd,20.0,4.0,lower,133.0,57.0,57.0,133.0,78.0,78.0,3,4.333199501037598,None,,,,,0,0,0,0,0,54,54,106,251.02712440490723,,,,,,,,,,,,,,,,,,,,,,,,,,,,,,,,,,,,,,,,,,,,,,,,,,,,,,,,,,,,,,,,,,,,,,,,,,,,,,,,,,133.0,57.0,57.0,133.0,78.0,78.0,4.0,4.1,-191,-279,0,-12,202,-286,251.01279425621033,251.01295566558838,251.01645350456238,251.02712440490723,251.18367314338684,251.18367314338684,251.18367314338684,251.18367314338684,251.18367314338684,251.18367314338684,251.18367314338684,255.36484694480896,3,4.333199501037598,None,,,,,,,,,,,,,,,,,,144,2,2025-02-27_11h30.29.250,comp,2024.2.4,48.150285964876026,2025-02-27 11h31.04.049692 -0500,
55,55,0,filler_square,None,None,None,None,None,None,None,None,None,None,1,1.680318832397461,None,,,,,0,0,0,0,0,55,55,204,255.38397550582886,,,,,,,,,,,,,,,,,,,,,,,,,,,,,,,,,,,,,,,,,,,,,,,,,,,,,,,,,,,,,,,,,,,,,,,,,,,,,,,,,,193.3635605905862,193.3635605905862,138.62892840130687,161.53134504380674,93.8076282773973,66.38079101233296,1.0,1.2,-273,14,0,17,210,12,255.36714267730713,255.36722564697266,255.37074041366577,255.38397550582886,255.52842903137207,255.52842903137207,255.52842903137207,255.52842903137207,255.52842903137207,255.52842903137207,255.52842903137207,257.0809316635132,1,1.680318832397461,None,,,,,,,,,,,,,,,,,,144,2,2025-02-27_11h30.29.250,comp,2024.2.4,48.150285964876026,2025-02-27 11h31.04.049692 -0500,
56,56,0,critical,dwh,35.0,1.0,upper,127.0,127.0,125.0,200.0,200.0,125.0,3,1.6608295440673828,None,,,,,0,0,0,0,0,56,56,61,257.100310087204,,,,,,,,,,,,,,,,,,,,,,,,,,,,,,,,,,,,,,,,,,,,,,,,,,,,,,,,,,,,,,,,,,,,,,,,,,,,,,,,,,127.0,127.0,125.0,200.0,200.0,125.0,1.0,1.2,-260,19,0,13,258,17,257.08238983154297,257.0824656486511,257.0855574607849,257.100310087204,257.24653244018555,257.24653244018555,257.24653244018555,257.24653244018555,257.24653244018555,257.24653244018555,257.24653244018555,258.7667942047119,3,1.6608295440673828,None,,,,,,,,,,,,,,,,,,144,2,2025-02-27_11h30.29.250,comp,2024.2.4,48.150285964876026,2025-02-27 11h31.04.049692 -0500,
57,57,0,critical,whd,35.0,2.1,upper,125.0,200.0,200.0,125.0,127.0,127.0,1,4.969844341278076,None,,,,,0,0,0,0,0,57,57,37,258.7822983264923,,,,,,,,,,,,,,,,,,,,,,,,,,,,,,,,,,,,,,,,,,,,,,,,,,,,,,,,,,,,,,,,,,,,,,,,,,,,,,,,,,125.0,200.0,200.0,125.0,127.0,127.0,2.1,2.11,-258,263,0,288,222,-268,258.7684738636017,258.76855754852295,258.771603345871,258.7822983264923,258.9288537502289,258.9288537502289,258.9288537502289,258.9288537502289,258.9288537502289,258.9288537502289,258.9288537502289,263.76374673843384,1,4.969844341278076,None,,,,,,,,,,,,,,,,,,144,2,2025-02-27_11h30.29.250,comp,2024.2.4,48.150285964876026,2025-02-27 11h31.04.049692 -0500,
58,58,0,critical,wdh,20.0,2.1,lower,57.0,133.0,78.0,78.0,133.0,57.0,3,6.68421483039856,None,,,,,0,0,0,0,0,58,58,10,263.78045892715454,,,,,,,,,,,,,,,,,,,,,,,,,,,,,,,,,,,,,,,,,,,,,,,,,,,,,,,,,,,,,,,,,,,,,,,,,,,,,,,,,,57.0,133.0,78.0,78.0,133.0,57.0,2.1,2.12,-202,-255,0,-266,164,279,263.7653613090515,263.76543855667114,263.76878786087036,263.78045892715454,263.9309833049774,263.9309833049774,263.9309833049774,263.9309833049774,263.9309833049774,263.9309833049774,263.9309833049774,270.4714307785034,3,6.68421483039856,None,,,,,,,,,,,,,,,,,,144,2,2025-02-27_11h30.29.250,comp,2024.2.4,48.150285964876026,2025-02-27 11h31.04.049692 -0500,
59,59,0,filler_square,None,None,None,None,None,None,None,None,None,None,3,1.1791112422943115,None,,,,,0,0,0,0,0,59,59,206,270.49320006370544,,,,,,,,,,,,,,,,,,,,,,,,,,,,,,,,,,,,,,,,,,,,,,,,,,,,,,,,,,,,,,,,,,,,,,,,,,,,,,,,,,133.1072425546716,84.91451081689641,122.78961130010133,118.98040955314835,136.52488241772363,136.52488241772363,4.0,4.2,-198,3,0,-278,224,-4,270.47335147857666,270.4734332561493,270.4767565727234,270.49320006370544,270.63466572761536,270.63466572761536,270.63466572761536,270.63466572761536,270.63466572761536,270.63466572761536,270.63466572761536,271.68304109573364,3,1.1791112422943115,None,,,,,,,,,,,,,,,,,,144,2,2025-02-27_11h30.29.250,comp,2024.2.4,48.150285964876026,2025-02-27 11h31.04.049692 -0500,
60,60,0,filler_random,None,None,None,None,None,None,None,None,None,None,3,1.2627904415130615,None,,,,,0,0,0,0,0,60,60,137,271.69876432418823,,,,,,,,,,,,,,,,,,,,,,,,,,,,,,,,,,,,,,,,,,,,,,,,,,,,,,,,,,,,,,,,,,,,,,,,,,,,,,,,,,145.9729439246487,140.29808568965012,188.93539332692743,65.05778113820645,190.61040818755797,155.0811047294936,2.1,2.11,-199,259,0,287,206,-256,271.68469524383545,271.684773683548,271.6878821849823,271.69876432418823,271.85237216949463,271.85237216949463,271.85237216949463,271.85237216949463,271.85237216949463,271.85237216949463,271.85237216949463,272.9661214351654,3,1.2627904415130615,None,,,,,,,,,,,,,,,,,,144,2,2025-02-27_11h30.29.250,comp,2024.2.4,48.150285964876026,2025-02-27 11h31.04.049692 -0500,
61,61,0,filler_random,None,None,None,None,None,None,None,None,None,None,1,3.425985813140869,None,,,,,0,0,0,0,0,61,61,164,272.9824683666229,,,,,,,,,,,,,,,,,,,,,,,,,,,,,,,,,,,,,,,,,,,,,,,,,,,,,,,,,,,,,,,,,,,,,,,,,,,,,,,,,,97.65167718738424,98.16206824619982,62.38664995746602,175.8400779462633,99.14928697446993,89.11062993146908,1.0,1.2,-233,16,0,-13,228,-19,272.9678404331207,272.96798944473267,272.9714846611023,272.9824683666229,273.1329619884491,273.1329619884491,273.1329619884491,273.1329619884491,273.1329619884491,273.1329619884491,273.1329619884491,276.4178321361542,1,3.425985813140869,None,,,,,,,,,,,,,,,,,,144,2,2025-02-27_11h30.29.250,comp,2024.2.4,48.150285964876026,2025-02-27 11h31.04.049692 -0500,
62,62,0,critical,dhw,20.0,3.0,upper,141.0,141.0,200.0,125.0,125.0,200.0,3,1.218519687652588,None,,,,,0,0,0,0,0,62,62,57,276.43775749206543,,,,,,,,,,,,,,,,,,,,,,,,,,,,,,,,,,,,,,,,,,,,,,,,,,,,,,,,,,,,,,,,,,,,,,,,,,,,,,,,,,141.0,141.0,200.0,125.0,125.0,200.0,3.0,3.1,-229,259,0,-16,258,-254,276.41942977905273,276.4195067882538,276.422691822052,276.43775749206543,276.5866508483887,276.5866508483887,276.5866508483887,276.5866508483887,276.5866508483887,276.5866508483887,276.5866508483887,277.66957569122314,3,1.218519687652588,None,,,,,,,,,,,,,,,,,,144,2,2025-02-27_11h30.29.250,comp,2024.2.4,48.150285964876026,2025-02-27 11h31.04.049692 -0500,
63,63,0,filler_random,None,None,None,None,None,None,None,None,None,None,2,1.4114878177642822,None,,,,,0,0,0,0,0,63,63,149,277.6855504512787,,,,,,,,,,,,,,,,,,,,,,,,,,,,,,,,,,,,,,,,,,,,,,,,,,,,,,,,,,,,,,,,,,,,,,,,,,,,,,,,,,153.6023780377048,95.54880622002148,174.5537301364013,157.1271112614658,125.7102617791615,78.48082231579788,2.2,2.21,-222,-255,0,285,214,273,277.6714174747467,277.67152428627014,277.6752166748047,277.6855504512787,277.83609199523926,277.83609199523926,277.83609199523926,277.83609199523926,277.83609199523926,277.83609199523926,277.83609199523926,279.10443592071533,2,1.4114878177642822,None,,,,,,,,,,,,,,,,,,144,2,2025-02-27_11h30.29.250,comp,2024.2.4,48.150285964876026,2025-02-27 11h31.04.049692 -0500,
64,64,0,critical,dhw,20.0,1.0,lower,78.0,78.0,133.0,57.0,57.0,133.0,3,3.415797472000122,None,,,,,0,0,0,0,0,64,64,54,279.12138175964355,,,,,,,,,,,,,,,,,,,,,,,,,,,,,,,,,,,,,,,,,,,,,,,,,,,,,,,,,,,,,,,,,,,,,,,,,,,,,,,,,,78.0,78.0,133.0,57.0,57.0,133.0,1.0,1.2,-164,-10,0,16,191,2,279.10591554641724,279.1060326099396,279.10911202430725,279.12138175964355,279.2686188220978,279.2686188220978,279.2686188220978,279.2686188220978,279.2686188220978,279.2686188220978,279.2686188220978,282.5444791316986,3,3.415797472000122,None,,,,,,,,,,,,,,,,,,144,2,2025-02-27_11h30.29.250,comp,2024.2.4,48.150285964876026,2025-02-27 11h31.04.049692 -0500,
65,65,0,critical,dhw,20.0,4.0,upper,141.0,141.0,200.0,125.0,125.0,200.0,3,1.6923518180847168,None,,,,,0,0,0,0,0,65,65,59,282.5639169216156,,,,,,,,,,,,,,,,,,,,,,,,,,,,,,,,,,,,,,,,,,,,,,,,,,,,,,,,,,,,,,,,,,,,,,,,,,,,,,,,,,141.0,141.0,200.0,125.0,125.0,200.0,4.0,4.1,-229,-287,0,-12,258,-279,282.5461337566376,282.5462713241577,282.5496230125427,282.5639169216156,282.70424032211304,282.70424032211304,282.70424032211304,282.70424032211304,282.70424032211304,282.70424032211304,282.70424032211304,284.2705464363098,3,1.6923518180847168,None,,,,,,,,,,,,,,,,,,144,2,2025-02-27_11h30.29.250,comp,2024.2.4,48.150285964876026,2025-02-27 11h31.04.049692 -0500,
66,66,0,critical,hdw,20.0,2.1,upper,200.0,125.0,141.0,141.0,125.0,200.0,3,1.4263677597045898,None,,,,,0,0,0,0,0,66,66,47,284.28657627105713,,,,,,,,,,,,,,,,,,,,,,,,,,,,,,,,,,,,,,,,,,,,,,,,,,,,,,,,,,,,,,,,,,,,,,,,,,,,,,,,,,200.0,125.0,141.0,141.0,125.0,200.0,2.1,2.11,-229,255,0,279,266,-252,284.2721016407013,284.2721779346466,284.2753210067749,284.28657627105713,284.4346613883972,284.4346613883972,284.4346613883972,284.4346613883972,284.4346613883972,284.4346613883972,284.4346613883972,285.7223575115204,3,1.4263677597045898,None,,,,,,,,,,,,,,,,,,144,2,2025-02-27_11h30.29.250,comp,2024.2.4,48.150285964876026,2025-02-27 11h31.04.049692 -0500,
67,67,0,critical,whd,20.0,1.0,lower,57.0,133.0,133.0,57.0,78.0,78.0,2,4.988584995269775,None,,,,,0,0,0,0,0,67,67,90,285.73981523513794,,,,,,,,,,,,,,,,,,,,,,,,,,,,,,,,,,,,,,,,,,,,,,,,,,,,,,,,,,,,,,,,,,,,,,,,,,,,,,,,,,57.0,133.0,133.0,57.0,78.0,78.0,1.0,1.1,-671,264,-480,283,-316,268,285.72401452064514,285.72410106658936,285.72763895988464,285.73981523513794,285.8924205303192,285.8924205303192,285.8924205303192,285.8924205303192,285.8924205303192,285.8924205303192,285.8924205303192,290.7402765750885,2,4.988584995269775,None,,,,,,,,,,,,,,,,,,144,2,2025-02-27_11h30.29.250,comp,2024.2.4,48.150285964876026,2025-02-27 11h31.04.049692 -0500,
68,68,0,critical,dwh,20.0,4.0,upper,141.0,141.0,125.0,200.0,200.0,125.0,3,1.7965164184570312,None,,,,,0,0,0,0,0,68,68,71,290.7563142776489,,,,,,,,,,,,,,,,,,,,,,,,,,,,,,,,,,,,,,,,,,,,,,,,,,,,,,,,,,,,,,,,,,,,,,,,,,,,,,,,,,141.0,141.0,125.0,200.0,200.0,125.0,4.0,4.1,-266,-251,0,8,258,-277,290.7418179512024,290.74193596839905,290.74604296684265,290.7563142776489,290.90643095970154,290.90643095970154,290.90643095970154,290.90643095970154,290.90643095970154,290.90643095970154,290.90643095970154,292.5727689266205,3,1.7965164184570312,None,,,,,,,,,,,,,,,,,,144,2,2025-02-27_11h30.29.250,comp,2024.2.4,48.150285964876026,2025-02-27 11h31.04.049692 -0500,
69,69,0,filler_random,None,None,None,None,None,None,None,None,None,None,2,3.9961183071136475,None,,,,,0,0,0,0,0,69,69,153,292.5889582633972,,,,,,,,,,,,,,,,,,,,,,,,,,,,,,,,,,,,,,,,,,,,,,,,,,,,,,,,,,,,,,,,,,,,,,,,,,,,,,,,,,161.38808284662792,58.01811817330462,162.21509435222077,159.2752821342586,196.55383928051984,112.5711979379829,2.1,2.11,-205,290,0,269,232,-255,292.574494600296,292.5745692253113,292.5777027606964,292.5889582633972,292.728755235672,292.728755235672,292.728755235672,292.728755235672,292.728755235672,292.728755235672,292.728755235672,296.59241342544556,2,3.9961183071136475,None,,,,,,,,,,,,,,,,,,144,2,2025-02-27_11h30.29.250,comp,2024.2.4,48.150285964876026,2025-02-27 11h31.04.049692 -0500,
70,70,0,filler_square,None,None,None,None,None,None,None,None,None,None,3,1.3673734664916992,None,,,,,0,0,0,0,0,70,70,197,296.6089527606964,,,,,,,,,,,,,,,,,,,,,,,,,,,,,,,,,,,,,,,,,,,,,,,,,,,,,,,,,,,,,,,,,,,,,,,,,,,,,,,,,,150.9052929888769,80.78423398727736,141.47036228145507,75.83168509286126,193.27519364100831,193.27519364100831,1.0,1.3,306,-261,480,-282,711,-284,296.5942587852478,296.5943355560303,296.5980679988861,296.6089527606964,296.76647090911865,296.76647090911865,296.76647090911865,296.76647090911865,296.76647090911865,296.76647090911865,296.76647090911865,297.9925081729889,3,1.3673734664916992,None,,,,,,,,,,,,,,,,,,144,2,2025-02-27_11h30.29.250,comp,2024.2.4,48.150285964876026,2025-02-27 11h31.04.049692 -0500,
71,71,0,critical,dhw,20.0,2.1,lower,78.0,78.0,133.0,57.0,57.0,133.0,3,3.4337923526763916,None,,,,,0,0,0,0,0,71,71,26,298.0066862106323,,,,,,,,,,,,,,,,,,,,,,,,,,,,,,,,,,,,,,,,,,,,,,,,,,,,,,,,,,,,,,,,,,,,,,,,,,,,,,,,,,78.0,78.0,133.0,57.0,57.0,133.0,2.1,2.11,-164,255,0,259,191,-268,297.9940392971039,297.994136095047,297.9975116252899,298.0066862106323,298.15998363494873,298.15998363494873,298.15998363494873,298.15998363494873,298.15998363494873,298.15998363494873,298.15998363494873,301.4440176486969,3,3.4337923526763916,None,,,,,,,,,,,,,,,,,,144,2,2025-02-27_11h30.29.250,comp,2024.2.4,48.150285964876026,2025-02-27 11h31.04.049692 -0500,
72,72,0,critical,dhw,35.0,1.0,lower,70.0,70.0,133.0,57.0,57.0,133.0,1,2.402576208114624,None,,,,,0,0,0,0,0,72,72,48,301.4619607925415,,,,,,,,,,,,,,,,,,,,,,,,,,,,,,,,,,,,,,,,,,,,,,,,,,,,,,,,,,,,,,,,,,,,,,,,,,,,,,,,,,70.0,70.0,133.0,57.0,57.0,133.0,1.0,1.1,-640,257,-480,270,-289,261,301.44548177719116,301.4455580711365,301.44888615608215,301.4619607925415,301.61256670951843,301.61256670951843,301.61256670951843,301.61256670951843,301.61256670951843,301.61256670951843,301.61256670951843,303.87891244888306,1,2.402576208114624,None,,,,,,,,,,,,,,,,,,144,2,2025-02-27_11h30.29.250,comp,2024.2.4,48.150285964876026,2025-02-27 11h31.04.049692 -0500,
73,73,0,critical,hwd,35.0,2.1,lower,133.0,57.0,57.0,133.0,70.0,70.0,3,14.635582208633423,None,,,,,0,0,0,0,0,73,73,40,303.89274859428406,,,,,,,,,,,,,,,,,,,,,,,,,,,,,,,,,,,,,,,,,,,,,,,,,,,,,,,,,,,,,,,,,,,,,,,,,,,,,,,,,,133.0,57.0,57.0,133.0,70.0,70.0,2.1,2.11,-191,287,0,284,198,-251,303.88053798675537,303.88065910339355,303.8837945461273,303.89274859428406,304.05280447006226,304.05280447006226,304.05280447006226,304.05280447006226,304.05280447006226,304.05280447006226,304.05280447006226,318.53288412094116,3,14.635582208633423,None,,,,,,,,,,,,,,,,,,144,2,2025-02-27_11h30.29.250,comp,2024.2.4,48.150285964876026,2025-02-27 11h31.04.049692 -0500,
74,74,0,filler_square,None,None,None,None,None,None,None,None,None,None,2,1.4756362438201904,None,,,,,0,0,0,0,0,74,74,186,318.5496652126312,,,,,,,,,,,,,,,,,,,,,,,,,,,,,,,,,,,,,,,,,,,,,,,,,,,,,,,,,,,,,,,,,,,,,,,,,,,,,,,,,,100.57138695542756,71.86690033915598,158.18039789417776,158.18039789417776,82.48577008236865,65.14939106379907,4.0,4.2,-211,-17,0,-264,208,17,318.53465723991394,318.5347385406494,318.53875207901,318.5496652126312,318.696546792984,318.696546792984,318.696546792984,318.696546792984,318.696546792984,318.696546792984,318.696546792984,320.0339353084564,2,1.4756362438201904,None,,,,,,,,,,,,,,,,,,144,2,2025-02-27_11h30.29.250,comp,2024.2.4,48.150285964876026,2025-02-27 11h31.04.049692 -0500,
75,75,0,critical,wdh,35.0,2.1,lower,57.0,133.0,70.0,70.0,133.0,57.0,3,2.8219380378723145,None,,,,,0,0,0,0,0,75,75,32,320.05041909217834,,,,,,,,,,,,,,,,,,,,,,,,,,,,,,,,,,,,,,,,,,,,,,,,,,,,,,,,,,,,,,,,,,,,,,,,,,,,,,,,,,57.0,133.0,70.0,70.0,133.0,57.0,2.1,2.11,-198,288,0,289,160,-273,320.0356595516205,320.0357961654663,320.039813041687,320.05041909217834,320.18768763542175,320.18768763542175,320.18768763542175,320.18768763542175,320.18768763542175,320.18768763542175,320.18768763542175,322.88352942466736,3,2.8219380378723145,None,,,,,,,,,,,,,,,,,,144,2,2025-02-27_11h30.29.250,comp,2024.2.4,48.150285964876026,2025-02-27 11h31.04.049692 -0500,
76,76,0,critical,hwd,20.0,2.1,lower,133.0,57.0,57.0,133.0,78.0,78.0,3,3.9645729064941406,None,,,,,0,0,0,0,0,76,76,42,322.90015411376953,,,,,,,,,,,,,,,,,,,,,,,,,,,,,,,,,,,,,,,,,,,,,,,,,,,,,,,,,,,,,,,,,,,,,,,,,,,,,,,,,,133.0,57.0,57.0,133.0,78.0,78.0,2.1,2.11,-191,278,0,263,202,-281,322.88500905036926,322.8851068019867,322.8891110420227,322.90015411376953,323.04889726638794,323.04889726638794,323.04889726638794,323.04889726638794,323.04889726638794,323.04889726638794,323.04889726638794,326.8671205043793,3,3.9645729064941406,None,,,,,,,,,,,,,,,,,,144,2,2025-02-27_11h30.29.250,comp,2024.2.4,48.150285964876026,2025-02-27 11h31.04.049692 -0500,
77,77,0,filler_square,None,None,None,None,None,None,None,None,None,None,2,1.9700212478637695,None,,,,,0,0,0,0,0,77,77,195,326.88626766204834,,,,,,,,,,,,,,,,,,,,,,,,,,,,,,,,,,,,,,,,,,,,,,,,,,,,,,,,,,,,,,,,,,,,,,,,,,,,,,,,,,63.984162574379376,58.90351896710557,71.54079157439419,71.54079157439419,57.74330268436228,68.75813201708168,2.1,2.12,-161,-287,0,-266,166,275,326.86894059181213,326.869017124176,326.87219500541687,326.88626766204834,327.0367362499237,327.0367362499237,327.0367362499237,327.0367362499237,327.0367362499237,327.0367362499237,327.0367362499237,328.86700320243835,2,1.9700212478637695,None,,,,,,,,,,,,,,,,,,144,2,2025-02-27_11h30.29.250,comp,2024.2.4,48.150285964876026,2025-02-27 11h31.04.049692 -0500,
78,78,0,critical,hdw,35.0,2.1,lower,133.0,57.0,70.0,70.0,57.0,133.0,3,2.6772849559783936,None,,,,,0,0,0,0,0,78,78,20,328.88391399383545,,,,,,,,,,,,,,,,,,,,,,,,,,,,,,,,,,,,,,,,,,,,,,,,,,,,,,,,,,,,,,,,,,,,,,,,,,,,,,,,,,133.0,57.0,70.0,70.0,57.0,133.0,2.1,2.11,-160,271,0,253,198,-267,328.86859917640686,328.86871314048767,328.8723268508911,328.88391399383545,329.0215356349945,329.0215356349945,329.0215356349945,329.0215356349945,329.0215356349945,329.0215356349945,329.0215356349945,331.56818103790283,3,2.6772849559783936,None,,,,,,,,,,,,,,,,,,144,2,2025-02-27_11h30.29.250,comp,2024.2.4,48.150285964876026,2025-02-27 11h31.04.049692 -0500,
79,79,0,filler_random,None,None,None,None,None,None,None,None,None,None,3,4.894909620285034,None,,,,,0,0,0,0,0,79,79,154,331.58546900749207,,,,,,,,,,,,,,,,,,,,,,,,,,,,,,,,,,,,,,,,,,,,,,,,,,,,,,,,,,,,,,,,,,,,,,,,,,,,,,,,,,105.81854677472111,133.27378459247493,163.54169212293266,125.07911699641444,148.08110098050446,138.56587884055622,2.2,2.21,-225,-275,0,267,228,264,331.5700652599335,331.5701515674591,331.57366156578064,331.58546900749207,331.7384443283081,331.7384443283081,331.7384443283081,331.7384443283081,331.7384443283081,331.7384443283081,331.7384443283081,336.49563694000244,3,4.894909620285034,None,,,,,,,,,,,,,,,,,,144,2,2025-02-27_11h30.29.250,comp,2024.2.4,48.150285964876026,2025-02-27 11h31.04.049692 -0500,
80,80,0,filler_random,None,None,None,None,None,None,None,None,None,None,2,1.2001664638519287,None,,,,,0,0,0,0,0,80,80,142,336.5121719837189,,,,,,,,,,,,,,,,,,,,,,,,,,,,,,,,,,,,,,,,,,,,,,,,,,,,,,,,,,,,,,,,,,,,,,,,,,,,,,,,,,124.15089922529259,61.79144587556429,131.05312531259574,152.0634022896868,91.37589543872339,93.38945189703165,3.0,3.1,-203,270,0,-9,219,-276,336.4974799156189,336.4976167678833,336.5009300708771,336.5121719837189,336.6575322151184,336.6575322151184,336.6575322151184,336.6575322151184,336.6575322151184,336.6575322151184,336.6575322151184,337.7313885688782,2,1.2001664638519287,None,,,,,,,,,,,,,,,,,,144,2,2025-02-27_11h30.29.250,comp,2024.2.4,48.150285964876026,2025-02-27 11h31.04.049692 -0500,
81,81,0,critical,hdw,35.0,3.0,lower,133.0,57.0,70.0,70.0,57.0,133.0,3,2.0566484928131104,None,,,,,0,0,0,0,0,81,81,110,337.75177478790283,,,,,,,,,,,,,,,,,,,,,,,,,,,,,,,,,,,,,,,,,,,,,,,,,,,,,,,,,,,,,,,,,,,,,,,,,,,,,,,,,,133.0,57.0,70.0,70.0,57.0,133.0,3.0,3.1,-160,285,0,14,198,-283,337.7330074310303,337.73309111595154,337.73645997047424,337.75177478790283,337.8894805908203,337.8894805908203,337.8894805908203,337.8894805908203,337.8894805908203,337.8894805908203,337.8894805908203,339.82084488868713,3,2.0566484928131104,None,,,,,,,,,,,,,,,,,,144,2,2025-02-27_11h30.29.250,comp,2024.2.4,48.150285964876026,2025-02-27 11h31.04.049692 -0500,
82,82,0,critical,whd,20.0,3.0,lower,57.0,133.0,133.0,57.0,78.0,78.0,1,3.235090970993042,None,,,,,0,0,0,0,0,82,82,92,339.83741068840027,,,,,,,,,,,,,,,,,,,,,,,,,,,,,,,,,,,,,,,,,,,,,,,,,,,,,,,,,,,,,,,,,,,,,,,,,,,,,,,,,,57.0,133.0,133.0,57.0,78.0,78.0,3.0,3.2,-191,-278,0,-3,164,270,339.82249784469604,339.82262802124023,339.82610177993774,339.83741068840027,339.9928414821625,339.9928414821625,339.9928414821625,339.9928414821625,339.9928414821625,339.9928414821625,339.9928414821625,343.0892310142517,1,3.235090970993042,None,,,,,,,,,,,,,,,,,,144,2,2025-02-27_11h30.29.250,comp,2024.2.4,48.150285964876026,2025-02-27 11h31.04.049692 -0500,
83,83,0,filler_square,None,None,None,None,None,None,None,None,None,None,3,1.3905041217803955,None,,,,,0,0,0,0,0,83,83,187,343.1057822704315,,,,,,,,,,,,,,,,,,,,,,,,,,,,,,,,,,,,,,,,,,,,,,,,,,,,,,,,,,,,,,,,,,,,,,,,,,,,,,,,,,59.70876852414837,66.45769788290434,68.9052238581944,79.27809341827478,80.33892070768735,80.33892070768735,2.2,2.21,-169,-277,0,267,176,267,343.0911979675293,343.0912733078003,343.09462785720825,343.1057822704315,343.2615671157837,343.2615671157837,343.2615671157837,343.2615671157837,343.2615671157837,343.2615671157837,343.2615671157837,344.50665283203125,3,1.3905041217803955,None,,,,,,,,,,,,,,,,,,144,2,2025-02-27_11h30.29.250,comp,2024.2.4,48.150285964876026,2025-02-27 11h31.04.049692 -0500,
84,84,0,critical,whd,35.0,2.1,lower,57.0,133.0,133.0,57.0,70.0,70.0,2,3.199622392654419,None,,,,,0,0,0,0,0,84,84,12,344.5214924812317,,,,,,,,,,,,,,,,,,,,,,,,,,,,,,,,,,,,,,,,,,,,,,,,,,,,,,,,,,,,,,,,,,,,,,,,,,,,,,,,,,57.0,133.0,133.0,57.0,70.0,70.0,2.1,2.11,-191,275,0,277,160,-255,344.508291721344,344.50836873054504,344.5119137763977,344.5214924812317,344.67778635025024,344.67778635025024,344.67778635025024,344.67778635025024,344.67778635025024,344.67778635025024,344.67778635025024,347.7291524410248,2,3.199622392654419,None,,,,,,,,,,,,,,,,,,144,2,2025-02-27_11h30.29.250,comp,2024.2.4,48.150285964876026,2025-02-27 11h31.04.049692 -0500,
85,85,0,critical,hwd,35.0,1.0,upper,200.0,125.0,125.0,200.0,127.0,127.0,1,1.115067958831787,None,,,,,0,0,0,0,0,85,85,97,347.749306678772,,,,,,,,,,,,,,,,,,,,,,,,,,,,,,,,,,,,,,,,,,,,,,,,,,,,,,,,,,,,,,,,,,,,,,,,,,,,,,,,,,200.0,125.0,125.0,200.0,127.0,127.0,1.0,1.3,222,-252,480,-263,740,-262,347.7306504249573,347.7307274341583,347.73368787765503,347.749306678772,347.89226508140564,347.89226508140564,347.89226508140564,347.89226508140564,347.89226508140564,347.89226508140564,347.89226508140564,348.87489652633667,1,1.115067958831787,None,,,,,,,,,,,,,,,,,,144,2,2025-02-27_11h30.29.250,comp,2024.2.4,48.150285964876026,2025-02-27 11h31.04.049692 -0500,
86,86,0,filler_square,None,None,None,None,None,None,None,None,None,None,3,1.2317276000976562,None,,,,,0,0,0,0,0,86,86,196,348.8894283771515,,,,,,,,,,,,,,,,,,,,,,,,,,,,,,,,,,,,,,,,,,,,,,,,,,,,,,,,,,,,,,,,,,,,,,,,,,,,,,,,,,133.20202820008654,123.6348408535858,128.1639850184975,76.01499462553167,160.3593791734004,160.3593791734004,2.1,2.11,-196,255,0,260,214,-261,348.87663865089417,348.8767182826996,348.8800504207611,348.8894283771515,349.04205679893494,349.04205679893494,349.04205679893494,349.04205679893494,349.04205679893494,349.04205679893494,349.04205679893494,350.1271798610687,3,1.2317276000976562,None,,,,,,,,,,,,,,,,,,144,2,2025-02-27_11h30.29.250,comp,2024.2.4,48.150285964876026,2025-02-27 11h31.04.049692 -0500,
87,87,0,critical,dwh,35.0,4.0,lower,70.0,70.0,57.0,133.0,133.0,57.0,3,1.4735796451568604,None,,,,,0,0,0,0,0,87,87,64,350.1436789035797,,,,,,,,,,,,,,,,,,,,,,,,,,,,,,,,,,,,,,,,,,,,,,,,,,,,,,,,,,,,,,,,,,,,,,,,,,,,,,,,,,70.0,70.0,57.0,133.0,133.0,57.0,4.0,4.2,-198,-13,0,-253,191,-9,350.12866830825806,350.12874484062195,350.1320490837097,350.1436789035797,350.29215574264526,350.29215574264526,350.29215574264526,350.29215574264526,350.29215574264526,350.29215574264526,350.29215574264526,351.6275978088379,3,1.4735796451568604,None,,,,,,,,,,,,,,,,,,144,2,2025-02-27_11h30.29.250,comp,2024.2.4,48.150285964876026,2025-02-27 11h31.04.049692 -0500,
88,88,0,filler_square,None,None,None,None,None,None,None,None,None,None,1,1.4929382801055908,None,,,,,0,0,0,0,0,88,88,191,351.64423274993896,,,,,,,,,,,,,,,,,,,,,,,,,,,,,,,,,,,,,,,,,,,,,,,,,,,,,,,,,,,,,,,,,,,,,,,,,,,,,,,,,,151.59188340013864,151.59188340013864,75.501233562945,140.93862663502142,135.86308742940548,68.68608621994682,3.0,3.1,-242,257,0,-7,201,-264,351.6295394897461,351.6296236515045,351.63321709632874,351.64423274993896,351.79296827316284,351.79296827316284,351.79296827316284,351.79296827316284,351.79296827316284,351.79296827316284,351.79296827316284,353.1420683860779,1,1.4929382801055908,None,,,,,,,,,,,,,,,,,,144,2,2025-02-27_11h30.29.250,comp,2024.2.4,48.150285964876026,2025-02-27 11h31.04.049692 -0500,
89,89,0,catch,None,None,None,None,None,None,None,None,None,None,2,1.3822746276855469,None,,,,,0,0,0,0,0,89,89,120,353.1622414588928,,,,,,,,,,,,,,,,,,,,,,,,,,,,,,,,,,,,,,,,,,,,,,,,,,,,,,,,,,,,,,,,,,,,,,,,,,,,,,,,,,94,96,196,129,128,62,4.0,4.2,-208,14,0,-282,192,10,353.14406275749207,353.1441411972046,353.1475672721863,353.1622414588928,353.3097770214081,353.3097770214081,353.3097770214081,353.3097770214081,353.3097770214081,353.3097770214081,353.3097770214081,354.56202006340027,2,1.3822746276855469,None,,,,,,,,,,,,,,,,,,144,2,2025-02-27_11h30.29.250,comp,2024.2.4,48.150285964876026,2025-02-27 11h31.04.049692 -0500,
90,90,0,critical,hdw,20.0,2.1,lower,133.0,57.0,78.0,78.0,57.0,133.0,1,3.1987385749816895,None,,,,,0,0,0,0,0,90,90,22,354.5776381492615,,,,,,,,,,,,,,,,,,,,,,,,,,,,,,,,,,,,,,,,,,,,,,,,,,,,,,,,,,,,,,,,,,,,,,,,,,,,,,,,,,133.0,57.0,78.0,78.0,57.0,133.0,2.1,2.12,-164,-289,0,-280,202,283,354.5636122226715,354.5636885166168,354.5672423839569,354.5776381492615,354.7269883155823,354.7269883155823,354.7269883155823,354.7269883155823,354.7269883155823,354.7269883155823,354.7269883155823,357.79188656806946,1,3.1987385749816895,None,,,,,,,,,,,,,,,,,,144,2,2025-02-27_11h30.29.250,comp,2024.2.4,48.150285964876026,2025-02-27 11h31.04.049692 -0500,
91,91,0,critical,whd,20.0,2.1,upper,125.0,200.0,200.0,125.0,141.0,141.0,2,2.624567747116089,None,,,,,0,0,0,0,0,91,91,15,357.80788016319275,,,,,,,,,,,,,,,,,,,,,,,,,,,,,,,,,,,,,,,,,,,,,,,,,,,,,,,,,,,,,,,,,,,,,,,,,,,,,,,,,,125.0,200.0,200.0,125.0,141.0,141.0,2.1,2.12,-258,-285,0,-290,229,264,357.79345655441284,357.7935309410095,357.79693961143494,357.80788016319275,357.9495723247528,357.9495723247528,357.9495723247528,357.9495723247528,357.9495723247528,357.9495723247528,357.9495723247528,360.4456765651703,2,2.624567747116089,None,,,,,,,,,,,,,,,,,,144,2,2025-02-27_11h30.29.250,comp,2024.2.4,48.150285964876026,2025-02-27 11h31.04.049692 -0500,
92,92,0,filler_square,None,None,None,None,None,None,None,None,None,None,2,1.3464722633361816,None,,,,,0,0,0,0,0,92,92,199,360.461852312088,,,,,,,,,,,,,,,,,,,,,,,,,,,,,,,,,,,,,,,,,,,,,,,,,,,,,,,,,,,,,,,,,,,,,,,,,,,,,,,,,,105.25266567018855,95.50321742048385,136.23396518468584,136.23396518468584,78.79793530306287,87.38825735474394,2.1,2.11,-212,285,0,261,208,-253,360.44768047332764,360.4477536678314,360.45157194137573,360.461852312088,360.6167325973511,360.6167325973511,360.6167325973511,360.6167325973511,360.6167325973511,360.6167325973511,360.6167325973511,361.8233277797699,2,1.3464722633361816,None,,,,,,,,,,,,,,,,,,144,2,2025-02-27_11h30.29.250,comp,2024.2.4,48.150285964876026,2025-02-27 11h31.04.049692 -0500,
93,93,0,filler_random,None,None,None,None,None,None,None,None,None,None,3,1.1299309730529785,None,,,,,0,0,0,0,0,93,93,159,361.83921122550964,,,,,,,,,,,,,,,,,,,,,,,,,,,,,,,,,,,,,,,,,,,,,,,,,,,,,,,,,,,,,,,,,,,,,,,,,,,,,,,,,,61.34206826534724,165.5953409310291,183.98790652253564,102.09870786840406,196.20432967573328,186.29180200562627,2.2,2.21,-230,-253,0,284,240,275,361.825026512146,361.82510137557983,361.8280737400055,361.83921122550964,361.97818088531494,361.97818088531494,361.97818088531494,361.97818088531494,361.97818088531494,361.97818088531494,361.97818088531494,362.97990107536316,3,1.1299309730529785,None,,,,,,,,,,,,,,,,,,144,2,2025-02-27_11h30.29.250,comp,2024.2.4,48.150285964876026,2025-02-27 11h31.04.049692 -0500,
94,94,0,critical,hwd,20.0,4.0,upper,200.0,125.0,125.0,200.0,141.0,141.0,2,3.2204396724700928,None,,,,,0,0,0,0,0,94,94,107,362.9961783885956,,,,,,,,,,,,,,,,,,,,,,,,,,,,,,,,,,,,,,,,,,,,,,,,,,,,,,,,,,,,,,,,,,,,,,,,,,,,,,,,,,200.0,125.0,125.0,200.0,141.0,141.0,4.0,4.2,-258,-6,0,-269,266,17,362.9815504550934,362.9816870689392,362.9852931499481,362.9961783885956,363.1444637775421,363.1444637775421,363.1444637775421,363.1444637775421,363.1444637775421,363.1444637775421,363.1444637775421,366.2347514629364,2,3.2204396724700928,None,,,,,,,,,,,,,,,,,,144,2,2025-02-27_11h30.29.250,comp,2024.2.4,48.150285964876026,2025-02-27 11h31.04.049692 -0500,
95,95,0,critical,dhw,35.0,4.0,upper,127.0,127.0,200.0,125.0,125.0,200.0,3,1.726513385772705,None,,,,,0,0,0,0,0,95,95,53,366.25058126449585,,,,,,,,,,,,,,,,,,,,,,,,,,,,,,,,,,,,,,,,,,,,,,,,,,,,,,,,,,,,,,,,,,,,,,,,,,,,,,,,,,127.0,127.0,200.0,125.0,125.0,200.0,4.0,4.2,-222,-11,0,-262,258,5,366.23631048202515,366.2363851070404,366.2403483390808,366.25058126449585,366.3995180130005,366.3995180130005,366.3995180130005,366.3995180130005,366.3995180130005,366.3995180130005,366.3995180130005,367.9811313152313,3,1.726513385772705,None,,,,,,,,,,,,,,,,,,144,2,2025-02-27_11h30.29.250,comp,2024.2.4,48.150285964876026,2025-02-27 11h31.04.049692 -0500,
96,96,0,critical,whd,20.0,2.1,lower,57.0,133.0,133.0,57.0,78.0,78.0,1,2.938464641571045,None,,,,,0,0,0,0,0,96,96,14,367.9980001449585,,,,,,,,,,,,,,,,,,,,,,,,,,,,,,,,,,,,,,,,,,,,,,,,,,,,,,,,,,,,,,,,,,,,,,,,,,,,,,,,,,57.0,133.0,133.0,57.0,78.0,78.0,2.1,2.12,-191,-270,0,-272,164,287,367.982784986496,367.98288798332214,367.98641753196716,367.9980001449585,368.14749813079834,368.14749813079834,368.14749813079834,368.14749813079834,368.14749813079834,368.14749813079834,368.14749813079834,370.95235896110535,1,2.938464641571045,None,,,,,,,,,,,,,,,,,,144,2,2025-02-27_11h30.29.250,comp,2024.2.4,48.150285964876026,2025-02-27 11h31.04.049692 -0500,
97,97,0,critical,hwd,20.0,2.1,upper,200.0,125.0,125.0,200.0,141.0,141.0,1,1.6253385543823242,None,,,,,0,0,0,0,0,97,97,43,370.96781158447266,,,,,,,,,,,,,,,,,,,,,,,,,,,,,,,,,,,,,,,,,,,,,,,,,,,,,,,,,,,,,,,,,,,,,,,,,,,,,,,,,,200.0,125.0,125.0,200.0,141.0,141.0,2.1,2.12,-258,-279,0,-266,266,264,370.9539084434509,370.9539906978607,370.9572608470917,370.96781158447266,371.11295771598816,371.11295771598816,371.11295771598816,371.11295771598816,371.11295771598816,371.11295771598816,371.11295771598816,372.5993444919586,1,1.6253385543823242,None,,,,,,,,,,,,,,,,,,144,2,2025-02-27_11h30.29.250,comp,2024.2.4,48.150285964876026,2025-02-27 11h31.04.049692 -0500,
98,98,0,filler_square,None,None,None,None,None,None,None,None,None,None,3,1.0651190280914307,None,,,,,0,0,0,0,0,98,98,171,372.61577892303467,,,,,,,,,,,,,,,,,,,,,,,,,,,,,,,,,,,,,,,,,,,,,,,,,,,,,,,,,,,,,,,,,,,,,,,,,,,,,,,,,,134.34971004506863,102.32289625619923,80.02411969607581,105.28670909492622,199.7386956078008,199.7386956078008,2.2,2.21,-200,-255,0,280,249,255,372.6012017726898,372.601282119751,372.6047992706299,372.61577892303467,372.7659361362457,372.7659361362457,372.7659361362457,372.7659361362457,372.7659361362457,372.7659361362457,372.7659361362457,373.6889147758484,3,1.0651190280914307,None,,,,,,,,,,,,,,,,,,144,2,2025-02-27_11h30.29.250,comp,2024.2.4,48.150285964876026,2025-02-27 11h31.04.049692 -0500,
99,99,0,filler_random,None,None,None,None,None,None,None,None,None,None,1,1.2157678604125977,None,,,,,0,0,0,0,0,99,99,163,373.7065398693085,,,,,,,,,,,,,,,,,,,,,,,,,,,,,,,,,,,,,,,,,,,,,,,,,,,,,,,,,,,,,,,,,,,,,,,,,,,,,,,,,,143.01411161159734,142.56470388181523,100.65208401060323,102.39542003081337,71.31312999460302,60.55895577903023,2.1,2.11,-218,262,0,282,177,-287,373.69060158729553,373.69068217277527,373.69362807273865,373.7065398693085,373.8503041267395,373.8503041267395,373.8503041267395,373.8503041267395,373.8503041267395,373.8503041267395,373.8503041267395,374.93415999412537,1,1.2157678604125977,None,,,,,,,,,,,,,,,,,,144,2,2025-02-27_11h30.29.250,comp,2024.2.4,48.150285964876026,2025-02-27 11h31.04.049692 -0500,
100,100,0,filler_square,None,None,None,None,None,None,None,None,None,None,3,1.6502399444580078,None,,,,,0,0,0,0,0,100,100,189,374.95046758651733,,,,,,,,,,,,,,,,,,,,,,,,,,,,,,,,,,,,,,,,,,,,,,,,,,,,,,,,,,,,,,,,,,,,,,,,,,,,,,,,,,58.21701881995542,70.19060327358673,57.725971330767905,69.28711022509094,71.90146311014188,71.90146311014188,1.0,1.3,314,-286,480,-268,647,-258,374.9359276294708,374.93603587150574,374.9393644332886,374.95046758651733,375.0990273952484,375.0990273952484,375.0990273952484,375.0990273952484,375.0990273952484,375.0990273952484,375.0990273952484,376.6025302410126,3,1.6502399444580078,None,,,,,,,,,,,,,,,,,,144,2,2025-02-27_11h30.29.250,comp,2024.2.4,48.150285964876026,2025-02-27 11h31.04.049692 -0500,
101,101,0,filler_square,None,None,None,None,None,None,None,None,None,None,1,1.6784946918487549,None,,,,,0,0,0,0,0,101,101,200,376.61825704574585,,,,,,,,,,,,,,,,,,,,,,,,,,,,,,,,,,,,,,,,,,,,,,,,,,,,,,,,,,,,,,,,,,,,,,,,,,,,,,,,,,140.43025823980057,140.43025823980057,124.91053291022847,134.52186864085542,131.53401655994978,116.40260134913827,1.0,1.1,-713,266,-480,284,-259,259,376.604416847229,376.6044964790344,376.60766339302063,376.61825704574585,376.7692792415619,376.7692792415619,376.7692792415619,376.7692792415619,376.7692792415619,376.7692792415619,376.7692792415619,378.3012490272522,1,1.6784946918487549,None,,,,,,,,,,,,,,,,,,144,2,2025-02-27_11h30.29.250,comp,2024.2.4,48.150285964876026,2025-02-27 11h31.04.049692 -0500,
102,102,0,critical,dhw,20.0,3.0,lower,78.0,78.0,133.0,57.0,57.0,133.0,3,1.2754161357879639,None,,,,,0,0,0,0,0,102,102,56,378.31730461120605,,,,,,,,,,,,,,,,,,,,,,,,,,,,,,,,,,,,,,,,,,,,,,,,,,,,,,,,,,,,,,,,,,,,,,,,,,,,,,,,,,78.0,78.0,133.0,57.0,57.0,133.0,3.0,3.1,-164,251,0,-20,191,-280,378.30275225639343,378.3028299808502,378.3066666126251,378.31730461120605,378.4726071357727,378.4726071357727,378.4726071357727,378.4726071357727,378.4726071357727,378.4726071357727,378.4726071357727,379.5960810184479,3,1.2754161357879639,None,,,,,,,,,,,,,,,,,,144,2,2025-02-27_11h30.29.250,comp,2024.2.4,48.150285964876026,2025-02-27 11h31.04.049692 -0500,
103,103,0,critical,whd,35.0,1.0,upper,125.0,200.0,200.0,125.0,127.0,127.0,1,4.693100452423096,None,,,,,0,0,0,0,0,103,103,85,379.61191272735596,,,,,,,,,,,,,,,,,,,,,,,,,,,,,,,,,,,,,,,,,,,,,,,,,,,,,,,,,,,,,,,,,,,,,,,,,,,,,,,,,,125.0,200.0,200.0,125.0,127.0,127.0,1.0,1.1,-738,257,-480,275,-258,257,379.597571849823,379.597647190094,379.6010193824768,379.61191272735596,379.75229382514954,379.75229382514954,379.75229382514954,379.75229382514954,379.75229382514954,379.75229382514954,379.75229382514954,384.321834564209,1,4.693100452423096,None,,,,,,,,,,,,,,,,,,144,2,2025-02-27_11h30.29.250,comp,2024.2.4,48.150285964876026,2025-02-27 11h31.04.049692 -0500,
104,104,0,critical,dhw,20.0,2.1,lower,78.0,78.0,133.0,57.0,57.0,133.0,3,1.6068673133850098,None,,,,,0,0,0,0,0,104,104,2,384.33752512931824,,,,,,,,,,,,,,,,,,,,,,,,,,,,,,,,,,,,,,,,,,,,,,,,,,,,,,,,,,,,,,,,,,,,,,,,,,,,,,,,,,78.0,78.0,133.0,57.0,57.0,133.0,2.1,2.11,-164,258,0,252,191,-289,384.32357931137085,384.3236618041992,384.3270790576935,384.33752512931824,384.48641777038574,384.48641777038574,384.48641777038574,384.48641777038574,384.48641777038574,384.48641777038574,384.48641777038574,385.9602131843567,3,1.6068673133850098,None,,,,,,,,,,,,,,,,,,144,2,2025-02-27_11h30.29.250,comp,2024.2.4,48.150285964876026,2025-02-27 11h31.04.049692 -0500,
105,105,0,critical,wdh,20.0,4.0,lower,57.0,133.0,78.0,78.0,133.0,57.0,1,1.8257365226745605,None,,,,,0,0,0,0,0,105,105,82,385.97493171691895,,,,,,,,,,,,,,,,,,,,,,,,,,,,,,,,,,,,,,,,,,,,,,,,,,,,,,,,,,,,,,,,,,,,,,,,,,,,,,,,,,57.0,133.0,78.0,78.0,133.0,57.0,4.0,4.2,-202,-11,0,-268,164,15,385.9615898132324,385.9616651535034,385.96462082862854,385.97493171691895,386.1187105178833,386.1187105178833,386.1187105178833,386.1187105178833,386.1187105178833,386.1187105178833,386.1187105178833,387.82105326652527,1,1.8257365226745605,None,,,,,,,,,,,,,,,,,,144,2,2025-02-27_11h30.29.250,comp,2024.2.4,48.150285964876026,2025-02-27 11h31.04.049692 -0500,
106,106,0,critical,whd,20.0,2.1,upper,125.0,200.0,200.0,125.0,141.0,141.0,1,2.108025312423706,None,,,,,0,0,0,0,0,106,106,39,387.83730006217957,,,,,,,,,,,,,,,,,,,,,,,,,,,,,,,,,,,,,,,,,,,,,,,,,,,,,,,,,,,,,,,,,,,,,,,,,,,,,,,,,,125.0,200.0,200.0,125.0,141.0,141.0,2.1,2.11,-258,259,0,254,229,-258,387.8225796222687,387.82265305519104,387.82603693008423,387.83730006217957,387.9902648925781,387.9902648925781,387.9902648925781,387.9902648925781,387.9902648925781,387.9902648925781,387.9902648925781,389.9571022987366,1,2.108025312423706,None,,,,,,,,,,,,,,,,,,144,2,2025-02-27_11h30.29.250,comp,2024.2.4,48.150285964876026,2025-02-27 11h31.04.049692 -0500,
107,107,0,filler_random,None,None,None,None,None,None,None,None,None,None,1,1.0667064189910889,None,,,,,0,0,0,0,0,107,107,160,389.97382497787476,,,,,,,,,,,,,,,,,,,,,,,,,,,,,,,,,,,,,,,,,,,,,,,,,,,,,,,,,,,,,,,,,,,,,,,,,,,,,,,,,,193.79477167827855,186.28701035733752,147.3696229326622,164.8063770243783,85.23634374279736,136.56675082780652,1.0,1.1,-752,266,-480,255,-233,275,389.95920157432556,389.9592845439911,389.9632570743561,389.97382497787476,390.12495613098145,390.12495613098145,390.12495613098145,390.12495613098145,390.12495613098145,390.12495613098145,390.12495613098145,391.0531048774719,1,1.0667064189910889,None,,,,,,,,,,,,,,,,,,144,2,2025-02-27_11h30.29.250,comp,2024.2.4,48.150285964876026,2025-02-27 11h31.04.049692 -0500,
108,108,0,critical,dwh,20.0,2.1,upper,141.0,141.0,125.0,200.0,200.0,125.0,2,3.07529878616333,None,,,,,0,0,0,0,0,108,108,31,391.0690929889679,,,,,,,,,,,,,,,,,,,,,,,,,,,,,,,,,,,,,,,,,,,,,,,,,,,,,,,,,,,,,,,,,,,,,,,,,,,,,,,,,,141.0,141.0,125.0,200.0,200.0,125.0,2.1,2.12,-266,-274,0,-255,258,267,391.0547516345978,391.0548322200775,391.058767080307,391.0690929889679,391.2058148384094,391.2058148384094,391.2058148384094,391.2058148384094,391.2058148384094,391.2058148384094,391.2058148384094,394.15528655052185,2,3.07529878616333,None,,,,,,,,,,,,,,,,,,144,2,2025-02-27_11h30.29.250,comp,2024.2.4,48.150285964876026,2025-02-27 11h31.04.049692 -0500,
109,109,0,critical,whd,20.0,1.0,upper,125.0,200.0,200.0,125.0,141.0,141.0,1,2.8367021083831787,None,,,,,0,0,0,0,0,109,109,91,394.17175030708313,,,,,,,,,,,,,,,,,,,,,,,,,,,,,,,,,,,,,,,,,,,,,,,,,,,,,,,,,,,,,,,,,,,,,,,,,,,,,,,,,,125.0,200.0,200.0,125.0,141.0,141.0,1.0,1.3,222,-275,480,-262,709,-282,394.1568763256073,394.15696716308594,394.1603298187256,394.17175030708313,394.3283290863037,394.3283290863037,394.3283290863037,394.3283290863037,394.3283290863037,394.3283290863037,394.3283290863037,397.0233678817749,1,2.8367021083831787,None,,,,,,,,,,,,,,,,,,144,2,2025-02-27_11h30.29.250,comp,2024.2.4,48.150285964876026,2025-02-27 11h31.04.049692 -0500,
110,110,0,critical,dwh,35.0,2.1,upper,127.0,127.0,125.0,200.0,200.0,125.0,3,1.4738256931304932,None,,,,,0,0,0,0,0,110,110,5,397.0387604236603,,,,,,,,,,,,,,,,,,,,,,,,,,,,,,,,,,,,,,,,,,,,,,,,,,,,,,,,,,,,,,,,,,,,,,,,,,,,,,,,,,127.0,127.0,125.0,200.0,200.0,125.0,2.1,2.12,-260,-279,0,-276,258,287,397.0248427391052,397.0249490737915,397.0284900665283,397.0387604236603,397.18841576576233,397.18841576576233,397.18841576576233,397.18841576576233,397.18841576576233,397.18841576576233,397.18841576576233,398.52296900749207,3,1.4738256931304932,None,,,,,,,,,,,,,,,,,,144,2,2025-02-27_11h30.29.250,comp,2024.2.4,48.150285964876026,2025-02-27 11h31.04.049692 -0500,
111,111,0,filler_square,None,None,None,None,None,None,None,None,None,None,2,0.9460868835449219,None,,,,,0,0,0,0,0,111,111,209,398.54263734817505,,,,,,,,,,,,,,,,,,,,,,,,,,,,,,,,,,,,,,,,,,,,,,,,,,,,,,,,,,,,,,,,,,,,,,,,,,,,,,,,,,73.18630759131905,80.36249820114698,154.39423854880786,154.39423854880786,93.2024910168705,63.39968386161037,3.0,3.2,-213,-256,0,8,205,265,398.52478861808777,398.5248935222626,398.5280451774597,398.54263734817505,398.69074630737305,398.69074630737305,398.69074630737305,398.69074630737305,398.69074630737305,398.69074630737305,398.69074630737305,399.4930374622345,2,0.9460868835449219,None,,,,,,,,,,,,,,,,,,144,2,2025-02-27_11h30.29.250,comp,2024.2.4,48.150285964876026,2025-02-27 11h31.04.049692 -0500,
112,112,0,critical,dwh,20.0,3.0,lower,78.0,78.0,57.0,133.0,133.0,57.0,2,5.060067892074585,None,,,,,0,0,0,0,0,112,112,68,399.5095121860504,,,,,,,,,,,,,,,,,,,,,,,,,,,,,,,,,,,,,,,,,,,,,,,,,,,,,,,,,,,,,,,,,,,,,,,,,,,,,,,,,,78.0,78.0,57.0,133.0,133.0,57.0,3.0,3.2,-202,-273,0,0,191,265,399.494708776474,399.49481105804443,399.49809193611145,399.5095121860504,399.65759778022766,399.65759778022766,399.65759778022766,399.65759778022766,399.65759778022766,399.65759778022766,399.65759778022766,404.5778121948242,2,5.060067892074585,None,,,,,,,,,,,,,,,,,,144,2,2025-02-27_11h30.29.250,comp,2024.2.4,48.150285964876026,2025-02-27 11h31.04.049692 -0500,
113,113,0,catch,None,None,None,None,None,None,None,None,None,None,1,1.0305328369140625,None,,,,,0,0,0,0,0,113,113,126,404.5940794944763,,,,,,,,,,,,,,,,,,,,,,,,,,,,,,,,,,,,,,,,,,,,,,,,,,,,,,,,,,,,,,,,,,,,,,,,,,,,,,,,,,141,184,90,100,85,105,2.2,2.22,-238,284,0,-282,198,-256,404.5799791812897,404.58006405830383,404.58335065841675,404.5940794944763,404.74395275115967,404.74395275115967,404.74395275115967,404.74395275115967,404.74395275115967,404.74395275115967,404.74395275115967,405.646196603775,1,1.0305328369140625,None,,,,,,,,,,,,,,,,,,144,2,2025-02-27_11h30.29.250,comp,2024.2.4,48.150285964876026,2025-02-27 11h31.04.049692 -0500,
114,114,0,filler_random,None,None,None,None,None,None,None,None,None,None,1,3.7851099967956543,None,,,,,0,0,0,0,0,114,114,140,405.6645984649658,,,,,,,,,,,,,,,,,,,,,,,,,,,,,,,,,,,,,,,,,,,,,,,,,,,,,,,,,,,,,,,,,,,,,,,,,,,,,,,,,,97.25257779541442,164.30410362891118,104.24708451904208,72.78116468344501,126.4562094250623,142.45331989991695,3.0,3.2,-215,-281,0,-14,204,272,405.6480004787445,405.6481285095215,405.6514980792999,405.6645984649658,405.8122730255127,405.8122730255127,405.8122730255127,405.8122730255127,405.8122730255127,405.8122730255127,405.8122730255127,409.454128742218,1,3.7851099967956543,None,,,,,,,,,,,,,,,,,,144,2,2025-02-27_11h30.29.250,comp,2024.2.4,48.150285964876026,2025-02-27 11h31.04.049692 -0500,
115,115,0,critical,wdh,35.0,2.1,lower,57.0,133.0,70.0,70.0,133.0,57.0,1,3.112919807434082,None,,,,,0,0,0,0,0,115,115,8,409.4723777770996,,,,,,,,,,,,,,,,,,,,,,,,,,,,,,,,,,,,,,,,,,,,,,,,,,,,,,,,,,,,,,,,,,,,,,,,,,,,,,,,,,57.0,133.0,70.0,70.0,133.0,57.0,2.1,2.11,-198,255,0,283,160,-254,409.45571208000183,409.4557909965515,409.4592306613922,409.4723777770996,409.61056900024414,409.61056900024414,409.61056900024414,409.61056900024414,409.61056900024414,409.61056900024414,409.61056900024414,412.58962392807007,1,3.112919807434082,None,,,,,,,,,,,,,,,,,,144,2,2025-02-27_11h30.29.250,comp,2024.2.4,48.150285964876026,2025-02-27 11h31.04.049692 -0500,
116,116,0,critical,wdh,20.0,3.0,lower,57.0,133.0,78.0,78.0,133.0,57.0,1,1.515042781829834,None,,,,,0,0,0,0,0,116,116,80,412.60616850852966,,,,,,,,,,,,,,,,,,,,,,,,,,,,,,,,,,,,,,,,,,,,,,,,,,,,,,,,,,,,,,,,,,,,,,,,,,,,,,,,,,57.0,133.0,78.0,78.0,133.0,57.0,3.0,3.1,-202,289,0,19,164,-290,412.5911464691162,412.591228723526,412.59421730041504,412.60616850852966,412.74471712112427,412.74471712112427,412.74471712112427,412.74471712112427,412.74471712112427,412.74471712112427,412.74471712112427,414.12877130508423,1,1.515042781829834,None,,,,,,,,,,,,,,,,,,144,2,2025-02-27_11h30.29.250,comp,2024.2.4,48.150285964876026,2025-02-27 11h31.04.049692 -0500,
117,117,0,filler_square,None,None,None,None,None,None,None,None,None,None,3,0.9601800441741943,None,,,,,0,0,0,0,0,117,117,183,414.1449508666992,,,,,,,,,,,,,,,,,,,,,,,,,,,,,,,,,,,,,,,,,,,,,,,,,,,,,,,,,,,,,,,,,,,,,,,,,,,,,,,,,,80.33893390169771,60.06444613528445,69.16427744875264,63.82469538071795,87.25955660402258,87.25955660402258,1.0,1.1,-638,283,-480,278,-308,255,414.13060545921326,414.13068413734436,414.1341145038605,414.1449508666992,414.2954959869385,414.2954959869385,414.2954959869385,414.2954959869385,414.2954959869385,414.2954959869385,414.2954959869385,415.1106307506561,3,0.9601800441741943,None,,,,,,,,,,,,,,,,,,144,2,2025-02-27_11h30.29.250,comp,2024.2.4,48.150285964876026,2025-02-27 11h31.04.049692 -0500,
118,118,0,critical,dhw,35.0,1.0,upper,127.0,127.0,200.0,125.0,125.0,200.0,2,2.40567684173584,None,,,,,0,0,0,0,0,118,118,49,415.1314654350281,,,,,,,,,,,,,,,,,,,,,,,,,,,,,,,,,,,,,,,,,,,,,,,,,,,,,,,,,,,,,,,,,,,,,,,,,,,,,,,,,,127.0,127.0,200.0,125.0,125.0,200.0,1.0,1.2,-222,16,0,-12,258,6,415.1121735572815,415.1122479438782,415.11578035354614,415.1314654350281,415.26736664772034,415.26736664772034,415.26736664772034,415.26736664772034,415.26736664772034,415.26736664772034,415.26736664772034,417.5466408729553,2,2.40567684173584,None,,,,,,,,,,,,,,,,,,144,2,2025-02-27_11h30.29.250,comp,2024.2.4,48.150285964876026,2025-02-27 11h31.04.049692 -0500,
119,119,0,critical,hwd,35.0,4.0,lower,133.0,57.0,57.0,133.0,70.0,70.0,1,2.3901138305664062,None,,,,,0,0,0,0,0,119,119,100,417.56242632865906,,,,,,,,,,,,,,,,,,,,,,,,,,,,,,,,,,,,,,,,,,,,,,,,,,,,,,,,,,,,,,,,,,,,,,,,,,,,,,,,,,133.0,57.0,57.0,133.0,70.0,70.0,4.0,4.2,-191,7,0,-251,198,0,417.54818201065063,417.5482587814331,417.55163621902466,417.56242632865906,417.71332478523254,417.71332478523254,417.71332478523254,417.71332478523254,417.71332478523254,417.71332478523254,417.71332478523254,419.96525049209595,1,2.3901138305664062,None,,,,,,,,,,,,,,,,,,144,2,2025-02-27_11h30.29.250,comp,2024.2.4,48.150285964876026,2025-02-27 11h31.04.049692 -0500,
120,120,0,filler_square,None,None,None,None,None,None,None,None,None,None,3,4.974868297576904,None,,,,,0,0,0,0,0,120,120,193,419.9858067035675,,,,,,,,,,,,,,,,,,,,,,,,,,,,,,,,,,,,,,,,,,,,,,,,,,,,,,,,,,,,,,,,,,,,,,,,,,,,,,,,,,59.62466399304401,62.988721559775456,79.33651875722678,79.33651875722678,74.52652030736607,72.84053390442175,3.0,3.1,-167,262,0,15,172,-282,419.9670035839081,419.9671289920807,419.9701473712921,419.9858067035675,420.1311616897583,420.1311616897583,420.1311616897583,420.1311616897583,420.1311616897583,420.1311616897583,420.1311616897583,424.96600008010864,3,4.974868297576904,None,,,,,,,,,,,,,,,,,,144,2,2025-02-27_11h30.29.250,comp,2024.2.4,48.150285964876026,2025-02-27 11h31.04.049692 -0500,
121,121,0,filler_square,None,None,None,None,None,None,None,None,None,None,1,1.1917250156402588,None,,,,,0,0,0,0,0,121,121,170,424.98797488212585,,,,,,,,,,,,,,,,,,,,,,,,,,,,,,,,,,,,,,,,,,,,,,,,,,,,,,,,,,,,,,,,,,,,,,,,,,,,,,,,,,179.0522879838371,179.0522879838371,69.545892743672,148.73700922986075,103.29371218526668,119.8105048911595,1.0,1.3,220,-277,480,-281,710,-289,424.96766567230225,424.9677436351776,424.97077679634094,424.98797488212585,425.13215136528015,425.13215136528015,425.13215136528015,425.13215136528015,425.13215136528015,425.13215136528015,425.13215136528015,426.19682097435,1,1.1917250156402588,None,,,,,,,,,,,,,,,,,,144,2,2025-02-27_11h30.29.250,comp,2024.2.4,48.150285964876026,2025-02-27 11h31.04.049692 -0500,
122,122,0,filler_random,None,None,None,None,None,None,None,None,None,None,1,1.1042180061340332,None,,,,,0,0,0,0,0,122,122,134,426.217303276062,,,,,,,,,,,,,,,,,,,,,,,,,,,,,,,,,,,,,,,,,,,,,,,,,,,,,,,,,,,,,,,,,,,,,,,,,,,,,,,,,,147.5068951340793,145.67350781620092,135.1649554144567,143.51663092732255,58.078268660857155,83.65438286650085,4.0,4.1,-241,-268,0,12,210,-252,426.1985294818878,426.19860792160034,426.201566696167,426.217303276062,426.35026931762695,426.35026931762695,426.35026931762695,426.35026931762695,426.35026931762695,426.35026931762695,426.35026931762695,427.3368299007416,1,1.1042180061340332,None,,,,,,,,,,,,,,,,,,144,2,2025-02-27_11h30.29.250,comp,2024.2.4,48.150285964876026,2025-02-27 11h31.04.049692 -0500,
123,123,0,critical,whd,35.0,3.0,upper,125.0,200.0,200.0,125.0,127.0,127.0,1,2.288588285446167,None,,,,,0,0,0,0,0,123,123,87,427.35256719589233,,,,,,,,,,,,,,,,,,,,,,,,,,,,,,,,,,,,,,,,,,,,,,,,,,,,,,,,,,,,,,,,,,,,,,,,,,,,,,,,,,125.0,200.0,200.0,125.0,127.0,127.0,3.0,3.2,-258,-273,0,-17,222,274,427.3384909629822,427.3385663032532,427.34152483940125,427.35256719589233,427.4976136684418,427.4976136684418,427.4976136684418,427.4976136684418,427.4976136684418,427.4976136684418,427.4976136684418,429.6484889984131,1,2.288588285446167,None,,,,,,,,,,,,,,,,,,144,2,2025-02-27_11h30.29.250,comp,2024.2.4,48.150285964876026,2025-02-27 11h31.04.049692 -0500,
124,124,0,filler_random,None,None,None,None,None,None,None,None,None,None,3,2.3120577335357666,None,,,,,0,0,0,0,0,124,124,158,429.6650173664093,,,,,,,,,,,,,,,,,,,,,,,,,,,,,,,,,,,,,,,,,,,,,,,,,,,,,,,,,,,,,,,,,,,,,,,,,,,,,,,,,,181.0280123601035,88.94807417877124,59.74453000272924,184.1456534122578,193.51194712251726,100.14022215918556,3.0,3.2,-233,-280,0,-19,238,265,429.6501581668854,429.6502356529236,429.6531894207001,429.6650173664093,429.8200514316559,429.8200514316559,429.8200514316559,429.8200514316559,429.8200514316559,429.8200514316559,429.8200514316559,431.9843702316284,3,2.3120577335357666,None,,,,,,,,,,,,,,,,,,144,2,2025-02-27_11h30.29.250,comp,2024.2.4,48.150285964876026,2025-02-27 11h31.04.049692 -0500,
125,125,0,filler_random,None,None,None,None,None,None,None,None,None,None,3,1.200587272644043,None,,,,,0,0,0,0,0,125,125,167,432.0004482269287,,,,,,,,,,,,,,,,,,,,,,,,,,,,,,,,,,,,,,,,,,,,,,,,,,,,,,,,,,,,,,,,,,,,,,,,,,,,,,,,,,173.5183722048396,98.76832884735025,193.15205643616358,85.60472971206855,170.44637932278215,140.56600500788375,3.0,3.1,-188,263,0,2,209,-287,431.9860694408417,431.98614382743835,431.98957443237305,432.0004482269287,432.1500577926636,432.1500577926636,432.1500577926636,432.1500577926636,432.1500577926636,432.1500577926636,432.1500577926636,433.21829319000244,3,1.200587272644043,None,,,,,,,,,,,,,,,,,,144,2,2025-02-27_11h30.29.250,comp,2024.2.4,48.150285964876026,2025-02-27 11h31.04.049692 -0500,
126,126,0,critical,wdh,35.0,4.0,upper,125.0,200.0,127.0,127.0,200.0,125.0,1,2.038254499435425,None,,,,,0,0,0,0,0,126,126,77,433.23431420326233,,,,,,,,,,,,,,,,,,,,,,,,,,,,,,,,,,,,,,,,,,,,,,,,,,,,,,,,,,,,,,,,,,,,,,,,,,,,,,,,,,125.0,200.0,127.0,127.0,200.0,125.0,4.0,4.2,-260,-20,0,-273,222,-9,433.21983313560486,433.21995544433594,433.2240285873413,433.23431420326233,433.3852708339691,433.3852708339691,433.3852708339691,433.3852708339691,433.3852708339691,433.3852708339691,433.3852708339691,435.2865164279938,1,2.038254499435425,None,,,,,,,,,,,,,,,,,,144,2,2025-02-27_11h30.29.250,comp,2024.2.4,48.150285964876026,2025-02-27 11h31.04.049692 -0500,
127,127,0,filler_random,None,None,None,None,None,None,None,None,None,None,3,1.0427029132843018,None,,,,,0,0,0,0,0,127,127,148,435.3024628162384,,,,,,,,,,,,,,,,,,,,,,,,,,,,,,,,,,,,,,,,,,,,,,,,,,,,,,,,,,,,,,,,,,,,,,,,,,,,,,,,,,133.12573527419175,65.38136011035083,138.16337531913695,121.77499888485515,185.4540013627324,146.44136129518176,2.2,2.22,-190,252,0,-259,230,-258,435.28859972953796,435.28869104385376,435.2922251224518,435.3024628162384,435.45116090774536,435.45116090774536,435.45116090774536,435.45116090774536,435.45116090774536,435.45116090774536,435.45116090774536,436.3513431549072,3,1.0427029132843018,None,,,,,,,,,,,,,,,,,,144,2,2025-02-27_11h30.29.250,comp,2024.2.4,48.150285964876026,2025-02-27 11h31.04.049692 -0500,
128,128,0,filler_square,None,None,None,None,None,None,None,None,None,None,1,1.0334177017211914,None,,,,,0,0,0,0,0,128,128,174,436.36707162857056,,,,,,,,,,,,,,,,,,,,,,,,,,,,,,,,,,,,,,,,,,,,,,,,,,,,,,,,,,,,,,,,,,,,,,,,,,,,,,,,,,131.7793534499098,131.7793534499098,107.84119715629242,79.0251778914374,105.8422273879269,86.07409558457975,4.0,4.1,-201,-260,0,3,179,-272,436.3531074523926,436.3531858921051,436.356317281723,436.36707162857056,436.51979517936707,436.51979517936707,436.51979517936707,436.51979517936707,436.51979517936707,436.51979517936707,436.51979517936707,437.4034571647644,1,1.0334177017211914,None,,,,,,,,,,,,,,,,,,144,2,2025-02-27_11h30.29.250,comp,2024.2.4,48.150285964876026,2025-02-27 11h31.04.049692 -0500,
129,129,0,critical,whd,35.0,1.0,lower,57.0,133.0,133.0,57.0,70.0,70.0,1,1.7734112739562988,None,,,,,0,0,0,0,0,129,129,84,437.4195761680603,,,,,,,,,,,,,,,,,,,,,,,,,,,,,,,,,,,,,,,,,,,,,,,,,,,,,,,,,,,,,,,,,,,,,,,,,,,,,,,,,,57.0,133.0,133.0,57.0,70.0,70.0,1.0,1.2,-191,-14,0,17,160,12,437.40493965148926,437.4050226211548,437.40879106521606,437.4195761680603,437.574716091156,437.574716091156,437.574716091156,437.574716091156,437.574716091156,437.574716091156,437.574716091156,439.20429015159607,1,1.7734112739562988,None,,,,,,,,,,,,,,,,,,144,2,2025-02-27_11h30.29.250,comp,2024.2.4,48.150285964876026,2025-02-27 11h31.04.049692 -0500,
130,130,0,catch,None,None,None,None,None,None,None,None,None,None,2,1.1162781715393066,None,,,,,0,0,0,0,0,130,130,124,439.2209458351135,,,,,,,,,,,,,,,,,,,,,,,,,,,,,,,,,,,,,,,,,,,,,,,,,,,,,,,,,,,,,,,,,,,,,,,,,,,,,,,,,,100,90,154,171,66,124,2.2,2.21,-226,-256,0,257,244,273,439.20641708374023,439.2064971923828,439.21002864837646,439.2209458351135,439.36769366264343,439.36769366264343,439.36769366264343,439.36769366264343,439.36769366264343,439.36769366264343,439.36769366264343,440.339727640152,2,1.1162781715393066,None,,,,,,,,,,,,,,,,,,144,2,2025-02-27_11h30.29.250,comp,2024.2.4,48.150285964876026,2025-02-27 11h31.04.049692 -0500,
131,131,0,filler_square,None,None,None,None,None,None,None,None,None,None,3,1.1165649890899658,None,,,,,0,0,0,0,0,131,131,202,440.3559081554413,,,,,,,,,,,,,,,,,,,,,,,,,,,,,,,,,,,,,,,,,,,,,,,,,,,,,,,,,,,,,,,,,,,,,,,,,,,,,,,,,,67.69121100502107,64.7096617856225,68.84726325288874,90.70281947673809,94.24180273621243,94.24180273621243,1.0,1.3,306,-284,480,-251,668,-285,440.34154510498047,440.3416259288788,440.34476923942566,440.3559081554413,440.50519490242004,440.50519490242004,440.50519490242004,440.50519490242004,440.50519490242004,440.50519490242004,440.50519490242004,441.48657274246216,3,1.1165649890899658,None,,,,,,,,,,,,,,,,,,144,2,2025-02-27_11h30.29.250,comp,2024.2.4,48.150285964876026,2025-02-27 11h31.04.049692 -0500,
132,132,0,critical,dwh,35.0,3.0,lower,70.0,70.0,57.0,133.0,133.0,57.0,1,2.3697099685668945,None,,,,,0,0,0,0,0,132,132,62,441.5029695034027,,,,,,,,,,,,,,,,,,,,,,,,,,,,,,,,,,,,,,,,,,,,,,,,,,,,,,,,,,,,,,,,,,,,,,,,,,,,,,,,,,70.0,70.0,57.0,133.0,133.0,57.0,3.0,3.2,-198,-280,0,-1,191,275,441.4881944656372,441.4882686138153,441.49166655540466,441.5029695034027,441.658029794693,441.658029794693,441.658029794693,441.658029794693,441.658029794693,441.658029794693,441.658029794693,443.8884947299957,1,2.3697099685668945,None,,,,,,,,,,,,,,,,,,144,2,2025-02-27_11h30.29.250,comp,2024.2.4,48.150285964876026,2025-02-27 11h31.04.049692 -0500,
133,133,0,filler_square,None,None,None,None,None,None,None,None,None,None,1,1.7287912368774414,None,,,,,0,0,0,0,0,133,133,172,443.9041574001312,,,,,,,,,,,,,,,,,,,,,,,,,,,,,,,,,,,,,,,,,,,,,,,,,,,,,,,,,,,,,,,,,,,,,,,,,,,,,,,,,,75.4200724030016,75.4200724030016,65.41247506385022,69.75706062947604,71.63514605662652,62.64943972297906,1.0,1.2,-169,17,0,0,162,-12,443.8902122974396,443.8902847766876,443.8938150405884,443.9041574001312,444.0572395324707,444.0572395324707,444.0572395324707,444.0572395324707,444.0572395324707,444.0572395324707,444.0572395324707,445.63691425323486,1,1.7287912368774414,None,,,,,,,,,,,,,,,,,,144,2,2025-02-27_11h30.29.250,comp,2024.2.4,48.150285964876026,2025-02-27 11h31.04.049692 -0500,
134,134,0,critical,whd,20.0,3.0,upper,125.0,200.0,200.0,125.0,141.0,141.0,1,1.7481541633605957,None,,,,,0,0,0,0,0,134,134,93,445.653174161911,,,,,,,,,,,,,,,,,,,,,,,,,,,,,,,,,,,,,,,,,,,,,,,,,,,,,,,,,,,,,,,,,,,,,,,,,,,,,,,,,,125.0,200.0,200.0,125.0,141.0,141.0,3.0,3.2,-258,-290,0,17,229,263,445.638427734375,445.63850474357605,445.64192485809326,445.653174161911,445.80468344688416,445.80468344688416,445.80468344688416,445.80468344688416,445.80468344688416,445.80468344688416,445.80468344688416,447.404150724411,1,1.7481541633605957,None,,,,,,,,,,,,,,,,,,144,2,2025-02-27_11h30.29.250,comp,2024.2.4,48.150285964876026,2025-02-27 11h31.04.049692 -0500,
135,135,0,filler_random,None,None,None,None,None,None,None,None,None,None,3,1.1412420272827148,None,,,,,0,0,0,0,0,135,135,138,447.41997146606445,,,,,,,,,,,,,,,,,,,,,,,,,,,,,,,,,,,,,,,,,,,,,,,,,,,,,,,,,,,,,,,,,,,,,,,,,,,,,,,,,,135.31086072116648,120.0807556729074,134.90680313653957,63.84728214347765,95.8049839295047,182.98730471466618,2.1,2.11,-188,259,0,272,219,-254,447.40576338768005,447.4058401584625,447.40890073776245,447.41997146606445,447.5711646080017,447.5711646080017,447.5711646080017,447.5711646080017,447.5711646080017,447.5711646080017,447.5711646080017,448.5727593898773,3,1.1412420272827148,None,,,,,,,,,,,,,,,,,,144,2,2025-02-27_11h30.29.250,comp,2024.2.4,48.150285964876026,2025-02-27 11h31.04.049692 -0500,
136,136,0,critical,hdw,35.0,2.1,lower,133.0,57.0,70.0,70.0,57.0,133.0,1,3.955254077911377,None,,,,,0,0,0,0,0,136,136,44,448.5892391204834,,,,,,,,,,,,,,,,,,,,,,,,,,,,,,,,,,,,,,,,,,,,,,,,,,,,,,,,,,,,,,,,,,,,,,,,,,,,,,,,,,133.0,57.0,70.0,70.0,57.0,133.0,2.1,2.12,-160,-283,0,-258,198,270,448.57455563545227,448.57469415664673,448.57836651802063,448.5892391204834,448.74419689178467,448.74419689178467,448.74419689178467,448.74419689178467,448.74419689178467,448.74419689178467,448.74419689178467,452.56564712524414,1,3.955254077911377,None,,,,,,,,,,,,,,,,,,144,2,2025-02-27_11h30.29.250,comp,2024.2.4,48.150285964876026,2025-02-27 11h31.04.049692 -0500,
137,137,0,critical,hwd,20.0,1.0,upper,200.0,125.0,125.0,200.0,141.0,141.0,1,4.305833339691162,None,,,,,0,0,0,0,0,137,137,103,452.58282566070557,,,,,,,,,,,,,,,,,,,,,,,,,,,,,,,,,,,,,,,,,,,,,,,,,,,,,,,,,,,,,,,,,,,,,,,,,,,,,,,,,,200.0,125.0,125.0,200.0,141.0,141.0,1.0,1.3,222,-276,480,-278,746,-262,452.567209482193,452.5672857761383,452.57022738456726,452.58282566070557,452.72452211380005,452.72452211380005,452.72452211380005,452.72452211380005,452.72452211380005,452.72452211380005,452.72452211380005,456.8923079967499,1,4.305833339691162,None,,,,,,,,,,,,,,,,,,144,2,2025-02-27_11h30.29.250,comp,2024.2.4,48.150285964876026,2025-02-27 11h31.04.049692 -0500,
138,138,0,filler_square,None,None,None,None,None,None,None,None,None,None,2,2.524019241333008,None,,,,,0,0,0,0,0,138,138,190,456.90862345695496,,,,,,,,,,,,,,,,,,,,,,,,,,,,,,,,,,,,,,,,,,,,,,,,,,,,,,,,,,,,,,,,,,,,,,,,,,,,,,,,,,71.25746073001515,63.15371681874399,75.99178187403602,75.99178187403602,58.82691883917855,66.09424366975215,4.0,4.1,-166,-277,0,6,167,-263,456.89424324035645,456.894323348999,456.897828578949,456.90862345695496,457.0601990222931,457.0601990222931,457.0601990222931,457.0601990222931,457.0601990222931,457.0601990222931,457.0601990222931,459.44450306892395,2,2.524019241333008,None,,,,,,,,,,,,,,,,,,144,2,2025-02-27_11h30.29.250,comp,2024.2.4,48.150285964876026,2025-02-27 11h31.04.049692 -0500,
