thisN,thisTrialN,thisRepN,effect,order,distance,config,diag,h_1,w_1,h_2,w_2,h_3,w_3,rect_choice.keys,rect_choice.rt,rect_choice.duration,instructions_loop.thisRepN,instructions_loop.thisTrialN,instructions_loop.thisN,instructions_loop.thisIndex,blocks.thisRepN,blocks.thisTrialN,blocks.thisN,blocks.thisIndex,trials.thisRepN,trials.thisTrialN,trials.thisN,trials.thisIndex,thisRow.t,notes,consent.started,agree_button.started,decline_button.started,consent_img.started,mouse.started,consent.stopped,agree_button.numClicks,agree_button.timesOn,agree_button.timesOff,decline_button.numClicks,decline_button.timesOn,decline_button.timesOff,mouse.x,mouse.y,mouse.leftButton,mouse.midButton,mouse.rightButton,mouse.time,mouse.clicked_name,exp_params.started,exp_params.stopped,welcome.started,welcome_text.started,welcome.stopped,instructions_1.started,instructions_1_text_1.started,instructions_1_text_2.started,key_resp.started,instructions_1.stopped,instructions_loop.key_resp.keys,instructions_loop.key_resp.rt,instructions_loop.key_resp.duration,instructions_2.started,instructions_2_text_1.started,instructions_2_text_2.started,key_resp_2.started,instructions_2.stopped,instructions_loop.key_resp_2.keys,instructions_loop.key_resp_2.rt,instructions_loop.key_resp_2.duration,instructions_3.started,instructions_3_text_1.started,r1_instr3.started,r2_instr3.started,r3_instr3.started,r1_instr3_label.started,r2_instr3_label.started,r3_instr3_label.started,instructions_3_text_3.started,instructions_3_text_4.started,key_resp_3.started,instructions_3.stopped,instructions_loop.key_resp_3.keys,instructions_loop.key_resp_3.rt,instructions_loop.key_resp_3.duration,instructions_4.started,instructions_4_text_1.started,instructions_4_text_3.started,instructions_4_text_2.started,key_resp_4.started,instructions_4.stopped,instructions_loop.key_resp_4.keys,instructions_loop.key_resp_4.rt,instructions_loop.key_resp_4.duration,instructions_5.started,instructions_5_text_1.started,instructions_5_text_2.started,key_resp_5.started,instructions_5.stopped,instructions_loop.key_resp_5.keys,instructions_loop.key_resp_5.rt,instructions_loop.key_resp_5.duration,start_exp.started,start_exp_text.started,key_resp_6.started,start_exp.stopped,key_resp_6.keys,key_resp_6.rt,key_resp_6.duration,h_1_tmp,w_1_tmp,h_2_tmp,w_2_tmp,h_3_tmp,w_3_tmp,config_tmp,config_tmp_1,r_1_x,r_1_y,r_2_x,r_2_y,r_3_x,r_3_y,pre_trial.started,pre_trial.stopped,choice_trial.started,rect_choice.started,r_1.started,r_2.started,r_3.started,r_1_label.started,r_2_label.started,r_3_label.started,prompt.started,choice_trial.stopped,trials.rect_choice.keys,trials.rect_choice.rt,trials.rect_choice.duration,end_block.started,end_block_text.started,end_block.stopped,end.started,end_text.started,key_resp_7.started,end.stopped,key_resp_7.keys,key_resp_7.rt,key_resp_7.duration,debriefing.started,debrief_form.started,end_debrief.started,debriefing.stopped,end_debrief.keys,end_debrief.rt,end_debrief.duration,participant,computer,date,expName,psychopyVersion,frameRate,expStart,
,,,,,,,,,,,,,,,,,,,,,,,,,,,,,,,0.014736413955688477,0.03758525848388672,0.03758525848388672,0.03758525848388672,0.014512300491333008,105.2379105091095,1,[105.19755530357361],[105.19757723808289],0,,,[-58.0],[-498.0],[1],[0],[0],[105.22260785102844],['agree_button'],,,,,,,,,,,,,,,,,,,,,,,,,,,,,,,,,,,,,,,,,,,,,,,,,,,,,,,,,,,,,,,,,,,,,,,,,,,,,,,,,,,,,,,,,,,,,,,,,,,,,,,,,,,145,1,2025-02-27_13h19.32.581,comp,2024.2.4,58.071458437750074,2025-02-27 13h19.43.015634 -0500,
,,,,,,,,,,,,,,,,,,,,,,,,,,,,,,,,,,,,,,,,,,,,,,,,,,105.23847818374634,105.2385606765747,,,,,,,,,,,,,,,,,,,,,,,,,,,,,,,,,,,,,,,,,,,,,,,,,,,,,,,,,,,,,,,,,,,,,,,,,,,,,,,,,,,,,,,,,,,,,,,,,,,,,,,,,145,1,2025-02-27_13h19.32.581,comp,2024.2.4,58.071458437750074,2025-02-27 13h19.43.015634 -0500,
,,,,,,,,,,,,,,,,,,,,,,,,,,,,,,,,,,,,,,,,,,,,,,,,,,,,105.23863816261292,105.25238561630249,107.24684071540833,,,,,,,,,,,,,,,,,,,,,,,,,,,,,,,,,,,,,,,,,,,,,,,,,,,,,,,,,,,,,,,,,,,,,,,,,,,,,,,,,,,,,,,,,,,,,,,,,,,,,,145,1,2025-02-27_13h19.32.581,comp,2024.2.4,58.071458437750074,2025-02-27 13h19.43.015634 -0500,
0,0,0,,,,,,,,,,,,,,,0,0,0,0,,,,,,,,,107.26333403587341,,,,,,,,,,,,,,,,,,,,,,,,,,107.24840021133423,107.26333403587341,107.26333403587341,108.74257636070251,113.33095622062683,space,4.578879117965698,None,113.3311026096344,113.3465838432312,113.3465838432312,114.82606267929077,123.65148711204529,space,8.815575122833252,None,123.65164065361023,123.68009543418884,123.68009543418884,123.68009543418884,123.68009543418884,123.68009543418884,123.68009543418884,123.68009543418884,123.68009543418884,123.68009543418884,125.15950584411621,142.89080119132996,space,17.721397399902344,None,142.8909592628479,142.9085338115692,142.9085338115692,142.9085338115692,144.40336513519287,151.9433798789978,space,7.525819540023804,None,151.9435329437256,151.9582064151764,151.9582064151764,153.45842385292053,155.46018505096436,space,1.998335361480713,None,155.46041703224182,155.47639274597168,155.47639274597168,156.8761534690857,space,1.3966939449310303,None,,,,,,,,,,,,,,,,,,,,,,,,,,,,,,,,,,,,,,,,,,,,,,,145,1,2025-02-27_13h19.32.581,comp,2024.2.4,58.071458437750074,2025-02-27 13h19.43.015634 -0500,
0,0,0,critical,whd,20.0,3.0,upper,125.0,200.0,200.0,125.0,141.0,141.0,1,18.518486261367798,None,,,,,0,0,0,0,0,0,0,93,156.9550266265869,,,,,,,,,,,,,,,,,,,,,,,,,,,,,,,,,,,,,,,,,,,,,,,,,,,,,,,,,,,,,,,,,,,,,,,,,,,,,,,,,125.0,200.0,200.0,125.0,141.0,141.0,3.0,3.2,-258,-274,0,-2,229,269,156.9381685256958,156.9382073879242,156.9397053718567,156.9550266265869,157.10414695739746,157.10414695739746,157.10414695739746,157.10414695739746,157.10414695739746,157.10414695739746,157.10414695739746,175.484313249588,1,18.518486261367798,None,,,,,,,,,,,,,,,,,,145,1,2025-02-27_13h19.32.581,comp,2024.2.4,58.071458437750074,2025-02-27 13h19.43.015634 -0500,
1,1,0,critical,hdw,20.0,3.0,lower,133.0,57.0,78.0,78.0,57.0,133.0,2,18.365679025650024,None,,,,,0,0,0,0,0,1,1,116,175.49986028671265,,,,,,,,,,,,,,,,,,,,,,,,,,,,,,,,,,,,,,,,,,,,,,,,,,,,,,,,,,,,,,,,,,,,,,,,,,,,,,,,,133.0,57.0,78.0,78.0,57.0,133.0,3.0,3.2,-164,-260,0,-11,202,251,175.48570656776428,175.48576855659485,175.4889943599701,175.49986028671265,175.6547966003418,175.6547966003418,175.6547966003418,175.6547966003418,175.6547966003418,175.6547966003418,175.6547966003418,193.87375164031982,2,18.365679025650024,None,,,,,,,,,,,,,,,,,,145,1,2025-02-27_13h19.32.581,comp,2024.2.4,58.071458437750074,2025-02-27 13h19.43.015634 -0500,
2,2,0,filler_square,None,None,None,None,None,None,None,None,None,None,3,13.278970956802368,None,,,,,0,0,0,0,0,2,2,186,193.89056539535522,,,,,,,,,,,,,,,,,,,,,,,,,,,,,,,,,,,,,,,,,,,,,,,,,,,,,,,,,,,,,,,,,,,,,,,,,,,,,,,,,66.13086842956551,58.113377210449585,78.2467024994753,78.2467024994753,75.12257396477739,76.8323903638566,2.2,2.21,-164,-266,0,281,174,254,193.87540793418884,193.8754918575287,193.8787648677826,193.89056539535522,194.03944540023804,194.03944540023804,194.03944540023804,194.03944540023804,194.03944540023804,194.03944540023804,194.03944540023804,207.17642092704773,3,13.278970956802368,None,,,,,,,,,,,,,,,,,,145,1,2025-02-27_13h19.32.581,comp,2024.2.4,58.071458437750074,2025-02-27 13h19.43.015634 -0500,
3,3,0,catch,None,None,None,None,None,None,None,None,None,None,3,0.07929611206054688,None,,,,,0,0,0,0,0,3,3,128,207.1936218738556,,,,,,,,,,,,,,,,,,,,,,,,,,,,,,,,,,,,,,,,,,,,,,,,,,,,,,,,,,,,,,,,,,,,,,,,,,,,,,,,,110,80,78,112,161,164,3.0,3.1,-192,260,0,2,234,-282,207.17862129211426,207.17870354652405,207.18222665786743,207.1936218738556,,,,,,,,207.29212188720703,3,0.07929611206054688,None,,,,,,,,,,,,,,,,,,145,1,2025-02-27_13h19.32.581,comp,2024.2.4,58.071458437750074,2025-02-27 13h19.43.015634 -0500,
4,4,0,critical,dwh,35.0,1.0,upper,127.0,127.0,125.0,200.0,200.0,125.0,1,12.562898874282837,None,,,,,0,0,0,0,0,4,4,61,207.3098967075348,,,,,,,,,,,,,,,,,,,,,,,,,,,,,,,,,,,,,,,,,,,,,,,,,,,,,,,,,,,,,,,,,,,,,,,,,,,,,,,,,127.0,127.0,125.0,200.0,200.0,125.0,1.0,1.3,220,-272,480,-255,738,-261,207.29368472099304,207.29375863075256,207.29710364341736,207.3098967075348,207.45886206626892,207.45886206626892,207.45886206626892,207.45886206626892,207.45886206626892,207.45886206626892,207.45886206626892,219.8871910572052,1,12.562898874282837,None,,,,,,,,,,,,,,,,,,145,1,2025-02-27_13h19.32.581,comp,2024.2.4,58.071458437750074,2025-02-27 13h19.43.015634 -0500,
5,5,0,critical,dwh,20.0,2.1,lower,78.0,78.0,57.0,133.0,133.0,57.0,1,10.469688892364502,None,,,,,0,0,0,0,0,5,5,6,219.9077754020691,,,,,,,,,,,,,,,,,,,,,,,,,,,,,,,,,,,,,,,,,,,,,,,,,,,,,,,,,,,,,,,,,,,,,,,,,,,,,,,,,78.0,78.0,57.0,133.0,133.0,57.0,2.1,2.12,-202,-286,0,-289,191,260,219.88879990577698,219.888897895813,219.89220714569092,219.9077754020691,220.0477204322815,220.0477204322815,220.0477204322815,220.0477204322815,220.0477204322815,220.0477204322815,220.0477204322815,230.3837926387787,1,10.469688892364502,None,,,,,,,,,,,,,,,,,,145,1,2025-02-27_13h19.32.581,comp,2024.2.4,58.071458437750074,2025-02-27 13h19.43.015634 -0500,
6,6,0,critical,dwh,20.0,1.0,upper,141.0,141.0,125.0,200.0,200.0,125.0,1,5.9288763999938965,None,,,,,0,0,0,0,0,6,6,67,230.4001100063324,,,,,,,,,,,,,,,,,,,,,,,,,,,,,,,,,,,,,,,,,,,,,,,,,,,,,,,,,,,,,,,,,,,,,,,,,,,,,,,,,141.0,141.0,125.0,200.0,200.0,125.0,1.0,1.1,-746,254,-480,269,-222,282,230.3854832649231,230.38561606407166,230.3890573978424,230.4001100063324,230.55080270767212,230.55080270767212,230.55080270767212,230.55080270767212,230.55080270767212,230.55080270767212,230.55080270767212,236.3418619632721,1,5.9288763999938965,None,,,,,,,,,,,,,,,,,,145,1,2025-02-27_13h19.32.581,comp,2024.2.4,58.071458437750074,2025-02-27 13h19.43.015634 -0500,
7,7,0,critical,hwd,20.0,3.0,upper,200.0,125.0,125.0,200.0,141.0,141.0,2,14.675414800643921,None,,,,,0,0,0,0,0,7,7,105,236.35815477371216,,,,,,,,,,,,,,,,,,,,,,,,,,,,,,,,,,,,,,,,,,,,,,,,,,,,,,,,,,,,,,,,,,,,,,,,,,,,,,,,,200.0,125.0,125.0,200.0,141.0,141.0,3.0,3.2,-258,-262,0,17,266,277,236.34347343444824,236.34357523918152,236.3468508720398,236.35815477371216,236.50798273086548,236.50798273086548,236.50798273086548,236.50798273086548,236.50798273086548,236.50798273086548,236.50798273086548,251.04047846794128,2,14.675414800643921,None,,,,,,,,,,,,,,,,,,145,1,2025-02-27_13h19.32.581,comp,2024.2.4,58.071458437750074,2025-02-27 13h19.43.015634 -0500,
8,8,0,filler_square,None,None,None,None,None,None,None,None,None,None,1,3.936659574508667,None,,,,,0,0,0,0,0,8,8,192,251.05682468414307,,,,,,,,,,,,,,,,,,,,,,,,,,,,,,,,,,,,,,,,,,,,,,,,,,,,,,,,,,,,,,,,,,,,,,,,,,,,,,,,,159.50104885473186,159.50104885473186,98.35033865022069,158.126214180387,60.304307087621325,76.98166942736235,2.1,2.11,-255,287,0,282,214,-284,251.04226899147034,251.04237294197083,251.04577136039734,251.05682468414307,251.20556354522705,251.20556354522705,251.20556354522705,251.20556354522705,251.20556354522705,251.20556354522705,251.20556354522705,254.99565386772156,1,3.936659574508667,None,,,,,,,,,,,,,,,,,,145,1,2025-02-27_13h19.32.581,comp,2024.2.4,58.071458437750074,2025-02-27 13h19.43.015634 -0500,
9,9,0,filler_random,None,None,None,None,None,None,None,None,None,None,3,9.100091218948364,None,,,,,0,0,0,0,0,9,9,159,255.01305866241455,,,,,,,,,,,,,,,,,,,,,,,,,,,,,,,,,,,,,,,,,,,,,,,,,,,,,,,,,,,,,,,,,,,,,,,,,,,,,,,,,103.4396576228433,109.60247715213326,95.02894312320736,155.21775849879785,146.93373725205228,109.75149370612185,2.2,2.21,-228,-278,0,256,228,275,254.99774813652039,254.99783062934875,255.00118851661682,255.01305866241455,255.1577455997467,255.1577455997467,255.1577455997467,255.1577455997467,255.1577455997467,255.1577455997467,255.1577455997467,264.1275770664215,3,9.100091218948364,None,,,,,,,,,,,,,,,,,,145,1,2025-02-27_13h19.32.581,comp,2024.2.4,58.071458437750074,2025-02-27 13h19.43.015634 -0500,
10,10,0,filler_square,None,None,None,None,None,None,None,None,None,None,3,7.002867221832275,None,,,,,0,0,0,0,0,10,10,178,264.1431097984314,,,,,,,,,,,,,,,,,,,,,,,,,,,,,,,,,,,,,,,,,,,,,,,,,,,,,,,,,,,,,,,,,,,,,,,,,,,,,,,,,117.16479445365573,110.68747207970424,75.18912109467479,130.0781584704557,132.00883877640825,132.00883877640825,1.0,1.2,-216,-17,0,-5,227,18,264.12951588630676,264.12959599494934,264.1327760219574,264.1431097984314,264.2927575111389,264.2927575111389,264.2927575111389,264.2927575111389,264.2927575111389,264.2927575111389,264.2927575111389,271.15094542503357,3,7.002867221832275,None,,,,,,,,,,,,,,,,,,145,1,2025-02-27_13h19.32.581,comp,2024.2.4,58.071458437750074,2025-02-27 13h19.43.015634 -0500,
11,11,0,critical,whd,35.0,1.0,lower,57.0,133.0,133.0,57.0,70.0,70.0,3,10.952922582626343,None,,,,,0,0,0,0,0,11,11,84,271.16812920570374,,,,,,,,,,,,,,,,,,,,,,,,,,,,,,,,,,,,,,,,,,,,,,,,,,,,,,,,,,,,,,,,,,,,,,,,,,,,,,,,,57.0,133.0,133.0,57.0,70.0,70.0,1.0,1.3,289,-275,480,-265,640,-276,271.15269136428833,271.152827501297,271.15630292892456,271.16812920570374,271.31693291664124,271.31693291664124,271.31693291664124,271.31693291664124,271.31693291664124,271.31693291664124,271.31693291664124,282.13399839401245,3,10.952922582626343,None,,,,,,,,,,,,,,,,,,145,1,2025-02-27_13h19.32.581,comp,2024.2.4,58.071458437750074,2025-02-27 13h19.43.015634 -0500,
12,12,0,catch,None,None,None,None,None,None,None,None,None,None,1,1.8533315658569336,None,,,,,0,0,0,0,0,12,12,120,282.1561379432678,,,,,,,,,,,,,,,,,,,,,,,,,,,,,,,,,,,,,,,,,,,,,,,,,,,,,,,,,,,,,,,,,,,,,,,,,,,,,,,,,199,126,86,104,70,120,4.0,4.2,-211,-14,0,-277,208,18,282.1359484195709,282.13603043556213,282.1391499042511,282.1561379432678,282.29910135269165,282.29910135269165,282.29910135269165,282.29910135269165,282.29910135269165,282.29910135269165,282.29910135269165,284.0191879272461,1,1.8533315658569336,None,,,,,,,,,,,,,,,,,,145,1,2025-02-27_13h19.32.581,comp,2024.2.4,58.071458437750074,2025-02-27 13h19.43.015634 -0500,
13,13,0,filler_random,None,None,None,None,None,None,None,None,None,None,2,5.8887083530426025,None,,,,,0,0,0,0,0,13,13,156,284.0402147769928,,,,,,,,,,,,,,,,,,,,,,,,,,,,,,,,,,,,,,,,,,,,,,,,,,,,,,,,,,,,,,,,,,,,,,,,,,,,,,,,,62.34747913926612,196.67601230802126,141.2829418586627,106.77702135344515,85.73609353311971,78.8730739694875,3.0,3.1,-248,269,0,-20,189,-275,284.02118277549744,284.0212640762329,284.024432182312,284.0402147769928,284.18420815467834,284.18420815467834,284.18420815467834,284.18420815467834,284.18420815467834,284.18420815467834,284.18420815467834,289.94402861595154,2,5.8887083530426025,None,,,,,,,,,,,,,,,,,,145,1,2025-02-27_13h19.32.581,comp,2024.2.4,58.071458437750074,2025-02-27 13h19.43.015634 -0500,
14,14,0,critical,dhw,20.0,4.0,upper,141.0,141.0,200.0,125.0,125.0,200.0,1,15.497456312179565,None,,,,,0,0,0,0,0,14,14,59,289.95957684516907,,,,,,,,,,,,,,,,,,,,,,,,,,,,,,,,,,,,,,,,,,,,,,,,,,,,,,,,,,,,,,,,,,,,,,,,,,,,,,,,,141.0,141.0,200.0,125.0,125.0,200.0,4.0,4.2,-229,7,0,-261,258,1,289.94571900367737,289.9457936286926,289.9490714073181,289.95957684516907,290.10685753822327,290.10685753822327,290.10685753822327,290.10685753822327,290.10685753822327,290.10685753822327,290.10685753822327,305.47386741638184,1,15.497456312179565,None,,,,,,,,,,,,,,,,,,145,1,2025-02-27_13h19.32.581,comp,2024.2.4,58.071458437750074,2025-02-27 13h19.43.015634 -0500,
15,15,0,critical,hwd,20.0,1.0,lower,133.0,57.0,57.0,133.0,78.0,78.0,3,5.583824634552002,None,,,,,0,0,0,0,0,15,15,102,305.48937153816223,,,,,,,,,,,,,,,,,,,,,,,,,,,,,,,,,,,,,,,,,,,,,,,,,,,,,,,,,,,,,,,,,,,,,,,,,,,,,,,,,133.0,57.0,57.0,133.0,78.0,78.0,1.0,1.2,-191,3,0,-19,202,-6,305.47540307044983,305.47550082206726,305.4789638519287,305.48937153816223,305.6407458782196,305.6407458782196,305.6407458782196,305.6407458782196,305.6407458782196,305.6407458782196,305.6407458782196,311.0911281108856,3,5.583824634552002,None,,,,,,,,,,,,,,,,,,145,1,2025-02-27_13h19.32.581,comp,2024.2.4,58.071458437750074,2025-02-27 13h19.43.015634 -0500,
16,16,0,critical,hdw,20.0,2.1,upper,200.0,125.0,141.0,141.0,125.0,200.0,2,5.743405342102051,None,,,,,0,0,0,0,0,16,16,23,311.1066017150879,,,,,,,,,,,,,,,,,,,,,,,,,,,,,,,,,,,,,,,,,,,,,,,,,,,,,,,,,,,,,,,,,,,,,,,,,,,,,,,,,200.0,125.0,141.0,141.0,125.0,200.0,2.1,2.12,-229,-266,0,-256,266,258,311.0926892757416,311.0927665233612,311.09597659111023,311.1066017150879,311.25953793525696,311.25953793525696,311.25953793525696,311.25953793525696,311.25953793525696,311.25953793525696,311.25953793525696,316.861145734787,2,5.743405342102051,None,,,,,,,,,,,,,,,,,,145,1,2025-02-27_13h19.32.581,comp,2024.2.4,58.071458437750074,2025-02-27 13h19.43.015634 -0500,
17,17,0,critical,wdh,35.0,2.1,lower,57.0,133.0,70.0,70.0,133.0,57.0,3,13.819928884506226,None,,,,,0,0,0,0,0,17,17,8,316.87717843055725,,,,,,,,,,,,,,,,,,,,,,,,,,,,,,,,,,,,,,,,,,,,,,,,,,,,,,,,,,,,,,,,,,,,,,,,,,,,,,,,,57.0,133.0,70.0,70.0,133.0,57.0,2.1,2.11,-198,270,0,280,160,-285,316.86278891563416,316.8628625869751,316.86625480651855,316.87717843055725,317.0291745662689,317.0291745662689,317.0291745662689,317.0291745662689,317.0291745662689,317.0291745662689,317.0291745662689,330.7144567966461,3,13.819928884506226,None,,,,,,,,,,,,,,,,,,145,1,2025-02-27_13h19.32.581,comp,2024.2.4,58.071458437750074,2025-02-27 13h19.43.015634 -0500,
18,18,0,filler_square,None,None,None,None,None,None,None,None,None,None,1,1.7811076641082764,None,,,,,0,0,0,0,0,18,18,198,330.73195815086365,,,,,,,,,,,,,,,,,,,,,,,,,,,,,,,,,,,,,,,,,,,,,,,,,,,,,,,,,,,,,,,,,,,,,,,,,,,,,,,,,139.6552973011323,139.6552973011323,129.28519819785896,100.97615366552013,65.24181672514167,60.7977361275329,2.1,2.11,-216,286,0,274,177,-285,330.716445684433,330.71654415130615,330.720587015152,330.73195815086365,330.86749958992004,330.86749958992004,330.86749958992004,330.86749958992004,330.86749958992004,330.86749958992004,330.86749958992004,332.52467942237854,1,1.7811076641082764,None,,,,,,,,,,,,,,,,,,145,1,2025-02-27_13h19.32.581,comp,2024.2.4,58.071458437750074,2025-02-27 13h19.43.015634 -0500,
19,19,0,filler_square,None,None,None,None,None,None,None,None,None,None,1,2.7704155445098877,None,,,,,0,0,0,0,0,19,19,197,332.54345536231995,,,,,,,,,,,,,,,,,,,,,,,,,,,,,,,,,,,,,,,,,,,,,,,,,,,,,,,,,,,,,,,,,,,,,,,,,,,,,,,,,171.50985554540733,171.50985554540733,108.52124441077613,63.48335968020476,116.31593354244326,58.70147350895326,2.2,2.21,-213,-275,0,268,157,268,332.52648758888245,332.52656865119934,332.5294728279114,332.54345536231995,332.68386363983154,332.68386363983154,332.68386363983154,332.68386363983154,332.68386363983154,332.68386363983154,332.68386363983154,335.3188524246216,1,2.7704155445098877,None,,,,,,,,,,,,,,,,,,145,1,2025-02-27_13h19.32.581,comp,2024.2.4,58.071458437750074,2025-02-27 13h19.43.015634 -0500,
20,20,0,critical,whd,20.0,1.0,lower,57.0,133.0,133.0,57.0,78.0,78.0,3,10.409844160079956,None,,,,,0,0,0,0,0,20,20,90,335.33596444129944,,,,,,,,,,,,,,,,,,,,,,,,,,,,,,,,,,,,,,,,,,,,,,,,,,,,,,,,,,,,,,,,,,,,,,,,,,,,,,,,,57.0,133.0,133.0,57.0,78.0,78.0,1.0,1.2,-191,-4,0,14,164,5,335.32064628601074,335.3207275867462,335.32460927963257,335.33596444129944,335.4865093231201,335.4865093231201,335.4865093231201,335.4865093231201,335.4865093231201,335.4865093231201,335.4865093231201,345.7538456916809,3,10.409844160079956,None,,,,,,,,,,,,,,,,,,145,1,2025-02-27_13h19.32.581,comp,2024.2.4,58.071458437750074,2025-02-27 13h19.43.015634 -0500,
21,21,0,filler_square,None,None,None,None,None,None,None,None,None,None,2,4.90128755569458,None,,,,,0,0,0,0,0,21,21,175,345.77176690101624,,,,,,,,,,,,,,,,,,,,,,,,,,,,,,,,,,,,,,,,,,,,,,,,,,,,,,,,,,,,,,,,,,,,,,,,,,,,,,,,,61.124661675500214,93.87796373395376,99.60524332120175,99.60524332120175,74.90512333857022,66.17899905609012,2.2,2.21,-193,-278,0,276,179,274,345.75582814216614,345.7559266090393,345.75931310653687,345.77176690101624,345.91686153411865,345.91686153411865,345.91686153411865,345.91686153411865,345.91686153411865,345.91686153411865,345.91686153411865,350.68539237976074,2,4.90128755569458,None,,,,,,,,,,,,,,,,,,145,1,2025-02-27_13h19.32.581,comp,2024.2.4,58.071458437750074,2025-02-27 13h19.43.015634 -0500,
22,22,0,critical,hwd,35.0,4.0,upper,200.0,125.0,125.0,200.0,127.0,127.0,1,5.507005453109741,None,,,,,0,0,0,0,0,22,22,101,350.7021961212158,,,,,,,,,,,,,,,,,,,,,,,,,,,,,,,,,,,,,,,,,,,,,,,,,,,,,,,,,,,,,,,,,,,,,,,,,,,,,,,,,200.0,125.0,125.0,200.0,127.0,127.0,4.0,4.1,-258,-259,0,-3,260,-274,350.68690252304077,350.6869783401489,350.6899251937866,350.7021961212158,350.84288692474365,350.84288692474365,350.84288692474365,350.84288692474365,350.84288692474365,350.84288692474365,350.84288692474365,356.2232120037079,1,5.507005453109741,None,,,,,,,,,,,,,,,,,,145,1,2025-02-27_13h19.32.581,comp,2024.2.4,58.071458437750074,2025-02-27 13h19.43.015634 -0500,
23,23,0,filler_random,None,None,None,None,None,None,None,None,None,None,3,2.429464340209961,None,,,,,0,0,0,0,0,23,23,164,356.2385575771332,,,,,,,,,,,,,,,,,,,,,,,,,,,,,,,,,,,,,,,,,,,,,,,,,,,,,,,,,,,,,,,,,,,,,,,,,,,,,,,,,76.05021422698525,157.58516937215305,117.69505318241497,109.29199763799221,96.9340137599024,135.242647514956,4.0,4.1,-229,-284,0,12,218,-266,356.22484707832336,356.2249219417572,356.2282464504242,356.2385575771332,356.3903706073761,356.3903706073761,356.3903706073761,356.3903706073761,356.3903706073761,356.3903706073761,356.3903706073761,358.67295718193054,3,2.429464340209961,None,,,,,,,,,,,,,,,,,,145,1,2025-02-27_13h19.32.581,comp,2024.2.4,58.071458437750074,2025-02-27 13h19.43.015634 -0500,
24,24,0,critical,wdh,20.0,2.1,lower,57.0,133.0,78.0,78.0,133.0,57.0,2,6.896576404571533,None,,,,,0,0,0,0,0,24,24,34,358.6893150806427,,,,,,,,,,,,,,,,,,,,,,,,,,,,,,,,,,,,,,,,,,,,,,,,,,,,,,,,,,,,,,,,,,,,,,,,,,,,,,,,,57.0,133.0,78.0,78.0,133.0,57.0,2.1,2.12,-202,-256,0,-284,164,290,358.6745367050171,358.6746165752411,358.67770051956177,358.6893150806427,358.8393738269806,358.8393738269806,358.8393738269806,358.8393738269806,358.8393738269806,358.8393738269806,358.8393738269806,365.59340047836304,2,6.896576404571533,None,,,,,,,,,,,,,,,,,,145,1,2025-02-27_13h19.32.581,comp,2024.2.4,58.071458437750074,2025-02-27 13h19.43.015634 -0500,
25,25,0,catch,None,None,None,None,None,None,None,None,None,None,1,1.3747620582580566,None,,,,,0,0,0,0,0,25,25,125,365.61034297943115,,,,,,,,,,,,,,,,,,,,,,,,,,,,,,,,,,,,,,,,,,,,,,,,,,,,,,,,,,,,,,,,,,,,,,,,,,,,,,,,,131,194,109,81,85,105,3.0,3.1,-234,285,0,10,189,-263,365.5954372882843,365.5955183506012,365.59951162338257,365.61034297943115,365.758428812027,365.758428812027,365.758428812027,365.758428812027,365.758428812027,365.758428812027,365.758428812027,366.9957528114319,1,1.3747620582580566,None,,,,,,,,,,,,,,,,,,145,1,2025-02-27_13h19.32.581,comp,2024.2.4,58.071458437750074,2025-02-27 13h19.43.015634 -0500,
26,26,0,filler_random,None,None,None,None,None,None,None,None,None,None,3,3.868349075317383,None,,,,,0,0,0,0,0,26,26,131,367.01278281211853,,,,,,,,,,,,,,,,,,,,,,,,,,,,,,,,,,,,,,,,,,,,,,,,,,,,,,,,,,,,,,,,,,,,,,,,,,,,,,,,,180.7532401935336,60.493335418499775,78.10943321019286,120.1235962837816,68.41512751426637,194.4850789534569,2.2,2.21,-186,-250,0,256,253,260,366.9980671405792,366.99814915657043,367.00111865997314,367.01278281211853,367.1598069667816,367.1598069667816,367.1598069667816,367.1598069667816,367.1598069667816,367.1598069667816,367.1598069667816,370.8941297531128,3,3.868349075317383,None,,,,,,,,,,,,,,,,,,145,1,2025-02-27_13h19.32.581,comp,2024.2.4,58.071458437750074,2025-02-27 13h19.43.015634 -0500,
27,27,0,filler_random,None,None,None,None,None,None,None,None,None,None,1,9.450942277908325,None,,,,,0,0,0,0,0,27,27,130,370.91023445129395,,,,,,,,,,,,,,,,,,,,,,,,,,,,,,,,,,,,,,,,,,,,,,,,,,,,,,,,,,,,,,,,,,,,,,,,,,,,,,,,,76.23562015115871,173.61570248319111,125.45712272404926,113.30734928943238,127.41213210452865,87.29684300583196,2.2,2.21,-239,-251,0,259,196,253,370.89581322669983,370.8958888053894,370.89890575408936,370.91023445129395,371.06326365470886,371.06326365470886,371.06326365470886,371.06326365470886,371.06326365470886,371.06326365470886,371.06326365470886,380.36583614349365,1,9.450942277908325,None,,,,,,,,,,,,,,,,,,145,1,2025-02-27_13h19.32.581,comp,2024.2.4,58.071458437750074,2025-02-27 13h19.43.015634 -0500,
28,28,0,critical,wdh,35.0,4.0,lower,57.0,133.0,70.0,70.0,133.0,57.0,2,5.1872546672821045,None,,,,,0,0,0,0,0,28,28,76,380.38201332092285,,,,,,,,,,,,,,,,,,,,,,,,,,,,,,,,,,,,,,,,,,,,,,,,,,,,,,,,,,,,,,,,,,,,,,,,,,,,,,,,,57.0,133.0,70.0,70.0,133.0,57.0,4.0,4.1,-198,-254,0,-19,160,-270,380.36758255958557,380.36766290664673,380.37106943130493,380.38201332092285,380.53625321388245,380.53625321388245,380.53625321388245,380.53625321388245,380.53625321388245,380.53625321388245,380.53625321388245,385.58368253707886,2,5.1872546672821045,None,,,,,,,,,,,,,,,,,,145,1,2025-02-27_13h19.32.581,comp,2024.2.4,58.071458437750074,2025-02-27 13h19.43.015634 -0500,
29,29,0,critical,whd,35.0,3.0,lower,57.0,133.0,133.0,57.0,70.0,70.0,1,7.705554008483887,None,,,,,0,0,0,0,0,29,29,86,385.5995728969574,,,,,,,,,,,,,,,,,,,,,,,,,,,,,,,,,,,,,,,,,,,,,,,,,,,,,,,,,,,,,,,,,,,,,,,,,,,,,,,,,57.0,133.0,133.0,57.0,70.0,70.0,3.0,3.1,-191,263,0,12,160,-261,385.5853796005249,385.58548498153687,385.5888969898224,385.5995728969574,385.7535400390625,385.7535400390625,385.7535400390625,385.7535400390625,385.7535400390625,385.7535400390625,385.7535400390625,393.31738090515137,1,7.705554008483887,None,,,,,,,,,,,,,,,,,,145,1,2025-02-27_13h19.32.581,comp,2024.2.4,58.071458437750074,2025-02-27 13h19.43.015634 -0500,
30,30,0,critical,dhw,35.0,1.0,upper,127.0,127.0,200.0,125.0,125.0,200.0,2,11.149154901504517,None,,,,,0,0,0,0,0,30,30,49,393.33260226249695,,,,,,,,,,,,,,,,,,,,,,,,,,,,,,,,,,,,,,,,,,,,,,,,,,,,,,,,,,,,,,,,,,,,,,,,,,,,,,,,,127.0,127.0,200.0,125.0,125.0,200.0,1.0,1.1,-702,286,-480,276,-222,250,393.3188967704773,393.3189721107483,393.32200169563293,393.33260226249695,393.4905364513397,393.4905364513397,393.4905364513397,393.4905364513397,393.4905364513397,393.4905364513397,393.4905364513397,404.49118304252625,2,11.149154901504517,None,,,,,,,,,,,,,,,,,,145,1,2025-02-27_13h19.32.581,comp,2024.2.4,58.071458437750074,2025-02-27 13h19.43.015634 -0500,
31,31,0,critical,hdw,20.0,2.1,lower,133.0,57.0,78.0,78.0,57.0,133.0,2,6.737104415893555,None,,,,,0,0,0,0,0,31,31,46,404.5120415687561,,,,,,,,,,,,,,,,,,,,,,,,,,,,,,,,,,,,,,,,,,,,,,,,,,,,,,,,,,,,,,,,,,,,,,,,,,,,,,,,,133.0,57.0,78.0,78.0,57.0,133.0,2.1,2.11,-164,254,0,258,202,-277,404.49292755126953,404.493038892746,404.4962878227234,404.5120415687561,404.6536829471588,404.6536829471588,404.6536829471588,404.6536829471588,404.6536829471588,404.6536829471588,404.6536829471588,411.2629187107086,2,6.737104415893555,None,,,,,,,,,,,,,,,,,,145,1,2025-02-27_13h19.32.581,comp,2024.2.4,58.071458437750074,2025-02-27 13h19.43.015634 -0500,
32,32,0,filler_random,None,None,None,None,None,None,None,None,None,None,2,1.641153335571289,None,,,,,0,0,0,0,0,32,32,165,411.28070616722107,,,,,,,,,,,,,,,,,,,,,,,,,,,,,,,,,,,,,,,,,,,,,,,,,,,,,,,,,,,,,,,,,,,,,,,,,,,,,,,,,132.383205448802,80.01243897600455,158.0396323137174,102.68208605702809,109.20500327820538,118.3108431512494,2.2,2.21,-187,-269,0,262,206,251,411.2646415233612,411.26471972465515,411.26765871047974,411.28070616722107,411.4242374897003,411.4242374897003,411.4242374897003,411.4242374897003,411.4242374897003,411.4242374897003,411.4242374897003,412.924352645874,2,1.641153335571289,None,,,,,,,,,,,,,,,,,,145,1,2025-02-27_13h19.32.581,comp,2024.2.4,58.071458437750074,2025-02-27 13h19.43.015634 -0500,
33,33,0,critical,whd,35.0,2.1,lower,57.0,133.0,133.0,57.0,70.0,70.0,2,3.757159471511841,None,,,,,0,0,0,0,0,33,33,36,412.9401171207428,,,,,,,,,,,,,,,,,,,,,,,,,,,,,,,,,,,,,,,,,,,,,,,,,,,,,,,,,,,,,,,,,,,,,,,,,,,,,,,,,57.0,133.0,133.0,57.0,70.0,70.0,2.1,2.12,-191,-272,0,-278,160,276,412.9259831905365,412.9260609149933,412.9293465614319,412.9401171207428,413.0944254398346,413.0944254398346,413.0944254398346,413.0944254398346,413.0944254398346,413.0944254398346,413.0944254398346,416.713534116745,2,3.757159471511841,None,,,,,,,,,,,,,,,,,,145,1,2025-02-27_13h19.32.581,comp,2024.2.4,58.071458437750074,2025-02-27 13h19.43.015634 -0500,
34,34,0,catch,None,None,None,None,None,None,None,None,None,None,3,4.303077936172485,None,,,,,0,0,0,0,0,34,34,123,416.7300727367401,,,,,,,,,,,,,,,,,,,,,,,,,,,,,,,,,,,,,,,,,,,,,,,,,,,,,,,,,,,,,,,,,,,,,,,,,,,,,,,,,63,127,85,105,129,196,2.2,2.22,-212,281,0,-286,246,-282,416.715754032135,416.7158329486847,416.71962118148804,416.7300727367401,416.8721401691437,416.8721401691437,416.8721401691437,416.8721401691437,416.8721401691437,416.8721401691437,416.8721401691437,421.0533893108368,3,4.303077936172485,None,,,,,,,,,,,,,,,,,,145,1,2025-02-27_13h19.32.581,comp,2024.2.4,58.071458437750074,2025-02-27 13h19.43.015634 -0500,
35,35,0,critical,dhw,20.0,4.0,lower,78.0,78.0,133.0,57.0,57.0,133.0,2,4.56873083114624,None,,,,,0,0,0,0,0,35,35,58,421.07321643829346,,,,,,,,,,,,,,,,,,,,,,,,,,,,,,,,,,,,,,,,,,,,,,,,,,,,,,,,,,,,,,,,,,,,,,,,,,,,,,,,,78.0,78.0,133.0,57.0,57.0,133.0,4.0,4.1,-164,-263,0,14,191,-263,421.05490946769714,421.05498719215393,421.0579676628113,421.07321643829346,421.2109000682831,421.2109000682831,421.2109000682831,421.2109000682831,421.2109000682831,421.2109000682831,421.2109000682831,425.6474323272705,2,4.56873083114624,None,,,,,,,,,,,,,,,,,,145,1,2025-02-27_13h19.32.581,comp,2024.2.4,58.071458437750074,2025-02-27 13h19.43.015634 -0500,
36,36,0,critical,wdh,35.0,2.1,lower,57.0,133.0,70.0,70.0,133.0,57.0,3,14.802285194396973,None,,,,,0,0,0,0,0,36,36,32,425.66356015205383,,,,,,,,,,,,,,,,,,,,,,,,,,,,,,,,,,,,,,,,,,,,,,,,,,,,,,,,,,,,,,,,,,,,,,,,,,,,,,,,,57.0,133.0,70.0,70.0,133.0,57.0,2.1,2.12,-198,-258,0,-251,160,267,425.6491811275482,425.64932346343994,425.6526737213135,425.66356015205383,425.8120086193085,425.8120086193085,425.8120086193085,425.8120086193085,425.8120086193085,425.8120086193085,425.8120086193085,440.4752109050751,3,14.802285194396973,None,,,,,,,,,,,,,,,,,,145,1,2025-02-27_13h19.32.581,comp,2024.2.4,58.071458437750074,2025-02-27 13h19.43.015634 -0500,
37,37,0,critical,hwd,20.0,2.1,upper,200.0,125.0,125.0,200.0,141.0,141.0,3,6.329723596572876,None,,,,,0,0,0,0,0,37,37,43,440.49540424346924,,,,,,,,,,,,,,,,,,,,,,,,,,,,,,,,,,,,,,,,,,,,,,,,,,,,,,,,,,,,,,,,,,,,,,,,,,,,,,,,,200.0,125.0,125.0,200.0,141.0,141.0,2.1,2.11,-258,268,0,265,266,-290,440.4769296646118,440.47700476646423,440.48022389411926,440.49540424346924,440.6310410499573,440.6310410499573,440.6310410499573,440.6310410499573,440.6310410499573,440.6310410499573,440.6310410499573,446.8361475467682,3,6.329723596572876,None,,,,,,,,,,,,,,,,,,145,1,2025-02-27_13h19.32.581,comp,2024.2.4,58.071458437750074,2025-02-27 13h19.43.015634 -0500,
38,38,0,filler_random,None,None,None,None,None,None,None,None,None,None,3,2.5409390926361084,None,,,,,0,0,0,0,0,38,38,168,446.85301208496094,,,,,,,,,,,,,,,,,,,,,,,,,,,,,,,,,,,,,,,,,,,,,,,,,,,,,,,,,,,,,,,,,,,,,,,,,,,,,,,,,191.18189554223804,134.1567823989298,98.26133117336067,66.14886852080721,191.986744661455,191.7807186927803,3.0,3.2,-196,-266,0,8,225,264,446.8380949497223,446.8381769657135,446.84149956703186,446.85301208496094,447.00179076194763,447.00179076194763,447.00179076194763,447.00179076194763,447.00179076194763,447.00179076194763,447.00179076194763,449.4017059803009,3,2.5409390926361084,None,,,,,,,,,,,,,,,,,,145,1,2025-02-27_13h19.32.581,comp,2024.2.4,58.071458437750074,2025-02-27 13h19.43.015634 -0500,
39,39,0,filler_square,None,None,None,None,None,None,None,None,None,None,2,3.1504838466644287,None,,,,,0,0,0,0,0,39,39,184,449.41892743110657,,,,,,,,,,,,,,,,,,,,,,,,,,,,,,,,,,,,,,,,,,,,,,,,,,,,,,,,,,,,,,,,,,,,,,,,,,,,,,,,,102.53665609234369,100.21189371686867,109.95085599038407,109.95085599038407,83.38780046707657,105.53244337695845,2.2,2.22,-201,253,0,-266,204,-270,449.4037573337555,449.40383410453796,449.4073920249939,449.41892743110657,449.56838488578796,449.56838488578796,449.56838488578796,449.56838488578796,449.56838488578796,449.56838488578796,449.56838488578796,452.58651900291443,2,3.1504838466644287,None,,,,,,,,,,,,,,,,,,145,1,2025-02-27_13h19.32.581,comp,2024.2.4,58.071458437750074,2025-02-27 13h19.43.015634 -0500,
40,40,0,critical,whd,20.0,1.0,upper,125.0,200.0,200.0,125.0,141.0,141.0,2,14.881550312042236,None,,,,,0,0,0,0,0,40,40,91,452.60775542259216,,,,,,,,,,,,,,,,,,,,,,,,,,,,,,,,,,,,,,,,,,,,,,,,,,,,,,,,,,,,,,,,,,,,,,,,,,,,,,,,,125.0,200.0,200.0,125.0,141.0,141.0,1.0,1.3,222,-275,480,-273,709,-257,452.58847069740295,452.58854842185974,452.59250354766846,452.60775542259216,452.7592101097107,452.7592101097107,452.7592101097107,452.7592101097107,452.7592101097107,452.7592101097107,452.7592101097107,467.49240469932556,2,14.881550312042236,None,,,,,,,,,,,,,,,,,,145,1,2025-02-27_13h19.32.581,comp,2024.2.4,58.071458437750074,2025-02-27 13h19.43.015634 -0500,
41,41,0,filler_random,None,None,None,None,None,None,None,None,None,None,3,1.6134636402130127,None,,,,,0,0,0,0,0,41,41,143,467.50837993621826,,,,,,,,,,,,,,,,,,,,,,,,,,,,,,,,,,,,,,,,,,,,,,,,,,,,,,,,,,,,,,,,,,,,,,,,,,,,,,,,,96.48811804573575,131.11899949485996,92.07976687869242,144.59200045521845,115.97462830701903,198.0063510375223,3.0,3.1,-234,275,0,-2,267,-267,467.4941391944885,467.49421668052673,467.497437953949,467.50837993621826,467.66072702407837,467.66072702407837,467.66072702407837,467.66072702407837,467.66072702407837,467.66072702407837,467.66072702407837,469.123996257782,3,1.6134636402130127,None,,,,,,,,,,,,,,,,,,145,1,2025-02-27_13h19.32.581,comp,2024.2.4,58.071458437750074,2025-02-27 13h19.43.015634 -0500,
42,42,0,critical,hwd,20.0,4.0,lower,133.0,57.0,57.0,133.0,78.0,78.0,3,2.485154390335083,None,,,,,0,0,0,0,0,42,42,106,469.14021921157837,,,,,,,,,,,,,,,,,,,,,,,,,,,,,,,,,,,,,,,,,,,,,,,,,,,,,,,,,,,,,,,,,,,,,,,,,,,,,,,,,133.0,57.0,57.0,133.0,78.0,78.0,4.0,4.1,-191,-253,0,5,202,-255,469.12553668022156,469.12561535835266,469.1287546157837,469.14021921157837,469.28811836242676,469.28811836242676,469.28811836242676,469.28811836242676,469.28811836242676,469.28811836242676,469.28811836242676,471.6295757293701,3,2.485154390335083,None,,,,,,,,,,,,,,,,,,145,1,2025-02-27_13h19.32.581,comp,2024.2.4,58.071458437750074,2025-02-27 13h19.43.015634 -0500,
43,43,0,filler_random,None,None,None,None,None,None,None,None,None,None,2,1.7195172309875488,None,,,,,0,0,0,0,0,43,43,144,471.6503846645355,,,,,,,,,,,,,,,,,,,,,,,,,,,,,,,,,,,,,,,,,,,,,,,,,,,,,,,,,,,,,,,,,,,,,,,,,,,,,,,,,122.63501111759813,146.31228218712678,180.34562519391244,121.61163943436728,102.08049818273116,90.59158592210116,1.0,1.2,-230,16,0,-19,202,1,471.63151836395264,471.6315987110138,471.6348488330841,471.6503846645355,471.7936305999756,471.7936305999756,471.7936305999756,471.7936305999756,471.7936305999756,471.7936305999756,471.7936305999756,473.3771924972534,2,1.7195172309875488,None,,,,,,,,,,,,,,,,,,145,1,2025-02-27_13h19.32.581,comp,2024.2.4,58.071458437750074,2025-02-27 13h19.43.015634 -0500,
44,44,0,critical,dwh,35.0,3.0,lower,70.0,70.0,57.0,133.0,133.0,57.0,3,14.639912605285645,None,,,,,0,0,0,0,0,44,44,62,473.3934712409973,,,,,,,,,,,,,,,,,,,,,,,,,,,,,,,,,,,,,,,,,,,,,,,,,,,,,,,,,,,,,,,,,,,,,,,,,,,,,,,,,70.0,70.0,57.0,133.0,133.0,57.0,3.0,3.2,-198,-253,0,7,191,289,473.37873816490173,473.37881684303284,473.38254570961,473.3934712409973,473.54591155052185,473.54591155052185,473.54591155052185,473.54591155052185,473.54591155052185,473.54591155052185,473.54591155052185,488.0482244491577,3,14.639912605285645,None,,,,,,,,,,,,,,,,,,145,1,2025-02-27_13h19.32.581,comp,2024.2.4,58.071458437750074,2025-02-27 13h19.43.015634 -0500,
45,45,0,critical,dwh,35.0,2.1,upper,127.0,127.0,125.0,200.0,200.0,125.0,3,0.8975481986999512,None,,,,,0,0,0,0,0,45,45,5,488.064199924469,,,,,,,,,,,,,,,,,,,,,,,,,,,,,,,,,,,,,,,,,,,,,,,,,,,,,,,,,,,,,,,,,,,,,,,,,,,,,,,,,127.0,127.0,125.0,200.0,200.0,125.0,2.1,2.12,-260,-256,0,-286,258,278,488.04976415634155,488.04984045028687,488.0538809299469,488.064199924469,488.2138662338257,488.2138662338257,488.2138662338257,488.2138662338257,488.2138662338257,488.2138662338257,488.2138662338257,488.9639551639557,3,0.8975481986999512,None,,,,,,,,,,,,,,,,,,145,1,2025-02-27_13h19.32.581,comp,2024.2.4,58.071458437750074,2025-02-27 13h19.43.015634 -0500,
46,46,0,critical,whd,20.0,2.1,upper,125.0,200.0,200.0,125.0,141.0,141.0,3,1.7571096420288086,None,,,,,0,0,0,0,0,46,46,39,488.98020792007446,,,,,,,,,,,,,,,,,,,,,,,,,,,,,,,,,,,,,,,,,,,,,,,,,,,,,,,,,,,,,,,,,,,,,,,,,,,,,,,,,125.0,200.0,200.0,125.0,141.0,141.0,2.1,2.12,-258,-276,0,-259,229,259,488.9654791355133,488.9655554294586,488.96865487098694,488.98020792007446,489.1371760368347,489.1371760368347,489.1371760368347,489.1371760368347,489.1371760368347,489.1371760368347,489.1371760368347,490.7494843006134,3,1.7571096420288086,None,,,,,,,,,,,,,,,,,,145,1,2025-02-27_13h19.32.581,comp,2024.2.4,58.071458437750074,2025-02-27 13h19.43.015634 -0500,
47,47,0,filler_square,None,None,None,None,None,None,None,None,None,None,1,1.8443567752838135,None,,,,,0,0,0,0,0,47,47,180,490.7655351161957,,,,,,,,,,,,,,,,,,,,,,,,,,,,,,,,,,,,,,,,,,,,,,,,,,,,,,,,,,,,,,,,,,,,,,,,,,,,,,,,,178.65423791271587,178.65423791271587,75.54677629910832,177.04673404323324,114.07861374477218,85.36677612991026,4.0,4.1,-274,-256,0,-13,227,-254,490.7512264251709,490.7513656616211,490.75477027893066,490.7655351161957,490.9179515838623,490.9179515838623,490.9179515838623,490.9179515838623,490.9179515838623,490.9179515838623,490.9179515838623,492.6165590286255,1,1.8443567752838135,None,,,,,,,,,,,,,,,,,,145,1,2025-02-27_13h19.32.581,comp,2024.2.4,58.071458437750074,2025-02-27 13h19.43.015634 -0500,
48,48,0,critical,whd,35.0,4.0,upper,125.0,200.0,200.0,125.0,127.0,127.0,2,0.7690236568450928,None,,,,,0,0,0,0,0,48,48,89,492.63237595558167,,,,,,,,,,,,,,,,,,,,,,,,,,,,,,,,,,,,,,,,,,,,,,,,,,,,,,,,,,,,,,,,,,,,,,,,,,,,,,,,,125.0,200.0,200.0,125.0,127.0,127.0,4.0,4.1,-258,-289,0,-5,222,-273,492.6181104183197,492.6181888580322,492.62150287628174,492.63237595558167,492.78822898864746,492.78822898864746,492.78822898864746,492.78822898864746,492.78822898864746,492.78822898864746,492.78822898864746,493.4149122238159,2,0.7690236568450928,None,,,,,,,,,,,,,,,,,,145,1,2025-02-27_13h19.32.581,comp,2024.2.4,58.071458437750074,2025-02-27 13h19.43.015634 -0500,
49,49,0,filler_random,None,None,None,None,None,None,None,None,None,None,3,6.401884078979492,None,,,,,0,0,0,0,0,49,49,151,493.4315330982208,,,,,,,,,,,,,,,,,,,,,,,,,,,,,,,,,,,,,,,,,,,,,,,,,,,,,,,,,,,,,,,,,,,,,,,,,,,,,,,,,101.76940218390448,81.13464763211299,168.41057086929248,76.33182902502148,153.05946019510748,70.76425298946214,4.0,4.1,-175,-260,0,-4,170,-283,493.41669034957886,493.4168059825897,493.42001461982727,493.4315330982208,493.58744835853577,493.58744835853577,493.58744835853577,493.58744835853577,493.58744835853577,493.58744835853577,493.58744835853577,499.84388518333435,3,6.401884078979492,None,,,,,,,,,,,,,,,,,,145,1,2025-02-27_13h19.32.581,comp,2024.2.4,58.071458437750074,2025-02-27 13h19.43.015634 -0500,
50,50,0,critical,wdh,20.0,3.0,lower,57.0,133.0,78.0,78.0,133.0,57.0,2,3.277527093887329,None,,,,,0,0,0,0,0,50,50,80,499.8598725795746,,,,,,,,,,,,,,,,,,,,,,,,,,,,,,,,,,,,,,,,,,,,,,,,,,,,,,,,,,,,,,,,,,,,,,,,,,,,,,,,,57.0,133.0,78.0,78.0,133.0,57.0,3.0,3.1,-202,281,0,14,164,-267,499.84552574157715,499.8456025123596,499.8488540649414,499.8598725795746,499.999715089798,499.999715089798,499.999715089798,499.999715089798,499.999715089798,499.999715089798,499.999715089798,503.1526527404785,2,3.277527093887329,None,,,,,,,,,,,,,,,,,,145,1,2025-02-27_13h19.32.581,comp,2024.2.4,58.071458437750074,2025-02-27 13h19.43.015634 -0500,
51,51,0,filler_random,None,None,None,None,None,None,None,None,None,None,3,2.1054396629333496,None,,,,,0,0,0,0,0,51,51,148,503.1681294441223,,,,,,,,,,,,,,,,,,,,,,,,,,,,,,,,,,,,,,,,,,,,,,,,,,,,,,,,,,,,,,,,,,,,,,,,,,,,,,,,,130.09667526988142,66.362904514358,85.17398137412505,115.18032177086727,163.30852114592864,179.69859387962777,2.2,2.21,-187,-263,0,252,243,260,503.1544020175934,503.1544795036316,503.1578142642975,503.1681294441223,503.32893323898315,503.32893323898315,503.32893323898315,503.32893323898315,503.32893323898315,503.32893323898315,503.32893323898315,505.29231667518616,3,2.1054396629333496,None,,,,,,,,,,,,,,,,,,145,1,2025-02-27_13h19.32.581,comp,2024.2.4,58.071458437750074,2025-02-27 13h19.43.015634 -0500,
52,52,0,filler_random,None,None,None,None,None,None,None,None,None,None,3,3.222083330154419,None,,,,,0,0,0,0,0,52,52,155,505.3079686164856,,,,,,,,,,,,,,,,,,,,,,,,,,,,,,,,,,,,,,,,,,,,,,,,,,,,,,,,,,,,,,,,,,,,,,,,,,,,,,,,,108.30329799188281,151.7320173683001,169.34153330489823,74.6294154654747,184.89816342058657,93.131226187106,1.0,1.3,271,-269,480,-287,660,-267,505.2940261363983,505.29410338401794,505.2970106601715,505.3079686164856,505.4538154602051,505.4538154602051,505.4538154602051,505.4538154602051,505.4538154602051,505.4538154602051,505.4538154602051,508.53663396835327,3,3.222083330154419,None,,,,,,,,,,,,,,,,,,145,1,2025-02-27_13h19.32.581,comp,2024.2.4,58.071458437750074,2025-02-27 13h19.43.015634 -0500,
53,53,0,filler_square,None,None,None,None,None,None,None,None,None,None,1,1.7998442649841309,None,,,,,0,0,0,0,0,53,53,176,508.55352687835693,,,,,,,,,,,,,,,,,,,,,,,,,,,,,,,,,,,,,,,,,,,,,,,,,,,,,,,,,,,,,,,,,,,,,,,,,,,,,,,,,153.2964981716731,153.2964981716731,83.1721940411498,85.30099212812152,148.066715278713,72.17223664599835,2.2,2.22,-215,277,0,-279,175,-262,508.5383493900299,508.53842329978943,508.5415709018707,508.55352687835693,508.709353685379,508.709353685379,508.709353685379,508.709353685379,508.709353685379,508.709353685379,508.709353685379,510.37148213386536,1,1.7998442649841309,None,,,,,,,,,,,,,,,,,,145,1,2025-02-27_13h19.32.581,comp,2024.2.4,58.071458437750074,2025-02-27 13h19.43.015634 -0500,
54,54,0,critical,whd,35.0,2.1,lower,57.0,133.0,133.0,57.0,70.0,70.0,2,5.030613422393799,None,,,,,0,0,0,0,0,54,54,12,510.38687324523926,,,,,,,,,,,,,,,,,,,,,,,,,,,,,,,,,,,,,,,,,,,,,,,,,,,,,,,,,,,,,,,,,,,,,,,,,,,,,,,,,57.0,133.0,133.0,57.0,70.0,70.0,2.1,2.11,-191,285,0,288,160,-256,510.3729844093323,510.3730595111847,510.3765769004822,510.38687324523926,510.53803992271423,510.53803992271423,510.53803992271423,510.53803992271423,510.53803992271423,510.53803992271423,510.53803992271423,515.4232566356659,2,5.030613422393799,None,,,,,,,,,,,,,,,,,,145,1,2025-02-27_13h19.32.581,comp,2024.2.4,58.071458437750074,2025-02-27 13h19.43.015634 -0500,
55,55,0,critical,wdh,35.0,4.0,upper,125.0,200.0,127.0,127.0,200.0,125.0,3,2.968355655670166,None,,,,,0,0,0,0,0,55,55,77,515.4409825801849,,,,,,,,,,,,,,,,,,,,,,,,,,,,,,,,,,,,,,,,,,,,,,,,,,,,,,,,,,,,,,,,,,,,,,,,,,,,,,,,,125.0,200.0,127.0,127.0,200.0,125.0,4.0,4.2,-260,11,0,-289,222,16,515.4247343540192,515.424809217453,515.4278919696808,515.4409825801849,515.5861659049988,515.5861659049988,515.5861659049988,515.5861659049988,515.5861659049988,515.5861659049988,515.5861659049988,518.4242269992828,3,2.968355655670166,None,,,,,,,,,,,,,,,,,,145,1,2025-02-27_13h19.32.581,comp,2024.2.4,58.071458437750074,2025-02-27 13h19.43.015634 -0500,
56,56,0,filler_square,None,None,None,None,None,None,None,None,None,None,1,9.049934148788452,None,,,,,0,0,0,0,0,56,56,206,518.4404964447021,,,,,,,,,,,,,,,,,,,,,,,,,,,,,,,,,,,,,,,,,,,,,,,,,,,,,,,,,,,,,,,,,,,,,,,,,,,,,,,,,63.848593381008044,64.42897691641,86.66872416896355,86.66872416896355,76.25074982545706,64.17409050778512,4.0,4.2,-172,-12,0,-251,171,16,518.4263117313385,518.4263949394226,518.4299132823944,518.4404964447021,518.5933792591095,518.5933792591095,518.5933792591095,518.5933792591095,518.5933792591095,518.5933792591095,518.5933792591095,527.4948627948761,1,9.049934148788452,None,,,,,,,,,,,,,,,,,,145,1,2025-02-27_13h19.32.581,comp,2024.2.4,58.071458437750074,2025-02-27 13h19.43.015634 -0500,
57,57,0,critical,hwd,35.0,2.1,upper,200.0,125.0,125.0,200.0,127.0,127.0,1,3.242340564727783,None,,,,,0,0,0,0,0,57,57,17,527.5110852718353,,,,,,,,,,,,,,,,,,,,,,,,,,,,,,,,,,,,,,,,,,,,,,,,,,,,,,,,,,,,,,,,,,,,,,,,,,,,,,,,,200.0,125.0,125.0,200.0,127.0,127.0,2.1,2.12,-258,-289,0,-283,260,264,527.4965648651123,527.49666929245,527.5001633167267,527.5110852718353,527.6610515117645,527.6610515117645,527.6610515117645,527.6610515117645,527.6610515117645,527.6610515117645,527.6610515117645,530.7704148292542,1,3.242340564727783,None,,,,,,,,,,,,,,,,,,145,1,2025-02-27_13h19.32.581,comp,2024.2.4,58.071458437750074,2025-02-27 13h19.43.015634 -0500,
58,58,0,filler_random,None,None,None,None,None,None,None,None,None,None,2,11.271331548690796,None,,,,,0,0,0,0,0,58,58,145,530.7863790988922,,,,,,,,,,,,,,,,,,,,,,,,,,,,,,,,,,,,,,,,,,,,,,,,,,,,,,,,,,,,,,,,,,,,,,,,,,,,,,,,,126.59292443102804,187.61104845773184,130.76111523842528,80.49519302466598,88.09172744787449,149.04074469023294,2.2,2.21,-230,-279,0,285,211,288,530.7721335887909,530.7722108364105,530.7750790119171,530.7863790988922,530.92738032341,530.92738032341,530.92738032341,530.92738032341,530.92738032341,530.92738032341,530.92738032341,542.0607824325562,2,11.271331548690796,None,,,,,,,,,,,,,,,,,,145,1,2025-02-27_13h19.32.581,comp,2024.2.4,58.071458437750074,2025-02-27 13h19.43.015634 -0500,
59,59,0,critical,hwd,35.0,2.1,upper,200.0,125.0,125.0,200.0,127.0,127.0,1,4.54181694984436,None,,,,,0,0,0,0,0,59,59,41,542.0763251781464,,,,,,,,,,,,,,,,,,,,,,,,,,,,,,,,,,,,,,,,,,,,,,,,,,,,,,,,,,,,,,,,,,,,,,,,,,,,,,,,,200.0,125.0,125.0,200.0,127.0,127.0,2.1,2.12,-258,-289,0,-279,260,259,542.0623054504395,542.0623841285706,542.0652487277985,542.0763251781464,542.2167301177979,542.2167301177979,542.2167301177979,542.2167301177979,542.2167301177979,542.2167301177979,542.2167301177979,546.6230716705322,1,4.54181694984436,None,,,,,,,,,,,,,,,,,,145,1,2025-02-27_13h19.32.581,comp,2024.2.4,58.071458437750074,2025-02-27 13h19.43.015634 -0500,
60,60,0,critical,hdw,35.0,4.0,lower,133.0,57.0,70.0,70.0,57.0,133.0,1,10.427408456802368,None,,,,,0,0,0,0,0,60,60,112,546.6386244297028,,,,,,,,,,,,,,,,,,,,,,,,,,,,,,,,,,,,,,,,,,,,,,,,,,,,,,,,,,,,,,,,,,,,,,,,,,,,,,,,,133.0,57.0,70.0,70.0,57.0,133.0,4.0,4.2,-160,-19,0,-269,198,-13,546.6246390342712,546.6247169971466,546.6275923252106,546.6386244297028,546.7834544181824,546.7834544181824,546.7834544181824,546.7834544181824,546.7834544181824,546.7834544181824,546.7834544181824,557.0694870948792,1,10.427408456802368,None,,,,,,,,,,,,,,,,,,145,1,2025-02-27_13h19.32.581,comp,2024.2.4,58.071458437750074,2025-02-27 13h19.43.015634 -0500,
61,61,0,critical,hdw,35.0,2.1,upper,200.0,125.0,127.0,127.0,125.0,200.0,1,1.7319855690002441,None,,,,,0,0,0,0,0,61,61,45,557.0854027271271,,,,,,,,,,,,,,,,,,,,,,,,,,,,,,,,,,,,,,,,,,,,,,,,,,,,,,,,,,,,,,,,,,,,,,,,,,,,,,,,,200.0,125.0,127.0,127.0,125.0,200.0,2.1,2.12,-222,-278,0,-269,260,252,557.0710937976837,557.0712072849274,557.0745680332184,557.0854027271271,557.237147808075,557.237147808075,557.237147808075,557.237147808075,557.237147808075,557.237147808075,557.237147808075,558.8202078342438,1,1.7319855690002441,None,,,,,,,,,,,,,,,,,,145,1,2025-02-27_13h19.32.581,comp,2024.2.4,58.071458437750074,2025-02-27 13h19.43.015634 -0500,
62,62,0,critical,hwd,35.0,2.1,lower,133.0,57.0,57.0,133.0,70.0,70.0,1,1.5507338047027588,None,,,,,0,0,0,0,0,62,62,16,558.8358113765717,,,,,,,,,,,,,,,,,,,,,,,,,,,,,,,,,,,,,,,,,,,,,,,,,,,,,,,,,,,,,,,,,,,,,,,,,,,,,,,,,133.0,57.0,57.0,133.0,70.0,70.0,2.1,2.11,-191,271,0,269,198,-261,558.8217492103577,558.8218297958374,558.825031042099,558.8358113765717,558.9769124984741,558.9769124984741,558.9769124984741,558.9769124984741,558.9769124984741,558.9769124984741,558.9769124984741,560.391684293747,1,1.5507338047027588,None,,,,,,,,,,,,,,,,,,145,1,2025-02-27_13h19.32.581,comp,2024.2.4,58.071458437750074,2025-02-27 13h19.43.015634 -0500,
63,63,0,critical,dhw,20.0,3.0,lower,78.0,78.0,133.0,57.0,57.0,133.0,3,4.162797689437866,None,,,,,0,0,0,0,0,63,63,56,560.4068918228149,,,,,,,,,,,,,,,,,,,,,,,,,,,,,,,,,,,,,,,,,,,,,,,,,,,,,,,,,,,,,,,,,,,,,,,,,,,,,,,,,78.0,78.0,133.0,57.0,57.0,133.0,3.0,3.1,-164,266,0,-15,191,-264,560.3934121131897,560.3935496807098,560.396858215332,560.4068918228149,560.5521018505096,560.5521018505096,560.5521018505096,560.5521018505096,560.5521018505096,560.5521018505096,560.5521018505096,564.5880072116852,3,4.162797689437866,None,,,,,,,,,,,,,,,,,,145,1,2025-02-27_13h19.32.581,comp,2024.2.4,58.071458437750074,2025-02-27 13h19.43.015634 -0500,
64,64,0,critical,hwd,20.0,1.0,upper,200.0,125.0,125.0,200.0,141.0,141.0,1,1.186854600906372,None,,,,,0,0,0,0,0,64,64,103,564.6071636676788,,,,,,,,,,,,,,,,,,,,,,,,,,,,,,,,,,,,,,,,,,,,,,,,,,,,,,,,,,,,,,,,,,,,,,,,,,,,,,,,,200.0,125.0,125.0,200.0,141.0,141.0,1.0,1.2,-258,6,0,9,266,-3,564.5894663333893,564.5895380973816,564.5926201343536,564.6071636676788,564.7551460266113,564.7551460266113,564.7551460266113,564.7551460266113,564.7551460266113,564.7551460266113,564.7551460266113,565.8092076778412,1,1.186854600906372,None,,,,,,,,,,,,,,,,,,145,1,2025-02-27_13h19.32.581,comp,2024.2.4,58.071458437750074,2025-02-27 13h19.43.015634 -0500,
65,65,0,catch,None,None,None,None,None,None,None,None,None,None,3,1.176330327987671,None,,,,,0,0,0,0,0,65,65,124,565.8252265453339,,,,,,,,,,,,,,,,,,,,,,,,,,,,,,,,,,,,,,,,,,,,,,,,,,,,,,,,,,,,,,,,,,,,,,,,,,,,,,,,,124,66,118,72,142,183,2.2,2.21,-165,-273,0,262,224,276,565.811356306076,565.8114328384399,565.8147759437561,565.8252265453339,565.9725182056427,565.9725182056427,565.9725182056427,565.9725182056427,565.9725182056427,565.9725182056427,565.9725182056427,567.0069873332977,3,1.176330327987671,None,,,,,,,,,,,,,,,,,,145,1,2025-02-27_13h19.32.581,comp,2024.2.4,58.071458437750074,2025-02-27 13h19.43.015634 -0500,
66,66,0,filler_random,None,None,None,None,None,None,None,None,None,None,1,1.1474573612213135,None,,,,,0,0,0,0,0,66,66,153,567.0227980613708,,,,,,,,,,,,,,,,,,,,,,,,,,,,,,,,,,,,,,,,,,,,,,,,,,,,,,,,,,,,,,,,,,,,,,,,,,,,,,,,,193.13647801206596,195.5377474902791,104.40128287118357,165.9351902845823,159.3564763202713,165.12361216481023,2.2,2.21,-277,-258,0,281,262,267,567.0086896419525,567.0087666511536,567.012131690979,567.0227980613708,567.1723875999451,567.1723875999451,567.1723875999451,567.1723875999451,567.1723875999451,567.1723875999451,567.1723875999451,568.1764373779297,1,1.1474573612213135,None,,,,,,,,,,,,,,,,,,145,1,2025-02-27_13h19.32.581,comp,2024.2.4,58.071458437750074,2025-02-27 13h19.43.015634 -0500,
67,67,0,filler_square,None,None,None,None,None,None,None,None,None,None,3,1.2209162712097168,None,,,,,0,0,0,0,0,67,67,181,568.1969563961029,,,,,,,,,,,,,,,,,,,,,,,,,,,,,,,,,,,,,,,,,,,,,,,,,,,,,,,,,,,,,,,,,,,,,,,,,,,,,,,,,179.44939771840978,88.58855913990456,62.70068803074616,119.88472713656752,192.92673008995624,192.92673008995624,2.1,2.11,-200,251,0,267,252,-275,568.1786024570465,568.1786828041077,568.1820669174194,568.1969563961029,568.3384082317352,568.3384082317352,568.3384082317352,568.3384082317352,568.3384082317352,568.3384082317352,568.3384082317352,569.426019191742,3,1.2209162712097168,None,,,,,,,,,,,,,,,,,,145,1,2025-02-27_13h19.32.581,comp,2024.2.4,58.071458437750074,2025-02-27 13h19.43.015634 -0500,
68,68,0,filler_square,None,None,None,None,None,None,None,None,None,None,2,1.6530230045318604,None,,,,,0,0,0,0,0,68,68,200,569.445906162262,,,,,,,,,,,,,,,,,,,,,,,,,,,,,,,,,,,,,,,,,,,,,,,,,,,,,,,,,,,,,,,,,,,,,,,,,,,,,,,,,73.09234231624038,75.44276633617088,96.07191806259121,96.07191806259121,57.52353799761897,69.6675454162178,2.1,2.12,-182,-285,0,-286,179,254,569.4285337924957,569.4286148548126,569.4315822124481,569.445906162262,569.5911612510681,569.5911612510681,569.5911612510681,569.5911612510681,569.5911612510681,569.5911612510681,569.5911612510681,571.105651140213,2,1.6530230045318604,None,,,,,,,,,,,,,,,,,,145,1,2025-02-27_13h19.32.581,comp,2024.2.4,58.071458437750074,2025-02-27 13h19.43.015634 -0500,
69,69,0,filler_random,None,None,None,None,None,None,None,None,None,None,3,5.4396960735321045,None,,,,,0,0,0,0,0,69,69,157,571.1217250823975,,,,,,,,,,,,,,,,,,,,,,,,,,,,,,,,,,,,,,,,,,,,,,,,,,,,,,,,,,,,,,,,,,,,,,,,,,,,,,,,,132.7864780102903,102.82274172196031,189.92373257595082,103.35542715796001,199.23092725553235,94.68547163183428,4.0,4.1,-199,-262,0,20,195,-256,571.1072461605072,571.1073408126831,571.1101434230804,571.1217250823975,571.2732572555542,571.2732572555542,571.2732572555542,571.2732572555542,571.2732572555542,571.2732572555542,571.2732572555542,576.5746068954468,3,5.4396960735321045,None,,,,,,,,,,,,,,,,,,145,1,2025-02-27_13h19.32.581,comp,2024.2.4,58.071458437750074,2025-02-27 13h19.43.015634 -0500,
70,70,0,catch,None,None,None,None,None,None,None,None,None,None,3,1.315511703491211,None,,,,,0,0,0,0,0,70,70,122,576.5907762050629,,,,,,,,,,,,,,,,,,,,,,,,,,,,,,,,,,,,,,,,,,,,,,,,,,,,,,,,,,,,,,,,,,,,,,,,,,,,,,,,,60,130,133,57,184,141,3.0,3.2,-190,-285,0,6,195,271,576.5764517784119,576.5765273571014,576.5794813632965,576.5907762050629,576.7452471256256,576.7452471256256,576.7452471256256,576.7452471256256,576.7452471256256,576.7452471256256,576.7452471256256,577.9151077270508,3,1.315511703491211,None,,,,,,,,,,,,,,,,,,145,1,2025-02-27_13h19.32.581,comp,2024.2.4,58.071458437750074,2025-02-27 13h19.43.015634 -0500,
71,71,0,critical,hwd,35.0,2.1,lower,133.0,57.0,57.0,133.0,70.0,70.0,1,2.454516649246216,None,,,,,0,0,0,0,0,71,71,40,577.9316120147705,,,,,,,,,,,,,,,,,,,,,,,,,,,,,,,,,,,,,,,,,,,,,,,,,,,,,,,,,,,,,,,,,,,,,,,,,,,,,,,,,133.0,57.0,57.0,133.0,70.0,70.0,2.1,2.11,-191,256,0,268,198,-256,577.9170567989349,577.917133808136,577.9199857711792,577.9316120147705,578.0754981040955,578.0754981040955,578.0754981040955,578.0754981040955,578.0754981040955,578.0754981040955,578.0754981040955,580.3941793441772,1,2.454516649246216,None,,,,,,,,,,,,,,,,,,145,1,2025-02-27_13h19.32.581,comp,2024.2.4,58.071458437750074,2025-02-27 13h19.43.015634 -0500,
72,72,0,critical,dhw,20.0,2.1,lower,78.0,78.0,133.0,57.0,57.0,133.0,3,1.1033179759979248,None,,,,,0,0,0,0,0,72,72,2,580.4106681346893,,,,,,,,,,,,,,,,,,,,,,,,,,,,,,,,,,,,,,,,,,,,,,,,,,,,,,,,,,,,,,,,,,,,,,,,,,,,,,,,,78.0,78.0,133.0,57.0,57.0,133.0,2.1,2.12,-164,-279,0,-274,191,284,580.3957207202911,580.3957979679108,580.3998365402222,580.4106681346893,580.5635843276978,580.5635843276978,580.5635843276978,580.5635843276978,580.5635843276978,580.5635843276978,580.5635843276978,581.5201280117035,3,1.1033179759979248,None,,,,,,,,,,,,,,,,,,145,1,2025-02-27_13h19.32.581,comp,2024.2.4,58.071458437750074,2025-02-27 13h19.43.015634 -0500,
73,73,0,catch,None,None,None,None,None,None,None,None,None,None,1,1.1993451118469238,None,,,,,0,0,0,0,0,73,73,126,581.5385422706604,,,,,,,,,,,,,,,,,,,,,,,,,,,,,,,,,,,,,,,,,,,,,,,,,,,,,,,,,,,,,,,,,,,,,,,,,,,,,,,,,142,183,82,108,72,118,2.2,2.22,-242,261,0,-260,209,-272,581.5221977233887,581.5223009586334,581.525547504425,581.5385422706604,581.6769785881042,581.6769785881042,581.6769785881042,581.6769785881042,581.6769785881042,581.6769785881042,581.6769785881042,582.7464225292206,1,1.1993451118469238,None,,,,,,,,,,,,,,,,,,145,1,2025-02-27_13h19.32.581,comp,2024.2.4,58.071458437750074,2025-02-27 13h19.43.015634 -0500,
74,74,0,filler_random,None,None,None,None,None,None,None,None,None,None,1,3.398392915725708,None,,,,,0,0,0,0,0,74,74,139,582.7630698680878,,,,,,,,,,,,,,,,,,,,,,,,,,,,,,,,,,,,,,,,,,,,,,,,,,,,,,,,,,,,,,,,,,,,,,,,,,,,,,,,,191.96227251629068,111.9769233703227,93.63961432330572,104.95322642044205,73.08759501228252,127.29337390308889,4.0,4.1,-204,-274,0,-14,212,-263,582.7482385635376,582.7483534812927,582.7521963119507,582.7630698680878,582.9086382389069,582.9086382389069,582.9086382389069,582.9086382389069,582.9086382389069,582.9086382389069,582.9086382389069,586.1709742546082,1,3.398392915725708,None,,,,,,,,,,,,,,,,,,145,1,2025-02-27_13h19.32.581,comp,2024.2.4,58.071458437750074,2025-02-27 13h19.43.015634 -0500,
75,75,0,critical,whd,20.0,2.1,upper,125.0,200.0,200.0,125.0,141.0,141.0,2,1.5260765552520752,None,,,,,0,0,0,0,0,75,75,15,586.1879286766052,,,,,,,,,,,,,,,,,,,,,,,,,,,,,,,,,,,,,,,,,,,,,,,,,,,,,,,,,,,,,,,,,,,,,,,,,,,,,,,,,125.0,200.0,200.0,125.0,141.0,141.0,2.1,2.11,-258,277,0,270,229,-260,586.1725342273712,586.1726121902466,586.1755013465881,586.1879286766052,586.3297107219696,586.3297107219696,586.3297107219696,586.3297107219696,586.3297107219696,586.3297107219696,586.3297107219696,587.7298655509949,2,1.5260765552520752,None,,,,,,,,,,,,,,,,,,145,1,2025-02-27_13h19.32.581,comp,2024.2.4,58.071458437750074,2025-02-27 13h19.43.015634 -0500,
76,76,0,filler_random,None,None,None,None,None,None,None,None,None,None,2,1.2562739849090576,None,,,,,0,0,0,0,0,76,76,140,587.7452068328857,,,,,,,,,,,,,,,,,,,,,,,,,,,,,,,,,,,,,,,,,,,,,,,,,,,,,,,,,,,,,,,,,,,,,,,,,,,,,,,,,72.13453469561772,190.8947528830471,121.71610488009786,141.06308852184634,62.38199803618406,70.1500599328328,1.0,1.1,-742,271,-480,278,-278,263,587.7316031455994,587.7316827774048,587.7348957061768,587.7452068328857,587.8933658599854,587.8933658599854,587.8933658599854,587.8933658599854,587.8933658599854,587.8933658599854,587.8933658599854,589.0146698951721,2,1.2562739849090576,None,,,,,,,,,,,,,,,,,,145,1,2025-02-27_13h19.32.581,comp,2024.2.4,58.071458437750074,2025-02-27 13h19.43.015634 -0500,
77,77,0,critical,hwd,20.0,2.1,upper,200.0,125.0,125.0,200.0,141.0,141.0,1,3.8516290187835693,None,,,,,0,0,0,0,0,77,77,19,589.0298094749451,,,,,,,,,,,,,,,,,,,,,,,,,,,,,,,,,,,,,,,,,,,,,,,,,,,,,,,,,,,,,,,,,,,,,,,,,,,,,,,,,200.0,125.0,125.0,200.0,141.0,141.0,2.1,2.12,-258,-267,0,-280,266,252,589.0162539482117,589.0163772106171,589.019514799118,589.0298094749451,589.1795513629913,589.1795513629913,589.1795513629913,589.1795513629913,589.1795513629913,589.1795513629913,589.1795513629913,592.8967909812927,1,3.8516290187835693,None,,,,,,,,,,,,,,,,,,145,1,2025-02-27_13h19.32.581,comp,2024.2.4,58.071458437750074,2025-02-27 13h19.43.015634 -0500,
78,78,0,critical,dwh,20.0,2.1,lower,78.0,78.0,57.0,133.0,133.0,57.0,3,2.924994945526123,None,,,,,0,0,0,0,0,78,78,30,592.916558265686,,,,,,,,,,,,,,,,,,,,,,,,,,,,,,,,,,,,,,,,,,,,,,,,,,,,,,,,,,,,,,,,,,,,,,,,,,,,,,,,,78.0,78.0,57.0,133.0,133.0,57.0,2.1,2.11,-202,282,0,289,191,-265,592.8983235359192,592.8983991146088,592.9013960361481,592.916558265686,593.0671429634094,593.0671429634094,593.0671429634094,593.0671429634094,593.0671429634094,593.0671429634094,593.0671429634094,595.8584413528442,3,2.924994945526123,None,,,,,,,,,,,,,,,,,,145,1,2025-02-27_13h19.32.581,comp,2024.2.4,58.071458437750074,2025-02-27 13h19.43.015634 -0500,
79,79,0,filler_square,None,None,None,None,None,None,None,None,None,None,3,2.0792078971862793,None,,,,,0,0,0,0,0,79,79,201,595.8745205402374,,,,,,,,,,,,,,,,,,,,,,,,,,,,,,,,,,,,,,,,,,,,,,,,,,,,,,,,,,,,,,,,,,,,,,,,,,,,,,,,,179.3722677518864,121.77364736140774,142.38882045067137,173.91680991463164,180.78270206086205,180.78270206086205,2.1,2.11,-244,254,0,288,273,-277,595.8604602813721,595.8605372905731,595.8637616634369,595.8745205402374,596.0129199028015,596.0129199028015,596.0129199028015,596.0129199028015,596.0129199028015,596.0129199028015,596.0129199028015,597.9661655426025,3,2.0792078971862793,None,,,,,,,,,,,,,,,,,,145,1,2025-02-27_13h19.32.581,comp,2024.2.4,58.071458437750074,2025-02-27 13h19.43.015634 -0500,
80,80,0,filler_square,None,None,None,None,None,None,None,None,None,None,1,1.5752341747283936,None,,,,,0,0,0,0,0,80,80,205,597.9868142604828,,,,,,,,,,,,,,,,,,,,,,,,,,,,,,,,,,,,,,,,,,,,,,,,,,,,,,,,,,,,,,,,,,,,,,,,,,,,,,,,,84.35940324435657,84.35940324435657,75.12761974406682,65.20359471990028,75.36660962901078,79.54019831314899,2.1,2.11,-171,263,0,263,168,-259,597.9680459499359,597.9681248664856,597.9710040092468,597.9868142604828,598.1331477165222,598.1331477165222,598.1331477165222,598.1331477165222,598.1331477165222,598.1331477165222,598.1331477165222,599.5668997764587,1,1.5752341747283936,None,,,,,,,,,,,,,,,,,,145,1,2025-02-27_13h19.32.581,comp,2024.2.4,58.071458437750074,2025-02-27 13h19.43.015634 -0500,
81,81,0,filler_square,None,None,None,None,None,None,None,None,None,None,3,1.6269495487213135,None,,,,,0,0,0,0,0,81,81,209,599.5833468437195,,,,,,,,,,,,,,,,,,,,,,,,,,,,,,,,,,,,,,,,,,,,,,,,,,,,,,,,,,,,,,,,,,,,,,,,,,,,,,,,,121.6622588440187,65.67308505015905,94.0421864686661,91.45444408314751,129.58742913617226,129.58742913617226,3.0,3.1,-175,268,0,2,207,-281,599.5688498020172,599.5689284801483,599.5722601413727,599.5833468437195,599.7343158721924,599.7343158721924,599.7343158721924,599.7343158721924,599.7343158721924,599.7343158721924,599.7343158721924,601.2178905010223,3,1.6269495487213135,None,,,,,,,,,,,,,,,,,,145,1,2025-02-27_13h19.32.581,comp,2024.2.4,58.071458437750074,2025-02-27 13h19.43.015634 -0500,
82,82,0,filler_random,None,None,None,None,None,None,None,None,None,None,1,2.006754159927368,None,,,,,0,0,0,0,0,82,82,169,601.2346794605255,,,,,,,,,,,,,,,,,,,,,,,,,,,,,,,,,,,,,,,,,,,,,,,,,,,,,,,,,,,,,,,,,,,,,,,,,,,,,,,,,125.56888838501898,176.557493339851,88.27200125658544,59.92609149847753,78.45581718659597,143.90612459386432,2.2,2.22,-214,261,0,-268,198,-268,601.2197489738464,601.2198784351349,601.2238318920135,601.2346794605255,601.3839781284332,601.3839781284332,601.3839781284332,601.3839781284332,601.3839781284332,601.3839781284332,601.3839781284332,603.2517063617706,1,2.006754159927368,None,,,,,,,,,,,,,,,,,,145,1,2025-02-27_13h19.32.581,comp,2024.2.4,58.071458437750074,2025-02-27 13h19.43.015634 -0500,
83,83,0,critical,dwh,35.0,4.0,lower,70.0,70.0,57.0,133.0,133.0,57.0,3,3.1011829376220703,None,,,,,0,0,0,0,0,83,83,64,603.268364906311,,,,,,,,,,,,,,,,,,,,,,,,,,,,,,,,,,,,,,,,,,,,,,,,,,,,,,,,,,,,,,,,,,,,,,,,,,,,,,,,,70.0,70.0,57.0,133.0,133.0,57.0,4.0,4.2,-198,-18,0,-264,191,-19,603.2532424926758,603.2533829212189,603.256897687912,603.268364906311,603.4180681705475,603.4180681705475,603.4180681705475,603.4180681705475,603.4180681705475,603.4180681705475,603.4180681705475,606.3895645141602,3,3.1011829376220703,None,,,,,,,,,,,,,,,,,,145,1,2025-02-27_13h19.32.581,comp,2024.2.4,58.071458437750074,2025-02-27 13h19.43.015634 -0500,
84,84,0,critical,hwd,35.0,1.0,upper,200.0,125.0,125.0,200.0,127.0,127.0,1,2.743648052215576,None,,,,,0,0,0,0,0,84,84,97,606.4101536273956,,,,,,,,,,,,,,,,,,,,,,,,,,,,,,,,,,,,,,,,,,,,,,,,,,,,,,,,,,,,,,,,,,,,,,,,,,,,,,,,,200.0,125.0,125.0,200.0,127.0,127.0,1.0,1.1,-738,251,-480,277,-220,271,606.391211271286,606.3913338184357,606.3947105407715,606.4101536273956,606.5521116256714,606.5521116256714,606.5521116256714,606.5521116256714,606.5521116256714,606.5521116256714,606.5521116256714,609.1585221290588,1,2.743648052215576,None,,,,,,,,,,,,,,,,,,145,1,2025-02-27_13h19.32.581,comp,2024.2.4,58.071458437750074,2025-02-27 13h19.43.015634 -0500,
85,85,0,critical,whd,35.0,4.0,lower,57.0,133.0,133.0,57.0,70.0,70.0,2,3.3282248973846436,None,,,,,0,0,0,0,0,85,85,88,609.1772468090057,,,,,,,,,,,,,,,,,,,,,,,,,,,,,,,,,,,,,,,,,,,,,,,,,,,,,,,,,,,,,,,,,,,,,,,,,,,,,,,,,57.0,133.0,133.0,57.0,70.0,70.0,4.0,4.1,-191,-267,0,8,160,-264,609.1599929332733,609.1600666046143,609.1628894805908,609.1772468090057,609.3182609081268,609.3182609081268,609.3182609081268,609.3182609081268,609.3182609081268,609.3182609081268,609.3182609081268,612.519368648529,2,3.3282248973846436,None,,,,,,,,,,,,,,,,,,145,1,2025-02-27_13h19.32.581,comp,2024.2.4,58.071458437750074,2025-02-27 13h19.43.015634 -0500,
86,86,0,critical,dwh,20.0,3.0,lower,78.0,78.0,57.0,133.0,133.0,57.0,3,2.9146900177001953,None,,,,,0,0,0,0,0,86,86,68,612.5351417064667,,,,,,,,,,,,,,,,,,,,,,,,,,,,,,,,,,,,,,,,,,,,,,,,,,,,,,,,,,,,,,,,,,,,,,,,,,,,,,,,,78.0,78.0,57.0,133.0,133.0,57.0,3.0,3.2,-202,-257,0,2,191,277,612.5208203792572,612.5208945274353,612.5237979888916,612.5351417064667,612.6835761070251,612.6835761070251,612.6835761070251,612.6835761070251,612.6835761070251,612.6835761070251,612.6835761070251,615.4549479484558,3,2.9146900177001953,None,,,,,,,,,,,,,,,,,,145,1,2025-02-27_13h19.32.581,comp,2024.2.4,58.071458437750074,2025-02-27 13h19.43.015634 -0500,
87,87,0,catch,None,None,None,None,None,None,None,None,None,None,2,1.278172254562378,None,,,,,0,0,0,0,0,87,87,127,615.4757890701294,,,,,,,,,,,,,,,,,,,,,,,,,,,,,,,,,,,,,,,,,,,,,,,,,,,,,,,,,,,,,,,,,,,,,,,,,,,,,,,,,63,127,155,170,117,73,2.2,2.21,-244,-271,0,280,218,254,615.456841468811,615.4569187164307,615.4600162506104,615.4757890701294,615.6203465461731,615.6203465461731,615.6203465461731,615.6203465461731,615.6203465461731,615.6203465461731,615.6203465461731,616.7567782402039,2,1.278172254562378,None,,,,,,,,,,,,,,,,,,145,1,2025-02-27_13h19.32.581,comp,2024.2.4,58.071458437750074,2025-02-27 13h19.43.015634 -0500,
88,88,0,critical,hwd,20.0,2.1,lower,133.0,57.0,57.0,133.0,78.0,78.0,1,2.1166722774505615,None,,,,,0,0,0,0,0,88,88,42,616.7728848457336,,,,,,,,,,,,,,,,,,,,,,,,,,,,,,,,,,,,,,,,,,,,,,,,,,,,,,,,,,,,,,,,,,,,,,,,,,,,,,,,,133.0,57.0,57.0,133.0,78.0,78.0,2.1,2.11,-191,264,0,259,202,-277,616.7585897445679,616.7587175369263,616.7621133327484,616.7728848457336,616.9239585399628,616.9239585399628,616.9239585399628,616.9239585399628,616.9239585399628,616.9239585399628,616.9239585399628,618.9056897163391,1,2.1166722774505615,None,,,,,,,,,,,,,,,,,,145,1,2025-02-27_13h19.32.581,comp,2024.2.4,58.071458437750074,2025-02-27 13h19.43.015634 -0500,
89,89,0,critical,hwd,35.0,1.0,lower,133.0,57.0,57.0,133.0,70.0,70.0,1,1.9290151596069336,None,,,,,0,0,0,0,0,89,89,96,618.9213364124298,,,,,,,,,,,,,,,,,,,,,,,,,,,,,,,,,,,,,,,,,,,,,,,,,,,,,,,,,,,,,,,,,,,,,,,,,,,,,,,,,133.0,57.0,57.0,133.0,70.0,70.0,1.0,1.3,289,-260,480,-277,678,-259,618.9073882102966,618.9075152873993,618.9109060764313,618.9213364124298,619.0773310661316,619.0773310661316,619.0773310661316,619.0773310661316,619.0773310661316,619.0773310661316,619.0773310661316,620.8572347164154,1,1.9290151596069336,None,,,,,,,,,,,,,,,,,,145,1,2025-02-27_13h19.32.581,comp,2024.2.4,58.071458437750074,2025-02-27 13h19.43.015634 -0500,
90,90,0,critical,dwh,35.0,3.0,upper,127.0,127.0,125.0,200.0,200.0,125.0,3,1.824326992034912,None,,,,,0,0,0,0,0,90,90,63,620.87433552742,,,,,,,,,,,,,,,,,,,,,,,,,,,,,,,,,,,,,,,,,,,,,,,,,,,,,,,,,,,,,,,,,,,,,,,,,,,,,,,,,127.0,127.0,125.0,200.0,200.0,125.0,3.0,3.1,-260,277,0,20,258,-283,620.858891248703,620.8589863777161,620.8625485897064,620.87433552742,621.0228044986725,621.0228044986725,621.0228044986725,621.0228044986725,621.0228044986725,621.0228044986725,621.0228044986725,622.707359790802,3,1.824326992034912,None,,,,,,,,,,,,,,,,,,145,1,2025-02-27_13h19.32.581,comp,2024.2.4,58.071458437750074,2025-02-27 13h19.43.015634 -0500,
91,91,0,critical,hwd,35.0,3.0,lower,133.0,57.0,57.0,133.0,70.0,70.0,1,2.89249849319458,None,,,,,0,0,0,0,0,91,91,98,622.7254474163055,,,,,,,,,,,,,,,,,,,,,,,,,,,,,,,,,,,,,,,,,,,,,,,,,,,,,,,,,,,,,,,,,,,,,,,,,,,,,,,,,133.0,57.0,57.0,133.0,70.0,70.0,3.0,3.1,-191,251,0,-7,198,-274,622.7088692188263,622.7089455127716,622.7119762897491,622.7254474163055,622.873701095581,622.873701095581,622.873701095581,622.873701095581,622.873701095581,622.873701095581,622.873701095581,625.6259477138519,1,2.89249849319458,None,,,,,,,,,,,,,,,,,,145,1,2025-02-27_13h19.32.581,comp,2024.2.4,58.071458437750074,2025-02-27 13h19.43.015634 -0500,
92,92,0,critical,hdw,20.0,1.0,lower,133.0,57.0,78.0,78.0,57.0,133.0,1,3.4867136478424072,None,,,,,0,0,0,0,0,92,92,114,625.6437096595764,,,,,,,,,,,,,,,,,,,,,,,,,,,,,,,,,,,,,,,,,,,,,,,,,,,,,,,,,,,,,,,,,,,,,,,,,,,,,,,,,133.0,57.0,78.0,78.0,57.0,133.0,1.0,1.3,316,-271,480,-286,682,-272,625.6274945735931,625.6275777816772,625.63050532341,625.6437096595764,625.7895505428314,625.7895505428314,625.7895505428314,625.7895505428314,625.7895505428314,625.7895505428314,625.7895505428314,629.1422054767609,1,3.4867136478424072,None,,,,,,,,,,,,,,,,,,145,1,2025-02-27_13h19.32.581,comp,2024.2.4,58.071458437750074,2025-02-27 13h19.43.015634 -0500,
93,93,0,filler_random,None,None,None,None,None,None,None,None,None,None,3,1.6429221630096436,None,,,,,0,0,0,0,0,93,93,134,629.1589748859406,,,,,,,,,,,,,,,,,,,,,,,,,,,,,,,,,,,,,,,,,,,,,,,,,,,,,,,,,,,,,,,,,,,,,,,,,,,,,,,,,98.78671625694582,141.2216457005929,84.34545246403795,136.26854526638238,163.68201805325162,181.9414624702187,1.0,1.2,-235,12,0,-16,255,-10,629.1440923213959,629.1442124843597,629.1476895809174,629.1589748859406,629.308779001236,629.308779001236,629.308779001236,629.308779001236,629.308779001236,629.308779001236,629.308779001236,630.8136260509491,3,1.6429221630096436,None,,,,,,,,,,,,,,,,,,145,1,2025-02-27_13h19.32.581,comp,2024.2.4,58.071458437750074,2025-02-27 13h19.43.015634 -0500,
94,94,0,critical,whd,20.0,3.0,lower,57.0,133.0,133.0,57.0,78.0,78.0,2,2.987569570541382,None,,,,,0,0,0,0,0,94,94,92,630.8299276828766,,,,,,,,,,,,,,,,,,,,,,,,,,,,,,,,,,,,,,,,,,,,,,,,,,,,,,,,,,,,,,,,,,,,,,,,,,,,,,,,,57.0,133.0,133.0,57.0,78.0,78.0,3.0,3.2,-191,-287,0,-11,164,256,630.8151805400848,630.8152616024017,630.8190906047821,630.8299276828766,630.977400302887,630.977400302887,630.977400302887,630.977400302887,630.977400302887,630.977400302887,630.977400302887,633.8271284103394,2,2.987569570541382,None,,,,,,,,,,,,,,,,,,145,1,2025-02-27_13h19.32.581,comp,2024.2.4,58.071458437750074,2025-02-27 13h19.43.015634 -0500,
95,95,0,filler_random,None,None,None,None,None,None,None,None,None,None,3,1.0614116191864014,None,,,,,0,0,0,0,0,95,95,166,633.8445014953613,,,,,,,,,,,,,,,,,,,,,,,,,,,,,,,,,,,,,,,,,,,,,,,,,,,,,,,,,,,,,,,,,,,,,,,,,,,,,,,,,100.93606481162598,75.6821815751418,197.35066448968038,68.93153787870489,170.6475284071543,110.9480268843376,4.0,4.1,-168,-271,0,15,186,-268,633.8289337158203,633.8290655612946,633.8331618309021,633.8445014953613,633.9904570579529,633.9904570579529,633.9904570579529,633.9904570579529,633.9904570579529,633.9904570579529,633.9904570579529,634.9078719615936,3,1.0614116191864014,None,,,,,,,,,,,,,,,,,,145,1,2025-02-27_13h19.32.581,comp,2024.2.4,58.071458437750074,2025-02-27 13h19.43.015634 -0500,
96,96,0,filler_square,None,None,None,None,None,None,None,None,None,None,3,1.3018083572387695,None,,,,,0,0,0,0,0,96,96,173,634.9243416786194,,,,,,,,,,,,,,,,,,,,,,,,,,,,,,,,,,,,,,,,,,,,,,,,,,,,,,,,,,,,,,,,,,,,,,,,,,,,,,,,,87.16855092756128,92.22090909683928,64.01721443642947,95.44254727111405,114.58378668059876,114.58378668059876,2.2,2.21,-190,-257,0,254,201,271,634.9098033905029,634.909880399704,634.9130647182465,634.9243416786194,635.0694420337677,635.0694420337677,635.0694420337677,635.0694420337677,635.0694420337677,635.0694420337677,635.0694420337677,636.2436392307281,3,1.3018083572387695,None,,,,,,,,,,,,,,,,,,145,1,2025-02-27_13h19.32.581,comp,2024.2.4,58.071458437750074,2025-02-27 13h19.43.015634 -0500,
97,97,0,filler_random,None,None,None,None,None,None,None,None,None,None,1,0.8852086067199707,None,,,,,0,0,0,0,0,97,97,137,636.2603042125702,,,,,,,,,,,,,,,,,,,,,,,,,,,,,,,,,,,,,,,,,,,,,,,,,,,,,,,,,,,,,,,,,,,,,,,,,,,,,,,,,195.28093570339956,147.06902509337402,151.36126008110983,79.70014233294938,71.77689164642625,66.51033207076797,2.1,2.11,-209,262,0,280,169,-283,636.2453901767731,636.2454624176025,636.2486808300018,636.2603042125702,636.4216241836548,636.4216241836548,636.4216241836548,636.4216241836548,636.4216241836548,636.4216241836548,636.4216241836548,637.147789478302,1,0.8852086067199707,None,,,,,,,,,,,,,,,,,,145,1,2025-02-27_13h19.32.581,comp,2024.2.4,58.071458437750074,2025-02-27 13h19.43.015634 -0500,
98,98,0,filler_random,None,None,None,None,None,None,None,None,None,None,3,1.3815743923187256,None,,,,,0,0,0,0,0,98,98,150,637.1640048027039,,,,,,,,,,,,,,,,,,,,,,,,,,,,,,,,,,,,,,,,,,,,,,,,,,,,,,,,,,,,,,,,,,,,,,,,,,,,,,,,,76.17451535740108,169.51297794037146,87.68780939774805,136.42698104817504,137.39694179638585,125.13214519250054,4.0,4.2,-249,3,0,-286,227,-20,637.1496558189392,637.1497626304626,637.1530921459198,637.1640048027039,637.3092319965363,637.3092319965363,637.3092319965363,637.3092319965363,637.3092319965363,637.3092319965363,637.3092319965363,638.5618999004364,3,1.3815743923187256,None,,,,,,,,,,,,,,,,,,145,1,2025-02-27_13h19.32.581,comp,2024.2.4,58.071458437750074,2025-02-27 13h19.43.015634 -0500,
99,99,0,filler_square,None,None,None,None,None,None,None,None,None,None,1,1.4723315238952637,None,,,,,0,0,0,0,0,99,99,182,638.5772504806519,,,,,,,,,,,,,,,,,,,,,,,,,,,,,,,,,,,,,,,,,,,,,,,,,,,,,,,,,,,,,,,,,,,,,,,,,,,,,,,,,134.35722091656206,134.35722091656206,106.78185372246338,90.82337169121415,98.02582773834021,107.45276231173398,2.2,2.22,-209,274,0,-269,195,-282,638.5636417865753,638.5637168884277,638.5668952465057,638.5772504806519,638.7330813407898,638.7330813407898,638.7330813407898,638.7330813407898,638.7330813407898,638.7330813407898,638.7330813407898,640.0616550445557,1,1.4723315238952637,None,,,,,,,,,,,,,,,,,,145,1,2025-02-27_13h19.32.581,comp,2024.2.4,58.071458437750074,2025-02-27 13h19.43.015634 -0500,
100,100,0,critical,hdw,35.0,1.0,upper,200.0,125.0,127.0,127.0,125.0,200.0,1,1.0243520736694336,None,,,,,0,0,0,0,0,100,100,109,640.0820195674896,,,,,,,,,,,,,,,,,,,,,,,,,,,,,,,,,,,,,,,,,,,,,,,,,,,,,,,,,,,,,,,,,,,,,,,,,,,,,,,,,200.0,125.0,127.0,127.0,125.0,200.0,1.0,1.2,-222,8,0,13,260,-6,640.06312251091,640.0631952285767,640.0663430690765,640.0820195674896,640.2291672229767,640.2291672229767,640.2291672229767,640.2291672229767,640.2291672229767,640.2291672229767,640.2291672229767,641.1131677627563,1,1.0243520736694336,None,,,,,,,,,,,,,,,,,,145,1,2025-02-27_13h19.32.581,comp,2024.2.4,58.071458437750074,2025-02-27 13h19.43.015634 -0500,
101,101,0,filler_square,None,None,None,None,None,None,None,None,None,None,1,1.9785356521606445,None,,,,,0,0,0,0,0,101,101,203,641.1349849700928,,,,,,,,,,,,,,,,,,,,,,,,,,,,,,,,,,,,,,,,,,,,,,,,,,,,,,,,,,,,,,,,,,,,,,,,,,,,,,,,,72.83894356942099,72.83894356942099,67.06839818330815,57.320701197513486,63.379899673493526,65.76928361575159,3.0,3.2,-161,-262,0,16,158,288,641.1152257919312,641.1153345108032,641.1187303066254,641.1349849700928,641.2826142311096,641.2826142311096,641.2826142311096,641.2826142311096,641.2826142311096,641.2826142311096,641.2826142311096,643.1325087547302,1,1.9785356521606445,None,,,,,,,,,,,,,,,,,,145,1,2025-02-27_13h19.32.581,comp,2024.2.4,58.071458437750074,2025-02-27 13h19.43.015634 -0500,
102,102,0,critical,dhw,20.0,3.0,upper,141.0,141.0,200.0,125.0,125.0,200.0,3,2.331880569458008,None,,,,,0,0,0,0,0,102,102,57,643.1497168540955,,,,,,,,,,,,,,,,,,,,,,,,,,,,,,,,,,,,,,,,,,,,,,,,,,,,,,,,,,,,,,,,,,,,,,,,,,,,,,,,,141.0,141.0,200.0,125.0,125.0,200.0,3.0,3.2,-229,-258,0,12,258,272,643.134039402008,643.1341149806976,643.1371638774872,643.1497168540955,643.2961292266846,643.2961292266846,643.2961292266846,643.2961292266846,643.2961292266846,643.2961292266846,643.2961292266846,645.4972493648529,3,2.331880569458008,None,,,,,,,,,,,,,,,,,,145,1,2025-02-27_13h19.32.581,comp,2024.2.4,58.071458437750074,2025-02-27 13h19.43.015634 -0500,
103,103,0,filler_square,None,None,None,None,None,None,None,None,None,None,3,2.032691240310669,None,,,,,0,0,0,0,0,103,103,185,645.5131843090057,,,,,,,,,,,,,,,,,,,,,,,,,,,,,,,,,,,,,,,,,,,,,,,,,,,,,,,,,,,,,,,,,,,,,,,,,,,,,,,,,82.18766577202167,88.78980588162435,80.70331812504101,72.10650980256892,90.98660270260967,90.98660270260967,4.0,4.1,-176,-256,0,0,178,-257,645.4992942810059,645.4993765354156,645.5027797222137,645.5131843090057,645.662458896637,645.662458896637,645.662458896637,645.662458896637,645.662458896637,645.662458896637,645.662458896637,647.563857793808,3,2.032691240310669,None,,,,,,,,,,,,,,,,,,145,1,2025-02-27_13h19.32.581,comp,2024.2.4,58.071458437750074,2025-02-27 13h19.43.015634 -0500,
104,104,0,filler_square,None,None,None,None,None,None,None,None,None,None,1,3.6697003841400146,None,,,,,0,0,0,0,0,104,104,207,647.5799481868744,,,,,,,,,,,,,,,,,,,,,,,,,,,,,,,,,,,,,,,,,,,,,,,,,,,,,,,,,,,,,,,,,,,,,,,,,,,,,,,,,108.47552133755937,108.47552133755937,67.77916784694636,92.18323533589344,106.8379723000973,75.16378785101418,2.1,2.12,-196,-275,0,-287,180,255,647.5656740665436,647.5657513141632,647.5687763690948,647.5799481868744,647.7313694953918,647.7313694953918,647.7313694953918,647.7313694953918,647.7313694953918,647.7313694953918,647.7313694953918,651.2570810317993,1,3.6697003841400146,None,,,,,,,,,,,,,,,,,,145,1,2025-02-27_13h19.32.581,comp,2024.2.4,58.071458437750074,2025-02-27 13h19.43.015634 -0500,
105,105,0,critical,wdh,20.0,4.0,upper,125.0,200.0,141.0,141.0,200.0,125.0,1,2.3515312671661377,None,,,,,0,0,0,0,0,105,105,83,651.2748279571533,,,,,,,,,,,,,,,,,,,,,,,,,,,,,,,,,,,,,,,,,,,,,,,,,,,,,,,,,,,,,,,,,,,,,,,,,,,,,,,,,125.0,200.0,141.0,141.0,200.0,125.0,4.0,4.1,-266,-284,0,-16,229,-253,651.2586579322815,651.2587349414825,651.261598110199,651.2748279571533,651.4167039394379,651.4167039394379,651.4167039394379,651.4167039394379,651.4167039394379,651.4167039394379,651.4167039394379,653.6357960700989,1,2.3515312671661377,None,,,,,,,,,,,,,,,,,,145,1,2025-02-27_13h19.32.581,comp,2024.2.4,58.071458437750074,2025-02-27 13h19.43.015634 -0500,
106,106,0,critical,hdw,35.0,2.1,lower,133.0,57.0,70.0,70.0,57.0,133.0,3,2.678058624267578,None,,,,,0,0,0,0,0,106,106,44,653.652247428894,,,,,,,,,,,,,,,,,,,,,,,,,,,,,,,,,,,,,,,,,,,,,,,,,,,,,,,,,,,,,,,,,,,,,,,,,,,,,,,,,133.0,57.0,70.0,70.0,57.0,133.0,2.1,2.11,-160,277,0,286,198,-289,653.6374855041504,653.6375617980957,653.641437292099,653.652247428894,653.802826166153,653.802826166153,653.802826166153,653.802826166153,653.802826166153,653.802826166153,653.802826166153,656.3487389087677,3,2.678058624267578,None,,,,,,,,,,,,,,,,,,145,1,2025-02-27_13h19.32.581,comp,2024.2.4,58.071458437750074,2025-02-27 13h19.43.015634 -0500,
107,107,0,critical,wdh,35.0,1.0,upper,125.0,200.0,127.0,127.0,200.0,125.0,3,2.1174654960632324,None,,,,,0,0,0,0,0,107,107,73,656.3640894889832,,,,,,,,,,,,,,,,,,,,,,,,,,,,,,,,,,,,,,,,,,,,,,,,,,,,,,,,,,,,,,,,,,,,,,,,,,,,,,,,,125.0,200.0,127.0,127.0,200.0,125.0,1.0,1.1,-740,269,-480,250,-258,266,656.3503646850586,656.350457906723,656.3541324138641,656.3640894889832,656.5183517932892,656.5183517932892,656.5183517932892,656.5183517932892,656.5183517932892,656.5183517932892,656.5183517932892,658.4849174022675,3,2.1174654960632324,None,,,,,,,,,,,,,,,,,,145,1,2025-02-27_13h19.32.581,comp,2024.2.4,58.071458437750074,2025-02-27 13h19.43.015634 -0500,
108,108,0,critical,dhw,35.0,2.1,upper,127.0,127.0,200.0,125.0,125.0,200.0,3,3.1100776195526123,None,,,,,0,0,0,0,0,108,108,1,658.5008881092072,,,,,,,,,,,,,,,,,,,,,,,,,,,,,,,,,,,,,,,,,,,,,,,,,,,,,,,,,,,,,,,,,,,,,,,,,,,,,,,,,127.0,127.0,200.0,125.0,125.0,200.0,2.1,2.12,-222,-283,0,-279,258,278,658.4865539073944,658.4866285324097,658.4900023937225,658.5008881092072,658.651575088501,658.651575088501,658.651575088501,658.651575088501,658.651575088501,658.651575088501,658.651575088501,661.6175787448883,3,3.1100776195526123,None,,,,,,,,,,,,,,,,,,145,1,2025-02-27_13h19.32.581,comp,2024.2.4,58.071458437750074,2025-02-27 13h19.43.015634 -0500,
109,109,0,critical,hdw,35.0,2.1,upper,200.0,125.0,127.0,127.0,125.0,200.0,1,2.320794105529785,None,,,,,0,0,0,0,0,109,109,21,661.6329567432404,,,,,,,,,,,,,,,,,,,,,,,,,,,,,,,,,,,,,,,,,,,,,,,,,,,,,,,,,,,,,,,,,,,,,,,,,,,,,,,,,200.0,125.0,127.0,127.0,125.0,200.0,2.1,2.12,-222,-269,0,-251,260,282,661.6190664768219,661.6191399097443,661.6220283508301,661.6329567432404,661.7750718593597,661.7750718593597,661.7750718593597,661.7750718593597,661.7750718593597,661.7750718593597,661.7750718593597,663.968642950058,1,2.320794105529785,None,,,,,,,,,,,,,,,,,,145,1,2025-02-27_13h19.32.581,comp,2024.2.4,58.071458437750074,2025-02-27 13h19.43.015634 -0500,
110,110,0,critical,dhw,35.0,2.1,lower,70.0,70.0,133.0,57.0,57.0,133.0,2,8.952942132949829,None,,,,,0,0,0,0,0,110,110,24,663.9847197532654,,,,,,,,,,,,,,,,,,,,,,,,,,,,,,,,,,,,,,,,,,,,,,,,,,,,,,,,,,,,,,,,,,,,,,,,,,,,,,,,,70.0,70.0,133.0,57.0,57.0,133.0,2.1,2.11,-160,252,0,281,191,-265,663.9701743125916,663.9702498912811,663.9734330177307,663.9847197532654,664.133314371109,664.133314371109,664.133314371109,664.133314371109,664.133314371109,664.133314371109,664.133314371109,672.9557662010193,2,8.952942132949829,None,,,,,,,,,,,,,,,,,,145,1,2025-02-27_13h19.32.581,comp,2024.2.4,58.071458437750074,2025-02-27 13h19.43.015634 -0500,
111,111,0,catch,None,None,None,None,None,None,None,None,None,None,3,0.7507824897766113,None,,,,,0,0,0,0,0,111,111,121,672.9714164733887,,,,,,,,,,,,,,,,,,,,,,,,,,,,,,,,,,,,,,,,,,,,,,,,,,,,,,,,,,,,,,,,,,,,,,,,,,,,,,,,,119,71,86,104,139,186,2.1,2.12,-184,-289,0,-274,241,286,672.9576578140259,672.957738161087,672.9611012935638,672.9714164733887,673.1227340698242,673.1227340698242,673.1227340698242,673.1227340698242,673.1227340698242,673.1227340698242,673.1227340698242,673.7295608520508,3,0.7507824897766113,None,,,,,,,,,,,,,,,,,,145,1,2025-02-27_13h19.32.581,comp,2024.2.4,58.071458437750074,2025-02-27 13h19.43.015634 -0500,
112,112,0,filler_square,None,None,None,None,None,None,None,None,None,None,3,1.1423323154449463,None,,,,,0,0,0,0,0,112,112,204,673.7474050521851,,,,,,,,,,,,,,,,,,,,,,,,,,,,,,,,,,,,,,,,,,,,,,,,,,,,,,,,,,,,,,,,,,,,,,,,,,,,,,,,,58.81922995051576,65.55412801043346,59.624933087247186,61.45900262060272,65.56054829395693,65.56054829395693,3.0,3.2,-160,-274,0,7,160,252,673.7313916683197,673.7314698696136,673.7343463897705,673.7474050521851,673.8890907764435,673.8890907764435,673.8890907764435,673.8890907764435,673.8890907764435,673.8890907764435,673.8890907764435,674.9078099727631,3,1.1423323154449463,None,,,,,,,,,,,,,,,,,,145,1,2025-02-27_13h19.32.581,comp,2024.2.4,58.071458437750074,2025-02-27 13h19.43.015634 -0500,
113,113,0,filler_random,None,None,None,None,None,None,None,None,None,None,3,1.83821702003479,None,,,,,0,0,0,0,0,113,113,136,674.9240350723267,,,,,,,,,,,,,,,,,,,,,,,,,,,,,,,,,,,,,,,,,,,,,,,,,,,,,,,,,,,,,,,,,,,,,,,,,,,,,,,,,70.91894493930334,136.0102269724386,112.45541300804501,119.73393405657339,150.59636282803052,102.76577180220207,3.0,3.1,-224,285,0,-14,207,-286,674.9095678329468,674.9096963405609,674.9129476547241,674.9240350723267,675.0690960884094,675.0690960884094,675.0690960884094,675.0690960884094,675.0690960884094,675.0690960884094,675.0690960884094,676.7737061977386,3,1.83821702003479,None,,,,,,,,,,,,,,,,,,145,1,2025-02-27_13h19.32.581,comp,2024.2.4,58.071458437750074,2025-02-27 13h19.43.015634 -0500,
114,114,0,filler_random,None,None,None,None,None,None,None,None,None,None,3,1.5395417213439941,None,,,,,0,0,0,0,0,114,114,163,676.7900016307831,,,,,,,,,,,,,,,,,,,,,,,,,,,,,,,,,,,,,,,,,,,,,,,,,,,,,,,,,,,,,,,,,,,,,,,,,,,,,,,,,141.3472651602898,94.3927976205607,170.90905398153694,57.6682864546988,133.59208557511272,166.84677096658783,1.0,1.2,-172,-3,0,12,208,-4,676.7754545211792,676.7755901813507,676.7790648937225,676.7900016307831,676.9397621154785,676.9397621154785,676.9397621154785,676.9397621154785,676.9397621154785,676.9397621154785,676.9397621154785,678.339971780777,3,1.5395417213439941,None,,,,,,,,,,,,,,,,,,145,1,2025-02-27_13h19.32.581,comp,2024.2.4,58.071458437750074,2025-02-27 13h19.43.015634 -0500,
115,115,0,filler_square,None,None,None,None,None,None,None,None,None,None,1,1.7100200653076172,None,,,,,0,0,0,0,0,115,115,199,678.3564441204071,,,,,,,,,,,,,,,,,,,,,,,,,,,,,,,,,,,,,,,,,,,,,,,,,,,,,,,,,,,,,,,,,,,,,,,,,,,,,,,,,130.70011940906835,130.70011940906835,73.44373325060403,85.51518348734866,71.2867150941883,115.05913029049488,3.0,3.2,-204,-268,0,15,196,274,678.3420011997223,678.3420803546906,678.3453769683838,678.3564441204071,678.5099923610687,678.5099923610687,678.5099923610687,678.5099923610687,678.5099923610687,678.5099923610687,678.5099923610687,680.0738627910614,1,1.7100200653076172,None,,,,,,,,,,,,,,,,,,145,1,2025-02-27_13h19.32.581,comp,2024.2.4,58.071458437750074,2025-02-27 13h19.43.015634 -0500,
116,116,0,filler_square,None,None,None,None,None,None,None,None,None,None,2,6.2696709632873535,None,,,,,0,0,0,0,0,116,116,179,680.0920174121857,,,,,,,,,,,,,,,,,,,,,,,,,,,,,,,,,,,,,,,,,,,,,,,,,,,,,,,,,,,,,,,,,,,,,,,,,,,,,,,,,71.89045834015002,71.89045834015002,70.06452715967727,70.21603898724707,62.070751776173104,68.36188962365048,2.1,2.11,-167,267,0,254,165,-265,680.0756647586823,680.075742483139,680.0787978172302,680.0920174121857,680.2423150539398,680.2423150539398,680.2423150539398,680.2423150539398,680.2423150539398,680.2423150539398,680.2423150539398,686.3791356086731,2,6.2696709632873535,None,,,,,,,,,,,,,,,,,,145,1,2025-02-27_13h19.32.581,comp,2024.2.4,58.071458437750074,2025-02-27 13h19.43.015634 -0500,
117,117,0,critical,hwd,20.0,2.1,lower,133.0,57.0,57.0,133.0,78.0,78.0,1,1.182931661605835,None,,,,,0,0,0,0,0,117,117,18,686.3946478366852,,,,,,,,,,,,,,,,,,,,,,,,,,,,,,,,,,,,,,,,,,,,,,,,,,,,,,,,,,,,,,,,,,,,,,,,,,,,,,,,,133.0,57.0,57.0,133.0,78.0,78.0,2.1,2.11,-191,263,0,255,202,-253,686.3810422420502,686.3811686038971,686.3843097686768,686.3946478366852,686.5434691905975,686.5434691905975,686.5434691905975,686.5434691905975,686.5434691905975,686.5434691905975,686.5434691905975,687.5946772098541,1,1.182931661605835,None,,,,,,,,,,,,,,,,,,145,1,2025-02-27_13h19.32.581,comp,2024.2.4,58.071458437750074,2025-02-27 13h19.43.015634 -0500,
118,118,0,filler_square,None,None,None,None,None,None,None,None,None,None,1,0.8953590393066406,None,,,,,0,0,0,0,0,118,118,170,687.6103792190552,,,,,,,,,,,,,,,,,,,,,,,,,,,,,,,,,,,,,,,,,,,,,,,,,,,,,,,,,,,,,,,,,,,,,,,,,,,,,,,,,198.21664677564743,198.21664677564743,123.83295980703669,110.75663037414178,175.76907234110638,117.04009603456564,1.0,1.2,-250,1,0,-5,210,-19,687.5963749885559,687.5964477062225,687.5993881225586,687.6103792190552,687.7566440105438,687.7566440105438,687.7566440105438,687.7566440105438,687.7566440105438,687.7566440105438,687.7566440105438,688.5119435787201,1,0.8953590393066406,None,,,,,,,,,,,,,,,,,,145,1,2025-02-27_13h19.32.581,comp,2024.2.4,58.071458437750074,2025-02-27 13h19.43.015634 -0500,
119,119,0,filler_square,None,None,None,None,None,None,None,None,None,None,2,1.1358797550201416,None,,,,,0,0,0,0,0,119,119,196,688.5300977230072,,,,,,,,,,,,,,,,,,,,,,,,,,,,,,,,,,,,,,,,,,,,,,,,,,,,,,,,,,,,,,,,,,,,,,,,,,,,,,,,,150.31324422822928,139.87985569621515,177.35692570001584,177.35692570001584,128.46170580379356,107.33787625345707,4.0,4.2,-255,4,0,-275,238,10,688.5137405395508,688.5138664245605,688.5168905258179,688.5300977230072,688.6764554977417,688.6764554977417,688.6764554977417,688.6764554977417,688.6764554977417,688.6764554977417,688.6764554977417,689.6827576160431,2,1.1358797550201416,None,,,,,,,,,,,,,,,,,,145,1,2025-02-27_13h19.32.581,comp,2024.2.4,58.071458437750074,2025-02-27 13h19.43.015634 -0500,
120,120,0,critical,hwd,20.0,3.0,lower,133.0,57.0,57.0,133.0,78.0,78.0,2,2.8587658405303955,None,,,,,0,0,0,0,0,120,120,104,689.7028787136078,,,,,,,,,,,,,,,,,,,,,,,,,,,,,,,,,,,,,,,,,,,,,,,,,,,,,,,,,,,,,,,,,,,,,,,,,,,,,,,,,133.0,57.0,57.0,133.0,78.0,78.0,3.0,3.2,-191,-285,0,-18,202,285,689.684335231781,689.6844084262848,689.6876893043518,689.7028787136078,689.8450338840485,689.8450338840485,689.8450338840485,689.8450338840485,689.8450338840485,689.8450338840485,689.8450338840485,692.5780155658722,2,2.8587658405303955,None,,,,,,,,,,,,,,,,,,145,1,2025-02-27_13h19.32.581,comp,2024.2.4,58.071458437750074,2025-02-27 13h19.43.015634 -0500,
121,121,0,critical,dwh,35.0,2.1,upper,127.0,127.0,125.0,200.0,200.0,125.0,3,1.1152589321136475,None,,,,,0,0,0,0,0,121,121,29,692.5983748435974,,,,,,,,,,,,,,,,,,,,,,,,,,,,,,,,,,,,,,,,,,,,,,,,,,,,,,,,,,,,,,,,,,,,,,,,,,,,,,,,,127.0,127.0,125.0,200.0,200.0,125.0,2.1,2.12,-260,-262,0,-261,258,264,692.5796320438385,692.579705953598,692.5829207897186,692.5983748435974,692.7382290363312,692.7382290363312,692.7382290363312,692.7382290363312,692.7382290363312,692.7382290363312,692.7382290363312,693.7314057350159,3,1.1152589321136475,None,,,,,,,,,,,,,,,,,,145,1,2025-02-27_13h19.32.581,comp,2024.2.4,58.071458437750074,2025-02-27 13h19.43.015634 -0500,
122,122,0,critical,dhw,35.0,1.0,lower,70.0,70.0,133.0,57.0,57.0,133.0,2,1.2222492694854736,None,,,,,0,0,0,0,0,122,122,48,693.7474019527435,,,,,,,,,,,,,,,,,,,,,,,,,,,,,,,,,,,,,,,,,,,,,,,,,,,,,,,,,,,,,,,,,,,,,,,,,,,,,,,,,70.0,70.0,133.0,57.0,57.0,133.0,1.0,1.2,-160,20,0,-16,191,4,693.7330212593079,693.733095407486,693.7362494468689,693.7474019527435,693.9011776447296,693.9011776447296,693.9011776447296,693.9011776447296,693.9011776447296,693.9011776447296,693.9011776447296,694.9795401096344,2,1.2222492694854736,None,,,,,,,,,,,,,,,,,,145,1,2025-02-27_13h19.32.581,comp,2024.2.4,58.071458437750074,2025-02-27 13h19.43.015634 -0500,
123,123,0,critical,hdw,20.0,2.1,lower,133.0,57.0,78.0,78.0,57.0,133.0,1,3.2076480388641357,None,,,,,0,0,0,0,0,123,123,22,694.9942541122437,,,,,,,,,,,,,,,,,,,,,,,,,,,,,,,,,,,,,,,,,,,,,,,,,,,,,,,,,,,,,,,,,,,,,,,,,,,,,,,,,133.0,57.0,78.0,78.0,57.0,133.0,2.1,2.11,-164,254,0,251,202,-284,694.9810862541199,694.9811670780182,694.9844069480896,694.9942541122437,695.1450672149658,695.1450672149658,695.1450672149658,695.1450672149658,695.1450672149658,695.1450672149658,695.1450672149658,698.2158198356628,1,3.2076480388641357,None,,,,,,,,,,,,,,,,,,145,1,2025-02-27_13h19.32.581,comp,2024.2.4,58.071458437750074,2025-02-27 13h19.43.015634 -0500,
124,124,0,critical,wdh,35.0,3.0,upper,125.0,200.0,127.0,127.0,200.0,125.0,3,1.3465802669525146,None,,,,,0,0,0,0,0,124,124,75,698.2316222190857,,,,,,,,,,,,,,,,,,,,,,,,,,,,,,,,,,,,,,,,,,,,,,,,,,,,,,,,,,,,,,,,,,,,,,,,,,,,,,,,,125.0,200.0,127.0,127.0,200.0,125.0,3.0,3.1,-260,263,0,19,222,-287,698.2175328731537,698.2176651954651,698.221186876297,698.2316222190857,698.3860433101654,698.3860433101654,698.3860433101654,698.3860433101654,698.3860433101654,698.3860433101654,698.3860433101654,699.5805127620697,3,1.3465802669525146,None,,,,,,,,,,,,,,,,,,145,1,2025-02-27_13h19.32.581,comp,2024.2.4,58.071458437750074,2025-02-27 13h19.43.015634 -0500,
125,125,0,critical,dwh,35.0,4.0,upper,127.0,127.0,125.0,200.0,200.0,125.0,3,4.861721754074097,None,,,,,0,0,0,0,0,125,125,65,699.5967955589294,,,,,,,,,,,,,,,,,,,,,,,,,,,,,,,,,,,,,,,,,,,,,,,,,,,,,,,,,,,,,,,,,,,,,,,,,,,,,,,,,127.0,127.0,125.0,200.0,200.0,125.0,4.0,4.1,-260,-259,0,-16,258,-289,699.582035779953,699.582112789154,699.5851566791534,699.5967955589294,699.7479312419891,699.7479312419891,699.7479312419891,699.7479312419891,699.7479312419891,699.7479312419891,699.7479312419891,704.4663546085358,3,4.861721754074097,None,,,,,,,,,,,,,,,,,,145,1,2025-02-27_13h19.32.581,comp,2024.2.4,58.071458437750074,2025-02-27 13h19.43.015634 -0500,
126,126,0,critical,whd,35.0,1.0,upper,125.0,200.0,200.0,125.0,127.0,127.0,2,8.206877708435059,None,,,,,0,0,0,0,0,126,126,85,704.4828147888184,,,,,,,,,,,,,,,,,,,,,,,,,,,,,,,,,,,,,,,,,,,,,,,,,,,,,,,,,,,,,,,,,,,,,,,,,,,,,,,,,125.0,200.0,200.0,125.0,127.0,127.0,1.0,1.1,-738,284,-480,266,-258,270,704.4678437709808,704.4679181575775,704.4720079898834,704.4828147888184,704.6371784210205,704.6371784210205,704.6371784210205,704.6371784210205,704.6371784210205,704.6371784210205,704.6371784210205,712.7020859718323,2,8.206877708435059,None,,,,,,,,,,,,,,,,,,145,1,2025-02-27_13h19.32.581,comp,2024.2.4,58.071458437750074,2025-02-27 13h19.43.015634 -0500,
127,127,0,critical,dwh,20.0,2.1,upper,141.0,141.0,125.0,200.0,200.0,125.0,3,1.018779993057251,None,,,,,0,0,0,0,0,127,127,7,712.7189707756042,,,,,,,,,,,,,,,,,,,,,,,,,,,,,,,,,,,,,,,,,,,,,,,,,,,,,,,,,,,,,,,,,,,,,,,,,,,,,,,,,141.0,141.0,125.0,200.0,200.0,125.0,2.1,2.12,-266,-256,0,-285,258,282,712.7037138938904,712.7037928104401,712.7071249485016,712.7189707756042,712.876339673996,712.876339673996,712.876339673996,712.876339673996,712.876339673996,712.876339673996,712.876339673996,713.75248503685,3,1.018779993057251,None,,,,,,,,,,,,,,,,,,145,1,2025-02-27_13h19.32.581,comp,2024.2.4,58.071458437750074,2025-02-27 13h19.43.015634 -0500,
128,128,0,critical,wdh,20.0,4.0,lower,57.0,133.0,78.0,78.0,133.0,57.0,3,1.6733567714691162,None,,,,,0,0,0,0,0,128,128,82,713.7683613300323,,,,,,,,,,,,,,,,,,,,,,,,,,,,,,,,,,,,,,,,,,,,,,,,,,,,,,,,,,,,,,,,,,,,,,,,,,,,,,,,,57.0,133.0,78.0,78.0,133.0,57.0,4.0,4.2,-202,-9,0,-258,164,8,713.7539455890656,713.7540175914764,713.7580275535583,713.7683613300323,713.9170727729797,713.9170727729797,713.9170727729797,713.9170727729797,713.9170727729797,713.9170727729797,713.9170727729797,715.4542376995087,3,1.6733567714691162,None,,,,,,,,,,,,,,,,,,145,1,2025-02-27_13h19.32.581,comp,2024.2.4,58.071458437750074,2025-02-27 13h19.43.015634 -0500,
129,129,0,filler_square,None,None,None,None,None,None,None,None,None,None,3,0.9620683193206787,None,,,,,0,0,0,0,0,129,129,202,715.4718568325043,,,,,,,,,,,,,,,,,,,,,,,,,,,,,,,,,,,,,,,,,,,,,,,,,,,,,,,,,,,,,,,,,,,,,,,,,,,,,,,,,91.85109846534863,96.4449218409225,63.44807882728858,106.00989123696681,122.109121380443,122.109121380443,4.0,4.2,-197,1,0,-267,210,-3,715.455991268158,715.4560670852661,715.4588966369629,715.4718568325043,715.6201934814453,715.6201934814453,715.6201934814453,715.6201934814453,715.6201934814453,715.6201934814453,715.6201934814453,716.4544467926025,3,0.9620683193206787,None,,,,,,,,,,,,,,,,,,145,1,2025-02-27_13h19.32.581,comp,2024.2.4,58.071458437750074,2025-02-27 13h19.43.015634 -0500,
130,130,0,critical,whd,35.0,2.1,upper,125.0,200.0,200.0,125.0,127.0,127.0,2,2.0656933784484863,None,,,,,0,0,0,0,0,130,130,37,716.4723401069641,,,,,,,,,,,,,,,,,,,,,,,,,,,,,,,,,,,,,,,,,,,,,,,,,,,,,,,,,,,,,,,,,,,,,,,,,,,,,,,,,125.0,200.0,200.0,125.0,127.0,127.0,2.1,2.12,-258,-276,0,-283,222,289,716.4561448097229,716.4562408924103,716.459178686142,716.4723401069641,716.6195883750916,716.6195883750916,716.6195883750916,716.6195883750916,716.6195883750916,716.6195883750916,716.6195883750916,718.5428116321564,2,2.0656933784484863,None,,,,,,,,,,,,,,,,,,145,1,2025-02-27_13h19.32.581,comp,2024.2.4,58.071458437750074,2025-02-27 13h19.43.015634 -0500,
131,131,0,critical,wdh,35.0,1.0,lower,57.0,133.0,70.0,70.0,133.0,57.0,3,4.035452365875244,None,,,,,0,0,0,0,0,131,131,72,718.5581147670746,,,,,,,,,,,,,,,,,,,,,,,,,,,,,,,,,,,,,,,,,,,,,,,,,,,,,,,,,,,,,,,,,,,,,,,,,,,,,,,,,57.0,133.0,70.0,70.0,133.0,57.0,1.0,1.3,282,-262,480,-282,640,-260,718.5443918704987,718.544468164444,718.5473334789276,718.5581147670746,718.7060160636902,718.7060160636902,718.7060160636902,718.7060160636902,718.7060160636902,718.7060160636902,718.7060160636902,722.6031947135925,3,4.035452365875244,None,,,,,,,,,,,,,,,,,,145,1,2025-02-27_13h19.32.581,comp,2024.2.4,58.071458437750074,2025-02-27 13h19.43.015634 -0500,
132,132,0,critical,wdh,20.0,1.0,lower,57.0,133.0,78.0,78.0,133.0,57.0,3,2.6704704761505127,None,,,,,0,0,0,0,0,132,132,78,722.6195249557495,,,,,,,,,,,,,,,,,,,,,,,,,,,,,,,,,,,,,,,,,,,,,,,,,,,,,,,,,,,,,,,,,,,,,,,,,,,,,,,,,57.0,133.0,78.0,78.0,133.0,57.0,1.0,1.1,-682,258,-480,267,-316,274,722.6047646999359,722.6048436164856,722.6078772544861,722.6195249557495,722.7682139873505,722.7682139873505,722.7682139873505,722.7682139873505,722.7682139873505,722.7682139873505,722.7682139873505,725.2967369556427,3,2.6704704761505127,None,,,,,,,,,,,,,,,,,,145,1,2025-02-27_13h19.32.581,comp,2024.2.4,58.071458437750074,2025-02-27 13h19.43.015634 -0500,
133,133,0,filler_random,None,None,None,None,None,None,None,None,None,None,2,3.3579652309417725,None,,,,,0,0,0,0,0,133,133,141,725.3156895637512,,,,,,,,,,,,,,,,,,,,,,,,,,,,,,,,,,,,,,,,,,,,,,,,,,,,,,,,,,,,,,,,,,,,,,,,,,,,,,,,,90.5075280628125,156.7402929158107,112.21121815612986,156.74522417117186,83.3069830214735,173.13829773802073,4.0,4.1,-253,-257,0,13,261,-251,725.2983996868134,725.2984719276428,725.3013038635254,725.3156895637512,725.457371711731,725.457371711731,725.457371711731,725.457371711731,725.457371711731,725.457371711731,725.457371711731,728.6918041706085,2,3.3579652309417725,None,,,,,,,,,,,,,,,,,,145,1,2025-02-27_13h19.32.581,comp,2024.2.4,58.071458437750074,2025-02-27 13h19.43.015634 -0500,
134,134,0,filler_random,None,None,None,None,None,None,None,None,None,None,3,0.9394164085388184,None,,,,,0,0,0,0,0,134,134,149,728.7102146148682,,,,,,,,,,,,,,,,,,,,,,,,,,,,,,,,,,,,,,,,,,,,,,,,,,,,,,,,,,,,,,,,,,,,,,,,,,,,,,,,,116.10993978613429,113.96612233211025,127.63241674926803,165.98818802419478,187.16431414858164,187.60570133799916,1.0,1.1,-716,258,-480,251,-207,285,728.6936931610107,728.693770647049,728.6974654197693,728.7102146148682,728.857342004776,728.857342004776,728.857342004776,728.857342004776,728.857342004776,728.857342004776,728.857342004776,729.6612446308136,3,0.9394164085388184,None,,,,,,,,,,,,,,,,,,145,1,2025-02-27_13h19.32.581,comp,2024.2.4,58.071458437750074,2025-02-27 13h19.43.015634 -0500,
135,135,0,filler_random,None,None,None,None,None,None,None,None,None,None,2,2.310154676437378,None,,,,,0,0,0,0,0,135,135,158,729.6764042377472,,,,,,,,,,,,,,,,,,,,,,,,,,,,,,,,,,,,,,,,,,,,,,,,,,,,,,,,,,,,,,,,,,,,,,,,,,,,,,,,,198.1533865360822,80.99423666450735,157.22922520830622,109.62037567058786,169.9712567155721,133.89891087995838,4.0,4.1,-191,-258,0,-11,218,-257,729.6630756855011,729.6631498336792,729.6660332679749,729.6764042377472,729.8233799934387,729.8233799934387,729.8233799934387,729.8233799934387,729.8233799934387,729.8233799934387,729.8233799934387,731.9934616088867,2,2.310154676437378,None,,,,,,,,,,,,,,,,,,145,1,2025-02-27_13h19.32.581,comp,2024.2.4,58.071458437750074,2025-02-27 13h19.43.015634 -0500,
136,136,0,filler_square,None,None,None,None,None,None,None,None,None,None,2,1.4303226470947266,None,,,,,0,0,0,0,0,136,136,194,732.0119848251343,,,,,,,,,,,,,,,,,,,,,,,,,,,,,,,,,,,,,,,,,,,,,,,,,,,,,,,,,,,,,,,,,,,,,,,,,,,,,,,,,73.05797973383001,74.4420810515742,98.9396788509093,98.9396788509093,61.88110372927043,61.1963531199797,1.0,1.2,-183,-7,0,15,176,3,731.9954903125763,731.9955701828003,731.9989004135132,732.0119848251343,732.1675171852112,732.1675171852112,732.1675171852112,732.1675171852112,732.1675171852112,732.1675171852112,732.1675171852112,733.4481475353241,2,1.4303226470947266,None,,,,,,,,,,,,,,,,,,145,1,2025-02-27_13h19.32.581,comp,2024.2.4,58.071458437750074,2025-02-27 13h19.43.015634 -0500,
137,137,0,critical,dwh,20.0,1.0,lower,78.0,78.0,57.0,133.0,133.0,57.0,3,6.2749717235565186,None,,,,,0,0,0,0,0,137,137,66,733.4633696079254,,,,,,,,,,,,,,,,,,,,,,,,,,,,,,,,,,,,,,,,,,,,,,,,,,,,,,,,,,,,,,,,,,,,,,,,,,,,,,,,,78.0,78.0,57.0,133.0,133.0,57.0,1.0,1.2,-202,-16,0,-15,191,-19,733.449613571167,733.4496853351593,733.4525861740112,733.4633696079254,733.6062815189362,733.6062815189362,733.6062815189362,733.6062815189362,733.6062815189362,733.6062815189362,733.6062815189362,739.746734380722,3,6.2749717235565186,None,,,,,,,,,,,,,,,,,,145,1,2025-02-27_13h19.32.581,comp,2024.2.4,58.071458437750074,2025-02-27 13h19.43.015634 -0500,
138,138,0,catch,None,None,None,None,None,None,None,None,None,None,2,0.8361456394195557,None,,,,,0,0,0,0,0,138,138,129,739.7664260864258,,,,,,,,,,,,,,,,,,,,,,,,,,,,,,,,,,,,,,,,,,,,,,,,,,,,,,,,,,,,,,,,,,,,,,,,,,,,,,,,,61,129,181,144,75,115,3.0,3.1,-232,280,0,2,226,-253,739.7489142417908,739.7489936351776,739.7522988319397,739.7664260864258,739.9104716777802,739.9104716777802,739.9104716777802,739.9104716777802,739.9104716777802,739.9104716777802,739.9104716777802,740.609659910202,2,0.8361456394195557,None,,,,,,,,,,,,,,,,,,145,1,2025-02-27_13h19.32.581,comp,2024.2.4,58.071458437750074,2025-02-27 13h19.43.015634 -0500,
139,139,0,critical,hwd,35.0,3.0,upper,200.0,125.0,125.0,200.0,127.0,127.0,1,1.3349289894104004,None,,,,,0,0,0,0,0,139,139,99,740.6268601417542,,,,,,,,,,,,,,,,,,,,,,,,,,,,,,,,,,,,,,,,,,,,,,,,,,,,,,,,,,,,,,,,,,,,,,,,,,,,,,,,,200.0,125.0,125.0,200.0,127.0,127.0,3.0,3.2,-258,-283,0,-11,260,285,740.6112589836121,740.6113629341125,740.614898443222,740.6268601417542,740.7672142982483,740.7672142982483,740.7672142982483,740.7672142982483,740.7672142982483,740.7672142982483,740.7672142982483,741.9674782752991,1,1.3349289894104004,None,,,,,,,,,,,,,,,,,,145,1,2025-02-27_13h19.32.581,comp,2024.2.4,58.071458437750074,2025-02-27 13h19.43.015634 -0500,
140,140,0,critical,whd,20.0,2.1,lower,57.0,133.0,133.0,57.0,78.0,78.0,2,1.1912569999694824,None,,,,,0,0,0,0,0,140,140,14,741.9867105484009,,,,,,,,,,,,,,,,,,,,,,,,,,,,,,,,,,,,,,,,,,,,,,,,,,,,,,,,,,,,,,,,,,,,,,,,,,,,,,,,,57.0,133.0,133.0,57.0,78.0,78.0,2.1,2.11,-191,251,0,256,164,-283,741.968997001648,741.969074010849,741.971981048584,741.9867105484009,742.1277508735657,742.1277508735657,742.1277508735657,742.1277508735657,742.1277508735657,742.1277508735657,742.1277508735657,743.182214975357,2,1.1912569999694824,None,,,,,,,,,,,,,,,,,,145,1,2025-02-27_13h19.32.581,comp,2024.2.4,58.071458437750074,2025-02-27 13h19.43.015634 -0500,
