thisN,thisTrialN,thisRepN,effect,order,distance,config,diag,h_1,w_1,h_2,w_2,h_3,w_3,rect_choice.keys,rect_choice.rt,rect_choice.duration,instructions_loop.thisRepN,instructions_loop.thisTrialN,instructions_loop.thisN,instructions_loop.thisIndex,blocks.thisRepN,blocks.thisTrialN,blocks.thisN,blocks.thisIndex,trials.thisRepN,trials.thisTrialN,trials.thisN,trials.thisIndex,thisRow.t,notes,consent.started,agree_button.started,decline_button.started,consent_img.started,mouse.started,consent.stopped,agree_button.numClicks,agree_button.timesOn,agree_button.timesOff,decline_button.numClicks,decline_button.timesOn,decline_button.timesOff,mouse.x,mouse.y,mouse.leftButton,mouse.midButton,mouse.rightButton,mouse.time,mouse.clicked_name,exp_params.started,exp_params.stopped,welcome.started,welcome_text.started,welcome_text.stopped,welcome.stopped,instructions_1.started,instructions_1_text_1.started,instructions_1_text_2.started,key_resp.started,instructions_1.stopped,instructions_loop.key_resp.keys,instructions_loop.key_resp.rt,instructions_loop.key_resp.duration,instructions_2.started,instructions_2_text_1.started,instructions_2_text_2.started,key_resp_2.started,instructions_2.stopped,instructions_loop.key_resp_2.keys,instructions_loop.key_resp_2.rt,instructions_loop.key_resp_2.duration,instructions_3.started,instructions_3_text_1.started,r1_instr3.started,r2_instr3.started,r3_instr3.started,r1_instr3_label.started,r2_instr3_label.started,r3_instr3_label.started,instructions_3_text_3.started,instructions_3_text_4.started,key_resp_3.started,instructions_3.stopped,instructions_loop.key_resp_3.keys,instructions_loop.key_resp_3.rt,instructions_loop.key_resp_3.duration,instructions_4.started,instructions_4_text_1.started,instructions_4_text_3.started,instructions_4_text_2.started,key_resp_4.started,instructions_4.stopped,instructions_loop.key_resp_4.keys,instructions_loop.key_resp_4.rt,instructions_loop.key_resp_4.duration,instructions_5.started,instructions_5_text_1.started,instructions_5_text_2.started,key_resp_5.started,instructions_5.stopped,instructions_loop.key_resp_5.keys,instructions_loop.key_resp_5.rt,instructions_loop.key_resp_5.duration,start_exp.started,start_exp_text.started,key_resp_6.started,start_exp.stopped,key_resp_6.keys,key_resp_6.rt,key_resp_6.duration,h_1_tmp,w_1_tmp,h_2_tmp,w_2_tmp,h_3_tmp,w_3_tmp,config_tmp,config_tmp_1,r_1_x,r_1_y,r_2_x,r_2_y,r_3_x,r_3_y,pre_trial.started,pre_trial.stopped,choice_trial.started,rect_choice.started,r_1.started,r_2.started,r_3.started,r_1_label.started,r_2_label.started,r_3_label.started,prompt.started,choice_trial.stopped,trials.rect_choice.keys,trials.rect_choice.rt,trials.rect_choice.duration,end_block.started,end_block_text.started,end_block.stopped,end.started,end_text.started,key_resp_7.started,end.stopped,key_resp_7.keys,key_resp_7.rt,key_resp_7.duration,debriefing.started,debrief_form.started,end_debrief.started,debriefing.stopped,end_debrief.keys,end_debrief.rt,end_debrief.duration,participant,computer,date,expName,psychopyVersion,frameRate,expStart,
,,,,,,,,,,,,,,,,,,,,,,,,,,,,,,,0.01477813720703125,0.038909912109375,0.038909912109375,0.038909912109375,0.014559268951416016,75.52257966995239,1,[75.48130965232849],[75.48135209083557],0,,,[-65.0],[-496.0],[1],[0],[0],[75.50724959373474],['agree_button'],,,,,,,,,,,,,,,,,,,,,,,,,,,,,,,,,,,,,,,,,,,,,,,,,,,,,,,,,,,,,,,,,,,,,,,,,,,,,,,,,,,,,,,,,,,,,,,,,,,,,,,,,,,,146,2,2025-02-27_13h25.47.488,comp,2024.2.4,57.42373150532644,2025-02-27 13h25.58.814294 -0500,
,,,,,,,,,,,,,,,,,,,,,,,,,,,,,,,,,,,,,,,,,,,,,,,,,,75.52309846878052,75.52316498756409,,,,,,,,,,,,,,,,,,,,,,,,,,,,,,,,,,,,,,,,,,,,,,,,,,,,,,,,,,,,,,,,,,,,,,,,,,,,,,,,,,,,,,,,,,,,,,,,,,,,,,,,,,146,2,2025-02-27_13h25.47.488,comp,2024.2.4,57.42373150532644,2025-02-27 13h25.58.814294 -0500,
,,,,,,,,,,,,,,,,,,,,,,,,,,,,,,,,,,,,,,,,,,,,,,,,,,,,75.52320957183838,75.53622674942017,77.53722548484802,77.52018165588379,,,,,,,,,,,,,,,,,,,,,,,,,,,,,,,,,,,,,,,,,,,,,,,,,,,,,,,,,,,,,,,,,,,,,,,,,,,,,,,,,,,,,,,,,,,,,,,,,,,,,,146,2,2025-02-27_13h25.47.488,comp,2024.2.4,57.42373150532644,2025-02-27 13h25.58.814294 -0500,
0,0,0,,,,,,,,,,,,,,,0,0,0,0,,,,,,,,,77.53722548484802,,,,,,,,,,,,,,,,,,,,,,,,,,,77.52162718772888,77.53722548484802,77.53722548484802,79.03897905349731,81.42595839500427,space,2.3748037815093994,None,81.4261040687561,81.44382309913635,81.44382309913635,82.93689036369324,90.82721519470215,space,7.885155916213989,None,90.82739591598511,90.85516476631165,90.85516476631165,90.85516476631165,90.85516476631165,90.85516476631165,90.85516476631165,90.85516476631165,90.85516476631165,90.85516476631165,92.33020043373108,97.80641388893127,space,5.459332466125488,None,97.80657267570496,97.827476978302,97.827476978302,97.827476978302,99.30990791320801,103.19814658164978,space,3.8801801204681396,None,103.19832682609558,103.21358394622803,103.21358394622803,104.71311259269714,105.09658074378967,space,0.380932092666626,None,105.09677290916443,105.11235976219177,105.11235976219177,106.23061299324036,space,1.1012396812438965,None,,,,,,,,,,,,,,,,,,,,,,,,,,,,,,,,,,,,,,,,,,,,,,,146,2,2025-02-27_13h25.47.488,comp,2024.2.4,57.42373150532644,2025-02-27 13h25.58.814294 -0500,
0,0,0,filler_square,None,None,None,None,None,None,None,None,None,None,2,7.655779123306274,None,,,,,0,0,0,0,0,0,0,185,106.3101019859314,,,,,,,,,,,,,,,,,,,,,,,,,,,,,,,,,,,,,,,,,,,,,,,,,,,,,,,,,,,,,,,,,,,,,,,,,,,,,,,,,,63.42917804967197,59.11562837979138,68.78131912483568,74.15416285562861,77.74428868348807,77.74428868348807,3.0,3.2,-163,-279,0,-17,172,253,106.29343295097351,106.29351210594177,106.2951238155365,106.3101019859314,106.45655226707458,106.45655226707458,106.45655226707458,106.45655226707458,106.45655226707458,106.45655226707458,106.45655226707458,113.98373436927795,2,7.655779123306274,None,,,,,,,,,,,,,,,,,,146,2,2025-02-27_13h25.47.488,comp,2024.2.4,57.42373150532644,2025-02-27 13h25.58.814294 -0500,
1,1,0,critical,wdh,20.0,4.0,upper,125.0,200.0,141.0,141.0,200.0,125.0,1,3.0684001445770264,None,,,,,0,0,0,0,0,1,1,83,114.0012481212616,,,,,,,,,,,,,,,,,,,,,,,,,,,,,,,,,,,,,,,,,,,,,,,,,,,,,,,,,,,,,,,,,,,,,,,,,,,,,,,,,,125.0,200.0,141.0,141.0,200.0,125.0,4.0,4.2,-266,-5,0,-269,229,-19,113.9852864742279,113.9853663444519,113.98864340782166,114.0012481212616,114.15774369239807,114.15774369239807,114.15774369239807,114.15774369239807,114.15774369239807,114.15774369239807,114.15774369239807,117.08692574501038,1,3.0684001445770264,None,,,,,,,,,,,,,,,,,,146,2,2025-02-27_13h25.47.488,comp,2024.2.4,57.42373150532644,2025-02-27 13h25.58.814294 -0500,
2,2,0,filler_square,None,None,None,None,None,None,None,None,None,None,3,1.9187829494476318,None,,,,,0,0,0,0,0,2,2,194,117.1028151512146,,,,,,,,,,,,,,,,,,,,,,,,,,,,,,,,,,,,,,,,,,,,,,,,,,,,,,,,,,,,,,,,,,,,,,,,,,,,,,,,,,74.37459450856772,74.37459450856772,62.36270914130721,60.956114542122954,70.69683380258557,58.31194634377865,3.0,3.1,-164,284,0,6,156,-281,117.08888673782349,117.08896946907043,117.09214735031128,117.1028151512146,117.24436116218567,117.24436116218567,117.24436116218567,117.24436116218567,117.24436116218567,117.24436116218567,117.24436116218567,119.03856635093689,3,1.9187829494476318,None,,,,,,,,,,,,,,,,,,146,2,2025-02-27_13h25.47.488,comp,2024.2.4,57.42373150532644,2025-02-27 13h25.58.814294 -0500,
3,3,0,critical,dwh,35.0,2.1,lower,70.0,70.0,57.0,133.0,133.0,57.0,2,2.823073387145996,None,,,,,0,0,0,0,0,3,3,28,119.05650901794434,,,,,,,,,,,,,,,,,,,,,,,,,,,,,,,,,,,,,,,,,,,,,,,,,,,,,,,,,,,,,,,,,,,,,,,,,,,,,,,,,,70.0,70.0,57.0,133.0,133.0,57.0,2.1,2.12,-198,-256,0,-266,191,254,119.04048442840576,119.04065942764282,119.04378509521484,119.05650901794434,119.2015597820282,119.2015597820282,119.2015597820282,119.2015597820282,119.2015597820282,119.2015597820282,119.2015597820282,121.8874340057373,2,2.823073387145996,None,,,,,,,,,,,,,,,,,,146,2,2025-02-27_13h25.47.488,comp,2024.2.4,57.42373150532644,2025-02-27 13h25.58.814294 -0500,
4,4,0,critical,whd,20.0,3.0,lower,57.0,133.0,133.0,57.0,78.0,78.0,1,5.1535515785217285,None,,,,,0,0,0,0,0,4,4,92,121.90846943855286,,,,,,,,,,,,,,,,,,,,,,,,,,,,,,,,,,,,,,,,,,,,,,,,,,,,,,,,,,,,,,,,,,,,,,,,,,,,,,,,,,57.0,133.0,133.0,57.0,78.0,78.0,3.0,3.1,-191,278,0,-12,164,-275,121.8889491558075,121.88903045654297,121.89207053184509,121.90846943855286,122.05413031578064,122.05413031578064,122.05413031578064,122.05413031578064,122.05413031578064,122.05413031578064,122.05413031578064,127.07343769073486,1,5.1535515785217285,None,,,,,,,,,,,,,,,,,,146,2,2025-02-27_13h25.47.488,comp,2024.2.4,57.42373150532644,2025-02-27 13h25.58.814294 -0500,
5,5,0,catch,None,None,None,None,None,None,None,None,None,None,3,2.117307662963867,None,,,,,0,0,0,0,0,5,5,124,127.08834433555603,,,,,,,,,,,,,,,,,,,,,,,,,,,,,,,,,,,,,,,,,,,,,,,,,,,,,,,,,,,,,,,,,,,,,,,,,,,,,,,,,,104,86,112,78,148,177,2.1,2.11,-178,258,0,271,224,-250,127.0756266117096,127.07571387290955,127.0786771774292,127.08834433555603,127.23716282844543,127.23716282844543,127.23716282844543,127.23716282844543,127.23716282844543,127.23716282844543,127.23716282844543,129.22195982933044,3,2.117307662963867,None,,,,,,,,,,,,,,,,,,146,2,2025-02-27_13h25.47.488,comp,2024.2.4,57.42373150532644,2025-02-27 13h25.58.814294 -0500,
6,6,0,filler_square,None,None,None,None,None,None,None,None,None,None,2,1.40169095993042,None,,,,,0,0,0,0,0,6,6,187,129.2359118461609,,,,,,,,,,,,,,,,,,,,,,,,,,,,,,,,,,,,,,,,,,,,,,,,,,,,,,,,,,,,,,,,,,,,,,,,,,,,,,,,,,138.5767925393413,108.04090699874166,163.27208413062314,163.27208413062314,116.59489180665489,128.93353404916178,3.0,3.1,-232,266,0,-4,242,-285,129.2237446308136,129.22382283210754,129.22693634033203,129.2359118461609,129.38904929161072,129.38904929161072,129.38904929161072,129.38904929161072,129.38904929161072,129.38904929161072,129.38904929161072,130.65496110916138,2,1.40169095993042,None,,,,,,,,,,,,,,,,,,146,2,2025-02-27_13h25.47.488,comp,2024.2.4,57.42373150532644,2025-02-27 13h25.58.814294 -0500,
7,7,0,filler_square,None,None,None,None,None,None,None,None,None,None,2,2.118378162384033,None,,,,,0,0,0,0,0,7,7,203,130.67151999473572,,,,,,,,,,,,,,,,,,,,,,,,,,,,,,,,,,,,,,,,,,,,,,,,,,,,,,,,,,,,,,,,,,,,,,,,,,,,,,,,,,120.87679751117253,88.05740213663579,127.08459437655596,127.08459437655596,96.88186650654788,99.75019096907943,4.0,4.2,-204,-11,0,-269,209,2,130.6569528579712,130.65703535079956,130.66029477119446,130.67151999473572,130.8274953365326,130.8274953365326,130.8274953365326,130.8274953365326,130.8274953365326,130.8274953365326,130.8274953365326,132.80546164512634,2,2.118378162384033,None,,,,,,,,,,,,,,,,,,146,2,2025-02-27_13h25.47.488,comp,2024.2.4,57.42373150532644,2025-02-27 13h25.58.814294 -0500,
8,8,0,critical,dhw,20.0,2.1,upper,141.0,141.0,200.0,125.0,125.0,200.0,3,2.6168344020843506,None,,,,,0,0,0,0,0,8,8,27,132.82110261917114,,,,,,,,,,,,,,,,,,,,,,,,,,,,,,,,,,,,,,,,,,,,,,,,,,,,,,,,,,,,,,,,,,,,,,,,,,,,,,,,,,141.0,141.0,200.0,125.0,125.0,200.0,2.1,2.11,-229,263,0,269,258,-278,132.8070843219757,132.80721378326416,132.81064820289612,132.82110261917114,132.95964097976685,132.95964097976685,132.95964097976685,132.95964097976685,132.95964097976685,132.95964097976685,132.95964097976685,135.44353818893433,3,2.6168344020843506,None,,,,,,,,,,,,,,,,,,146,2,2025-02-27_13h25.47.488,comp,2024.2.4,57.42373150532644,2025-02-27 13h25.58.814294 -0500,
9,9,0,filler_square,None,None,None,None,None,None,None,None,None,None,2,2.394782066345215,None,,,,,0,0,0,0,0,9,9,170,135.45946073532104,,,,,,,,,,,,,,,,,,,,,,,,,,,,,,,,,,,,,,,,,,,,,,,,,,,,,,,,,,,,,,,,,,,,,,,,,,,,,,,,,,69.93547700290173,70.77492122823105,76.7606406597889,76.7606406597889,75.11362072551886,58.373845264771035,2.2,2.22,-170,287,0,-284,164,-279,135.44539952278137,135.44551372528076,135.44877290725708,135.45946073532104,135.60604858398438,135.60604858398438,135.60604858398438,135.60604858398438,135.60604858398438,135.60604858398438,135.60604858398438,137.85688185691833,2,2.394782066345215,None,,,,,,,,,,,,,,,,,,146,2,2025-02-27_13h25.47.488,comp,2024.2.4,57.42373150532644,2025-02-27 13h25.58.814294 -0500,
10,10,0,critical,hdw,35.0,2.1,lower,133.0,57.0,70.0,70.0,57.0,133.0,3,4.652185440063477,None,,,,,0,0,0,0,0,10,10,44,137.87353920936584,,,,,,,,,,,,,,,,,,,,,,,,,,,,,,,,,,,,,,,,,,,,,,,,,,,,,,,,,,,,,,,,,,,,,,,,,,,,,,,,,,133.0,57.0,70.0,70.0,57.0,133.0,2.1,2.11,-160,266,0,264,198,-275,137.85849833488464,137.85857629776,137.861909866333,137.87353920936584,138.02524328231812,138.02524328231812,138.02524328231812,138.02524328231812,138.02524328231812,138.02524328231812,138.02524328231812,142.54204440116882,3,4.652185440063477,None,,,,,,,,,,,,,,,,,,146,2,2025-02-27_13h25.47.488,comp,2024.2.4,57.42373150532644,2025-02-27 13h25.58.814294 -0500,
11,11,0,critical,hwd,20.0,4.0,lower,133.0,57.0,57.0,133.0,78.0,78.0,2,3.838374614715576,None,,,,,0,0,0,0,0,11,11,106,142.55939555168152,,,,,,,,,,,,,,,,,,,,,,,,,,,,,,,,,,,,,,,,,,,,,,,,,,,,,,,,,,,,,,,,,,,,,,,,,,,,,,,,,,133.0,57.0,57.0,133.0,78.0,78.0,4.0,4.2,-191,-12,0,-264,202,1,142.54357838630676,142.5436556339264,142.54681420326233,142.55939555168152,142.70102286338806,142.70102286338806,142.70102286338806,142.70102286338806,142.70102286338806,142.70102286338806,142.70102286338806,146.41070818901062,2,3.838374614715576,None,,,,,,,,,,,,,,,,,,146,2,2025-02-27_13h25.47.488,comp,2024.2.4,57.42373150532644,2025-02-27 13h25.58.814294 -0500,
12,12,0,filler_square,None,None,None,None,None,None,None,None,None,None,1,1.2170906066894531,None,,,,,0,0,0,0,0,12,12,199,146.42904996871948,,,,,,,,,,,,,,,,,,,,,,,,,,,,,,,,,,,,,,,,,,,,,,,,,,,,,,,,,,,,,,,,,,,,,,,,,,,,,,,,,,184.19678703012806,184.19678703012806,93.1481695528223,182.8616616175264,84.58835283924356,108.93091610618961,1.0,1.1,-760,260,-480,279,-238,286,146.41250491142273,146.4125852584839,146.41559863090515,146.42904996871948,146.57790422439575,146.57790422439575,146.57790422439575,146.57790422439575,146.57790422439575,146.57790422439575,146.57790422439575,147.6566231250763,1,1.2170906066894531,None,,,,,,,,,,,,,,,,,,146,2,2025-02-27_13h25.47.488,comp,2024.2.4,57.42373150532644,2025-02-27 13h25.58.814294 -0500,
13,13,0,critical,dhw,35.0,4.0,lower,70.0,70.0,133.0,57.0,57.0,133.0,3,4.873065948486328,None,,,,,0,0,0,0,0,13,13,52,147.67667770385742,,,,,,,,,,,,,,,,,,,,,,,,,,,,,,,,,,,,,,,,,,,,,,,,,,,,,,,,,,,,,,,,,,,,,,,,,,,,,,,,,,70.0,70.0,133.0,57.0,57.0,133.0,4.0,4.2,-160,10,0,-257,191,-9,147.6581130027771,147.65819239616394,147.66104555130005,147.67667770385742,147.8121154308319,147.8121154308319,147.8121154308319,147.8121154308319,147.8121154308319,147.8121154308319,147.8121154308319,152.56230664253235,3,4.873065948486328,None,,,,,,,,,,,,,,,,,,146,2,2025-02-27_13h25.47.488,comp,2024.2.4,57.42373150532644,2025-02-27 13h25.58.814294 -0500,
14,14,0,filler_square,None,None,None,None,None,None,None,None,None,None,1,1.811516284942627,None,,,,,0,0,0,0,0,14,14,192,152.57819247245789,,,,,,,,,,,,,,,,,,,,,,,,,,,,,,,,,,,,,,,,,,,,,,,,,,,,,,,,,,,,,,,,,,,,,,,,,,,,,,,,,,97.59991732094088,97.59991732094088,57.23333708817906,93.19896933439777,68.49628680897132,62.84622270394999,2.2,2.22,-191,290,0,-253,174,-260,152.56409573554993,152.56417608261108,152.56706547737122,152.57819247245789,152.71544551849365,152.71544551849365,152.71544551849365,152.71544551849365,152.71544551849365,152.71544551849365,152.71544551849365,154.40080666542053,1,1.811516284942627,None,,,,,,,,,,,,,,,,,,146,2,2025-02-27_13h25.47.488,comp,2024.2.4,57.42373150532644,2025-02-27 13h25.58.814294 -0500,
15,15,0,filler_square,None,None,None,None,None,None,None,None,None,None,2,2.0523409843444824,None,,,,,0,0,0,0,0,15,15,184,154.4179711341858,,,,,,,,,,,,,,,,,,,,,,,,,,,,,,,,,,,,,,,,,,,,,,,,,,,,,,,,,,,,,,,,,,,,,,,,,,,,,,,,,,86.16439341272306,114.07125655835748,120.03739680467305,120.03739680467305,67.01404286258406,98.37037046386547,1.0,1.1,-693,264,-480,254,-275,256,154.40288543701172,154.4029664993286,154.40623140335083,154.4179711341858,154.56339955329895,154.56339955329895,154.56339955329895,154.56339955329895,154.56339955329895,154.56339955329895,154.56339955329895,156.47910928726196,2,2.0523409843444824,None,,,,,,,,,,,,,,,,,,146,2,2025-02-27_13h25.47.488,comp,2024.2.4,57.42373150532644,2025-02-27 13h25.58.814294 -0500,
16,16,0,critical,dhw,35.0,1.0,lower,70.0,70.0,133.0,57.0,57.0,133.0,3,5.246399164199829,None,,,,,0,0,0,0,0,16,16,48,156.49528622627258,,,,,,,,,,,,,,,,,,,,,,,,,,,,,,,,,,,,,,,,,,,,,,,,,,,,,,,,,,,,,,,,,,,,,,,,,,,,,,,,,,70.0,70.0,133.0,57.0,57.0,133.0,1.0,1.1,-640,256,-480,272,-289,262,156.48066329956055,156.4807412624359,156.4836995601654,156.49528622627258,156.6353771686554,156.6353771686554,156.6353771686554,156.6353771686554,156.6353771686554,156.6353771686554,156.6353771686554,161.7594769001007,3,5.246399164199829,None,,,,,,,,,,,,,,,,,,146,2,2025-02-27_13h25.47.488,comp,2024.2.4,57.42373150532644,2025-02-27 13h25.58.814294 -0500,
17,17,0,critical,hdw,20.0,4.0,upper,200.0,125.0,141.0,141.0,125.0,200.0,3,3.010344982147217,None,,,,,0,0,0,0,0,17,17,119,161.7797667980194,,,,,,,,,,,,,,,,,,,,,,,,,,,,,,,,,,,,,,,,,,,,,,,,,,,,,,,,,,,,,,,,,,,,,,,,,,,,,,,,,,200.0,125.0,141.0,141.0,125.0,200.0,4.0,4.1,-229,-263,0,14,266,-286,161.76105117797852,161.761132478714,161.76442456245422,161.7797667980194,161.92078471183777,161.92078471183777,161.92078471183777,161.92078471183777,161.92078471183777,161.92078471183777,161.92078471183777,164.80778884887695,3,3.010344982147217,None,,,,,,,,,,,,,,,,,,146,2,2025-02-27_13h25.47.488,comp,2024.2.4,57.42373150532644,2025-02-27 13h25.58.814294 -0500,
18,18,0,critical,whd,20.0,2.1,lower,57.0,133.0,133.0,57.0,78.0,78.0,1,4.573595285415649,None,,,,,0,0,0,0,0,18,18,14,164.82486391067505,,,,,,,,,,,,,,,,,,,,,,,,,,,,,,,,,,,,,,,,,,,,,,,,,,,,,,,,,,,,,,,,,,,,,,,,,,,,,,,,,,57.0,133.0,133.0,57.0,78.0,78.0,2.1,2.12,-191,-277,0,-273,164,268,164.80935311317444,164.80943489074707,164.81240701675415,164.82486391067505,164.9658932685852,164.9658932685852,164.9658932685852,164.9658932685852,164.9658932685852,164.9658932685852,164.9658932685852,169.4057273864746,1,4.573595285415649,None,,,,,,,,,,,,,,,,,,146,2,2025-02-27_13h25.47.488,comp,2024.2.4,57.42373150532644,2025-02-27 13h25.58.814294 -0500,
19,19,0,filler_square,None,None,None,None,None,None,None,None,None,None,2,2.0798583030700684,None,,,,,0,0,0,0,0,19,19,173,169.42192339897156,,,,,,,,,,,,,,,,,,,,,,,,,,,,,,,,,,,,,,,,,,,,,,,,,,,,,,,,,,,,,,,,,,,,,,,,,,,,,,,,,,95.76286535956336,158.76607849508997,172.279447971346,172.279447971346,155.7279832067091,114.45156344577589,3.0,3.2,-262,-265,0,-14,239,287,169.40759944915771,169.40768384933472,169.41093802452087,169.42192339897156,169.56914448738098,169.56914448738098,169.56914448738098,169.56914448738098,169.56914448738098,169.56914448738098,169.56914448738098,171.50366401672363,2,2.0798583030700684,None,,,,,,,,,,,,,,,,,,146,2,2025-02-27_13h25.47.488,comp,2024.2.4,57.42373150532644,2025-02-27 13h25.58.814294 -0500,
20,20,0,filler_random,None,None,None,None,None,None,None,None,None,None,3,3.726233959197998,None,,,,,0,0,0,0,0,20,20,148,171.51957654953003,,,,,,,,,,,,,,,,,,,,,,,,,,,,,,,,,,,,,,,,,,,,,,,,,,,,,,,,,,,,,,,,,,,,,,,,,,,,,,,,,,107.18901469228224,94.27883709160065,65.77049392397188,152.5860246653348,89.52186737123165,156.48245109007445,4.0,4.2,-219,-12,0,-255,251,-4,171.50548911094666,171.5055718421936,171.5088586807251,171.51957654953003,171.66923356056213,171.66923356056213,171.66923356056213,171.66923356056213,171.66923356056213,171.66923356056213,171.66923356056213,175.25623869895935,3,3.726233959197998,None,,,,,,,,,,,,,,,,,,146,2,2025-02-27_13h25.47.488,comp,2024.2.4,57.42373150532644,2025-02-27 13h25.58.814294 -0500,
21,21,0,filler_random,None,None,None,None,None,None,None,None,None,None,2,2.7770071029663086,None,,,,,0,0,0,0,0,21,21,164,175.2767369747162,,,,,,,,,,,,,,,,,,,,,,,,,,,,,,,,,,,,,,,,,,,,,,,,,,,,,,,,,,,,,,,,,,,,,,,,,,,,,,,,,,144.5981983414697,78.35433693164384,167.43130723891812,110.29040081009606,148.84381893814722,118.63952003883745,2.1,2.12,-190,-264,0,-260,210,268,175.25813508033752,175.25821805000305,175.26107907295227,175.2767369747162,175.42030024528503,175.42030024528503,175.42030024528503,175.42030024528503,175.42030024528503,175.42030024528503,175.42030024528503,178.07069063186646,2,2.7770071029663086,None,,,,,,,,,,,,,,,,,,146,2,2025-02-27_13h25.47.488,comp,2024.2.4,57.42373150532644,2025-02-27 13h25.58.814294 -0500,
22,22,0,critical,hdw,20.0,1.0,lower,133.0,57.0,78.0,78.0,57.0,133.0,3,4.511538982391357,None,,,,,0,0,0,0,0,22,22,114,178.08616948127747,,,,,,,,,,,,,,,,,,,,,,,,,,,,,,,,,,,,,,,,,,,,,,,,,,,,,,,,,,,,,,,,,,,,,,,,,,,,,,,,,,133.0,57.0,78.0,78.0,57.0,133.0,1.0,1.1,-644,288,-480,287,-278,276,178.0721333026886,178.07220911979675,178.07585525512695,178.08616948127747,178.23798179626465,178.23798179626465,178.23798179626465,178.23798179626465,178.23798179626465,178.23798179626465,178.23798179626465,182.61514377593994,3,4.511538982391357,None,,,,,,,,,,,,,,,,,,146,2,2025-02-27_13h25.47.488,comp,2024.2.4,57.42373150532644,2025-02-27 13h25.58.814294 -0500,
23,23,0,critical,dhw,35.0,2.1,upper,127.0,127.0,200.0,125.0,125.0,200.0,3,7.7637670040130615,None,,,,,0,0,0,0,0,23,23,1,182.63415455818176,,,,,,,,,,,,,,,,,,,,,,,,,,,,,,,,,,,,,,,,,,,,,,,,,,,,,,,,,,,,,,,,,,,,,,,,,,,,,,,,,,127.0,127.0,200.0,125.0,125.0,200.0,2.1,2.12,-222,-254,0,-280,258,279,182.61669754981995,182.61677408218384,182.61967253684998,182.63415455818176,182.7728407382965,182.7728407382965,182.7728407382965,182.7728407382965,182.7728407382965,182.7728407382965,182.7728407382965,190.4003713130951,3,7.7637670040130615,None,,,,,,,,,,,,,,,,,,146,2,2025-02-27_13h25.47.488,comp,2024.2.4,57.42373150532644,2025-02-27 13h25.58.814294 -0500,
24,24,0,critical,whd,20.0,4.0,upper,125.0,200.0,200.0,125.0,141.0,141.0,1,3.1262929439544678,None,,,,,0,0,0,0,0,24,24,95,190.41560173034668,,,,,,,,,,,,,,,,,,,,,,,,,,,,,,,,,,,,,,,,,,,,,,,,,,,,,,,,,,,,,,,,,,,,,,,,,,,,,,,,,,125.0,200.0,200.0,125.0,141.0,141.0,4.0,4.2,-258,-1,0,-275,229,7,190.40188336372375,190.40196323394775,190.40482020378113,190.41560173034668,190.55700254440308,190.55700254440308,190.55700254440308,190.55700254440308,190.55700254440308,190.55700254440308,190.55700254440308,193.54782009124756,1,3.1262929439544678,None,,,,,,,,,,,,,,,,,,146,2,2025-02-27_13h25.47.488,comp,2024.2.4,57.42373150532644,2025-02-27 13h25.58.814294 -0500,
25,25,0,filler_random,None,None,None,None,None,None,None,None,None,None,3,1.6012098789215088,None,,,,,0,0,0,0,0,25,25,156,193.56613755226135,,,,,,,,,,,,,,,,,,,,,,,,,,,,,,,,,,,,,,,,,,,,,,,,,,,,,,,,,,,,,,,,,,,,,,,,,,,,,,,,,,92.90588607168898,140.19781412917578,76.09397017778736,84.53326196244203,193.81609468478396,186.339250442088,4.0,4.2,-208,-1,0,-257,231,5,193.5496051311493,193.54973602294922,193.5529706478119,193.56613755226135,193.7097635269165,193.7097635269165,193.7097635269165,193.7097635269165,193.7097635269165,193.7097635269165,193.7097635269165,195.17850947380066,3,1.6012098789215088,None,,,,,,,,,,,,,,,,,,146,2,2025-02-27_13h25.47.488,comp,2024.2.4,57.42373150532644,2025-02-27 13h25.58.814294 -0500,
26,26,0,filler_random,None,None,None,None,None,None,None,None,None,None,1,1.9629921913146973,None,,,,,0,0,0,0,0,26,26,136,195.19498419761658,,,,,,,,,,,,,,,,,,,,,,,,,,,,,,,,,,,,,,,,,,,,,,,,,,,,,,,,,,,,,,,,,,,,,,,,,,,,,,,,,,173.6939034615297,165.41662767917992,121.96854478175311,63.00764641142364,163.2557517607399,116.7736014242848,2.1,2.12,-210,-257,0,-252,186,250,195.1804826259613,195.18056392669678,195.18430423736572,195.19498419761658,195.34060955047607,195.34060955047607,195.34060955047607,195.34060955047607,195.34060955047607,195.34060955047607,195.34060955047607,197.1641297340393,1,1.9629921913146973,None,,,,,,,,,,,,,,,,,,146,2,2025-02-27_13h25.47.488,comp,2024.2.4,57.42373150532644,2025-02-27 13h25.58.814294 -0500,
27,27,0,critical,hdw,35.0,3.0,lower,133.0,57.0,70.0,70.0,57.0,133.0,1,2.9348740577697754,None,,,,,0,0,0,0,0,27,27,110,197.184907913208,,,,,,,,,,,,,,,,,,,,,,,,,,,,,,,,,,,,,,,,,,,,,,,,,,,,,,,,,,,,,,,,,,,,,,,,,,,,,,,,,,133.0,57.0,70.0,70.0,57.0,133.0,3.0,3.2,-160,-277,0,-19,198,290,197.16561436653137,197.16573357582092,197.16931295394897,197.184907913208,197.32702922821045,197.32702922821045,197.32702922821045,197.32702922821045,197.32702922821045,197.32702922821045,197.32702922821045,200.13091349601746,1,2.9348740577697754,None,,,,,,,,,,,,,,,,,,146,2,2025-02-27_13h25.47.488,comp,2024.2.4,57.42373150532644,2025-02-27 13h25.58.814294 -0500,
28,28,0,critical,dwh,35.0,2.1,upper,127.0,127.0,125.0,200.0,200.0,125.0,3,6.475481748580933,None,,,,,0,0,0,0,0,28,28,5,200.14712142944336,,,,,,,,,,,,,,,,,,,,,,,,,,,,,,,,,,,,,,,,,,,,,,,,,,,,,,,,,,,,,,,,,,,,,,,,,,,,,,,,,,127.0,127.0,125.0,200.0,200.0,125.0,2.1,2.11,-260,267,0,269,258,-263,200.13253331184387,200.13261342048645,200.1364233493805,200.14712142944336,200.29331827163696,200.29331827163696,200.29331827163696,200.29331827163696,200.29331827163696,200.29331827163696,200.29331827163696,206.62890577316284,3,6.475481748580933,None,,,,,,,,,,,,,,,,,,146,2,2025-02-27_13h25.47.488,comp,2024.2.4,57.42373150532644,2025-02-27 13h25.58.814294 -0500,
29,29,0,critical,whd,20.0,1.0,upper,125.0,200.0,200.0,125.0,141.0,141.0,1,4.1365461349487305,None,,,,,0,0,0,0,0,29,29,91,206.64529180526733,,,,,,,,,,,,,,,,,,,,,,,,,,,,,,,,,,,,,,,,,,,,,,,,,,,,,,,,,,,,,,,,,,,,,,,,,,,,,,,,,,125.0,200.0,200.0,125.0,141.0,141.0,1.0,1.3,222,-273,480,-254,709,-283,206.63045072555542,206.63053035736084,206.63408660888672,206.64529180526733,206.7973279953003,206.7973279953003,206.7973279953003,206.7973279953003,206.7973279953003,206.7973279953003,206.7973279953003,210.79868483543396,1,4.1365461349487305,None,,,,,,,,,,,,,,,,,,146,2,2025-02-27_13h25.47.488,comp,2024.2.4,57.42373150532644,2025-02-27 13h25.58.814294 -0500,
30,30,0,critical,hwd,35.0,4.0,upper,200.0,125.0,125.0,200.0,127.0,127.0,2,2.34971022605896,None,,,,,0,0,0,0,0,30,30,101,210.81600069999695,,,,,,,,,,,,,,,,,,,,,,,,,,,,,,,,,,,,,,,,,,,,,,,,,,,,,,,,,,,,,,,,,,,,,,,,,,,,,,,,,,200.0,125.0,125.0,200.0,127.0,127.0,4.0,4.2,-258,8,0,-286,260,-8,210.8002166748047,210.80033016204834,210.80343580245972,210.81600069999695,210.96431708335876,210.96431708335876,210.96431708335876,210.96431708335876,210.96431708335876,210.96431708335876,210.96431708335876,213.16801643371582,2,2.34971022605896,None,,,,,,,,,,,,,,,,,,146,2,2025-02-27_13h25.47.488,comp,2024.2.4,57.42373150532644,2025-02-27 13h25.58.814294 -0500,
31,31,0,critical,hwd,20.0,2.1,lower,133.0,57.0,57.0,133.0,78.0,78.0,2,4.45461893081665,None,,,,,0,0,0,0,0,31,31,18,213.18399906158447,,,,,,,,,,,,,,,,,,,,,,,,,,,,,,,,,,,,,,,,,,,,,,,,,,,,,,,,,,,,,,,,,,,,,,,,,,,,,,,,,,133.0,57.0,57.0,133.0,78.0,78.0,2.1,2.12,-191,-257,0,-262,202,255,213.1696538925171,213.16975355148315,213.1731460094452,213.18399906158447,213.34092712402344,213.34092712402344,213.34092712402344,213.34092712402344,213.34092712402344,213.34092712402344,213.34092712402344,217.65003895759583,2,4.45461893081665,None,,,,,,,,,,,,,,,,,,146,2,2025-02-27_13h25.47.488,comp,2024.2.4,57.42373150532644,2025-02-27 13h25.58.814294 -0500,
32,32,0,critical,wdh,35.0,4.0,upper,125.0,200.0,127.0,127.0,200.0,125.0,1,2.0368731021881104,None,,,,,0,0,0,0,0,32,32,77,217.66493439674377,,,,,,,,,,,,,,,,,,,,,,,,,,,,,,,,,,,,,,,,,,,,,,,,,,,,,,,,,,,,,,,,,,,,,,,,,,,,,,,,,,125.0,200.0,127.0,127.0,200.0,125.0,4.0,4.1,-260,-263,0,-12,222,-258,217.65160274505615,217.65168476104736,217.6550166606903,217.66493439674377,217.81557893753052,217.81557893753052,217.81557893753052,217.81557893753052,217.81557893753052,217.81557893753052,217.81557893753052,219.71667504310608,1,2.0368731021881104,None,,,,,,,,,,,,,,,,,,146,2,2025-02-27_13h25.47.488,comp,2024.2.4,57.42373150532644,2025-02-27 13h25.58.814294 -0500,
33,33,0,critical,dhw,35.0,2.1,lower,70.0,70.0,133.0,57.0,57.0,133.0,3,4.920958995819092,None,,,,,0,0,0,0,0,33,33,0,219.7328999042511,,,,,,,,,,,,,,,,,,,,,,,,,,,,,,,,,,,,,,,,,,,,,,,,,,,,,,,,,,,,,,,,,,,,,,,,,,,,,,,,,,70.0,70.0,133.0,57.0,57.0,133.0,2.1,2.12,-160,-284,0,-280,191,272,219.71830463409424,219.7183873653412,219.72174310684204,219.7328999042511,219.88013815879822,219.88013815879822,219.88013815879822,219.88013815879822,219.88013815879822,219.88013815879822,219.88013815879822,224.6707363128662,3,4.920958995819092,None,,,,,,,,,,,,,,,,,,146,2,2025-02-27_13h25.47.488,comp,2024.2.4,57.42373150532644,2025-02-27 13h25.58.814294 -0500,
34,34,0,filler_random,None,None,None,None,None,None,None,None,None,None,1,1.8871188163757324,None,,,,,0,0,0,0,0,34,34,159,224.6874692440033,,,,,,,,,,,,,,,,,,,,,,,,,,,,,,,,,,,,,,,,,,,,,,,,,,,,,,,,,,,,,,,,,,,,,,,,,,,,,,,,,,167.0792957499018,181.55539386324716,120.50743895129945,188.69569346756154,106.4412406656185,165.422246484326,2.1,2.12,-281,-267,0,-267,273,285,224.6726095676422,224.67269086837769,224.6764199733734,224.6874692440033,224.83524417877197,224.83524417877197,224.83524417877197,224.83524417877197,224.83524417877197,224.83524417877197,224.83524417877197,226.58742451667786,1,1.8871188163757324,None,,,,,,,,,,,,,,,,,,146,2,2025-02-27_13h25.47.488,comp,2024.2.4,57.42373150532644,2025-02-27 13h25.58.814294 -0500,
35,35,0,filler_square,None,None,None,None,None,None,None,None,None,None,1,2.4023401737213135,None,,,,,0,0,0,0,0,35,35,178,226.6035656929016,,,,,,,,,,,,,,,,,,,,,,,,,,,,,,,,,,,,,,,,,,,,,,,,,,,,,,,,,,,,,,,,,,,,,,,,,,,,,,,,,,140.0850566013154,140.0850566013154,87.77777816179366,59.61968418202926,97.82470740102787,110.69698350958772,2.1,2.11,-196,281,0,283,181,-283,226.58959221839905,226.5896761417389,226.5932080745697,226.6035656929016,226.75305223464966,226.75305223464966,226.75305223464966,226.75305223464966,226.75305223464966,226.75305223464966,226.75305223464966,229.0216875076294,1,2.4023401737213135,None,,,,,,,,,,,,,,,,,,146,2,2025-02-27_13h25.47.488,comp,2024.2.4,57.42373150532644,2025-02-27 13h25.58.814294 -0500,
36,36,0,critical,hwd,35.0,2.1,lower,133.0,57.0,57.0,133.0,70.0,70.0,2,3.1783156394958496,None,,,,,0,0,0,0,0,36,36,16,229.03739404678345,,,,,,,,,,,,,,,,,,,,,,,,,,,,,,,,,,,,,,,,,,,,,,,,,,,,,,,,,,,,,,,,,,,,,,,,,,,,,,,,,,133.0,57.0,57.0,133.0,70.0,70.0,2.1,2.12,-191,-279,0,-274,198,281,229.02329015731812,229.0233805179596,229.02630972862244,229.03739404678345,229.18551230430603,229.18551230430603,229.18551230430603,229.18551230430603,229.18551230430603,229.18551230430603,229.18551230430603,232.2179741859436,2,3.1783156394958496,None,,,,,,,,,,,,,,,,,,146,2,2025-02-27_13h25.47.488,comp,2024.2.4,57.42373150532644,2025-02-27 13h25.58.814294 -0500,
37,37,0,filler_random,None,None,None,None,None,None,None,None,None,None,2,4.749530076980591,None,,,,,0,0,0,0,0,37,37,162,232.23507595062256,,,,,,,,,,,,,,,,,,,,,,,,,,,,,,,,,,,,,,,,,,,,,,,,,,,,,,,,,,,,,,,,,,,,,,,,,,,,,,,,,,146.31003460197806,75.29385188893316,125.46708318498484,178.148583391204,102.84532042995275,88.83107867066629,1.0,1.1,-703,253,-480,264,-251,272,232.2196443080902,232.2197208404541,232.22253131866455,232.23507595062256,232.37591338157654,232.37591338157654,232.37591338157654,232.37591338157654,232.37591338157654,232.37591338157654,232.37591338157654,236.98764371871948,2,4.749530076980591,None,,,,,,,,,,,,,,,,,,146,2,2025-02-27_13h25.47.488,comp,2024.2.4,57.42373150532644,2025-02-27 13h25.58.814294 -0500,
38,38,0,filler_random,None,None,None,None,None,None,None,None,None,None,1,2.73740816116333,None,,,,,0,0,0,0,0,38,38,140,237.00439453125,,,,,,,,,,,,,,,,,,,,,,,,,,,,,,,,,,,,,,,,,,,,,,,,,,,,,,,,,,,,,,,,,,,,,,,,,,,,,,,,,,115.97463004468287,80.68646543877192,76.35067875898086,81.14787142066831,70.70023738259158,146.17897576547125,1.0,1.1,-657,268,-480,290,-270,281,236.9893445968628,236.98946595191956,236.9926655292511,237.00439453125,237.15705513954163,237.15705513954163,237.15705513954163,237.15705513954163,237.15705513954163,237.15705513954163,237.15705513954163,239.75633239746094,1,2.73740816116333,None,,,,,,,,,,,,,,,,,,146,2,2025-02-27_13h25.47.488,comp,2024.2.4,57.42373150532644,2025-02-27 13h25.58.814294 -0500,
39,39,0,filler_random,None,None,None,None,None,None,None,None,None,None,3,1.6224110126495361,None,,,,,0,0,0,0,0,39,39,138,239.7761950492859,,,,,,,,,,,,,,,,,,,,,,,,,,,,,,,,,,,,,,,,,,,,,,,,,,,,,,,,,,,,,,,,,,,,,,,,,,,,,,,,,,79.85563469378056,128.75066642016873,74.43493421545111,63.69798662763195,159.26782166124661,116.99406738180136,2.2,2.22,-192,267,0,-253,186,-282,239.757981300354,239.75809025764465,239.7612898349762,239.7761950492859,239.9245171546936,239.9245171546936,239.9245171546936,239.9245171546936,239.9245171546936,239.9245171546936,239.9245171546936,241.40779304504395,3,1.6224110126495361,None,,,,,,,,,,,,,,,,,,146,2,2025-02-27_13h25.47.488,comp,2024.2.4,57.42373150532644,2025-02-27 13h25.58.814294 -0500,
40,40,0,catch,None,None,None,None,None,None,None,None,None,None,3,1.3261981010437012,None,,,,,0,0,0,0,0,40,40,128,241.42444372177124,,,,,,,,,,,,,,,,,,,,,,,,,,,,,,,,,,,,,,,,,,,,,,,,,,,,,,,,,,,,,,,,,,,,,,,,,,,,,,,,,,131,59,85,105,184,141,4.0,4.2,-178,11,0,-267,219,4,241.4096817970276,241.40976190567017,241.41375732421875,241.42444372177124,241.57460474967957,241.57460474967957,241.57460474967957,241.57460474967957,241.57460474967957,241.57460474967957,241.57460474967957,242.7593891620636,3,1.3261981010437012,None,,,,,,,,,,,,,,,,,,146,2,2025-02-27_13h25.47.488,comp,2024.2.4,57.42373150532644,2025-02-27 13h25.58.814294 -0500,
41,41,0,critical,wdh,35.0,1.0,upper,125.0,200.0,127.0,127.0,200.0,125.0,1,3.2142751216888428,None,,,,,0,0,0,0,0,41,41,73,242.77577233314514,,,,,,,,,,,,,,,,,,,,,,,,,,,,,,,,,,,,,,,,,,,,,,,,,,,,,,,,,,,,,,,,,,,,,,,,,,,,,,,,,,125.0,200.0,127.0,127.0,200.0,125.0,1.0,1.2,-260,12,0,11,222,8,242.7610251903534,242.76116609573364,242.7650420665741,242.77577233314514,242.92505359649658,242.92505359649658,242.92505359649658,242.92505359649658,242.92505359649658,242.92505359649658,242.92505359649658,245.99529647827148,1,3.2142751216888428,None,,,,,,,,,,,,,,,,,,146,2,2025-02-27_13h25.47.488,comp,2024.2.4,57.42373150532644,2025-02-27 13h25.58.814294 -0500,
42,42,0,critical,hdw,35.0,4.0,upper,200.0,125.0,127.0,127.0,125.0,200.0,3,1.698133945465088,None,,,,,0,0,0,0,0,42,42,113,246.01173949241638,,,,,,,,,,,,,,,,,,,,,,,,,,,,,,,,,,,,,,,,,,,,,,,,,,,,,,,,,,,,,,,,,,,,,,,,,,,,,,,,,,200.0,125.0,127.0,127.0,125.0,200.0,4.0,4.1,-222,-269,0,4,260,-265,245.9970977306366,245.99720430374146,246.00105166435242,246.01173949241638,246.1619040966034,246.1619040966034,246.1619040966034,246.1619040966034,246.1619040966034,246.1619040966034,246.1619040966034,247.7255983352661,3,1.698133945465088,None,,,,,,,,,,,,,,,,,,146,2,2025-02-27_13h25.47.488,comp,2024.2.4,57.42373150532644,2025-02-27 13h25.58.814294 -0500,
43,43,0,filler_random,None,None,None,None,None,None,None,None,None,None,3,1.3204529285430908,None,,,,,0,0,0,0,0,43,43,151,247.74137711524963,,,,,,,,,,,,,,,,,,,,,,,,,,,,,,,,,,,,,,,,,,,,,,,,,,,,,,,,,,,,,,,,,,,,,,,,,,,,,,,,,,90.1867699289264,93.08705117164244,91.3011703191807,105.13094257380592,161.5902935297354,181.8228042314714,3.0,3.2,-195,-283,0,6,239,281,247.72731018066406,247.72739839553833,247.73029208183289,247.74137711524963,247.9005937576294,247.9005937576294,247.9005937576294,247.9005937576294,247.9005937576294,247.9005937576294,247.9005937576294,249.07536125183105,3,1.3204529285430908,None,,,,,,,,,,,,,,,,,,146,2,2025-02-27_13h25.47.488,comp,2024.2.4,57.42373150532644,2025-02-27 13h25.58.814294 -0500,
44,44,0,filler_square,None,None,None,None,None,None,None,None,None,None,3,1.418083906173706,None,,,,,0,0,0,0,0,44,44,177,249.09189701080322,,,,,,,,,,,,,,,,,,,,,,,,,,,,,,,,,,,,,,,,,,,,,,,,,,,,,,,,,,,,,,,,,,,,,,,,,,,,,,,,,,147.33931770159333,69.16484654834298,87.27992340514658,99.99846659799042,148.47288292369623,148.47288292369623,4.0,4.2,-181,16,0,-268,220,-6,249.07729864120483,249.0773787498474,249.08057165145874,249.09189701080322,249.2459738254547,249.2459738254547,249.2459738254547,249.2459738254547,249.2459738254547,249.2459738254547,249.2459738254547,250.52703261375427,3,1.418083906173706,None,,,,,,,,,,,,,,,,,,146,2,2025-02-27_13h25.47.488,comp,2024.2.4,57.42373150532644,2025-02-27 13h25.58.814294 -0500,
45,45,0,critical,dhw,35.0,2.1,lower,70.0,70.0,133.0,57.0,57.0,133.0,3,2.7305030822753906,None,,,,,0,0,0,0,0,45,45,24,250.54735469818115,,,,,,,,,,,,,,,,,,,,,,,,,,,,,,,,,,,,,,,,,,,,,,,,,,,,,,,,,,,,,,,,,,,,,,,,,,,,,,,,,,70.0,70.0,133.0,57.0,57.0,133.0,2.1,2.11,-160,269,0,287,191,-270,250.52862739562988,250.52870559692383,250.53203558921814,250.54735469818115,250.69363021850586,250.69363021850586,250.69363021850586,250.69363021850586,250.69363021850586,250.69363021850586,250.69363021850586,253.29717636108398,3,2.7305030822753906,None,,,,,,,,,,,,,,,,,,146,2,2025-02-27_13h25.47.488,comp,2024.2.4,57.42373150532644,2025-02-27 13h25.58.814294 -0500,
46,46,0,critical,dwh,35.0,3.0,upper,127.0,127.0,125.0,200.0,200.0,125.0,2,1.9939298629760742,None,,,,,0,0,0,0,0,46,46,63,253.31593298912048,,,,,,,,,,,,,,,,,,,,,,,,,,,,,,,,,,,,,,,,,,,,,,,,,,,,,,,,,,,,,,,,,,,,,,,,,,,,,,,,,,127.0,127.0,125.0,200.0,200.0,125.0,3.0,3.1,-260,274,0,-12,258,-255,253.29884386062622,253.29892468452454,253.30203890800476,253.31593298912048,253.461327791214,253.461327791214,253.461327791214,253.461327791214,253.461327791214,253.461327791214,253.461327791214,255.3127522468567,2,1.9939298629760742,None,,,,,,,,,,,,,,,,,,146,2,2025-02-27_13h25.47.488,comp,2024.2.4,57.42373150532644,2025-02-27 13h25.58.814294 -0500,
47,47,0,filler_random,None,None,None,None,None,None,None,None,None,None,1,1.997514247894287,None,,,,,0,0,0,0,0,47,47,134,255.32886362075806,,,,,,,,,,,,,,,,,,,,,,,,,,,,,,,,,,,,,,,,,,,,,,,,,,,,,,,,,,,,,,,,,,,,,,,,,,,,,,,,,,106.13209753860731,123.38382675658407,89.7447013004879,86.84181768153812,89.44173664016984,124.68783756868045,1.0,1.1,-681,258,-480,289,-278,288,255.31454229354858,255.31467032432556,255.3180627822876,255.32886362075806,255.47814536094666,255.47814536094666,255.47814536094666,255.47814536094666,255.47814536094666,255.47814536094666,255.47814536094666,257.3293595314026,1,1.997514247894287,None,,,,,,,,,,,,,,,,,,146,2,2025-02-27_13h25.47.488,comp,2024.2.4,57.42373150532644,2025-02-27 13h25.58.814294 -0500,
48,48,0,critical,wdh,20.0,3.0,upper,125.0,200.0,141.0,141.0,200.0,125.0,1,3.108680009841919,None,,,,,0,0,0,0,0,48,48,81,257.3453960418701,,,,,,,,,,,,,,,,,,,,,,,,,,,,,,,,,,,,,,,,,,,,,,,,,,,,,,,,,,,,,,,,,,,,,,,,,,,,,,,,,,125.0,200.0,141.0,141.0,200.0,125.0,3.0,3.2,-266,-281,0,-13,229,260,257.331041097641,257.33118510246277,257.33464527130127,257.3453960418701,257.49555683135986,257.49555683135986,257.49555683135986,257.49555683135986,257.49555683135986,257.49555683135986,257.49555683135986,260.4714651107788,1,3.108680009841919,None,,,,,,,,,,,,,,,,,,146,2,2025-02-27_13h25.47.488,comp,2024.2.4,57.42373150532644,2025-02-27 13h25.58.814294 -0500,
49,49,0,critical,wdh,35.0,2.1,lower,57.0,133.0,70.0,70.0,133.0,57.0,1,4.102876424789429,None,,,,,0,0,0,0,0,49,49,32,260.4870934486389,,,,,,,,,,,,,,,,,,,,,,,,,,,,,,,,,,,,,,,,,,,,,,,,,,,,,,,,,,,,,,,,,,,,,,,,,,,,,,,,,,57.0,133.0,70.0,70.0,133.0,57.0,2.1,2.11,-198,282,0,252,160,-285,260.47297048568726,260.47304797172546,260.47595477104187,260.4870934486389,260.6287314891815,260.6287314891815,260.6287314891815,260.6287314891815,260.6287314891815,260.6287314891815,260.6287314891815,264.60696053504944,1,4.102876424789429,None,,,,,,,,,,,,,,,,,,146,2,2025-02-27_13h25.47.488,comp,2024.2.4,57.42373150532644,2025-02-27 13h25.58.814294 -0500,
50,50,0,filler_square,None,None,None,None,None,None,None,None,None,None,1,1.6868112087249756,None,,,,,0,0,0,0,0,50,50,202,264.62345933914185,,,,,,,,,,,,,,,,,,,,,,,,,,,,,,,,,,,,,,,,,,,,,,,,,,,,,,,,,,,,,,,,,,,,,,,,,,,,,,,,,,123.26799692176571,123.26799692176571,103.8285866923481,60.34522387945781,97.2058458061235,74.18915132108786,1.0,1.3,292,-261,480,-284,643,-251,264.60894894599915,264.6090304851532,264.61220121383667,264.62345933914185,264.7671527862549,264.7671527862549,264.7671527862549,264.7671527862549,264.7671527862549,264.7671527862549,264.7671527862549,266.31419563293457,1,1.6868112087249756,None,,,,,,,,,,,,,,,,,,146,2,2025-02-27_13h25.47.488,comp,2024.2.4,57.42373150532644,2025-02-27 13h25.58.814294 -0500,
51,51,0,filler_square,None,None,None,None,None,None,None,None,None,None,3,1.7115321159362793,None,,,,,0,0,0,0,0,51,51,209,266.3346812725067,,,,,,,,,,,,,,,,,,,,,,,,,,,,,,,,,,,,,,,,,,,,,,,,,,,,,,,,,,,,,,,,,,,,,,,,,,,,,,,,,,74.2651277301647,69.93265144559241,146.5636355600476,126.59867376081034,198.89459791559239,198.89459791559239,1.0,1.2,-194,6,0,15,259,-20,266.3159737586975,266.316055059433,266.3191223144531,266.3346812725067,266.4811906814575,266.4811906814575,266.4811906814575,266.4811906814575,266.4811906814575,266.4811906814575,266.4811906814575,268.0485529899597,3,1.7115321159362793,None,,,,,,,,,,,,,,,,,,146,2,2025-02-27_13h25.47.488,comp,2024.2.4,57.42373150532644,2025-02-27 13h25.58.814294 -0500,
52,52,0,critical,hdw,20.0,4.0,lower,133.0,57.0,78.0,78.0,57.0,133.0,3,3.972592353820801,None,,,,,0,0,0,0,0,52,52,118,268.0651853084564,,,,,,,,,,,,,,,,,,,,,,,,,,,,,,,,,,,,,,,,,,,,,,,,,,,,,,,,,,,,,,,,,,,,,,,,,,,,,,,,,,133.0,57.0,78.0,78.0,57.0,133.0,4.0,4.1,-164,-280,0,-20,202,-270,268.0501494407654,268.0502281188965,268.0537140369415,268.0651853084564,268.21578907966614,268.21578907966614,268.21578907966614,268.21578907966614,268.21578907966614,268.21578907966614,268.21578907966614,272.05195665359497,3,3.972592353820801,None,,,,,,,,,,,,,,,,,,146,2,2025-02-27_13h25.47.488,comp,2024.2.4,57.42373150532644,2025-02-27 13h25.58.814294 -0500,
53,53,0,filler_square,None,None,None,None,None,None,None,None,None,None,3,1.6817536354064941,None,,,,,0,0,0,0,0,53,53,191,272.0680775642395,,,,,,,,,,,,,,,,,,,,,,,,,,,,,,,,,,,,,,,,,,,,,,,,,,,,,,,,,,,,,,,,,,,,,,,,,,,,,,,,,,97.1328802789501,108.31253343715264,114.53175966446409,108.60455286418798,162.5376941208615,162.5376941208615,2.1,2.11,-204,283,0,254,232,-269,272.05395460128784,272.05403566360474,272.0576672554016,272.0680775642395,272.21701407432556,272.21701407432556,272.21701407432556,272.21701407432556,272.21701407432556,272.21701407432556,272.21701407432556,273.76745200157166,3,1.6817536354064941,None,,,,,,,,,,,,,,,,,,146,2,2025-02-27_13h25.47.488,comp,2024.2.4,57.42373150532644,2025-02-27 13h25.58.814294 -0500,
54,54,0,filler_random,None,None,None,None,None,None,None,None,None,None,1,5.135413646697998,None,,,,,0,0,0,0,0,54,54,153,273.78335428237915,,,,,,,,,,,,,,,,,,,,,,,,,,,,,,,,,,,,,,,,,,,,,,,,,,,,,,,,,,,,,,,,,,,,,,,,,,,,,,,,,,108.57893048945063,112.15105623650766,183.99773834661738,64.53418663739485,114.25214444359574,112.74900705282947,2.1,2.12,-184,-269,0,-259,185,268,273.76948595046997,273.76956725120544,273.7730634212494,273.78335428237915,273.9313280582428,273.9313280582428,273.9313280582428,273.9313280582428,273.9313280582428,273.9313280582428,273.9313280582428,278.9249937534332,1,5.135413646697998,None,,,,,,,,,,,,,,,,,,146,2,2025-02-27_13h25.47.488,comp,2024.2.4,57.42373150532644,2025-02-27 13h25.58.814294 -0500,
55,55,0,critical,hwd,20.0,3.0,upper,200.0,125.0,125.0,200.0,141.0,141.0,2,1.929314136505127,None,,,,,0,0,0,0,0,55,55,105,278.9410367012024,,,,,,,,,,,,,,,,,,,,,,,,,,,,,,,,,,,,,,,,,,,,,,,,,,,,,,,,,,,,,,,,,,,,,,,,,,,,,,,,,,200.0,125.0,125.0,200.0,141.0,141.0,3.0,3.1,-258,289,0,-6,266,-282,278.92659068107605,278.92666840553284,278.9295527935028,278.9410367012024,279.083598613739,279.083598613739,279.083598613739,279.083598613739,279.083598613739,279.083598613739,279.083598613739,280.87344765663147,2,1.929314136505127,None,,,,,,,,,,,,,,,,,,146,2,2025-02-27_13h25.47.488,comp,2024.2.4,57.42373150532644,2025-02-27 13h25.58.814294 -0500,
56,56,0,catch,None,None,None,None,None,None,None,None,None,None,2,2.460592031478882,None,,,,,0,0,0,0,0,56,56,120,280.889790058136,,,,,,,,,,,,,,,,,,,,,,,,,,,,,,,,,,,,,,,,,,,,,,,,,,,,,,,,,,,,,,,,,,,,,,,,,,,,,,,,,,133,57,149,176,115,75,2.2,2.21,-212,-268,0,278,222,255,280.8754971027374,280.87558221817017,280.87841629981995,280.889790058136,281.0341603755951,281.0341603755951,281.0341603755951,281.0341603755951,281.0341603755951,281.0341603755951,281.0341603755951,283.35293531417847,2,2.460592031478882,None,,,,,,,,,,,,,,,,,,146,2,2025-02-27_13h25.47.488,comp,2024.2.4,57.42373150532644,2025-02-27 13h25.58.814294 -0500,
57,57,0,filler_random,None,None,None,None,None,None,None,None,None,None,2,2.0612688064575195,None,,,,,0,0,0,0,0,57,57,145,283.3691680431366,,,,,,,,,,,,,,,,,,,,,,,,,,,,,,,,,,,,,,,,,,,,,,,,,,,,,,,,,,,,,,,,,,,,,,,,,,,,,,,,,,88.01716373137029,193.98000130301688,139.76705752343767,145.3497406758857,60.85430307620174,192.50456519431614,2.1,2.11,-266,272,0,286,265,-253,283.354572057724,283.3546521663666,283.35770201683044,283.3691680431366,283.52067041397095,283.52067041397095,283.52067041397095,283.52067041397095,283.52067041397095,283.52067041397095,283.52067041397095,285.43913221359253,2,2.0612688064575195,None,,,,,,,,,,,,,,,,,,146,2,2025-02-27_13h25.47.488,comp,2024.2.4,57.42373150532644,2025-02-27 13h25.58.814294 -0500,
58,58,0,filler_random,None,None,None,None,None,None,None,None,None,None,2,1.8873240947723389,None,,,,,0,0,0,0,0,58,58,131,285.4547564983368,,,,,,,,,,,,,,,,,,,,,,,,,,,,,,,,,,,,,,,,,,,,,,,,,,,,,,,,,,,,,,,,,,,,,,,,,,,,,,,,,,75.3009872841373,199.0068356253372,133.2998358396169,159.30890005588907,97.31621833245417,196.62858602845995,4.0,4.1,-275,-271,0,7,274,-284,285.4409067630768,285.44099044799805,285.44422030448914,285.4547564983368,285.6022481918335,285.6022481918335,285.6022481918335,285.6022481918335,285.6022481918335,285.6022481918335,285.6022481918335,287.35604453086853,2,1.8873240947723389,None,,,,,,,,,,,,,,,,,,146,2,2025-02-27_13h25.47.488,comp,2024.2.4,57.42373150532644,2025-02-27 13h25.58.814294 -0500,
59,59,0,filler_random,None,None,None,None,None,None,None,None,None,None,2,2.449561357498169,None,,,,,0,0,0,0,0,59,59,167,287.37224531173706,,,,,,,,,,,,,,,,,,,,,,,,,,,,,,,,,,,,,,,,,,,,,,,,,,,,,,,,,,,,,,,,,,,,,,,,,,,,,,,,,,122.66786341762916,121.5106144358392,154.06788590632112,146.9829365726447,70.10504655115403,108.99730999241653,3.0,3.2,-230,-284,0,8,224,286,287.35797476768494,287.3581018447876,287.3620328903198,287.37224531173706,287.5209176540375,287.5209176540375,287.5209176540375,287.5209176540375,287.5209176540375,287.5209176540375,287.5209176540375,289.8386905193329,2,2.449561357498169,None,,,,,,,,,,,,,,,,,,146,2,2025-02-27_13h25.47.488,comp,2024.2.4,57.42373150532644,2025-02-27 13h25.58.814294 -0500,
60,60,0,filler_square,None,None,None,None,None,None,None,None,None,None,1,1.9914753437042236,None,,,,,0,0,0,0,0,60,60,200,289.85460209846497,,,,,,,,,,,,,,,,,,,,,,,,,,,,,,,,,,,,,,,,,,,,,,,,,,,,,,,,,,,,,,,,,,,,,,,,,,,,,,,,,,103.93303294585277,103.93303294585277,77.43682615658489,91.2596942953551,91.39090553655073,87.9485852917986,1.0,1.1,-674,288,-480,283,-294,269,289.84047389030457,289.84054946899414,289.84348154067993,289.85460209846497,290.00604009628296,290.00604009628296,290.00604009628296,290.00604009628296,290.00604009628296,290.00604009628296,290.00604009628296,291.85871839523315,1,1.9914753437042236,None,,,,,,,,,,,,,,,,,,146,2,2025-02-27_13h25.47.488,comp,2024.2.4,57.42373150532644,2025-02-27 13h25.58.814294 -0500,
61,61,0,critical,wdh,35.0,3.0,lower,57.0,133.0,70.0,70.0,133.0,57.0,1,4.2548651695251465,None,,,,,0,0,0,0,0,61,61,74,291.8798077106476,,,,,,,,,,,,,,,,,,,,,,,,,,,,,,,,,,,,,,,,,,,,,,,,,,,,,,,,,,,,,,,,,,,,,,,,,,,,,,,,,,57.0,133.0,70.0,70.0,133.0,57.0,3.0,3.1,-198,282,0,5,160,-261,291.8603889942169,291.8605053424835,291.8641393184662,291.8798077106476,292.02280163764954,292.02280163764954,292.02280163764954,292.02280163764954,292.02280163764954,292.02280163764954,292.02280163764954,296.1403555870056,1,4.2548651695251465,None,,,,,,,,,,,,,,,,,,146,2,2025-02-27_13h25.47.488,comp,2024.2.4,57.42373150532644,2025-02-27 13h25.58.814294 -0500,
62,62,0,critical,whd,20.0,4.0,lower,57.0,133.0,133.0,57.0,78.0,78.0,1,2.7512192726135254,None,,,,,0,0,0,0,0,62,62,94,296.1586413383484,,,,,,,,,,,,,,,,,,,,,,,,,,,,,,,,,,,,,,,,,,,,,,,,,,,,,,,,,,,,,,,,,,,,,,,,,,,,,,,,,,57.0,133.0,133.0,57.0,78.0,78.0,4.0,4.1,-191,-288,0,-15,164,-277,296.1420133113861,296.1420929431915,296.14549231529236,296.1586413383484,296.30811071395874,296.30811071395874,296.30811071395874,296.30811071395874,296.30811071395874,296.30811071395874,296.30811071395874,298.9275255203247,1,2.7512192726135254,None,,,,,,,,,,,,,,,,,,146,2,2025-02-27_13h25.47.488,comp,2024.2.4,57.42373150532644,2025-02-27 13h25.58.814294 -0500,
63,63,0,critical,dwh,20.0,4.0,upper,141.0,141.0,125.0,200.0,200.0,125.0,2,5.18217396736145,None,,,,,0,0,0,0,0,63,63,71,298.94446063041687,,,,,,,,,,,,,,,,,,,,,,,,,,,,,,,,,,,,,,,,,,,,,,,,,,,,,,,,,,,,,,,,,,,,,,,,,,,,,,,,,,141.0,141.0,125.0,200.0,200.0,125.0,4.0,4.1,-266,-280,0,15,258,-259,298.9290690422058,298.9291524887085,298.93207812309265,298.94446063041687,299.0897319316864,299.0897319316864,299.0897319316864,299.0897319316864,299.0897319316864,299.0897319316864,299.0897319316864,304.1349902153015,2,5.18217396736145,None,,,,,,,,,,,,,,,,,,146,2,2025-02-27_13h25.47.488,comp,2024.2.4,57.42373150532644,2025-02-27 13h25.58.814294 -0500,
64,64,0,filler_square,None,None,None,None,None,None,None,None,None,None,1,5.612184286117554,None,,,,,0,0,0,0,0,64,64,186,304.15366411209106,,,,,,,,,,,,,,,,,,,,,,,,,,,,,,,,,,,,,,,,,,,,,,,,,,,,,,,,,,,,,,,,,,,,,,,,,,,,,,,,,,73.7916102280603,73.7916102280603,71.59022752639667,65.28158021365125,60.52249842039015,73.5927005065562,4.0,4.2,-166,-6,0,-279,165,13,304.1368339061737,304.13696789741516,304.14011883735657,304.15366411209106,304.29470348358154,304.29470348358154,304.29470348358154,304.29470348358154,304.29470348358154,304.29470348358154,304.29470348358154,309.7779293060303,1,5.612184286117554,None,,,,,,,,,,,,,,,,,,146,2,2025-02-27_13h25.47.488,comp,2024.2.4,57.42373150532644,2025-02-27 13h25.58.814294 -0500,
65,65,0,filler_random,None,None,None,None,None,None,None,None,None,None,1,1.5637810230255127,None,,,,,0,0,0,0,0,65,65,165,309.79432225227356,,,,,,,,,,,,,,,,,,,,,,,,,,,,,,,,,,,,,,,,,,,,,,,,,,,,,,,,,,,,,,,,,,,,,,,,,,,,,,,,,,100.10953147051411,169.55475858100914,78.76581493210017,134.95172691985655,97.6242368926745,151.53478588767857,4.0,4.2,-248,3,0,-278,239,0,309.77963519096375,309.7797112464905,309.78293895721436,309.79432225227356,309.9443051815033,309.9443051815033,309.9443051815033,309.9443051815033,309.9443051815033,309.9443051815033,309.9443051815033,311.362651348114,1,1.5637810230255127,None,,,,,,,,,,,,,,,,,,146,2,2025-02-27_13h25.47.488,comp,2024.2.4,57.42373150532644,2025-02-27 13h25.58.814294 -0500,
66,66,0,filler_square,None,None,None,None,None,None,None,None,None,None,1,1.099938154220581,None,,,,,0,0,0,0,0,66,66,206,311.3784782886505,,,,,,,,,,,,,,,,,,,,,,,,,,,,,,,,,,,,,,,,,,,,,,,,,,,,,,,,,,,,,,,,,,,,,,,,,,,,,,,,,,182.86644166816342,182.86644166816342,83.83389877189059,74.08038295875117,72.76293082375753,82.02108915257688,2.2,2.22,-224,274,0,-280,174,-265,311.3644599914551,311.3645408153534,311.36769008636475,311.3784782886505,311.5281894207001,311.5281894207001,311.5281894207001,311.5281894207001,311.5281894207001,311.5281894207001,311.5281894207001,312.48082089424133,1,1.099938154220581,None,,,,,,,,,,,,,,,,,,146,2,2025-02-27_13h25.47.488,comp,2024.2.4,57.42373150532644,2025-02-27 13h25.58.814294 -0500,
67,67,0,filler_random,None,None,None,None,None,None,None,None,None,None,3,2.3811259269714355,None,,,,,0,0,0,0,0,67,67,147,312.4966952800751,,,,,,,,,,,,,,,,,,,,,,,,,,,,,,,,,,,,,,,,,,,,,,,,,,,,,,,,,,,,,,,,,,,,,,,,,,,,,,,,,,178.93277890846423,173.39865745303314,144.97113207113298,74.17862182483647,170.74948840000323,178.89994948778218,1.0,1.2,-220,15,0,-9,223,10,312.48246335983276,312.4825611114502,312.48591113090515,312.4966952800751,312.6475419998169,312.6475419998169,312.6475419998169,312.6475419998169,312.6475419998169,312.6475419998169,312.6475419998169,314.8884472846985,3,2.3811259269714355,None,,,,,,,,,,,,,,,,,,146,2,2025-02-27_13h25.47.488,comp,2024.2.4,57.42373150532644,2025-02-27 13h25.58.814294 -0500,
68,68,0,critical,hdw,35.0,2.1,upper,200.0,125.0,127.0,127.0,125.0,200.0,1,2.6055941581726074,None,,,,,0,0,0,0,0,68,68,21,314.90511417388916,,,,,,,,,,,,,,,,,,,,,,,,,,,,,,,,,,,,,,,,,,,,,,,,,,,,,,,,,,,,,,,,,,,,,,,,,,,,,,,,,,200.0,125.0,127.0,127.0,125.0,200.0,2.1,2.12,-222,-284,0,-284,260,289,314.89003705978394,314.8901152610779,314.8934109210968,314.90511417388916,315.0457606315613,315.0457606315613,315.0457606315613,315.0457606315613,315.0457606315613,315.0457606315613,315.0457606315613,317.5187349319458,1,2.6055941581726074,None,,,,,,,,,,,,,,,,,,146,2,2025-02-27_13h25.47.488,comp,2024.2.4,57.42373150532644,2025-02-27 13h25.58.814294 -0500,
69,69,0,critical,hwd,35.0,1.0,upper,200.0,125.0,125.0,200.0,127.0,127.0,2,2.3896114826202393,None,,,,,0,0,0,0,0,69,69,97,317.536408662796,,,,,,,,,,,,,,,,,,,,,,,,,,,,,,,,,,,,,,,,,,,,,,,,,,,,,,,,,,,,,,,,,,,,,,,,,,,,,,,,,,200.0,125.0,125.0,200.0,127.0,127.0,1.0,1.1,-738,287,-480,274,-220,279,317.52043557167053,317.5205156803131,317.5234122276306,317.536408662796,317.68513345718384,317.68513345718384,317.68513345718384,317.68513345718384,317.68513345718384,317.68513345718384,317.68513345718384,319.9407033920288,2,2.3896114826202393,None,,,,,,,,,,,,,,,,,,146,2,2025-02-27_13h25.47.488,comp,2024.2.4,57.42373150532644,2025-02-27 13h25.58.814294 -0500,
70,70,0,filler_square,None,None,None,None,None,None,None,None,None,None,2,1.7141640186309814,None,,,,,0,0,0,0,0,70,70,193,319.95588088035583,,,,,,,,,,,,,,,,,,,,,,,,,,,,,,,,,,,,,,,,,,,,,,,,,,,,,,,,,,,,,,,,,,,,,,,,,,,,,,,,,,134.21601269487195,111.23083590491385,165.3920421358128,165.3920421358128,64.7602902567875,111.47877202308004,1.0,1.1,-714,279,-480,259,-246,270,319.94248390197754,319.94256353378296,319.94544100761414,319.95588088035583,320.0970184803009,320.0970184803009,320.0970184803009,320.0970184803009,320.0970184803009,320.0970184803009,320.0970184803009,321.6852128505707,2,1.7141640186309814,None,,,,,,,,,,,,,,,,,,146,2,2025-02-27_13h25.47.488,comp,2024.2.4,57.42373150532644,2025-02-27 13h25.58.814294 -0500,
71,71,0,critical,wdh,20.0,2.1,lower,57.0,133.0,78.0,78.0,133.0,57.0,1,3.1848297119140625,None,,,,,0,0,0,0,0,71,71,34,321.70166873931885,,,,,,,,,,,,,,,,,,,,,,,,,,,,,,,,,,,,,,,,,,,,,,,,,,,,,,,,,,,,,,,,,,,,,,,,,,,,,,,,,,57.0,133.0,78.0,78.0,133.0,57.0,2.1,2.11,-202,282,0,267,164,-264,321.6869878768921,321.6871132850647,321.6906201839447,321.70166873931885,321.8394196033478,321.8394196033478,321.8394196033478,321.8394196033478,321.8394196033478,321.8394196033478,321.8394196033478,324.89234495162964,1,3.1848297119140625,None,,,,,,,,,,,,,,,,,,146,2,2025-02-27_13h25.47.488,comp,2024.2.4,57.42373150532644,2025-02-27 13h25.58.814294 -0500,
72,72,0,critical,hwd,35.0,1.0,lower,133.0,57.0,57.0,133.0,70.0,70.0,2,6.744849443435669,None,,,,,0,0,0,0,0,72,72,96,324.9090623855591,,,,,,,,,,,,,,,,,,,,,,,,,,,,,,,,,,,,,,,,,,,,,,,,,,,,,,,,,,,,,,,,,,,,,,,,,,,,,,,,,,133.0,57.0,57.0,133.0,70.0,70.0,1.0,1.1,-671,287,-480,260,-282,268,324.8939571380615,324.8940875530243,324.89730501174927,324.9090623855591,325.0504083633423,325.0504083633423,325.0504083633423,325.0504083633423,325.0504083633423,325.0504083633423,325.0504083633423,331.65614342689514,2,6.744849443435669,None,,,,,,,,,,,,,,,,,,146,2,2025-02-27_13h25.47.488,comp,2024.2.4,57.42373150532644,2025-02-27 13h25.58.814294 -0500,
73,73,0,catch,None,None,None,None,None,None,None,None,None,None,2,1.421462059020996,None,,,,,0,0,0,0,0,73,73,129,331.6726608276367,,,,,,,,,,,,,,,,,,,,,,,,,,,,,,,,,,,,,,,,,,,,,,,,,,,,,,,,,,,,,,,,,,,,,,,,,,,,,,,,,,77,113,163,162,82,108,2.1,2.12,-234,-265,0,-269,231,281,331.6580650806427,331.6581449508667,331.6619625091553,331.6726608276367,331.8180720806122,331.8180720806122,331.8180720806122,331.8180720806122,331.8180720806122,331.8180720806122,331.8180720806122,333.1054632663727,2,1.421462059020996,None,,,,,,,,,,,,,,,,,,146,2,2025-02-27_13h25.47.488,comp,2024.2.4,57.42373150532644,2025-02-27 13h25.58.814294 -0500,
74,74,0,filler_random,None,None,None,None,None,None,None,None,None,None,1,1.4290771484375,None,,,,,0,0,0,0,0,74,74,132,333.1210505962372,,,,,,,,,,,,,,,,,,,,,,,,,,,,,,,,,,,,,,,,,,,,,,,,,,,,,,,,,,,,,,,,,,,,,,,,,,,,,,,,,,142.54954421929335,166.6835517975746,168.32256114029533,96.36555156811463,118.25796451502325,92.08041779445236,2.2,2.22,-228,289,0,-253,190,-260,333.1073524951935,333.107435464859,333.11032342910767,333.1210505962372,333.27523493766785,333.27523493766785,333.27523493766785,333.27523493766785,333.27523493766785,333.27523493766785,333.27523493766785,334.55940079689026,1,1.4290771484375,None,,,,,,,,,,,,,,,,,,146,2,2025-02-27_13h25.47.488,comp,2024.2.4,57.42373150532644,2025-02-27 13h25.58.814294 -0500,
75,75,0,filler_square,None,None,None,None,None,None,None,None,None,None,1,1.3021912574768066,None,,,,,0,0,0,0,0,75,75,195,334.57571601867676,,,,,,,,,,,,,,,,,,,,,,,,,,,,,,,,,,,,,,,,,,,,,,,,,,,,,,,,,,,,,,,,,,,,,,,,,,,,,,,,,,131.93098919564818,131.93098919564818,75.7249140539914,57.674725517336796,66.12942234784376,78.02930010500434,2.2,2.21,-191,-270,0,273,164,264,334.56117129325867,334.56125259399414,334.5641050338745,334.57571601867676,334.7189030647278,334.7189030647278,334.7189030647278,334.7189030647278,334.7189030647278,334.7189030647278,334.7189030647278,335.8874776363373,1,1.3021912574768066,None,,,,,,,,,,,,,,,,,,146,2,2025-02-27_13h25.47.488,comp,2024.2.4,57.42373150532644,2025-02-27 13h25.58.814294 -0500,
76,76,0,critical,dwh,20.0,4.0,lower,78.0,78.0,57.0,133.0,133.0,57.0,2,3.2063770294189453,None,,,,,0,0,0,0,0,76,76,70,335.90372800827026,,,,,,,,,,,,,,,,,,,,,,,,,,,,,,,,,,,,,,,,,,,,,,,,,,,,,,,,,,,,,,,,,,,,,,,,,,,,,,,,,,78.0,78.0,57.0,133.0,133.0,57.0,4.0,4.2,-202,20,0,-283,191,4,335.88899517059326,335.88907265663147,335.89304780960083,335.90372800827026,336.05174922943115,336.05174922943115,336.05174922943115,336.05174922943115,336.05174922943115,336.05174922943115,336.05174922943115,339.12215304374695,2,3.2063770294189453,None,,,,,,,,,,,,,,,,,,146,2,2025-02-27_13h25.47.488,comp,2024.2.4,57.42373150532644,2025-02-27 13h25.58.814294 -0500,
77,77,0,critical,dhw,20.0,4.0,upper,141.0,141.0,200.0,125.0,125.0,200.0,3,7.48425555229187,None,,,,,0,0,0,0,0,77,77,59,339.1381378173828,,,,,,,,,,,,,,,,,,,,,,,,,,,,,,,,,,,,,,,,,,,,,,,,,,,,,,,,,,,,,,,,,,,,,,,,,,,,,,,,,,141.0,141.0,200.0,125.0,125.0,200.0,4.0,4.1,-229,-256,0,-2,258,-283,339.12379789352417,339.1238765716553,339.12791895866394,339.1381378173828,339.2874276638031,339.2874276638031,339.2874276638031,339.2874276638031,339.2874276638031,339.2874276638031,339.2874276638031,346.62788701057434,3,7.48425555229187,None,,,,,,,,,,,,,,,,,,146,2,2025-02-27_13h25.47.488,comp,2024.2.4,57.42373150532644,2025-02-27 13h25.58.814294 -0500,
78,78,0,critical,wdh,20.0,1.0,upper,125.0,200.0,141.0,141.0,200.0,125.0,1,3.680168867111206,None,,,,,0,0,0,0,0,78,78,79,346.6466224193573,,,,,,,,,,,,,,,,,,,,,,,,,,,,,,,,,,,,,,,,,,,,,,,,,,,,,,,,,,,,,,,,,,,,,,,,,,,,,,,,,,125.0,200.0,141.0,141.0,200.0,125.0,1.0,1.2,-266,-1,0,-13,229,6,346.6294710636139,346.62957668304443,346.63288736343384,346.6466224193573,346.79040932655334,346.79040932655334,346.79040932655334,346.79040932655334,346.79040932655334,346.79040932655334,346.79040932655334,350.32979559898376,1,3.680168867111206,None,,,,,,,,,,,,,,,,,,146,2,2025-02-27_13h25.47.488,comp,2024.2.4,57.42373150532644,2025-02-27 13h25.58.814294 -0500,
79,79,0,critical,hdw,35.0,1.0,lower,133.0,57.0,70.0,70.0,57.0,133.0,1,1.2442231178283691,None,,,,,0,0,0,0,0,79,79,108,350.3457353115082,,,,,,,,,,,,,,,,,,,,,,,,,,,,,,,,,,,,,,,,,,,,,,,,,,,,,,,,,,,,,,,,,,,,,,,,,,,,,,,,,,133.0,57.0,70.0,70.0,57.0,133.0,1.0,1.1,-640,271,-480,285,-282,288,350.33130526542664,350.3313891887665,350.33418464660645,350.3457353115082,350.49051308631897,350.49051308631897,350.49051308631897,350.49051308631897,350.49051308631897,350.49051308631897,350.49051308631897,351.5924942493439,1,1.2442231178283691,None,,,,,,,,,,,,,,,,,,146,2,2025-02-27_13h25.47.488,comp,2024.2.4,57.42373150532644,2025-02-27 13h25.58.814294 -0500,
80,80,0,critical,hdw,20.0,2.1,lower,133.0,57.0,78.0,78.0,57.0,133.0,3,4.638136625289917,None,,,,,0,0,0,0,0,80,80,46,351.6080234050751,,,,,,,,,,,,,,,,,,,,,,,,,,,,,,,,,,,,,,,,,,,,,,,,,,,,,,,,,,,,,,,,,,,,,,,,,,,,,,,,,,133.0,57.0,78.0,78.0,57.0,133.0,2.1,2.11,-164,255,0,284,202,-290,351.5940692424774,351.5941467285156,351.59749841690063,351.6080234050751,351.75698232650757,351.75698232650757,351.75698232650757,351.75698232650757,351.75698232650757,351.75698232650757,351.75698232650757,356.2594428062439,3,4.638136625289917,None,,,,,,,,,,,,,,,,,,146,2,2025-02-27_13h25.47.488,comp,2024.2.4,57.42373150532644,2025-02-27 13h25.58.814294 -0500,
81,81,0,filler_square,None,None,None,None,None,None,None,None,None,None,3,1.3540410995483398,None,,,,,0,0,0,0,0,81,81,208,356.27597761154175,,,,,,,,,,,,,,,,,,,,,,,,,,,,,,,,,,,,,,,,,,,,,,,,,,,,,,,,,,,,,,,,,,,,,,,,,,,,,,,,,,70.1585601960563,64.93080687435462,58.45802583311521,60.71320803878797,72.35634577598432,72.35634577598432,2.1,2.11,-159,285,0,254,163,-273,356.2615327835083,356.26161456108093,356.26479721069336,356.27597761154175,356.42702293395996,356.42702293395996,356.42702293395996,356.42702293395996,356.42702293395996,356.42702293395996,356.42702293395996,357.6437842845917,3,1.3540410995483398,None,,,,,,,,,,,,,,,,,,146,2,2025-02-27_13h25.47.488,comp,2024.2.4,57.42373150532644,2025-02-27 13h25.58.814294 -0500,
82,82,0,filler_random,None,None,None,None,None,None,None,None,None,None,3,1.3220574855804443,None,,,,,0,0,0,0,0,82,82,154,357.6598060131073,,,,,,,,,,,,,,,,,,,,,,,,,,,,,,,,,,,,,,,,,,,,,,,,,,,,,,,,,,,,,,,,,,,,,,,,,,,,,,,,,,69.17359637481609,114.18369770847681,113.5151826687829,107.0184902458264,170.31453393223808,163.62857149139217,4.0,4.1,-207,-251,0,1,231,-252,357.6457054615021,357.6457905769348,357.64940786361694,357.6598060131073,357.8101975917816,357.8101975917816,357.8101975917816,357.8101975917816,357.8101975917816,357.8101975917816,357.8101975917816,358.99607586860657,3,1.3220574855804443,None,,,,,,,,,,,,,,,,,,146,2,2025-02-27_13h25.47.488,comp,2024.2.4,57.42373150532644,2025-02-27 13h25.58.814294 -0500,
83,83,0,critical,hwd,35.0,2.1,upper,200.0,125.0,125.0,200.0,127.0,127.0,2,6.3630149364471436,None,,,,,0,0,0,0,0,83,83,41,359.01185750961304,,,,,,,,,,,,,,,,,,,,,,,,,,,,,,,,,,,,,,,,,,,,,,,,,,,,,,,,,,,,,,,,,,,,,,,,,,,,,,,,,,200.0,125.0,125.0,200.0,127.0,127.0,2.1,2.12,-258,-259,0,-277,260,281,358.99769616127014,358.99777698516846,359.00079369544983,359.01185750961304,359.16091752052307,359.16091752052307,359.16091752052307,359.16091752052307,359.16091752052307,359.16091752052307,359.16091752052307,365.37975454330444,2,6.3630149364471436,None,,,,,,,,,,,,,,,,,,146,2,2025-02-27_13h25.47.488,comp,2024.2.4,57.42373150532644,2025-02-27 13h25.58.814294 -0500,
84,84,0,critical,hwd,20.0,4.0,upper,200.0,125.0,125.0,200.0,141.0,141.0,2,2.218496322631836,None,,,,,0,0,0,0,0,84,84,107,365.39544200897217,,,,,,,,,,,,,,,,,,,,,,,,,,,,,,,,,,,,,,,,,,,,,,,,,,,,,,,,,,,,,,,,,,,,,,,,,,,,,,,,,,200.0,125.0,125.0,200.0,141.0,141.0,4.0,4.2,-258,2,0,-251,266,-3,365.38122367858887,365.3813292980194,365.38473653793335,365.39544200897217,365.54678082466125,365.54678082466125,365.54678082466125,365.54678082466125,365.54678082466125,365.54678082466125,365.54678082466125,367.62957525253296,2,2.218496322631836,None,,,,,,,,,,,,,,,,,,146,2,2025-02-27_13h25.47.488,comp,2024.2.4,57.42373150532644,2025-02-27 13h25.58.814294 -0500,
85,85,0,filler_random,None,None,None,None,None,None,None,None,None,None,3,1.8353326320648193,None,,,,,0,0,0,0,0,85,85,143,367.65091156959534,,,,,,,,,,,,,,,,,,,,,,,,,,,,,,,,,,,,,,,,,,,,,,,,,,,,,,,,,,,,,,,,,,,,,,,,,,,,,,,,,,127.92986319837114,94.88639264521822,100.93210442185867,76.70149394453077,158.53405190642462,123.34212849933606,3.0,3.1,-182,275,0,-12,196,-251,367.63119673728943,367.6312928199768,367.6342225074768,367.65091156959534,367.79684495925903,367.79684495925903,367.79684495925903,367.79684495925903,367.79684495925903,367.79684495925903,367.79684495925903,369.5059940814972,3,1.8353326320648193,None,,,,,,,,,,,,,,,,,,146,2,2025-02-27_13h25.47.488,comp,2024.2.4,57.42373150532644,2025-02-27 13h25.58.814294 -0500,
86,86,0,critical,dhw,20.0,2.1,upper,141.0,141.0,200.0,125.0,125.0,200.0,3,1.9547688961029053,None,,,,,0,0,0,0,0,86,86,3,369.52358746528625,,,,,,,,,,,,,,,,,,,,,,,,,,,,,,,,,,,,,,,,,,,,,,,,,,,,,,,,,,,,,,,,,,,,,,,,,,,,,,,,,,141.0,141.0,200.0,125.0,125.0,200.0,2.1,2.11,-229,289,0,273,258,-279,369.50758814811707,369.5076630115509,369.51085686683655,369.52358746528625,369.6653878688812,369.6653878688812,369.6653878688812,369.6653878688812,369.6653878688812,369.6653878688812,369.6653878688812,371.4806590080261,3,1.9547688961029053,None,,,,,,,,,,,,,,,,,,146,2,2025-02-27_13h25.47.488,comp,2024.2.4,57.42373150532644,2025-02-27 13h25.58.814294 -0500,
87,87,0,critical,whd,35.0,2.1,upper,125.0,200.0,200.0,125.0,127.0,127.0,1,3.8379790782928467,None,,,,,0,0,0,0,0,87,87,13,371.49655175209045,,,,,,,,,,,,,,,,,,,,,,,,,,,,,,,,,,,,,,,,,,,,,,,,,,,,,,,,,,,,,,,,,,,,,,,,,,,,,,,,,,125.0,200.0,200.0,125.0,127.0,127.0,2.1,2.11,-258,267,0,277,222,-251,371.48209047317505,371.4821677207947,371.4849605560303,371.49655175209045,371.6483483314514,371.6483483314514,371.6483483314514,371.6483483314514,371.6483483314514,371.6483483314514,371.6483483314514,375.3385410308838,1,3.8379790782928467,None,,,,,,,,,,,,,,,,,,146,2,2025-02-27_13h25.47.488,comp,2024.2.4,57.42373150532644,2025-02-27 13h25.58.814294 -0500,
88,88,0,critical,wdh,20.0,1.0,lower,57.0,133.0,78.0,78.0,133.0,57.0,1,3.555812120437622,None,,,,,0,0,0,0,0,88,88,78,375.3545889854431,,,,,,,,,,,,,,,,,,,,,,,,,,,,,,,,,,,,,,,,,,,,,,,,,,,,,,,,,,,,,,,,,,,,,,,,,,,,,,,,,,57.0,133.0,78.0,78.0,133.0,57.0,1.0,1.3,278,-265,480,-278,644,-250,375.34011244773865,375.34019351005554,375.34308671951294,375.3545889854431,375.49811816215515,375.49811816215515,375.49811816215515,375.49811816215515,375.49811816215515,375.49811816215515,375.49811816215515,378.9188585281372,1,3.555812120437622,None,,,,,,,,,,,,,,,,,,146,2,2025-02-27_13h25.47.488,comp,2024.2.4,57.42373150532644,2025-02-27 13h25.58.814294 -0500,
89,89,0,critical,whd,35.0,4.0,upper,125.0,200.0,200.0,125.0,127.0,127.0,1,2.150479793548584,None,,,,,0,0,0,0,0,89,89,89,378.9356460571289,,,,,,,,,,,,,,,,,,,,,,,,,,,,,,,,,,,,,,,,,,,,,,,,,,,,,,,,,,,,,,,,,,,,,,,,,,,,,,,,,,125.0,200.0,200.0,125.0,127.0,127.0,4.0,4.2,-258,-5,0,-267,222,-8,378.92048931121826,378.9206178188324,378.9240896701813,378.9356460571289,379.083865404129,379.083865404129,379.083865404129,379.083865404129,379.083865404129,379.083865404129,379.083865404129,381.09864711761475,1,2.150479793548584,None,,,,,,,,,,,,,,,,,,146,2,2025-02-27_13h25.47.488,comp,2024.2.4,57.42373150532644,2025-02-27 13h25.58.814294 -0500,
90,90,0,critical,dwh,35.0,2.1,lower,70.0,70.0,57.0,133.0,133.0,57.0,2,3.5311150550842285,None,,,,,0,0,0,0,0,90,90,4,381.11535120010376,,,,,,,,,,,,,,,,,,,,,,,,,,,,,,,,,,,,,,,,,,,,,,,,,,,,,,,,,,,,,,,,,,,,,,,,,,,,,,,,,,70.0,70.0,57.0,133.0,133.0,57.0,2.1,2.12,-198,-262,0,-277,191,277,381.10005283355713,381.1001262664795,381.10296964645386,381.11535120010376,381.25415658950806,381.25415658950806,381.25415658950806,381.25415658950806,381.25415658950806,381.25415658950806,381.25415658950806,384.6512327194214,2,3.5311150550842285,None,,,,,,,,,,,,,,,,,,146,2,2025-02-27_13h25.47.488,comp,2024.2.4,57.42373150532644,2025-02-27 13h25.58.814294 -0500,
91,91,0,critical,dwh,35.0,3.0,lower,70.0,70.0,57.0,133.0,133.0,57.0,2,4.963183164596558,None,,,,,0,0,0,0,0,91,91,62,384.6668517589569,,,,,,,,,,,,,,,,,,,,,,,,,,,,,,,,,,,,,,,,,,,,,,,,,,,,,,,,,,,,,,,,,,,,,,,,,,,,,,,,,,70.0,70.0,57.0,133.0,133.0,57.0,3.0,3.2,-198,-278,0,10,191,265,384.6527523994446,384.65283131599426,384.65597581863403,384.6668517589569,384.8162853717804,384.8162853717804,384.8162853717804,384.8162853717804,384.8162853717804,384.8162853717804,384.8162853717804,389.6451983451843,2,4.963183164596558,None,,,,,,,,,,,,,,,,,,146,2,2025-02-27_13h25.47.488,comp,2024.2.4,57.42373150532644,2025-02-27 13h25.58.814294 -0500,
92,92,0,filler_square,None,None,None,None,None,None,None,None,None,None,2,1.4645791053771973,None,,,,,0,0,0,0,0,92,92,207,389.6618859767914,,,,,,,,,,,,,,,,,,,,,,,,,,,,,,,,,,,,,,,,,,,,,,,,,,,,,,,,,,,,,,,,,,,,,,,,,,,,,,,,,,63.072542086153184,176.066282600229,186.40105451304157,186.40105451304157,184.7381471354145,102.5634025164249,1.0,1.3,203,-254,480,-255,720,-289,389.6472375392914,389.64734840393066,389.6505753993988,389.6618859767914,389.8043143749237,389.8043143749237,389.8043143749237,389.8043143749237,389.8043143749237,389.8043143749237,389.8043143749237,391.13800263404846,2,1.4645791053771973,None,,,,,,,,,,,,,,,,,,146,2,2025-02-27_13h25.47.488,comp,2024.2.4,57.42373150532644,2025-02-27 13h25.58.814294 -0500,
93,93,0,critical,hwd,35.0,4.0,lower,133.0,57.0,57.0,133.0,70.0,70.0,2,3.0291495323181152,None,,,,,0,0,0,0,0,93,93,100,391.1533989906311,,,,,,,,,,,,,,,,,,,,,,,,,,,,,,,,,,,,,,,,,,,,,,,,,,,,,,,,,,,,,,,,,,,,,,,,,,,,,,,,,,133.0,57.0,57.0,133.0,70.0,70.0,4.0,4.2,-191,-3,0,-251,198,10,391.1394703388214,391.1395466327667,391.1429018974304,391.1533989906311,391.29350233078003,391.29350233078003,391.29350233078003,391.29350233078003,391.29350233078003,391.29350233078003,391.29350233078003,394.1895287036896,2,3.0291495323181152,None,,,,,,,,,,,,,,,,,,146,2,2025-02-27_13h25.47.488,comp,2024.2.4,57.42373150532644,2025-02-27 13h25.58.814294 -0500,
94,94,0,critical,hwd,20.0,3.0,lower,133.0,57.0,57.0,133.0,78.0,78.0,2,2.6729373931884766,None,,,,,0,0,0,0,0,94,94,104,394.20511865615845,,,,,,,,,,,,,,,,,,,,,,,,,,,,,,,,,,,,,,,,,,,,,,,,,,,,,,,,,,,,,,,,,,,,,,,,,,,,,,,,,,133.0,57.0,57.0,133.0,78.0,78.0,3.0,3.2,-191,-282,0,-4,202,273,394.1910538673401,394.1911346912384,394.19449257850647,394.20511865615845,394.3550114631653,394.3550114631653,394.3550114631653,394.3550114631653,394.3550114631653,394.3550114631653,394.3550114631653,396.8883843421936,2,2.6729373931884766,None,,,,,,,,,,,,,,,,,,146,2,2025-02-27_13h25.47.488,comp,2024.2.4,57.42373150532644,2025-02-27 13h25.58.814294 -0500,
95,95,0,filler_square,None,None,None,None,None,None,None,None,None,None,3,1.4214427471160889,None,,,,,0,0,0,0,0,95,95,204,396.90471720695496,,,,,,,,,,,,,,,,,,,,,,,,,,,,,,,,,,,,,,,,,,,,,,,,,,,,,,,,,,,,,,,,,,,,,,,,,,,,,,,,,,133.42392816594935,158.46296038274585,142.81702453044687,147.42108051151212,166.7344066310599,166.7344066310599,4.0,4.2,-249,13,0,-250,253,5,396.89016103744507,396.89024090766907,396.8931722640991,396.90471720695496,397.0562844276428,397.0562844276428,397.0562844276428,397.0562844276428,397.0562844276428,397.0562844276428,397.0562844276428,398.3294394016266,3,1.4214427471160889,None,,,,,,,,,,,,,,,,,,146,2,2025-02-27_13h25.47.488,comp,2024.2.4,57.42373150532644,2025-02-27 13h25.58.814294 -0500,
96,96,0,critical,whd,20.0,3.0,upper,125.0,200.0,200.0,125.0,141.0,141.0,1,3.275315284729004,None,,,,,0,0,0,0,0,96,96,93,398.3467836380005,,,,,,,,,,,,,,,,,,,,,,,,,,,,,,,,,,,,,,,,,,,,,,,,,,,,,,,,,,,,,,,,,,,,,,,,,,,,,,,,,,125.0,200.0,200.0,125.0,141.0,141.0,3.0,3.2,-258,-251,0,-18,229,273,398.3308594226837,398.330935716629,398.33374190330505,398.3467836380005,398.49084401130676,398.49084401130676,398.49084401130676,398.49084401130676,398.49084401130676,398.49084401130676,398.49084401130676,401.63976669311523,1,3.275315284729004,None,,,,,,,,,,,,,,,,,,146,2,2025-02-27_13h25.47.488,comp,2024.2.4,57.42373150532644,2025-02-27 13h25.58.814294 -0500,
97,97,0,critical,hdw,20.0,1.0,upper,200.0,125.0,141.0,141.0,125.0,200.0,3,2.9186453819274902,None,,,,,0,0,0,0,0,97,97,115,401.6553318500519,,,,,,,,,,,,,,,,,,,,,,,,,,,,,,,,,,,,,,,,,,,,,,,,,,,,,,,,,,,,,,,,,,,,,,,,,,,,,,,,,,200.0,125.0,141.0,141.0,125.0,200.0,1.0,1.1,-709,265,-480,289,-214,254,401.6413698196411,401.6414461135864,401.6447215080261,401.6553318500519,401.7967643737793,401.7967643737793,401.7967643737793,401.7967643737793,401.7967643737793,401.7967643737793,401.7967643737793,404.59413266181946,3,2.9186453819274902,None,,,,,,,,,,,,,,,,,,146,2,2025-02-27_13h25.47.488,comp,2024.2.4,57.42373150532644,2025-02-27 13h25.58.814294 -0500,
98,98,0,catch,None,None,None,None,None,None,None,None,None,None,3,4.656059503555298,None,,,,,0,0,0,0,0,98,98,127,404.6148853302002,,,,,,,,,,,,,,,,,,,,,,,,,,,,,,,,,,,,,,,,,,,,,,,,,,,,,,,,,,,,,,,,,,,,,,,,,,,,,,,,,,77,113,126,64,174,151,2.2,2.22,-184,254,0,-252,204,-263,404.59622836112976,404.59634041786194,404.5995771884918,404.6148853302002,404.757226228714,404.757226228714,404.757226228714,404.757226228714,404.757226228714,404.757226228714,404.757226228714,409.27981090545654,3,4.656059503555298,None,,,,,,,,,,,,,,,,,,146,2,2025-02-27_13h25.47.488,comp,2024.2.4,57.42373150532644,2025-02-27 13h25.58.814294 -0500,
99,99,0,critical,dwh,20.0,3.0,lower,78.0,78.0,57.0,133.0,133.0,57.0,2,3.8394713401794434,None,,,,,0,0,0,0,0,99,99,68,409.2955234050751,,,,,,,,,,,,,,,,,,,,,,,,,,,,,,,,,,,,,,,,,,,,,,,,,,,,,,,,,,,,,,,,,,,,,,,,,,,,,,,,,,78.0,78.0,57.0,133.0,133.0,57.0,3.0,3.1,-202,275,0,1,191,-271,409.2814497947693,409.2815318107605,409.28479528427124,409.2955234050751,409.44352436065674,409.44352436065674,409.44352436065674,409.44352436065674,409.44352436065674,409.44352436065674,409.44352436065674,413.1447639465332,2,3.8394713401794434,None,,,,,,,,,,,,,,,,,,146,2,2025-02-27_13h25.47.488,comp,2024.2.4,57.42373150532644,2025-02-27 13h25.58.814294 -0500,
100,100,0,filler_square,None,None,None,None,None,None,None,None,None,None,2,2.277925491333008,None,,,,,0,0,0,0,0,100,100,172,413.16150975227356,,,,,,,,,,,,,,,,,,,,,,,,,,,,,,,,,,,,,,,,,,,,,,,,,,,,,,,,,,,,,,,,,,,,,,,,,,,,,,,,,,112.51165511122129,109.61708695518685,141.139047174459,141.139047174459,93.4702946983115,57.51324271754956,2.1,2.12,-221,-278,0,-288,195,276,413.1468427181244,413.14692401885986,413.1505208015442,413.16150975227356,413.3101406097412,413.3101406097412,413.3101406097412,413.3101406097412,413.3101406097412,413.3101406097412,413.3101406097412,415.4438445568085,2,2.277925491333008,None,,,,,,,,,,,,,,,,,,146,2,2025-02-27_13h25.47.488,comp,2024.2.4,57.42373150532644,2025-02-27 13h25.58.814294 -0500,
101,101,0,critical,dhw,20.0,4.0,lower,78.0,78.0,133.0,57.0,57.0,133.0,3,2.2504055500030518,None,,,,,0,0,0,0,0,101,101,58,415.46045780181885,,,,,,,,,,,,,,,,,,,,,,,,,,,,,,,,,,,,,,,,,,,,,,,,,,,,,,,,,,,,,,,,,,,,,,,,,,,,,,,,,,78.0,78.0,133.0,57.0,57.0,133.0,4.0,4.2,-164,5,0,-276,191,14,415.4453730583191,415.44544982910156,415.44866156578064,415.46045780181885,415.6160297393799,415.6160297393799,415.6160297393799,415.6160297393799,415.6160297393799,415.6160297393799,415.6160297393799,417.7129166126251,3,2.2504055500030518,None,,,,,,,,,,,,,,,,,,146,2,2025-02-27_13h25.47.488,comp,2024.2.4,57.42373150532644,2025-02-27 13h25.58.814294 -0500,
102,102,0,critical,dwh,20.0,2.1,upper,141.0,141.0,125.0,200.0,200.0,125.0,2,2.948573350906372,None,,,,,0,0,0,0,0,102,102,31,417.7298412322998,,,,,,,,,,,,,,,,,,,,,,,,,,,,,,,,,,,,,,,,,,,,,,,,,,,,,,,,,,,,,,,,,,,,,,,,,,,,,,,,,,141.0,141.0,125.0,200.0,200.0,125.0,2.1,2.12,-266,-261,0,-278,258,252,417.7146110534668,417.7146990299225,417.71819972991943,417.7298412322998,417.8790783882141,417.8790783882141,417.8790783882141,417.8790783882141,417.8790783882141,417.8790783882141,417.8790783882141,420.6845293045044,2,2.948573350906372,None,,,,,,,,,,,,,,,,,,146,2,2025-02-27_13h25.47.488,comp,2024.2.4,57.42373150532644,2025-02-27 13h25.58.814294 -0500,
103,103,0,critical,whd,35.0,2.1,upper,125.0,200.0,200.0,125.0,127.0,127.0,1,2.889915943145752,None,,,,,0,0,0,0,0,103,103,37,420.70079469680786,,,,,,,,,,,,,,,,,,,,,,,,,,,,,,,,,,,,,,,,,,,,,,,,,,,,,,,,,,,,,,,,,,,,,,,,,,,,,,,,,,125.0,200.0,200.0,125.0,127.0,127.0,2.1,2.11,-258,251,0,270,222,-285,420.68606543540955,420.6861484050751,420.69000363349915,420.70079469680786,420.8502972126007,420.8502972126007,420.8502972126007,420.8502972126007,420.8502972126007,420.8502972126007,420.8502972126007,423.59535455703735,1,2.889915943145752,None,,,,,,,,,,,,,,,,,,146,2,2025-02-27_13h25.47.488,comp,2024.2.4,57.42373150532644,2025-02-27 13h25.58.814294 -0500,
104,104,0,critical,hdw,35.0,1.0,upper,200.0,125.0,127.0,127.0,125.0,200.0,3,4.529790639877319,None,,,,,0,0,0,0,0,104,104,109,423.61221265792847,,,,,,,,,,,,,,,,,,,,,,,,,,,,,,,,,,,,,,,,,,,,,,,,,,,,,,,,,,,,,,,,,,,,,,,,,,,,,,,,,,200.0,125.0,127.0,127.0,125.0,200.0,1.0,1.3,258,-261,480,-255,740,-265,423.59688234329224,423.59696221351624,423.59986567497253,423.61221265792847,423.7493739128113,423.7493739128113,423.7493739128113,423.7493739128113,423.7493739128113,423.7493739128113,423.7493739128113,428.1551296710968,3,4.529790639877319,None,,,,,,,,,,,,,,,,,,146,2,2025-02-27_13h25.47.488,comp,2024.2.4,57.42373150532644,2025-02-27 13h25.58.814294 -0500,
105,105,0,critical,wdh,20.0,4.0,lower,57.0,133.0,78.0,78.0,133.0,57.0,1,3.419793128967285,None,,,,,0,0,0,0,0,105,105,82,428.170716047287,,,,,,,,,,,,,,,,,,,,,,,,,,,,,,,,,,,,,,,,,,,,,,,,,,,,,,,,,,,,,,,,,,,,,,,,,,,,,,,,,,57.0,133.0,78.0,78.0,133.0,57.0,4.0,4.2,-202,12,0,-265,164,-2,428.1566457748413,428.1567213535309,428.15957522392273,428.170716047287,428.31519317626953,428.31519317626953,428.31519317626953,428.31519317626953,428.31519317626953,428.31519317626953,428.31519317626953,431.5998191833496,1,3.419793128967285,None,,,,,,,,,,,,,,,,,,146,2,2025-02-27_13h25.47.488,comp,2024.2.4,57.42373150532644,2025-02-27 13h25.58.814294 -0500,
106,106,0,critical,dwh,20.0,3.0,upper,141.0,141.0,125.0,200.0,200.0,125.0,2,4.897643089294434,None,,,,,0,0,0,0,0,106,106,69,431.6205427646637,,,,,,,,,,,,,,,,,,,,,,,,,,,,,,,,,,,,,,,,,,,,,,,,,,,,,,,,,,,,,,,,,,,,,,,,,,,,,,,,,,141.0,141.0,125.0,200.0,200.0,125.0,3.0,3.1,-266,262,0,3,258,-258,431.60144424438477,431.6015434265137,431.60481905937195,431.6205427646637,431.766042470932,431.766042470932,431.766042470932,431.766042470932,431.766042470932,431.766042470932,431.766042470932,436.5345814228058,2,4.897643089294434,None,,,,,,,,,,,,,,,,,,146,2,2025-02-27_13h25.47.488,comp,2024.2.4,57.42373150532644,2025-02-27 13h25.58.814294 -0500,
107,107,0,filler_square,None,None,None,None,None,None,None,None,None,None,2,3.859574794769287,None,,,,,0,0,0,0,0,107,107,197,436.5545289516449,,,,,,,,,,,,,,,,,,,,,,,,,,,,,,,,,,,,,,,,,,,,,,,,,,,,,,,,,,,,,,,,,,,,,,,,,,,,,,,,,,110.50431995928061,142.26701549628484,152.9755475994015,152.9755475994015,147.82172530212554,71.02636241410346,1.0,1.3,236,-285,480,-278,688,-269,436.53636050224304,436.53643703460693,436.53960394859314,436.5545289516449,436.70193696022034,436.70193696022034,436.70193696022034,436.70193696022034,436.70193696022034,436.70193696022034,436.70193696022034,440.425311088562,2,3.859574794769287,None,,,,,,,,,,,,,,,,,,146,2,2025-02-27_13h25.47.488,comp,2024.2.4,57.42373150532644,2025-02-27 13h25.58.814294 -0500,
108,108,0,critical,dhw,35.0,1.0,upper,127.0,127.0,200.0,125.0,125.0,200.0,3,2.505465507507324,None,,,,,0,0,0,0,0,108,108,49,440.4453806877136,,,,,,,,,,,,,,,,,,,,,,,,,,,,,,,,,,,,,,,,,,,,,,,,,,,,,,,,,,,,,,,,,,,,,,,,,,,,,,,,,,127.0,127.0,200.0,125.0,125.0,200.0,1.0,1.2,-222,17,0,-8,258,-20,440.4267518520355,440.426828622818,440.4297695159912,440.4453806877136,440.5855829715729,440.5855829715729,440.5855829715729,440.5855829715729,440.5855829715729,440.5855829715729,440.5855829715729,442.95548033714294,3,2.505465507507324,None,,,,,,,,,,,,,,,,,,146,2,2025-02-27_13h25.47.488,comp,2024.2.4,57.42373150532644,2025-02-27 13h25.58.814294 -0500,
109,109,0,critical,dhw,35.0,4.0,upper,127.0,127.0,200.0,125.0,125.0,200.0,3,1.5924482345581055,None,,,,,0,0,0,0,0,109,109,53,442.9739615917206,,,,,,,,,,,,,,,,,,,,,,,,,,,,,,,,,,,,,,,,,,,,,,,,,,,,,,,,,,,,,,,,,,,,,,,,,,,,,,,,,,127.0,127.0,200.0,125.0,125.0,200.0,4.0,4.1,-222,-273,0,4,258,-287,442.95708084106445,442.95716381073,442.9601836204529,442.9739615917206,443.1188995838165,443.1188995838165,443.1188995838165,443.1188995838165,443.1188995838165,443.1188995838165,443.1188995838165,444.5873193740845,3,1.5924482345581055,None,,,,,,,,,,,,,,,,,,146,2,2025-02-27_13h25.47.488,comp,2024.2.4,57.42373150532644,2025-02-27 13h25.58.814294 -0500,
110,110,0,critical,whd,35.0,3.0,lower,57.0,133.0,133.0,57.0,70.0,70.0,1,3.684001922607422,None,,,,,0,0,0,0,0,110,110,86,444.6027846336365,,,,,,,,,,,,,,,,,,,,,,,,,,,,,,,,,,,,,,,,,,,,,,,,,,,,,,,,,,,,,,,,,,,,,,,,,,,,,,,,,,57.0,133.0,133.0,57.0,70.0,70.0,3.0,3.2,-191,-251,0,-14,160,270,444.58893609046936,444.5890142917633,444.59232997894287,444.6027846336365,444.75741028785706,444.75741028785706,444.75741028785706,444.75741028785706,444.75741028785706,444.75741028785706,444.75741028785706,448.28912258148193,1,3.684001922607422,None,,,,,,,,,,,,,,,,,,146,2,2025-02-27_13h25.47.488,comp,2024.2.4,57.42373150532644,2025-02-27 13h25.58.814294 -0500,
111,111,0,filler_square,None,None,None,None,None,None,None,None,None,None,2,1.9249231815338135,None,,,,,0,0,0,0,0,111,111,171,448.3060064315796,,,,,,,,,,,,,,,,,,,,,,,,,,,,,,,,,,,,,,,,,,,,,,,,,,,,,,,,,,,,,,,,,,,,,,,,,,,,,,,,,,65.18429053870172,58.06666344009022,72.87145872887365,72.87145872887365,67.18293409555818,59.761298512574314,3.0,3.2,-161,-286,0,11,162,260,448.2911171913147,448.29125356674194,448.2945053577423,448.3060064315796,448.45538330078125,448.45538330078125,448.45538330078125,448.45538330078125,448.45538330078125,448.45538330078125,448.45538330078125,450.2397413253784,2,1.9249231815338135,None,,,,,,,,,,,,,,,,,,146,2,2025-02-27_13h25.47.488,comp,2024.2.4,57.42373150532644,2025-02-27 13h25.58.814294 -0500,
112,112,0,critical,whd,35.0,2.1,lower,57.0,133.0,133.0,57.0,70.0,70.0,3,6.190897703170776,None,,,,,0,0,0,0,0,112,112,12,450.25541377067566,,,,,,,,,,,,,,,,,,,,,,,,,,,,,,,,,,,,,,,,,,,,,,,,,,,,,,,,,,,,,,,,,,,,,,,,,,,,,,,,,,57.0,133.0,133.0,57.0,70.0,70.0,2.1,2.11,-191,277,0,253,160,-279,450.24128317832947,450.2413673400879,450.2447738647461,450.25541377067566,450.4043571949005,450.4043571949005,450.4043571949005,450.4043571949005,450.4043571949005,450.4043571949005,450.4043571949005,456.45631074905396,3,6.190897703170776,None,,,,,,,,,,,,,,,,,,146,2,2025-02-27_13h25.47.488,comp,2024.2.4,57.42373150532644,2025-02-27 13h25.58.814294 -0500,
113,113,0,filler_random,None,None,None,None,None,None,None,None,None,None,1,2.9452438354492188,None,,,,,0,0,0,0,0,113,113,130,456.47688579559326,,,,,,,,,,,,,,,,,,,,,,,,,,,,,,,,,,,,,,,,,,,,,,,,,,,,,,,,,,,,,,,,,,,,,,,,,,,,,,,,,,134.6251113646234,196.65934513692753,95.86819614009417,63.997090915919834,90.63674779915563,123.34151282965856,2.1,2.12,-226,-280,0,-264,190,253,456.45800518989563,456.45809054374695,456.46124386787415,456.47688579559326,456.60984992980957,456.60984992980957,456.60984992980957,456.60984992980957,456.60984992980957,456.60984992980957,456.60984992980957,459.4351284503937,1,2.9452438354492188,None,,,,,,,,,,,,,,,,,,146,2,2025-02-27_13h25.47.488,comp,2024.2.4,57.42373150532644,2025-02-27 13h25.58.814294 -0500,
114,114,0,filler_square,None,None,None,None,None,None,None,None,None,None,1,1.438490629196167,None,,,,,0,0,0,0,0,114,114,198,459.45558881759644,,,,,,,,,,,,,,,,,,,,,,,,,,,,,,,,,,,,,,,,,,,,,,,,,,,,,,,,,,,,,,,,,,,,,,,,,,,,,,,,,,150.1726213659363,150.1726213659363,142.61436956666267,119.05343028017116,139.6717870717889,76.07584642359164,1.0,1.1,-711,288,-480,276,-286,258,459.43696093559265,459.4370415210724,459.43989634513855,459.45558881759644,459.5930771827698,459.5930771827698,459.5930771827698,459.5930771827698,459.5930771827698,459.5930771827698,459.5930771827698,460.90947246551514,1,1.438490629196167,None,,,,,,,,,,,,,,,,,,146,2,2025-02-27_13h25.47.488,comp,2024.2.4,57.42373150532644,2025-02-27 13h25.58.814294 -0500,
115,115,0,critical,dhw,35.0,2.1,upper,127.0,127.0,200.0,125.0,125.0,200.0,3,1.913008451461792,None,,,,,0,0,0,0,0,115,115,25,460.925785779953,,,,,,,,,,,,,,,,,,,,,,,,,,,,,,,,,,,,,,,,,,,,,,,,,,,,,,,,,,,,,,,,,,,,,,,,,,,,,,,,,,127.0,127.0,200.0,125.0,125.0,200.0,2.1,2.12,-222,-257,0,-256,258,262,460.91118454933167,460.9113185405731,460.914813041687,460.925785779953,461.07654786109924,461.07654786109924,461.07654786109924,461.07654786109924,461.07654786109924,461.07654786109924,461.07654786109924,462.84447407722473,3,1.913008451461792,None,,,,,,,,,,,,,,,,,,146,2,2025-02-27_13h25.47.488,comp,2024.2.4,57.42373150532644,2025-02-27 13h25.58.814294 -0500,
116,116,0,filler_random,None,None,None,None,None,None,None,None,None,None,1,1.4892606735229492,None,,,,,0,0,0,0,0,116,116,160,462.8610420227051,,,,,,,,,,,,,,,,,,,,,,,,,,,,,,,,,,,,,,,,,,,,,,,,,,,,,,,,,,,,,,,,,,,,,,,,,,,,,,,,,,182.436175743638,177.03852952069735,68.33953587011351,81.78633821798343,178.62840910068576,120.31933635570715,3.0,3.1,-225,278,0,13,197,-254,462.84623765945435,462.8463475704193,462.85035395622253,462.8610420227051,463.0100712776184,463.0100712776184,463.0100712776184,463.0100712776184,463.0100712776184,463.0100712776184,463.0100712776184,464.35482597351074,1,1.4892606735229492,None,,,,,,,,,,,,,,,,,,146,2,2025-02-27_13h25.47.488,comp,2024.2.4,57.42373150532644,2025-02-27 13h25.58.814294 -0500,
117,117,0,catch,None,None,None,None,None,None,None,None,None,None,2,3.740074396133423,None,,,,,0,0,0,0,0,117,117,121,464.3703775405884,,,,,,,,,,,,,,,,,,,,,,,,,,,,,,,,,,,,,,,,,,,,,,,,,,,,,,,,,,,,,,,,,,,,,,,,,,,,,,,,,,74,116,168,157,101,89,2.1,2.11,-232,264,0,266,219,-272,464.3566610813141,464.356737613678,464.3595151901245,464.3703775405884,464.5120656490326,464.5120656490326,464.5120656490326,464.5120656490326,464.5120656490326,464.5120656490326,464.5120656490326,468.127952337265,2,3.740074396133423,None,,,,,,,,,,,,,,,,,,146,2,2025-02-27_13h25.47.488,comp,2024.2.4,57.42373150532644,2025-02-27 13h25.58.814294 -0500,
118,118,0,critical,dwh,35.0,1.0,upper,127.0,127.0,125.0,200.0,200.0,125.0,2,2.511326313018799,None,,,,,0,0,0,0,0,118,118,61,468.14384055137634,,,,,,,,,,,,,,,,,,,,,,,,,,,,,,,,,,,,,,,,,,,,,,,,,,,,,,,,,,,,,,,,,,,,,,,,,,,,,,,,,,127.0,127.0,125.0,200.0,200.0,125.0,1.0,1.3,220,-286,480,-274,738,-252,468.12944650650024,468.1295220851898,468.1325147151947,468.14384055137634,468.29351902008057,468.29351902008057,468.29351902008057,468.29351902008057,468.29351902008057,468.29351902008057,468.29351902008057,470.66375970840454,2,2.511326313018799,None,,,,,,,,,,,,,,,,,,146,2,2025-02-27_13h25.47.488,comp,2024.2.4,57.42373150532644,2025-02-27 13h25.58.814294 -0500,
119,119,0,critical,wdh,35.0,1.0,lower,57.0,133.0,70.0,70.0,133.0,57.0,1,1.9272594451904297,None,,,,,0,0,0,0,0,119,119,72,470.67964029312134,,,,,,,,,,,,,,,,,,,,,,,,,,,,,,,,,,,,,,,,,,,,,,,,,,,,,,,,,,,,,,,,,,,,,,,,,,,,,,,,,,57.0,133.0,70.0,70.0,133.0,57.0,1.0,1.1,-678,251,-480,252,-320,258,470.66537165641785,470.6654722690582,470.66887378692627,470.67964029312134,470.82955145835876,470.82955145835876,470.82955145835876,470.82955145835876,470.82955145835876,470.82955145835876,470.82955145835876,472.6134715080261,1,1.9272594451904297,None,,,,,,,,,,,,,,,,,,146,2,2025-02-27_13h25.47.488,comp,2024.2.4,57.42373150532644,2025-02-27 13h25.58.814294 -0500,
120,120,0,critical,wdh,35.0,4.0,lower,57.0,133.0,70.0,70.0,133.0,57.0,1,2.470855712890625,None,,,,,0,0,0,0,0,120,120,76,472.6312487125397,,,,,,,,,,,,,,,,,,,,,,,,,,,,,,,,,,,,,,,,,,,,,,,,,,,,,,,,,,,,,,,,,,,,,,,,,,,,,,,,,,57.0,133.0,70.0,70.0,133.0,57.0,4.0,4.1,-198,-256,0,-3,160,-265,472.6150221824646,472.61509799957275,472.61824798583984,472.6312487125397,472.78081917762756,472.78081917762756,472.78081917762756,472.78081917762756,472.78081917762756,472.78081917762756,472.78081917762756,475.1123504638672,1,2.470855712890625,None,,,,,,,,,,,,,,,,,,146,2,2025-02-27_13h25.47.488,comp,2024.2.4,57.42373150532644,2025-02-27 13h25.58.814294 -0500,
121,121,0,filler_square,None,None,None,None,None,None,None,None,None,None,1,1.1894841194152832,None,,,,,0,0,0,0,0,121,121,176,475.12891268730164,,,,,,,,,,,,,,,,,,,,,,,,,,,,,,,,,,,,,,,,,,,,,,,,,,,,,,,,,,,,,,,,,,,,,,,,,,,,,,,,,,109.90552801034315,109.90552801034315,77.02037941467546,80.93293403561,60.51330931437321,72.81005419539915,2.2,2.21,-191,-275,0,285,173,277,475.11415696144104,475.114239692688,475.1171591281891,475.12891268730164,475.28297996520996,475.28297996520996,475.28297996520996,475.28297996520996,475.28297996520996,475.28297996520996,475.28297996520996,476.33000087738037,1,1.1894841194152832,None,,,,,,,,,,,,,,,,,,146,2,2025-02-27_13h25.47.488,comp,2024.2.4,57.42373150532644,2025-02-27 13h25.58.814294 -0500,
122,122,0,filler_square,None,None,None,None,None,None,None,None,None,None,1,1.3649978637695312,None,,,,,0,0,0,0,0,122,122,188,476.3457033634186,,,,,,,,,,,,,,,,,,,,,,,,,,,,,,,,,,,,,,,,,,,,,,,,,,,,,,,,,,,,,,,,,,,,,,,,,,,,,,,,,,180.37529089861005,180.37529089861005,91.81527342668684,71.030858138699,133.34523274232527,85.55608339509912,1.0,1.3,258,-256,480,-271,654,-280,476.33192801475525,476.3320064544678,476.33522748947144,476.3457033634186,476.50436067581177,476.50436067581177,476.50436067581177,476.50436067581177,476.50436067581177,476.50436067581177,476.50436067581177,477.717045545578,1,1.3649978637695312,None,,,,,,,,,,,,,,,,,,146,2,2025-02-27_13h25.47.488,comp,2024.2.4,57.42373150532644,2025-02-27 13h25.58.814294 -0500,
123,123,0,critical,wdh,20.0,2.1,upper,125.0,200.0,141.0,141.0,200.0,125.0,1,3.6338138580322266,None,,,,,0,0,0,0,0,123,123,11,477.7331385612488,,,,,,,,,,,,,,,,,,,,,,,,,,,,,,,,,,,,,,,,,,,,,,,,,,,,,,,,,,,,,,,,,,,,,,,,,,,,,,,,,,125.0,200.0,141.0,141.0,200.0,125.0,2.1,2.11,-266,278,0,262,229,-287,477.718861579895,477.71894121170044,477.7223823070526,477.7331385612488,477.88080978393555,477.88080978393555,477.88080978393555,477.88080978393555,477.88080978393555,477.88080978393555,477.88080978393555,481.38622188568115,1,3.6338138580322266,None,,,,,,,,,,,,,,,,,,146,2,2025-02-27_13h25.47.488,comp,2024.2.4,57.42373150532644,2025-02-27 13h25.58.814294 -0500,
124,124,0,critical,hdw,20.0,2.1,upper,200.0,125.0,141.0,141.0,125.0,200.0,3,2.175420045852661,None,,,,,0,0,0,0,0,124,124,47,481.4066925048828,,,,,,,,,,,,,,,,,,,,,,,,,,,,,,,,,,,,,,,,,,,,,,,,,,,,,,,,,,,,,,,,,,,,,,,,,,,,,,,,,,200.0,125.0,141.0,141.0,125.0,200.0,2.1,2.11,-229,268,0,277,266,-266,481.38792395591736,481.3880047798157,481.39123129844666,481.4066925048828,481.55221486091614,481.55221486091614,481.55221486091614,481.55221486091614,481.55221486091614,481.55221486091614,481.55221486091614,483.60188579559326,3,2.175420045852661,None,,,,,,,,,,,,,,,,,,146,2,2025-02-27_13h25.47.488,comp,2024.2.4,57.42373150532644,2025-02-27 13h25.58.814294 -0500,
125,125,0,filler_random,None,None,None,None,None,None,None,None,None,None,3,2.672719717025757,None,,,,,0,0,0,0,0,125,125,133,483.6218729019165,,,,,,,,,,,,,,,,,,,,,,,,,,,,,,,,,,,,,,,,,,,,,,,,,,,,,,,,,,,,,,,,,,,,,,,,,,,,,,,,,,168.27065140215922,147.1878054804626,141.35559290197858,59.78957451741977,198.02950989502114,158.52190607989064,2.2,2.21,-199,-258,0,272,205,286,483.6036546230316,483.60373091697693,483.6066873073578,483.6218729019165,483.7666597366333,483.7666597366333,483.7666597366333,483.7666597366333,483.7666597366333,483.7666597366333,483.7666597366333,486.30242824554443,3,2.672719717025757,None,,,,,,,,,,,,,,,,,,146,2,2025-02-27_13h25.47.488,comp,2024.2.4,57.42373150532644,2025-02-27 13h25.58.814294 -0500,
126,126,0,filler_square,None,None,None,None,None,None,None,None,None,None,2,2.610034227371216,None,,,,,0,0,0,0,0,126,126,190,486.31847047805786,,,,,,,,,,,,,,,,,,,,,,,,,,,,,,,,,,,,,,,,,,,,,,,,,,,,,,,,,,,,,,,,,,,,,,,,,,,,,,,,,,69.08545558135852,83.69892598526874,93.69291515872669,93.69291515872669,76.70053959003481,84.66115546089888,3.0,3.2,-185,-261,0,-12,185,259,486.30429673194885,486.3044168949127,486.30767703056335,486.31847047805786,486.46897077560425,486.46897077560425,486.46897077560425,486.46897077560425,486.46897077560425,486.46897077560425,486.46897077560425,488.93738532066345,2,2.610034227371216,None,,,,,,,,,,,,,,,,,,146,2,2025-02-27_13h25.47.488,comp,2024.2.4,57.42373150532644,2025-02-27 13h25.58.814294 -0500,
127,127,0,critical,hdw,35.0,3.0,upper,200.0,125.0,127.0,127.0,125.0,200.0,3,2.419750690460205,None,,,,,0,0,0,0,0,127,127,111,488.955237865448,,,,,,,,,,,,,,,,,,,,,,,,,,,,,,,,,,,,,,,,,,,,,,,,,,,,,,,,,,,,,,,,,,,,,,,,,,,,,,,,,,200.0,125.0,127.0,127.0,125.0,200.0,3.0,3.2,-222,-277,0,12,260,252,488.93901348114014,488.93909525871277,488.9421408176422,488.955237865448,489.10499715805054,489.10499715805054,489.10499715805054,489.10499715805054,489.10499715805054,489.10499715805054,489.10499715805054,491.384804725647,3,2.419750690460205,None,,,,,,,,,,,,,,,,,,146,2,2025-02-27_13h25.47.488,comp,2024.2.4,57.42373150532644,2025-02-27 13h25.58.814294 -0500,
128,128,0,critical,dhw,20.0,1.0,lower,78.0,78.0,133.0,57.0,57.0,133.0,3,5.734853506088257,None,,,,,0,0,0,0,0,128,128,54,491.41529655456543,,,,,,,,,,,,,,,,,,,,,,,,,,,,,,,,,,,,,,,,,,,,,,,,,,,,,,,,,,,,,,,,,,,,,,,,,,,,,,,,,,78.0,78.0,133.0,57.0,57.0,133.0,1.0,1.2,-164,8,0,13,191,19,491.38630962371826,491.38639402389526,491.38923835754395,491.41529655456543,491.55433893203735,491.55433893203735,491.55433893203735,491.55433893203735,491.55433893203735,491.55433893203735,491.55433893203735,497.1632180213928,3,5.734853506088257,None,,,,,,,,,,,,,,,,,,146,2,2025-02-27_13h25.47.488,comp,2024.2.4,57.42373150532644,2025-02-27 13h25.58.814294 -0500,
129,129,0,filler_random,None,None,None,None,None,None,None,None,None,None,3,1.0325093269348145,None,,,,,0,0,0,0,0,129,129,142,497.1823182106018,,,,,,,,,,,,,,,,,,,,,,,,,,,,,,,,,,,,,,,,,,,,,,,,,,,,,,,,,,,,,,,,,,,,,,,,,,,,,,,,,,84.09669368446595,169.6790050919511,74.10192776141228,96.63666997570066,180.12360161821204,154.56508358651286,2.1,2.12,-229,-258,0,-290,222,265,497.1649932861328,497.1651153564453,497.1684024333954,497.1823182106018,497.32284808158875,497.32284808158875,497.32284808158875,497.32284808158875,497.32284808158875,497.32284808158875,497.32284808158875,498.2212255001068,3,1.0325093269348145,None,,,,,,,,,,,,,,,,,,146,2,2025-02-27_13h25.47.488,comp,2024.2.4,57.42373150532644,2025-02-27 13h25.58.814294 -0500,
130,130,0,critical,hwd,35.0,2.1,upper,200.0,125.0,125.0,200.0,127.0,127.0,2,2.8244760036468506,None,,,,,0,0,0,0,0,130,130,17,498.237685918808,,,,,,,,,,,,,,,,,,,,,,,,,,,,,,,,,,,,,,,,,,,,,,,,,,,,,,,,,,,,,,,,,,,,,,,,,,,,,,,,,,200.0,125.0,125.0,200.0,127.0,127.0,2.1,2.11,-258,272,0,274,260,-252,498.22277450561523,498.2228503227234,498.2260308265686,498.237685918808,498.3891475200653,498.3891475200653,498.3891475200653,498.3891475200653,498.3891475200653,498.3891475200653,498.3891475200653,501.080598115921,2,2.8244760036468506,None,,,,,,,,,,,,,,,,,,146,2,2025-02-27_13h25.47.488,comp,2024.2.4,57.42373150532644,2025-02-27 13h25.58.814294 -0500,
131,131,0,critical,wdh,20.0,2.1,lower,57.0,133.0,78.0,78.0,133.0,57.0,1,2.244584798812866,None,,,,,0,0,0,0,0,131,131,10,501.09765219688416,,,,,,,,,,,,,,,,,,,,,,,,,,,,,,,,,,,,,,,,,,,,,,,,,,,,,,,,,,,,,,,,,,,,,,,,,,,,,,,,,,57.0,133.0,78.0,78.0,133.0,57.0,2.1,2.11,-202,258,0,258,164,-277,501.0820882320404,501.0821650028229,501.0850307941437,501.09765219688416,501.23765540122986,501.23765540122986,501.23765540122986,501.23765540122986,501.23765540122986,501.23765540122986,501.23765540122986,503.3555054664612,1,2.244584798812866,None,,,,,,,,,,,,,,,,,,146,2,2025-02-27_13h25.47.488,comp,2024.2.4,57.42373150532644,2025-02-27 13h25.58.814294 -0500,
132,132,0,critical,wdh,35.0,3.0,upper,125.0,200.0,127.0,127.0,200.0,125.0,1,3.4750211238861084,None,,,,,0,0,0,0,0,132,132,75,503.3713140487671,,,,,,,,,,,,,,,,,,,,,,,,,,,,,,,,,,,,,,,,,,,,,,,,,,,,,,,,,,,,,,,,,,,,,,,,,,,,,,,,,,125.0,200.0,127.0,127.0,200.0,125.0,3.0,3.1,-260,254,0,14,222,-288,503.3570418357849,503.3571193218231,503.36016845703125,503.3713140487671,503.5223534107208,503.5223534107208,503.5223534107208,503.5223534107208,503.5223534107208,503.5223534107208,503.5223534107208,506.85933542251587,1,3.4750211238861084,None,,,,,,,,,,,,,,,,,,146,2,2025-02-27_13h25.47.488,comp,2024.2.4,57.42373150532644,2025-02-27 13h25.58.814294 -0500,
133,133,0,filler_square,None,None,None,None,None,None,None,None,None,None,1,1.7148199081420898,None,,,,,0,0,0,0,0,133,133,180,506.87549448013306,,,,,,,,,,,,,,,,,,,,,,,,,,,,,,,,,,,,,,,,,,,,,,,,,,,,,,,,,,,,,,,,,,,,,,,,,,,,,,,,,,168.0771726922953,168.0771726922953,67.73162798009946,130.30323258004398,150.5240447072621,81.65527626917212,3.0,3.2,-245,-265,0,-6,202,269,506.86153960227966,506.86162281036377,506.8652400970459,506.87549448013306,507.0239408016205,507.0239408016205,507.0239408016205,507.0239408016205,507.0239408016205,507.0239408016205,507.0239408016205,508.5960192680359,1,1.7148199081420898,None,,,,,,,,,,,,,,,,,,146,2,2025-02-27_13h25.47.488,comp,2024.2.4,57.42373150532644,2025-02-27 13h25.58.814294 -0500,
134,134,0,critical,hdw,20.0,3.0,upper,200.0,125.0,141.0,141.0,125.0,200.0,3,3.5097222328186035,None,,,,,0,0,0,0,0,134,134,117,508.6165204048157,,,,,,,,,,,,,,,,,,,,,,,,,,,,,,,,,,,,,,,,,,,,,,,,,,,,,,,,,,,,,,,,,,,,,,,,,,,,,,,,,,200.0,125.0,141.0,141.0,125.0,200.0,3.0,3.2,-229,-272,0,17,266,252,508.5975685119629,508.5976490974426,508.6009192466736,508.6165204048157,508.75783371925354,508.75783371925354,508.75783371925354,508.75783371925354,508.75783371925354,508.75783371925354,508.75783371925354,512.1419689655304,3,3.5097222328186035,None,,,,,,,,,,,,,,,,,,146,2,2025-02-27_13h25.47.488,comp,2024.2.4,57.42373150532644,2025-02-27 13h25.58.814294 -0500,
135,135,0,critical,dwh,20.0,2.1,lower,78.0,78.0,57.0,133.0,133.0,57.0,2,10.316866874694824,None,,,,,0,0,0,0,0,135,135,30,512.16166472435,,,,,,,,,,,,,,,,,,,,,,,,,,,,,,,,,,,,,,,,,,,,,,,,,,,,,,,,,,,,,,,,,,,,,,,,,,,,,,,,,,78.0,78.0,57.0,133.0,133.0,57.0,2.1,2.11,-202,280,0,257,191,-289,512.1434772014618,512.1435508728027,512.1467130184174,512.16166472435,512.3088703155518,512.3088703155518,512.3088703155518,512.3088703155518,512.3088703155518,512.3088703155518,512.3088703155518,522.4929001331329,2,10.316866874694824,None,,,,,,,,,,,,,,,,,,146,2,2025-02-27_13h25.47.488,comp,2024.2.4,57.42373150532644,2025-02-27 13h25.58.814294 -0500,
136,136,0,critical,hdw,20.0,2.1,lower,133.0,57.0,78.0,78.0,57.0,133.0,2,3.3847830295562744,None,,,,,0,0,0,0,0,136,136,22,522.5096464157104,,,,,,,,,,,,,,,,,,,,,,,,,,,,,,,,,,,,,,,,,,,,,,,,,,,,,,,,,,,,,,,,,,,,,,,,,,,,,,,,,,133.0,57.0,78.0,78.0,57.0,133.0,2.1,2.12,-164,-253,0,-283,202,253,522.4944031238556,522.4944777488708,522.497376203537,522.5096464157104,522.6644921302795,522.6644921302795,522.6644921302795,522.6644921302795,522.6644921302795,522.6644921302795,522.6644921302795,525.8986077308655,2,3.3847830295562744,None,,,,,,,,,,,,,,,,,,146,2,2025-02-27_13h25.47.488,comp,2024.2.4,57.42373150532644,2025-02-27 13h25.58.814294 -0500,
137,137,0,filler_random,None,None,None,None,None,None,None,None,None,None,1,3.4743053913116455,None,,,,,0,0,0,0,0,137,137,168,525.9167873859406,,,,,,,,,,,,,,,,,,,,,,,,,,,,,,,,,,,,,,,,,,,,,,,,,,,,,,,,,,,,,,,,,,,,,,,,,,,,,,,,,,171.54552884179748,168.46611615579837,143.22635604341235,151.40713515594467,152.07171959700537,145.19384156742797,2.1,2.11,-256,269,0,258,244,-288,525.9004039764404,525.9005243778229,525.903698682785,525.9167873859406,526.0636496543884,526.0636496543884,526.0636496543884,526.0636496543884,526.0636496543884,526.0636496543884,526.0636496543884,529.3985688686371,1,3.4743053913116455,None,,,,,,,,,,,,,,,,,,146,2,2025-02-27_13h25.47.488,comp,2024.2.4,57.42373150532644,2025-02-27 13h25.58.814294 -0500,
138,138,0,critical,dhw,20.0,2.1,lower,78.0,78.0,133.0,57.0,57.0,133.0,3,3.6479978561401367,None,,,,,0,0,0,0,0,138,138,26,529.4141714572906,,,,,,,,,,,,,,,,,,,,,,,,,,,,,,,,,,,,,,,,,,,,,,,,,,,,,,,,,,,,,,,,,,,,,,,,,,,,,,,,,,78.0,78.0,133.0,57.0,57.0,133.0,2.1,2.11,-164,281,0,266,191,-285,529.4000849723816,529.4001610279083,529.4035201072693,529.4141714572906,529.5721867084503,529.5721867084503,529.5721867084503,529.5721867084503,529.5721867084503,529.5721867084503,529.5721867084503,533.0664942264557,3,3.6479978561401367,None,,,,,,,,,,,,,,,,,,146,2,2025-02-27_13h25.47.488,comp,2024.2.4,57.42373150532644,2025-02-27 13h25.58.814294 -0500,
139,139,0,filler_random,None,None,None,None,None,None,None,None,None,None,3,1.2124226093292236,None,,,,,0,0,0,0,0,139,139,150,533.0822939872742,,,,,,,,,,,,,,,,,,,,,,,,,,,,,,,,,,,,,,,,,,,,,,,,,,,,,,,,,,,,,,,,,,,,,,,,,,,,,,,,,,67.79156668703355,178.67140678716353,71.23286201557165,123.0784663700279,178.48903574380614,172.06112582076435,2.2,2.22,-247,277,0,-271,244,-290,533.068234205246,533.0683414936066,533.0716269016266,533.0822939872742,533.2316567897797,533.2316567897797,533.2316567897797,533.2316567897797,533.2316567897797,533.2316567897797,533.2316567897797,534.2995131015778,3,1.2124226093292236,None,,,,,,,,,,,,,,,,,,146,2,2025-02-27_13h25.47.488,comp,2024.2.4,57.42373150532644,2025-02-27 13h25.58.814294 -0500,
