thisN,thisTrialN,thisRepN,effect,order,distance,config,diag,h_1,w_1,h_2,w_2,h_3,w_3,rect_choice.keys,rect_choice.rt,rect_choice.duration,instructions_loop.thisRepN,instructions_loop.thisTrialN,instructions_loop.thisN,instructions_loop.thisIndex,blocks.thisRepN,blocks.thisTrialN,blocks.thisN,blocks.thisIndex,trials.thisRepN,trials.thisTrialN,trials.thisN,trials.thisIndex,thisRow.t,notes,consent.started,agree_button.started,decline_button.started,consent_img.started,mouse.started,consent.stopped,agree_button.numClicks,agree_button.timesOn,agree_button.timesOff,decline_button.numClicks,decline_button.timesOn,decline_button.timesOff,mouse.x,mouse.y,mouse.leftButton,mouse.midButton,mouse.rightButton,mouse.time,mouse.clicked_name,exp_params.started,exp_params.stopped,welcome.started,welcome_text.started,welcome.stopped,instructions_1.started,instructions_1_text_1.started,instructions_1_text_2.started,key_resp.started,instructions_1.stopped,instructions_loop.key_resp.keys,instructions_loop.key_resp.rt,instructions_loop.key_resp.duration,instructions_2.started,instructions_2_text_1.started,instructions_2_text_2.started,key_resp_2.started,instructions_2.stopped,instructions_loop.key_resp_2.keys,instructions_loop.key_resp_2.rt,instructions_loop.key_resp_2.duration,instructions_3.started,instructions_3_text_1.started,r1_instr3.started,r2_instr3.started,r3_instr3.started,r1_instr3_label.started,r2_instr3_label.started,r3_instr3_label.started,instructions_3_text_3.started,instructions_3_text_4.started,key_resp_3.started,instructions_3.stopped,instructions_loop.key_resp_3.keys,instructions_loop.key_resp_3.rt,instructions_loop.key_resp_3.duration,instructions_4.started,instructions_4_text_1.started,instructions_4_text_3.started,instructions_4_text_2.started,key_resp_4.started,instructions_4.stopped,instructions_loop.key_resp_4.keys,instructions_loop.key_resp_4.rt,instructions_loop.key_resp_4.duration,instructions_5.started,instructions_5_text_1.started,instructions_5_text_2.started,key_resp_5.started,instructions_5.stopped,instructions_loop.key_resp_5.keys,instructions_loop.key_resp_5.rt,instructions_loop.key_resp_5.duration,start_exp.started,start_exp_text.started,key_resp_6.started,start_exp.stopped,key_resp_6.keys,key_resp_6.rt,key_resp_6.duration,h_1_tmp,w_1_tmp,h_2_tmp,w_2_tmp,h_3_tmp,w_3_tmp,config_tmp,config_tmp_1,r_1_x,r_1_y,r_2_x,r_2_y,r_3_x,r_3_y,pre_trial.started,pre_trial.stopped,choice_trial.started,rect_choice.started,r_1.started,r_2.started,r_3.started,r_1_label.started,r_2_label.started,r_3_label.started,prompt.started,choice_trial.stopped,trials.rect_choice.keys,trials.rect_choice.rt,trials.rect_choice.duration,end_block.started,end_block_text.started,end_block.stopped,end.started,end_text.started,key_resp_7.started,end.stopped,key_resp_7.keys,key_resp_7.rt,key_resp_7.duration,debriefing.started,debrief_form.started,end_debrief.started,debriefing.stopped,end_debrief.keys,end_debrief.rt,end_debrief.duration,participant,computer,date,expName,psychopyVersion,frameRate,expStart,
,,,,,,,,,,,,,,,,,,,,,,,,,,,,,,,0.014641284942626953,0.034538984298706055,0.034538984298706055,0.034538984298706055,0.014449119567871094,14.93099308013916,1,[14.894019365310669],[14.894038677215576],0,,,[-57.0],[-517.0],[1],[0],[0],[14.915786266326904],['agree_button'],,,,,,,,,,,,,,,,,,,,,,,,,,,,,,,,,,,,,,,,,,,,,,,,,,,,,,,,,,,,,,,,,,,,,,,,,,,,,,,,,,,,,,,,,,,,,,,,,,,,,,,,,,,147,4,2025-02-27_13h27.26.993,comp,2024.2.4,55.09990567748004,2025-02-27 13h27.44.524215 -0500,
,,,,,,,,,,,,,,,,,,,,,,,,,,,,,,,,,,,,,,,,,,,,,,,,,,14.931453704833984,14.93151307106018,,,,,,,,,,,,,,,,,,,,,,,,,,,,,,,,,,,,,,,,,,,,,,,,,,,,,,,,,,,,,,,,,,,,,,,,,,,,,,,,,,,,,,,,,,,,,,,,,,,,,,,,,147,4,2025-02-27_13h27.26.993,comp,2024.2.4,55.09990567748004,2025-02-27 13h27.44.524215 -0500,
,,,,,,,,,,,,,,,,,,,,,,,,,,,,,,,,,,,,,,,,,,,,,,,,,,,,14.931551218032837,14.946629762649536,16.93933391571045,,,,,,,,,,,,,,,,,,,,,,,,,,,,,,,,,,,,,,,,,,,,,,,,,,,,,,,,,,,,,,,,,,,,,,,,,,,,,,,,,,,,,,,,,,,,,,,,,,,,,,147,4,2025-02-27_13h27.26.993,comp,2024.2.4,55.09990567748004,2025-02-27 13h27.44.524215 -0500,
0,0,0,,,,,,,,,,,,,,,0,0,0,0,,,,,,,,,16.95591402053833,,,,,,,,,,,,,,,,,,,,,,,,,,16.94024896621704,16.95591402053833,16.95591402053833,18.43819236755371,21.87571883201599,space,3.4279186725616455,None,21.875889778137207,21.892937421798706,21.892937421798706,23.39087200164795,43.22965621948242,space,19.826632022857666,None,43.229840993881226,43.259594440460205,43.259594440460205,43.259594440460205,43.259594440460205,43.259594440460205,43.259594440460205,43.259594440460205,43.259594440460205,43.259594440460205,44.732152700424194,47.57053327560425,space,2.8214845657348633,None,47.57069802284241,47.59305953979492,47.59305953979492,47.59305953979492,49.08294725418091,54.58559584617615,space,5.486583709716797,None,54.585787534713745,54.6006224155426,54.6006224155426,56.10324764251709,56.63407373428345,space,0.5142643451690674,None,56.63428974151611,56.64852476119995,56.64852476119995,57.52190136909485,space,0.8655693531036377,None,,,,,,,,,,,,,,,,,,,,,,,,,,,,,,,,,,,,,,,,,,,,,,,147,4,2025-02-27_13h27.26.993,comp,2024.2.4,55.09990567748004,2025-02-27 13h27.44.524215 -0500,
0,0,0,filler_square,None,None,None,None,None,None,None,None,None,None,3,2.631413698196411,None,,,,,0,0,0,0,0,0,0,171,57.60318040847778,,,,,,,,,,,,,,,,,,,,,,,,,,,,,,,,,,,,,,,,,,,,,,,,,,,,,,,,,,,,,,,,,,,,,,,,,,,,,,,,,117.42952927572324,88.88383000120682,125.17229511515343,92.97827155837854,161.82970254819213,161.82970254819213,1.0,1.1,-667,277,-480,285,-257,285,57.58602261543274,57.58607244491577,57.58785939216614,57.60318040847778,57.76190495491028,57.76190495491028,57.76190495491028,57.76190495491028,57.76190495491028,57.76190495491028,57.76190495491028,60.24215602874756,3,2.631413698196411,None,,,,,,,,,,,,,,,,,,147,4,2025-02-27_13h27.26.993,comp,2024.2.4,55.09990567748004,2025-02-27 13h27.44.524215 -0500,
1,1,0,filler_square,None,None,None,None,None,None,None,None,None,None,1,1.751357078552246,None,,,,,0,0,0,0,0,1,1,201,60.25872492790222,,,,,,,,,,,,,,,,,,,,,,,,,,,,,,,,,,,,,,,,,,,,,,,,,,,,,,,,,,,,,,,,,,,,,,,,,,,,,,,,,140.76887166871148,140.76887166871148,71.3110108864133,107.05517063488793,122.79320911572273,118.1719413726828,2.1,2.12,-220,-270,0,-256,209,254,60.243950843811035,60.24402856826782,60.24712800979614,60.25872492790222,60.40306901931763,60.40306901931763,60.40306901931763,60.40306901931763,60.40306901931763,60.40306901931763,60.40306901931763,62.027541637420654,1,1.751357078552246,None,,,,,,,,,,,,,,,,,,147,4,2025-02-27_13h27.26.993,comp,2024.2.4,55.09990567748004,2025-02-27 13h27.44.524215 -0500,
2,2,0,filler_random,None,None,None,None,None,None,None,None,None,None,3,1.042431116104126,None,,,,,0,0,0,0,0,2,2,155,62.047104597091675,,,,,,,,,,,,,,,,,,,,,,,,,,,,,,,,,,,,,,,,,,,,,,,,,,,,,,,,,,,,,,,,,,,,,,,,,,,,,,,,,74.84033063125564,70.6470390672624,114.33708966461961,94.72647926484426,95.57580532723537,162.2418101382338,2.1,2.11,-179,250,0,262,224,-286,62.02926802635193,62.02934193611145,62.03239560127258,62.047104597091675,62.18790030479431,62.18790030479431,62.18790030479431,62.18790030479431,62.18790030479431,62.18790030479431,62.18790030479431,63.104881286621094,3,1.042431116104126,None,,,,,,,,,,,,,,,,,,147,4,2025-02-27_13h27.26.993,comp,2024.2.4,55.09990567748004,2025-02-27 13h27.44.524215 -0500,
3,3,0,critical,hwd,35.0,2.1,lower,133.0,57.0,57.0,133.0,70.0,70.0,1,5.072727680206299,None,,,,,0,0,0,0,0,3,3,16,63.120973110198975,,,,,,,,,,,,,,,,,,,,,,,,,,,,,,,,,,,,,,,,,,,,,,,,,,,,,,,,,,,,,,,,,,,,,,,,,,,,,,,,,133.0,57.0,57.0,133.0,70.0,70.0,2.1,2.11,-191,281,0,287,198,-288,63.106464862823486,63.10654354095459,63.1106972694397,63.120973110198975,63.26119589805603,63.26119589805603,63.26119589805603,63.26119589805603,63.26119589805603,63.26119589805603,63.26119589805603,68.20596122741699,1,5.072727680206299,None,,,,,,,,,,,,,,,,,,147,4,2025-02-27_13h27.26.993,comp,2024.2.4,55.09990567748004,2025-02-27 13h27.44.524215 -0500,
4,4,0,filler_random,None,None,None,None,None,None,None,None,None,None,3,2.8269476890563965,None,,,,,0,0,0,0,0,4,4,157,68.22260761260986,,,,,,,,,,,,,,,,,,,,,,,,,,,,,,,,,,,,,,,,,,,,,,,,,,,,,,,,,,,,,,,,,,,,,,,,,,,,,,,,,122.31756645397431,93.81633535019614,171.3512150805173,60.4625213478819,188.80718373602173,174.31483908300135,2.2,2.22,-173,266,0,-259,213,-254,68.20788478851318,68.20798325538635,68.21137881278992,68.22260761260986,68.37577795982361,68.37577795982361,68.37577795982361,68.37577795982361,68.37577795982361,68.37577795982361,68.37577795982361,71.06354761123657,3,2.8269476890563965,None,,,,,,,,,,,,,,,,,,147,4,2025-02-27_13h27.26.993,comp,2024.2.4,55.09990567748004,2025-02-27 13h27.44.524215 -0500,
5,5,0,filler_square,None,None,None,None,None,None,None,None,None,None,2,1.1416049003601074,None,,,,,0,0,0,0,0,5,5,194,71.08416771888733,,,,,,,,,,,,,,,,,,,,,,,,,,,,,,,,,,,,,,,,,,,,,,,,,,,,,,,,,,,,,,,,,,,,,,,,,,,,,,,,,103.62435851135189,112.09519739630396,180.30552498946372,180.30552498946372,134.8406509611334,65.66199817673485,3.0,3.2,-242,-257,0,8,219,263,71.06534218788147,71.06541800498962,71.06843996047974,71.08416771888733,71.22433972358704,71.22433972358704,71.22433972358704,71.22433972358704,71.22433972358704,71.22433972358704,71.22433972358704,72.2441656589508,2,1.1416049003601074,None,,,,,,,,,,,,,,,,,,147,4,2025-02-27_13h27.26.993,comp,2024.2.4,55.09990567748004,2025-02-27 13h27.44.524215 -0500,
6,6,0,filler_random,None,None,None,None,None,None,None,None,None,None,2,1.2701945304870605,None,,,,,0,0,0,0,0,6,6,141,72.25960946083069,,,,,,,,,,,,,,,,,,,,,,,,,,,,,,,,,,,,,,,,,,,,,,,,,,,,,,,,,,,,,,,,,,,,,,,,,,,,,,,,,64.56429399024157,68.76607614734606,130.96616856055977,168.9521549467861,126.72121253044477,116.34931998589212,1.0,1.3,265,-284,480,-290,719,-255,72.24625897407532,72.24633693695068,72.24938797950745,72.25960946083069,72.4078221321106,72.4078221321106,72.4078221321106,72.4078221321106,72.4078221321106,72.4078221321106,72.4078221321106,73.54615712165833,2,1.2701945304870605,None,,,,,,,,,,,,,,,,,,147,4,2025-02-27_13h27.26.993,comp,2024.2.4,55.09990567748004,2025-02-27 13h27.44.524215 -0500,
7,7,0,filler_random,None,None,None,None,None,None,None,None,None,None,1,9.238821029663086,None,,,,,0,0,0,0,0,7,7,160,73.56278014183044,,,,,,,,,,,,,,,,,,,,,,,,,,,,,,,,,,,,,,,,,,,,,,,,,,,,,,,,,,,,,,,,,,,,,,,,,,,,,,,,,165.1562641118024,149.63310625040623,188.18283743435052,89.80576695865383,73.04833831040243,157.44528571297394,1.0,1.2,-216,-1,0,-17,220,5,73.54799342155457,73.54811787605286,73.5514349937439,73.56278014183044,73.70787644386292,73.70787644386292,73.70787644386292,73.70787644386292,73.70787644386292,73.70787644386292,73.70787644386292,82.8035831451416,1,9.238821029663086,None,,,,,,,,,,,,,,,,,,147,4,2025-02-27_13h27.26.993,comp,2024.2.4,55.09990567748004,2025-02-27 13h27.44.524215 -0500,
8,8,0,critical,hdw,35.0,2.1,lower,133.0,57.0,70.0,70.0,57.0,133.0,1,9.898486614227295,None,,,,,0,0,0,0,0,8,8,44,82.8231749534607,,,,,,,,,,,,,,,,,,,,,,,,,,,,,,,,,,,,,,,,,,,,,,,,,,,,,,,,,,,,,,,,,,,,,,,,,,,,,,,,,133.0,57.0,70.0,70.0,57.0,133.0,2.1,2.11,-160,288,0,288,198,-284,82.80515909194946,82.80523610115051,82.8082263469696,82.8231749534607,82.96670889854431,82.96670889854431,82.96670889854431,82.96670889854431,82.96670889854431,82.96670889854431,82.96670889854431,92.73816514015198,1,9.898486614227295,None,,,,,,,,,,,,,,,,,,147,4,2025-02-27_13h27.26.993,comp,2024.2.4,55.09990567748004,2025-02-27 13h27.44.524215 -0500,
9,9,0,catch,None,None,None,None,None,None,None,None,None,None,3,1.1377522945404053,None,,,,,0,0,0,0,0,9,9,127,92.7535707950592,,,,,,,,,,,,,,,,,,,,,,,,,,,,,,,,,,,,,,,,,,,,,,,,,,,,,,,,,,,,,,,,,,,,,,,,,,,,,,,,,109,81,98,92,132,193,2.1,2.12,-182,-272,0,-281,238,275,92.74011635780334,92.74019193649292,92.74317669868469,92.7535707950592,92.89737892150879,92.89737892150879,92.89737892150879,92.89737892150879,92.89737892150879,92.89737892150879,92.89737892150879,93.89778447151184,3,1.1377522945404053,None,,,,,,,,,,,,,,,,,,147,4,2025-02-27_13h27.26.993,comp,2024.2.4,55.09990567748004,2025-02-27 13h27.44.524215 -0500,
10,10,0,filler_random,None,None,None,None,None,None,None,None,None,None,1,2.1905462741851807,None,,,,,0,0,0,0,0,10,10,144,93.91781687736511,,,,,,,,,,,,,,,,,,,,,,,,,,,,,,,,,,,,,,,,,,,,,,,,,,,,,,,,,,,,,,,,,,,,,,,,,,,,,,,,,191.0556654758136,160.18269706813808,191.3620338578538,136.90938139285004,137.53357283563037,57.88947258489495,4.0,4.2,-245,1,0,-284,193,-14,93.89948415756226,93.89956259727478,93.90273070335388,93.91781687736511,94.06450748443604,94.06450748443604,94.06450748443604,94.06450748443604,94.06450748443604,94.06450748443604,94.06450748443604,96.11482834815979,1,2.1905462741851807,None,,,,,,,,,,,,,,,,,,147,4,2025-02-27_13h27.26.993,comp,2024.2.4,55.09990567748004,2025-02-27 13h27.44.524215 -0500,
11,11,0,catch,None,None,None,None,None,None,None,None,None,None,3,1.750070571899414,None,,,,,0,0,0,0,0,11,11,121,96.13158226013184,,,,,,,,,,,,,,,,,,,,,,,,,,,,,,,,,,,,,,,,,,,,,,,,,,,,,,,,,,,,,,,,,,,,,,,,,,,,,,,,,75,115,84,106,135,190,2.1,2.11,-206,275,0,287,244,-254,96.11670184135437,96.11680459976196,96.12005662918091,96.13158226013184,96.28426098823547,96.28426098823547,96.28426098823547,96.28426098823547,96.28426098823547,96.28426098823547,96.28426098823547,97.88805055618286,3,1.750070571899414,None,,,,,,,,,,,,,,,,,,147,4,2025-02-27_13h27.26.993,comp,2024.2.4,55.09990567748004,2025-02-27 13h27.44.524215 -0500,
12,12,0,critical,wdh,35.0,4.0,upper,125.0,200.0,127.0,127.0,200.0,125.0,3,16.45275855064392,None,,,,,0,0,0,0,0,12,12,77,97.90890264511108,,,,,,,,,,,,,,,,,,,,,,,,,,,,,,,,,,,,,,,,,,,,,,,,,,,,,,,,,,,,,,,,,,,,,,,,,,,,,,,,,125.0,200.0,127.0,127.0,200.0,125.0,4.0,4.2,-260,-19,0,-273,222,-12,97.88959622383118,97.88967180252075,97.89314937591553,97.90890264511108,98.05017066001892,98.05017066001892,98.05017066001892,98.05017066001892,98.05017066001892,98.05017066001892,98.05017066001892,114.36386179924011,3,16.45275855064392,None,,,,,,,,,,,,,,,,,,147,4,2025-02-27_13h27.26.993,comp,2024.2.4,55.09990567748004,2025-02-27 13h27.44.524215 -0500,
13,13,0,critical,dwh,35.0,2.1,lower,70.0,70.0,57.0,133.0,133.0,57.0,2,31.763840436935425,None,,,,,0,0,0,0,0,13,13,28,114.38235640525818,,,,,,,,,,,,,,,,,,,,,,,,,,,,,,,,,,,,,,,,,,,,,,,,,,,,,,,,,,,,,,,,,,,,,,,,,,,,,,,,,70.0,70.0,57.0,133.0,133.0,57.0,2.1,2.12,-198,-282,0,-280,191,251,114.36561417579651,114.36576771736145,114.36920952796936,114.38235640525818,114.52150750160217,114.52150750160217,114.52150750160217,114.52150750160217,114.52150750160217,114.52150750160217,114.52150750160217,146.14877939224243,2,31.763840436935425,None,,,,,,,,,,,,,,,,,,147,4,2025-02-27_13h27.26.993,comp,2024.2.4,55.09990567748004,2025-02-27 13h27.44.524215 -0500,
14,14,0,filler_square,None,None,None,None,None,None,None,None,None,None,1,3.3557991981506348,None,,,,,0,0,0,0,0,14,14,190,146.1657235622406,,,,,,,,,,,,,,,,,,,,,,,,,,,,,,,,,,,,,,,,,,,,,,,,,,,,,,,,,,,,,,,,,,,,,,,,,,,,,,,,,122.99346963565924,122.99346963565924,73.38467509840223,82.28584502130552,92.11569293541243,113.98939560505949,2.2,2.22,-199,289,0,-283,194,-280,146.1509153842926,146.1510524749756,146.15483331680298,146.1657235622406,146.31252789497375,146.31252789497375,146.31252789497375,146.31252789497375,146.31252789497375,146.31252789497375,146.31252789497375,149.5416305065155,1,3.3557991981506348,None,,,,,,,,,,,,,,,,,,147,4,2025-02-27_13h27.26.993,comp,2024.2.4,55.09990567748004,2025-02-27 13h27.44.524215 -0500,
15,15,0,critical,wdh,20.0,2.1,upper,125.0,200.0,141.0,141.0,200.0,125.0,1,2.624911308288574,None,,,,,0,0,0,0,0,15,15,35,149.56077790260315,,,,,,,,,,,,,,,,,,,,,,,,,,,,,,,,,,,,,,,,,,,,,,,,,,,,,,,,,,,,,,,,,,,,,,,,,,,,,,,,,125.0,200.0,141.0,141.0,200.0,125.0,2.1,2.12,-266,-262,0,-275,229,280,149.54332661628723,149.5434582233429,149.54717874526978,149.56077790260315,149.7001326084137,149.7001326084137,149.7001326084137,149.7001326084137,149.7001326084137,149.7001326084137,149.7001326084137,152.1995358467102,1,2.624911308288574,None,,,,,,,,,,,,,,,,,,147,4,2025-02-27_13h27.26.993,comp,2024.2.4,55.09990567748004,2025-02-27 13h27.44.524215 -0500,
16,16,0,filler_square,None,None,None,None,None,None,None,None,None,None,2,1.7630059719085693,None,,,,,0,0,0,0,0,16,16,178,152.21531891822815,,,,,,,,,,,,,,,,,,,,,,,,,,,,,,,,,,,,,,,,,,,,,,,,,,,,,,,,,,,,,,,,,,,,,,,,,,,,,,,,,133.63329569060897,138.89696811851238,147.99495426818746,147.99495426818746,78.19809873931845,109.88601454702638,2.2,2.21,-239,-260,0,266,225,288,152.20137286186218,152.20145058631897,152.20509839057922,152.21531891822815,152.36364579200745,152.36364579200745,152.36364579200745,152.36364579200745,152.36364579200745,152.36364579200745,152.36364579200745,153.98445057868958,2,1.7630059719085693,None,,,,,,,,,,,,,,,,,,147,4,2025-02-27_13h27.26.993,comp,2024.2.4,55.09990567748004,2025-02-27 13h27.44.524215 -0500,
17,17,0,filler_random,None,None,None,None,None,None,None,None,None,None,1,4.80877161026001,None,,,,,0,0,0,0,0,17,17,146,154.0007963180542,,,,,,,,,,,,,,,,,,,,,,,,,,,,,,,,,,,,,,,,,,,,,,,,,,,,,,,,,,,,,,,,,,,,,,,,,,,,,,,,,188.3178033934958,75.31182698431931,154.1910317056233,76.79677782674389,172.65506436594455,60.40469252837037,2.2,2.21,-172,-282,0,290,165,253,153.98629021644592,153.9864284992218,153.98992395401,154.0007963180542,154.14952945709229,154.14952945709229,154.14952945709229,154.14952945709229,154.14952945709229,154.14952945709229,154.14952945709229,158.82229948043823,1,4.80877161026001,None,,,,,,,,,,,,,,,,,,147,4,2025-02-27_13h27.26.993,comp,2024.2.4,55.09990567748004,2025-02-27 13h27.44.524215 -0500,
18,18,0,critical,wdh,20.0,2.1,lower,57.0,133.0,78.0,78.0,133.0,57.0,1,34.48324227333069,None,,,,,0,0,0,0,0,18,18,10,158.83930897712708,,,,,,,,,,,,,,,,,,,,,,,,,,,,,,,,,,,,,,,,,,,,,,,,,,,,,,,,,,,,,,,,,,,,,,,,,,,,,,,,,57.0,133.0,78.0,78.0,133.0,57.0,2.1,2.12,-202,-264,0,-253,164,268,158.82403874397278,158.82411670684814,158.82716751098633,158.83930897712708,158.98456621170044,158.98456621170044,158.98456621170044,158.98456621170044,158.98456621170044,158.98456621170044,158.98456621170044,193.32940483093262,1,34.48324227333069,None,,,,,,,,,,,,,,,,,,147,4,2025-02-27_13h27.26.993,comp,2024.2.4,55.09990567748004,2025-02-27 13h27.44.524215 -0500,
19,19,0,filler_square,None,None,None,None,None,None,None,None,None,None,3,1.9603407382965088,None,,,,,0,0,0,0,0,19,19,207,193.34543657302856,,,,,,,,,,,,,,,,,,,,,,,,,,,,,,,,,,,,,,,,,,,,,,,,,,,,,,,,,,,,,,,,,,,,,,,,,,,,,,,,,75.20020511784683,68.30280005048431,63.727311787676726,60.21641584406139,86.75830099078895,86.75830099078895,4.0,4.2,-160,19,0,-262,169,15,193.3312680721283,193.33134627342224,193.33470392227173,193.34543657302856,193.49530720710754,193.49530720710754,193.49530720710754,193.49530720710754,193.49530720710754,193.49530720710754,193.49530720710754,195.30895400047302,3,1.9603407382965088,None,,,,,,,,,,,,,,,,,,147,4,2025-02-27_13h27.26.993,comp,2024.2.4,55.09990567748004,2025-02-27 13h27.44.524215 -0500,
20,20,0,critical,hdw,35.0,1.0,upper,200.0,125.0,127.0,127.0,125.0,200.0,1,54.27180075645447,None,,,,,0,0,0,0,0,20,20,109,195.32998085021973,,,,,,,,,,,,,,,,,,,,,,,,,,,,,,,,,,,,,,,,,,,,,,,,,,,,,,,,,,,,,,,,,,,,,,,,,,,,,,,,,200.0,125.0,127.0,127.0,125.0,200.0,1.0,1.1,-702,256,-480,289,-220,275,195.31057834625244,195.3106918334961,195.31417751312256,195.32998085021973,195.46627759933472,195.46627759933472,195.46627759933472,195.46627759933472,195.46627759933472,195.46627759933472,195.46627759933472,249.6174657344818,1,54.27180075645447,None,,,,,,,,,,,,,,,,,,147,4,2025-02-27_13h27.26.993,comp,2024.2.4,55.09990567748004,2025-02-27 13h27.44.524215 -0500,
21,21,0,filler_square,None,None,None,None,None,None,None,None,None,None,1,1.030266284942627,None,,,,,0,0,0,0,0,21,21,203,249.63558292388916,,,,,,,,,,,,,,,,,,,,,,,,,,,,,,,,,,,,,,,,,,,,,,,,,,,,,,,,,,,,,,,,,,,,,,,,,,,,,,,,,123.31445406282889,123.31445406282889,76.29080689365526,72.10360417081077,61.0134888357176,57.46930839736121,1.0,1.2,-194,0,0,5,161,19,249.61945033073425,249.6195330619812,249.62264704704285,249.63558292388916,249.78049397468567,249.78049397468567,249.78049397468567,249.78049397468567,249.78049397468567,249.78049397468567,249.78049397468567,250.6830997467041,1,1.030266284942627,None,,,,,,,,,,,,,,,,,,147,4,2025-02-27_13h27.26.993,comp,2024.2.4,55.09990567748004,2025-02-27 13h27.44.524215 -0500,
22,22,0,filler_square,None,None,None,None,None,None,None,None,None,None,1,1.2669250965118408,None,,,,,0,0,0,0,0,22,22,188,250.70280647277832,,,,,,,,,,,,,,,,,,,,,,,,,,,,,,,,,,,,,,,,,,,,,,,,,,,,,,,,,,,,,,,,,,,,,,,,,,,,,,,,,147.0922334322144,147.0922334322144,102.09105848442294,71.19539555866695,122.26588724961857,136.35657625621042,2.1,2.12,-205,-282,0,-272,200,260,250.68520092964172,250.68527841567993,250.68848085403442,250.70280647277832,250.85688972473145,250.85688972473145,250.85688972473145,250.85688972473145,250.85688972473145,250.85688972473145,250.85688972473145,251.97976112365723,1,1.2669250965118408,None,,,,,,,,,,,,,,,,,,147,4,2025-02-27_13h27.26.993,comp,2024.2.4,55.09990567748004,2025-02-27 13h27.44.524215 -0500,
23,23,0,filler_random,None,None,None,None,None,None,None,None,None,None,3,5.15339207649231,None,,,,,0,0,0,0,0,23,23,132,252.00040006637573,,,,,,,,,,,,,,,,,,,,,,,,,,,,,,,,,,,,,,,,,,,,,,,,,,,,,,,,,,,,,,,,,,,,,,,,,,,,,,,,,115.1932550250005,112.43942846823205,138.23503091198745,126.43096434229783,171.13203451887864,108.796382840696,1.0,1.1,-695,272,-480,287,-266,265,251.9814624786377,251.9815399646759,251.98472237586975,252.00040006637573,252.14736795425415,252.14736795425415,252.14736795425415,252.14736795425415,252.14736795425415,252.14736795425415,252.14736795425415,257.1640386581421,3,5.15339207649231,None,,,,,,,,,,,,,,,,,,147,4,2025-02-27_13h27.26.993,comp,2024.2.4,55.09990567748004,2025-02-27 13h27.44.524215 -0500,
24,24,0,critical,hwd,35.0,4.0,lower,133.0,57.0,57.0,133.0,70.0,70.0,1,2.4806535243988037,None,,,,,0,0,0,0,0,24,24,100,257.1804699897766,,,,,,,,,,,,,,,,,,,,,,,,,,,,,,,,,,,,,,,,,,,,,,,,,,,,,,,,,,,,,,,,,,,,,,,,,,,,,,,,,133.0,57.0,57.0,133.0,70.0,70.0,4.0,4.1,-191,-270,0,13,198,-256,257.1656823158264,257.16579723358154,257.1692404747009,257.1804699897766,257.33109951019287,257.33109951019287,257.33109951019287,257.33109951019287,257.33109951019287,257.33109951019287,257.33109951019287,259.66709423065186,1,2.4806535243988037,None,,,,,,,,,,,,,,,,,,147,4,2025-02-27_13h27.26.993,comp,2024.2.4,55.09990567748004,2025-02-27 13h27.44.524215 -0500,
25,25,0,critical,dhw,35.0,3.0,upper,127.0,127.0,200.0,125.0,125.0,200.0,3,7.629967927932739,None,,,,,0,0,0,0,0,25,25,51,259.68412709236145,,,,,,,,,,,,,,,,,,,,,,,,,,,,,,,,,,,,,,,,,,,,,,,,,,,,,,,,,,,,,,,,,,,,,,,,,,,,,,,,,127.0,127.0,200.0,125.0,125.0,200.0,3.0,3.1,-222,286,0,16,258,-267,259.6687321662903,259.6688995361328,259.6725432872772,259.68412709236145,259.8374927043915,259.8374927043915,259.8374927043915,259.8374927043915,259.8374927043915,259.8374927043915,259.8374927043915,267.3194365501404,3,7.629967927932739,None,,,,,,,,,,,,,,,,,,147,4,2025-02-27_13h27.26.993,comp,2024.2.4,55.09990567748004,2025-02-27 13h27.44.524215 -0500,
26,26,0,filler_random,None,None,None,None,None,None,None,None,None,None,3,1.678898572921753,None,,,,,0,0,0,0,0,26,26,161,267.3393301963806,,,,,,,,,,,,,,,,,,,,,,,,,,,,,,,,,,,,,,,,,,,,,,,,,,,,,,,,,,,,,,,,,,,,,,,,,,,,,,,,,77.9507374088581,77.25635543514117,95.80683403586924,58.89261234619215,114.13839480716669,158.25764086830003,2.1,2.11,-164,251,0,271,205,-287,267.321147441864,267.32122564315796,267.324426651001,267.3393301963806,267.4838480949402,267.4838480949402,267.4838480949402,267.4838480949402,267.4838480949402,267.4838480949402,267.4838480949402,269.02203392982483,3,1.678898572921753,None,,,,,,,,,,,,,,,,,,147,4,2025-02-27_13h27.26.993,comp,2024.2.4,55.09990567748004,2025-02-27 13h27.44.524215 -0500,
27,27,0,critical,dwh,35.0,3.0,lower,70.0,70.0,57.0,133.0,133.0,57.0,3,13.939715147018433,None,,,,,0,0,0,0,0,27,27,62,269.0380220413208,,,,,,,,,,,,,,,,,,,,,,,,,,,,,,,,,,,,,,,,,,,,,,,,,,,,,,,,,,,,,,,,,,,,,,,,,,,,,,,,,70.0,70.0,57.0,133.0,133.0,57.0,3.0,3.2,-198,-284,0,-14,191,282,269.02387380599976,269.0239737033844,269.02712202072144,269.0380220413208,269.1857032775879,269.1857032775879,269.1857032775879,269.1857032775879,269.1857032775879,269.1857032775879,269.1857032775879,282.9983413219452,3,13.939715147018433,None,,,,,,,,,,,,,,,,,,147,4,2025-02-27_13h27.26.993,comp,2024.2.4,55.09990567748004,2025-02-27 13h27.44.524215 -0500,
28,28,0,filler_random,None,None,None,None,None,None,None,None,None,None,2,19.61723518371582,None,,,,,0,0,0,0,0,28,28,150,283.0188102722168,,,,,,,,,,,,,,,,,,,,,,,,,,,,,,,,,,,,,,,,,,,,,,,,,,,,,,,,,,,,,,,,,,,,,,,,,,,,,,,,,180.4266138400958,108.83288597485958,174.96213459475183,121.49353463032459,59.5199010436134,132.4395896635576,2.1,2.12,-211,-264,0,-268,223,256,283.00008630752563,283.0001754760742,283.003621339798,283.0188102722168,283.153400182724,283.153400182724,283.153400182724,283.153400182724,283.153400182724,283.153400182724,283.153400182724,302.64672207832336,2,19.61723518371582,None,,,,,,,,,,,,,,,,,,147,4,2025-02-27_13h27.26.993,comp,2024.2.4,55.09990567748004,2025-02-27 13h27.44.524215 -0500,
29,29,0,critical,wdh,20.0,2.1,lower,57.0,133.0,78.0,78.0,133.0,57.0,3,2.2670092582702637,None,,,,,0,0,0,0,0,29,29,34,302.66272711753845,,,,,,,,,,,,,,,,,,,,,,,,,,,,,,,,,,,,,,,,,,,,,,,,,,,,,,,,,,,,,,,,,,,,,,,,,,,,,,,,,57.0,133.0,78.0,78.0,133.0,57.0,2.1,2.11,-202,281,0,259,164,-256,302.64832639694214,302.6484065055847,302.65197491645813,302.66272711753845,302.8181092739105,302.8181092739105,302.8181092739105,302.8181092739105,302.8181092739105,302.8181092739105,302.8181092739105,304.943382024765,3,2.2670092582702637,None,,,,,,,,,,,,,,,,,,147,4,2025-02-27_13h27.26.993,comp,2024.2.4,55.09990567748004,2025-02-27 13h27.44.524215 -0500,
30,30,0,critical,dhw,20.0,4.0,upper,141.0,141.0,200.0,125.0,125.0,200.0,3,9.51849102973938,None,,,,,0,0,0,0,0,30,30,59,304.96371817588806,,,,,,,,,,,,,,,,,,,,,,,,,,,,,,,,,,,,,,,,,,,,,,,,,,,,,,,,,,,,,,,,,,,,,,,,,,,,,,,,,141.0,141.0,200.0,125.0,125.0,200.0,4.0,4.1,-229,-267,0,-7,258,-255,304.944997549057,304.9450783729553,304.94811940193176,304.96371817588806,305.0974941253662,305.0974941253662,305.0974941253662,305.0974941253662,305.0974941253662,305.0974941253662,305.0974941253662,314.49032521247864,3,9.51849102973938,None,,,,,,,,,,,,,,,,,,147,4,2025-02-27_13h27.26.993,comp,2024.2.4,55.09990567748004,2025-02-27 13h27.44.524215 -0500,
31,31,0,critical,wdh,35.0,1.0,upper,125.0,200.0,127.0,127.0,200.0,125.0,3,14.490759134292603,None,,,,,0,0,0,0,0,31,31,73,314.51128101348877,,,,,,,,,,,,,,,,,,,,,,,,,,,,,,,,,,,,,,,,,,,,,,,,,,,,,,,,,,,,,,,,,,,,,,,,,,,,,,,,,125.0,200.0,127.0,127.0,200.0,125.0,1.0,1.3,220,-273,480,-287,702,-277,314.4919924736023,314.49212980270386,314.49550104141235,314.51128101348877,314.6506085395813,314.6506085395813,314.6506085395813,314.6506085395813,314.6506085395813,314.6506085395813,314.6506085395813,329.02110481262207,3,14.490759134292603,None,,,,,,,,,,,,,,,,,,147,4,2025-02-27_13h27.26.993,comp,2024.2.4,55.09990567748004,2025-02-27 13h27.44.524215 -0500,
32,32,0,filler_square,None,None,None,None,None,None,None,None,None,None,2,1.481982946395874,None,,,,,0,0,0,0,0,32,32,192,329.0398201942444,,,,,,,,,,,,,,,,,,,,,,,,,,,,,,,,,,,,,,,,,,,,,,,,,,,,,,,,,,,,,,,,,,,,,,,,,,,,,,,,,118.99848532882672,141.25138807054543,181.5117167087902,181.5117167087902,110.2324570212684,180.36065691385573,2.1,2.11,-257,285,0,257,277,-252,329.0229756832123,329.0230541229248,329.02627062797546,329.0398201942444,329.187566280365,329.187566280365,329.187566280365,329.187566280365,329.187566280365,329.187566280365,329.187566280365,330.53802251815796,2,1.481982946395874,None,,,,,,,,,,,,,,,,,,147,4,2025-02-27_13h27.26.993,comp,2024.2.4,55.09990567748004,2025-02-27 13h27.44.524215 -0500,
33,33,0,critical,dwh,35.0,4.0,lower,70.0,70.0,57.0,133.0,133.0,57.0,3,3.7270631790161133,None,,,,,0,0,0,0,0,33,33,64,330.5546827316284,,,,,,,,,,,,,,,,,,,,,,,,,,,,,,,,,,,,,,,,,,,,,,,,,,,,,,,,,,,,,,,,,,,,,,,,,,,,,,,,,70.0,70.0,57.0,133.0,133.0,57.0,4.0,4.1,-198,-267,0,-4,191,-262,330.5397193431854,330.5398826599121,330.54331946372986,330.5546827316284,330.70516562461853,330.70516562461853,330.70516562461853,330.70516562461853,330.70516562461853,330.70516562461853,330.70516562461853,334.2909035682678,3,3.7270631790161133,None,,,,,,,,,,,,,,,,,,147,4,2025-02-27_13h27.26.993,comp,2024.2.4,55.09990567748004,2025-02-27 13h27.44.524215 -0500,
34,34,0,filler_random,None,None,None,None,None,None,None,None,None,None,2,2.7576053142547607,None,,,,,0,0,0,0,0,34,34,162,334.30809903144836,,,,,,,,,,,,,,,,,,,,,,,,,,,,,,,,,,,,,,,,,,,,,,,,,,,,,,,,,,,,,,,,,,,,,,,,,,,,,,,,,139.89256496647675,96.67461343714164,167.11204181096454,151.5334494463347,91.87764995465264,162.648006391168,2.1,2.12,-220,-270,0,-254,253,281,334.2927670478821,334.29291009902954,334.2964496612549,334.30809903144836,334.4564983844757,334.4564983844757,334.4564983844757,334.4564983844757,334.4564983844757,334.4564983844757,334.4564983844757,337.0751283168793,2,2.7576053142547607,None,,,,,,,,,,,,,,,,,,147,4,2025-02-27_13h27.26.993,comp,2024.2.4,55.09990567748004,2025-02-27 13h27.44.524215 -0500,
35,35,0,filler_square,None,None,None,None,None,None,None,None,None,None,1,1.4550211429595947,None,,,,,0,0,0,0,0,35,35,206,337.090943813324,,,,,,,,,,,,,,,,,,,,,,,,,,,,,,,,,,,,,,,,,,,,,,,,,,,,,,,,,,,,,,,,,,,,,,,,,,,,,,,,,138.5901027439028,138.5901027439028,109.39940606880674,119.2822887842899,115.74815673795686,99.63507374207308,2.1,2.11,-225,272,0,289,205,-257,337.07698941230774,337.0770790576935,337.0803380012512,337.090943813324,337.2405786514282,337.2405786514282,337.2405786514282,337.2405786514282,337.2405786514282,337.2405786514282,337.2405786514282,338.55828166007996,1,1.4550211429595947,None,,,,,,,,,,,,,,,,,,147,4,2025-02-27_13h27.26.993,comp,2024.2.4,55.09990567748004,2025-02-27 13h27.44.524215 -0500,
36,36,0,critical,hdw,20.0,3.0,upper,200.0,125.0,141.0,141.0,125.0,200.0,3,6.191533327102661,None,,,,,0,0,0,0,0,36,36,117,338.578729391098,,,,,,,,,,,,,,,,,,,,,,,,,,,,,,,,,,,,,,,,,,,,,,,,,,,,,,,,,,,,,,,,,,,,,,,,,,,,,,,,,200.0,125.0,141.0,141.0,125.0,200.0,3.0,3.2,-229,-273,0,-13,266,271,338.55996775627136,338.5601010322571,338.56388092041016,338.578729391098,338.72548055648804,338.72548055648804,338.72548055648804,338.72548055648804,338.72548055648804,338.72548055648804,338.72548055648804,344.77743792533875,3,6.191533327102661,None,,,,,,,,,,,,,,,,,,147,4,2025-02-27_13h27.26.993,comp,2024.2.4,55.09990567748004,2025-02-27 13h27.44.524215 -0500,
37,37,0,catch,None,None,None,None,None,None,None,None,None,None,1,0.88553786277771,None,,,,,0,0,0,0,0,37,37,129,344.79625058174133,,,,,,,,,,,,,,,,,,,,,,,,,,,,,,,,,,,,,,,,,,,,,,,,,,,,,,,,,,,,,,,,,,,,,,,,,,,,,,,,,189,136,106,84,115,75,2.2,2.21,-206,-287,0,262,176,253,344.779504776001,344.77959656715393,344.7833602428436,344.79625058174133,344.9431025981903,344.9431025981903,344.9431025981903,344.9431025981903,344.9431025981903,344.9431025981903,344.9431025981903,345.6923260688782,1,0.88553786277771,None,,,,,,,,,,,,,,,,,,147,4,2025-02-27_13h27.26.993,comp,2024.2.4,55.09990567748004,2025-02-27 13h27.44.524215 -0500,
38,38,0,critical,hdw,35.0,2.1,lower,133.0,57.0,70.0,70.0,57.0,133.0,1,1.3814101219177246,None,,,,,0,0,0,0,0,38,38,20,345.70915699005127,,,,,,,,,,,,,,,,,,,,,,,,,,,,,,,,,,,,,,,,,,,,,,,,,,,,,,,,,,,,,,,,,,,,,,,,,,,,,,,,,133.0,57.0,70.0,70.0,57.0,133.0,2.1,2.12,-160,-254,0,-258,198,268,345.69405722618103,345.69418573379517,345.69755601882935,345.70915699005127,345.86267614364624,345.86267614364624,345.86267614364624,345.86267614364624,345.86267614364624,345.86267614364624,345.86267614364624,347.0939004421234,1,1.3814101219177246,None,,,,,,,,,,,,,,,,,,147,4,2025-02-27_13h27.26.993,comp,2024.2.4,55.09990567748004,2025-02-27 13h27.44.524215 -0500,
39,39,0,critical,whd,20.0,1.0,upper,125.0,200.0,200.0,125.0,141.0,141.0,2,9.667156457901001,None,,,,,0,0,0,0,0,39,39,91,347.1102433204651,,,,,,,,,,,,,,,,,,,,,,,,,,,,,,,,,,,,,,,,,,,,,,,,,,,,,,,,,,,,,,,,,,,,,,,,,,,,,,,,,125.0,200.0,200.0,125.0,141.0,141.0,1.0,1.3,222,-260,480,-283,709,-252,347.09554982185364,347.09567427635193,347.09933376312256,347.1102433204651,347.26493191719055,347.26493191719055,347.26493191719055,347.26493191719055,347.26493191719055,347.26493191719055,347.26493191719055,356.7951650619507,2,9.667156457901001,None,,,,,,,,,,,,,,,,,,147,4,2025-02-27_13h27.26.993,comp,2024.2.4,55.09990567748004,2025-02-27 13h27.44.524215 -0500,
40,40,0,critical,whd,35.0,4.0,upper,125.0,200.0,200.0,125.0,127.0,127.0,1,2.936769962310791,None,,,,,0,0,0,0,0,40,40,89,356.8097758293152,,,,,,,,,,,,,,,,,,,,,,,,,,,,,,,,,,,,,,,,,,,,,,,,,,,,,,,,,,,,,,,,,,,,,,,,,,,,,,,,,125.0,200.0,200.0,125.0,127.0,127.0,4.0,4.1,-258,-264,0,2,222,-286,356.7957878112793,356.7958161830902,356.7969434261322,356.8097758293152,356.96513319015503,356.96513319015503,356.96513319015503,356.96513319015503,356.96513319015503,356.96513319015503,356.96513319015503,359.76416301727295,1,2.936769962310791,None,,,,,,,,,,,,,,,,,,147,4,2025-02-27_13h27.26.993,comp,2024.2.4,55.09990567748004,2025-02-27 13h27.44.524215 -0500,
41,41,0,filler_square,None,None,None,None,None,None,None,None,None,None,1,19.00126886367798,None,,,,,0,0,0,0,0,41,41,186,359.78462195396423,,,,,,,,,,,,,,,,,,,,,,,,,,,,,,,,,,,,,,,,,,,,,,,,,,,,,,,,,,,,,,,,,,,,,,,,,,,,,,,,,74.86102614621063,74.86102614621063,68.13969573944314,71.67273165766632,62.56208788054437,68.60200158155966,2.2,2.22,-169,269,0,-264,166,-268,359.7660069465637,359.76608443260193,359.76933336257935,359.78462195396423,359.93129992485046,359.93129992485046,359.93129992485046,359.93129992485046,359.93129992485046,359.93129992485046,359.93129992485046,378.78903436660767,1,19.00126886367798,None,,,,,,,,,,,,,,,,,,147,4,2025-02-27_13h27.26.993,comp,2024.2.4,55.09990567748004,2025-02-27 13h27.44.524215 -0500,
42,42,0,critical,dhw,20.0,4.0,lower,78.0,78.0,133.0,57.0,57.0,133.0,2,3.944399356842041,None,,,,,0,0,0,0,0,42,42,58,378.8101735115051,,,,,,,,,,,,,,,,,,,,,,,,,,,,,,,,,,,,,,,,,,,,,,,,,,,,,,,,,,,,,,,,,,,,,,,,,,,,,,,,,78.0,78.0,133.0,57.0,57.0,133.0,4.0,4.1,-164,-267,0,12,191,-276,378.7906291484833,378.79072999954224,378.79427194595337,378.8101735115051,378.9532518386841,378.9532518386841,378.9532518386841,378.9532518386841,378.9532518386841,378.9532518386841,378.9532518386841,382.75741171836853,2,3.944399356842041,None,,,,,,,,,,,,,,,,,,147,4,2025-02-27_13h27.26.993,comp,2024.2.4,55.09990567748004,2025-02-27 13h27.44.524215 -0500,
43,43,0,filler_random,None,None,None,None,None,None,None,None,None,None,3,3.371469020843506,None,,,,,0,0,0,0,0,43,43,130,382.7744109630585,,,,,,,,,,,,,,,,,,,,,,,,,,,,,,,,,,,,,,,,,,,,,,,,,,,,,,,,,,,,,,,,,,,,,,,,,,,,,,,,,79.85175829230121,180.6268397357318,191.4291024252832,68.53440686911549,151.83529647120127,182.52147381280056,2.1,2.11,-221,283,0,275,222,-289,382.7592303752899,382.7593071460724,382.76238560676575,382.7744109630585,382.9219253063202,382.9219253063202,382.9219253063202,382.9219253063202,382.9219253063202,382.9219253063202,382.9219253063202,386.1611258983612,3,3.371469020843506,None,,,,,,,,,,,,,,,,,,147,4,2025-02-27_13h27.26.993,comp,2024.2.4,55.09990567748004,2025-02-27 13h27.44.524215 -0500,
44,44,0,filler_square,None,None,None,None,None,None,None,None,None,None,1,2.5075511932373047,None,,,,,0,0,0,0,0,44,44,174,386.1823136806488,,,,,,,,,,,,,,,,,,,,,,,,,,,,,,,,,,,,,,,,,,,,,,,,,,,,,,,,,,,,,,,,,,,,,,,,,,,,,,,,,60.16424623568378,60.16424623568378,57.391424424341665,57.94746492497915,57.568688287615736,59.23024787672093,2.2,2.22,-155,277,0,-269,155,-268,386.16312861442566,386.16320419311523,386.1665291786194,386.1823136806488,386.326651096344,386.326651096344,386.326651096344,386.326651096344,386.326651096344,386.326651096344,386.326651096344,388.70664262771606,1,2.5075511932373047,None,,,,,,,,,,,,,,,,,,147,4,2025-02-27_13h27.26.993,comp,2024.2.4,55.09990567748004,2025-02-27 13h27.44.524215 -0500,
45,45,0,critical,dwh,35.0,2.1,upper,127.0,127.0,125.0,200.0,200.0,125.0,3,12.384899616241455,None,,,,,0,0,0,0,0,45,45,29,388.7211048603058,,,,,,,,,,,,,,,,,,,,,,,,,,,,,,,,,,,,,,,,,,,,,,,,,,,,,,,,,,,,,,,,,,,,,,,,,,,,,,,,,127.0,127.0,125.0,200.0,200.0,125.0,2.1,2.11,-260,264,0,276,258,-273,388.7082676887512,388.7083406448364,388.71192836761475,388.7211048603058,388.8789966106415,388.8789966106415,388.8789966106415,388.8789966106415,388.8789966106415,388.8789966106415,388.8789966106415,401.11942958831787,3,12.384899616241455,None,,,,,,,,,,,,,,,,,,147,4,2025-02-27_13h27.26.993,comp,2024.2.4,55.09990567748004,2025-02-27 13h27.44.524215 -0500,
46,46,0,critical,hdw,20.0,3.0,lower,133.0,57.0,78.0,78.0,57.0,133.0,1,3.1559629440307617,None,,,,,0,0,0,0,0,46,46,116,401.1344826221466,,,,,,,,,,,,,,,,,,,,,,,,,,,,,,,,,,,,,,,,,,,,,,,,,,,,,,,,,,,,,,,,,,,,,,,,,,,,,,,,,133.0,57.0,78.0,78.0,57.0,133.0,3.0,3.1,-164,259,0,-18,202,-257,401.12097573280334,401.1210551261902,401.12411093711853,401.1344826221466,401.2763683795929,401.2763683795929,401.2763683795929,401.2763683795929,401.2763683795929,401.2763683795929,401.2763683795929,404.29272961616516,1,3.1559629440307617,None,,,,,,,,,,,,,,,,,,147,4,2025-02-27_13h27.26.993,comp,2024.2.4,55.09990567748004,2025-02-27 13h27.44.524215 -0500,
47,47,0,critical,whd,20.0,1.0,lower,57.0,133.0,133.0,57.0,78.0,78.0,2,2.2456204891204834,None,,,,,0,0,0,0,0,47,47,90,404.3090281486511,,,,,,,,,,,,,,,,,,,,,,,,,,,,,,,,,,,,,,,,,,,,,,,,,,,,,,,,,,,,,,,,,,,,,,,,,,,,,,,,,57.0,133.0,133.0,57.0,78.0,78.0,1.0,1.2,-191,-5,0,-8,164,12,404.29451608657837,404.2946171760559,404.29769706726074,404.3090281486511,404.448828458786,404.448828458786,404.448828458786,404.448828458786,404.448828458786,404.448828458786,404.448828458786,406.5628228187561,2,2.2456204891204834,None,,,,,,,,,,,,,,,,,,147,4,2025-02-27_13h27.26.993,comp,2024.2.4,55.09990567748004,2025-02-27 13h27.44.524215 -0500,
48,48,0,critical,whd,20.0,4.0,lower,57.0,133.0,133.0,57.0,78.0,78.0,1,8.263453006744385,None,,,,,0,0,0,0,0,48,48,94,406.5793833732605,,,,,,,,,,,,,,,,,,,,,,,,,,,,,,,,,,,,,,,,,,,,,,,,,,,,,,,,,,,,,,,,,,,,,,,,,,,,,,,,,57.0,133.0,133.0,57.0,78.0,78.0,4.0,4.1,-191,-271,0,-12,164,-279,406.5643558502197,406.56443309783936,406.56866812705994,406.5793833732605,406.72747135162354,406.72747135162354,406.72747135162354,406.72747135162354,406.72747135162354,406.72747135162354,406.72747135162354,414.85209035873413,1,8.263453006744385,None,,,,,,,,,,,,,,,,,,147,4,2025-02-27_13h27.26.993,comp,2024.2.4,55.09990567748004,2025-02-27 13h27.44.524215 -0500,
49,49,0,critical,hdw,20.0,4.0,upper,200.0,125.0,141.0,141.0,125.0,200.0,1,4.091925621032715,None,,,,,0,0,0,0,0,49,49,119,414.8701899051666,,,,,,,,,,,,,,,,,,,,,,,,,,,,,,,,,,,,,,,,,,,,,,,,,,,,,,,,,,,,,,,,,,,,,,,,,,,,,,,,,200.0,125.0,141.0,141.0,125.0,200.0,4.0,4.2,-229,5,0,-271,266,-2,414.85400009155273,414.85407996177673,414.8571400642395,414.8701899051666,415.01534843444824,415.01534843444824,415.01534843444824,415.01534843444824,415.01534843444824,415.01534843444824,415.01534843444824,418.9662547111511,1,4.091925621032715,None,,,,,,,,,,,,,,,,,,147,4,2025-02-27_13h27.26.993,comp,2024.2.4,55.09990567748004,2025-02-27 13h27.44.524215 -0500,
50,50,0,filler_square,None,None,None,None,None,None,None,None,None,None,3,0.9694838523864746,None,,,,,0,0,0,0,0,50,50,199,418.9844844341278,,,,,,,,,,,,,,,,,,,,,,,,,,,,,,,,,,,,,,,,,,,,,,,,,,,,,,,,,,,,,,,,,,,,,,,,,,,,,,,,,66.27134996404033,63.1991499034269,62.54174462844198,72.84584846186961,105.84630099804696,105.84630099804696,4.0,4.1,-164,-265,0,-2,185,-290,418.96802854537964,418.96810603141785,418.9712703227997,418.9844844341278,419.13308691978455,419.13308691978455,419.13308691978455,419.13308691978455,419.13308691978455,419.13308691978455,419.13308691978455,419.96521067619324,3,0.9694838523864746,None,,,,,,,,,,,,,,,,,,147,4,2025-02-27_13h27.26.993,comp,2024.2.4,55.09990567748004,2025-02-27 13h27.44.524215 -0500,
51,51,0,filler_square,None,None,None,None,None,None,None,None,None,None,1,1.3558247089385986,None,,,,,0,0,0,0,0,51,51,173,419.9820191860199,,,,,,,,,,,,,,,,,,,,,,,,,,,,,,,,,,,,,,,,,,,,,,,,,,,,,,,,,,,,,,,,,,,,,,,,,,,,,,,,,138.72935833143706,138.72935833143706,118.9654436915395,109.6757441601728,106.41334289007568,131.78429876378704,1.0,1.3,260,-275,480,-268,697,-286,419.9670498371124,419.9671287536621,419.97034311294556,419.9820191860199,420.13219118118286,420.13219118118286,420.13219118118286,420.13219118118286,420.13219118118286,420.13219118118286,420.13219118118286,421.34944796562195,1,1.3558247089385986,None,,,,,,,,,,,,,,,,,,147,4,2025-02-27_13h27.26.993,comp,2024.2.4,55.09990567748004,2025-02-27 13h27.44.524215 -0500,
52,52,0,filler_square,None,None,None,None,None,None,None,None,None,None,3,0.8765113353729248,None,,,,,0,0,0,0,0,52,52,209,421.3661358356476,,,,,,,,,,,,,,,,,,,,,,,,,,,,,,,,,,,,,,,,,,,,,,,,,,,,,,,,,,,,,,,,,,,,,,,,,,,,,,,,,90.11808125764435,136.84365174480905,58.19783935223908,70.7394369002176,152.1407923122809,152.1407923122809,1.0,1.2,-200,-8,0,-16,207,-5,421.3512387275696,421.3513162136078,421.35449171066284,421.3661358356476,421.50647044181824,421.50647044181824,421.50647044181824,421.50647044181824,421.50647044181824,421.50647044181824,421.50647044181824,422.2539029121399,3,0.8765113353729248,None,,,,,,,,,,,,,,,,,,147,4,2025-02-27_13h27.26.993,comp,2024.2.4,55.09990567748004,2025-02-27 13h27.44.524215 -0500,
53,53,0,filler_square,None,None,None,None,None,None,None,None,None,None,2,0.8644201755523682,None,,,,,0,0,0,0,0,53,53,204,422.27346992492676,,,,,,,,,,,,,,,,,,,,,,,,,,,,,,,,,,,,,,,,,,,,,,,,,,,,,,,,,,,,,,,,,,,,,,,,,,,,,,,,,89.4257603703955,92.71269473306842,176.21257174981048,176.21257174981048,69.6987159361419,117.71007144135666,2.2,2.22,-230,259,0,-278,243,-258,422.2560739517212,422.25620579719543,422.25965905189514,422.27346992492676,422.4165213108063,422.4165213108063,422.4165213108063,422.4165213108063,422.4165213108063,422.4165213108063,422.4165213108063,423.1504352092743,2,0.8644201755523682,None,,,,,,,,,,,,,,,,,,147,4,2025-02-27_13h27.26.993,comp,2024.2.4,55.09990567748004,2025-02-27 13h27.44.524215 -0500,
54,54,0,filler_square,None,None,None,None,None,None,None,None,None,None,1,1.6459016799926758,None,,,,,0,0,0,0,0,54,54,197,423.16587018966675,,,,,,,,,,,,,,,,,,,,,,,,,,,,,,,,,,,,,,,,,,,,,,,,,,,,,,,,,,,,,,,,,,,,,,,,,,,,,,,,,132.39721492063745,132.39721492063745,69.8933321387623,96.03085208827247,97.35340511675832,130.21939682893952,1.0,1.1,-690,266,-480,259,-271,281,423.15223383903503,423.15230679512024,423.1555881500244,423.16587018966675,423.3040187358856,423.3040187358856,423.3040187358856,423.3040187358856,423.3040187358856,423.3040187358856,423.3040187358856,424.8205831050873,1,1.6459016799926758,None,,,,,,,,,,,,,,,,,,147,4,2025-02-27_13h27.26.993,comp,2024.2.4,55.09990567748004,2025-02-27 13h27.44.524215 -0500,
55,55,0,critical,hdw,20.0,1.0,upper,200.0,125.0,141.0,141.0,125.0,200.0,1,9.603703022003174,None,,,,,0,0,0,0,0,55,55,115,424.8388240337372,,,,,,,,,,,,,,,,,,,,,,,,,,,,,,,,,,,,,,,,,,,,,,,,,,,,,,,,,,,,,,,,,,,,,,,,,,,,,,,,,200.0,125.0,141.0,141.0,125.0,200.0,1.0,1.1,-709,250,-480,275,-214,254,424.8223192691803,424.8223958015442,424.8256916999817,424.8388240337372,424.98948979377747,424.98948979377747,424.98948979377747,424.98948979377747,424.98948979377747,424.98948979377747,424.98948979377747,434.4585049152374,1,9.603703022003174,None,,,,,,,,,,,,,,,,,,147,4,2025-02-27_13h27.26.993,comp,2024.2.4,55.09990567748004,2025-02-27 13h27.44.524215 -0500,
56,56,0,critical,dhw,20.0,1.0,lower,78.0,78.0,133.0,57.0,57.0,133.0,2,1.8800406455993652,None,,,,,0,0,0,0,0,56,56,54,434.47397017478943,,,,,,,,,,,,,,,,,,,,,,,,,,,,,,,,,,,,,,,,,,,,,,,,,,,,,,,,,,,,,,,,,,,,,,,,,,,,,,,,,78.0,78.0,133.0,57.0,57.0,133.0,1.0,1.1,-644,257,-480,286,-289,256,434.4601776599884,434.46025252342224,434.46364665031433,434.47397017478943,434.62085247039795,434.62085247039795,434.62085247039795,434.62085247039795,434.62085247039795,434.62085247039795,434.62085247039795,436.36909222602844,2,1.8800406455993652,None,,,,,,,,,,,,,,,,,,147,4,2025-02-27_13h27.26.993,comp,2024.2.4,55.09990567748004,2025-02-27 13h27.44.524215 -0500,
57,57,0,critical,dhw,35.0,2.1,lower,70.0,70.0,133.0,57.0,57.0,133.0,2,3.1919658184051514,None,,,,,0,0,0,0,0,57,57,0,436.38592648506165,,,,,,,,,,,,,,,,,,,,,,,,,,,,,,,,,,,,,,,,,,,,,,,,,,,,,,,,,,,,,,,,,,,,,,,,,,,,,,,,,70.0,70.0,133.0,57.0,57.0,133.0,2.1,2.12,-160,-281,0,-262,191,255,436.3706090450287,436.3706843852997,436.37371802330017,436.38592648506165,436.5239300727844,436.5239300727844,436.5239300727844,436.5239300727844,436.5239300727844,436.5239300727844,436.5239300727844,439.58835649490356,2,3.1919658184051514,None,,,,,,,,,,,,,,,,,,147,4,2025-02-27_13h27.26.993,comp,2024.2.4,55.09990567748004,2025-02-27 13h27.44.524215 -0500,
58,58,0,critical,hdw,20.0,2.1,lower,133.0,57.0,78.0,78.0,57.0,133.0,1,1.086137294769287,None,,,,,0,0,0,0,0,58,58,46,439.6047873497009,,,,,,,,,,,,,,,,,,,,,,,,,,,,,,,,,,,,,,,,,,,,,,,,,,,,,,,,,,,,,,,,,,,,,,,,,,,,,,,,,133.0,57.0,78.0,78.0,57.0,133.0,2.1,2.11,-164,277,0,269,202,-256,439.5899193286896,439.58999824523926,439.5932261943817,439.6047873497009,439.7555720806122,439.7555720806122,439.7555720806122,439.7555720806122,439.7555720806122,439.7555720806122,439.7555720806122,440.6940107345581,1,1.086137294769287,None,,,,,,,,,,,,,,,,,,147,4,2025-02-27_13h27.26.993,comp,2024.2.4,55.09990567748004,2025-02-27 13h27.44.524215 -0500,
59,59,0,critical,hdw,35.0,4.0,lower,133.0,57.0,70.0,70.0,57.0,133.0,1,1.2357170581817627,None,,,,,0,0,0,0,0,59,59,112,440.7101719379425,,,,,,,,,,,,,,,,,,,,,,,,,,,,,,,,,,,,,,,,,,,,,,,,,,,,,,,,,,,,,,,,,,,,,,,,,,,,,,,,,133.0,57.0,70.0,70.0,57.0,133.0,4.0,4.1,-160,-262,0,-10,198,-255,440.69557785987854,440.69565510749817,440.6991238594055,440.7101719379425,440.85463976860046,440.85463976860046,440.85463976860046,440.85463976860046,440.85463976860046,440.85463976860046,440.85463976860046,441.9626741409302,1,1.2357170581817627,None,,,,,,,,,,,,,,,,,,147,4,2025-02-27_13h27.26.993,comp,2024.2.4,55.09990567748004,2025-02-27 13h27.44.524215 -0500,
60,60,0,critical,whd,35.0,2.1,lower,57.0,133.0,133.0,57.0,70.0,70.0,2,1.2839999198913574,None,,,,,0,0,0,0,0,60,60,36,441.9826979637146,,,,,,,,,,,,,,,,,,,,,,,,,,,,,,,,,,,,,,,,,,,,,,,,,,,,,,,,,,,,,,,,,,,,,,,,,,,,,,,,,57.0,133.0,133.0,57.0,70.0,70.0,2.1,2.12,-191,-259,0,-258,160,275,441.96422004699707,441.96429777145386,441.9674828052521,441.9826979637146,442.12340927124023,442.12340927124023,442.12340927124023,442.12340927124023,442.12340927124023,442.12340927124023,442.12340927124023,443.27288484573364,2,1.2839999198913574,None,,,,,,,,,,,,,,,,,,147,4,2025-02-27_13h27.26.993,comp,2024.2.4,55.09990567748004,2025-02-27 13h27.44.524215 -0500,
61,61,0,critical,whd,20.0,3.0,upper,125.0,200.0,200.0,125.0,141.0,141.0,2,3.6811347007751465,None,,,,,0,0,0,0,0,61,61,93,443.2892487049103,,,,,,,,,,,,,,,,,,,,,,,,,,,,,,,,,,,,,,,,,,,,,,,,,,,,,,,,,,,,,,,,,,,,,,,,,,,,,,,,,125.0,200.0,200.0,125.0,141.0,141.0,3.0,3.1,-258,276,0,12,229,-251,443.2743673324585,443.27444291114807,443.27765583992004,443.2892487049103,443.44929933547974,443.44929933547974,443.44929933547974,443.44929933547974,443.44929933547974,443.44929933547974,443.44929933547974,446.97580122947693,2,3.6811347007751465,None,,,,,,,,,,,,,,,,,,147,4,2025-02-27_13h27.26.993,comp,2024.2.4,55.09990567748004,2025-02-27 13h27.44.524215 -0500,
62,62,0,critical,whd,35.0,2.1,lower,57.0,133.0,133.0,57.0,70.0,70.0,2,1.8583450317382812,None,,,,,0,0,0,0,0,62,62,12,446.9917314052582,,,,,,,,,,,,,,,,,,,,,,,,,,,,,,,,,,,,,,,,,,,,,,,,,,,,,,,,,,,,,,,,,,,,,,,,,,,,,,,,,57.0,133.0,133.0,57.0,70.0,70.0,2.1,2.11,-191,284,0,279,160,-286,446.97731614112854,446.97739577293396,446.9810221195221,446.9917314052582,447.1445224285126,447.1445224285126,447.1445224285126,447.1445224285126,447.1445224285126,447.1445224285126,447.1445224285126,448.86130714416504,2,1.8583450317382812,None,,,,,,,,,,,,,,,,,,147,4,2025-02-27_13h27.26.993,comp,2024.2.4,55.09990567748004,2025-02-27 13h27.44.524215 -0500,
63,63,0,filler_random,None,None,None,None,None,None,None,None,None,None,2,0.7997450828552246,None,,,,,0,0,0,0,0,63,63,151,448.88217067718506,,,,,,,,,,,,,,,,,,,,,,,,,,,,,,,,,,,,,,,,,,,,,,,,,,,,,,,,,,,,,,,,,,,,,,,,,,,,,,,,,87.43908153359473,102.40540182658594,152.45010385973285,168.05070778825905,101.50630256159927,118.88802146809468,2.1,2.11,-231,274,0,252,239,-282,448.8636157512665,448.8637707233429,448.8668808937073,448.88217067718506,449.0266447067261,449.0266447067261,449.0266447067261,449.0266447067261,449.0266447067261,449.0266447067261,449.0266447067261,449.6940884590149,2,0.7997450828552246,None,,,,,,,,,,,,,,,,,,147,4,2025-02-27_13h27.26.993,comp,2024.2.4,55.09990567748004,2025-02-27 13h27.44.524215 -0500,
64,64,0,critical,dwh,20.0,1.0,upper,141.0,141.0,125.0,200.0,200.0,125.0,2,10.78656816482544,None,,,,,0,0,0,0,0,64,64,67,449.71134901046753,,,,,,,,,,,,,,,,,,,,,,,,,,,,,,,,,,,,,,,,,,,,,,,,,,,,,,,,,,,,,,,,,,,,,,,,,,,,,,,,,141.0,141.0,125.0,200.0,200.0,125.0,1.0,1.3,214,-275,480,-272,738,-283,449.69580149650574,449.6959316730499,449.6997272968292,449.71134901046753,449.86392426490784,449.86392426490784,449.86392426490784,449.86392426490784,449.86392426490784,449.86392426490784,449.86392426490784,460.5131480693817,2,10.78656816482544,None,,,,,,,,,,,,,,,,,,147,4,2025-02-27_13h27.26.993,comp,2024.2.4,55.09990567748004,2025-02-27 13h27.44.524215 -0500,
65,65,0,critical,dwh,35.0,2.1,lower,70.0,70.0,57.0,133.0,133.0,57.0,3,2.6237246990203857,None,,,,,0,0,0,0,0,65,65,4,460.5329074859619,,,,,,,,,,,,,,,,,,,,,,,,,,,,,,,,,,,,,,,,,,,,,,,,,,,,,,,,,,,,,,,,,,,,,,,,,,,,,,,,,70.0,70.0,57.0,133.0,133.0,57.0,2.1,2.11,-198,288,0,275,191,-253,460.51477789878845,460.5148603916168,460.5184621810913,460.5329074859619,460.67847442626953,460.67847442626953,460.67847442626953,460.67847442626953,460.67847442626953,460.67847442626953,460.67847442626953,463.16460609436035,3,2.6237246990203857,None,,,,,,,,,,,,,,,,,,147,4,2025-02-27_13h27.26.993,comp,2024.2.4,55.09990567748004,2025-02-27 13h27.44.524215 -0500,
66,66,0,critical,dhw,35.0,2.1,upper,127.0,127.0,200.0,125.0,125.0,200.0,2,12.308422565460205,None,,,,,0,0,0,0,0,66,66,1,463.1824789047241,,,,,,,,,,,,,,,,,,,,,,,,,,,,,,,,,,,,,,,,,,,,,,,,,,,,,,,,,,,,,,,,,,,,,,,,,,,,,,,,,127.0,127.0,200.0,125.0,125.0,200.0,2.1,2.12,-222,-272,0,-252,258,253,463.16614055633545,463.1662163734436,463.16942715644836,463.1824789047241,463.32848501205444,463.32848501205444,463.32848501205444,463.32848501205444,463.32848501205444,463.32848501205444,463.32848501205444,475.50144243240356,2,12.308422565460205,None,,,,,,,,,,,,,,,,,,147,4,2025-02-27_13h27.26.993,comp,2024.2.4,55.09990567748004,2025-02-27 13h27.44.524215 -0500,
67,67,0,filler_random,None,None,None,None,None,None,None,None,None,None,3,2.17995548248291,None,,,,,0,0,0,0,0,67,67,140,475.518048286438,,,,,,,,,,,,,,,,,,,,,,,,,,,,,,,,,,,,,,,,,,,,,,,,,,,,,,,,,,,,,,,,,,,,,,,,,,,,,,,,,76.11655132284412,81.59317628811533,148.93689536102815,112.93775532139499,180.28546438133867,115.44193093503753,2.2,2.22,-193,283,0,-270,210,-286,475.50308895111084,475.5031657218933,475.5072994232178,475.518048286438,475.6656415462494,475.6656415462494,475.6656415462494,475.6656415462494,475.6656415462494,475.6656415462494,475.6656415462494,477.7013213634491,3,2.17995548248291,None,,,,,,,,,,,,,,,,,,147,4,2025-02-27_13h27.26.993,comp,2024.2.4,55.09990567748004,2025-02-27 13h27.44.524215 -0500,
68,68,0,critical,hwd,35.0,4.0,upper,200.0,125.0,125.0,200.0,127.0,127.0,1,5.093711614608765,None,,,,,0,0,0,0,0,68,68,101,477.71711444854736,,,,,,,,,,,,,,,,,,,,,,,,,,,,,,,,,,,,,,,,,,,,,,,,,,,,,,,,,,,,,,,,,,,,,,,,,,,,,,,,,200.0,125.0,125.0,200.0,127.0,127.0,4.0,4.1,-258,-282,0,15,260,-288,477.7028703689575,477.7029490470886,477.7064392566681,477.71711444854736,477.8661913871765,477.8661913871765,477.8661913871765,477.8661913871765,477.8661913871765,477.8661913871765,477.8661913871765,482.8184292316437,1,5.093711614608765,None,,,,,,,,,,,,,,,,,,147,4,2025-02-27_13h27.26.993,comp,2024.2.4,55.09990567748004,2025-02-27 13h27.44.524215 -0500,
69,69,0,critical,wdh,20.0,3.0,upper,125.0,200.0,141.0,141.0,200.0,125.0,3,2.2392094135284424,None,,,,,0,0,0,0,0,69,69,81,482.8349747657776,,,,,,,,,,,,,,,,,,,,,,,,,,,,,,,,,,,,,,,,,,,,,,,,,,,,,,,,,,,,,,,,,,,,,,,,,,,,,,,,,125.0,200.0,141.0,141.0,200.0,125.0,3.0,3.1,-266,265,0,-20,229,-259,482.8199374675751,482.82001638412476,482.8233332633972,482.8349747657776,482.989821434021,482.989821434021,482.989821434021,482.989821434021,482.989821434021,482.989821434021,482.989821434021,485.08768582344055,3,2.2392094135284424,None,,,,,,,,,,,,,,,,,,147,4,2025-02-27_13h27.26.993,comp,2024.2.4,55.09990567748004,2025-02-27 13h27.44.524215 -0500,
70,70,0,critical,hwd,20.0,3.0,lower,133.0,57.0,57.0,133.0,78.0,78.0,1,4.803684949874878,None,,,,,0,0,0,0,0,70,70,104,485.1028163433075,,,,,,,,,,,,,,,,,,,,,,,,,,,,,,,,,,,,,,,,,,,,,,,,,,,,,,,,,,,,,,,,,,,,,,,,,,,,,,,,,133.0,57.0,57.0,133.0,78.0,78.0,3.0,3.1,-191,255,0,11,202,-273,485.0892162322998,485.0892906188965,485.09259390830994,485.1028163433075,485.2531416416168,485.2531416416168,485.2531416416168,485.2531416416168,485.2531416416168,485.2531416416168,485.2531416416168,489.908371925354,1,4.803684949874878,None,,,,,,,,,,,,,,,,,,147,4,2025-02-27_13h27.26.993,comp,2024.2.4,55.09990567748004,2025-02-27 13h27.44.524215 -0500,
71,71,0,critical,wdh,20.0,2.1,upper,125.0,200.0,141.0,141.0,200.0,125.0,3,5.80694317817688,None,,,,,0,0,0,0,0,71,71,11,489.924840927124,,,,,,,,,,,,,,,,,,,,,,,,,,,,,,,,,,,,,,,,,,,,,,,,,,,,,,,,,,,,,,,,,,,,,,,,,,,,,,,,,125.0,200.0,141.0,141.0,200.0,125.0,2.1,2.11,-266,278,0,258,229,-289,489.9102404117584,489.9103195667267,489.913343667984,489.924840927124,490.07154726982117,490.07154726982117,490.07154726982117,490.07154726982117,490.07154726982117,490.07154726982117,490.07154726982117,495.7395474910736,3,5.80694317817688,None,,,,,,,,,,,,,,,,,,147,4,2025-02-27_13h27.26.993,comp,2024.2.4,55.09990567748004,2025-02-27 13h27.44.524215 -0500,
72,72,0,critical,dwh,20.0,3.0,upper,141.0,141.0,125.0,200.0,200.0,125.0,3,5.471365213394165,None,,,,,0,0,0,0,0,72,72,69,495.75520157814026,,,,,,,,,,,,,,,,,,,,,,,,,,,,,,,,,,,,,,,,,,,,,,,,,,,,,,,,,,,,,,,,,,,,,,,,,,,,,,,,,141.0,141.0,125.0,200.0,200.0,125.0,3.0,3.2,-266,-255,0,2,258,274,495.74113035202026,495.7412054538727,495.74440836906433,495.75520157814026,495.9094579219818,495.9094579219818,495.9094579219818,495.9094579219818,495.9094579219818,495.9094579219818,495.9094579219818,501.2446081638336,3,5.471365213394165,None,,,,,,,,,,,,,,,,,,147,4,2025-02-27_13h27.26.993,comp,2024.2.4,55.09990567748004,2025-02-27 13h27.44.524215 -0500,
73,73,0,filler_random,None,None,None,None,None,None,None,None,None,None,2,36.26066875457764,None,,,,,0,0,0,0,0,73,73,138,501.2615509033203,,,,,,,,,,,,,,,,,,,,,,,,,,,,,,,,,,,,,,,,,,,,,,,,,,,,,,,,,,,,,,,,,,,,,,,,,,,,,,,,,125.65256861485697,100.32721722504328,174.58993109590585,147.5371909863265,176.05036677561566,119.24222717134,4.0,4.2,-220,-5,0,-252,229,18,501.24652314186096,501.2466449737549,501.25044870376587,501.2615509033203,501.4135022163391,501.4135022163391,501.4135022163391,501.4135022163391,501.4135022163391,501.4135022163391,501.4135022163391,537.537914276123,2,36.26066875457764,None,,,,,,,,,,,,,,,,,,147,4,2025-02-27_13h27.26.993,comp,2024.2.4,55.09990567748004,2025-02-27 13h27.44.524215 -0500,
74,74,0,filler_square,None,None,None,None,None,None,None,None,None,None,3,1.2397851943969727,None,,,,,0,0,0,0,0,74,74,187,537.5545887947083,,,,,,,,,,,,,,,,,,,,,,,,,,,,,,,,,,,,,,,,,,,,,,,,,,,,,,,,,,,,,,,,,,,,,,,,,,,,,,,,,73.75194576400534,83.65175050635236,92.25220993222979,57.87293428008856,105.02751393215516,105.02751393215516,1.0,1.2,-167,-18,0,16,177,17,537.5399310588837,537.5400130748749,537.5437772274017,537.5545887947083,537.6922016143799,537.6922016143799,537.6922016143799,537.6922016143799,537.6922016143799,537.6922016143799,537.6922016143799,538.7962324619293,3,1.2397851943969727,None,,,,,,,,,,,,,,,,,,147,4,2025-02-27_13h27.26.993,comp,2024.2.4,55.09990567748004,2025-02-27 13h27.44.524215 -0500,
75,75,0,critical,whd,20.0,4.0,upper,125.0,200.0,200.0,125.0,141.0,141.0,1,6.942711353302002,None,,,,,0,0,0,0,0,75,75,95,538.8115482330322,,,,,,,,,,,,,,,,,,,,,,,,,,,,,,,,,,,,,,,,,,,,,,,,,,,,,,,,,,,,,,,,,,,,,,,,,,,,,,,,,125.0,200.0,200.0,125.0,141.0,141.0,4.0,4.1,-258,-257,0,0,229,-251,538.7977755069733,538.7978527545929,538.8008241653442,538.8115482330322,538.9520361423492,538.9520361423492,538.9520361423492,538.9520361423492,538.9520361423492,538.9520361423492,538.9520361423492,545.7565047740936,1,6.942711353302002,None,,,,,,,,,,,,,,,,,,147,4,2025-02-27_13h27.26.993,comp,2024.2.4,55.09990567748004,2025-02-27 13h27.44.524215 -0500,
76,76,0,filler_square,None,None,None,None,None,None,None,None,None,None,3,1.7874515056610107,None,,,,,0,0,0,0,0,76,76,179,545.7747874259949,,,,,,,,,,,,,,,,,,,,,,,,,,,,,,,,,,,,,,,,,,,,,,,,,,,,,,,,,,,,,,,,,,,,,,,,,,,,,,,,,63.93698113693844,114.64879998338245,85.58489895983112,105.67705865276633,124.65109582178566,124.65109582178566,2.1,2.11,-206,285,0,281,211,-270,545.7583160400391,545.7583928108215,545.7618067264557,545.7747874259949,545.9242603778839,545.9242603778839,545.9242603778839,545.9242603778839,545.9242603778839,545.9242603778839,545.9242603778839,547.5664501190186,3,1.7874515056610107,None,,,,,,,,,,,,,,,,,,147,4,2025-02-27_13h27.26.993,comp,2024.2.4,55.09990567748004,2025-02-27 13h27.44.524215 -0500,
77,77,0,critical,hwd,20.0,3.0,upper,200.0,125.0,125.0,200.0,141.0,141.0,2,9.604919910430908,None,,,,,0,0,0,0,0,77,77,105,547.5818762779236,,,,,,,,,,,,,,,,,,,,,,,,,,,,,,,,,,,,,,,,,,,,,,,,,,,,,,,,,,,,,,,,,,,,,,,,,,,,,,,,,200.0,125.0,125.0,200.0,141.0,141.0,3.0,3.1,-258,275,0,7,266,-269,547.5680110454559,547.5680885314941,547.5711243152618,547.5818762779236,547.7195029258728,547.7195029258728,547.7195029258728,547.7195029258728,547.7195029258728,547.7195029258728,547.7195029258728,557.1932063102722,2,9.604919910430908,None,,,,,,,,,,,,,,,,,,147,4,2025-02-27_13h27.26.993,comp,2024.2.4,55.09990567748004,2025-02-27 13h27.44.524215 -0500,
78,78,0,critical,hwd,35.0,3.0,lower,133.0,57.0,57.0,133.0,70.0,70.0,1,2.028681993484497,None,,,,,0,0,0,0,0,78,78,98,557.2076179981232,,,,,,,,,,,,,,,,,,,,,,,,,,,,,,,,,,,,,,,,,,,,,,,,,,,,,,,,,,,,,,,,,,,,,,,,,,,,,,,,,133.0,57.0,57.0,133.0,70.0,70.0,3.0,3.1,-191,257,0,18,198,-256,557.1947250366211,557.194849729538,557.1981747150421,557.2076179981232,557.3585660457611,557.3585660457611,557.3585660457611,557.3585660457611,557.3585660457611,557.3585660457611,557.3585660457611,559.2441077232361,1,2.028681993484497,None,,,,,,,,,,,,,,,,,,147,4,2025-02-27_13h27.26.993,comp,2024.2.4,55.09990567748004,2025-02-27 13h27.44.524215 -0500,
79,79,0,critical,dwh,35.0,1.0,upper,127.0,127.0,125.0,200.0,200.0,125.0,3,5.573285341262817,None,,,,,0,0,0,0,0,79,79,61,559.2606985569,,,,,,,,,,,,,,,,,,,,,,,,,,,,,,,,,,,,,,,,,,,,,,,,,,,,,,,,,,,,,,,,,,,,,,,,,,,,,,,,,127.0,127.0,125.0,200.0,200.0,125.0,1.0,1.3,220,-271,480,-254,738,-287,559.2457249164581,559.2458362579346,559.2493560314178,559.2606985569,559.4095413684845,559.4095413684845,559.4095413684845,559.4095413684845,559.4095413684845,559.4095413684845,559.4095413684845,564.8517575263977,3,5.573285341262817,None,,,,,,,,,,,,,,,,,,147,4,2025-02-27_13h27.26.993,comp,2024.2.4,55.09990567748004,2025-02-27 13h27.44.524215 -0500,
80,80,0,critical,dhw,35.0,4.0,upper,127.0,127.0,200.0,125.0,125.0,200.0,3,15.125921964645386,None,,,,,0,0,0,0,0,80,80,53,564.8690629005432,,,,,,,,,,,,,,,,,,,,,,,,,,,,,,,,,,,,,,,,,,,,,,,,,,,,,,,,,,,,,,,,,,,,,,,,,,,,,,,,,127.0,127.0,200.0,125.0,125.0,200.0,4.0,4.1,-222,-286,0,-17,258,-259,564.8532829284668,564.8533596992493,564.8563849925995,564.8690629005432,565.0132720470428,565.0132720470428,565.0132720470428,565.0132720470428,565.0132720470428,565.0132720470428,565.0132720470428,580.0002045631409,3,15.125921964645386,None,,,,,,,,,,,,,,,,,,147,4,2025-02-27_13h27.26.993,comp,2024.2.4,55.09990567748004,2025-02-27 13h27.44.524215 -0500,
81,81,0,critical,dhw,35.0,2.1,upper,127.0,127.0,200.0,125.0,125.0,200.0,2,9.369944095611572,None,,,,,0,0,0,0,0,81,81,25,580.0161271095276,,,,,,,,,,,,,,,,,,,,,,,,,,,,,,,,,,,,,,,,,,,,,,,,,,,,,,,,,,,,,,,,,,,,,,,,,,,,,,,,,127.0,127.0,200.0,125.0,125.0,200.0,2.1,2.12,-222,-284,0,-280,258,254,580.0018196105957,580.0018992424011,580.0054121017456,580.0161271095276,580.1739232540131,580.1739232540131,580.1739232540131,580.1739232540131,580.1739232540131,580.1739232540131,580.1739232540131,589.402937412262,2,9.369944095611572,None,,,,,,,,,,,,,,,,,,147,4,2025-02-27_13h27.26.993,comp,2024.2.4,55.09990567748004,2025-02-27 13h27.44.524215 -0500,
82,82,0,filler_square,None,None,None,None,None,None,None,None,None,None,1,7.967086315155029,None,,,,,0,0,0,0,0,82,82,198,589.4192967414856,,,,,,,,,,,,,,,,,,,,,,,,,,,,,,,,,,,,,,,,,,,,,,,,,,,,,,,,,,,,,,,,,,,,,,,,,,,,,,,,,131.66901418729705,131.66901418729705,57.911414710800095,96.11690454936854,62.34201944946765,95.09414953027942,4.0,4.2,-210,16,0,-274,192,9,589.4049072265625,589.4049837589264,589.4084112644196,589.4192967414856,589.5740950107574,589.5740950107574,589.5740950107574,589.5740950107574,589.5740950107574,589.5740950107574,589.5740950107574,597.388365983963,1,7.967086315155029,None,,,,,,,,,,,,,,,,,,147,4,2025-02-27_13h27.26.993,comp,2024.2.4,55.09990567748004,2025-02-27 13h27.44.524215 -0500,
83,83,0,critical,hwd,20.0,1.0,upper,200.0,125.0,125.0,200.0,141.0,141.0,2,10.86971640586853,None,,,,,0,0,0,0,0,83,83,103,597.404806137085,,,,,,,,,,,,,,,,,,,,,,,,,,,,,,,,,,,,,,,,,,,,,,,,,,,,,,,,,,,,,,,,,,,,,,,,,,,,,,,,,200.0,125.0,125.0,200.0,141.0,141.0,1.0,1.2,-258,10,0,-2,266,-6,597.3898289203644,597.3899049758911,597.393266916275,597.404806137085,597.5556259155273,597.5556259155273,597.5556259155273,597.5556259155273,597.5556259155273,597.5556259155273,597.5556259155273,608.2779614925385,2,10.86971640586853,None,,,,,,,,,,,,,,,,,,147,4,2025-02-27_13h27.26.993,comp,2024.2.4,55.09990567748004,2025-02-27 13h27.44.524215 -0500,
84,84,0,critical,wdh,35.0,2.1,upper,125.0,200.0,127.0,127.0,200.0,125.0,1,3.636157989501953,None,,,,,0,0,0,0,0,84,84,9,608.2940881252289,,,,,,,,,,,,,,,,,,,,,,,,,,,,,,,,,,,,,,,,,,,,,,,,,,,,,,,,,,,,,,,,,,,,,,,,,,,,,,,,,125.0,200.0,127.0,127.0,200.0,125.0,2.1,2.12,-260,-259,0,-263,222,289,608.2796659469604,608.2798290252686,608.2832810878754,608.2940881252289,608.4421377182007,608.4421377182007,608.4421377182007,608.4421377182007,608.4421377182007,608.4421377182007,608.4421377182007,611.9436819553375,1,3.636157989501953,None,,,,,,,,,,,,,,,,,,147,4,2025-02-27_13h27.26.993,comp,2024.2.4,55.09990567748004,2025-02-27 13h27.44.524215 -0500,
85,85,0,catch,None,None,None,None,None,None,None,None,None,None,3,2.2668850421905518,None,,,,,0,0,0,0,0,85,85,126,611.9599936008453,,,,,,,,,,,,,,,,,,,,,,,,,,,,,,,,,,,,,,,,,,,,,,,,,,,,,,,,,,,,,,,,,,,,,,,,,,,,,,,,,62,128,103,87,184,141,4.0,4.2,-204,12,0,-289,210,-9,611.9458503723145,611.9459309577942,611.9496376514435,611.9599936008453,612.1113464832306,612.1113464832306,612.1113464832306,612.1113464832306,612.1113464832306,612.1113464832306,612.1113464832306,614.232049703598,3,2.2668850421905518,None,,,,,,,,,,,,,,,,,,147,4,2025-02-27_13h27.26.993,comp,2024.2.4,55.09990567748004,2025-02-27 13h27.44.524215 -0500,
86,86,0,filler_random,None,None,None,None,None,None,None,None,None,None,1,13.472865581512451,None,,,,,0,0,0,0,0,86,86,136,614.249330997467,,,,,,,,,,,,,,,,,,,,,,,,,,,,,,,,,,,,,,,,,,,,,,,,,,,,,,,,,,,,,,,,,,,,,,,,,,,,,,,,,195.77043291274842,132.5701155710641,88.86906060053902,198.10937920173637,183.63404345654988,143.8988208496139,2.1,2.11,-261,289,0,264,267,-256,614.2340631484985,614.2341420650482,614.2378535270691,614.249330997467,614.3970029354095,614.3970029354095,614.3970029354095,614.3970029354095,614.3970029354095,614.3970029354095,614.3970029354095,627.7392811775208,1,13.472865581512451,None,,,,,,,,,,,,,,,,,,147,4,2025-02-27_13h27.26.993,comp,2024.2.4,55.09990567748004,2025-02-27 13h27.44.524215 -0500,
87,87,0,filler_square,None,None,None,None,None,None,None,None,None,None,1,1.2125535011291504,None,,,,,0,0,0,0,0,87,87,195,627.7575805187225,,,,,,,,,,,,,,,,,,,,,,,,,,,,,,,,,,,,,,,,,,,,,,,,,,,,,,,,,,,,,,,,,,,,,,,,,,,,,,,,,155.5593124748808,155.5593124748808,91.10282613115072,64.97699462462089,137.24078855130224,112.2884012599529,1.0,1.2,-206,5,0,-8,185,-10,627.741338968277,627.7414181232452,627.7448089122772,627.7575805187225,627.8995413780212,627.8995413780212,627.8995413780212,627.8995413780212,627.8995413780212,627.8995413780212,627.8995413780212,628.9812021255493,1,1.2125535011291504,None,,,,,,,,,,,,,,,,,,147,4,2025-02-27_13h27.26.993,comp,2024.2.4,55.09990567748004,2025-02-27 13h27.44.524215 -0500,
88,88,0,critical,wdh,20.0,1.0,upper,125.0,200.0,141.0,141.0,200.0,125.0,3,2.332568407058716,None,,,,,0,0,0,0,0,88,88,79,628.997652053833,,,,,,,,,,,,,,,,,,,,,,,,,,,,,,,,,,,,,,,,,,,,,,,,,,,,,,,,,,,,,,,,,,,,,,,,,,,,,,,,,125.0,200.0,141.0,141.0,200.0,125.0,1.0,1.1,-746,283,-480,254,-251,283,628.9827897548676,628.9828691482544,628.9861695766449,628.997652053833,629.148443698883,629.148443698883,629.148443698883,629.148443698883,629.148443698883,629.148443698883,629.148443698883,631.340588092804,3,2.332568407058716,None,,,,,,,,,,,,,,,,,,147,4,2025-02-27_13h27.26.993,comp,2024.2.4,55.09990567748004,2025-02-27 13h27.44.524215 -0500,
89,89,0,catch,None,None,None,None,None,None,None,None,None,None,2,1.0700633525848389,None,,,,,0,0,0,0,0,89,89,120,631.3562920093536,,,,,,,,,,,,,,,,,,,,,,,,,,,,,,,,,,,,,,,,,,,,,,,,,,,,,,,,,,,,,,,,,,,,,,,,,,,,,,,,,58,132,192,133,94,96,3.0,3.1,-228,261,0,19,210,-270,631.3424725532532,631.3425483703613,631.3455336093903,631.3562920093536,631.5003430843353,631.5003430843353,631.5003430843353,631.5003430843353,631.5003430843353,631.5003430843353,631.5003430843353,632.432168006897,2,1.0700633525848389,None,,,,,,,,,,,,,,,,,,147,4,2025-02-27_13h27.26.993,comp,2024.2.4,55.09990567748004,2025-02-27 13h27.44.524215 -0500,
90,90,0,critical,hdw,20.0,2.1,lower,133.0,57.0,78.0,78.0,57.0,133.0,1,1.7977592945098877,None,,,,,0,0,0,0,0,90,90,22,632.4525349140167,,,,,,,,,,,,,,,,,,,,,,,,,,,,,,,,,,,,,,,,,,,,,,,,,,,,,,,,,,,,,,,,,,,,,,,,,,,,,,,,,133.0,57.0,78.0,78.0,57.0,133.0,2.1,2.12,-164,-286,0,-250,202,284,632.4336493015289,632.4337236881256,632.4370014667511,632.4525349140167,632.6022872924805,632.6022872924805,632.6022872924805,632.6022872924805,632.6022872924805,632.6022872924805,632.6022872924805,634.2559666633606,1,1.7977592945098877,None,,,,,,,,,,,,,,,,,,147,4,2025-02-27_13h27.26.993,comp,2024.2.4,55.09990567748004,2025-02-27 13h27.44.524215 -0500,
91,91,0,catch,None,None,None,None,None,None,None,None,None,None,3,2.837756395339966,None,,,,,0,0,0,0,0,91,91,128,634.2766919136047,,,,,,,,,,,,,,,,,,,,,,,,,,,,,,,,,,,,,,,,,,,,,,,,,,,,,,,,,,,,,,,,,,,,,,,,,,,,,,,,,129,61,109,81,200,125,2.2,2.22,-167,282,0,-263,199,-261,634.257875919342,634.257954120636,634.2610235214233,634.2766919136047,634.418030500412,634.418030500412,634.418030500412,634.418030500412,634.418030500412,634.418030500412,634.418030500412,637.1189715862274,3,2.837756395339966,None,,,,,,,,,,,,,,,,,,147,4,2025-02-27_13h27.26.993,comp,2024.2.4,55.09990567748004,2025-02-27 13h27.44.524215 -0500,
92,92,0,filler_random,None,None,None,None,None,None,None,None,None,None,2,1.0342128276824951,None,,,,,0,0,0,0,0,92,92,135,637.1359374523163,,,,,,,,,,,,,,,,,,,,,,,,,,,,,,,,,,,,,,,,,,,,,,,,,,,,,,,,,,,,,,,,,,,,,,,,,,,,,,,,,106.67304608734858,70.37422333228352,192.74340948847757,186.32512722275766,188.3568922639917,68.58524482378657,2.1,2.11,-224,283,0,272,223,-254,637.1206851005554,637.1208205223083,637.1243126392365,637.1359374523163,637.2848923206329,637.2848923206329,637.2848923206329,637.2848923206329,637.2848923206329,637.2848923206329,637.2848923206329,638.1880793571472,2,1.0342128276824951,None,,,,,,,,,,,,,,,,,,147,4,2025-02-27_13h27.26.993,comp,2024.2.4,55.09990567748004,2025-02-27 13h27.44.524215 -0500,
93,93,0,critical,hdw,20.0,1.0,lower,133.0,57.0,78.0,78.0,57.0,133.0,1,1.9725093841552734,None,,,,,0,0,0,0,0,93,93,114,638.2073678970337,,,,,,,,,,,,,,,,,,,,,,,,,,,,,,,,,,,,,,,,,,,,,,,,,,,,,,,,,,,,,,,,,,,,,,,,,,,,,,,,,133.0,57.0,78.0,78.0,57.0,133.0,1.0,1.1,-644,264,-480,288,-278,266,638.1899147033691,638.1900496482849,638.193341255188,638.2073678970337,638.3542904853821,638.3542904853821,638.3542904853821,638.3542904853821,638.3542904853821,638.3542904853821,638.3542904853821,640.184796333313,1,1.9725093841552734,None,,,,,,,,,,,,,,,,,,147,4,2025-02-27_13h27.26.993,comp,2024.2.4,55.09990567748004,2025-02-27 13h27.44.524215 -0500,
94,94,0,critical,wdh,20.0,4.0,lower,57.0,133.0,78.0,78.0,133.0,57.0,3,2.2449240684509277,None,,,,,0,0,0,0,0,94,94,82,640.2054054737091,,,,,,,,,,,,,,,,,,,,,,,,,,,,,,,,,,,,,,,,,,,,,,,,,,,,,,,,,,,,,,,,,,,,,,,,,,,,,,,,,57.0,133.0,78.0,78.0,133.0,57.0,4.0,4.1,-202,-276,0,-17,164,-261,640.1863603591919,640.1864387989044,640.1898992061615,640.2054054737091,640.3522799015045,640.3522799015045,640.3522799015045,640.3522799015045,640.3522799015045,640.3522799015045,640.3522799015045,642.4682841300964,3,2.2449240684509277,None,,,,,,,,,,,,,,,,,,147,4,2025-02-27_13h27.26.993,comp,2024.2.4,55.09990567748004,2025-02-27 13h27.44.524215 -0500,
95,95,0,critical,dwh,20.0,4.0,upper,141.0,141.0,125.0,200.0,200.0,125.0,3,47.07084274291992,None,,,,,0,0,0,0,0,95,95,71,642.4842720031738,,,,,,,,,,,,,,,,,,,,,,,,,,,,,,,,,,,,,,,,,,,,,,,,,,,,,,,,,,,,,,,,,,,,,,,,,,,,,,,,,141.0,141.0,125.0,200.0,200.0,125.0,4.0,4.1,-266,-278,0,-17,258,-265,642.4697623252869,642.469842672348,642.472987651825,642.4842720031738,642.6339092254639,642.6339092254639,642.6339092254639,642.6339092254639,642.6339092254639,642.6339092254639,642.6339092254639,689.5689704418182,3,47.07084274291992,None,,,,,,,,,,,,,,,,,,147,4,2025-02-27_13h27.26.993,comp,2024.2.4,55.09990567748004,2025-02-27 13h27.44.524215 -0500,
96,96,0,filler_square,None,None,None,None,None,None,None,None,None,None,1,0.9097614288330078,None,,,,,0,0,0,0,0,96,96,177,689.5886473655701,,,,,,,,,,,,,,,,,,,,,,,,,,,,,,,,,,,,,,,,,,,,,,,,,,,,,,,,,,,,,,,,,,,,,,,,,,,,,,,,,123.11627621294926,123.11627621294926,107.32580122383234,82.58732828603465,97.62719630282376,76.665005946706,2.1,2.12,-199,-285,0,-258,176,278,689.5713973045349,689.5715336799622,689.5750722885132,689.5886473655701,689.7348034381866,689.7348034381866,689.7348034381866,689.7348034381866,689.7348034381866,689.7348034381866,689.7348034381866,690.5026907920837,1,0.9097614288330078,None,,,,,,,,,,,,,,,,,,147,4,2025-02-27_13h27.26.993,comp,2024.2.4,55.09990567748004,2025-02-27 13h27.44.524215 -0500,
97,97,0,critical,dhw,20.0,2.1,upper,141.0,141.0,200.0,125.0,125.0,200.0,2,2.996345281600952,None,,,,,0,0,0,0,0,97,97,3,690.5188634395599,,,,,,,,,,,,,,,,,,,,,,,,,,,,,,,,,,,,,,,,,,,,,,,,,,,,,,,,,,,,,,,,,,,,,,,,,,,,,,,,,141.0,141.0,200.0,125.0,125.0,200.0,2.1,2.11,-229,281,0,256,258,-255,690.504308462143,690.5043861865997,690.5080287456512,690.5188634395599,690.6705386638641,690.6705386638641,690.6705386638641,690.6705386638641,690.6705386638641,690.6705386638641,690.6705386638641,693.521591424942,2,2.996345281600952,None,,,,,,,,,,,,,,,,,,147,4,2025-02-27_13h27.26.993,comp,2024.2.4,55.09990567748004,2025-02-27 13h27.44.524215 -0500,
98,98,0,filler_random,None,None,None,None,None,None,None,None,None,None,3,1.1681623458862305,None,,,,,0,0,0,0,0,98,98,134,693.5382070541382,,,,,,,,,,,,,,,,,,,,,,,,,,,,,,,,,,,,,,,,,,,,,,,,,,,,,,,,,,,,,,,,,,,,,,,,,,,,,,,,,119.7842067452662,140.81618057549935,92.06196242536578,161.29277467989607,131.0009931285638,157.3735499987253,2.2,2.21,-247,-288,0,280,255,278,693.5236163139343,693.5236983299255,693.5272145271301,693.5382070541382,693.685555934906,693.685555934906,693.685555934906,693.685555934906,693.685555934906,693.685555934906,693.685555934906,694.7083294391632,3,1.1681623458862305,None,,,,,,,,,,,,,,,,,,147,4,2025-02-27_13h27.26.993,comp,2024.2.4,55.09990567748004,2025-02-27 13h27.44.524215 -0500,
99,99,0,filler_random,None,None,None,None,None,None,None,None,None,None,3,0.9820542335510254,None,,,,,0,0,0,0,0,99,99,131,694.7245347499847,,,,,,,,,,,,,,,,,,,,,,,,,,,,,,,,,,,,,,,,,,,,,,,,,,,,,,,,,,,,,,,,,,,,,,,,,,,,,,,,,111.10809178742008,127.3938024688644,147.29806214658203,126.17259283605522,180.79169156053757,174.92783569486483,2.1,2.12,-223,-283,0,-255,247,271,694.710150718689,694.7102558612823,694.7136301994324,694.7245347499847,694.8695554733276,694.8695554733276,694.8695554733276,694.8695554733276,694.8695554733276,694.8695554733276,694.8695554733276,695.7111277580261,3,0.9820542335510254,None,,,,,,,,,,,,,,,,,,147,4,2025-02-27_13h27.26.993,comp,2024.2.4,55.09990567748004,2025-02-27 13h27.44.524215 -0500,
100,100,0,filler_square,None,None,None,None,None,None,None,None,None,None,1,2.4193339347839355,None,,,,,0,0,0,0,0,100,100,208,695.7276165485382,,,,,,,,,,,,,,,,,,,,,,,,,,,,,,,,,,,,,,,,,,,,,,,,,,,,,,,,,,,,,,,,,,,,,,,,,,,,,,,,,102.42980074442733,102.42980074442733,99.9605412908421,81.75429390331126,61.976220714177714,67.93836835417332,1.0,1.2,-188,-12,0,14,171,18,695.7130906581879,695.7132291793823,695.7165620326996,695.7276165485382,695.8696880340576,695.8696880340576,695.8696880340576,695.8696880340576,695.8696880340576,695.8696880340576,695.8696880340576,698.1540334224701,1,2.4193339347839355,None,,,,,,,,,,,,,,,,,,147,4,2025-02-27_13h27.26.993,comp,2024.2.4,55.09990567748004,2025-02-27 13h27.44.524215 -0500,
101,101,0,critical,whd,35.0,1.0,lower,57.0,133.0,133.0,57.0,70.0,70.0,2,1.5533709526062012,None,,,,,0,0,0,0,0,101,101,84,698.1688616275787,,,,,,,,,,,,,,,,,,,,,,,,,,,,,,,,,,,,,,,,,,,,,,,,,,,,,,,,,,,,,,,,,,,,,,,,,,,,,,,,,57.0,133.0,133.0,57.0,70.0,70.0,1.0,1.3,289,-253,480,-282,640,-285,698.1556096076965,698.1556894779205,698.1590192317963,698.1688616275787,698.3216412067413,698.3216412067413,698.3216412067413,698.3216412067413,698.3216412067413,698.3216412067413,698.3216412067413,699.7387990951538,2,1.5533709526062012,None,,,,,,,,,,,,,,,,,,147,4,2025-02-27_13h27.26.993,comp,2024.2.4,55.09990567748004,2025-02-27 13h27.44.524215 -0500,
102,102,0,critical,dhw,20.0,2.1,upper,141.0,141.0,200.0,125.0,125.0,200.0,2,15.936153888702393,None,,,,,0,0,0,0,0,102,102,27,699.7543168067932,,,,,,,,,,,,,,,,,,,,,,,,,,,,,,,,,,,,,,,,,,,,,,,,,,,,,,,,,,,,,,,,,,,,,,,,,,,,,,,,,141.0,141.0,200.0,125.0,125.0,200.0,2.1,2.11,-229,274,0,262,258,-268,699.7403626441956,699.7404425144196,699.7440540790558,699.7543168067932,699.9043333530426,699.9043333530426,699.9043333530426,699.9043333530426,699.9043333530426,699.9043333530426,699.9043333530426,715.6943073272705,2,15.936153888702393,None,,,,,,,,,,,,,,,,,,147,4,2025-02-27_13h27.26.993,comp,2024.2.4,55.09990567748004,2025-02-27 13h27.44.524215 -0500,
103,103,0,critical,dwh,20.0,1.0,lower,78.0,78.0,57.0,133.0,133.0,57.0,3,3.0834338665008545,None,,,,,0,0,0,0,0,103,103,66,715.7112817764282,,,,,,,,,,,,,,,,,,,,,,,,,,,,,,,,,,,,,,,,,,,,,,,,,,,,,,,,,,,,,,,,,,,,,,,,,,,,,,,,,78.0,78.0,57.0,133.0,133.0,57.0,1.0,1.1,-682,273,-480,267,-289,254,715.6959924697876,715.6961193084717,715.6995768547058,715.7112817764282,715.8592641353607,715.8592641353607,715.8592641353607,715.8592641353607,715.8592641353607,715.8592641353607,715.8592641353607,718.8108191490173,3,3.0834338665008545,None,,,,,,,,,,,,,,,,,,147,4,2025-02-27_13h27.26.993,comp,2024.2.4,55.09990567748004,2025-02-27 13h27.44.524215 -0500,
104,104,0,filler_random,None,None,None,None,None,None,None,None,None,None,2,2.8955376148223877,None,,,,,0,0,0,0,0,104,104,149,718.8267769813538,,,,,,,,,,,,,,,,,,,,,,,,,,,,,,,,,,,,,,,,,,,,,,,,,,,,,,,,,,,,,,,,,,,,,,,,,,,,,,,,,123.2706622303531,174.70882915999528,173.99772904111924,161.55801681974222,117.58391325412151,120.94375941529267,2.2,2.21,-264,-261,0,283,237,265,718.812664270401,718.8128292560577,718.8164739608765,718.8267769813538,718.9752798080444,718.9752798080444,718.9752798080444,718.9752798080444,718.9752798080444,718.9752798080444,718.9752798080444,721.7413997650146,2,2.8955376148223877,None,,,,,,,,,,,,,,,,,,147,4,2025-02-27_13h27.26.993,comp,2024.2.4,55.09990567748004,2025-02-27 13h27.44.524215 -0500,
105,105,0,critical,wdh,35.0,3.0,upper,125.0,200.0,127.0,127.0,200.0,125.0,1,27.979797840118408,None,,,,,0,0,0,0,0,105,105,75,721.7586925029755,,,,,,,,,,,,,,,,,,,,,,,,,,,,,,,,,,,,,,,,,,,,,,,,,,,,,,,,,,,,,,,,,,,,,,,,,,,,,,,,,125.0,200.0,127.0,127.0,200.0,125.0,3.0,3.2,-260,-267,0,20,222,256,721.7429225444794,721.7429978847504,721.7461674213409,721.7586925029755,721.8936936855316,721.8936936855316,721.8936936855316,721.8936936855316,721.8936936855316,721.8936936855316,721.8936936855316,749.7541117668152,1,27.979797840118408,None,,,,,,,,,,,,,,,,,,147,4,2025-02-27_13h27.26.993,comp,2024.2.4,55.09990567748004,2025-02-27 13h27.44.524215 -0500,
106,106,0,critical,whd,20.0,2.1,upper,125.0,200.0,200.0,125.0,141.0,141.0,2,4.960452556610107,None,,,,,0,0,0,0,0,106,106,15,749.7705538272858,,,,,,,,,,,,,,,,,,,,,,,,,,,,,,,,,,,,,,,,,,,,,,,,,,,,,,,,,,,,,,,,,,,,,,,,,,,,,,,,,125.0,200.0,200.0,125.0,141.0,141.0,2.1,2.11,-258,281,0,254,229,-276,749.7557878494263,749.7559041976929,749.7593679428101,749.7705538272858,749.9238595962524,749.9238595962524,749.9238595962524,749.9238595962524,749.9238595962524,749.9238595962524,749.9238595962524,754.7384219169617,2,4.960452556610107,None,,,,,,,,,,,,,,,,,,147,4,2025-02-27_13h27.26.993,comp,2024.2.4,55.09990567748004,2025-02-27 13h27.44.524215 -0500,
107,107,0,critical,dhw,20.0,3.0,upper,141.0,141.0,200.0,125.0,125.0,200.0,3,3.817495107650757,None,,,,,0,0,0,0,0,107,107,57,754.7536082267761,,,,,,,,,,,,,,,,,,,,,,,,,,,,,,,,,,,,,,,,,,,,,,,,,,,,,,,,,,,,,,,,,,,,,,,,,,,,,,,,,141.0,141.0,200.0,125.0,125.0,200.0,3.0,3.2,-229,-258,0,2,258,273,754.7401285171509,754.7402215003967,754.7438750267029,754.7536082267761,754.9040455818176,754.9040455818176,754.9040455818176,754.9040455818176,754.9040455818176,754.9040455818176,754.9040455818176,758.5733819007874,3,3.817495107650757,None,,,,,,,,,,,,,,,,,,147,4,2025-02-27_13h27.26.993,comp,2024.2.4,55.09990567748004,2025-02-27 13h27.44.524215 -0500,
108,108,0,filler_square,None,None,None,None,None,None,None,None,None,None,1,1.148423433303833,None,,,,,0,0,0,0,0,108,108,184,758.5901205539703,,,,,,,,,,,,,,,,,,,,,,,,,,,,,,,,,,,,,,,,,,,,,,,,,,,,,,,,,,,,,,,,,,,,,,,,,,,,,,,,,198.58387156110194,198.58387156110194,155.9690966767923,131.95733576116942,183.96645283979657,137.25951782480166,2.2,2.22,-261,279,0,-283,231,-282,758.5751988887787,758.5752801895142,758.579297542572,758.5901205539703,758.7364423274994,758.7364423274994,758.7364423274994,758.7364423274994,758.7364423274994,758.7364423274994,758.7364423274994,759.7561440467834,1,1.148423433303833,None,,,,,,,,,,,,,,,,,,147,4,2025-02-27_13h27.26.993,comp,2024.2.4,55.09990567748004,2025-02-27 13h27.44.524215 -0500,
109,109,0,critical,hwd,35.0,3.0,upper,200.0,125.0,125.0,200.0,127.0,127.0,1,10.963274478912354,None,,,,,0,0,0,0,0,109,109,99,759.7749443054199,,,,,,,,,,,,,,,,,,,,,,,,,,,,,,,,,,,,,,,,,,,,,,,,,,,,,,,,,,,,,,,,,,,,,,,,,,,,,,,,,200.0,125.0,125.0,200.0,127.0,127.0,3.0,3.2,-258,-258,0,-7,260,265,759.7576506137848,759.7577295303345,759.7610754966736,759.7749443054199,759.9218220710754,759.9218220710754,759.9218220710754,759.9218220710754,759.9218220710754,759.9218220710754,759.9218220710754,770.75004529953,1,10.963274478912354,None,,,,,,,,,,,,,,,,,,147,4,2025-02-27_13h27.26.993,comp,2024.2.4,55.09990567748004,2025-02-27 13h27.44.524215 -0500,
110,110,0,critical,wdh,20.0,1.0,lower,57.0,133.0,78.0,78.0,133.0,57.0,3,8.652990818023682,None,,,,,0,0,0,0,0,110,110,78,770.7660510540009,,,,,,,,,,,,,,,,,,,,,,,,,,,,,,,,,,,,,,,,,,,,,,,,,,,,,,,,,,,,,,,,,,,,,,,,,,,,,,,,,57.0,133.0,78.0,78.0,133.0,57.0,1.0,1.3,278,-263,480,-276,644,-276,770.7516460418701,770.751720905304,770.7551515102386,770.7660510540009,770.9102900028229,770.9102900028229,770.9102900028229,770.9102900028229,770.9102900028229,770.9102900028229,770.9102900028229,779.430415391922,3,8.652990818023682,None,,,,,,,,,,,,,,,,,,147,4,2025-02-27_13h27.26.993,comp,2024.2.4,55.09990567748004,2025-02-27 13h27.44.524215 -0500,
111,111,0,critical,hdw,35.0,1.0,lower,133.0,57.0,70.0,70.0,57.0,133.0,1,6.851733922958374,None,,,,,0,0,0,0,0,111,111,108,779.4465534687042,,,,,,,,,,,,,,,,,,,,,,,,,,,,,,,,,,,,,,,,,,,,,,,,,,,,,,,,,,,,,,,,,,,,,,,,,,,,,,,,,133.0,57.0,70.0,70.0,57.0,133.0,1.0,1.3,320,-255,480,-282,678,-260,779.4320435523987,779.432126045227,779.4357099533081,779.4465534687042,779.6024782657623,779.6024782657623,779.6024782657623,779.6024782657623,779.6024782657623,779.6024782657623,779.6024782657623,786.3188345432281,1,6.851733922958374,None,,,,,,,,,,,,,,,,,,147,4,2025-02-27_13h27.26.993,comp,2024.2.4,55.09990567748004,2025-02-27 13h27.44.524215 -0500,
112,112,0,filler_square,None,None,None,None,None,None,None,None,None,None,3,11.386178255081177,None,,,,,0,0,0,0,0,112,112,205,786.3386287689209,,,,,,,,,,,,,,,,,,,,,,,,,,,,,,,,,,,,,,,,,,,,,,,,,,,,,,,,,,,,,,,,,,,,,,,,,,,,,,,,,57.90121307190998,62.02648528590708,63.129821482405205,63.129821482405205,62.87456791343682,61.94374493389451,3.0,3.1,-159,274,0,15,159,-261,786.320643901825,786.320723772049,786.3238890171051,786.3386287689209,786.4828443527222,786.4828443527222,786.4828443527222,786.4828443527222,786.4828443527222,786.4828443527222,786.4828443527222,797.73619556427,3,11.386178255081177,None,,,,,,,,,,,,,,,,,,147,4,2025-02-27_13h27.26.993,comp,2024.2.4,55.09990567748004,2025-02-27 13h27.44.524215 -0500,
113,113,0,critical,dhw,20.0,1.0,upper,141.0,141.0,200.0,125.0,125.0,200.0,2,7.33779239654541,None,,,,,0,0,0,0,0,113,113,55,797.7525129318237,,,,,,,,,,,,,,,,,,,,,,,,,,,,,,,,,,,,,,,,,,,,,,,,,,,,,,,,,,,,,,,,,,,,,,,,,,,,,,,,,141.0,141.0,200.0,125.0,125.0,200.0,1.0,1.2,-229,-15,0,9,258,-6,797.7377264499664,797.7378849983215,797.7416410446167,797.7525129318237,797.9043884277344,797.9043884277344,797.9043884277344,797.9043884277344,797.9043884277344,797.9043884277344,797.9043884277344,805.106379032135,2,7.33779239654541,None,,,,,,,,,,,,,,,,,,147,4,2025-02-27_13h27.26.993,comp,2024.2.4,55.09990567748004,2025-02-27 13h27.44.524215 -0500,
114,114,0,critical,whd,20.0,2.1,lower,57.0,133.0,133.0,57.0,78.0,78.0,2,1.6793649196624756,None,,,,,0,0,0,0,0,114,114,14,805.1229529380798,,,,,,,,,,,,,,,,,,,,,,,,,,,,,,,,,,,,,,,,,,,,,,,,,,,,,,,,,,,,,,,,,,,,,,,,,,,,,,,,,57.0,133.0,133.0,57.0,78.0,78.0,2.1,2.12,-191,-272,0,-280,164,260,805.1081159114838,805.1081967353821,805.1122298240662,805.1229529380798,805.2672352790833,805.2672352790833,805.2672352790833,805.2672352790833,805.2672352790833,805.2672352790833,805.2672352790833,806.8058347702026,2,1.6793649196624756,None,,,,,,,,,,,,,,,,,,147,4,2025-02-27_13h27.26.993,comp,2024.2.4,55.09990567748004,2025-02-27 13h27.44.524215 -0500,
115,115,0,filler_random,None,None,None,None,None,None,None,None,None,None,1,3.4289987087249756,None,,,,,0,0,0,0,0,115,115,163,806.8218791484833,,,,,,,,,,,,,,,,,,,,,,,,,,,,,,,,,,,,,,,,,,,,,,,,,,,,,,,,,,,,,,,,,,,,,,,,,,,,,,,,,170.38539003124004,175.88029379959954,150.69376005905707,102.08396000045269,146.64206954402846,164.8979681812105,1.0,1.1,-715,255,-480,270,-251,289,806.8076570034027,806.8077683448792,806.8110971450806,806.8218791484833,806.9704265594482,806.9704265594482,806.9704265594482,806.9704265594482,806.9704265594482,806.9704265594482,806.9704265594482,810.2720241546631,1,3.4289987087249756,None,,,,,,,,,,,,,,,,,,147,4,2025-02-27_13h27.26.993,comp,2024.2.4,55.09990567748004,2025-02-27 13h27.44.524215 -0500,
116,116,0,filler_random,None,None,None,None,None,None,None,None,None,None,2,3.154674768447876,None,,,,,0,0,0,0,0,116,116,168,810.2877306938171,,,,,,,,,,,,,,,,,,,,,,,,,,,,,,,,,,,,,,,,,,,,,,,,,,,,,,,,,,,,,,,,,,,,,,,,,,,,,,,,,142.59310731686446,160.3941442912158,155.42887838109664,151.43954009195573,120.41376856100682,112.7938874903603,2.2,2.22,-252,252,0,-252,228,-285,810.2737858295441,810.2738945484161,810.2773044109344,810.2877306938171,810.4415416717529,810.4415416717529,810.4415416717529,810.4415416717529,810.4415416717529,810.4415416717529,810.4415416717529,813.4567973613739,2,3.154674768447876,None,,,,,,,,,,,,,,,,,,147,4,2025-02-27_13h27.26.993,comp,2024.2.4,55.09990567748004,2025-02-27 13h27.44.524215 -0500,
117,117,0,critical,hwd,35.0,1.0,upper,200.0,125.0,125.0,200.0,127.0,127.0,2,3.785404920578003,None,,,,,0,0,0,0,0,117,117,97,813.4732315540314,,,,,,,,,,,,,,,,,,,,,,,,,,,,,,,,,,,,,,,,,,,,,,,,,,,,,,,,,,,,,,,,,,,,,,,,,,,,,,,,,200.0,125.0,125.0,200.0,127.0,127.0,1.0,1.1,-738,278,-480,274,-220,281,813.458313703537,813.4583892822266,813.462557554245,813.4732315540314,813.6225943565369,813.6225943565369,813.6225943565369,813.6225943565369,813.6225943565369,813.6225943565369,813.6225943565369,817.2757127285004,2,3.785404920578003,None,,,,,,,,,,,,,,,,,,147,4,2025-02-27_13h27.26.993,comp,2024.2.4,55.09990567748004,2025-02-27 13h27.44.524215 -0500,
118,118,0,critical,dhw,35.0,4.0,lower,70.0,70.0,133.0,57.0,57.0,133.0,2,2.0710809230804443,None,,,,,0,0,0,0,0,118,118,52,817.2916660308838,,,,,,,,,,,,,,,,,,,,,,,,,,,,,,,,,,,,,,,,,,,,,,,,,,,,,,,,,,,,,,,,,,,,,,,,,,,,,,,,,70.0,70.0,133.0,57.0,57.0,133.0,4.0,4.2,-160,-1,0,-289,191,7,817.2774047851562,817.2775444984436,817.2811472415924,817.2916660308838,817.4428052902222,817.4428052902222,817.4428052902222,817.4428052902222,817.4428052902222,817.4428052902222,817.4428052902222,819.3659665584564,2,2.0710809230804443,None,,,,,,,,,,,,,,,,,,147,4,2025-02-27_13h27.26.993,comp,2024.2.4,55.09990567748004,2025-02-27 13h27.44.524215 -0500,
119,119,0,critical,hdw,35.0,4.0,upper,200.0,125.0,127.0,127.0,125.0,200.0,3,10.74668836593628,None,,,,,0,0,0,0,0,119,119,113,819.3838560581207,,,,,,,,,,,,,,,,,,,,,,,,,,,,,,,,,,,,,,,,,,,,,,,,,,,,,,,,,,,,,,,,,,,,,,,,,,,,,,,,,200.0,125.0,127.0,127.0,125.0,200.0,4.0,4.2,-222,-3,0,-277,260,6,819.3675100803375,819.3675882816315,819.3706181049347,819.3838560581207,819.5260384082794,819.5260384082794,819.5260384082794,819.5260384082794,819.5260384082794,819.5260384082794,819.5260384082794,830.1334292888641,3,10.74668836593628,None,,,,,,,,,,,,,,,,,,147,4,2025-02-27_13h27.26.993,comp,2024.2.4,55.09990567748004,2025-02-27 13h27.44.524215 -0500,
120,120,0,critical,hwd,20.0,2.1,upper,200.0,125.0,125.0,200.0,141.0,141.0,2,31.841139316558838,None,,,,,0,0,0,0,0,120,120,19,830.15407371521,,,,,,,,,,,,,,,,,,,,,,,,,,,,,,,,,,,,,,,,,,,,,,,,,,,,,,,,,,,,,,,,,,,,,,,,,,,,,,,,,200.0,125.0,125.0,200.0,141.0,141.0,2.1,2.11,-258,286,0,257,266,-266,830.1350972652435,830.1352100372314,830.1383557319641,830.15407371521,830.2960574626923,830.2960574626923,830.2960574626923,830.2960574626923,830.2960574626923,830.2960574626923,830.2960574626923,862.0022337436676,2,31.841139316558838,None,,,,,,,,,,,,,,,,,,147,4,2025-02-27_13h27.26.993,comp,2024.2.4,55.09990567748004,2025-02-27 13h27.44.524215 -0500,
121,121,0,critical,dwh,20.0,3.0,lower,78.0,78.0,57.0,133.0,133.0,57.0,3,3.3191795349121094,None,,,,,0,0,0,0,0,121,121,68,862.0192127227783,,,,,,,,,,,,,,,,,,,,,,,,,,,,,,,,,,,,,,,,,,,,,,,,,,,,,,,,,,,,,,,,,,,,,,,,,,,,,,,,,78.0,78.0,57.0,133.0,133.0,57.0,3.0,3.2,-202,-272,0,-20,191,273,862.0038251876831,862.0039014816284,862.0073630809784,862.0192127227783,862.1575040817261,862.1575040817261,862.1575040817261,862.1575040817261,862.1575040817261,862.1575040817261,862.1575040817261,865.3404018878937,3,3.3191795349121094,None,,,,,,,,,,,,,,,,,,147,4,2025-02-27_13h27.26.993,comp,2024.2.4,55.09990567748004,2025-02-27 13h27.44.524215 -0500,
122,122,0,filler_random,None,None,None,None,None,None,None,None,None,None,3,2.2459468841552734,None,,,,,0,0,0,0,0,122,122,145,865.3572928905487,,,,,,,,,,,,,,,,,,,,,,,,,,,,,,,,,,,,,,,,,,,,,,,,,,,,,,,,,,,,,,,,,,,,,,,,,,,,,,,,,66.75967676164892,127.19216361406434,114.15574280231496,62.71299290026066,135.3279982806212,96.20744545562273,2.1,2.12,-191,-259,0,-257,175,275,865.3423290252686,865.342447757721,865.3464825153351,865.3572928905487,865.5069875717163,865.5069875717163,865.5069875717163,865.5069875717163,865.5069875717163,865.5069875717163,865.5069875717163,867.6092987060547,3,2.2459468841552734,None,,,,,,,,,,,,,,,,,,147,4,2025-02-27_13h27.26.993,comp,2024.2.4,55.09990567748004,2025-02-27 13h27.44.524215 -0500,
123,123,0,filler_random,None,None,None,None,None,None,None,None,None,None,3,2.111517906188965,None,,,,,0,0,0,0,0,123,123,169,867.6272211074829,,,,,,,,,,,,,,,,,,,,,,,,,,,,,,,,,,,,,,,,,,,,,,,,,,,,,,,,,,,,,,,,,,,,,,,,,,,,,,,,,177.9942622232407,101.169974541731,59.978759240445505,94.49119376925952,180.29973542998013,164.2841461134248,1.0,1.2,-194,-1,0,5,225,5,867.6113541126251,867.6114418506622,867.6150410175323,867.6272211074829,867.7767059803009,867.7767059803009,867.7767059803009,867.7767059803009,867.7767059803009,867.7767059803009,867.7767059803009,869.7589251995087,3,2.111517906188965,None,,,,,,,,,,,,,,,,,,147,4,2025-02-27_13h27.26.993,comp,2024.2.4,55.09990567748004,2025-02-27 13h27.44.524215 -0500,
124,124,0,critical,dwh,20.0,2.1,lower,78.0,78.0,57.0,133.0,133.0,57.0,3,1.593026876449585,None,,,,,0,0,0,0,0,124,124,30,869.778154373169,,,,,,,,,,,,,,,,,,,,,,,,,,,,,,,,,,,,,,,,,,,,,,,,,,,,,,,,,,,,,,,,,,,,,,,,,,,,,,,,,78.0,78.0,57.0,133.0,133.0,57.0,2.1,2.11,-202,265,0,252,191,-256,869.7605812549591,869.7606558799744,869.7641999721527,869.778154373169,869.9251716136932,869.9251716136932,869.9251716136932,869.9251716136932,869.9251716136932,869.9251716136932,869.9251716136932,871.3775742053986,3,1.593026876449585,None,,,,,,,,,,,,,,,,,,147,4,2025-02-27_13h27.26.993,comp,2024.2.4,55.09990567748004,2025-02-27 13h27.44.524215 -0500,
125,125,0,filler_square,None,None,None,None,None,None,None,None,None,None,3,1.0312812328338623,None,,,,,0,0,0,0,0,125,125,193,871.3951787948608,,,,,,,,,,,,,,,,,,,,,,,,,,,,,,,,,,,,,,,,,,,,,,,,,,,,,,,,,,,,,,,,,,,,,,,,,,,,,,,,,58.40949080679219,81.12118270309871,71.63558651973126,92.70407422489865,151.6495124127137,151.6495124127137,2.2,2.21,-183,-280,0,271,218,252,871.379549741745,871.3796281814575,871.3830983638763,871.3951787948608,871.5392746925354,871.5392746925354,871.5392746925354,871.5392746925354,871.5392746925354,871.5392746925354,871.5392746925354,872.4424076080322,3,1.0312812328338623,None,,,,,,,,,,,,,,,,,,147,4,2025-02-27_13h27.26.993,comp,2024.2.4,55.09990567748004,2025-02-27 13h27.44.524215 -0500,
126,126,0,filler_square,None,None,None,None,None,None,None,None,None,None,2,1.5234143733978271,None,,,,,0,0,0,0,0,126,126,180,872.463662147522,,,,,,,,,,,,,,,,,,,,,,,,,,,,,,,,,,,,,,,,,,,,,,,,,,,,,,,,,,,,,,,,,,,,,,,,,,,,,,,,,176.20259916172665,171.39436622529956,195.53089007188623,195.53089007188623,138.72124504158478,61.67958041975585,4.0,4.2,-279,8,0,-274,225,8,872.4442021846771,872.4442789554596,872.4474551677704,872.463662147522,872.6058144569397,872.6058144569397,872.6058144569397,872.6058144569397,872.6058144569397,872.6058144569397,872.6058144569397,873.9933187961578,2,1.5234143733978271,None,,,,,,,,,,,,,,,,,,147,4,2025-02-27_13h27.26.993,comp,2024.2.4,55.09990567748004,2025-02-27 13h27.44.524215 -0500,
127,127,0,critical,whd,35.0,3.0,lower,57.0,133.0,133.0,57.0,70.0,70.0,2,4.44099497795105,None,,,,,0,0,0,0,0,127,127,86,874.0094904899597,,,,,,,,,,,,,,,,,,,,,,,,,,,,,,,,,,,,,,,,,,,,,,,,,,,,,,,,,,,,,,,,,,,,,,,,,,,,,,,,,57.0,133.0,133.0,57.0,70.0,70.0,3.0,3.2,-191,-287,0,-16,160,267,873.9949214458466,873.9950022697449,873.9986429214478,874.0094904899597,874.1581184864044,874.1581184864044,874.1581184864044,874.1581184864044,874.1581184864044,874.1581184864044,874.1581184864044,878.4696681499481,2,4.44099497795105,None,,,,,,,,,,,,,,,,,,147,4,2025-02-27_13h27.26.993,comp,2024.2.4,55.09990567748004,2025-02-27 13h27.44.524215 -0500,
128,128,0,critical,dwh,20.0,2.1,upper,141.0,141.0,125.0,200.0,200.0,125.0,2,4.1050732135772705,None,,,,,0,0,0,0,0,128,128,31,878.4895045757294,,,,,,,,,,,,,,,,,,,,,,,,,,,,,,,,,,,,,,,,,,,,,,,,,,,,,,,,,,,,,,,,,,,,,,,,,,,,,,,,,141.0,141.0,125.0,200.0,200.0,125.0,2.1,2.12,-266,-267,0,-281,258,261,878.4711780548096,878.4712517261505,878.4743013381958,878.4895045757294,878.6280169487,878.6280169487,878.6280169487,878.6280169487,878.6280169487,878.6280169487,878.6280169487,882.6112260818481,2,4.1050732135772705,None,,,,,,,,,,,,,,,,,,147,4,2025-02-27_13h27.26.993,comp,2024.2.4,55.09990567748004,2025-02-27 13h27.44.524215 -0500,
129,129,0,filler_random,None,None,None,None,None,None,None,None,None,None,3,1.9441306591033936,None,,,,,0,0,0,0,0,129,129,152,882.6271698474884,,,,,,,,,,,,,,,,,,,,,,,,,,,,,,,,,,,,,,,,,,,,,,,,,,,,,,,,,,,,,,,,,,,,,,,,,,,,,,,,,124.85309033579811,186.55643154031165,100.51775650785342,125.01595281592544,167.7171012807248,168.57641989785043,1.0,1.3,228,-254,480,-264,723,-253,882.6128611564636,882.6129395961761,882.6162109375,882.6271698474884,882.7833294868469,882.7833294868469,882.7833294868469,882.7833294868469,882.7833294868469,882.7833294868469,882.7833294868469,884.5820610523224,3,1.9441306591033936,None,,,,,,,,,,,,,,,,,,147,4,2025-02-27_13h27.26.993,comp,2024.2.4,55.09990567748004,2025-02-27 13h27.44.524215 -0500,
130,130,0,critical,dwh,35.0,4.0,upper,127.0,127.0,125.0,200.0,200.0,125.0,3,3.1583664417266846,None,,,,,0,0,0,0,0,130,130,65,884.5986218452454,,,,,,,,,,,,,,,,,,,,,,,,,,,,,,,,,,,,,,,,,,,,,,,,,,,,,,,,,,,,,,,,,,,,,,,,,,,,,,,,,127.0,127.0,125.0,200.0,200.0,125.0,4.0,4.1,-260,-273,0,20,258,-267,884.5838491916656,884.5839791297913,884.5877554416656,884.5986218452454,884.7485318183899,884.7485318183899,884.7485318183899,884.7485318183899,884.7485318183899,884.7485318183899,884.7485318183899,887.7620058059692,3,3.1583664417266846,None,,,,,,,,,,,,,,,,,,147,4,2025-02-27_13h27.26.993,comp,2024.2.4,55.09990567748004,2025-02-27 13h27.44.524215 -0500,
131,131,0,critical,hdw,35.0,3.0,lower,133.0,57.0,70.0,70.0,57.0,133.0,1,2.087974786758423,None,,,,,0,0,0,0,0,131,131,110,887.778461933136,,,,,,,,,,,,,,,,,,,,,,,,,,,,,,,,,,,,,,,,,,,,,,,,,,,,,,,,,,,,,,,,,,,,,,,,,,,,,,,,,133.0,57.0,70.0,70.0,57.0,133.0,3.0,3.2,-160,-251,0,7,198,262,887.7635097503662,887.7635889053345,887.7668151855469,887.778461933136,887.9311120510101,887.9311120510101,887.9311120510101,887.9311120510101,887.9311120510101,887.9311120510101,887.9311120510101,889.8831844329834,1,2.087974786758423,None,,,,,,,,,,,,,,,,,,147,4,2025-02-27_13h27.26.993,comp,2024.2.4,55.09990567748004,2025-02-27 13h27.44.524215 -0500,
132,132,0,critical,wdh,35.0,4.0,lower,57.0,133.0,70.0,70.0,133.0,57.0,3,2.3553366661071777,None,,,,,0,0,0,0,0,132,132,76,889.9038727283478,,,,,,,,,,,,,,,,,,,,,,,,,,,,,,,,,,,,,,,,,,,,,,,,,,,,,,,,,,,,,,,,,,,,,,,,,,,,,,,,,57.0,133.0,70.0,70.0,133.0,57.0,4.0,4.2,-198,-10,0,-268,160,-4,889.8850562572479,889.88516497612,889.8885481357574,889.9038727283478,890.0486397743225,890.0486397743225,890.0486397743225,890.0486397743225,890.0486397743225,890.0486397743225,890.0486397743225,892.2661385536194,3,2.3553366661071777,None,,,,,,,,,,,,,,,,,,147,4,2025-02-27_13h27.26.993,comp,2024.2.4,55.09990567748004,2025-02-27 13h27.44.524215 -0500,
133,133,0,catch,None,None,None,None,None,None,None,None,None,None,3,3.264396905899048,None,,,,,0,0,0,0,0,133,133,122,892.2823357582092,,,,,,,,,,,,,,,,,,,,,,,,,,,,,,,,,,,,,,,,,,,,,,,,,,,,,,,,,,,,,,,,,,,,,,,,,,,,,,,,,91,99,65,125,152,173,3.0,3.1,-208,251,0,14,245,-288,892.2681901454926,892.2682752609253,892.2716329097748,892.2823357582092,892.4306626319885,892.4306626319885,892.4306626319885,892.4306626319885,892.4306626319885,892.4306626319885,892.4306626319885,895.5512411594391,3,3.264396905899048,None,,,,,,,,,,,,,,,,,,147,4,2025-02-27_13h27.26.993,comp,2024.2.4,55.09990567748004,2025-02-27 13h27.44.524215 -0500,
134,134,0,critical,whd,35.0,3.0,upper,125.0,200.0,200.0,125.0,127.0,127.0,1,5.563305616378784,None,,,,,0,0,0,0,0,134,134,87,895.5678555965424,,,,,,,,,,,,,,,,,,,,,,,,,,,,,,,,,,,,,,,,,,,,,,,,,,,,,,,,,,,,,,,,,,,,,,,,,,,,,,,,,125.0,200.0,200.0,125.0,127.0,127.0,3.0,3.2,-258,-253,0,8,222,252,895.5529932975769,895.5531299114227,895.5566844940186,895.5678555965424,895.714145898819,895.714145898819,895.714145898819,895.714145898819,895.714145898819,895.714145898819,895.714145898819,901.1391892433167,1,5.563305616378784,None,,,,,,,,,,,,,,,,,,147,4,2025-02-27_13h27.26.993,comp,2024.2.4,55.09990567748004,2025-02-27 13h27.44.524215 -0500,
135,135,0,critical,hwd,20.0,2.1,upper,200.0,125.0,125.0,200.0,141.0,141.0,2,8.716225624084473,None,,,,,0,0,0,0,0,135,135,43,901.1582272052765,,,,,,,,,,,,,,,,,,,,,,,,,,,,,,,,,,,,,,,,,,,,,,,,,,,,,,,,,,,,,,,,,,,,,,,,,,,,,,,,,200.0,125.0,125.0,200.0,141.0,141.0,2.1,2.12,-258,-257,0,-255,266,276,901.1406879425049,901.1407868862152,901.1437826156616,901.1582272052765,901.3015763759613,901.3015763759613,901.3015763759613,901.3015763759613,901.3015763759613,901.3015763759613,901.3015763759613,909.8882946968079,2,8.716225624084473,None,,,,,,,,,,,,,,,,,,147,4,2025-02-27_13h27.26.993,comp,2024.2.4,55.09990567748004,2025-02-27 13h27.44.524215 -0500,
136,136,0,filler_random,None,None,None,None,None,None,None,None,None,None,2,1.6320288181304932,None,,,,,0,0,0,0,0,136,136,139,909.9065020084381,,,,,,,,,,,,,,,,,,,,,,,,,,,,,,,,,,,,,,,,,,,,,,,,,,,,,,,,,,,,,,,,,,,,,,,,,,,,,,,,,69.71401896025979,181.90760236677625,122.69230322535675,186.0548646350044,143.1802337008861,142.18569649201487,2.1,2.11,-280,271,0,271,260,-270,909.8899443149567,909.8900697231293,909.8939950466156,909.9065020084381,910.0632431507111,910.0632431507111,910.0632431507111,910.0632431507111,910.0632431507111,910.0632431507111,910.0632431507111,911.554000377655,2,1.6320288181304932,None,,,,,,,,,,,,,,,,,,147,4,2025-02-27_13h27.26.993,comp,2024.2.4,55.09990567748004,2025-02-27 13h27.44.524215 -0500,
137,137,0,filler_random,None,None,None,None,None,None,None,None,None,None,3,1.0166370868682861,None,,,,,0,0,0,0,0,137,137,147,911.5697717666626,,,,,,,,,,,,,,,,,,,,,,,,,,,,,,,,,,,,,,,,,,,,,,,,,,,,,,,,,,,,,,,,,,,,,,,,,,,,,,,,,62.533341335762955,80.74122155997321,101.66668056693358,101.8162835969849,187.425435310777,195.72460582824462,1.0,1.1,-667,270,-480,255,-235,276,911.5557959079742,911.5559346675873,911.5594062805176,911.5697717666626,911.7218732833862,911.7218732833862,911.7218732833862,911.7218732833862,911.7218732833862,911.7218732833862,911.7218732833862,912.5908896923065,3,1.0166370868682861,None,,,,,,,,,,,,,,,,,,147,4,2025-02-27_13h27.26.993,comp,2024.2.4,55.09990567748004,2025-02-27 13h27.44.524215 -0500,
138,138,0,critical,dwh,20.0,2.1,upper,141.0,141.0,125.0,200.0,200.0,125.0,3,8.651066780090332,None,,,,,0,0,0,0,0,138,138,7,912.60737657547,,,,,,,,,,,,,,,,,,,,,,,,,,,,,,,,,,,,,,,,,,,,,,,,,,,,,,,,,,,,,,,,,,,,,,,,,,,,,,,,,141.0,141.0,125.0,200.0,200.0,125.0,2.1,2.12,-266,-254,0,-278,258,256,912.5925424098969,912.5926203727722,912.5966167449951,912.60737657547,912.7535314559937,912.7535314559937,912.7535314559937,912.7535314559937,912.7535314559937,912.7535314559937,912.7535314559937,921.2745416164398,3,8.651066780090332,None,,,,,,,,,,,,,,,,,,147,4,2025-02-27_13h27.26.993,comp,2024.2.4,55.09990567748004,2025-02-27 13h27.44.524215 -0500,
139,139,0,filler_square,None,None,None,None,None,None,None,None,None,None,3,1.2152082920074463,None,,,,,0,0,0,0,0,139,139,189,921.2852940559387,,,,,,,,,,,,,,,,,,,,,,,,,,,,,,,,,,,,,,,,,,,,,,,,,,,,,,,,,,,,,,,,,,,,,,,,,,,,,,,,,142.31261411269102,144.85339918410943,76.53511578701084,101.30151587672651,160.82906817100263,160.82906817100263,3.0,3.2,-219,-262,0,19,227,281,921.2753071784973,921.2753386497498,921.2765321731567,921.2852940559387,921.4414784908295,921.4414784908295,921.4414784908295,921.4414784908295,921.4414784908295,921.4414784908295,921.4414784908295,922.5059461593628,3,1.2152082920074463,None,,,,,,,,,,,,,,,,,,147,4,2025-02-27_13h27.26.993,comp,2024.2.4,55.09990567748004,2025-02-27 13h27.44.524215 -0500,
140,140,0,filler_random,None,None,None,None,None,None,None,None,None,None,2,4.839813232421875,None,,,,,0,0,0,0,0,140,140,165,922.5226521492004,,,,,,,,,,,,,,,,,,,,,,,,,,,,,,,,,,,,,,,,,,,,,,,,,,,,,,,,,,,,,,,,,,,,,,,,,,,,,,,,,78.64995859246267,165.81292526215827,116.76922526220889,152.25521187709313,138.03559849568674,60.06736316902667,2.1,2.12,-255,-265,0,-263,202,285,922.5076291561127,922.5077085494995,922.510999917984,922.5226521492004,922.672928571701,922.672928571701,922.672928571701,922.672928571701,922.672928571701,922.672928571701,922.672928571701,927.3751401901245,2,4.839813232421875,None,,,,,,,,,,,,,,,,,,147,4,2025-02-27_13h27.26.993,comp,2024.2.4,55.09990567748004,2025-02-27 13h27.44.524215 -0500,
