thisN,thisTrialN,thisRepN,effect,order,distance,config,diag,h_1,w_1,h_2,w_2,h_3,w_3,rect_choice.keys,rect_choice.rt,rect_choice.duration,instructions_loop.thisRepN,instructions_loop.thisTrialN,instructions_loop.thisN,instructions_loop.thisIndex,blocks.thisRepN,blocks.thisTrialN,blocks.thisN,blocks.thisIndex,trials.thisRepN,trials.thisTrialN,trials.thisN,trials.thisIndex,thisRow.t,notes,consent.started,agree_button.started,decline_button.started,consent_img.started,mouse.started,consent.stopped,agree_button.numClicks,agree_button.timesOn,agree_button.timesOff,decline_button.numClicks,decline_button.timesOn,decline_button.timesOff,mouse.x,mouse.y,mouse.leftButton,mouse.midButton,mouse.rightButton,mouse.time,mouse.clicked_name,exp_params.started,exp_params.stopped,welcome.started,welcome_text.started,welcome_text.stopped,welcome.stopped,instructions_1.started,instructions_1_text_1.started,instructions_1_text_2.started,key_resp.started,instructions_1.stopped,instructions_loop.key_resp.keys,instructions_loop.key_resp.rt,instructions_loop.key_resp.duration,instructions_2.started,instructions_2_text_1.started,instructions_2_text_2.started,key_resp_2.started,instructions_2.stopped,instructions_loop.key_resp_2.keys,instructions_loop.key_resp_2.rt,instructions_loop.key_resp_2.duration,instructions_3.started,instructions_3_text_1.started,r1_instr3.started,r2_instr3.started,r3_instr3.started,r1_instr3_label.started,r2_instr3_label.started,r3_instr3_label.started,instructions_3_text_3.started,instructions_3_text_4.started,key_resp_3.started,instructions_3.stopped,instructions_loop.key_resp_3.keys,instructions_loop.key_resp_3.rt,instructions_loop.key_resp_3.duration,instructions_4.started,instructions_4_text_1.started,instructions_4_text_3.started,instructions_4_text_2.started,key_resp_4.started,instructions_4.stopped,instructions_loop.key_resp_4.keys,instructions_loop.key_resp_4.rt,instructions_loop.key_resp_4.duration,instructions_5.started,instructions_5_text_1.started,instructions_5_text_2.started,key_resp_5.started,instructions_5.stopped,instructions_loop.key_resp_5.keys,instructions_loop.key_resp_5.rt,instructions_loop.key_resp_5.duration,start_exp.started,start_exp_text.started,key_resp_6.started,start_exp.stopped,key_resp_6.keys,key_resp_6.rt,key_resp_6.duration,h_1_tmp,w_1_tmp,h_2_tmp,w_2_tmp,h_3_tmp,w_3_tmp,config_tmp,config_tmp_1,r_1_x,r_1_y,r_2_x,r_2_y,r_3_x,r_3_y,pre_trial.started,pre_trial.stopped,choice_trial.started,rect_choice.started,r_1.started,r_2.started,r_3.started,r_1_label.started,r_2_label.started,r_3_label.started,prompt.started,choice_trial.stopped,trials.rect_choice.keys,trials.rect_choice.rt,trials.rect_choice.duration,end_block.started,end_block_text.started,end_block.stopped,end.started,end_text.started,key_resp_7.started,end.stopped,key_resp_7.keys,key_resp_7.rt,key_resp_7.duration,debriefing.started,debrief_form.started,end_debrief.started,debriefing.stopped,end_debrief.keys,end_debrief.rt,end_debrief.duration,participant,computer,date,expName,psychopyVersion,frameRate,expStart,
,,,,,,,,,,,,,,,,,,,,,,,,,,,,,,,0.02069544792175293,0.03562164306640625,0.03562164306640625,0.03562164306640625,0.020498275756835938,10.751464128494263,1,[10.713661432266235],[10.713683605194092],0,,,[-76.0],[-522.0],[1],[0],[0],[10.730363130569458],['agree_button'],,,,,,,,,,,,,,,,,,,,,,,,,,,,,,,,,,,,,,,,,,,,,,,,,,,,,,,,,,,,,,,,,,,,,,,,,,,,,,,,,,,,,,,,,,,,,,,,,,,,,,,,,,,,148,1,2025-02-27_14h51.11.275,comp,2024.2.4,None,2025-02-27 14h51.23.262702 -0500,
,,,,,,,,,,,,,,,,,,,,,,,,,,,,,,,,,,,,,,,,,,,,,,,,,,10.751998662948608,10.752088069915771,,,,,,,,,,,,,,,,,,,,,,,,,,,,,,,,,,,,,,,,,,,,,,,,,,,,,,,,,,,,,,,,,,,,,,,,,,,,,,,,,,,,,,,,,,,,,,,,,,,,,,,,,,148,1,2025-02-27_14h51.11.275,comp,2024.2.4,None,2025-02-27 14h51.23.262702 -0500,
,,,,,,,,,,,,,,,,,,,,,,,,,,,,,,,,,,,,,,,,,,,,,,,,,,,,10.752133846282959,10.765127182006836,12.766115665435791,12.750131845474243,,,,,,,,,,,,,,,,,,,,,,,,,,,,,,,,,,,,,,,,,,,,,,,,,,,,,,,,,,,,,,,,,,,,,,,,,,,,,,,,,,,,,,,,,,,,,,,,,,,,,,148,1,2025-02-27_14h51.11.275,comp,2024.2.4,None,2025-02-27 14h51.23.262702 -0500,
0,0,0,,,,,,,,,,,,,,,0,0,0,0,,,,,,,,,12.766115665435791,,,,,,,,,,,,,,,,,,,,,,,,,,,12.751099824905396,12.766115665435791,12.766115665435791,14.249945878982544,15.301479816436768,space,1.0380337238311768,None,15.301625728607178,15.31679081916809,15.31679081916809,16.815252542495728,20.56990623474121,space,3.7523651123046875,None,20.570056200027466,20.59971857070923,20.59971857070923,20.59971857070923,20.59971857070923,20.59971857070923,20.59971857070923,20.59971857070923,20.59971857070923,20.59971857070923,22.087098121643066,25.05725336074829,space,2.9529271125793457,None,25.057458877563477,25.072324514389038,25.072324514389038,25.072324514389038,26.57042932510376,31.44009518623352,space,4.8535380363464355,None,31.4402916431427,31.455355644226074,31.455355644226074,32.95424175262451,35.38954973220825,space,2.4215357303619385,None,35.38974976539612,35.40543556213379,35.40543556213379,38.59207844734192,space,3.178863048553467,None,,,,,,,,,,,,,,,,,,,,,,,,,,,,,,,,,,,,,,,,,,,,,,,148,1,2025-02-27_14h51.11.275,comp,2024.2.4,None,2025-02-27 14h51.23.262702 -0500,
0,0,0,critical,wdh,35.0,1.0,upper,125.0,200.0,127.0,127.0,200.0,125.0,3,2.5658371448516846,None,,,,,0,0,0,0,0,0,0,73,38.66660189628601,,,,,,,,,,,,,,,,,,,,,,,,,,,,,,,,,,,,,,,,,,,,,,,,,,,,,,,,,,,,,,,,,,,,,,,,,,,,,,,,,,125.0,200.0,127.0,127.0,200.0,125.0,1.0,1.2,-260,2,0,6,222,-2,38.65024948120117,38.65028166770935,38.65142750740051,38.66660189628601,38.81574821472168,38.81574821472168,38.81574821472168,38.81574821472168,38.81574821472168,38.81574821472168,38.81574821472168,41.240193605422974,3,2.5658371448516846,None,,,,,,,,,,,,,,,,,,148,1,2025-02-27_14h51.11.275,comp,2024.2.4,None,2025-02-27 14h51.23.262702 -0500,
1,1,0,critical,hwd,35.0,3.0,lower,133.0,57.0,57.0,133.0,70.0,70.0,2,3.3669769763946533,None,,,,,0,0,0,0,0,1,1,98,41.25749182701111,,,,,,,,,,,,,,,,,,,,,,,,,,,,,,,,,,,,,,,,,,,,,,,,,,,,,,,,,,,,,,,,,,,,,,,,,,,,,,,,,,133.0,57.0,57.0,133.0,70.0,70.0,3.0,3.1,-191,259,0,-2,198,-268,41.24160432815552,41.24166655540466,41.244457483291626,41.25749182701111,41.392698764801025,41.392698764801025,41.392698764801025,41.392698764801025,41.392698764801025,41.392698764801025,41.392698764801025,44.6333692073822,2,3.3669769763946533,None,,,,,,,,,,,,,,,,,,148,1,2025-02-27_14h51.11.275,comp,2024.2.4,None,2025-02-27 14h51.23.262702 -0500,
2,2,0,critical,whd,20.0,1.0,upper,125.0,200.0,200.0,125.0,141.0,141.0,1,4.970656156539917,None,,,,,0,0,0,0,0,2,2,91,44.65360951423645,,,,,,,,,,,,,,,,,,,,,,,,,,,,,,,,,,,,,,,,,,,,,,,,,,,,,,,,,,,,,,,,,,,,,,,,,,,,,,,,,,125.0,200.0,200.0,125.0,141.0,141.0,1.0,1.3,222,-268,480,-274,709,-254,44.63483262062073,44.6349093914032,44.6378014087677,44.65360951423645,44.79462170600891,44.79462170600891,44.79462170600891,44.79462170600891,44.79462170600891,44.79462170600891,44.79462170600891,49.626723527908325,1,4.970656156539917,None,,,,,,,,,,,,,,,,,,148,1,2025-02-27_14h51.11.275,comp,2024.2.4,None,2025-02-27 14h51.23.262702 -0500,
3,3,0,critical,dwh,35.0,1.0,upper,127.0,127.0,125.0,200.0,200.0,125.0,2,2.831090211868286,None,,,,,0,0,0,0,0,3,3,61,49.642648458480835,,,,,,,,,,,,,,,,,,,,,,,,,,,,,,,,,,,,,,,,,,,,,,,,,,,,,,,,,,,,,,,,,,,,,,,,,,,,,,,,,,127.0,127.0,125.0,200.0,200.0,125.0,1.0,1.2,-260,-1,0,7,258,-5,49.62815809249878,49.62825870513916,49.631041526794434,49.642648458480835,49.78164052963257,49.78164052963257,49.78164052963257,49.78164052963257,49.78164052963257,49.78164052963257,49.78164052963257,52.48148703575134,2,2.831090211868286,None,,,,,,,,,,,,,,,,,,148,1,2025-02-27_14h51.11.275,comp,2024.2.4,None,2025-02-27 14h51.23.262702 -0500,
4,4,0,filler_random,None,None,None,None,None,None,None,None,None,None,3,2.353876829147339,None,,,,,0,0,0,0,0,4,4,133,52.50245690345764,,,,,,,,,,,,,,,,,,,,,,,,,,,,,,,,,,,,,,,,,,,,,,,,,,,,,,,,,,,,,,,,,,,,,,,,,,,,,,,,,,72.96101094969336,160.9558433066453,131.5938089833353,59.911000658834446,96.4206294650399,139.62928888953576,3.0,3.2,-206,-279,0,17,196,252,52.483261823654175,52.48334074020386,52.4862277507782,52.50245690345764,52.65435552597046,52.65435552597046,52.65435552597046,52.65435552597046,52.65435552597046,52.65435552597046,52.65435552597046,54.86403560638428,3,2.353876829147339,None,,,,,,,,,,,,,,,,,,148,1,2025-02-27_14h51.11.275,comp,2024.2.4,None,2025-02-27 14h51.23.262702 -0500,
5,5,0,filler_square,None,None,None,None,None,None,None,None,None,None,1,1.3771071434020996,None,,,,,0,0,0,0,0,5,5,192,54.87987804412842,,,,,,,,,,,,,,,,,,,,,,,,,,,,,,,,,,,,,,,,,,,,,,,,,,,,,,,,,,,,,,,,,,,,,,,,,,,,,,,,,,187.39313788315363,187.39313788315363,136.43737507930405,123.3703896415444,138.7416737282051,99.25590621724952,2.2,2.22,-251,283,0,-268,207,-283,54.86576318740845,54.86583876609802,54.86910104751587,54.87987804412842,55.03325390815735,55.03325390815735,55.03325390815735,55.03325390815735,55.03325390815735,55.03325390815735,55.03325390815735,56.26280474662781,1,1.3771071434020996,None,,,,,,,,,,,,,,,,,,148,1,2025-02-27_14h51.11.275,comp,2024.2.4,None,2025-02-27 14h51.23.262702 -0500,
6,6,0,filler_square,None,None,None,None,None,None,None,None,None,None,3,1.5274536609649658,None,,,,,0,0,0,0,0,6,6,178,56.28023147583008,,,,,,,,,,,,,,,,,,,,,,,,,,,,,,,,,,,,,,,,,,,,,,,,,,,,,,,,,,,,,,,,,,,,,,,,,,,,,,,,,,77.13055681975399,91.85386913036788,57.10061768973729,79.83248326193642,99.35943719561368,99.35943719561368,2.2,2.21,-182,-270,0,274,186,269,56.264432191848755,56.26450800895691,56.2672815322876,56.28023147583008,56.41911005973816,56.41911005973816,56.41911005973816,56.41911005973816,56.41911005973816,56.41911005973816,56.41911005973816,57.82138228416443,3,1.5274536609649658,None,,,,,,,,,,,,,,,,,,148,1,2025-02-27_14h51.11.275,comp,2024.2.4,None,2025-02-27 14h51.23.262702 -0500,
7,7,0,critical,dhw,20.0,2.1,upper,141.0,141.0,200.0,125.0,125.0,200.0,3,3.9667904376983643,None,,,,,0,0,0,0,0,7,7,3,57.8413782119751,,,,,,,,,,,,,,,,,,,,,,,,,,,,,,,,,,,,,,,,,,,,,,,,,,,,,,,,,,,,,,,,,,,,,,,,,,,,,,,,,,141.0,141.0,200.0,125.0,125.0,200.0,2.1,2.11,-229,262,0,257,258,-278,57.82283091545105,57.82290554046631,57.82568550109863,57.8413782119751,57.98151683807373,57.98151683807373,57.98151683807373,57.98151683807373,57.98151683807373,57.98151683807373,57.98151683807373,61.81641602516174,3,3.9667904376983643,None,,,,,,,,,,,,,,,,,,148,1,2025-02-27_14h51.11.275,comp,2024.2.4,None,2025-02-27 14h51.23.262702 -0500,
8,8,0,filler_square,None,None,None,None,None,None,None,None,None,None,1,1.6067509651184082,None,,,,,0,0,0,0,0,8,8,200,61.83359742164612,,,,,,,,,,,,,,,,,,,,,,,,,,,,,,,,,,,,,,,,,,,,,,,,,,,,,,,,,,,,,,,,,,,,,,,,,,,,,,,,,,68.2228193952904,68.2228193952904,62.51925067897435,60.52859460259763,58.89943924870432,61.40209065448715,4.0,4.1,-160,-280,0,5,157,-273,61.81843066215515,61.81852841377258,61.821855783462524,61.83359742164612,61.98222994804382,61.98222994804382,61.98222994804382,61.98222994804382,61.98222994804382,61.98222994804382,61.98222994804382,63.448850870132446,1,1.6067509651184082,None,,,,,,,,,,,,,,,,,,148,1,2025-02-27_14h51.11.275,comp,2024.2.4,None,2025-02-27 14h51.23.262702 -0500,
9,9,0,critical,hwd,20.0,1.0,upper,200.0,125.0,125.0,200.0,141.0,141.0,2,1.7887284755706787,None,,,,,0,0,0,0,0,9,9,103,63.467843532562256,,,,,,,,,,,,,,,,,,,,,,,,,,,,,,,,,,,,,,,,,,,,,,,,,,,,,,,,,,,,,,,,,,,,,,,,,,,,,,,,,,200.0,125.0,125.0,200.0,141.0,141.0,1.0,1.2,-258,-8,0,18,266,-5,63.45042133331299,63.4504976272583,63.45378398895264,63.467843532562256,63.60529446601868,63.60529446601868,63.60529446601868,63.60529446601868,63.60529446601868,63.60529446601868,63.60529446601868,65.26716709136963,2,1.7887284755706787,None,,,,,,,,,,,,,,,,,,148,1,2025-02-27_14h51.11.275,comp,2024.2.4,None,2025-02-27 14h51.23.262702 -0500,
10,10,0,critical,hwd,35.0,2.1,upper,200.0,125.0,125.0,200.0,127.0,127.0,2,1.2284350395202637,None,,,,,0,0,0,0,0,10,10,41,65.28338050842285,,,,,,,,,,,,,,,,,,,,,,,,,,,,,,,,,,,,,,,,,,,,,,,,,,,,,,,,,,,,,,,,,,,,,,,,,,,,,,,,,,200.0,125.0,125.0,200.0,127.0,127.0,2.1,2.11,-258,286,0,273,260,-259,65.26874375343323,65.26882028579712,65.27228832244873,65.28338050842285,65.43384027481079,65.43384027481079,65.43384027481079,65.43384027481079,65.43384027481079,65.43384027481079,65.43384027481079,66.51725578308105,2,1.2284350395202637,None,,,,,,,,,,,,,,,,,,148,1,2025-02-27_14h51.11.275,comp,2024.2.4,None,2025-02-27 14h51.23.262702 -0500,
11,11,0,critical,wdh,20.0,2.1,lower,57.0,133.0,78.0,78.0,133.0,57.0,2,5.185116529464722,None,,,,,0,0,0,0,0,11,11,34,66.53459072113037,,,,,,,,,,,,,,,,,,,,,,,,,,,,,,,,,,,,,,,,,,,,,,,,,,,,,,,,,,,,,,,,,,,,,,,,,,,,,,,,,,57.0,133.0,78.0,78.0,133.0,57.0,2.1,2.12,-202,-290,0,-266,164,271,66.51873350143433,66.51880717277527,66.52163457870483,66.53459072113037,66.6838641166687,66.6838641166687,66.6838641166687,66.6838641166687,66.6838641166687,66.6838641166687,66.6838641166687,71.73448348045349,2,5.185116529464722,None,,,,,,,,,,,,,,,,,,148,1,2025-02-27_14h51.11.275,comp,2024.2.4,None,2025-02-27 14h51.23.262702 -0500,
12,12,0,filler_square,None,None,None,None,None,None,None,None,None,None,3,1.7057292461395264,None,,,,,0,0,0,0,0,12,12,180,71.74997353553772,,,,,,,,,,,,,,,,,,,,,,,,,,,,,,,,,,,,,,,,,,,,,,,,,,,,,,,,,,,,,,,,,,,,,,,,,,,,,,,,,,126.1622766597437,116.71593685195161,63.31995187355394,188.688817229187,189.30149243819406,189.30149243819406,1.0,1.3,231,-260,480,-282,765,-267,71.73622465133667,71.73629903793335,71.73923897743225,71.74997353553772,71.9014573097229,71.9014573097229,71.9014573097229,71.9014573097229,71.9014573097229,71.9014573097229,71.9014573097229,73.46924781799316,3,1.7057292461395264,None,,,,,,,,,,,,,,,,,,148,1,2025-02-27_14h51.11.275,comp,2024.2.4,None,2025-02-27 14h51.23.262702 -0500,
13,13,0,critical,dhw,20.0,1.0,lower,78.0,78.0,133.0,57.0,57.0,133.0,3,2.736412286758423,None,,,,,0,0,0,0,0,13,13,54,73.4873673915863,,,,,,,,,,,,,,,,,,,,,,,,,,,,,,,,,,,,,,,,,,,,,,,,,,,,,,,,,,,,,,,,,,,,,,,,,,,,,,,,,,78.0,78.0,133.0,57.0,57.0,133.0,1.0,1.1,-644,264,-480,287,-289,280,73.47089004516602,73.47099280357361,73.47428154945374,73.4873673915863,73.63706636428833,73.63706636428833,73.63706636428833,73.63706636428833,73.63706636428833,73.63706636428833,73.63706636428833,76.24783182144165,3,2.736412286758423,None,,,,,,,,,,,,,,,,,,148,1,2025-02-27_14h51.11.275,comp,2024.2.4,None,2025-02-27 14h51.23.262702 -0500,
14,14,0,filler_random,None,None,None,None,None,None,None,None,None,None,3,1.4541161060333252,None,,,,,0,0,0,0,0,14,14,137,76.2656352519989,,,,,,,,,,,,,,,,,,,,,,,,,,,,,,,,,,,,,,,,,,,,,,,,,,,,,,,,,,,,,,,,,,,,,,,,,,,,,,,,,,95.56757605082717,116.2430031433921,160.8477474844936,104.52049805530544,132.0943038363813,178.9179167340899,1.0,1.3,274,-272,480,-262,718,-265,76.24959564208984,76.2497251033783,76.2529091835022,76.2656352519989,76.40382814407349,76.40382814407349,76.40382814407349,76.40382814407349,76.40382814407349,76.40382814407349,76.40382814407349,77.73814105987549,3,1.4541161060333252,None,,,,,,,,,,,,,,,,,,148,1,2025-02-27_14h51.11.275,comp,2024.2.4,None,2025-02-27 14h51.23.262702 -0500,
15,15,0,critical,dwh,20.0,2.1,lower,78.0,78.0,57.0,133.0,133.0,57.0,2,1.5742878913879395,None,,,,,0,0,0,0,0,15,15,6,77.75409889221191,,,,,,,,,,,,,,,,,,,,,,,,,,,,,,,,,,,,,,,,,,,,,,,,,,,,,,,,,,,,,,,,,,,,,,,,,,,,,,,,,,78.0,78.0,57.0,133.0,133.0,57.0,2.1,2.11,-202,267,0,268,191,-285,77.73978209495544,77.73985719680786,77.74361085891724,77.75409889221191,77.90345668792725,77.90345668792725,77.90345668792725,77.90345668792725,77.90345668792725,77.90345668792725,77.90345668792725,79.3392961025238,2,1.5742878913879395,None,,,,,,,,,,,,,,,,,,148,1,2025-02-27_14h51.11.275,comp,2024.2.4,None,2025-02-27 14h51.23.262702 -0500,
16,16,0,filler_square,None,None,None,None,None,None,None,None,None,None,1,2.36409330368042,None,,,,,0,0,0,0,0,16,16,188,79.35569190979004,,,,,,,,,,,,,,,,,,,,,,,,,,,,,,,,,,,,,,,,,,,,,,,,,,,,,,,,,,,,,,,,,,,,,,,,,,,,,,,,,,179.59188025101716,179.59188025101716,177.17133346726513,152.82686660096323,97.41856111858641,73.01604989288538,1.0,1.2,-262,17,0,19,209,7,79.34141516685486,79.34149670600891,79.34492254257202,79.35569190979004,79.50504970550537,79.50504970550537,79.50504970550537,79.50504970550537,79.50504970550537,79.50504970550537,79.50504970550537,81.72222709655762,1,2.36409330368042,None,,,,,,,,,,,,,,,,,,148,1,2025-02-27_14h51.11.275,comp,2024.2.4,None,2025-02-27 14h51.23.262702 -0500,
17,17,0,critical,hwd,20.0,2.1,lower,133.0,57.0,57.0,133.0,78.0,78.0,3,3.973875045776367,None,,,,,0,0,0,0,0,17,17,42,81.73830795288086,,,,,,,,,,,,,,,,,,,,,,,,,,,,,,,,,,,,,,,,,,,,,,,,,,,,,,,,,,,,,,,,,,,,,,,,,,,,,,,,,,133.0,57.0,57.0,133.0,78.0,78.0,2.1,2.12,-191,-278,0,-272,202,289,81.72386121749878,81.72396206855774,81.72741532325745,81.73830795288086,81.89014887809753,81.89014887809753,81.89014887809753,81.89014887809753,81.89014887809753,81.89014887809753,81.89014887809753,85.71481919288635,3,3.973875045776367,None,,,,,,,,,,,,,,,,,,148,1,2025-02-27_14h51.11.275,comp,2024.2.4,None,2025-02-27 14h51.23.262702 -0500,
18,18,0,critical,dwh,35.0,2.1,lower,70.0,70.0,57.0,133.0,133.0,57.0,2,1.5866045951843262,None,,,,,0,0,0,0,0,18,18,4,85.7332444190979,,,,,,,,,,,,,,,,,,,,,,,,,,,,,,,,,,,,,,,,,,,,,,,,,,,,,,,,,,,,,,,,,,,,,,,,,,,,,,,,,,70.0,70.0,57.0,133.0,133.0,57.0,2.1,2.11,-198,263,0,266,191,-253,85.71651577949524,85.71661615371704,85.71997046470642,85.7332444190979,85.87500405311584,85.87500405311584,85.87500405311584,85.87500405311584,85.87500405311584,85.87500405311584,85.87500405311584,87.32409358024597,2,1.5866045951843262,None,,,,,,,,,,,,,,,,,,148,1,2025-02-27_14h51.11.275,comp,2024.2.4,None,2025-02-27 14h51.23.262702 -0500,
19,19,0,critical,dhw,35.0,4.0,upper,127.0,127.0,200.0,125.0,125.0,200.0,3,1.0525622367858887,None,,,,,0,0,0,0,0,19,19,53,87.33989024162292,,,,,,,,,,,,,,,,,,,,,,,,,,,,,,,,,,,,,,,,,,,,,,,,,,,,,,,,,,,,,,,,,,,,,,,,,,,,,,,,,,127.0,127.0,200.0,125.0,125.0,200.0,4.0,4.2,-222,0,0,-251,258,-20,87.32565784454346,87.32573533058167,87.3290548324585,87.33989024162292,87.4949836730957,87.4949836730957,87.4949836730957,87.4949836730957,87.4949836730957,87.4949836730957,87.4949836730957,88.39644765853882,3,1.0525622367858887,None,,,,,,,,,,,,,,,,,,148,1,2025-02-27_14h51.11.275,comp,2024.2.4,None,2025-02-27 14h51.23.262702 -0500,
20,20,0,filler_random,None,None,None,None,None,None,None,None,None,None,1,1.115504503250122,None,,,,,0,0,0,0,0,20,20,169,88.4124526977539,,,,,,,,,,,,,,,,,,,,,,,,,,,,,,,,,,,,,,,,,,,,,,,,,,,,,,,,,,,,,,,,,,,,,,,,,,,,,,,,,,103.26512631020817,162.95534271109136,141.78572470739334,66.19742347700222,65.86684929103018,76.4834936348139,2.1,2.11,-211,265,0,274,167,-271,88.39825820922852,88.3983895778656,88.40160346031189,88.4124526977539,88.55706524848938,88.55706524848938,88.55706524848938,88.55706524848938,88.55706524848938,88.55706524848938,88.55706524848938,89.54142045974731,1,1.115504503250122,None,,,,,,,,,,,,,,,,,,148,1,2025-02-27_14h51.11.275,comp,2024.2.4,None,2025-02-27 14h51.23.262702 -0500,
21,21,0,filler_random,None,None,None,None,None,None,None,None,None,None,1,1.2350056171417236,None,,,,,0,0,0,0,0,21,21,150,89.55693054199219,,,,,,,,,,,,,,,,,,,,,,,,,,,,,,,,,,,,,,,,,,,,,,,,,,,,,,,,,,,,,,,,,,,,,,,,,,,,,,,,,,191.84014989205326,161.3266851032497,57.73793937368171,81.23107669828079,189.852978847857,106.72274145815564,1.0,1.2,-217,2,0,10,190,-1,89.54327201843262,89.54335045814514,89.54665875434875,89.55693054199219,89.70759534835815,89.70759534835815,89.70759534835815,89.70759534835815,89.70759534835815,89.70759534835815,89.70759534835815,90.79402041435242,1,1.2350056171417236,None,,,,,,,,,,,,,,,,,,148,1,2025-02-27_14h51.11.275,comp,2024.2.4,None,2025-02-27 14h51.23.262702 -0500,
22,22,0,critical,hwd,20.0,4.0,upper,200.0,125.0,125.0,200.0,141.0,141.0,2,1.4467241764068604,None,,,,,0,0,0,0,0,22,22,107,90.80960083007812,,,,,,,,,,,,,,,,,,,,,,,,,,,,,,,,,,,,,,,,,,,,,,,,,,,,,,,,,,,,,,,,,,,,,,,,,,,,,,,,,,200.0,125.0,125.0,200.0,141.0,141.0,4.0,4.2,-258,-13,0,-284,266,-16,90.79568123817444,90.79575896263123,90.7988851070404,90.80960083007812,90.96554732322693,90.96554732322693,90.96554732322693,90.96554732322693,90.96554732322693,90.96554732322693,90.96554732322693,92.26277279853821,2,1.4467241764068604,None,,,,,,,,,,,,,,,,,,148,1,2025-02-27_14h51.11.275,comp,2024.2.4,None,2025-02-27 14h51.23.262702 -0500,
23,23,0,critical,whd,20.0,2.1,lower,57.0,133.0,133.0,57.0,78.0,78.0,3,4.2217116355896,None,,,,,0,0,0,0,0,23,23,14,92.28266048431396,,,,,,,,,,,,,,,,,,,,,,,,,,,,,,,,,,,,,,,,,,,,,,,,,,,,,,,,,,,,,,,,,,,,,,,,,,,,,,,,,,57.0,133.0,133.0,57.0,78.0,78.0,2.1,2.11,-191,285,0,273,164,-279,92.2643928527832,92.26447081565857,92.26741003990173,92.28266048431396,92.42656421661377,92.42656421661377,92.42656421661377,92.42656421661377,92.42656421661377,92.42656421661377,92.42656421661377,96.50871443748474,3,4.2217116355896,None,,,,,,,,,,,,,,,,,,148,1,2025-02-27_14h51.11.275,comp,2024.2.4,None,2025-02-27 14h51.23.262702 -0500,
24,24,0,filler_square,None,None,None,None,None,None,None,None,None,None,1,1.0743989944458008,None,,,,,0,0,0,0,0,24,24,183,96.52575826644897,,,,,,,,,,,,,,,,,,,,,,,,,,,,,,,,,,,,,,,,,,,,,,,,,,,,,,,,,,,,,,,,,,,,,,,,,,,,,,,,,,102.8442230116338,102.8442230116338,75.88385074491647,89.4037207610906,98.64753557077546,70.11692741561149,1.0,1.2,-192,-10,0,14,176,-2,96.51063013076782,96.51071119308472,96.51394820213318,96.52575826644897,96.6787006855011,96.6787006855011,96.6787006855011,96.6787006855011,96.6787006855011,96.6787006855011,96.6787006855011,97.60920786857605,1,1.0743989944458008,None,,,,,,,,,,,,,,,,,,148,1,2025-02-27_14h51.11.275,comp,2024.2.4,None,2025-02-27 14h51.23.262702 -0500,
25,25,0,critical,dwh,20.0,3.0,upper,141.0,141.0,125.0,200.0,200.0,125.0,2,1.0072052478790283,None,,,,,0,0,0,0,0,25,25,69,97.62519431114197,,,,,,,,,,,,,,,,,,,,,,,,,,,,,,,,,,,,,,,,,,,,,,,,,,,,,,,,,,,,,,,,,,,,,,,,,,,,,,,,,,141.0,141.0,125.0,200.0,200.0,125.0,3.0,3.1,-266,257,0,1,258,-276,97.61070728302002,97.6107828617096,97.61362290382385,97.62519431114197,97.77708792686462,97.77708792686462,97.77708792686462,97.77708792686462,97.77708792686462,97.77708792686462,97.77708792686462,98.64615416526794,2,1.0072052478790283,None,,,,,,,,,,,,,,,,,,148,1,2025-02-27_14h51.11.275,comp,2024.2.4,None,2025-02-27 14h51.23.262702 -0500,
26,26,0,filler_random,None,None,None,None,None,None,None,None,None,None,3,1.154663324356079,None,,,,,0,0,0,0,0,26,26,158,98.66128993034363,,,,,,,,,,,,,,,,,,,,,,,,,,,,,,,,,,,,,,,,,,,,,,,,,,,,,,,,,,,,,,,,,,,,,,,,,,,,,,,,,,150.03485022789488,141.8496375998255,97.3802684046251,77.89786342085958,182.09222973428888,191.07835661165723,4.0,4.1,-206,-260,0,18,230,-275,98.64795970916748,98.64804172515869,98.65102887153625,98.66128993034363,98.81165051460266,98.81165051460266,98.81165051460266,98.81165051460266,98.81165051460266,98.81165051460266,98.81165051460266,99.82859754562378,3,1.154663324356079,None,,,,,,,,,,,,,,,,,,148,1,2025-02-27_14h51.11.275,comp,2024.2.4,None,2025-02-27 14h51.23.262702 -0500,
27,27,0,filler_random,None,None,None,None,None,None,None,None,None,None,3,1.0119712352752686,None,,,,,0,0,0,0,0,27,27,147,99.84429478645325,,,,,,,,,,,,,,,,,,,,,,,,,,,,,,,,,,,,,,,,,,,,,,,,,,,,,,,,,,,,,,,,,,,,,,,,,,,,,,,,,,100.82931594912176,76.60592010236046,92.56341357258546,161.8916777948324,152.81790561534947,197.3544398444724,3.0,3.2,-215,-261,0,-3,276,256,99.83025598526001,99.83035397529602,99.83352947235107,99.84429478645325,99.99426412582397,99.99426412582397,99.99426412582397,99.99426412582397,99.99426412582397,99.99426412582397,99.99426412582397,100.86068391799927,3,1.0119712352752686,None,,,,,,,,,,,,,,,,,,148,1,2025-02-27_14h51.11.275,comp,2024.2.4,None,2025-02-27 14h51.23.262702 -0500,
28,28,0,critical,hwd,35.0,3.0,upper,200.0,125.0,125.0,200.0,127.0,127.0,2,1.1868464946746826,None,,,,,0,0,0,0,0,28,28,99,100.87703227996826,,,,,,,,,,,,,,,,,,,,,,,,,,,,,,,,,,,,,,,,,,,,,,,,,,,,,,,,,,,,,,,,,,,,,,,,,,,,,,,,,,200.0,125.0,125.0,200.0,127.0,127.0,3.0,3.1,-258,261,0,-1,260,-281,100.86214923858643,100.86225748062134,100.86543726921082,100.87703227996826,101.03425312042236,101.03425312042236,101.03425312042236,101.03425312042236,101.03425312042236,101.03425312042236,101.03425312042236,102.07881355285645,2,1.1868464946746826,None,,,,,,,,,,,,,,,,,,148,1,2025-02-27_14h51.11.275,comp,2024.2.4,None,2025-02-27 14h51.23.262702 -0500,
29,29,0,filler_square,None,None,None,None,None,None,None,None,None,None,2,1.0094022750854492,None,,,,,0,0,0,0,0,29,29,195,102.09511256217957,,,,,,,,,,,,,,,,,,,,,,,,,,,,,,,,,,,,,,,,,,,,,,,,,,,,,,,,,,,,,,,,,,,,,,,,,,,,,,,,,,97.3516870383659,76.10824714800542,186.8873416664386,186.8873416664386,117.43853557822311,123.7779837771021,2.1,2.11,-227,289,0,256,251,-257,102.08063292503357,102.08070874214172,102.08469676971436,102.09511256217957,102.24539351463318,102.24539351463318,102.24539351463318,102.24539351463318,102.24539351463318,102.24539351463318,102.24539351463318,103.11277413368225,2,1.0094022750854492,None,,,,,,,,,,,,,,,,,,148,1,2025-02-27_14h51.11.275,comp,2024.2.4,None,2025-02-27 14h51.23.262702 -0500,
30,30,0,critical,hdw,20.0,2.1,lower,133.0,57.0,78.0,78.0,57.0,133.0,3,2.8226938247680664,None,,,,,0,0,0,0,0,30,30,46,103.12927436828613,,,,,,,,,,,,,,,,,,,,,,,,,,,,,,,,,,,,,,,,,,,,,,,,,,,,,,,,,,,,,,,,,,,,,,,,,,,,,,,,,,133.0,57.0,78.0,78.0,57.0,133.0,2.1,2.11,-164,258,0,270,202,-271,103.11422896385193,103.11430668830872,103.11827898025513,103.12927436828613,103.28414678573608,103.28414678573608,103.28414678573608,103.28414678573608,103.28414678573608,103.28414678573608,103.28414678573608,105.96555209159851,3,2.8226938247680664,None,,,,,,,,,,,,,,,,,,148,1,2025-02-27_14h51.11.275,comp,2024.2.4,None,2025-02-27 14h51.23.262702 -0500,
31,31,0,filler_square,None,None,None,None,None,None,None,None,None,None,1,0.9472718238830566,None,,,,,0,0,0,0,0,31,31,173,105.98114275932312,,,,,,,,,,,,,,,,,,,,,,,,,,,,,,,,,,,,,,,,,,,,,,,,,,,,,,,,,,,,,,,,,,,,,,,,,,,,,,,,,,155.245402313132,155.245402313132,85.9930384924986,81.55853582636848,73.96228198810226,113.0606956089245,4.0,4.1,-214,-256,0,17,193,-254,105.96791863441467,105.96801328659058,105.97086906433105,105.98114275932312,106.13047814369202,106.13047814369202,106.13047814369202,106.13047814369202,106.13047814369202,106.13047814369202,106.13047814369202,106.93154764175415,1,0.9472718238830566,None,,,,,,,,,,,,,,,,,,148,1,2025-02-27_14h51.11.275,comp,2024.2.4,None,2025-02-27 14h51.23.262702 -0500,
32,32,0,filler_random,None,None,None,None,None,None,None,None,None,None,2,1.4531261920928955,None,,,,,0,0,0,0,0,32,32,165,106.94667840003967,,,,,,,,,,,,,,,,,,,,,,,,,,,,,,,,,,,,,,,,,,,,,,,,,,,,,,,,,,,,,,,,,,,,,,,,,,,,,,,,,,195.63546005234798,103.08600419406895,176.06022745864462,105.76304164143929,74.5063223085078,76.67254731575287,2.1,2.11,-200,258,0,287,187,-261,106.93337392807007,106.9335105419159,106.93642663955688,106.94667840003967,107.09931778907776,107.09931778907776,107.09931778907776,107.09931778907776,107.09931778907776,107.09931778907776,107.09931778907776,108.41667079925537,2,1.4531261920928955,None,,,,,,,,,,,,,,,,,,148,1,2025-02-27_14h51.11.275,comp,2024.2.4,None,2025-02-27 14h51.23.262702 -0500,
33,33,0,critical,hdw,35.0,2.1,lower,133.0,57.0,70.0,70.0,57.0,133.0,3,1.4706840515136719,None,,,,,0,0,0,0,0,33,33,44,108.43309497833252,,,,,,,,,,,,,,,,,,,,,,,,,,,,,,,,,,,,,,,,,,,,,,,,,,,,,,,,,,,,,,,,,,,,,,,,,,,,,,,,,,133.0,57.0,70.0,70.0,57.0,133.0,2.1,2.12,-160,-260,0,-285,198,269,108.4184045791626,108.41848063468933,108.42232418060303,108.43309497833252,108.57375478744507,108.57375478744507,108.57375478744507,108.57375478744507,108.57375478744507,108.57375478744507,108.57375478744507,109.91605043411255,3,1.4706840515136719,None,,,,,,,,,,,,,,,,,,148,1,2025-02-27_14h51.11.275,comp,2024.2.4,None,2025-02-27 14h51.23.262702 -0500,
34,34,0,filler_random,None,None,None,None,None,None,None,None,None,None,3,1.5295722484588623,None,,,,,0,0,0,0,0,34,34,167,109.93472266197205,,,,,,,,,,,,,,,,,,,,,,,,,,,,,,,,,,,,,,,,,,,,,,,,,,,,,,,,,,,,,,,,,,,,,,,,,,,,,,,,,,62.84585559367329,150.6642522237363,166.804720819237,182.9266875547614,174.32493581564276,196.813503251602,2.1,2.12,-263,-266,0,-253,286,269,109.91792321205139,109.91800260543823,109.92161202430725,109.93472266197205,110.07992053031921,110.07992053031921,110.07992053031921,110.07992053031921,110.07992053031921,110.07992053031921,110.07992053031921,111.47412753105164,3,1.5295722484588623,None,,,,,,,,,,,,,,,,,,148,1,2025-02-27_14h51.11.275,comp,2024.2.4,None,2025-02-27 14h51.23.262702 -0500,
35,35,0,catch,None,None,None,None,None,None,None,None,None,None,2,0.9204554557800293,None,,,,,0,0,0,0,0,35,35,125,111.49539351463318,,,,,,,,,,,,,,,,,,,,,,,,,,,,,,,,,,,,,,,,,,,,,,,,,,,,,,,,,,,,,,,,,,,,,,,,,,,,,,,,,,132,58,132,193,131,59,2.1,2.11,-222,264,0,283,222,-254,111.47628998756409,111.4763662815094,111.47955751419067,111.49539351463318,111.63265442848206,111.63265442848206,111.63265442848206,111.63265442848206,111.63265442848206,111.63265442848206,111.63265442848206,112.41795015335083,2,0.9204554557800293,None,,,,,,,,,,,,,,,,,,148,1,2025-02-27_14h51.11.275,comp,2024.2.4,None,2025-02-27 14h51.23.262702 -0500,
36,36,0,critical,whd,35.0,3.0,lower,57.0,133.0,133.0,57.0,70.0,70.0,3,1.1655786037445068,None,,,,,0,0,0,0,0,36,36,86,112.43430042266846,,,,,,,,,,,,,,,,,,,,,,,,,,,,,,,,,,,,,,,,,,,,,,,,,,,,,,,,,,,,,,,,,,,,,,,,,,,,,,,,,,57.0,133.0,133.0,57.0,70.0,70.0,3.0,3.1,-191,280,0,17,160,-255,112.41972827911377,112.41980695724487,112.42366909980774,112.43430042266846,112.5848069190979,112.5848069190979,112.5848069190979,112.5848069190979,112.5848069190979,112.5848069190979,112.5848069190979,113.61583232879639,3,1.1655786037445068,None,,,,,,,,,,,,,,,,,,148,1,2025-02-27_14h51.11.275,comp,2024.2.4,None,2025-02-27 14h51.23.262702 -0500,
37,37,0,critical,dwh,35.0,2.1,upper,127.0,127.0,125.0,200.0,200.0,125.0,3,1.8321895599365234,None,,,,,0,0,0,0,0,37,37,29,113.63173389434814,,,,,,,,,,,,,,,,,,,,,,,,,,,,,,,,,,,,,,,,,,,,,,,,,,,,,,,,,,,,,,,,,,,,,,,,,,,,,,,,,,127.0,127.0,125.0,200.0,200.0,125.0,2.1,2.12,-260,-266,0,-281,258,282,113.61733317375183,113.61740612983704,113.62127900123596,113.63173389434814,113.78085327148438,113.78085327148438,113.78085327148438,113.78085327148438,113.78085327148438,113.78085327148438,113.78085327148438,115.46806454658508,3,1.8321895599365234,None,,,,,,,,,,,,,,,,,,148,1,2025-02-27_14h51.11.275,comp,2024.2.4,None,2025-02-27 14h51.23.262702 -0500,
38,38,0,critical,dwh,20.0,3.0,lower,78.0,78.0,57.0,133.0,133.0,57.0,2,1.119901180267334,None,,,,,0,0,0,0,0,38,38,68,115.48870706558228,,,,,,,,,,,,,,,,,,,,,,,,,,,,,,,,,,,,,,,,,,,,,,,,,,,,,,,,,,,,,,,,,,,,,,,,,,,,,,,,,,78.0,78.0,57.0,133.0,133.0,57.0,3.0,3.1,-202,283,0,-19,191,-253,115.46961212158203,115.46970272064209,115.47289228439331,115.48870706558228,115.63276624679565,115.63276624679565,115.63276624679565,115.63276624679565,115.63276624679565,115.63276624679565,115.63276624679565,116.61329317092896,2,1.119901180267334,None,,,,,,,,,,,,,,,,,,148,1,2025-02-27_14h51.11.275,comp,2024.2.4,None,2025-02-27 14h51.23.262702 -0500,
39,39,0,critical,hdw,35.0,4.0,lower,133.0,57.0,70.0,70.0,57.0,133.0,2,0.8432354927062988,None,,,,,0,0,0,0,0,39,39,112,116.63123536109924,,,,,,,,,,,,,,,,,,,,,,,,,,,,,,,,,,,,,,,,,,,,,,,,,,,,,,,,,,,,,,,,,,,,,,,,,,,,,,,,,,133.0,57.0,70.0,70.0,57.0,133.0,4.0,4.2,-160,19,0,-275,198,1,116.61475586891174,116.61483526229858,116.617680311203,116.63123536109924,116.7676031589508,116.7676031589508,116.7676031589508,116.7676031589508,116.7676031589508,116.7676031589508,116.7676031589508,117.48470401763916,2,0.8432354927062988,None,,,,,,,,,,,,,,,,,,148,1,2025-02-27_14h51.11.275,comp,2024.2.4,None,2025-02-27 14h51.23.262702 -0500,
40,40,0,critical,dwh,20.0,2.1,lower,78.0,78.0,57.0,133.0,133.0,57.0,2,1.4829590320587158,None,,,,,0,0,0,0,0,40,40,30,117.50110077857971,,,,,,,,,,,,,,,,,,,,,,,,,,,,,,,,,,,,,,,,,,,,,,,,,,,,,,,,,,,,,,,,,,,,,,,,,,,,,,,,,,78.0,78.0,57.0,133.0,133.0,57.0,2.1,2.12,-202,-283,0,-253,191,276,117.48614573478699,117.48624992370605,117.49032425880432,117.50110077857971,117.65200066566467,117.65200066566467,117.65200066566467,117.65200066566467,117.65200066566467,117.65200066566467,117.65200066566467,119.00365281105042,2,1.4829590320587158,None,,,,,,,,,,,,,,,,,,148,1,2025-02-27_14h51.11.275,comp,2024.2.4,None,2025-02-27 14h51.23.262702 -0500,
41,41,0,filler_random,None,None,None,None,None,None,None,None,None,None,2,0.9680092334747314,None,,,,,0,0,0,0,0,41,41,149,119.02440237998962,,,,,,,,,,,,,,,,,,,,,,,,,,,,,,,,,,,,,,,,,,,,,,,,,,,,,,,,,,,,,,,,,,,,,,,,,,,,,,,,,,75.65436885784281,63.64871287119085,93.37934888337743,122.45433604029762,80.22402582149091,63.37197383488065,2.1,2.11,-189,255,0,265,189,-276,119.00563597679138,119.00571298599243,119.00901246070862,119.02440237998962,119.16727137565613,119.16727137565613,119.16727137565613,119.16727137565613,119.16727137565613,119.16727137565613,119.16727137565613,120.001948595047,2,0.9680092334747314,None,,,,,,,,,,,,,,,,,,148,1,2025-02-27_14h51.11.275,comp,2024.2.4,None,2025-02-27 14h51.23.262702 -0500,
42,42,0,catch,None,None,None,None,None,None,None,None,None,None,1,0.9974246025085449,None,,,,,0,0,0,0,0,42,42,124,120.01842451095581,,,,,,,,,,,,,,,,,,,,,,,,,,,,,,,,,,,,,,,,,,,,,,,,,,,,,,,,,,,,,,,,,,,,,,,,,,,,,,,,,,175,150,94,96,96,94,3.0,3.1,-219,289,0,10,191,-263,120.0040979385376,120.00420880317688,120.0075409412384,120.01842451095581,120.16599035263062,120.16599035263062,120.16599035263062,120.16599035263062,120.16599035263062,120.16599035263062,120.16599035263062,121.01803135871887,1,0.9974246025085449,None,,,,,,,,,,,,,,,,,,148,1,2025-02-27_14h51.11.275,comp,2024.2.4,None,2025-02-27 14h51.23.262702 -0500,
43,43,0,critical,dhw,20.0,1.0,upper,141.0,141.0,200.0,125.0,125.0,200.0,3,1.0950112342834473,None,,,,,0,0,0,0,0,43,43,55,121.0334951877594,,,,,,,,,,,,,,,,,,,,,,,,,,,,,,,,,,,,,,,,,,,,,,,,,,,,,,,,,,,,,,,,,,,,,,,,,,,,,,,,,,141.0,141.0,200.0,125.0,125.0,200.0,1.0,1.1,-709,275,-480,281,-222,260,121.01948714256287,121.01956605911255,121.02284812927246,121.0334951877594,121.17238903045654,121.17238903045654,121.17238903045654,121.17238903045654,121.17238903045654,121.17238903045654,121.17238903045654,122.13554000854492,3,1.0950112342834473,None,,,,,,,,,,,,,,,,,,148,1,2025-02-27_14h51.11.275,comp,2024.2.4,None,2025-02-27 14h51.23.262702 -0500,
44,44,0,filler_square,None,None,None,None,None,None,None,None,None,None,1,1.1598644256591797,None,,,,,0,0,0,0,0,44,44,182,122.15285563468933,,,,,,,,,,,,,,,,,,,,,,,,,,,,,,,,,,,,,,,,,,,,,,,,,,,,,,,,,,,,,,,,,,,,,,,,,,,,,,,,,,83.0455424490184,83.0455424490184,66.71004696751423,61.70370614601709,61.469677348912384,72.48629501537266,4.0,4.1,-168,-259,0,7,163,-285,122.13724374771118,122.13732051849365,122.14126181602478,122.15285563468933,122.30061101913452,122.30061101913452,122.30061101913452,122.30061101913452,122.30061101913452,122.30061101913452,122.30061101913452,123.31775164604187,1,1.1598644256591797,None,,,,,,,,,,,,,,,,,,148,1,2025-02-27_14h51.11.275,comp,2024.2.4,None,2025-02-27 14h51.23.262702 -0500,
45,45,0,critical,dhw,35.0,4.0,lower,70.0,70.0,133.0,57.0,57.0,133.0,3,1.1459410190582275,None,,,,,0,0,0,0,0,45,45,52,123.33625388145447,,,,,,,,,,,,,,,,,,,,,,,,,,,,,,,,,,,,,,,,,,,,,,,,,,,,,,,,,,,,,,,,,,,,,,,,,,,,,,,,,,70.0,70.0,133.0,57.0,57.0,133.0,4.0,4.1,-160,-279,0,-5,191,-277,123.31937670707703,123.3194682598114,123.32274413108826,123.33625388145447,123.48600792884827,123.48600792884827,123.48600792884827,123.48600792884827,123.48600792884827,123.48600792884827,123.48600792884827,124.48893642425537,3,1.1459410190582275,None,,,,,,,,,,,,,,,,,,148,1,2025-02-27_14h51.11.275,comp,2024.2.4,None,2025-02-27 14h51.23.262702 -0500,
46,46,0,critical,hdw,35.0,2.1,upper,200.0,125.0,127.0,127.0,125.0,200.0,1,1.6303813457489014,None,,,,,0,0,0,0,0,46,46,45,124.50554990768433,,,,,,,,,,,,,,,,,,,,,,,,,,,,,,,,,,,,,,,,,,,,,,,,,,,,,,,,,,,,,,,,,,,,,,,,,,,,,,,,,,200.0,125.0,127.0,127.0,125.0,200.0,2.1,2.12,-222,-277,0,-286,260,269,124.49070286750793,124.49083733558655,124.49477028846741,124.50554990768433,124.64986944198608,124.64986944198608,124.64986944198608,124.64986944198608,124.64986944198608,124.64986944198608,124.64986944198608,126.15153622627258,1,1.6303813457489014,None,,,,,,,,,,,,,,,,,,148,1,2025-02-27_14h51.11.275,comp,2024.2.4,None,2025-02-27 14h51.23.262702 -0500,
47,47,0,filler_random,None,None,None,None,None,None,None,None,None,None,3,1.5042881965637207,None,,,,,0,0,0,0,0,47,47,166,126.16750407218933,,,,,,,,,,,,,,,,,,,,,,,,,,,,,,,,,,,,,,,,,,,,,,,,,,,,,,,,,,,,,,,,,,,,,,,,,,,,,,,,,,114.00508170960158,130.3818750663371,57.49129463793413,64.65264394636756,106.10389677085591,182.37075869346268,4.0,4.2,-194,1,0,-283,220,-14,126.1531114578247,126.15320992469788,126.15619111061096,126.16750407218933,126.3153395652771,126.3153395652771,126.3153395652771,126.3153395652771,126.3153395652771,126.3153395652771,126.3153395652771,127.68752956390381,3,1.5042881965637207,None,,,,,,,,,,,,,,,,,,148,1,2025-02-27_14h51.11.275,comp,2024.2.4,None,2025-02-27 14h51.23.262702 -0500,
48,48,0,filler_square,None,None,None,None,None,None,None,None,None,None,2,1.4165534973144531,None,,,,,0,0,0,0,0,48,48,194,127.70335412025452,,,,,,,,,,,,,,,,,,,,,,,,,,,,,,,,,,,,,,,,,,,,,,,,,,,,,,,,,,,,,,,,,,,,,,,,,,,,,,,,,,92.8421379412303,85.64261735066552,108.35763220911015,108.35763220911015,63.993351474960576,87.17483165901072,2.1,2.12,-193,-268,0,-289,194,289,127.68938302993774,127.68945908546448,127.69270610809326,127.70335412025452,127.85860085487366,127.85860085487366,127.85860085487366,127.85860085487366,127.85860085487366,127.85860085487366,127.85860085487366,129.12230229377747,2,1.4165534973144531,None,,,,,,,,,,,,,,,,,,148,1,2025-02-27_14h51.11.275,comp,2024.2.4,None,2025-02-27 14h51.23.262702 -0500,
49,49,0,filler_random,None,None,None,None,None,None,None,None,None,None,3,1.1015160083770752,None,,,,,0,0,0,0,0,49,49,141,129.1389558315277,,,,,,,,,,,,,,,,,,,,,,,,,,,,,,,,,,,,,,,,,,,,,,,,,,,,,,,,,,,,,,,,,,,,,,,,,,,,,,,,,,90.8938105362559,109.55068232181821,144.64734955802504,173.36962910306036,141.01845246810817,154.44666383458855,3.0,3.2,-237,-289,0,5,260,254,129.12425208091736,129.1243815422058,129.127703666687,129.1389558315277,129.2836172580719,129.2836172580719,129.2836172580719,129.2836172580719,129.2836172580719,129.2836172580719,129.2836172580719,130.24322724342346,3,1.1015160083770752,None,,,,,,,,,,,,,,,,,,148,1,2025-02-27_14h51.11.275,comp,2024.2.4,None,2025-02-27 14h51.23.262702 -0500,
50,50,0,catch,None,None,None,None,None,None,None,None,None,None,1,0.853142261505127,None,,,,,0,0,0,0,0,50,50,126,130.25948214530945,,,,,,,,,,,,,,,,,,,,,,,,,,,,,,,,,,,,,,,,,,,,,,,,,,,,,,,,,,,,,,,,,,,,,,,,,,,,,,,,,,186,139,60,130,65,125,1.0,1.2,-230,5,0,-8,224,-13,130.2450168132782,130.24509406089783,130.24789381027222,130.25948214530945,130.40199947357178,130.40199947357178,130.40199947357178,130.40199947357178,130.40199947357178,130.40199947357178,130.40199947357178,131.12135338783264,1,0.853142261505127,None,,,,,,,,,,,,,,,,,,148,1,2025-02-27_14h51.11.275,comp,2024.2.4,None,2025-02-27 14h51.23.262702 -0500,
51,51,0,filler_random,None,None,None,None,None,None,None,None,None,None,2,1.0782513618469238,None,,,,,0,0,0,0,0,51,51,154,131.13798141479492,,,,,,,,,,,,,,,,,,,,,,,,,,,,,,,,,,,,,,,,,,,,,,,,,,,,,,,,,,,,,,,,,,,,,,,,,,,,,,,,,,199.84495344957205,166.00741632713365,172.948070690687,193.11115230084545,179.70801240878671,190.91008002700218,3.0,3.2,-276,-283,0,16,288,279,131.1230103969574,131.12308645248413,131.12707209587097,131.13798141479492,131.28708720207214,131.28708720207214,131.28708720207214,131.28708720207214,131.28708720207214,131.28708720207214,131.28708720207214,132.22073793411255,2,1.0782513618469238,None,,,,,,,,,,,,,,,,,,148,1,2025-02-27_14h51.11.275,comp,2024.2.4,None,2025-02-27 14h51.23.262702 -0500,
52,52,0,critical,dhw,35.0,3.0,lower,70.0,70.0,133.0,57.0,57.0,133.0,1,3.7188546657562256,None,,,,,0,0,0,0,0,52,52,50,132.24107122421265,,,,,,,,,,,,,,,,,,,,,,,,,,,,,,,,,,,,,,,,,,,,,,,,,,,,,,,,,,,,,,,,,,,,,,,,,,,,,,,,,,70.0,70.0,133.0,57.0,57.0,133.0,3.0,3.2,-160,-256,0,7,191,265,132.22229075431824,132.22236824035645,132.22526097297668,132.24107122421265,132.3879108428955,132.3879108428955,132.3879108428955,132.3879108428955,132.3879108428955,132.3879108428955,132.3879108428955,135.97253394126892,1,3.7188546657562256,None,,,,,,,,,,,,,,,,,,148,1,2025-02-27_14h51.11.275,comp,2024.2.4,None,2025-02-27 14h51.23.262702 -0500,
53,53,0,critical,whd,20.0,4.0,lower,57.0,133.0,133.0,57.0,78.0,78.0,3,2.170971393585205,None,,,,,0,0,0,0,0,53,53,94,135.98964619636536,,,,,,,,,,,,,,,,,,,,,,,,,,,,,,,,,,,,,,,,,,,,,,,,,,,,,,,,,,,,,,,,,,,,,,,,,,,,,,,,,,57.0,133.0,133.0,57.0,78.0,78.0,4.0,4.2,-191,-16,0,-282,164,5,135.97401118278503,135.9740855693817,135.97701287269592,135.98964619636536,136.1434154510498,136.1434154510498,136.1434154510498,136.1434154510498,136.1434154510498,136.1434154510498,136.1434154510498,138.16782402992249,3,2.170971393585205,None,,,,,,,,,,,,,,,,,,148,1,2025-02-27_14h51.11.275,comp,2024.2.4,None,2025-02-27 14h51.23.262702 -0500,
54,54,0,filler_square,None,None,None,None,None,None,None,None,None,None,1,1.015533685684204,None,,,,,0,0,0,0,0,54,54,193,138.18513250350952,,,,,,,,,,,,,,,,,,,,,,,,,,,,,,,,,,,,,,,,,,,,,,,,,,,,,,,,,,,,,,,,,,,,,,,,,,,,,,,,,,85.53839470502481,85.53839470502481,75.70558693513901,63.03015379872559,59.02163498051966,59.96370737510077,2.1,2.11,-170,290,0,253,157,-263,138.16979908943176,138.1698739528656,138.17307710647583,138.18513250350952,138.32435250282288,138.32435250282288,138.32435250282288,138.32435250282288,138.32435250282288,138.32435250282288,138.32435250282288,139.2083466053009,1,1.015533685684204,None,,,,,,,,,,,,,,,,,,148,1,2025-02-27_14h51.11.275,comp,2024.2.4,None,2025-02-27 14h51.23.262702 -0500,
55,55,0,critical,wdh,35.0,2.1,lower,57.0,133.0,70.0,70.0,133.0,57.0,1,1.3756158351898193,None,,,,,0,0,0,0,0,55,55,8,139.22484230995178,,,,,,,,,,,,,,,,,,,,,,,,,,,,,,,,,,,,,,,,,,,,,,,,,,,,,,,,,,,,,,,,,,,,,,,,,,,,,,,,,,57.0,133.0,70.0,70.0,133.0,57.0,2.1,2.12,-198,-275,0,-284,160,274,139.21020650863647,139.2103407382965,139.21421647071838,139.22484230995178,139.37755489349365,139.37755489349365,139.37755489349365,139.37755489349365,139.37755489349365,139.37755489349365,139.37755489349365,140.60753273963928,1,1.3756158351898193,None,,,,,,,,,,,,,,,,,,148,1,2025-02-27_14h51.11.275,comp,2024.2.4,None,2025-02-27 14h51.23.262702 -0500,
56,56,0,critical,wdh,20.0,1.0,lower,57.0,133.0,78.0,78.0,133.0,57.0,1,1.032430648803711,None,,,,,0,0,0,0,0,56,56,78,140.6234049797058,,,,,,,,,,,,,,,,,,,,,,,,,,,,,,,,,,,,,,,,,,,,,,,,,,,,,,,,,,,,,,,,,,,,,,,,,,,,,,,,,,57.0,133.0,78.0,78.0,133.0,57.0,1.0,1.3,278,-276,480,-251,644,-277,140.60914778709412,140.6092836856842,140.61267185211182,140.6234049797058,140.7810137271881,140.7810137271881,140.7810137271881,140.7810137271881,140.7810137271881,140.7810137271881,140.7810137271881,141.65805864334106,1,1.032430648803711,None,,,,,,,,,,,,,,,,,,148,1,2025-02-27_14h51.11.275,comp,2024.2.4,None,2025-02-27 14h51.23.262702 -0500,
57,57,0,critical,dhw,35.0,2.1,upper,127.0,127.0,200.0,125.0,125.0,200.0,3,0.9652583599090576,None,,,,,0,0,0,0,0,57,57,25,141.6746644973755,,,,,,,,,,,,,,,,,,,,,,,,,,,,,,,,,,,,,,,,,,,,,,,,,,,,,,,,,,,,,,,,,,,,,,,,,,,,,,,,,,127.0,127.0,200.0,125.0,125.0,200.0,2.1,2.12,-222,-255,0,-287,258,260,141.6595811843872,141.65965700149536,141.66359853744507,141.6746644973755,141.82370400428772,141.82370400428772,141.82370400428772,141.82370400428772,141.82370400428772,141.82370400428772,141.82370400428772,142.6575484275818,3,0.9652583599090576,None,,,,,,,,,,,,,,,,,,148,1,2025-02-27_14h51.11.275,comp,2024.2.4,None,2025-02-27 14h51.23.262702 -0500,
58,58,0,critical,whd,20.0,2.1,upper,125.0,200.0,200.0,125.0,141.0,141.0,1,3.0666754245758057,None,,,,,0,0,0,0,0,58,58,39,142.677161693573,,,,,,,,,,,,,,,,,,,,,,,,,,,,,,,,,,,,,,,,,,,,,,,,,,,,,,,,,,,,,,,,,,,,,,,,,,,,,,,,,,125.0,200.0,200.0,125.0,141.0,141.0,2.1,2.11,-258,278,0,256,229,-272,142.6591556072235,142.65925788879395,142.6625018119812,142.677161693573,142.82485222816467,142.82485222816467,142.82485222816467,142.82485222816467,142.82485222816467,142.82485222816467,142.82485222816467,145.76233768463135,1,3.0666754245758057,None,,,,,,,,,,,,,,,,,,148,1,2025-02-27_14h51.11.275,comp,2024.2.4,None,2025-02-27 14h51.23.262702 -0500,
59,59,0,filler_square,None,None,None,None,None,None,None,None,None,None,3,3.344895362854004,None,,,,,0,0,0,0,0,59,59,191,145.78303980827332,,,,,,,,,,,,,,,,,,,,,,,,,,,,,,,,,,,,,,,,,,,,,,,,,,,,,,,,,,,,,,,,,,,,,,,,,,,,,,,,,,63.731443938084205,63.731443938084205,61.91091678186321,58.541836705818476,60.357797691350314,62.4819884075704,4.0,4.1,-157,-257,0,-16,157,-273,145.76416158676147,145.76430416107178,145.7676341533661,145.78303980827332,145.92569875717163,145.92569875717163,145.92569875717163,145.92569875717163,145.92569875717163,145.92569875717163,145.92569875717163,149.13268876075745,3,3.344895362854004,None,,,,,,,,,,,,,,,,,,148,1,2025-02-27_14h51.11.275,comp,2024.2.4,None,2025-02-27 14h51.23.262702 -0500,
60,60,0,critical,hwd,20.0,2.1,lower,133.0,57.0,57.0,133.0,78.0,78.0,3,1.4669973850250244,None,,,,,0,0,0,0,0,60,60,18,149.14991164207458,,,,,,,,,,,,,,,,,,,,,,,,,,,,,,,,,,,,,,,,,,,,,,,,,,,,,,,,,,,,,,,,,,,,,,,,,,,,,,,,,,133.0,57.0,57.0,133.0,78.0,78.0,2.1,2.12,-191,-287,0,-266,202,264,149.13416028022766,149.13426566123962,149.13703274726868,149.14991164207458,149.29348731040955,149.29348731040955,149.29348731040955,149.29348731040955,149.29348731040955,149.29348731040955,149.29348731040955,150.6254062652588,3,1.4669973850250244,None,,,,,,,,,,,,,,,,,,148,1,2025-02-27_14h51.11.275,comp,2024.2.4,None,2025-02-27 14h51.23.262702 -0500,
61,61,0,critical,wdh,35.0,4.0,lower,57.0,133.0,70.0,70.0,133.0,57.0,1,1.0311229228973389,None,,,,,0,0,0,0,0,61,61,76,150.64107465744019,,,,,,,,,,,,,,,,,,,,,,,,,,,,,,,,,,,,,,,,,,,,,,,,,,,,,,,,,,,,,,,,,,,,,,,,,,,,,,,,,,57.0,133.0,70.0,70.0,133.0,57.0,4.0,4.1,-198,-260,0,12,160,-270,150.62702322006226,150.62711906433105,150.63038849830627,150.64107465744019,150.79511713981628,150.79511713981628,150.79511713981628,150.79511713981628,150.79511713981628,150.79511713981628,150.79511713981628,151.6765365600586,1,1.0311229228973389,None,,,,,,,,,,,,,,,,,,148,1,2025-02-27_14h51.11.275,comp,2024.2.4,None,2025-02-27 14h51.23.262702 -0500,
62,62,0,filler_random,None,None,None,None,None,None,None,None,None,None,2,1.026672124862671,None,,,,,0,0,0,0,0,62,62,139,151.69320964813232,,,,,,,,,,,,,,,,,,,,,,,,,,,,,,,,,,,,,,,,,,,,,,,,,,,,,,,,,,,,,,,,,,,,,,,,,,,,,,,,,,92.6368299942543,79.46153495071778,164.54207021672855,168.57329969566513,183.47467992198492,140.04471780129532,3.0,3.2,-220,-285,0,-8,250,259,151.6781461238861,151.67824864387512,151.68123602867126,151.69320964813232,151.84040307998657,151.84040307998657,151.84040307998657,151.84040307998657,151.84040307998657,151.84040307998657,151.84040307998657,152.73478293418884,2,1.026672124862671,None,,,,,,,,,,,,,,,,,,148,1,2025-02-27_14h51.11.275,comp,2024.2.4,None,2025-02-27 14h51.23.262702 -0500,
63,63,0,filler_random,None,None,None,None,None,None,None,None,None,None,3,1.2250399589538574,None,,,,,0,0,0,0,0,63,63,151,152.75093483924866,,,,,,,,,,,,,,,,,,,,,,,,,,,,,,,,,,,,,,,,,,,,,,,,,,,,,,,,,,,,,,,,,,,,,,,,,,,,,,,,,,127.92038827395184,59.167713929828864,57.341980967199554,140.94367609987427,198.8149604615928,119.00848581573808,2.1,2.11,-196,286,0,276,226,-281,152.73650097846985,152.73657488822937,152.7393729686737,152.75093483924866,152.8977234363556,152.8977234363556,152.8977234363556,152.8977234363556,152.8977234363556,152.8977234363556,152.8977234363556,153.97940850257874,3,1.2250399589538574,None,,,,,,,,,,,,,,,,,,148,1,2025-02-27_14h51.11.275,comp,2024.2.4,None,2025-02-27 14h51.23.262702 -0500,
64,64,0,filler_square,None,None,None,None,None,None,None,None,None,None,1,1.1382036209106445,None,,,,,0,0,0,0,0,64,64,198,153.9978950023651,,,,,,,,,,,,,,,,,,,,,,,,,,,,,,,,,,,,,,,,,,,,,,,,,,,,,,,,,,,,,,,,,,,,,,,,,,,,,,,,,,57.045963122803194,57.01693839232852,57.01431664914387,57.04937547495068,57.099659078078545,57.099659078078545,4.0,4.1,-153,-254,0,-8,153,-266,153.98135828971863,153.9814829826355,153.98505020141602,153.9978950023651,154.1450536251068,154.1450536251068,154.1450536251068,154.1450536251068,154.1450536251068,154.1450536251068,154.1450536251068,155.15254735946655,1,1.1382036209106445,None,,,,,,,,,,,,,,,,,,148,1,2025-02-27_14h51.11.275,comp,2024.2.4,None,2025-02-27 14h51.23.262702 -0500,
65,65,0,filler_square,None,None,None,None,None,None,None,None,None,None,3,1.1674654483795166,None,,,,,0,0,0,0,0,65,65,177,155.16840887069702,,,,,,,,,,,,,,,,,,,,,,,,,,,,,,,,,,,,,,,,,,,,,,,,,,,,,,,,,,,,,,,,,,,,,,,,,,,,,,,,,,70.7357797293489,60.50731212277404,70.18855343231635,67.57117472288418,73.60053731529757,73.60053731529757,4.0,4.2,-160,4,0,-256,167,-16,155.15433049201965,155.15440773963928,155.15720582008362,155.16840887069702,155.309636592865,155.309636592865,155.309636592865,155.309636592865,155.309636592865,155.309636592865,155.309636592865,156.35028553009033,3,1.1674654483795166,None,,,,,,,,,,,,,,,,,,148,1,2025-02-27_14h51.11.275,comp,2024.2.4,None,2025-02-27 14h51.23.262702 -0500,
66,66,0,filler_random,None,None,None,None,None,None,None,None,None,None,2,1.3817238807678223,None,,,,,0,0,0,0,0,66,66,153,156.3709237575531,,,,,,,,,,,,,,,,,,,,,,,,,,,,,,,,,,,,,,,,,,,,,,,,,,,,,,,,,,,,,,,,,,,,,,,,,,,,,,,,,,175.80471912356342,62.42085560853021,162.11741493512983,112.52846201066583,166.596094842168,72.76888995881698,3.0,3.2,-183,-284,0,-15,189,279,156.35222244262695,156.3523030281067,156.35556650161743,156.3709237575531,156.51232647895813,156.51232647895813,156.51232647895813,156.51232647895813,156.51232647895813,156.51232647895813,156.51232647895813,157.7632541656494,2,1.3817238807678223,None,,,,,,,,,,,,,,,,,,148,1,2025-02-27_14h51.11.275,comp,2024.2.4,None,2025-02-27 14h51.23.262702 -0500,
67,67,0,catch,None,None,None,None,None,None,None,None,None,None,1,1.0198888778686523,None,,,,,0,0,0,0,0,67,67,127,157.78011536598206,,,,,,,,,,,,,,,,,,,,,,,,,,,,,,,,,,,,,,,,,,,,,,,,,,,,,,,,,,,,,,,,,,,,,,,,,,,,,,,,,,187,138,87,103,120,70,2.1,2.12,-216,-257,0,-269,182,280,157.76544284820557,157.76551985740662,157.76948881149292,157.78011536598206,157.9288890361786,157.9288890361786,157.9288890361786,157.9288890361786,157.9288890361786,157.9288890361786,157.9288890361786,158.81587862968445,1,1.0198888778686523,None,,,,,,,,,,,,,,,,,,148,1,2025-02-27_14h51.11.275,comp,2024.2.4,None,2025-02-27 14h51.23.262702 -0500,
68,68,0,filler_random,None,None,None,None,None,None,None,None,None,None,1,1.2114169597625732,None,,,,,0,0,0,0,0,68,68,159,158.83642053604126,,,,,,,,,,,,,,,,,,,,,,,,,,,,,,,,,,,,,,,,,,,,,,,,,,,,,,,,,,,,,,,,,,,,,,,,,,,,,,,,,,161.14316829842522,132.56557986604827,75.93501226620066,185.56863128776362,198.92917786420185,62.458873747868246,4.0,4.2,-255,-13,0,-289,220,-11,158.8182189464569,158.81831741333008,158.82128238677979,158.83642053604126,158.97975277900696,158.97975277900696,158.97975277900696,158.97975277900696,158.97975277900696,158.97975277900696,158.97975277900696,160.06345129013062,1,1.2114169597625732,None,,,,,,,,,,,,,,,,,,148,1,2025-02-27_14h51.11.275,comp,2024.2.4,None,2025-02-27 14h51.23.262702 -0500,
69,69,0,critical,hdw,20.0,2.1,lower,133.0,57.0,78.0,78.0,57.0,133.0,2,1.7762846946716309,None,,,,,0,0,0,0,0,69,69,22,160.07959628105164,,,,,,,,,,,,,,,,,,,,,,,,,,,,,,,,,,,,,,,,,,,,,,,,,,,,,,,,,,,,,,,,,,,,,,,,,,,,,,,,,,133.0,57.0,78.0,78.0,57.0,133.0,2.1,2.11,-164,260,0,274,202,-278,160.0650599002838,160.06516814231873,160.06870007514954,160.07959628105164,160.23783349990845,160.23783349990845,160.23783349990845,160.23783349990845,160.23783349990845,160.23783349990845,160.23783349990845,161.86601281166077,2,1.7762846946716309,None,,,,,,,,,,,,,,,,,,148,1,2025-02-27_14h51.11.275,comp,2024.2.4,None,2025-02-27 14h51.23.262702 -0500,
70,70,0,filler_random,None,None,None,None,None,None,None,None,None,None,1,1.2777917385101318,None,,,,,0,0,0,0,0,70,70,130,161.88246893882751,,,,,,,,,,,,,,,,,,,,,,,,,,,,,,,,,,,,,,,,,,,,,,,,,,,,,,,,,,,,,,,,,,,,,,,,,,,,,,,,,,125.99240511222425,194.06230480860975,58.89176294816631,134.89841510850033,144.37162557288093,89.08467438957504,4.0,4.1,-260,-284,0,15,208,-285,161.86798906326294,161.86807012557983,161.87146472930908,161.88246893882751,162.02789664268494,162.02789664268494,162.02789664268494,162.02789664268494,162.02789664268494,162.02789664268494,162.02789664268494,163.16819858551025,1,1.2777917385101318,None,,,,,,,,,,,,,,,,,,148,1,2025-02-27_14h51.11.275,comp,2024.2.4,None,2025-02-27 14h51.23.262702 -0500,
71,71,0,critical,hdw,20.0,3.0,lower,133.0,57.0,78.0,78.0,57.0,133.0,2,4.171352863311768,None,,,,,0,0,0,0,0,71,71,116,163.18888473510742,,,,,,,,,,,,,,,,,,,,,,,,,,,,,,,,,,,,,,,,,,,,,,,,,,,,,,,,,,,,,,,,,,,,,,,,,,,,,,,,,,133.0,57.0,78.0,78.0,57.0,133.0,3.0,3.1,-164,278,0,-3,202,-261,163.1697747707367,163.16985774040222,163.17314386367798,163.18888473510742,163.33428621292114,163.33428621292114,163.33428621292114,163.33428621292114,163.33428621292114,163.33428621292114,163.33428621292114,167.36509156227112,2,4.171352863311768,None,,,,,,,,,,,,,,,,,,148,1,2025-02-27_14h51.11.275,comp,2024.2.4,None,2025-02-27 14h51.23.262702 -0500,
72,72,0,critical,dhw,20.0,3.0,lower,78.0,78.0,133.0,57.0,57.0,133.0,2,1.0905163288116455,None,,,,,0,0,0,0,0,72,72,56,167.3814573287964,,,,,,,,,,,,,,,,,,,,,,,,,,,,,,,,,,,,,,,,,,,,,,,,,,,,,,,,,,,,,,,,,,,,,,,,,,,,,,,,,,78.0,78.0,133.0,57.0,57.0,133.0,3.0,3.1,-164,269,0,-6,191,-286,167.36662602424622,167.3667004108429,167.36978912353516,167.3814573287964,167.5220878124237,167.5220878124237,167.5220878124237,167.5220878124237,167.5220878124237,167.5220878124237,167.5220878124237,168.48179626464844,2,1.0905163288116455,None,,,,,,,,,,,,,,,,,,148,1,2025-02-27_14h51.11.275,comp,2024.2.4,None,2025-02-27 14h51.23.262702 -0500,
73,73,0,filler_random,None,None,None,None,None,None,None,None,None,None,1,1.8623452186584473,None,,,,,0,0,0,0,0,73,73,160,168.49831771850586,,,,,,,,,,,,,,,,,,,,,,,,,,,,,,,,,,,,,,,,,,,,,,,,,,,,,,,,,,,,,,,,,,,,,,,,,,,,,,,,,,149.81648118419668,189.4745434570801,61.39315912355598,121.97147180744555,127.43945442656879,85.64213272448056,3.0,3.1,-252,253,0,19,200,-252,168.48344731330872,168.48352336883545,168.48662424087524,168.49831771850586,168.64638757705688,168.64638757705688,168.64638757705688,168.64638757705688,168.64638757705688,168.64638757705688,168.64638757705688,170.3660168647766,1,1.8623452186584473,None,,,,,,,,,,,,,,,,,,148,1,2025-02-27_14h51.11.275,comp,2024.2.4,None,2025-02-27 14h51.23.262702 -0500,
74,74,0,critical,whd,35.0,2.1,upper,125.0,200.0,200.0,125.0,127.0,127.0,2,1.785444736480713,None,,,,,0,0,0,0,0,74,74,13,170.38279604911804,,,,,,,,,,,,,,,,,,,,,,,,,,,,,,,,,,,,,,,,,,,,,,,,,,,,,,,,,,,,,,,,,,,,,,,,,,,,,,,,,,125.0,200.0,200.0,125.0,127.0,127.0,2.1,2.11,-258,287,0,264,222,-274,170.3676197528839,170.36769604682922,170.37092661857605,170.38279604911804,170.53488612174988,170.53488612174988,170.53488612174988,170.53488612174988,170.53488612174988,170.53488612174988,170.53488612174988,172.17512011528015,2,1.785444736480713,None,,,,,,,,,,,,,,,,,,148,1,2025-02-27_14h51.11.275,comp,2024.2.4,None,2025-02-27 14h51.23.262702 -0500,
75,75,0,critical,whd,35.0,1.0,lower,57.0,133.0,133.0,57.0,70.0,70.0,3,2.8208231925964355,None,,,,,0,0,0,0,0,75,75,84,172.1951174736023,,,,,,,,,,,,,,,,,,,,,,,,,,,,,,,,,,,,,,,,,,,,,,,,,,,,,,,,,,,,,,,,,,,,,,,,,,,,,,,,,,57.0,133.0,133.0,57.0,70.0,70.0,1.0,1.2,-191,-12,0,-6,160,7,172.1765902042389,172.1766655445099,172.17954111099243,172.1951174736023,172.33595395088196,172.33595395088196,172.33595395088196,172.33595395088196,172.33595395088196,172.33595395088196,172.33595395088196,175.02004504203796,3,2.8208231925964355,None,,,,,,,,,,,,,,,,,,148,1,2025-02-27_14h51.11.275,comp,2024.2.4,None,2025-02-27 14h51.23.262702 -0500,
76,76,0,critical,hdw,35.0,2.1,lower,133.0,57.0,70.0,70.0,57.0,133.0,1,5.515016078948975,None,,,,,0,0,0,0,0,76,76,20,175.03736090660095,,,,,,,,,,,,,,,,,,,,,,,,,,,,,,,,,,,,,,,,,,,,,,,,,,,,,,,,,,,,,,,,,,,,,,,,,,,,,,,,,,133.0,57.0,70.0,70.0,57.0,133.0,2.1,2.12,-160,-281,0,-266,198,280,175.0215780735016,175.02165389060974,175.02456307411194,175.03736090660095,175.1807758808136,175.1807758808136,175.1807758808136,175.1807758808136,175.1807758808136,175.1807758808136,175.1807758808136,180.55592799186707,1,5.515016078948975,None,,,,,,,,,,,,,,,,,,148,1,2025-02-27_14h51.11.275,comp,2024.2.4,None,2025-02-27 14h51.23.262702 -0500,
77,77,0,critical,dhw,35.0,1.0,upper,127.0,127.0,200.0,125.0,125.0,200.0,3,1.3277006149291992,None,,,,,0,0,0,0,0,77,77,49,180.57621002197266,,,,,,,,,,,,,,,,,,,,,,,,,,,,,,,,,,,,,,,,,,,,,,,,,,,,,,,,,,,,,,,,,,,,,,,,,,,,,,,,,,127.0,127.0,200.0,125.0,125.0,200.0,1.0,1.1,-702,264,-480,253,-222,276,180.55754590034485,180.55762434005737,180.56086134910583,180.57621002197266,180.72174334526062,180.72174334526062,180.72174334526062,180.72174334526062,180.72174334526062,180.72174334526062,180.72174334526062,181.91931581497192,3,1.3277006149291992,None,,,,,,,,,,,,,,,,,,148,1,2025-02-27_14h51.11.275,comp,2024.2.4,None,2025-02-27 14h51.23.262702 -0500,
78,78,0,critical,dhw,35.0,2.1,lower,70.0,70.0,133.0,57.0,57.0,133.0,2,0.9362692832946777,None,,,,,0,0,0,0,0,78,78,24,181.93561005592346,,,,,,,,,,,,,,,,,,,,,,,,,,,,,,,,,,,,,,,,,,,,,,,,,,,,,,,,,,,,,,,,,,,,,,,,,,,,,,,,,,70.0,70.0,133.0,57.0,57.0,133.0,2.1,2.11,-160,277,0,257,191,-281,181.92087149620056,181.92094564437866,181.92425107955933,181.93561005592346,182.0897126197815,182.0897126197815,182.0897126197815,182.0897126197815,182.0897126197815,182.0897126197815,182.0897126197815,182.88956928253174,2,0.9362692832946777,None,,,,,,,,,,,,,,,,,,148,1,2025-02-27_14h51.11.275,comp,2024.2.4,None,2025-02-27 14h51.23.262702 -0500,
79,79,0,critical,wdh,35.0,1.0,lower,57.0,133.0,70.0,70.0,133.0,57.0,3,0.9918003082275391,None,,,,,0,0,0,0,0,79,79,72,182.90507817268372,,,,,,,,,,,,,,,,,,,,,,,,,,,,,,,,,,,,,,,,,,,,,,,,,,,,,,,,,,,,,,,,,,,,,,,,,,,,,,,,,,57.0,133.0,70.0,70.0,133.0,57.0,1.0,1.2,-198,5,0,8,160,2,182.89116168022156,182.8912796974182,182.89472246170044,182.90507817268372,183.0532946586609,183.0532946586609,183.0532946586609,183.0532946586609,183.0532946586609,183.0532946586609,183.0532946586609,183.90258860588074,3,0.9918003082275391,None,,,,,,,,,,,,,,,,,,148,1,2025-02-27_14h51.11.275,comp,2024.2.4,None,2025-02-27 14h51.23.262702 -0500,
80,80,0,filler_random,None,None,None,None,None,None,None,None,None,None,1,1.2419373989105225,None,,,,,0,0,0,0,0,80,80,143,183.91878271102905,,,,,,,,,,,,,,,,,,,,,,,,,,,,,,,,,,,,,,,,,,,,,,,,,,,,,,,,,,,,,,,,,,,,,,,,,,,,,,,,,,105.70831231665,155.62281157706548,189.76995933353,89.20910462741926,127.83430728303031,68.5382484769848,2.2,2.22,-218,271,0,-277,175,-264,183.90430068969727,183.90437841415405,183.90712761878967,183.91878271102905,184.0578956604004,184.0578956604004,184.0578956604004,184.0578956604004,184.0578956604004,184.0578956604004,184.0578956604004,185.1703543663025,1,1.2419373989105225,None,,,,,,,,,,,,,,,,,,148,1,2025-02-27_14h51.11.275,comp,2024.2.4,None,2025-02-27 14h51.23.262702 -0500,
81,81,0,critical,whd,20.0,3.0,lower,57.0,133.0,133.0,57.0,78.0,78.0,1,1.1811792850494385,None,,,,,0,0,0,0,0,81,81,92,185.18670654296875,,,,,,,,,,,,,,,,,,,,,,,,,,,,,,,,,,,,,,,,,,,,,,,,,,,,,,,,,,,,,,,,,,,,,,,,,,,,,,,,,,57.0,133.0,133.0,57.0,78.0,78.0,3.0,3.1,-191,280,0,0,164,-252,185.17186737060547,185.17194366455078,185.17508459091187,185.18670654296875,185.3382213115692,185.3382213115692,185.3382213115692,185.3382213115692,185.3382213115692,185.3382213115692,185.3382213115692,186.37786054611206,1,1.1811792850494385,None,,,,,,,,,,,,,,,,,,148,1,2025-02-27_14h51.11.275,comp,2024.2.4,None,2025-02-27 14h51.23.262702 -0500,
82,82,0,filler_random,None,None,None,None,None,None,None,None,None,None,3,0.8941617012023926,None,,,,,0,0,0,0,0,82,82,134,186.3939197063446,,,,,,,,,,,,,,,,,,,,,,,,,,,,,,,,,,,,,,,,,,,,,,,,,,,,,,,,,,,,,,,,,,,,,,,,,,,,,,,,,,74.40779590395759,185.8946895714908,180.03385473523093,144.92177825911097,195.203981977708,185.71520701207336,2.1,2.12,-261,-268,0,-259,261,253,186.3795826435089,186.37965965270996,186.38247323036194,186.3939197063446,186.53959131240845,186.53959131240845,186.53959131240845,186.53959131240845,186.53959131240845,186.53959131240845,186.53959131240845,187.3037657737732,3,0.8941617012023926,None,,,,,,,,,,,,,,,,,,148,1,2025-02-27_14h51.11.275,comp,2024.2.4,None,2025-02-27 14h51.23.262702 -0500,
83,83,0,critical,wdh,20.0,4.0,lower,57.0,133.0,78.0,78.0,133.0,57.0,2,0.9775636196136475,None,,,,,0,0,0,0,0,83,83,82,187.31943893432617,,,,,,,,,,,,,,,,,,,,,,,,,,,,,,,,,,,,,,,,,,,,,,,,,,,,,,,,,,,,,,,,,,,,,,,,,,,,,,,,,,57.0,133.0,78.0,78.0,133.0,57.0,4.0,4.1,-202,-283,0,-16,164,-282,187.30526304244995,187.30533742904663,187.30814623832703,187.31943893432617,187.47210264205933,187.47210264205933,187.47210264205933,187.47210264205933,187.47210264205933,187.47210264205933,187.47210264205933,188.3067421913147,2,0.9775636196136475,None,,,,,,,,,,,,,,,,,,148,1,2025-02-27_14h51.11.275,comp,2024.2.4,None,2025-02-27 14h51.23.262702 -0500,
84,84,0,critical,dhw,20.0,4.0,upper,141.0,141.0,200.0,125.0,125.0,200.0,2,0.9749541282653809,None,,,,,0,0,0,0,0,84,84,59,188.32259130477905,,,,,,,,,,,,,,,,,,,,,,,,,,,,,,,,,,,,,,,,,,,,,,,,,,,,,,,,,,,,,,,,,,,,,,,,,,,,,,,,,,141.0,141.0,200.0,125.0,125.0,200.0,4.0,4.1,-229,-268,0,-15,258,-267,188.3083577156067,188.30845427513123,188.31187462806702,188.32259130477905,188.46970677375793,188.46970677375793,188.46970677375793,188.46970677375793,188.46970677375793,188.46970677375793,188.46970677375793,189.30473852157593,2,0.9749541282653809,None,,,,,,,,,,,,,,,,,,148,1,2025-02-27_14h51.11.275,comp,2024.2.4,None,2025-02-27 14h51.23.262702 -0500,
85,85,0,critical,hwd,35.0,4.0,lower,133.0,57.0,57.0,133.0,70.0,70.0,2,0.7678806781768799,None,,,,,0,0,0,0,0,85,85,100,189.32071161270142,,,,,,,,,,,,,,,,,,,,,,,,,,,,,,,,,,,,,,,,,,,,,,,,,,,,,,,,,,,,,,,,,,,,,,,,,,,,,,,,,,133.0,57.0,57.0,133.0,70.0,70.0,4.0,4.1,-191,-270,0,-11,198,-274,189.30621528625488,189.30629086494446,189.30912590026855,189.32071161270142,189.468768119812,189.468768119812,189.468768119812,189.468768119812,189.468768119812,189.468768119812,189.468768119812,190.095153093338,2,0.7678806781768799,None,,,,,,,,,,,,,,,,,,148,1,2025-02-27_14h51.11.275,comp,2024.2.4,None,2025-02-27 14h51.23.262702 -0500,
86,86,0,critical,hdw,35.0,2.1,upper,200.0,125.0,127.0,127.0,125.0,200.0,2,0.8571395874023438,None,,,,,0,0,0,0,0,86,86,21,190.1114206314087,,,,,,,,,,,,,,,,,,,,,,,,,,,,,,,,,,,,,,,,,,,,,,,,,,,,,,,,,,,,,,,,,,,,,,,,,,,,,,,,,,200.0,125.0,127.0,127.0,125.0,200.0,2.1,2.11,-222,252,0,250,260,-273,190.09675335884094,190.09682750701904,190.10004329681396,190.1114206314087,190.25841307640076,190.25841307640076,190.25841307640076,190.25841307640076,190.25841307640076,190.25841307640076,190.25841307640076,190.97742652893066,2,0.8571395874023438,None,,,,,,,,,,,,,,,,,,148,1,2025-02-27_14h51.11.275,comp,2024.2.4,None,2025-02-27 14h51.23.262702 -0500,
87,87,0,critical,wdh,35.0,3.0,upper,125.0,200.0,127.0,127.0,200.0,125.0,3,0.9491732120513916,None,,,,,0,0,0,0,0,87,87,75,190.99485754966736,,,,,,,,,,,,,,,,,,,,,,,,,,,,,,,,,,,,,,,,,,,,,,,,,,,,,,,,,,,,,,,,,,,,,,,,,,,,,,,,,,125.0,200.0,127.0,127.0,200.0,125.0,3.0,3.2,-260,-255,0,-2,222,272,190.9789755344391,190.97905325889587,190.98184943199158,190.99485754966736,191.14165925979614,191.14165925979614,191.14165925979614,191.14165925979614,191.14165925979614,191.14165925979614,191.14165925979614,191.95805835723877,3,0.9491732120513916,None,,,,,,,,,,,,,,,,,,148,1,2025-02-27_14h51.11.275,comp,2024.2.4,None,2025-02-27 14h51.23.262702 -0500,
88,88,0,filler_random,None,None,None,None,None,None,None,None,None,None,3,0.9447448253631592,None,,,,,0,0,0,0,0,88,88,138,191.98320746421814,,,,,,,,,,,,,,,,,,,,,,,,,,,,,,,,,,,,,,,,,,,,,,,,,,,,,,,,,,,,,,,,,,,,,,,,,,,,,,,,,,166.09058503111143,138.91115703034347,121.68290663747709,165.38548458273232,138.00998199659514,192.86879070261742,2.2,2.21,-248,-280,0,266,275,256,191.959805727005,191.9599335193634,191.96289992332458,191.98320746421814,192.12486958503723,192.12486958503723,192.12486958503723,192.12486958503723,192.12486958503723,192.12486958503723,192.12486958503723,192.9393675327301,3,0.9447448253631592,None,,,,,,,,,,,,,,,,,,148,1,2025-02-27_14h51.11.275,comp,2024.2.4,None,2025-02-27 14h51.23.262702 -0500,
89,89,0,filler_random,None,None,None,None,None,None,None,None,None,None,3,1.3406219482421875,None,,,,,0,0,0,0,0,89,89,163,192.95615077018738,,,,,,,,,,,,,,,,,,,,,,,,,,,,,,,,,,,,,,,,,,,,,,,,,,,,,,,,,,,,,,,,,,,,,,,,,,,,,,,,,,181.80721672572318,119.36168804888595,65.15883555982903,82.93500480468757,114.5793866998024,188.92331871714268,4.0,4.1,-197,-284,0,8,232,-288,192.94104266166687,192.94112706184387,192.94442415237427,192.95615077018738,193.11147689819336,193.11147689819336,193.11147689819336,193.11147689819336,193.11147689819336,193.11147689819336,193.11147689819336,194.3077700138092,3,1.3406219482421875,None,,,,,,,,,,,,,,,,,,148,1,2025-02-27_14h51.11.275,comp,2024.2.4,None,2025-02-27 14h51.23.262702 -0500,
90,90,0,filler_random,None,None,None,None,None,None,None,None,None,None,1,0.9484660625457764,None,,,,,0,0,0,0,0,90,90,140,194.3237624168396,,,,,,,,,,,,,,,,,,,,,,,,,,,,,,,,,,,,,,,,,,,,,,,,,,,,,,,,,,,,,,,,,,,,,,,,,,,,,,,,,,194.63991117541252,195.7399420934866,159.77773018559327,196.83924951770308,149.11204194547463,142.16400808798295,2.1,2.11,-292,261,0,254,266,-283,194.30965065956116,194.30973482131958,194.3130395412445,194.3237624168396,194.47229599952698,194.47229599952698,194.47229599952698,194.47229599952698,194.47229599952698,194.47229599952698,194.47229599952698,195.290522813797,1,0.9484660625457764,None,,,,,,,,,,,,,,,,,,148,1,2025-02-27_14h51.11.275,comp,2024.2.4,None,2025-02-27 14h51.23.262702 -0500,
91,91,0,critical,hdw,20.0,2.1,upper,200.0,125.0,141.0,141.0,125.0,200.0,1,0.8798844814300537,None,,,,,0,0,0,0,0,91,91,47,195.31198978424072,,,,,,,,,,,,,,,,,,,,,,,,,,,,,,,,,,,,,,,,,,,,,,,,,,,,,,,,,,,,,,,,,,,,,,,,,,,,,,,,,,200.0,125.0,141.0,141.0,125.0,200.0,2.1,2.11,-229,272,0,258,266,-255,195.2919864654541,195.29206109046936,195.29495668411255,195.31198978424072,195.4560079574585,195.4560079574585,195.4560079574585,195.4560079574585,195.4560079574585,195.4560079574585,195.4560079574585,196.20813417434692,1,0.8798844814300537,None,,,,,,,,,,,,,,,,,,148,1,2025-02-27_14h51.11.275,comp,2024.2.4,None,2025-02-27 14h51.23.262702 -0500,
92,92,0,critical,hdw,20.0,3.0,upper,200.0,125.0,141.0,141.0,125.0,200.0,1,0.8478014469146729,None,,,,,0,0,0,0,0,92,92,117,196.22403764724731,,,,,,,,,,,,,,,,,,,,,,,,,,,,,,,,,,,,,,,,,,,,,,,,,,,,,,,,,,,,,,,,,,,,,,,,,,,,,,,,,,200.0,125.0,141.0,141.0,125.0,200.0,3.0,3.1,-229,278,0,-19,266,-266,196.2096552848816,196.2097291946411,196.2137324810028,196.22403764724731,196.37433409690857,196.37433409690857,196.37433409690857,196.37433409690857,196.37433409690857,196.37433409690857,196.37433409690857,197.07574319839478,1,0.8478014469146729,None,,,,,,,,,,,,,,,,,,148,1,2025-02-27_14h51.11.275,comp,2024.2.4,None,2025-02-27 14h51.23.262702 -0500,
93,93,0,critical,hdw,35.0,4.0,upper,200.0,125.0,127.0,127.0,125.0,200.0,3,0.9646580219268799,None,,,,,0,0,0,0,0,93,93,113,197.09204936027527,,,,,,,,,,,,,,,,,,,,,,,,,,,,,,,,,,,,,,,,,,,,,,,,,,,,,,,,,,,,,,,,,,,,,,,,,,,,,,,,,,200.0,125.0,127.0,127.0,125.0,200.0,4.0,4.1,-222,-276,0,-13,260,-253,197.07730555534363,197.07738280296326,197.08138823509216,197.09204936027527,197.24412298202515,197.24412298202515,197.24412298202515,197.24412298202515,197.24412298202515,197.24412298202515,197.24412298202515,198.05988764762878,3,0.9646580219268799,None,,,,,,,,,,,,,,,,,,148,1,2025-02-27_14h51.11.275,comp,2024.2.4,None,2025-02-27 14h51.23.262702 -0500,
94,94,0,filler_random,None,None,None,None,None,None,None,None,None,None,1,0.940648078918457,None,,,,,0,0,0,0,0,94,94,144,198.07600045204163,,,,,,,,,,,,,,,,,,,,,,,,,,,,,,,,,,,,,,,,,,,,,,,,,,,,,,,,,,,,,,,,,,,,,,,,,,,,,,,,,,166.14988551817927,124.28715145647658,93.27930276935285,121.9867450909884,104.42301293787878,102.75522865938328,1.0,1.1,-699,271,-480,264,-272,263,198.06158685684204,198.06166315078735,198.0648512840271,198.07600045204163,198.2262201309204,198.2262201309204,198.2262201309204,198.2262201309204,198.2262201309204,198.2262201309204,198.2262201309204,199.0252182483673,1,0.940648078918457,None,,,,,,,,,,,,,,,,,,148,1,2025-02-27_14h51.11.275,comp,2024.2.4,None,2025-02-27 14h51.23.262702 -0500,
95,95,0,critical,whd,35.0,2.1,lower,57.0,133.0,133.0,57.0,70.0,70.0,2,1.3620774745941162,None,,,,,0,0,0,0,0,95,95,12,199.0458264350891,,,,,,,,,,,,,,,,,,,,,,,,,,,,,,,,,,,,,,,,,,,,,,,,,,,,,,,,,,,,,,,,,,,,,,,,,,,,,,,,,,57.0,133.0,133.0,57.0,70.0,70.0,2.1,2.12,-191,-277,0,-271,160,288,199.02673077583313,199.02680611610413,199.0303180217743,199.0458264350891,199.1926703453064,199.1926703453064,199.1926703453064,199.1926703453064,199.1926703453064,199.1926703453064,199.1926703453064,200.4254505634308,2,1.3620774745941162,None,,,,,,,,,,,,,,,,,,148,1,2025-02-27_14h51.11.275,comp,2024.2.4,None,2025-02-27 14h51.23.262702 -0500,
96,96,0,critical,dwh,20.0,4.0,lower,78.0,78.0,57.0,133.0,133.0,57.0,2,0.8630061149597168,None,,,,,0,0,0,0,0,96,96,70,200.4413766860962,,,,,,,,,,,,,,,,,,,,,,,,,,,,,,,,,,,,,,,,,,,,,,,,,,,,,,,,,,,,,,,,,,,,,,,,,,,,,,,,,,78.0,78.0,57.0,133.0,133.0,57.0,4.0,4.1,-202,-284,0,-5,191,-280,200.4269518852234,200.4270269870758,200.43012857437134,200.4413766860962,200.5908784866333,200.5908784866333,200.5908784866333,200.5908784866333,200.5908784866333,200.5908784866333,200.5908784866333,201.30883502960205,2,0.8630061149597168,None,,,,,,,,,,,,,,,,,,148,1,2025-02-27_14h51.11.275,comp,2024.2.4,None,2025-02-27 14h51.23.262702 -0500,
97,97,0,critical,dwh,35.0,1.0,lower,70.0,70.0,57.0,133.0,133.0,57.0,3,1.1835730075836182,None,,,,,0,0,0,0,0,97,97,60,201.32839274406433,,,,,,,,,,,,,,,,,,,,,,,,,,,,,,,,,,,,,,,,,,,,,,,,,,,,,,,,,,,,,,,,,,,,,,,,,,,,,,,,,,70.0,70.0,57.0,133.0,133.0,57.0,1.0,1.3,282,-254,480,-276,671,-273,201.31026792526245,201.31034421920776,201.3134651184082,201.32839274406433,201.47727417945862,201.47727417945862,201.47727417945862,201.47727417945862,201.47727417945862,201.47727417945862,201.47727417945862,202.52852845191956,3,1.1835730075836182,None,,,,,,,,,,,,,,,,,,148,1,2025-02-27_14h51.11.275,comp,2024.2.4,None,2025-02-27 14h51.23.262702 -0500,
98,98,0,filler_square,None,None,None,None,None,None,None,None,None,None,2,0.8477475643157959,None,,,,,0,0,0,0,0,98,98,189,202.5445990562439,,,,,,,,,,,,,,,,,,,,,,,,,,,,,,,,,,,,,,,,,,,,,,,,,,,,,,,,,,,,,,,,,,,,,,,,,,,,,,,,,,135.55759009848697,110.54102786453701,146.3789186098957,146.3789186098957,84.06153225951432,93.439797581963,2.2,2.21,-224,-272,0,282,216,266,202.5304503440857,202.53052878379822,202.53338718414307,202.5445990562439,202.69438290596008,202.69438290596008,202.69438290596008,202.69438290596008,202.69438290596008,202.69438290596008,202.69438290596008,203.4110724925995,2,0.8477475643157959,None,,,,,,,,,,,,,,,,,,148,1,2025-02-27_14h51.11.275,comp,2024.2.4,None,2025-02-27 14h51.23.262702 -0500,
99,99,0,critical,dhw,20.0,4.0,lower,78.0,78.0,133.0,57.0,57.0,133.0,2,1.2392351627349854,None,,,,,0,0,0,0,0,99,99,58,203.42473435401917,,,,,,,,,,,,,,,,,,,,,,,,,,,,,,,,,,,,,,,,,,,,,,,,,,,,,,,,,,,,,,,,,,,,,,,,,,,,,,,,,,78.0,78.0,133.0,57.0,57.0,133.0,4.0,4.1,-164,-282,0,9,191,-281,203.41259598731995,203.41267251968384,203.41577744483948,203.42473435401917,203.56670784950256,203.56670784950256,203.56670784950256,203.56670784950256,203.56670784950256,203.56670784950256,203.56670784950256,204.6800947189331,2,1.2392351627349854,None,,,,,,,,,,,,,,,,,,148,1,2025-02-27_14h51.11.275,comp,2024.2.4,None,2025-02-27 14h51.23.262702 -0500,
100,100,0,filler_random,None,None,None,None,None,None,None,None,None,None,3,0.8714830875396729,None,,,,,0,0,0,0,0,100,100,135,204.69658517837524,,,,,,,,,,,,,,,,,,,,,,,,,,,,,,,,,,,,,,,,,,,,,,,,,,,,,,,,,,,,,,,,,,,,,,,,,,,,,,,,,,84.81119388468221,93.84931567067562,152.8311237576373,79.80377761383426,121.93914865176099,133.53901685759104,1.0,1.1,-663,269,-480,257,-277,286,204.68212175369263,204.68223762512207,204.68537044525146,204.69658517837524,204.84473085403442,204.84473085403442,204.84473085403442,204.84473085403442,204.84473085403442,204.84473085403442,204.84473085403442,205.578604221344,3,0.8714830875396729,None,,,,,,,,,,,,,,,,,,148,1,2025-02-27_14h51.11.275,comp,2024.2.4,None,2025-02-27 14h51.23.262702 -0500,
101,101,0,critical,hwd,20.0,1.0,lower,133.0,57.0,57.0,133.0,78.0,78.0,2,0.969428539276123,None,,,,,0,0,0,0,0,101,101,102,205.59887647628784,,,,,,,,,,,,,,,,,,,,,,,,,,,,,,,,,,,,,,,,,,,,,,,,,,,,,,,,,,,,,,,,,,,,,,,,,,,,,,,,,,133.0,57.0,57.0,133.0,78.0,78.0,1.0,1.2,-191,5,0,-9,202,14,205.58008217811584,205.58015823364258,205.58333945274353,205.59887647628784,205.74468564987183,205.74468564987183,205.74468564987183,205.74468564987183,205.74468564987183,205.74468564987183,205.74468564987183,206.5770399570465,2,0.969428539276123,None,,,,,,,,,,,,,,,,,,148,1,2025-02-27_14h51.11.275,comp,2024.2.4,None,2025-02-27 14h51.23.262702 -0500,
102,102,0,filler_random,None,None,None,None,None,None,None,None,None,None,2,1.1783668994903564,None,,,,,0,0,0,0,0,102,102,168,206.5976550579071,,,,,,,,,,,,,,,,,,,,,,,,,,,,,,,,,,,,,,,,,,,,,,,,,,,,,,,,,,,,,,,,,,,,,,,,,,,,,,,,,,81.87315891683177,151.83882453713574,174.0706364732152,148.76064592241656,116.07670550849824,83.118960184035,2.2,2.22,-246,265,0,-275,212,-263,206.57896852493286,206.57905077934265,206.58233666419983,206.5976550579071,206.7450611591339,206.7450611591339,206.7450611591339,206.7450611591339,206.7450611591339,206.7450611591339,206.7450611591339,207.79453253746033,2,1.1783668994903564,None,,,,,,,,,,,,,,,,,,148,1,2025-02-27_14h51.11.275,comp,2024.2.4,None,2025-02-27 14h51.23.262702 -0500,
103,103,0,critical,dwh,35.0,4.0,lower,70.0,70.0,57.0,133.0,133.0,57.0,2,0.9538497924804688,None,,,,,0,0,0,0,0,103,103,64,207.81416535377502,,,,,,,,,,,,,,,,,,,,,,,,,,,,,,,,,,,,,,,,,,,,,,,,,,,,,,,,,,,,,,,,,,,,,,,,,,,,,,,,,,70.0,70.0,57.0,133.0,133.0,57.0,4.0,4.1,-198,-257,0,-20,191,-254,207.79601454734802,207.7960889339447,207.79913973808289,207.81416535377502,207.961731672287,207.961731672287,207.961731672287,207.961731672287,207.961731672287,207.961731672287,207.961731672287,208.78096723556519,2,0.9538497924804688,None,,,,,,,,,,,,,,,,,,148,1,2025-02-27_14h51.11.275,comp,2024.2.4,None,2025-02-27 14h51.23.262702 -0500,
104,104,0,critical,whd,20.0,1.0,lower,57.0,133.0,133.0,57.0,78.0,78.0,2,0.8756065368652344,None,,,,,0,0,0,0,0,104,104,90,208.79658818244934,,,,,,,,,,,,,,,,,,,,,,,,,,,,,,,,,,,,,,,,,,,,,,,,,,,,,,,,,,,,,,,,,,,,,,,,,,,,,,,,,,57.0,133.0,133.0,57.0,78.0,78.0,1.0,1.2,-191,-7,0,9,164,7,208.78272247314453,208.78285598754883,208.78622817993164,208.79658818244934,208.94645619392395,208.94645619392395,208.94645619392395,208.94645619392395,208.94645619392395,208.94645619392395,208.94645619392395,209.68138790130615,2,0.8756065368652344,None,,,,,,,,,,,,,,,,,,148,1,2025-02-27_14h51.11.275,comp,2024.2.4,None,2025-02-27 14h51.23.262702 -0500,
105,105,0,filler_square,None,None,None,None,None,None,None,None,None,None,3,0.9399926662445068,None,,,,,0,0,0,0,0,105,105,207,209.70026206970215,,,,,,,,,,,,,,,,,,,,,,,,,,,,,,,,,,,,,,,,,,,,,,,,,,,,,,,,,,,,,,,,,,,,,,,,,,,,,,,,,,93.23965244637048,74.01391622991375,60.46563309948247,62.81049712180606,95.6447581494314,95.6447581494314,2.2,2.21,-164,-255,0,278,175,285,209.68328475952148,209.68336629867554,209.68646264076233,209.70026206970215,209.84750652313232,209.84750652313232,209.84750652313232,209.84750652313232,209.84750652313232,209.84750652313232,209.84750652313232,210.6450433731079,3,0.9399926662445068,None,,,,,,,,,,,,,,,,,,148,1,2025-02-27_14h51.11.275,comp,2024.2.4,None,2025-02-27 14h51.23.262702 -0500,
106,106,0,filler_square,None,None,None,None,None,None,None,None,None,None,3,0.7218194007873535,None,,,,,0,0,0,0,0,106,106,175,210.66206669807434,,,,,,,,,,,,,,,,,,,,,,,,,,,,,,,,,,,,,,,,,,,,,,,,,,,,,,,,,,,,,,,,,,,,,,,,,,,,,,,,,,81.31781044020354,102.70205099644707,106.74600066118705,134.80846142689524,164.75931051582705,164.75931051582705,2.1,2.12,-215,-266,0,-281,246,287,210.646803855896,210.646879196167,210.64981532096863,210.66206669807434,210.81308436393738,210.81308436393738,210.81308436393738,210.81308436393738,210.81308436393738,210.81308436393738,210.81308436393738,211.39548230171204,3,0.7218194007873535,None,,,,,,,,,,,,,,,,,,148,1,2025-02-27_14h51.11.275,comp,2024.2.4,None,2025-02-27 14h51.23.262702 -0500,
107,107,0,filler_square,None,None,None,None,None,None,None,None,None,None,2,1.0249137878417969,None,,,,,0,0,0,0,0,107,107,206,211.41560673713684,,,,,,,,,,,,,,,,,,,,,,,,,,,,,,,,,,,,,,,,,,,,,,,,,,,,,,,,,,,,,,,,,,,,,,,,,,,,,,,,,,160.93288023058625,81.09822343534736,176.40978203691475,176.40978203691475,143.60323353082322,169.8096526387783,2.2,2.21,-225,-281,0,284,269,252,211.39730644226074,211.39738535881042,211.40045833587646,211.41560673713684,211.56270694732666,211.56270694732666,211.56270694732666,211.56270694732666,211.56270694732666,211.56270694732666,211.56270694732666,212.44674491882324,2,1.0249137878417969,None,,,,,,,,,,,,,,,,,,148,1,2025-02-27_14h51.11.275,comp,2024.2.4,None,2025-02-27 14h51.23.262702 -0500,
108,108,0,filler_random,None,None,None,None,None,None,None,None,None,None,2,0.6336560249328613,None,,,,,0,0,0,0,0,108,108,161,212.4625678062439,,,,,,,,,,,,,,,,,,,,,,,,,,,,,,,,,,,,,,,,,,,,,,,,,,,,,,,,,,,,,,,,,,,,,,,,,,,,,,,,,,107.07196447051825,196.3954892981492,185.83714438381185,196.47534637642985,183.84215319779327,141.0754080486635,2.2,2.21,-292,-253,0,256,265,275,212.44837164878845,212.44844937324524,212.45173525810242,212.4625678062439,212.6112585067749,212.6112585067749,212.6112585067749,212.6112585067749,212.6112585067749,212.6112585067749,212.6112585067749,213.0997552871704,2,0.6336560249328613,None,,,,,,,,,,,,,,,,,,148,1,2025-02-27_14h51.11.275,comp,2024.2.4,None,2025-02-27 14h51.23.262702 -0500,
109,109,0,critical,whd,35.0,4.0,upper,125.0,200.0,200.0,125.0,127.0,127.0,2,0.6076035499572754,None,,,,,0,0,0,0,0,109,109,89,213.12036848068237,,,,,,,,,,,,,,,,,,,,,,,,,,,,,,,,,,,,,,,,,,,,,,,,,,,,,,,,,,,,,,,,,,,,,,,,,,,,,,,,,,125.0,200.0,200.0,125.0,127.0,127.0,4.0,4.2,-258,6,0,-272,222,4,213.1017997264862,213.10187911987305,213.10476422309875,213.12036848068237,213.2634904384613,213.2634904384613,213.2634904384613,213.2634904384613,213.2634904384613,213.2634904384613,213.2634904384613,213.73026728630066,2,0.6076035499572754,None,,,,,,,,,,,,,,,,,,148,1,2025-02-27_14h51.11.275,comp,2024.2.4,None,2025-02-27 14h51.23.262702 -0500,
110,110,0,critical,hdw,20.0,1.0,lower,133.0,57.0,78.0,78.0,57.0,133.0,2,2.597884178161621,None,,,,,0,0,0,0,0,110,110,114,213.74601030349731,,,,,,,,,,,,,,,,,,,,,,,,,,,,,,,,,,,,,,,,,,,,,,,,,,,,,,,,,,,,,,,,,,,,,,,,,,,,,,,,,,133.0,57.0,78.0,78.0,57.0,133.0,1.0,1.1,-644,285,-480,254,-278,272,213.73172760009766,213.73180317878723,213.73522472381592,213.74601030349731,213.89584374427795,213.89584374427795,213.89584374427795,213.89584374427795,213.89584374427795,213.89584374427795,213.89584374427795,216.3584430217743,2,2.597884178161621,None,,,,,,,,,,,,,,,,,,148,1,2025-02-27_14h51.11.275,comp,2024.2.4,None,2025-02-27 14h51.23.262702 -0500,
111,111,0,filler_square,None,None,None,None,None,None,None,None,None,None,1,2.3093533515930176,None,,,,,0,0,0,0,0,111,111,204,216.37882113456726,,,,,,,,,,,,,,,,,,,,,,,,,,,,,,,,,,,,,,,,,,,,,,,,,,,,,,,,,,,,,,,,,,,,,,,,,,,,,,,,,,85.77166711104468,85.77166711104468,71.56323655301844,66.04782802192575,76.90551869285966,75.25232125165464,2.2,2.22,-172,281,0,-253,167,-285,216.3602409362793,216.36032056808472,216.3631374835968,216.37882113456726,216.5191433429718,216.5191433429718,216.5191433429718,216.5191433429718,216.5191433429718,216.5191433429718,216.5191433429718,218.69715857505798,1,2.3093533515930176,None,,,,,,,,,,,,,,,,,,148,1,2025-02-27_14h51.11.275,comp,2024.2.4,None,2025-02-27 14h51.23.262702 -0500,
112,112,0,critical,hwd,20.0,3.0,upper,200.0,125.0,125.0,200.0,141.0,141.0,2,0.8309621810913086,None,,,,,0,0,0,0,0,112,112,105,218.7137668132782,,,,,,,,,,,,,,,,,,,,,,,,,,,,,,,,,,,,,,,,,,,,,,,,,,,,,,,,,,,,,,,,,,,,,,,,,,,,,,,,,,200.0,125.0,125.0,200.0,141.0,141.0,3.0,3.2,-258,-274,0,14,266,276,218.69872856140137,218.69880390167236,218.7020137310028,218.7137668132782,218.85162448883057,218.85162448883057,218.85162448883057,218.85162448883057,218.85162448883057,218.85162448883057,218.85162448883057,219.55170798301697,2,0.8309621810913086,None,,,,,,,,,,,,,,,,,,148,1,2025-02-27_14h51.11.275,comp,2024.2.4,None,2025-02-27 14h51.23.262702 -0500,
113,113,0,filler_square,None,None,None,None,None,None,None,None,None,None,1,1.787945032119751,None,,,,,0,0,0,0,0,113,113,174,219.57262921333313,,,,,,,,,,,,,,,,,,,,,,,,,,,,,,,,,,,,,,,,,,,,,,,,,,,,,,,,,,,,,,,,,,,,,,,,,,,,,,,,,,111.27414520743845,111.27414520743845,108.74202708019905,68.64908201127857,61.081621282757084,102.24705336966065,2.2,2.21,-186,-272,0,252,181,265,219.55369806289673,219.55379962921143,219.55695939064026,219.57262921333313,219.7148129940033,219.7148129940033,219.7148129940033,219.7148129940033,219.7148129940033,219.7148129940033,219.7148129940033,221.36596846580505,1,1.787945032119751,None,,,,,,,,,,,,,,,,,,148,1,2025-02-27_14h51.11.275,comp,2024.2.4,None,2025-02-27 14h51.23.262702 -0500,
114,114,0,critical,dwh,20.0,2.1,upper,141.0,141.0,125.0,200.0,200.0,125.0,2,1.862452745437622,None,,,,,0,0,0,0,0,114,114,7,221.3860673904419,,,,,,,,,,,,,,,,,,,,,,,,,,,,,,,,,,,,,,,,,,,,,,,,,,,,,,,,,,,,,,,,,,,,,,,,,,,,,,,,,,141.0,141.0,125.0,200.0,200.0,125.0,2.1,2.12,-266,-273,0,-269,258,254,221.3675136566162,221.36758852005005,221.37064051628113,221.3860673904419,221.53247475624084,221.53247475624084,221.53247475624084,221.53247475624084,221.53247475624084,221.53247475624084,221.53247475624084,223.2666618824005,2,1.862452745437622,None,,,,,,,,,,,,,,,,,,148,1,2025-02-27_14h51.11.275,comp,2024.2.4,None,2025-02-27 14h51.23.262702 -0500,
115,115,0,critical,wdh,35.0,3.0,lower,57.0,133.0,70.0,70.0,133.0,57.0,1,0.9104411602020264,None,,,,,0,0,0,0,0,115,115,74,223.28207921981812,,,,,,,,,,,,,,,,,,,,,,,,,,,,,,,,,,,,,,,,,,,,,,,,,,,,,,,,,,,,,,,,,,,,,,,,,,,,,,,,,,57.0,133.0,70.0,70.0,133.0,57.0,3.0,3.1,-198,278,0,19,160,-259,223.26822805404663,223.268306016922,223.2717206478119,223.28207921981812,223.43348169326782,223.43348169326782,223.43348169326782,223.43348169326782,223.43348169326782,223.43348169326782,223.43348169326782,224.20049262046814,1,0.9104411602020264,None,,,,,,,,,,,,,,,,,,148,1,2025-02-27_14h51.11.275,comp,2024.2.4,None,2025-02-27 14h51.23.262702 -0500,
116,116,0,critical,dhw,20.0,3.0,upper,141.0,141.0,200.0,125.0,125.0,200.0,2,1.1762430667877197,None,,,,,0,0,0,0,0,116,116,57,224.21645259857178,,,,,,,,,,,,,,,,,,,,,,,,,,,,,,,,,,,,,,,,,,,,,,,,,,,,,,,,,,,,,,,,,,,,,,,,,,,,,,,,,,141.0,141.0,200.0,125.0,125.0,200.0,3.0,3.1,-229,255,0,0,258,-272,224.20205569267273,224.20213150978088,224.20558428764343,224.21645259857178,224.37007474899292,224.37007474899292,224.37007474899292,224.37007474899292,224.37007474899292,224.37007474899292,224.37007474899292,225.40112686157227,2,1.1762430667877197,None,,,,,,,,,,,,,,,,,,148,1,2025-02-27_14h51.11.275,comp,2024.2.4,None,2025-02-27 14h51.23.262702 -0500,
117,117,0,critical,whd,20.0,3.0,upper,125.0,200.0,200.0,125.0,141.0,141.0,3,2.6955904960632324,None,,,,,0,0,0,0,0,117,117,93,225.41687846183777,,,,,,,,,,,,,,,,,,,,,,,,,,,,,,,,,,,,,,,,,,,,,,,,,,,,,,,,,,,,,,,,,,,,,,,,,,,,,,,,,,125.0,200.0,200.0,125.0,141.0,141.0,3.0,3.2,-258,-271,0,-17,229,286,225.40268301963806,225.40275812149048,225.4061985015869,225.41687846183777,225.5677947998047,225.5677947998047,225.5677947998047,225.5677947998047,225.5677947998047,225.5677947998047,225.5677947998047,228.11877942085266,3,2.6955904960632324,None,,,,,,,,,,,,,,,,,,148,1,2025-02-27_14h51.11.275,comp,2024.2.4,None,2025-02-27 14h51.23.262702 -0500,
118,118,0,critical,dhw,35.0,2.1,lower,70.0,70.0,133.0,57.0,57.0,133.0,3,2.200608730316162,None,,,,,0,0,0,0,0,118,118,0,228.1355483531952,,,,,,,,,,,,,,,,,,,,,,,,,,,,,,,,,,,,,,,,,,,,,,,,,,,,,,,,,,,,,,,,,,,,,,,,,,,,,,,,,,70.0,70.0,133.0,57.0,57.0,133.0,2.1,2.12,-160,-262,0,-260,191,289,228.1203532218933,228.12043046951294,228.1236491203308,228.1355483531952,228.28827381134033,228.28827381134033,228.28827381134033,228.28827381134033,228.28827381134033,228.28827381134033,228.28827381134033,230.35249710083008,3,2.200608730316162,None,,,,,,,,,,,,,,,,,,148,1,2025-02-27_14h51.11.275,comp,2024.2.4,None,2025-02-27 14h51.23.262702 -0500,
119,119,0,critical,hwd,35.0,4.0,upper,200.0,125.0,125.0,200.0,127.0,127.0,1,0.7674546241760254,None,,,,,0,0,0,0,0,119,119,101,230.36857056617737,,,,,,,,,,,,,,,,,,,,,,,,,,,,,,,,,,,,,,,,,,,,,,,,,,,,,,,,,,,,,,,,,,,,,,,,,,,,,,,,,,200.0,125.0,125.0,200.0,127.0,127.0,4.0,4.2,-258,-12,0,-279,260,-8,230.35398650169373,230.3540596961975,230.35740900039673,230.36857056617737,230.52008771896362,230.52008771896362,230.52008771896362,230.52008771896362,230.52008771896362,230.52008771896362,230.52008771896362,231.15435695648193,1,0.7674546241760254,None,,,,,,,,,,,,,,,,,,148,1,2025-02-27_14h51.11.275,comp,2024.2.4,None,2025-02-27 14h51.23.262702 -0500,
120,120,0,filler_square,None,None,None,None,None,None,None,None,None,None,1,0.6857576370239258,None,,,,,0,0,0,0,0,120,120,176,231.1704819202423,,,,,,,,,,,,,,,,,,,,,,,,,,,,,,,,,,,,,,,,,,,,,,,,,,,,,,,,,,,,,,,,,,,,,,,,,,,,,,,,,,68.75761341183826,86.58944852666583,101.42136164024966,101.42136164024966,75.345469155495,67.47324071575964,2.2,2.22,-190,276,0,-255,180,-276,231.15639543533325,231.1564702987671,231.16021275520325,231.1704819202423,231.31967544555664,231.31967544555664,231.31967544555664,231.31967544555664,231.31967544555664,231.31967544555664,231.31967544555664,231.86009168624878,1,0.6857576370239258,None,,,,,,,,,,,,,,,,,,148,1,2025-02-27_14h51.11.275,comp,2024.2.4,None,2025-02-27 14h51.23.262702 -0500,
121,121,0,critical,dwh,35.0,3.0,lower,70.0,70.0,57.0,133.0,133.0,57.0,2,0.9969496726989746,None,,,,,0,0,0,0,0,121,121,62,231.87507843971252,,,,,,,,,,,,,,,,,,,,,,,,,,,,,,,,,,,,,,,,,,,,,,,,,,,,,,,,,,,,,,,,,,,,,,,,,,,,,,,,,,70.0,70.0,57.0,133.0,133.0,57.0,3.0,3.2,-198,-281,0,15,191,269,231.86157202720642,231.86164832115173,231.86442947387695,231.87507843971252,232.01811027526855,232.01811027526855,232.01811027526855,232.01811027526855,232.01811027526855,232.01811027526855,232.01811027526855,232.88622379302979,2,0.9969496726989746,None,,,,,,,,,,,,,,,,,,148,1,2025-02-27_14h51.11.275,comp,2024.2.4,None,2025-02-27 14h51.23.262702 -0500,
122,122,0,critical,dwh,35.0,2.1,upper,127.0,127.0,125.0,200.0,200.0,125.0,2,1.083371877670288,None,,,,,0,0,0,0,0,122,122,5,232.90142965316772,,,,,,,,,,,,,,,,,,,,,,,,,,,,,,,,,,,,,,,,,,,,,,,,,,,,,,,,,,,,,,,,,,,,,,,,,,,,,,,,,,127.0,127.0,125.0,200.0,200.0,125.0,2.1,2.12,-260,-256,0,-285,258,254,232.88767623901367,232.8877513408661,232.89107489585876,232.90142965316772,233.05225896835327,233.05225896835327,233.05225896835327,233.05225896835327,233.05225896835327,233.05225896835327,233.05225896835327,233.99136304855347,2,1.083371877670288,None,,,,,,,,,,,,,,,,,,148,1,2025-02-27_14h51.11.275,comp,2024.2.4,None,2025-02-27 14h51.23.262702 -0500,
123,123,0,filler_square,None,None,None,None,None,None,None,None,None,None,2,0.8247241973876953,None,,,,,0,0,0,0,0,123,123,197,234.00760889053345,,,,,,,,,,,,,,,,,,,,,,,,,,,,,,,,,,,,,,,,,,,,,,,,,,,,,,,,,,,,,,,,,,,,,,,,,,,,,,,,,,76.73004942151276,77.62702553058996,122.74173132860591,122.74173132860591,96.17629572103193,100.1877456927759,4.0,4.1,-196,-284,0,14,207,-277,233.99309396743774,233.9931938648224,233.99701070785522,234.00760889053345,234.153573513031,234.153573513031,234.153573513031,234.153573513031,234.153573513031,234.153573513031,234.153573513031,234.83605289459229,2,0.8247241973876953,None,,,,,,,,,,,,,,,,,,148,1,2025-02-27_14h51.11.275,comp,2024.2.4,None,2025-02-27 14h51.23.262702 -0500,
124,124,0,filler_square,None,None,None,None,None,None,None,None,None,None,2,0.760026216506958,None,,,,,0,0,0,0,0,124,124,201,234.85631728172302,,,,,,,,,,,,,,,,,,,,,,,,,,,,,,,,,,,,,,,,,,,,,,,,,,,,,,,,,,,,,,,,,,,,,,,,,,,,,,,,,,90.45185681242167,144.86260782712384,153.29761738924236,153.29761738924236,94.93030660788568,68.80716545763732,2.1,2.11,-245,279,0,283,207,-285,234.83800792694092,234.83808827400208,234.84148383140564,234.85631728172302,235.00315380096436,235.00315380096436,235.00315380096436,235.00315380096436,235.00315380096436,235.00315380096436,235.00315380096436,235.61890745162964,2,0.760026216506958,None,,,,,,,,,,,,,,,,,,148,1,2025-02-27_14h51.11.275,comp,2024.2.4,None,2025-02-27 14h51.23.262702 -0500,
125,125,0,critical,wdh,35.0,4.0,upper,125.0,200.0,127.0,127.0,200.0,125.0,1,1.1169025897979736,None,,,,,0,0,0,0,0,125,125,77,235.63505244255066,,,,,,,,,,,,,,,,,,,,,,,,,,,,,,,,,,,,,,,,,,,,,,,,,,,,,,,,,,,,,,,,,,,,,,,,,,,,,,,,,,125.0,200.0,127.0,127.0,200.0,125.0,4.0,4.2,-260,16,0,-276,222,16,235.62039017677307,235.62046551704407,235.62334084510803,235.63505244255066,235.78342509269714,235.78342509269714,235.78342509269714,235.78342509269714,235.78342509269714,235.78342509269714,235.78342509269714,236.75426602363586,1,1.1169025897979736,None,,,,,,,,,,,,,,,,,,148,1,2025-02-27_14h51.11.275,comp,2024.2.4,None,2025-02-27 14h51.23.262702 -0500,
126,126,0,critical,wdh,20.0,2.1,upper,125.0,200.0,141.0,141.0,200.0,125.0,1,0.8945839405059814,None,,,,,0,0,0,0,0,126,126,35,236.77026557922363,,,,,,,,,,,,,,,,,,,,,,,,,,,,,,,,,,,,,,,,,,,,,,,,,,,,,,,,,,,,,,,,,,,,,,,,,,,,,,,,,,125.0,200.0,141.0,141.0,200.0,125.0,2.1,2.11,-266,253,0,281,229,-256,236.7558617591858,236.75593852996826,236.75949096679688,236.77026557922363,236.91971516609192,236.91971516609192,236.91971516609192,236.91971516609192,236.91971516609192,236.91971516609192,236.91971516609192,237.66991567611694,1,0.8945839405059814,None,,,,,,,,,,,,,,,,,,148,1,2025-02-27_14h51.11.275,comp,2024.2.4,None,2025-02-27 14h51.23.262702 -0500,
127,127,0,critical,wdh,20.0,3.0,upper,125.0,200.0,141.0,141.0,200.0,125.0,2,0.78590989112854,None,,,,,0,0,0,0,0,127,127,81,237.68600916862488,,,,,,,,,,,,,,,,,,,,,,,,,,,,,,,,,,,,,,,,,,,,,,,,,,,,,,,,,,,,,,,,,,,,,,,,,,,,,,,,,,125.0,200.0,141.0,141.0,200.0,125.0,3.0,3.2,-266,-290,0,8,229,259,237.67138385772705,237.67146134376526,237.67433977127075,237.68600916862488,237.83529043197632,237.83529043197632,237.83529043197632,237.83529043197632,237.83529043197632,237.83529043197632,237.83529043197632,238.48742699623108,2,0.78590989112854,None,,,,,,,,,,,,,,,,,,148,1,2025-02-27_14h51.11.275,comp,2024.2.4,None,2025-02-27 14h51.23.262702 -0500,
128,128,0,critical,hwd,35.0,1.0,upper,200.0,125.0,125.0,200.0,127.0,127.0,1,0.8456642627716064,None,,,,,0,0,0,0,0,128,128,97,238.50682735443115,,,,,,,,,,,,,,,,,,,,,,,,,,,,,,,,,,,,,,,,,,,,,,,,,,,,,,,,,,,,,,,,,,,,,,,,,,,,,,,,,,200.0,125.0,125.0,200.0,127.0,127.0,1.0,1.3,222,-262,480,-255,740,-268,238.48885440826416,238.4889304637909,238.49194145202637,238.50682735443115,238.63925981521606,238.63925981521606,238.63925981521606,238.63925981521606,238.63925981521606,238.63925981521606,238.63925981521606,239.3544385433197,1,0.8456642627716064,None,,,,,,,,,,,,,,,,,,148,1,2025-02-27_14h51.11.275,comp,2024.2.4,None,2025-02-27 14h51.23.262702 -0500,
129,129,0,critical,hwd,20.0,2.1,upper,200.0,125.0,125.0,200.0,141.0,141.0,2,0.9731147289276123,None,,,,,0,0,0,0,0,129,129,19,239.37129044532776,,,,,,,,,,,,,,,,,,,,,,,,,,,,,,,,,,,,,,,,,,,,,,,,,,,,,,,,,,,,,,,,,,,,,,,,,,,,,,,,,,200.0,125.0,125.0,200.0,141.0,141.0,2.1,2.12,-258,-282,0,-251,266,278,239.35585284233093,239.35593008995056,239.3587784767151,239.37129044532776,239.5217740535736,239.5217740535736,239.5217740535736,239.5217740535736,239.5217740535736,239.5217740535736,239.5217740535736,240.3471918106079,2,0.9731147289276123,None,,,,,,,,,,,,,,,,,,148,1,2025-02-27_14h51.11.275,comp,2024.2.4,None,2025-02-27 14h51.23.262702 -0500,
130,130,0,critical,hdw,20.0,1.0,upper,200.0,125.0,141.0,141.0,125.0,200.0,1,0.676546573638916,None,,,,,0,0,0,0,0,130,130,115,240.36365056037903,,,,,,,,,,,,,,,,,,,,,,,,,,,,,,,,,,,,,,,,,,,,,,,,,,,,,,,,,,,,,,,,,,,,,,,,,,,,,,,,,,200.0,125.0,141.0,141.0,125.0,200.0,1.0,1.3,251,-264,480,-265,746,-271,240.3486831188202,240.34875893592834,240.35197591781616,240.36365056037903,240.50444149971008,240.50444149971008,240.50444149971008,240.50444149971008,240.50444149971008,240.50444149971008,240.50444149971008,241.0576205253601,1,0.676546573638916,None,,,,,,,,,,,,,,,,,,148,1,2025-02-27_14h51.11.275,comp,2024.2.4,None,2025-02-27 14h51.23.262702 -0500,
131,131,0,critical,hwd,35.0,2.1,upper,200.0,125.0,125.0,200.0,127.0,127.0,2,0.7765293121337891,None,,,,,0,0,0,0,0,131,131,17,241.07325410842896,,,,,,,,,,,,,,,,,,,,,,,,,,,,,,,,,,,,,,,,,,,,,,,,,,,,,,,,,,,,,,,,,,,,,,,,,,,,,,,,,,200.0,125.0,125.0,200.0,127.0,127.0,2.1,2.11,-258,280,0,265,260,-271,241.05929136276245,241.05941557884216,241.0628321170807,241.07325410842896,241.22170662879944,241.22170662879944,241.22170662879944,241.22170662879944,241.22170662879944,241.22170662879944,241.22170662879944,241.85470962524414,2,0.7765293121337891,None,,,,,,,,,,,,,,,,,,148,1,2025-02-27_14h51.11.275,comp,2024.2.4,None,2025-02-27 14h51.23.262702 -0500,
132,132,0,filler_random,None,None,None,None,None,None,None,None,None,None,2,0.704552412033081,None,,,,,0,0,0,0,0,132,132,142,241.87162494659424,,,,,,,,,,,,,,,,,,,,,,,,,,,,,,,,,,,,,,,,,,,,,,,,,,,,,,,,,,,,,,,,,,,,,,,,,,,,,,,,,,183.43776313758366,122.14698929854653,137.70444887173363,155.20101450229294,80.5846615701515,108.6816155886313,1.0,1.2,-235,15,0,-19,228,6,241.85646677017212,241.85659885406494,241.85975122451782,241.87162494659424,242.0108551979065,242.0108551979065,242.0108551979065,242.0108551979065,242.0108551979065,242.0108551979065,242.0108551979065,242.59446477890015,2,0.704552412033081,None,,,,,,,,,,,,,,,,,,148,1,2025-02-27_14h51.11.275,comp,2024.2.4,None,2025-02-27 14h51.23.262702 -0500,
133,133,0,catch,None,None,None,None,None,None,None,None,None,None,2,0.6522388458251953,None,,,,,0,0,0,0,0,133,133,121,242.61168146133423,,,,,,,,,,,,,,,,,,,,,,,,,,,,,,,,,,,,,,,,,,,,,,,,,,,,,,,,,,,,,,,,,,,,,,,,,,,,,,,,,,63,127,172,153,126,64,4.0,4.1,-236,-272,0,-17,204,-264,242.5962529182434,242.5963282585144,242.59908986091614,242.61168146133423,242.7531599998474,242.7531599998474,242.7531599998474,242.7531599998474,242.7531599998474,242.7531599998474,242.7531599998474,243.27415490150452,2,0.6522388458251953,None,,,,,,,,,,,,,,,,,,148,1,2025-02-27_14h51.11.275,comp,2024.2.4,None,2025-02-27 14h51.23.262702 -0500,
134,134,0,critical,dhw,20.0,2.1,lower,78.0,78.0,133.0,57.0,57.0,133.0,3,1.390315294265747,None,,,,,0,0,0,0,0,134,134,2,243.290132522583,,,,,,,,,,,,,,,,,,,,,,,,,,,,,,,,,,,,,,,,,,,,,,,,,,,,,,,,,,,,,,,,,,,,,,,,,,,,,,,,,,78.0,78.0,133.0,57.0,57.0,133.0,2.1,2.11,-164,264,0,290,191,-260,243.27580380439758,243.2759153842926,243.27940917015076,243.290132522583,243.44747591018677,243.44747591018677,243.44747591018677,243.44747591018677,243.44747591018677,243.44747591018677,243.44747591018677,244.68952322006226,3,1.390315294265747,None,,,,,,,,,,,,,,,,,,148,1,2025-02-27_14h51.11.275,comp,2024.2.4,None,2025-02-27 14h51.23.262702 -0500,
135,135,0,catch,None,None,None,None,None,None,None,None,None,None,3,0.7581844329833984,None,,,,,0,0,0,0,0,135,135,129,244.70579028129578,,,,,,,,,,,,,,,,,,,,,,,,,,,,,,,,,,,,,,,,,,,,,,,,,,,,,,,,,,,,,,,,,,,,,,,,,,,,,,,,,,120,70,65,125,166,159,3.0,3.2,-194,-285,0,-15,238,263,244.69170260429382,244.69178223609924,244.6949999332428,244.70579028129578,244.85772156715393,244.85772156715393,244.85772156715393,244.85772156715393,244.85772156715393,244.85772156715393,244.85772156715393,245.47763991355896,3,0.7581844329833984,None,,,,,,,,,,,,,,,,,,148,1,2025-02-27_14h51.11.275,comp,2024.2.4,None,2025-02-27 14h51.23.262702 -0500,
136,136,0,filler_square,None,None,None,None,None,None,None,None,None,None,3,1.1094937324523926,None,,,,,0,0,0,0,0,136,136,199,245.49846863746643,,,,,,,,,,,,,,,,,,,,,,,,,,,,,,,,,,,,,,,,,,,,,,,,,,,,,,,,,,,,,,,,,,,,,,,,,,,,,,,,,,65.7795055743705,85.80778328566088,69.44546901901253,80.13152382558127,90.70164558219894,90.70164558219894,3.0,3.1,-179,261,0,2,181,-275,245.47966289520264,245.4797444343567,245.4827904701233,245.49846863746643,245.64032316207886,245.64032316207886,245.64032316207886,245.64032316207886,245.64032316207886,245.64032316207886,245.64032316207886,246.62562465667725,3,1.1094937324523926,None,,,,,,,,,,,,,,,,,,148,1,2025-02-27_14h51.11.275,comp,2024.2.4,None,2025-02-27 14h51.23.262702 -0500,
137,137,0,filler_square,None,None,None,None,None,None,None,None,None,None,2,0.9763562679290771,None,,,,,0,0,0,0,0,137,137,179,246.64203143119812,,,,,,,,,,,,,,,,,,,,,,,,,,,,,,,,,,,,,,,,,,,,,,,,,,,,,,,,,,,,,,,,,,,,,,,,,,,,,,,,,,155.01875698021036,128.86177475402474,176.3230016759074,176.3230016759074,84.2915562831124,93.25954223261716,1.0,1.1,-729,272,-480,251,-249,266,246.62770652770996,246.62778782844543,246.63098978996277,246.64203143119812,246.79078006744385,246.79078006744385,246.79078006744385,246.79078006744385,246.79078006744385,246.79078006744385,246.79078006744385,247.62364506721497,2,0.9763562679290771,None,,,,,,,,,,,,,,,,,,148,1,2025-02-27_14h51.11.275,comp,2024.2.4,None,2025-02-27 14h51.23.262702 -0500,
138,138,0,filler_square,None,None,None,None,None,None,None,None,None,None,1,1.093376874923706,None,,,,,0,0,0,0,0,138,138,186,247.64331555366516,,,,,,,,,,,,,,,,,,,,,,,,,,,,,,,,,,,,,,,,,,,,,,,,,,,,,,,,,,,,,,,,,,,,,,,,,,,,,,,,,,163.42118800432735,163.42118800432735,133.11752904533893,118.691461288569,152.63808665299368,115.85121134425009,4.0,4.1,-237,-287,0,-9,213,-260,247.62534499168396,247.62542152404785,247.62842106819153,247.64331555366516,247.79079222679138,247.79079222679138,247.79079222679138,247.79079222679138,247.79079222679138,247.79079222679138,247.79079222679138,248.75664806365967,1,1.093376874923706,None,,,,,,,,,,,,,,,,,,148,1,2025-02-27_14h51.11.275,comp,2024.2.4,None,2025-02-27 14h51.23.262702 -0500,
139,139,0,critical,wdh,20.0,4.0,upper,125.0,200.0,141.0,141.0,200.0,125.0,1,0.7103269100189209,None,,,,,0,0,0,0,0,139,139,83,248.77039527893066,,,,,,,,,,,,,,,,,,,,,,,,,,,,,,,,,,,,,,,,,,,,,,,,,,,,,,,,,,,,,,,,,,,,,,,,,,,,,,,,,,125.0,200.0,141.0,141.0,200.0,125.0,4.0,4.1,-266,-262,0,18,229,-260,248.75813746452332,248.75824451446533,248.76140761375427,248.77039527893066,248.90927863121033,248.90927863121033,248.90927863121033,248.90927863121033,248.90927863121033,248.90927863121033,248.90927863121033,249.4919810295105,1,0.7103269100189209,None,,,,,,,,,,,,,,,,,,148,1,2025-02-27_14h51.11.275,comp,2024.2.4,None,2025-02-27 14h51.23.262702 -0500,
140,140,0,critical,dwh,35.0,3.0,upper,127.0,127.0,125.0,200.0,200.0,125.0,2,1.1009020805358887,None,,,,,0,0,0,0,0,140,140,63,249.50771141052246,,,,,,,,,,,,,,,,,,,,,,,,,,,,,,,,,,,,,,,,,,,,,,,,,,,,,,,,,,,,,,,,,,,,,,,,,,,,,,,,,,127.0,127.0,125.0,200.0,200.0,125.0,3.0,3.2,-260,-264,0,18,258,262,249.49358296394348,249.49365973472595,249.4969928264618,249.50771141052246,249.65948796272278,249.65948796272278,249.65948796272278,249.65948796272278,249.65948796272278,249.65948796272278,249.65948796272278,250.6159646511078,2,1.1009020805358887,None,,,,,,,,,,,,,,,,,,148,1,2025-02-27_14h51.11.275,comp,2024.2.4,None,2025-02-27 14h51.23.262702 -0500,
141,141,0,critical,dhw,20.0,2.1,lower,78.0,78.0,133.0,57.0,57.0,133.0,1,1.7347524166107178,None,,,,,0,0,0,0,0,141,141,26,250.63326716423035,,,,,,,,,,,,,,,,,,,,,,,,,,,,,,,,,,,,,,,,,,,,,,,,,,,,,,,,,,,,,,,,,,,,,,,,,,,,,,,,,,78.0,78.0,133.0,57.0,57.0,133.0,2.1,2.12,-164,-277,0,-272,191,262,250.61741590499878,250.6174910068512,250.62027382850647,250.63326716423035,250.7747609615326,250.7747609615326,250.7747609615326,250.7747609615326,250.7747609615326,250.7747609615326,250.7747609615326,252.3829665184021,1,1.7347524166107178,None,,,,,,,,,,,,,,,,,,148,1,2025-02-27_14h51.11.275,comp,2024.2.4,None,2025-02-27 14h51.23.262702 -0500,
142,142,0,critical,wdh,20.0,3.0,lower,57.0,133.0,78.0,78.0,133.0,57.0,1,0.7279009819030762,None,,,,,0,0,0,0,0,142,142,80,252.40008163452148,,,,,,,,,,,,,,,,,,,,,,,,,,,,,,,,,,,,,,,,,,,,,,,,,,,,,,,,,,,,,,,,,,,,,,,,,,,,,,,,,,57.0,133.0,78.0,78.0,133.0,57.0,3.0,3.2,-202,-290,0,4,164,284,252.38449501991272,252.38457417488098,252.38738632202148,252.40008163452148,252.5412847995758,252.5412847995758,252.5412847995758,252.5412847995758,252.5412847995758,252.5412847995758,252.5412847995758,253.1420772075653,1,0.7279009819030762,None,,,,,,,,,,,,,,,,,,148,1,2025-02-27_14h51.11.275,comp,2024.2.4,None,2025-02-27 14h51.23.262702 -0500,
