thisN,thisTrialN,thisRepN,effect,order,distance,config,diag,h_1,w_1,h_2,w_2,h_3,w_3,rect_choice.keys,rect_choice.rt,rect_choice.duration,instructions_loop.thisRepN,instructions_loop.thisTrialN,instructions_loop.thisN,instructions_loop.thisIndex,blocks.thisRepN,blocks.thisTrialN,blocks.thisN,blocks.thisIndex,trials.thisRepN,trials.thisTrialN,trials.thisN,trials.thisIndex,thisRow.t,notes,consent.started,agree_button.started,decline_button.started,consent_img.started,mouse.started,consent.stopped,agree_button.numClicks,agree_button.timesOn,agree_button.timesOff,decline_button.numClicks,decline_button.timesOn,decline_button.timesOff,mouse.x,mouse.y,mouse.leftButton,mouse.midButton,mouse.rightButton,mouse.time,mouse.clicked_name,exp_params.started,exp_params.stopped,welcome.started,welcome_text.started,welcome.stopped,instructions_1.started,instructions_1_text_1.started,instructions_1_text_2.started,key_resp.started,instructions_1.stopped,instructions_loop.key_resp.keys,instructions_loop.key_resp.rt,instructions_loop.key_resp.duration,instructions_2.started,instructions_2_text_1.started,instructions_2_text_2.started,key_resp_2.started,instructions_2.stopped,instructions_loop.key_resp_2.keys,instructions_loop.key_resp_2.rt,instructions_loop.key_resp_2.duration,instructions_3.started,instructions_3_text_1.started,r1_instr3.started,r2_instr3.started,r3_instr3.started,r1_instr3_label.started,r2_instr3_label.started,r3_instr3_label.started,instructions_3_text_3.started,instructions_3_text_4.started,key_resp_3.started,instructions_3.stopped,instructions_loop.key_resp_3.keys,instructions_loop.key_resp_3.rt,instructions_loop.key_resp_3.duration,instructions_4.started,instructions_4_text_1.started,instructions_4_text_3.started,instructions_4_text_2.started,key_resp_4.started,instructions_4.stopped,instructions_loop.key_resp_4.keys,instructions_loop.key_resp_4.rt,instructions_loop.key_resp_4.duration,instructions_5.started,instructions_5_text_1.started,instructions_5_text_2.started,key_resp_5.started,instructions_5.stopped,instructions_loop.key_resp_5.keys,instructions_loop.key_resp_5.rt,instructions_loop.key_resp_5.duration,start_exp.started,start_exp_text.started,key_resp_6.started,start_exp.stopped,key_resp_6.keys,key_resp_6.rt,key_resp_6.duration,h_1_tmp,w_1_tmp,h_2_tmp,w_2_tmp,h_3_tmp,w_3_tmp,config_tmp,config_tmp_1,r_1_x,r_1_y,r_2_x,r_2_y,r_3_x,r_3_y,pre_trial.started,pre_trial.stopped,choice_trial.started,rect_choice.started,r_1.started,r_2.started,r_3.started,r_1_label.started,r_2_label.started,r_3_label.started,prompt.started,choice_trial.stopped,trials.rect_choice.keys,trials.rect_choice.rt,trials.rect_choice.duration,end_block.started,end_block_text.started,end_block.stopped,end.started,end_text.started,key_resp_7.started,end.stopped,key_resp_7.keys,key_resp_7.rt,key_resp_7.duration,debriefing.started,debrief_form.started,end_debrief.started,debriefing.stopped,end_debrief.keys,end_debrief.rt,end_debrief.duration,participant,computer,date,expName,psychopyVersion,frameRate,expStart,
,,,,,,,,,,,,,,,,,,,,,,,,,,,,,,,0.01508784294128418,0.03876781463623047,0.03876781463623047,0.03876781463623047,0.014869451522827148,8.346293210983276,0,,,0,,,[-66.0],[-499.0],[1],[0],[0],[8.330804109573364],['agree_button'],,,,,,,,,,,,,,,,,,,,,,,,,,,,,,,,,,,,,,,,,,,,,,,,,,,,,,,,,,,,,,,,,,,,,,,,,,,,,,,,,,,,,,,,,,,,,,,,,,,,,,,,,,,149,2,2025-02-27_14h51.38.783,comp,2024.2.4,None,2025-02-27 14h51.50.372129 -0500,
,,,,,,,,,,,,,,,,,,,,,,,,,,,,,,,,,,,,,,,,,,,,,,,,,,8.346733331680298,8.34683346748352,,,,,,,,,,,,,,,,,,,,,,,,,,,,,,,,,,,,,,,,,,,,,,,,,,,,,,,,,,,,,,,,,,,,,,,,,,,,,,,,,,,,,,,,,,,,,,,,,,,,,,,,,149,2,2025-02-27_14h51.38.783,comp,2024.2.4,None,2025-02-27 14h51.50.372129 -0500,
,,,,,,,,,,,,,,,,,,,,,,,,,,,,,,,,,,,,,,,,,,,,,,,,,,,,8.346889734268188,8.362579822540283,10.359527826309204,,,,,,,,,,,,,,,,,,,,,,,,,,,,,,,,,,,,,,,,,,,,,,,,,,,,,,,,,,,,,,,,,,,,,,,,,,,,,,,,,,,,,,,,,,,,,,,,,,,,,,149,2,2025-02-27_14h51.38.783,comp,2024.2.4,None,2025-02-27 14h51.50.372129 -0500,
0,0,0,,,,,,,,,,,,,,,0,0,0,0,,,,,,,,,10.376128196716309,,,,,,,,,,,,,,,,,,,,,,,,,,10.360424041748047,10.376128196716309,10.376128196716309,11.8599271774292,13.512402772903442,space,1.6443712711334229,None,13.51255178451538,13.528608083724976,13.528608083724976,15.01109266281128,22.24696135520935,space,7.229392051696777,None,22.247111320495605,22.282273292541504,22.282273292541504,22.282273292541504,22.282273292541504,22.282273292541504,22.282273292541504,22.282273292541504,22.282273292541504,22.282273292541504,23.765350818634033,28.659890174865723,space,4.874276876449585,None,28.66004514694214,28.680864572525024,28.680864572525024,28.680864572525024,30.16576600074768,34.75494694709778,space,4.579444169998169,None,34.75509452819824,34.77256107330322,34.77256107330322,36.267953395843506,37.455466985702515,space,1.1716880798339844,None,37.4556622505188,37.47101664543152,37.47101664543152,38.98731541633606,space,1.5126433372497559,None,,,,,,,,,,,,,,,,,,,,,,,,,,,,,,,,,,,,,,,,,,,,,,,149,2,2025-02-27_14h51.38.783,comp,2024.2.4,None,2025-02-27 14h51.50.372129 -0500,
0,0,0,critical,hdw,35.0,4.0,upper,200.0,125.0,127.0,127.0,125.0,200.0,3,10.437908411026001,None,,,,,0,0,0,0,0,0,0,113,39.06651782989502,,,,,,,,,,,,,,,,,,,,,,,,,,,,,,,,,,,,,,,,,,,,,,,,,,,,,,,,,,,,,,,,,,,,,,,,,,,,,,,,,200.0,125.0,127.0,127.0,125.0,200.0,4.0,4.2,-222,-8,0,-289,260,1,39.0498833656311,39.04990839958191,39.05091047286987,39.06651782989502,39.21102499961853,39.21102499961853,39.21102499961853,39.21102499961853,39.21102499961853,39.21102499961853,39.21102499961853,49.50813031196594,3,10.437908411026001,None,,,,,,,,,,,,,,,,,,149,2,2025-02-27_14h51.38.783,comp,2024.2.4,None,2025-02-27 14h51.50.372129 -0500,
1,1,0,filler_random,None,None,None,None,None,None,None,None,None,None,3,10.546211242675781,None,,,,,0,0,0,0,0,1,1,132,49.52587676048279,,,,,,,,,,,,,,,,,,,,,,,,,,,,,,,,,,,,,,,,,,,,,,,,,,,,,,,,,,,,,,,,,,,,,,,,,,,,,,,,,184.56821255351196,138.81628756832444,68.10875208614748,58.30053083240334,154.656259391615,164.52174903091344,3.0,3.1,-195,288,0,3,207,-266,49.510103702545166,49.51018476486206,49.51425361633301,49.52587676048279,49.66182351112366,49.66182351112366,49.66182351112366,49.66182351112366,49.66182351112366,49.66182351112366,49.66182351112366,60.07575535774231,3,10.546211242675781,None,,,,,,,,,,,,,,,,,,149,2,2025-02-27_14h51.38.783,comp,2024.2.4,None,2025-02-27 14h51.50.372129 -0500,
2,2,0,critical,hdw,35.0,3.0,upper,200.0,125.0,127.0,127.0,125.0,200.0,3,5.931979656219482,None,,,,,0,0,0,0,0,2,2,111,60.09215044975281,,,,,,,,,,,,,,,,,,,,,,,,,,,,,,,,,,,,,,,,,,,,,,,,,,,,,,,,,,,,,,,,,,,,,,,,,,,,,,,,,200.0,125.0,127.0,127.0,125.0,200.0,3.0,3.1,-222,283,0,-19,260,-252,60.07725405693054,60.077329874038696,60.08052325248718,60.09215044975281,60.24921131134033,60.24921131134033,60.24921131134033,60.24921131134033,60.24921131134033,60.24921131134033,60.24921131134033,66.02715373039246,3,5.931979656219482,None,,,,,,,,,,,,,,,,,,149,2,2025-02-27_14h51.38.783,comp,2024.2.4,None,2025-02-27 14h51.50.372129 -0500,
3,3,0,filler_random,None,None,None,None,None,None,None,None,None,None,1,3.163820743560791,None,,,,,0,0,0,0,0,3,3,137,66.04382753372192,,,,,,,,,,,,,,,,,,,,,,,,,,,,,,,,,,,,,,,,,,,,,,,,,,,,,,,,,,,,,,,,,,,,,,,,,,,,,,,,,181.58591817361724,124.79807135401036,67.88372629082873,129.11795274527935,130.18744655790448,71.64293935372973,3.0,3.1,-223,255,0,-19,196,-253,66.02881741523743,66.02889585494995,66.03215670585632,66.04382753372192,66.18203973770142,66.18203973770142,66.18203973770142,66.18203973770142,66.18203973770142,66.18203973770142,66.18203973770142,69.22023463249207,1,3.163820743560791,None,,,,,,,,,,,,,,,,,,149,2,2025-02-27_14h51.38.783,comp,2024.2.4,None,2025-02-27 14h51.50.372129 -0500,
4,4,0,critical,wdh,20.0,1.0,upper,125.0,200.0,141.0,141.0,200.0,125.0,3,8.905388593673706,None,,,,,0,0,0,0,0,4,4,79,69.23894834518433,,,,,,,,,,,,,,,,,,,,,,,,,,,,,,,,,,,,,,,,,,,,,,,,,,,,,,,,,,,,,,,,,,,,,,,,,,,,,,,,,125.0,200.0,141.0,141.0,200.0,125.0,1.0,1.3,214,-273,480,-254,709,-251,69.22178339958191,69.2218828201294,69.2250247001648,69.23894834518433,69.38011169433594,69.38011169433594,69.38011169433594,69.38011169433594,69.38011169433594,69.38011169433594,69.38011169433594,78.14926934242249,3,8.905388593673706,None,,,,,,,,,,,,,,,,,,149,2,2025-02-27_14h51.38.783,comp,2024.2.4,None,2025-02-27 14h51.50.372129 -0500,
5,5,0,critical,wdh,35.0,1.0,upper,125.0,200.0,127.0,127.0,200.0,125.0,1,9.82611870765686,None,,,,,0,0,0,0,0,5,5,73,78.16554403305054,,,,,,,,,,,,,,,,,,,,,,,,,,,,,,,,,,,,,,,,,,,,,,,,,,,,,,,,,,,,,,,,,,,,,,,,,,,,,,,,,125.0,200.0,127.0,127.0,200.0,125.0,1.0,1.1,-740,269,-480,280,-258,289,78.15075302124023,78.150887966156,78.15459609031677,78.16554403305054,78.31424379348755,78.31424379348755,78.31424379348755,78.31424379348755,78.31424379348755,78.31424379348755,78.31424379348755,88.00320315361023,1,9.82611870765686,None,,,,,,,,,,,,,,,,,,149,2,2025-02-27_14h51.38.783,comp,2024.2.4,None,2025-02-27 14h51.50.372129 -0500,
6,6,0,filler_square,None,None,None,None,None,None,None,None,None,None,1,3.3408989906311035,None,,,,,0,0,0,0,0,6,6,198,88.02005386352539,,,,,,,,,,,,,,,,,,,,,,,,,,,,,,,,,,,,,,,,,,,,,,,,,,,,,,,,,,,,,,,,,,,,,,,,,,,,,,,,,147.28983669657592,147.28983669657592,67.21642832838246,94.90307737739084,120.54133065154882,130.28374331436123,4.0,4.2,-217,-3,0,-258,209,20,88.00523161888123,88.00537109375,88.00919508934021,88.02005386352539,88.16895079612732,88.16895079612732,88.16895079612732,88.16895079612732,88.16895079612732,88.16895079612732,88.16895079612732,91.36868453025818,1,3.3408989906311035,None,,,,,,,,,,,,,,,,,,149,2,2025-02-27_14h51.38.783,comp,2024.2.4,None,2025-02-27 14h51.50.372129 -0500,
7,7,0,catch,None,None,None,None,None,None,None,None,None,None,1,3.4786345958709717,None,,,,,0,0,0,0,0,7,7,121,91.38552927970886,,,,,,,,,,,,,,,,,,,,,,,,,,,,,,,,,,,,,,,,,,,,,,,,,,,,,,,,,,,,,,,,,,,,,,,,,,,,,,,,,127,198,117,73,98,92,4.0,4.1,-232,-261,0,10,178,-273,91.37058234214783,91.3706603050232,91.37397265434265,91.38552927970886,91.54586243629456,91.54586243629456,91.54586243629456,91.54586243629456,91.54586243629456,91.54586243629456,91.54586243629456,94.86881375312805,1,3.4786345958709717,None,,,,,,,,,,,,,,,,,,149,2,2025-02-27_14h51.38.783,comp,2024.2.4,None,2025-02-27 14h51.50.372129 -0500,
8,8,0,catch,None,None,None,None,None,None,None,None,None,None,2,2.771239995956421,None,,,,,0,0,0,0,0,8,8,125,94.88476657867432,,,,,,,,,,,,,,,,,,,,,,,,,,,,,,,,,,,,,,,,,,,,,,,,,,,,,,,,,,,,,,,,,,,,,,,,,,,,,,,,,120,70,163,162,90,100,3.0,3.2,-212,-274,0,1,227,267,94.87002444267273,94.87007069587708,94.87193655967712,94.88476657867432,95.02126502990723,95.02126502990723,95.02126502990723,95.02126502990723,95.02126502990723,95.02126502990723,95.02126502990723,97.66085386276245,2,2.771239995956421,None,,,,,,,,,,,,,,,,,,149,2,2025-02-27_14h51.38.783,comp,2024.2.4,None,2025-02-27 14h51.50.372129 -0500,
9,9,0,filler_random,None,None,None,None,None,None,None,None,None,None,3,7.537065744400024,None,,,,,0,0,0,0,0,9,9,155,97.67871642112732,,,,,,,,,,,,,,,,,,,,,,,,,,,,,,,,,,,,,,,,,,,,,,,,,,,,,,,,,,,,,,,,,,,,,,,,,,,,,,,,,120.33319695216758,144.85012546581754,156.68320891029177,120.79049984614113,170.74532885133317,112.93128354548497,2.1,2.12,-229,-270,0,-285,213,279,97.6626296043396,97.66271162033081,97.66585373878479,97.67871642112732,97.82259941101074,97.82259941101074,97.82259941101074,97.82259941101074,97.82259941101074,97.82259941101074,97.82259941101074,105.23372197151184,3,7.537065744400024,None,,,,,,,,,,,,,,,,,,149,2,2025-02-27_14h51.38.783,comp,2024.2.4,None,2025-02-27 14h51.50.372129 -0500,
10,10,0,critical,dhw,20.0,2.1,upper,141.0,141.0,200.0,125.0,125.0,200.0,3,3.604253053665161,None,,,,,0,0,0,0,0,10,10,3,105.25173711776733,,,,,,,,,,,,,,,,,,,,,,,,,,,,,,,,,,,,,,,,,,,,,,,,,,,,,,,,,,,,,,,,,,,,,,,,,,,,,,,,,141.0,141.0,200.0,125.0,125.0,200.0,2.1,2.11,-229,272,0,251,258,-276,105.23536086082458,105.23543763160706,105.23894548416138,105.25173711776733,105.39429545402527,105.39429545402527,105.39429545402527,105.39429545402527,105.39429545402527,105.39429545402527,105.39429545402527,108.86013269424438,3,3.604253053665161,None,,,,,,,,,,,,,,,,,,149,2,2025-02-27_14h51.38.783,comp,2024.2.4,None,2025-02-27 14h51.50.372129 -0500,
11,11,0,critical,wdh,35.0,3.0,upper,125.0,200.0,127.0,127.0,200.0,125.0,1,7.862328290939331,None,,,,,0,0,0,0,0,11,11,75,108.88157844543457,,,,,,,,,,,,,,,,,,,,,,,,,,,,,,,,,,,,,,,,,,,,,,,,,,,,,,,,,,,,,,,,,,,,,,,,,,,,,,,,,125.0,200.0,127.0,127.0,200.0,125.0,3.0,3.1,-260,283,0,-4,222,-277,108.86176657676697,108.86192178726196,108.86587476730347,108.88157844543457,109.01271343231201,109.01271343231201,109.01271343231201,109.01271343231201,109.01271343231201,109.01271343231201,109.01271343231201,116.74598026275635,1,7.862328290939331,None,,,,,,,,,,,,,,,,,,149,2,2025-02-27_14h51.38.783,comp,2024.2.4,None,2025-02-27 14h51.50.372129 -0500,
12,12,0,catch,None,None,None,None,None,None,None,None,None,None,1,1.8134994506835938,None,,,,,0,0,0,0,0,12,12,120,116.76231527328491,,,,,,,,,,,,,,,,,,,,,,,,,,,,,,,,,,,,,,,,,,,,,,,,,,,,,,,,,,,,,,,,,,,,,,,,,,,,,,,,,164,161,82,108,97,93,3.0,3.2,-230,-274,0,13,196,263,116.74807167053223,116.74817752838135,116.75158762931824,116.76231527328491,116.91369605064392,116.91369605064392,116.91369605064392,116.91369605064392,116.91369605064392,116.91369605064392,116.91369605064392,118.57920360565186,1,1.8134994506835938,None,,,,,,,,,,,,,,,,,,149,2,2025-02-27_14h51.38.783,comp,2024.2.4,None,2025-02-27 14h51.50.372129 -0500,
13,13,0,critical,dhw,20.0,3.0,lower,78.0,78.0,133.0,57.0,57.0,133.0,3,15.508233308792114,None,,,,,0,0,0,0,0,13,13,56,118.59538435935974,,,,,,,,,,,,,,,,,,,,,,,,,,,,,,,,,,,,,,,,,,,,,,,,,,,,,,,,,,,,,,,,,,,,,,,,,,,,,,,,,78.0,78.0,133.0,57.0,57.0,133.0,3.0,3.2,-164,-276,0,-6,191,284,118.58087062835693,118.58095407485962,118.58458662033081,118.59538435935974,118.75265622138977,118.75265622138977,118.75265622138977,118.75265622138977,118.75265622138977,118.75265622138977,118.75265622138977,134.11558032035828,3,15.508233308792114,None,,,,,,,,,,,,,,,,,,149,2,2025-02-27_14h51.38.783,comp,2024.2.4,None,2025-02-27 14h51.50.372129 -0500,
14,14,0,critical,whd,20.0,1.0,lower,57.0,133.0,133.0,57.0,78.0,78.0,1,3.0290796756744385,None,,,,,0,0,0,0,0,14,14,90,134.1315460205078,,,,,,,,,,,,,,,,,,,,,,,,,,,,,,,,,,,,,,,,,,,,,,,,,,,,,,,,,,,,,,,,,,,,,,,,,,,,,,,,,57.0,133.0,133.0,57.0,78.0,78.0,1.0,1.2,-191,3,0,5,164,14,134.11706852912903,134.11714386940002,134.1203489303589,134.1315460205078,134.26959657669067,134.26959657669067,134.26959657669067,134.26959657669067,134.26959657669067,134.26959657669067,134.26959657669067,137.16618990898132,1,3.0290796756744385,None,,,,,,,,,,,,,,,,,,149,2,2025-02-27_14h51.38.783,comp,2024.2.4,None,2025-02-27 14h51.50.372129 -0500,
15,15,0,filler_random,None,None,None,None,None,None,None,None,None,None,1,1.4973316192626953,None,,,,,0,0,0,0,0,15,15,154,137.18276977539062,,,,,,,,,,,,,,,,,,,,,,,,,,,,,,,,,,,,,,,,,,,,,,,,,,,,,,,,,,,,,,,,,,,,,,,,,,,,,,,,,149.46186565747877,169.62951058256115,69.83098018486614,95.45001165939975,97.41862383463132,95.4911628408058,2.2,2.22,-229,265,0,-283,191,-264,137.16782879829407,137.16790461540222,137.17115688323975,137.18276977539062,137.3206775188446,137.3206775188446,137.3206775188446,137.3206775188446,137.3206775188446,137.3206775188446,137.3206775188446,138.6848487854004,1,1.4973316192626953,None,,,,,,,,,,,,,,,,,,149,2,2025-02-27_14h51.38.783,comp,2024.2.4,None,2025-02-27 14h51.50.372129 -0500,
16,16,0,critical,dwh,35.0,4.0,upper,127.0,127.0,125.0,200.0,200.0,125.0,2,3.762115716934204,None,,,,,0,0,0,0,0,16,16,65,138.70212030410767,,,,,,,,,,,,,,,,,,,,,,,,,,,,,,,,,,,,,,,,,,,,,,,,,,,,,,,,,,,,,,,,,,,,,,,,,,,,,,,,,127.0,127.0,125.0,200.0,200.0,125.0,4.0,4.2,-260,2,0,-266,258,12,138.6864893436432,138.68656969070435,138.69025373458862,138.70212030410767,138.83759260177612,138.83759260177612,138.83759260177612,138.83759260177612,138.83759260177612,138.83759260177612,138.83759260177612,142.47126626968384,2,3.762115716934204,None,,,,,,,,,,,,,,,,,,149,2,2025-02-27_14h51.38.783,comp,2024.2.4,None,2025-02-27 14h51.50.372129 -0500,
17,17,0,critical,hwd,20.0,3.0,lower,133.0,57.0,57.0,133.0,78.0,78.0,1,6.057785987854004,None,,,,,0,0,0,0,0,17,17,104,142.4882562160492,,,,,,,,,,,,,,,,,,,,,,,,,,,,,,,,,,,,,,,,,,,,,,,,,,,,,,,,,,,,,,,,,,,,,,,,,,,,,,,,,133.0,57.0,57.0,133.0,78.0,78.0,3.0,3.1,-191,280,0,8,202,-284,142.47325086593628,142.4733908176422,142.4772891998291,142.4882562160492,142.63590836524963,142.63590836524963,142.63590836524963,142.63590836524963,142.63590836524963,142.63590836524963,142.63590836524963,148.55340671539307,1,6.057785987854004,None,,,,,,,,,,,,,,,,,,149,2,2025-02-27_14h51.38.783,comp,2024.2.4,None,2025-02-27 14h51.50.372129 -0500,
18,18,0,filler_square,None,None,None,None,None,None,None,None,None,None,2,1.2911376953125,None,,,,,0,0,0,0,0,18,18,196,148.57265257835388,,,,,,,,,,,,,,,,,,,,,,,,,,,,,,,,,,,,,,,,,,,,,,,,,,,,,,,,,,,,,,,,,,,,,,,,,,,,,,,,,83.80795591836444,86.19791206062507,109.00682931726682,109.00682931726682,83.1476521151894,82.95342994948204,4.0,4.2,-194,-18,0,-266,192,19,148.5551483631134,148.55522632598877,148.55860710144043,148.57265257835388,148.72261881828308,148.72261881828308,148.72261881828308,148.72261881828308,148.72261881828308,148.72261881828308,148.72261881828308,149.87369394302368,2,1.2911376953125,None,,,,,,,,,,,,,,,,,,149,2,2025-02-27_14h51.38.783,comp,2024.2.4,None,2025-02-27 14h51.50.372129 -0500,
19,19,0,critical,wdh,35.0,1.0,lower,57.0,133.0,70.0,70.0,133.0,57.0,3,3.629532814025879,None,,,,,0,0,0,0,0,19,19,72,149.89030170440674,,,,,,,,,,,,,,,,,,,,,,,,,,,,,,,,,,,,,,,,,,,,,,,,,,,,,,,,,,,,,,,,,,,,,,,,,,,,,,,,,57.0,133.0,70.0,70.0,133.0,57.0,1.0,1.3,282,-281,480,-289,640,-252,149.87536215782166,149.87544131278992,149.87878227233887,149.89030170440674,150.03915739059448,150.03915739059448,150.03915739059448,150.03915739059448,150.03915739059448,150.03915739059448,150.03915739059448,153.52250933647156,3,3.629532814025879,None,,,,,,,,,,,,,,,,,,149,2,2025-02-27_14h51.38.783,comp,2024.2.4,None,2025-02-27 14h51.50.372129 -0500,
20,20,0,filler_random,None,None,None,None,None,None,None,None,None,None,1,1.4532880783081055,None,,,,,0,0,0,0,0,20,20,149,153.53885579109192,,,,,,,,,,,,,,,,,,,,,,,,,,,,,,,,,,,,,,,,,,,,,,,,,,,,,,,,,,,,,,,,,,,,,,,,,,,,,,,,,180.25847265500397,196.93368093695952,125.47113571159193,86.97544383452146,71.80726685080108,63.40917905051008,2.1,2.11,-238,277,0,272,171,-282,153.52439141273499,153.52447271347046,153.52811479568481,153.53885579109192,153.6900336742401,153.6900336742401,153.6900336742401,153.6900336742401,153.6900336742401,153.6900336742401,153.6900336742401,154.9961040019989,1,1.4532880783081055,None,,,,,,,,,,,,,,,,,,149,2,2025-02-27_14h51.38.783,comp,2024.2.4,None,2025-02-27 14h51.50.372129 -0500,
21,21,0,critical,hdw,20.0,2.1,upper,200.0,125.0,141.0,141.0,125.0,200.0,3,3.7458903789520264,None,,,,,0,0,0,0,0,21,21,47,155.01395416259766,,,,,,,,,,,,,,,,,,,,,,,,,,,,,,,,,,,,,,,,,,,,,,,,,,,,,,,,,,,,,,,,,,,,,,,,,,,,,,,,,200.0,125.0,141.0,141.0,125.0,200.0,2.1,2.11,-229,283,0,261,266,-275,154.99769377708435,154.9977743625641,155.0009732246399,155.01395416259766,155.1534149646759,155.1534149646759,155.1534149646759,155.1534149646759,155.1534149646759,155.1534149646759,155.1534149646759,158.77388095855713,3,3.7458903789520264,None,,,,,,,,,,,,,,,,,,149,2,2025-02-27_14h51.38.783,comp,2024.2.4,None,2025-02-27 14h51.50.372129 -0500,
22,22,0,critical,whd,20.0,4.0,upper,125.0,200.0,200.0,125.0,141.0,141.0,1,5.638745307922363,None,,,,,0,0,0,0,0,22,22,95,158.79353594779968,,,,,,,,,,,,,,,,,,,,,,,,,,,,,,,,,,,,,,,,,,,,,,,,,,,,,,,,,,,,,,,,,,,,,,,,,,,,,,,,,125.0,200.0,200.0,125.0,141.0,141.0,4.0,4.1,-258,-255,0,-11,229,-255,158.77540802955627,158.77548360824585,158.77875518798828,158.79353594779968,158.9410321712494,158.9410321712494,158.9410321712494,158.9410321712494,158.9410321712494,158.9410321712494,158.9410321712494,164.44419121742249,1,5.638745307922363,None,,,,,,,,,,,,,,,,,,149,2,2025-02-27_14h51.38.783,comp,2024.2.4,None,2025-02-27 14h51.50.372129 -0500,
23,23,0,filler_random,None,None,None,None,None,None,None,None,None,None,1,1.7479007244110107,None,,,,,0,0,0,0,0,23,23,152,164.4600944519043,,,,,,,,,,,,,,,,,,,,,,,,,,,,,,,,,,,,,,,,,,,,,,,,,,,,,,,,,,,,,,,,,,,,,,,,,,,,,,,,,151.17019334942796,97.02967454744692,95.94237233813905,94.14825636531872,96.98863717705942,64.97601782122437,3.0,3.2,-192,-265,0,20,176,262,164.44603896141052,164.44614124298096,164.44978499412537,164.4600944519043,164.60832929611206,164.60832929611206,164.60832929611206,164.60832929611206,164.60832929611206,164.60832929611206,164.60832929611206,166.21091270446777,1,1.7479007244110107,None,,,,,,,,,,,,,,,,,,149,2,2025-02-27_14h51.38.783,comp,2024.2.4,None,2025-02-27 14h51.50.372129 -0500,
24,24,0,critical,hwd,20.0,3.0,upper,200.0,125.0,125.0,200.0,141.0,141.0,2,4.346228122711182,None,,,,,0,0,0,0,0,24,24,105,166.22963118553162,,,,,,,,,,,,,,,,,,,,,,,,,,,,,,,,,,,,,,,,,,,,,,,,,,,,,,,,,,,,,,,,,,,,,,,,,,,,,,,,,200.0,125.0,125.0,200.0,141.0,141.0,3.0,3.1,-258,273,0,-16,266,-274,166.2125916481018,166.21267199516296,166.21625685691833,166.22963118553162,166.3771243095398,166.3771243095398,166.3771243095398,166.3771243095398,166.3771243095398,166.3771243095398,166.3771243095398,170.5795340538025,2,4.346228122711182,None,,,,,,,,,,,,,,,,,,149,2,2025-02-27_14h51.38.783,comp,2024.2.4,None,2025-02-27 14h51.50.372129 -0500,
25,25,0,filler_square,None,None,None,None,None,None,None,None,None,None,2,5.2921059131622314,None,,,,,0,0,0,0,0,25,25,200,170.5963888168335,,,,,,,,,,,,,,,,,,,,,,,,,,,,,,,,,,,,,,,,,,,,,,,,,,,,,,,,,,,,,,,,,,,,,,,,,,,,,,,,,117.73057928026753,117.70428969283161,125.46913900424903,125.46913900424903,58.081990949426654,117.06074336292086,4.0,4.1,-218,-274,0,18,217,-257,170.58154368400574,170.5816249847412,170.58566164970398,170.5963888168335,170.74505257606506,170.74505257606506,170.74505257606506,170.74505257606506,170.74505257606506,170.74505257606506,170.74505257606506,175.90376472473145,2,5.2921059131622314,None,,,,,,,,,,,,,,,,,,149,2,2025-02-27_14h51.38.783,comp,2024.2.4,None,2025-02-27 14h51.50.372129 -0500,
26,26,0,filler_square,None,None,None,None,None,None,None,None,None,None,2,3.841099500656128,None,,,,,0,0,0,0,0,26,26,183,175.91942644119263,,,,,,,,,,,,,,,,,,,,,,,,,,,,,,,,,,,,,,,,,,,,,,,,,,,,,,,,,,,,,,,,,,,,,,,,,,,,,,,,,106.59908167307654,100.82253090041229,188.08019259363596,188.08019259363596,185.92433079427232,109.2999305298262,3.0,3.2,-240,-285,0,-9,245,274,175.90577578544617,175.90588355064392,175.90947651863098,175.91942644119263,176.06389737129211,176.06389737129211,176.06389737129211,176.06389737129211,176.06389737129211,176.06389737129211,176.06389737129211,179.7667121887207,2,3.841099500656128,None,,,,,,,,,,,,,,,,,,149,2,2025-02-27_14h51.38.783,comp,2024.2.4,None,2025-02-27 14h51.50.372129 -0500,
27,27,0,filler_random,None,None,None,None,None,None,None,None,None,None,1,1.992663860321045,None,,,,,0,0,0,0,0,27,27,134,179.78339004516602,,,,,,,,,,,,,,,,,,,,,,,,,,,,,,,,,,,,,,,,,,,,,,,,,,,,,,,,,,,,,,,,,,,,,,,,,,,,,,,,,96.01220167640756,187.64744088472204,69.14299128448181,145.37046757578355,110.79385260805662,140.56775800816925,4.0,4.1,-263,-269,0,-5,239,-258,179.7686173915863,179.76875495910645,179.7724096775055,179.78339004516602,179.9314203262329,179.9314203262329,179.9314203262329,179.9314203262329,179.9314203262329,179.9314203262329,179.9314203262329,181.78228664398193,1,1.992663860321045,None,,,,,,,,,,,,,,,,,,149,2,2025-02-27_14h51.38.783,comp,2024.2.4,None,2025-02-27 14h51.50.372129 -0500,
28,28,0,filler_random,None,None,None,None,None,None,None,None,None,None,1,1.5790412425994873,None,,,,,0,0,0,0,0,28,28,167,181.80483412742615,,,,,,,,,,,,,,,,,,,,,,,,,,,,,,,,,,,,,,,,,,,,,,,,,,,,,,,,,,,,,,,,,,,,,,,,,,,,,,,,,177.5043166337636,179.38302286487277,133.8867950960796,143.9746138753457,74.38980111661321,60.3317699616553,3.0,3.2,-258,-270,0,12,198,257,181.78406047821045,181.78419017791748,181.78797554969788,181.80483412742615,181.94698405265808,181.94698405265808,181.94698405265808,181.94698405265808,181.94698405265808,181.94698405265808,181.94698405265808,183.39861059188843,1,1.5790412425994873,None,,,,,,,,,,,,,,,,,,149,2,2025-02-27_14h51.38.783,comp,2024.2.4,None,2025-02-27 14h51.50.372129 -0500,
29,29,0,filler_square,None,None,None,None,None,None,None,None,None,None,3,2.4417872428894043,None,,,,,0,0,0,0,0,29,29,203,183.4150857925415,,,,,,,,,,,,,,,,,,,,,,,,,,,,,,,,,,,,,,,,,,,,,,,,,,,,,,,,,,,,,,,,,,,,,,,,,,,,,,,,,60.27502538176514,64.44271924713095,64.39275629214997,60.94624161760332,69.9710129120115,69.9710129120115,2.2,2.22,-159,252,0,-286,161,-279,183.4006917476654,183.40076875686646,183.40453124046326,183.4150857925415,183.57184314727783,183.57184314727783,183.57184314727783,183.57184314727783,183.57184314727783,183.57184314727783,183.57184314727783,185.86764216423035,3,2.4417872428894043,None,,,,,,,,,,,,,,,,,,149,2,2025-02-27_14h51.38.783,comp,2024.2.4,None,2025-02-27 14h51.50.372129 -0500,
30,30,0,filler_square,None,None,None,None,None,None,None,None,None,None,3,2.0361030101776123,None,,,,,0,0,0,0,0,30,30,199,185.88393712043762,,,,,,,,,,,,,,,,,,,,,,,,,,,,,,,,,,,,,,,,,,,,,,,,,,,,,,,,,,,,,,,,,,,,,,,,,,,,,,,,,142.20784854189824,150.16284061356097,154.1585915443854,110.34311115556014,170.73639320264795,170.73639320264795,4.0,4.1,-226,-262,0,14,237,-279,185.8696892261505,185.86977314949036,185.87323665618896,185.88393712043762,186.03323531150818,186.03323531150818,186.03323531150818,186.03323531150818,186.03323531150818,186.03323531150818,186.03323531150818,187.92198038101196,3,2.0361030101776123,None,,,,,,,,,,,,,,,,,,149,2,2025-02-27_14h51.38.783,comp,2024.2.4,None,2025-02-27 14h51.50.372129 -0500,
31,31,0,critical,wdh,35.0,2.1,lower,57.0,133.0,70.0,70.0,133.0,57.0,3,5.664781332015991,None,,,,,0,0,0,0,0,31,31,8,187.9358570575714,,,,,,,,,,,,,,,,,,,,,,,,,,,,,,,,,,,,,,,,,,,,,,,,,,,,,,,,,,,,,,,,,,,,,,,,,,,,,,,,,57.0,133.0,70.0,70.0,133.0,57.0,2.1,2.12,-198,-253,0,-287,160,277,187.9225697517395,187.9225971698761,187.923677444458,187.9358570575714,188.08188104629517,188.08188104629517,188.08188104629517,188.08188104629517,188.08188104629517,188.08188104629517,188.08188104629517,193.60504865646362,3,5.664781332015991,None,,,,,,,,,,,,,,,,,,149,2,2025-02-27_14h51.38.783,comp,2024.2.4,None,2025-02-27 14h51.50.372129 -0500,
32,32,0,filler_square,None,None,None,None,None,None,None,None,None,None,1,1.6743192672729492,None,,,,,0,0,0,0,0,32,32,178,193.62194538116455,,,,,,,,,,,,,,,,,,,,,,,,,,,,,,,,,,,,,,,,,,,,,,,,,,,,,,,,,,,,,,,,,,,,,,,,,,,,,,,,,175.66349683544018,175.66349683544018,148.20411621499548,57.36917362278532,121.79879342144473,96.66544912658549,1.0,1.1,-693,289,-480,264,-307,287,193.60723400115967,193.60736227035522,193.61129474639893,193.62194538116455,193.7682821750641,193.7682821750641,193.7682821750641,193.7682821750641,193.7682821750641,193.7682821750641,193.7682821750641,195.30324125289917,1,1.6743192672729492,None,,,,,,,,,,,,,,,,,,149,2,2025-02-27_14h51.38.783,comp,2024.2.4,None,2025-02-27 14h51.50.372129 -0500,
33,33,0,critical,hdw,35.0,4.0,lower,133.0,57.0,70.0,70.0,57.0,133.0,1,4.745471477508545,None,,,,,0,0,0,0,0,33,33,112,195.31924176216125,,,,,,,,,,,,,,,,,,,,,,,,,,,,,,,,,,,,,,,,,,,,,,,,,,,,,,,,,,,,,,,,,,,,,,,,,,,,,,,,,133.0,57.0,70.0,70.0,57.0,133.0,4.0,4.2,-160,16,0,-273,198,18,195.30491375923157,195.30499386787415,195.3086428642273,195.31924176216125,195.4698667526245,195.4698667526245,195.4698667526245,195.4698667526245,195.4698667526245,195.4698667526245,195.4698667526245,200.06938242912292,1,4.745471477508545,None,,,,,,,,,,,,,,,,,,149,2,2025-02-27_14h51.38.783,comp,2024.2.4,None,2025-02-27 14h51.50.372129 -0500,
34,34,0,filler_square,None,None,None,None,None,None,None,None,None,None,1,2.705812454223633,None,,,,,0,0,0,0,0,34,34,177,200.08603978157043,,,,,,,,,,,,,,,,,,,,,,,,,,,,,,,,,,,,,,,,,,,,,,,,,,,,,,,,,,,,,,,,,,,,,,,,,,,,,,,,,76.74306773973922,76.74306773973922,65.39483568585194,57.52650413175212,71.75662753060658,57.31293232690052,4.0,4.1,-163,-263,0,8,153,-288,200.07121920585632,200.07130074501038,200.07466387748718,200.08603978157043,200.2362997531891,200.2362997531891,200.2362997531891,200.2362997531891,200.2362997531891,200.2362997531891,200.2362997531891,202.804438829422,1,2.705812454223633,None,,,,,,,,,,,,,,,,,,149,2,2025-02-27_14h51.38.783,comp,2024.2.4,None,2025-02-27 14h51.50.372129 -0500,
35,35,0,catch,None,None,None,None,None,None,None,None,None,None,1,1.1311259269714355,None,,,,,0,0,0,0,0,35,35,122,202.82155442237854,,,,,,,,,,,,,,,,,,,,,,,,,,,,,,,,,,,,,,,,,,,,,,,,,,,,,,,,,,,,,,,,,,,,,,,,,,,,,,,,,157,168,65,125,58,132,1.0,1.2,-242,-15,0,-6,224,-18,202.8065276145935,202.8066074848175,202.8103585243225,202.82155442237854,202.97745490074158,202.97745490074158,202.97745490074158,202.97745490074158,202.97745490074158,202.97745490074158,202.97745490074158,203.95658135414124,1,1.1311259269714355,None,,,,,,,,,,,,,,,,,,149,2,2025-02-27_14h51.38.783,comp,2024.2.4,None,2025-02-27 14h51.50.372129 -0500,
36,36,0,filler_square,None,None,None,None,None,None,None,None,None,None,2,3.4111297130584717,None,,,,,0,0,0,0,0,36,36,202,203.97326159477234,,,,,,,,,,,,,,,,,,,,,,,,,,,,,,,,,,,,,,,,,,,,,,,,,,,,,,,,,,,,,,,,,,,,,,,,,,,,,,,,,144.4626305163275,144.37274508156247,159.79215883235827,159.79215883235827,118.22905533048528,139.44217425142347,4.0,4.1,-248,-254,0,-5,246,-287,203.95859265327454,203.95867490768433,203.96218752861023,203.97326159477234,204.12331676483154,204.12331676483154,204.12331676483154,204.12331676483154,204.12331676483154,204.12331676483154,204.12331676483154,207.3902726173401,2,3.4111297130584717,None,,,,,,,,,,,,,,,,,,149,2,2025-02-27_14h51.38.783,comp,2024.2.4,None,2025-02-27 14h51.50.372129 -0500,
37,37,0,catch,None,None,None,None,None,None,None,None,None,None,1,1.056854009628296,None,,,,,0,0,0,0,0,37,37,124,207.40833163261414,,,,,,,,,,,,,,,,,,,,,,,,,,,,,,,,,,,,,,,,,,,,,,,,,,,,,,,,,,,,,,,,,,,,,,,,,,,,,,,,,154,171,95,95,83,107,2.2,2.22,-229,279,0,-256,197,-276,207.39245772361755,207.39253544807434,207.3961911201477,207.40833163261414,207.55209636688232,207.55209636688232,207.55209636688232,207.55209636688232,207.55209636688232,207.55209636688232,207.55209636688232,208.472074508667,1,1.056854009628296,None,,,,,,,,,,,,,,,,,,149,2,2025-02-27_14h51.38.783,comp,2024.2.4,None,2025-02-27 14h51.50.372129 -0500,
38,38,0,filler_random,None,None,None,None,None,None,None,None,None,None,2,1.383960247039795,None,,,,,0,0,0,0,0,38,38,143,208.4887843132019,,,,,,,,,,,,,,,,,,,,,,,,,,,,,,,,,,,,,,,,,,,,,,,,,,,,,,,,,,,,,,,,,,,,,,,,,,,,,,,,,116.18813957739242,143.34539514379705,149.37451225445454,177.35921952893509,76.78132067918158,147.8380582479629,4.0,4.2,-256,0,0,-274,259,19,208.4738404750824,208.47392058372498,208.47718811035156,208.4887843132019,208.62893795967102,208.62893795967102,208.62893795967102,208.62893795967102,208.62893795967102,208.62893795967102,208.62893795967102,209.87849068641663,2,1.383960247039795,None,,,,,,,,,,,,,,,,,,149,2,2025-02-27_14h51.38.783,comp,2024.2.4,None,2025-02-27 14h51.50.372129 -0500,
39,39,0,critical,dhw,20.0,4.0,lower,78.0,78.0,133.0,57.0,57.0,133.0,2,3.193093776702881,None,,,,,0,0,0,0,0,39,39,58,209.8948359489441,,,,,,,,,,,,,,,,,,,,,,,,,,,,,,,,,,,,,,,,,,,,,,,,,,,,,,,,,,,,,,,,,,,,,,,,,,,,,,,,,78.0,78.0,133.0,57.0,57.0,133.0,4.0,4.1,-164,-257,0,-12,191,-289,209.88008642196655,209.88016748428345,209.88332152366638,209.8948359489441,210.03850483894348,210.03850483894348,210.03850483894348,210.03850483894348,210.03850483894348,210.03850483894348,210.03850483894348,213.10148215293884,2,3.193093776702881,None,,,,,,,,,,,,,,,,,,149,2,2025-02-27_14h51.38.783,comp,2024.2.4,None,2025-02-27 14h51.50.372129 -0500,
40,40,0,critical,wdh,20.0,4.0,upper,125.0,200.0,141.0,141.0,200.0,125.0,3,2.1394190788269043,None,,,,,0,0,0,0,0,40,40,83,213.11671566963196,,,,,,,,,,,,,,,,,,,,,,,,,,,,,,,,,,,,,,,,,,,,,,,,,,,,,,,,,,,,,,,,,,,,,,,,,,,,,,,,,125.0,200.0,141.0,141.0,200.0,125.0,4.0,4.1,-266,-259,0,9,229,-289,213.1030547618866,213.10313439369202,213.10628294944763,213.11671566963196,213.2656409740448,213.2656409740448,213.2656409740448,213.2656409740448,213.2656409740448,213.2656409740448,213.2656409740448,215.25919771194458,3,2.1394190788269043,None,,,,,,,,,,,,,,,,,,149,2,2025-02-27_14h51.38.783,comp,2024.2.4,None,2025-02-27 14h51.50.372129 -0500,
41,41,0,filler_random,None,None,None,None,None,None,None,None,None,None,1,1.0572404861450195,None,,,,,0,0,0,0,0,41,41,160,215.27909111976624,,,,,,,,,,,,,,,,,,,,,,,,,,,,,,,,,,,,,,,,,,,,,,,,,,,,,,,,,,,,,,,,,,,,,,,,,,,,,,,,,196.60473970880014,157.30026235123992,91.68381612491791,153.7494624679316,75.10031907032428,119.03498025486493,2.2,2.22,-252,278,0,-267,232,-287,215.2610650062561,215.26119995117188,215.26466012001038,215.27909111976624,215.43132376670837,215.43132376670837,215.43132376670837,215.43132376670837,215.43132376670837,215.43132376670837,215.43132376670837,216.34429669380188,1,1.0572404861450195,None,,,,,,,,,,,,,,,,,,149,2,2025-02-27_14h51.38.783,comp,2024.2.4,None,2025-02-27 14h51.50.372129 -0500,
42,42,0,filler_random,None,None,None,None,None,None,None,None,None,None,3,8.759761333465576,None,,,,,0,0,0,0,0,42,42,146,216.36103296279907,,,,,,,,,,,,,,,,,,,,,,,,,,,,,,,,,,,,,,,,,,,,,,,,,,,,,,,,,,,,,,,,,,,,,,,,,,,,,,,,,184.3862181961351,83.61988889778543,72.30837566295018,155.50285464869705,138.46890016727366,108.63422834647696,4.0,4.1,-216,-270,0,-15,228,-258,216.346182346344,216.34628176689148,216.35019612312317,216.36103296279907,216.50926232337952,216.50926232337952,216.50926232337952,216.50926232337952,216.50926232337952,216.50926232337952,216.50926232337952,225.12591814994812,3,8.759761333465576,None,,,,,,,,,,,,,,,,,,149,2,2025-02-27_14h51.38.783,comp,2024.2.4,None,2025-02-27 14h51.50.372129 -0500,
43,43,0,filler_random,None,None,None,None,None,None,None,None,None,None,2,1.0809485912322998,None,,,,,0,0,0,0,0,43,43,156,225.14299726486206,,,,,,,,,,,,,,,,,,,,,,,,,,,,,,,,,,,,,,,,,,,,,,,,,,,,,,,,,,,,,,,,,,,,,,,,,,,,,,,,,130.45384189089378,113.51807275880361,122.83397555411581,181.38728661025607,145.32705142779037,76.96740493025395,2.1,2.12,-243,-278,0,-257,225,260,225.12757992744446,225.12765908241272,225.13072323799133,225.14299726486206,225.27807927131653,225.27807927131653,225.27807927131653,225.27807927131653,225.27807927131653,225.27807927131653,225.27807927131653,226.23773288726807,2,1.0809485912322998,None,,,,,,,,,,,,,,,,,,149,2,2025-02-27_14h51.38.783,comp,2024.2.4,None,2025-02-27 14h51.50.372129 -0500,
44,44,0,critical,whd,35.0,2.1,upper,125.0,200.0,200.0,125.0,127.0,127.0,2,3.0671474933624268,None,,,,,0,0,0,0,0,44,44,13,226.2528212070465,,,,,,,,,,,,,,,,,,,,,,,,,,,,,,,,,,,,,,,,,,,,,,,,,,,,,,,,,,,,,,,,,,,,,,,,,,,,,,,,,125.0,200.0,200.0,125.0,127.0,127.0,2.1,2.11,-258,289,0,274,222,-251,226.23927450180054,226.23935317993164,226.24247121810913,226.2528212070465,226.39832973480225,226.39832973480225,226.39832973480225,226.39832973480225,226.39832973480225,226.39832973480225,226.39832973480225,229.3391900062561,2,3.0671474933624268,None,,,,,,,,,,,,,,,,,,149,2,2025-02-27_14h51.38.783,comp,2024.2.4,None,2025-02-27 14h51.50.372129 -0500,
45,45,0,critical,hdw,20.0,3.0,lower,133.0,57.0,78.0,78.0,57.0,133.0,1,1.7615396976470947,None,,,,,0,0,0,0,0,45,45,116,229.35866594314575,,,,,,,,,,,,,,,,,,,,,,,,,,,,,,,,,,,,,,,,,,,,,,,,,,,,,,,,,,,,,,,,,,,,,,,,,,,,,,,,,133.0,57.0,78.0,78.0,57.0,133.0,3.0,3.2,-164,-280,0,-2,202,255,229.34023928642273,229.3403148651123,229.3434407711029,229.35866594314575,229.49530339241028,229.49530339241028,229.49530339241028,229.49530339241028,229.49530339241028,229.49530339241028,229.49530339241028,231.1294403076172,1,1.7615396976470947,None,,,,,,,,,,,,,,,,,,149,2,2025-02-27_14h51.38.783,comp,2024.2.4,None,2025-02-27 14h51.50.372129 -0500,
46,46,0,critical,hdw,35.0,2.1,lower,133.0,57.0,70.0,70.0,57.0,133.0,1,3.883638381958008,None,,,,,0,0,0,0,0,46,46,20,231.14872670173645,,,,,,,,,,,,,,,,,,,,,,,,,,,,,,,,,,,,,,,,,,,,,,,,,,,,,,,,,,,,,,,,,,,,,,,,,,,,,,,,,133.0,57.0,70.0,70.0,57.0,133.0,2.1,2.11,-160,284,0,262,198,-275,231.13101482391357,231.13109302520752,231.13445901870728,231.14872670173645,231.29719066619873,231.29719066619873,231.29719066619873,231.29719066619873,231.29719066619873,231.29719066619873,231.29719066619873,235.0396444797516,1,3.883638381958008,None,,,,,,,,,,,,,,,,,,149,2,2025-02-27_14h51.38.783,comp,2024.2.4,None,2025-02-27 14h51.50.372129 -0500,
47,47,0,critical,hdw,35.0,1.0,lower,133.0,57.0,70.0,70.0,57.0,133.0,3,2.5575056076049805,None,,,,,0,0,0,0,0,47,47,108,235.0591390132904,,,,,,,,,,,,,,,,,,,,,,,,,,,,,,,,,,,,,,,,,,,,,,,,,,,,,,,,,,,,,,,,,,,,,,,,,,,,,,,,,133.0,57.0,70.0,70.0,57.0,133.0,1.0,1.2,-160,9,0,5,198,4,235.04130172729492,235.0413978099823,235.04490637779236,235.0591390132904,235.1977288722992,235.1977288722992,235.1977288722992,235.1977288722992,235.1977288722992,235.1977288722992,235.1977288722992,237.6195466518402,3,2.5575056076049805,None,,,,,,,,,,,,,,,,,,149,2,2025-02-27_14h51.38.783,comp,2024.2.4,None,2025-02-27 14h51.50.372129 -0500,
48,48,0,filler_random,None,None,None,None,None,None,None,None,None,None,2,1.2917888164520264,None,,,,,0,0,0,0,0,48,48,130,237.63718128204346,,,,,,,,,,,,,,,,,,,,,,,,,,,,,,,,,,,,,,,,,,,,,,,,,,,,,,,,,,,,,,,,,,,,,,,,,,,,,,,,,113.06075337903906,109.07909347825536,187.67666762147084,173.56650853078708,123.92830164848549,76.71965439849345,2.2,2.22,-237,289,0,-261,221,-289,237.62161779403687,237.62172079086304,237.6255006790161,237.63718128204346,237.78650832176208,237.78650832176208,237.78650832176208,237.78650832176208,237.78650832176208,237.78650832176208,237.78650832176208,238.9320559501648,2,1.2917888164520264,None,,,,,,,,,,,,,,,,,,149,2,2025-02-27_14h51.38.783,comp,2024.2.4,None,2025-02-27 14h51.50.372129 -0500,
49,49,0,filler_square,None,None,None,None,None,None,None,None,None,None,2,1.446302890777588,None,,,,,0,0,0,0,0,49,49,184,238.9456729888916,,,,,,,,,,,,,,,,,,,,,,,,,,,,,,,,,,,,,,,,,,,,,,,,,,,,,,,,,,,,,,,,,,,,,,,,,,,,,,,,,76.30555524602084,68.28925479294945,92.4098068871055,92.4098068871055,81.21735800904582,67.78634691604375,4.0,4.2,-176,-1,0,-269,176,-14,238.933429479599,238.93348622322083,238.93508672714233,238.9456729888916,239.1012601852417,239.1012601852417,239.1012601852417,239.1012601852417,239.1012601852417,239.1012601852417,239.1012601852417,240.40570950508118,2,1.446302890777588,None,,,,,,,,,,,,,,,,,,149,2,2025-02-27_14h51.38.783,comp,2024.2.4,None,2025-02-27 14h51.50.372129 -0500,
50,50,0,critical,wdh,35.0,4.0,upper,125.0,200.0,127.0,127.0,200.0,125.0,3,1.94655442237854,None,,,,,0,0,0,0,0,50,50,77,240.42166781425476,,,,,,,,,,,,,,,,,,,,,,,,,,,,,,,,,,,,,,,,,,,,,,,,,,,,,,,,,,,,,,,,,,,,,,,,,,,,,,,,,125.0,200.0,127.0,127.0,200.0,125.0,4.0,4.2,-260,-9,0,-272,222,-3,240.40726566314697,240.40734267234802,240.4104790687561,240.42166781425476,240.56500673294067,240.56500673294067,240.56500673294067,240.56500673294067,240.56500673294067,240.56500673294067,240.56500673294067,242.38489294052124,3,1.94655442237854,None,,,,,,,,,,,,,,,,,,149,2,2025-02-27_14h51.38.783,comp,2024.2.4,None,2025-02-27 14h51.50.372129 -0500,
51,51,0,critical,hwd,35.0,2.1,lower,133.0,57.0,57.0,133.0,70.0,70.0,1,1.361854076385498,None,,,,,0,0,0,0,0,51,51,40,242.4001820087433,,,,,,,,,,,,,,,,,,,,,,,,,,,,,,,,,,,,,,,,,,,,,,,,,,,,,,,,,,,,,,,,,,,,,,,,,,,,,,,,,133.0,57.0,57.0,133.0,70.0,70.0,2.1,2.11,-191,279,0,266,198,-255,242.3865098953247,242.3865897655487,242.38994479179382,242.4001820087433,242.55282950401306,242.55282950401306,242.55282950401306,242.55282950401306,242.55282950401306,242.55282950401306,242.55282950401306,243.7734251022339,1,1.361854076385498,None,,,,,,,,,,,,,,,,,,149,2,2025-02-27_14h51.38.783,comp,2024.2.4,None,2025-02-27 14h51.50.372129 -0500,
52,52,0,filler_square,None,None,None,None,None,None,None,None,None,None,1,1.4040303230285645,None,,,,,0,0,0,0,0,52,52,171,243.79051041603088,,,,,,,,,,,,,,,,,,,,,,,,,,,,,,,,,,,,,,,,,,,,,,,,,,,,,,,,,,,,,,,,,,,,,,,,,,,,,,,,,191.21155695418796,191.21155695418796,73.64353704301584,151.46628519880613,158.73593582864868,132.2711555071863,2.2,2.21,-267,-282,0,268,238,252,243.7757124900818,243.77581357955933,243.77898001670837,243.79051041603088,243.9334101676941,243.9334101676941,243.9334101676941,243.9334101676941,243.9334101676941,243.9334101676941,243.9334101676941,245.20052218437195,1,1.4040303230285645,None,,,,,,,,,,,,,,,,,,149,2,2025-02-27_14h51.38.783,comp,2024.2.4,None,2025-02-27 14h51.50.372129 -0500,
53,53,0,filler_square,None,None,None,None,None,None,None,None,None,None,1,6.7629570960998535,None,,,,,0,0,0,0,0,53,53,197,245.22127294540405,,,,,,,,,,,,,,,,,,,,,,,,,,,,,,,,,,,,,,,,,,,,,,,,,,,,,,,,,,,,,,,,,,,,,,,,,,,,,,,,,63.488450912455974,63.488450912455974,61.41243428542421,57.03169613981298,58.65301557855069,61.48183743506631,2.2,2.21,-156,-280,0,255,155,267,245.2025179862976,245.2025978565216,245.2061026096344,245.22127294540405,245.36826872825623,245.36826872825623,245.36826872825623,245.36826872825623,245.36826872825623,245.36826872825623,245.36826872825623,251.98726201057434,1,6.7629570960998535,None,,,,,,,,,,,,,,,,,,149,2,2025-02-27_14h51.38.783,comp,2024.2.4,None,2025-02-27 14h51.50.372129 -0500,
54,54,0,critical,dwh,20.0,3.0,lower,78.0,78.0,57.0,133.0,133.0,57.0,3,3.0918543338775635,None,,,,,0,0,0,0,0,54,54,68,252.0041947364807,,,,,,,,,,,,,,,,,,,,,,,,,,,,,,,,,,,,,,,,,,,,,,,,,,,,,,,,,,,,,,,,,,,,,,,,,,,,,,,,,78.0,78.0,57.0,133.0,133.0,57.0,3.0,3.2,-202,-274,0,-9,191,262,251.98889565467834,251.98899483680725,251.99339628219604,252.0041947364807,252.15275049209595,252.15275049209595,252.15275049209595,252.15275049209595,252.15275049209595,252.15275049209595,252.15275049209595,255.11644911766052,3,3.0918543338775635,None,,,,,,,,,,,,,,,,,,149,2,2025-02-27_14h51.38.783,comp,2024.2.4,None,2025-02-27 14h51.50.372129 -0500,
55,55,0,critical,dwh,35.0,1.0,lower,70.0,70.0,57.0,133.0,133.0,57.0,3,2.577002763748169,None,,,,,0,0,0,0,0,55,55,60,255.13501524925232,,,,,,,,,,,,,,,,,,,,,,,,,,,,,,,,,,,,,,,,,,,,,,,,,,,,,,,,,,,,,,,,,,,,,,,,,,,,,,,,,70.0,70.0,57.0,133.0,133.0,57.0,1.0,1.1,-678,279,-480,252,-289,275,255.1181182861328,255.11819624900818,255.1214120388031,255.13501524925232,255.27195167541504,255.27195167541504,255.27195167541504,255.27195167541504,255.27195167541504,255.27195167541504,255.27195167541504,257.7268977165222,3,2.577002763748169,None,,,,,,,,,,,,,,,,,,149,2,2025-02-27_14h51.38.783,comp,2024.2.4,None,2025-02-27 14h51.50.372129 -0500,
56,56,0,critical,dhw,35.0,1.0,upper,127.0,127.0,200.0,125.0,125.0,200.0,3,4.465046167373657,None,,,,,0,0,0,0,0,56,56,49,257.7429687976837,,,,,,,,,,,,,,,,,,,,,,,,,,,,,,,,,,,,,,,,,,,,,,,,,,,,,,,,,,,,,,,,,,,,,,,,,,,,,,,,,127.0,127.0,200.0,125.0,125.0,200.0,1.0,1.2,-222,-19,0,-20,258,9,257.72841596603394,257.7284963130951,257.73174810409546,257.7429687976837,257.88930082321167,257.88930082321167,257.88930082321167,257.88930082321167,257.88930082321167,257.88930082321167,257.88930082321167,262.2189121246338,3,4.465046167373657,None,,,,,,,,,,,,,,,,,,149,2,2025-02-27_14h51.38.783,comp,2024.2.4,None,2025-02-27 14h51.50.372129 -0500,
57,57,0,critical,dhw,35.0,3.0,upper,127.0,127.0,200.0,125.0,125.0,200.0,3,1.4457581043243408,None,,,,,0,0,0,0,0,57,57,51,262.2351026535034,,,,,,,,,,,,,,,,,,,,,,,,,,,,,,,,,,,,,,,,,,,,,,,,,,,,,,,,,,,,,,,,,,,,,,,,,,,,,,,,,127.0,127.0,200.0,125.0,125.0,200.0,3.0,3.2,-222,-269,0,13,258,274,262.2205092906952,262.22059082984924,262.2237341403961,262.2351026535034,262.37456154823303,262.37456154823303,262.37456154823303,262.37456154823303,262.37456154823303,262.37456154823303,262.37456154823303,263.6909053325653,3,1.4457581043243408,None,,,,,,,,,,,,,,,,,,149,2,2025-02-27_14h51.38.783,comp,2024.2.4,None,2025-02-27 14h51.50.372129 -0500,
58,58,0,filler_random,None,None,None,None,None,None,None,None,None,None,3,1.0367934703826904,None,,,,,0,0,0,0,0,58,58,135,263.7072603702545,,,,,,,,,,,,,,,,,,,,,,,,,,,,,,,,,,,,,,,,,,,,,,,,,,,,,,,,,,,,,,,,,,,,,,,,,,,,,,,,,135.25984366874602,64.78729908393379,71.35062340182964,97.90045399777667,133.31395147013984,190.8723654518873,4.0,4.1,-177,-255,0,11,240,-270,263.69273710250854,263.6928451061249,263.69651651382446,263.7072603702545,263.8558859825134,263.8558859825134,263.8558859825134,263.8558859825134,263.8558859825134,263.8558859825134,263.8558859825134,264.75674629211426,3,1.0367934703826904,None,,,,,,,,,,,,,,,,,,149,2,2025-02-27_14h51.38.783,comp,2024.2.4,None,2025-02-27 14h51.50.372129 -0500,
59,59,0,critical,wdh,20.0,2.1,upper,125.0,200.0,141.0,141.0,200.0,125.0,1,3.064814329147339,None,,,,,0,0,0,0,0,59,59,11,264.77557945251465,,,,,,,,,,,,,,,,,,,,,,,,,,,,,,,,,,,,,,,,,,,,,,,,,,,,,,,,,,,,,,,,,,,,,,,,,,,,,,,,,125.0,200.0,141.0,141.0,200.0,125.0,2.1,2.12,-266,-265,0,-268,229,280,264.7583384513855,264.75841522216797,264.76173734664917,264.77557945251465,264.92467975616455,264.92467975616455,264.92467975616455,264.92467975616455,264.92467975616455,264.92467975616455,264.92467975616455,267.8427309989929,1,3.064814329147339,None,,,,,,,,,,,,,,,,,,149,2,2025-02-27_14h51.38.783,comp,2024.2.4,None,2025-02-27 14h51.50.372129 -0500,
60,60,0,filler_random,None,None,None,None,None,None,None,None,None,None,3,1.7151975631713867,None,,,,,0,0,0,0,0,60,60,169,267.8608753681183,,,,,,,,,,,,,,,,,,,,,,,,,,,,,,,,,,,,,,,,,,,,,,,,,,,,,,,,,,,,,,,,,,,,,,,,,,,,,,,,,104.27474540607508,72.45785364480446,82.28470608003857,191.3718109215078,175.7769042479517,71.8490978876207,1.0,1.1,-708,253,-480,269,-252,289,267.8444929122925,267.8445723056793,267.847820520401,267.8608753681183,268.0088906288147,268.0088906288147,268.0088906288147,268.0088906288147,268.0088906288147,268.0088906288147,268.0088906288147,269.59153509140015,3,1.7151975631713867,None,,,,,,,,,,,,,,,,,,149,2,2025-02-27_14h51.38.783,comp,2024.2.4,None,2025-02-27 14h51.50.372129 -0500,
61,61,0,critical,dwh,35.0,2.1,upper,127.0,127.0,125.0,200.0,200.0,125.0,3,2.791611909866333,None,,,,,0,0,0,0,0,61,61,5,269.608154296875,,,,,,,,,,,,,,,,,,,,,,,,,,,,,,,,,,,,,,,,,,,,,,,,,,,,,,,,,,,,,,,,,,,,,,,,,,,,,,,,,127.0,127.0,125.0,200.0,200.0,125.0,2.1,2.11,-260,254,0,279,258,-268,269.5931980609894,269.59327507019043,269.59682416915894,269.608154296875,269.7668790817261,269.7668790817261,269.7668790817261,269.7668790817261,269.7668790817261,269.7668790817261,269.7668790817261,272.4146189689636,3,2.791611909866333,None,,,,,,,,,,,,,,,,,,149,2,2025-02-27_14h51.38.783,comp,2024.2.4,None,2025-02-27 14h51.50.372129 -0500,
62,62,0,filler_square,None,None,None,None,None,None,None,None,None,None,2,1.2592363357543945,None,,,,,0,0,0,0,0,62,62,205,272.42931723594666,,,,,,,,,,,,,,,,,,,,,,,,,,,,,,,,,,,,,,,,,,,,,,,,,,,,,,,,,,,,,,,,,,,,,,,,,,,,,,,,,152.0281157856461,180.15647830834735,192.7110393615435,192.7110393615435,113.30899363165528,73.63448334928721,4.0,4.2,-282,13,0,-252,229,10,272.41584372520447,272.4159200191498,272.4190158843994,272.42931723594666,272.57699394226074,272.57699394226074,272.57699394226074,272.57699394226074,272.57699394226074,272.57699394226074,272.57699394226074,273.6920278072357,2,1.2592363357543945,None,,,,,,,,,,,,,,,,,,149,2,2025-02-27_14h51.38.783,comp,2024.2.4,None,2025-02-27 14h51.50.372129 -0500,
63,63,0,critical,hdw,20.0,1.0,upper,200.0,125.0,141.0,141.0,125.0,200.0,1,3.699331045150757,None,,,,,0,0,0,0,0,63,63,115,273.70907282829285,,,,,,,,,,,,,,,,,,,,,,,,,,,,,,,,,,,,,,,,,,,,,,,,,,,,,,,,,,,,,,,,,,,,,,,,,,,,,,,,,200.0,125.0,141.0,141.0,125.0,200.0,1.0,1.3,251,-253,480,-278,746,-256,273.69365215301514,273.69374656677246,273.69723176956177,273.70907282829285,273.8469753265381,273.8469753265381,273.8469753265381,273.8469753265381,273.8469753265381,273.8469753265381,273.8469753265381,277.41329288482666,1,3.699331045150757,None,,,,,,,,,,,,,,,,,,149,2,2025-02-27_14h51.38.783,comp,2024.2.4,None,2025-02-27 14h51.50.372129 -0500,
64,64,0,critical,dwh,35.0,3.0,lower,70.0,70.0,57.0,133.0,133.0,57.0,3,3.582129716873169,None,,,,,0,0,0,0,0,64,64,62,277.43402004241943,,,,,,,,,,,,,,,,,,,,,,,,,,,,,,,,,,,,,,,,,,,,,,,,,,,,,,,,,,,,,,,,,,,,,,,,,,,,,,,,,70.0,70.0,57.0,133.0,133.0,57.0,3.0,3.2,-198,-260,0,0,191,257,277.41493368148804,277.41501355171204,277.41831731796265,277.43402004241943,277.5650725364685,277.5650725364685,277.5650725364685,277.5650725364685,277.5650725364685,277.5650725364685,277.5650725364685,281.03240990638733,3,3.582129716873169,None,,,,,,,,,,,,,,,,,,149,2,2025-02-27_14h51.38.783,comp,2024.2.4,None,2025-02-27 14h51.50.372129 -0500,
65,65,0,filler_random,None,None,None,None,None,None,None,None,None,None,3,3.2287838459014893,None,,,,,0,0,0,0,0,65,65,158,281.0515193939209,,,,,,,,,,,,,,,,,,,,,,,,,,,,,,,,,,,,,,,,,,,,,,,,,,,,,,,,,,,,,,,,,,,,,,,,,,,,,,,,,79.42978807012435,108.16326654927028,115.77604499304576,155.14500524047494,153.42221339400794,120.46345948788482,1.0,1.2,-228,3,0,-18,234,-16,281.03443908691406,281.03453636169434,281.03828620910645,281.0515193939209,281.20171451568604,281.20171451568604,281.20171451568604,281.20171451568604,281.20171451568604,281.20171451568604,281.20171451568604,284.284708738327,3,3.2287838459014893,None,,,,,,,,,,,,,,,,,,149,2,2025-02-27_14h51.38.783,comp,2024.2.4,None,2025-02-27 14h51.50.372129 -0500,
66,66,0,filler_square,None,None,None,None,None,None,None,None,None,None,3,0.9908552169799805,None,,,,,0,0,0,0,0,66,66,175,284.3052976131439,,,,,,,,,,,,,,,,,,,,,,,,,,,,,,,,,,,,,,,,,,,,,,,,,,,,,,,,,,,,,,,,,,,,,,,,,,,,,,,,,66.65940176581164,128.08945407991263,147.18197317119626,74.43530199772724,157.49884234172634,157.49884234172634,2.1,2.12,-197,-271,0,-264,212,261,284.2866451740265,284.2867240905762,284.2898693084717,284.3052976131439,284.44761991500854,284.44761991500854,284.44761991500854,284.44761991500854,284.44761991500854,284.44761991500854,284.44761991500854,285.2986454963684,3,0.9908552169799805,None,,,,,,,,,,,,,,,,,,149,2,2025-02-27_14h51.38.783,comp,2024.2.4,None,2025-02-27 14h51.50.372129 -0500,
67,67,0,critical,dhw,20.0,2.1,lower,78.0,78.0,133.0,57.0,57.0,133.0,3,2.4410953521728516,None,,,,,0,0,0,0,0,67,67,26,285.3191363811493,,,,,,,,,,,,,,,,,,,,,,,,,,,,,,,,,,,,,,,,,,,,,,,,,,,,,,,,,,,,,,,,,,,,,,,,,,,,,,,,,78.0,78.0,133.0,57.0,57.0,133.0,2.1,2.12,-164,-251,0,-286,191,261,285.3001790046692,285.3002953529358,285.30349135398865,285.3191363811493,285.4627842903137,285.4627842903137,285.4627842903137,285.4627842903137,285.4627842903137,285.4627842903137,285.4627842903137,287.7649989128113,3,2.4410953521728516,None,,,,,,,,,,,,,,,,,,149,2,2025-02-27_14h51.38.783,comp,2024.2.4,None,2025-02-27 14h51.50.372129 -0500,
68,68,0,critical,hwd,35.0,2.1,upper,200.0,125.0,125.0,200.0,127.0,127.0,2,2.0593960285186768,None,,,,,0,0,0,0,0,68,68,17,287.7812407016754,,,,,,,,,,,,,,,,,,,,,,,,,,,,,,,,,,,,,,,,,,,,,,,,,,,,,,,,,,,,,,,,,,,,,,,,,,,,,,,,,200.0,125.0,125.0,200.0,127.0,127.0,2.1,2.11,-258,270,0,288,260,-275,287.7666292190552,287.7667281627655,287.77040219306946,287.7812407016754,287.9311304092407,287.9311304092407,287.9311304092407,287.9311304092407,287.9311304092407,287.9311304092407,287.9311304092407,289.8501214981079,2,2.0593960285186768,None,,,,,,,,,,,,,,,,,,149,2,2025-02-27_14h51.38.783,comp,2024.2.4,None,2025-02-27 14h51.50.372129 -0500,
69,69,0,filler_square,None,None,None,None,None,None,None,None,None,None,3,1.285909652709961,None,,,,,0,0,0,0,0,69,69,187,289.86610674858093,,,,,,,,,,,,,,,,,,,,,,,,,,,,,,,,,,,,,,,,,,,,,,,,,,,,,,,,,,,,,,,,,,,,,,,,,,,,,,,,,85.94999668266281,143.5463515387822,146.22109377922231,61.60053773970103,147.2057175567458,147.2057175567458,3.0,3.2,-199,-283,0,17,200,263,289.851934671402,289.85201144218445,289.8554046154022,289.86610674858093,290.0161349773407,290.0161349773407,290.0161349773407,290.0161349773407,290.0161349773407,290.0161349773407,290.0161349773407,291.1645884513855,3,1.285909652709961,None,,,,,,,,,,,,,,,,,,149,2,2025-02-27_14h51.38.783,comp,2024.2.4,None,2025-02-27 14h51.50.372129 -0500,
70,70,0,critical,dwh,20.0,4.0,upper,141.0,141.0,125.0,200.0,200.0,125.0,3,1.5960102081298828,None,,,,,0,0,0,0,0,70,70,71,291.1808145046234,,,,,,,,,,,,,,,,,,,,,,,,,,,,,,,,,,,,,,,,,,,,,,,,,,,,,,,,,,,,,,,,,,,,,,,,,,,,,,,,,141.0,141.0,125.0,200.0,200.0,125.0,4.0,4.2,-266,-3,0,-256,258,-7,291.16607427597046,291.1661515235901,291.16946816444397,291.1808145046234,291.33121514320374,291.33121514320374,291.33121514320374,291.33121514320374,291.33121514320374,291.33121514320374,291.33121514320374,292.7818982601166,3,1.5960102081298828,None,,,,,,,,,,,,,,,,,,149,2,2025-02-27_14h51.38.783,comp,2024.2.4,None,2025-02-27 14h51.50.372129 -0500,
71,71,0,critical,hwd,35.0,3.0,lower,133.0,57.0,57.0,133.0,70.0,70.0,1,2.778747081756592,None,,,,,0,0,0,0,0,71,71,98,292.79843187332153,,,,,,,,,,,,,,,,,,,,,,,,,,,,,,,,,,,,,,,,,,,,,,,,,,,,,,,,,,,,,,,,,,,,,,,,,,,,,,,,,133.0,57.0,57.0,133.0,70.0,70.0,3.0,3.2,-191,-265,0,19,198,264,292.7833676338196,292.7834436893463,292.78683614730835,292.79843187332153,292.9517283439636,292.9517283439636,292.9517283439636,292.9517283439636,292.9517283439636,292.9517283439636,292.9517283439636,295.58603954315186,1,2.778747081756592,None,,,,,,,,,,,,,,,,,,149,2,2025-02-27_14h51.38.783,comp,2024.2.4,None,2025-02-27 14h51.50.372129 -0500,
72,72,0,filler_random,None,None,None,None,None,None,None,None,None,None,1,2.253556489944458,None,,,,,0,0,0,0,0,72,72,163,295.60256147384644,,,,,,,,,,,,,,,,,,,,,,,,,,,,,,,,,,,,,,,,,,,,,,,,,,,,,,,,,,,,,,,,,,,,,,,,,,,,,,,,,169.1987053028418,175.66163743149838,127.02611961803731,174.8990339335741,147.02689915434135,155.99327062925323,1.0,1.3,209,-279,480,-287,741,-267,295.5880992412567,295.5881826877594,295.59163212776184,295.60256147384644,295.7542748451233,295.7542748451233,295.7542748451233,295.7542748451233,295.7542748451233,295.7542748451233,295.7542748451233,297.8692817687988,1,2.253556489944458,None,,,,,,,,,,,,,,,,,,149,2,2025-02-27_14h51.38.783,comp,2024.2.4,None,2025-02-27 14h51.50.372129 -0500,
73,73,0,critical,hdw,35.0,3.0,lower,133.0,57.0,70.0,70.0,57.0,133.0,3,1.906860113143921,None,,,,,0,0,0,0,0,73,73,110,297.8857283592224,,,,,,,,,,,,,,,,,,,,,,,,,,,,,,,,,,,,,,,,,,,,,,,,,,,,,,,,,,,,,,,,,,,,,,,,,,,,,,,,,133.0,57.0,70.0,70.0,57.0,133.0,3.0,3.2,-160,-258,0,5,198,281,297.87103033065796,297.871150970459,297.875040769577,297.8857283592224,298.0391960144043,298.0391960144043,298.0391960144043,298.0391960144043,298.0391960144043,298.0391960144043,298.0391960144043,299.80551958084106,3,1.906860113143921,None,,,,,,,,,,,,,,,,,,149,2,2025-02-27_14h51.38.783,comp,2024.2.4,None,2025-02-27 14h51.50.372129 -0500,
74,74,0,filler_random,None,None,None,None,None,None,None,None,None,None,1,1.4269077777862549,None,,,,,0,0,0,0,0,74,74,148,299.8219566345215,,,,,,,,,,,,,,,,,,,,,,,,,,,,,,,,,,,,,,,,,,,,,,,,,,,,,,,,,,,,,,,,,,,,,,,,,,,,,,,,,146.86393311608714,146.4793369092166,72.06906799654006,153.11650731886897,141.42970623259407,63.2741199965574,1.0,1.1,-726,259,-480,269,-276,273,299.80737018585205,299.8075022697449,299.8113327026367,299.8219566345215,299.9754548072815,299.9754548072815,299.9754548072815,299.9754548072815,299.9754548072815,299.9754548072815,299.9754548072815,301.25599002838135,1,1.4269077777862549,None,,,,,,,,,,,,,,,,,,149,2,2025-02-27_14h51.38.783,comp,2024.2.4,None,2025-02-27 14h51.50.372129 -0500,
75,75,0,filler_random,None,None,None,None,None,None,None,None,None,None,1,2.031451463699341,None,,,,,0,0,0,0,0,75,75,147,301.2726180553436,,,,,,,,,,,,,,,,,,,,,,,,,,,,,,,,,,,,,,,,,,,,,,,,,,,,,,,,,,,,,,,,,,,,,,,,,,,,,,,,,111.93555260652002,192.93484453971698,76.81419955312077,142.68433177707527,151.2943479212182,80.54432551069743,4.0,4.1,-264,-259,0,2,208,-281,301.2577295303345,301.2578430175781,301.2618625164032,301.2726180553436,301.41986083984375,301.41986083984375,301.41986083984375,301.41986083984375,301.41986083984375,301.41986083984375,301.41986083984375,303.3190724849701,1,2.031451463699341,None,,,,,,,,,,,,,,,,,,149,2,2025-02-27_14h51.38.783,comp,2024.2.4,None,2025-02-27 14h51.50.372129 -0500,
76,76,0,filler_random,None,None,None,None,None,None,None,None,None,None,2,2.6416351795196533,None,,,,,0,0,0,0,0,76,76,144,303.33539032936096,,,,,,,,,,,,,,,,,,,,,,,,,,,,,,,,,,,,,,,,,,,,,,,,,,,,,,,,,,,,,,,,,,,,,,,,,,,,,,,,,128.2394663508531,90.57064277671942,87.69542173653092,180.3258477723401,61.26987902752071,134.83316507940407,3.0,3.2,-231,-255,0,5,254,259,303.3207280635834,303.320827960968,303.32416558265686,303.33539032936096,303.47563004493713,303.47563004493713,303.47563004493713,303.47563004493713,303.47563004493713,303.47563004493713,303.47563004493713,305.9874105453491,2,2.6416351795196533,None,,,,,,,,,,,,,,,,,,149,2,2025-02-27_14h51.38.783,comp,2024.2.4,None,2025-02-27 14h51.50.372129 -0500,
77,77,0,filler_square,None,None,None,None,None,None,None,None,None,None,1,1.4371614456176758,None,,,,,0,0,0,0,0,77,77,192,306.00383472442627,,,,,,,,,,,,,,,,,,,,,,,,,,,,,,,,,,,,,,,,,,,,,,,,,,,,,,,,,,,,,,,,,,,,,,,,,,,,,,,,,131.70816698223962,131.70816698223962,89.59145377390102,88.60248418584641,67.47334213911182,81.94994890371474,2.2,2.22,-206,286,0,-261,181,-278,305.9892621040344,305.9893410205841,305.99307918548584,306.00383472442627,306.1583425998688,306.1583425998688,306.1583425998688,306.1583425998688,306.1583425998688,306.1583425998688,306.1583425998688,307.4471914768219,1,1.4371614456176758,None,,,,,,,,,,,,,,,,,,149,2,2025-02-27_14h51.38.783,comp,2024.2.4,None,2025-02-27 14h51.50.372129 -0500,
78,78,0,filler_square,None,None,None,None,None,None,None,None,None,None,3,1.9918389320373535,None,,,,,0,0,0,0,0,78,78,204,307.464736700058,,,,,,,,,,,,,,,,,,,,,,,,,,,,,,,,,,,,,,,,,,,,,,,,,,,,,,,,,,,,,,,,,,,,,,,,,,,,,,,,,119.63678009774384,114.9777425869398,130.54138300428204,72.84630587002357,134.00812489202747,134.00812489202747,1.0,1.3,290,-251,480,-280,679,-278,307.4493007659912,307.4493815898895,307.45306611061096,307.464736700058,307.60464453697205,307.60464453697205,307.60464453697205,307.60464453697205,307.60464453697205,307.60464453697205,307.60464453697205,309.4726982116699,3,1.9918389320373535,None,,,,,,,,,,,,,,,,,,149,2,2025-02-27_14h51.38.783,comp,2024.2.4,None,2025-02-27 14h51.50.372129 -0500,
79,79,0,critical,hwd,35.0,1.0,upper,200.0,125.0,125.0,200.0,127.0,127.0,2,5.351531744003296,None,,,,,0,0,0,0,0,79,79,97,309.4887490272522,,,,,,,,,,,,,,,,,,,,,,,,,,,,,,,,,,,,,,,,,,,,,,,,,,,,,,,,,,,,,,,,,,,,,,,,,,,,,,,,,200.0,125.0,125.0,200.0,127.0,127.0,1.0,1.2,-258,4,0,8,260,-1,309.4743764400482,309.4744565486908,309.47829151153564,309.4887490272522,309.63877058029175,309.63877058029175,309.63877058029175,309.63877058029175,309.63877058029175,309.63877058029175,309.63877058029175,314.8424813747406,2,5.351531744003296,None,,,,,,,,,,,,,,,,,,149,2,2025-02-27_14h51.38.783,comp,2024.2.4,None,2025-02-27 14h51.50.372129 -0500,
80,80,0,filler_random,None,None,None,None,None,None,None,None,None,None,3,1.4936082363128662,None,,,,,0,0,0,0,0,80,80,165,314.858922958374,,,,,,,,,,,,,,,,,,,,,,,,,,,,,,,,,,,,,,,,,,,,,,,,,,,,,,,,,,,,,,,,,,,,,,,,,,,,,,,,,58.18009886819452,167.89153739797393,167.2217937792039,103.818419046863,135.35566655034484,144.85008034738553,3.0,3.1,-232,283,0,10,220,-257,314.84436988830566,314.8445088863373,314.8480920791626,314.858922958374,315.0077793598175,315.0077793598175,315.0077793598175,315.0077793598175,315.0077793598175,315.0077793598175,315.0077793598175,316.3581864833832,3,1.4936082363128662,None,,,,,,,,,,,,,,,,,,149,2,2025-02-27_14h51.38.783,comp,2024.2.4,None,2025-02-27 14h51.50.372129 -0500,
81,81,0,critical,dhw,20.0,2.1,upper,141.0,141.0,200.0,125.0,125.0,200.0,3,1.4262356758117676,None,,,,,0,0,0,0,0,81,81,27,316.3745424747467,,,,,,,,,,,,,,,,,,,,,,,,,,,,,,,,,,,,,,,,,,,,,,,,,,,,,,,,,,,,,,,,,,,,,,,,,,,,,,,,,141.0,141.0,200.0,125.0,125.0,200.0,2.1,2.11,-229,270,0,286,258,-252,316.35969161987305,316.3597676753998,316.3639786243439,316.3745424747467,316.52410531044006,316.52410531044006,316.52410531044006,316.52410531044006,316.52410531044006,316.52410531044006,316.52410531044006,317.8104147911072,3,1.4262356758117676,None,,,,,,,,,,,,,,,,,,149,2,2025-02-27_14h51.38.783,comp,2024.2.4,None,2025-02-27 14h51.50.372129 -0500,
82,82,0,critical,whd,20.0,3.0,upper,125.0,200.0,200.0,125.0,141.0,141.0,1,1.7975051403045654,None,,,,,0,0,0,0,0,82,82,93,317.8266477584839,,,,,,,,,,,,,,,,,,,,,,,,,,,,,,,,,,,,,,,,,,,,,,,,,,,,,,,,,,,,,,,,,,,,,,,,,,,,,,,,,125.0,200.0,200.0,125.0,141.0,141.0,3.0,3.1,-258,271,0,15,229,-277,317.81212854385376,317.8122065067291,317.815381526947,317.8266477584839,317.9779152870178,317.9779152870178,317.9779152870178,317.9779152870178,317.9779152870178,317.9779152870178,317.9779152870178,319.62628722190857,1,1.7975051403045654,None,,,,,,,,,,,,,,,,,,149,2,2025-02-27_14h51.38.783,comp,2024.2.4,None,2025-02-27 14h51.50.372129 -0500,
83,83,0,filler_square,None,None,None,None,None,None,None,None,None,None,1,1.7896239757537842,None,,,,,0,0,0,0,0,83,83,193,319.64318227767944,,,,,,,,,,,,,,,,,,,,,,,,,,,,,,,,,,,,,,,,,,,,,,,,,,,,,,,,,,,,,,,,,,,,,,,,,,,,,,,,,167.17988830926592,167.17988830926592,126.90074944117698,81.60854948968264,160.66583481661178,128.3434887047865,3.0,3.1,-220,257,0,-18,201,-256,319.6282422542572,319.62832140922546,319.6322603225708,319.64318227767944,319.7924437522888,319.7924437522888,319.7924437522888,319.7924437522888,319.7924437522888,319.7924437522888,319.7924437522888,321.4443163871765,1,1.7896239757537842,None,,,,,,,,,,,,,,,,,,149,2,2025-02-27_14h51.38.783,comp,2024.2.4,None,2025-02-27 14h51.50.372129 -0500,
84,84,0,critical,dhw,35.0,4.0,lower,70.0,70.0,133.0,57.0,57.0,133.0,2,3.498830556869507,None,,,,,0,0,0,0,0,84,84,52,321.46157479286194,,,,,,,,,,,,,,,,,,,,,,,,,,,,,,,,,,,,,,,,,,,,,,,,,,,,,,,,,,,,,,,,,,,,,,,,,,,,,,,,,70.0,70.0,133.0,57.0,57.0,133.0,4.0,4.1,-160,-261,0,12,191,-276,321.44601011276245,321.44609117507935,321.45018196105957,321.46157479286194,321.5989851951599,321.5989851951599,321.5989851951599,321.5989851951599,321.5989851951599,321.5989851951599,321.5989851951599,324.96240878105164,2,3.498830556869507,None,,,,,,,,,,,,,,,,,,149,2,2025-02-27_14h51.38.783,comp,2024.2.4,None,2025-02-27 14h51.50.372129 -0500,
85,85,0,filler_random,None,None,None,None,None,None,None,None,None,None,1,1.2936415672302246,None,,,,,0,0,0,0,0,85,85,161,324.9786431789398,,,,,,,,,,,,,,,,,,,,,,,,,,,,,,,,,,,,,,,,,,,,,,,,,,,,,,,,,,,,,,,,,,,,,,,,,,,,,,,,,143.13868734737397,117.90552649807657,120.04806908963393,104.68608591594787,72.78590534103446,76.78450286037348,1.0,1.2,-207,-3,0,-19,187,-8,324.9646592140198,324.96474027633667,324.96792125701904,324.9786431789398,325.12583231925964,325.12583231925964,325.12583231925964,325.12583231925964,325.12583231925964,325.12583231925964,325.12583231925964,326.2774956226349,1,1.2936415672302246,None,,,,,,,,,,,,,,,,,,149,2,2025-02-27_14h51.38.783,comp,2024.2.4,None,2025-02-27 14h51.50.372129 -0500,
86,86,0,catch,None,None,None,None,None,None,None,None,None,None,1,0.8587069511413574,None,,,,,0,0,0,0,0,86,86,127,326.29388213157654,,,,,,,,,,,,,,,,,,,,,,,,,,,,,,,,,,,,,,,,,,,,,,,,,,,,,,,,,,,,,,,,,,,,,,,,,,,,,,,,,137,188,76,114,83,107,2.2,2.22,-247,280,0,-257,206,-290,326.2794713973999,326.27955436706543,326.2831506729126,326.29388213157654,326.44584465026855,326.44584465026855,326.44584465026855,326.44584465026855,326.44584465026855,326.44584465026855,326.44584465026855,327.16058468818665,1,0.8587069511413574,None,,,,,,,,,,,,,,,,,,149,2,2025-02-27_14h51.38.783,comp,2024.2.4,None,2025-02-27 14h51.50.372129 -0500,
87,87,0,filler_square,None,None,None,None,None,None,None,None,None,None,2,3.7028322219848633,None,,,,,0,0,0,0,0,87,87,181,327.17731761932373,,,,,,,,,,,,,,,,,,,,,,,,,,,,,,,,,,,,,,,,,,,,,,,,,,,,,,,,,,,,,,,,,,,,,,,,,,,,,,,,,64.15064074546545,58.272413695432675,66.35311618205336,66.35311618205336,60.06069003371824,58.67233183744552,4.0,4.1,-158,-287,0,-9,159,-284,327.1624085903168,327.16248655319214,327.16607666015625,327.17731761932373,327.3260905742645,327.3260905742645,327.3260905742645,327.3260905742645,327.3260905742645,327.3260905742645,327.3260905742645,330.8948919773102,2,3.7028322219848633,None,,,,,,,,,,,,,,,,,,149,2,2025-02-27_14h51.38.783,comp,2024.2.4,None,2025-02-27 14h51.50.372129 -0500,
88,88,0,critical,wdh,20.0,3.0,lower,57.0,133.0,78.0,78.0,133.0,57.0,3,4.129724979400635,None,,,,,0,0,0,0,0,88,88,80,330.91048765182495,,,,,,,,,,,,,,,,,,,,,,,,,,,,,,,,,,,,,,,,,,,,,,,,,,,,,,,,,,,,,,,,,,,,,,,,,,,,,,,,,57.0,133.0,78.0,78.0,133.0,57.0,3.0,3.2,-202,-288,0,19,164,274,330.8964161872864,330.89649271965027,330.9001135826111,330.91048765182495,331.0627386569977,331.0627386569977,331.0627386569977,331.0627386569977,331.0627386569977,331.0627386569977,331.0627386569977,335.05340695381165,3,4.129724979400635,None,,,,,,,,,,,,,,,,,,149,2,2025-02-27_14h51.38.783,comp,2024.2.4,None,2025-02-27 14h51.50.372129 -0500,
89,89,0,critical,dwh,35.0,3.0,upper,127.0,127.0,125.0,200.0,200.0,125.0,2,1.2009797096252441,None,,,,,0,0,0,0,0,89,89,63,335.07108187675476,,,,,,,,,,,,,,,,,,,,,,,,,,,,,,,,,,,,,,,,,,,,,,,,,,,,,,,,,,,,,,,,,,,,,,,,,,,,,,,,,127.0,127.0,125.0,200.0,200.0,125.0,3.0,3.1,-260,263,0,-11,258,-275,335.05496048927307,335.0550420284271,335.0582022666931,335.07108187675476,335.2138729095459,335.2138729095459,335.2138729095459,335.2138729095459,335.2138729095459,335.2138729095459,335.2138729095459,336.2850203514099,2,1.2009797096252441,None,,,,,,,,,,,,,,,,,,149,2,2025-02-27_14h51.38.783,comp,2024.2.4,None,2025-02-27 14h51.50.372129 -0500,
90,90,0,critical,wdh,20.0,2.1,lower,57.0,133.0,78.0,78.0,133.0,57.0,1,2.8296430110931396,None,,,,,0,0,0,0,0,90,90,34,336.29957699775696,,,,,,,,,,,,,,,,,,,,,,,,,,,,,,,,,,,,,,,,,,,,,,,,,,,,,,,,,,,,,,,,,,,,,,,,,,,,,,,,,57.0,133.0,78.0,78.0,133.0,57.0,2.1,2.12,-202,-285,0,-256,164,260,336.2865946292877,336.28667402267456,336.2898151874542,336.29957699775696,336.4497263431549,336.4497263431549,336.4497263431549,336.4497263431549,336.4497263431549,336.4497263431549,336.4497263431549,339.1349468231201,1,2.8296430110931396,None,,,,,,,,,,,,,,,,,,149,2,2025-02-27_14h51.38.783,comp,2024.2.4,None,2025-02-27 14h51.50.372129 -0500,
91,91,0,critical,dwh,20.0,2.1,upper,141.0,141.0,125.0,200.0,200.0,125.0,2,3.41031813621521,None,,,,,0,0,0,0,0,91,91,31,339.15069913864136,,,,,,,,,,,,,,,,,,,,,,,,,,,,,,,,,,,,,,,,,,,,,,,,,,,,,,,,,,,,,,,,,,,,,,,,,,,,,,,,,141.0,141.0,125.0,200.0,200.0,125.0,2.1,2.12,-266,-267,0,-270,258,290,339.1366775035858,339.1367666721344,339.13994097709656,339.15069913864136,339.3018798828125,339.3018798828125,339.3018798828125,339.3018798828125,339.3018798828125,339.3018798828125,339.3018798828125,342.56702613830566,2,3.41031813621521,None,,,,,,,,,,,,,,,,,,149,2,2025-02-27_14h51.38.783,comp,2024.2.4,None,2025-02-27 14h51.50.372129 -0500,
92,92,0,filler_square,None,None,None,None,None,None,None,None,None,None,3,1.1770515441894531,None,,,,,0,0,0,0,0,92,92,179,342.5831706523895,,,,,,,,,,,,,,,,,,,,,,,,,,,,,,,,,,,,,,,,,,,,,,,,,,,,,,,,,,,,,,,,,,,,,,,,,,,,,,,,,71.91029289235918,118.65296766120869,114.38191828989666,78.38709732853378,135.5814258512207,135.5814258512207,3.0,3.2,-195,-259,0,-2,203,288,342.569011926651,342.5690977573395,342.5723876953125,342.5831706523895,342.7350378036499,342.7350378036499,342.7350378036499,342.7350378036499,342.7350378036499,342.7350378036499,342.7350378036499,343.7622287273407,3,1.1770515441894531,None,,,,,,,,,,,,,,,,,,149,2,2025-02-27_14h51.38.783,comp,2024.2.4,None,2025-02-27 14h51.50.372129 -0500,
93,93,0,filler_square,None,None,None,None,None,None,None,None,None,None,2,2.3946878910064697,None,,,,,0,0,0,0,0,93,93,208,343.7821571826935,,,,,,,,,,,,,,,,,,,,,,,,,,,,,,,,,,,,,,,,,,,,,,,,,,,,,,,,,,,,,,,,,,,,,,,,,,,,,,,,,59.22752540155159,64.13207851316447,62.45983477411322,65.307424351231,65.65499796023171,65.65499796023171,4.0,4.2,-161,-1,0,-270,161,-12,343.7642865180969,343.764368057251,343.7680447101593,343.7821571826935,343.9158310890198,343.9158310890198,343.9158310890198,343.9158310890198,343.9158310890198,343.9158310890198,343.9158310890198,346.18675470352173,2,2.3946878910064697,None,,,,,,,,,,,,,,,,,,149,2,2025-02-27_14h51.38.783,comp,2024.2.4,None,2025-02-27 14h51.50.372129 -0500,
94,94,0,critical,dwh,35.0,2.1,lower,70.0,70.0,57.0,133.0,133.0,57.0,3,2.2134921550750732,None,,,,,0,0,0,0,0,94,94,4,346.20323157310486,,,,,,,,,,,,,,,,,,,,,,,,,,,,,,,,,,,,,,,,,,,,,,,,,,,,,,,,,,,,,,,,,,,,,,,,,,,,,,,,,70.0,70.0,57.0,133.0,133.0,57.0,2.1,2.12,-198,-288,0,-277,191,266,346.18851256370544,346.18865180015564,346.1923875808716,346.20323157310486,346.35075068473816,346.35075068473816,346.35075068473816,346.35075068473816,346.35075068473816,346.35075068473816,346.35075068473816,348.4240069389343,3,2.2134921550750732,None,,,,,,,,,,,,,,,,,,149,2,2025-02-27_14h51.38.783,comp,2024.2.4,None,2025-02-27 14h51.50.372129 -0500,
95,95,0,critical,hdw,20.0,4.0,upper,200.0,125.0,141.0,141.0,125.0,200.0,1,2.2687180042266846,None,,,,,0,0,0,0,0,95,95,119,348.4433948993683,,,,,,,,,,,,,,,,,,,,,,,,,,,,,,,,,,,,,,,,,,,,,,,,,,,,,,,,,,,,,,,,,,,,,,,,,,,,,,,,,200.0,125.0,141.0,141.0,125.0,200.0,4.0,4.1,-229,-262,0,-17,266,-276,348.42553973197937,348.4256203174591,348.4287109375,348.4433948993683,348.58249044418335,348.58249044418335,348.58249044418335,348.58249044418335,348.58249044418335,348.58249044418335,348.58249044418335,350.7267334461212,1,2.2687180042266846,None,,,,,,,,,,,,,,,,,,149,2,2025-02-27_14h51.38.783,comp,2024.2.4,None,2025-02-27 14h51.50.372129 -0500,
96,96,0,filler_random,None,None,None,None,None,None,None,None,None,None,2,1.081423044204712,None,,,,,0,0,0,0,0,96,96,136,350.7426657676697,,,,,,,,,,,,,,,,,,,,,,,,,,,,,,,,,,,,,,,,,,,,,,,,,,,,,,,,,,,,,,,,,,,,,,,,,,,,,,,,,101.87428501560895,139.62812653466324,174.99414928377814,198.17438929669885,64.12746400651052,79.95407782903945,3.0,3.2,-265,-265,0,5,235,287,350.72863149642944,350.72875142097473,350.7321848869324,350.7426657676697,350.883273601532,350.883273601532,350.883273601532,350.883273601532,350.883273601532,350.883273601532,350.883273601532,351.84109139442444,2,1.081423044204712,None,,,,,,,,,,,,,,,,,,149,2,2025-02-27_14h51.38.783,comp,2024.2.4,None,2025-02-27 14h51.50.372129 -0500,
97,97,0,critical,wdh,20.0,2.1,upper,125.0,200.0,141.0,141.0,200.0,125.0,3,2.1875531673431396,None,,,,,0,0,0,0,0,97,97,35,351.861141204834,,,,,,,,,,,,,,,,,,,,,,,,,,,,,,,,,,,,,,,,,,,,,,,,,,,,,,,,,,,,,,,,,,,,,,,,,,,,,,,,,125.0,200.0,141.0,141.0,200.0,125.0,2.1,2.12,-266,-284,0,-257,229,284,351.84267234802246,351.84274983406067,351.8459122180939,351.861141204834,352.0021893978119,352.0021893978119,352.0021893978119,352.0021893978119,352.0021893978119,352.0021893978119,352.0021893978119,354.0512652397156,3,2.1875531673431396,None,,,,,,,,,,,,,,,,,,149,2,2025-02-27_14h51.38.783,comp,2024.2.4,None,2025-02-27 14h51.50.372129 -0500,
98,98,0,critical,whd,20.0,2.1,upper,125.0,200.0,200.0,125.0,141.0,141.0,1,3.9547033309936523,None,,,,,0,0,0,0,0,98,98,15,354.0695745944977,,,,,,,,,,,,,,,,,,,,,,,,,,,,,,,,,,,,,,,,,,,,,,,,,,,,,,,,,,,,,,,,,,,,,,,,,,,,,,,,,125.0,200.0,200.0,125.0,141.0,141.0,2.1,2.12,-258,-260,0,-269,229,286,354.0528178215027,354.0528974533081,354.05641078948975,354.0695745944977,354.2197518348694,354.2197518348694,354.2197518348694,354.2197518348694,354.2197518348694,354.2197518348694,354.2197518348694,358.03897976875305,1,3.9547033309936523,None,,,,,,,,,,,,,,,,,,149,2,2025-02-27_14h51.38.783,comp,2024.2.4,None,2025-02-27 14h51.50.372129 -0500,
99,99,0,filler_random,None,None,None,None,None,None,None,None,None,None,1,1.9141337871551514,None,,,,,0,0,0,0,0,99,99,139,358.0546712875366,,,,,,,,,,,,,,,,,,,,,,,,,,,,,,,,,,,,,,,,,,,,,,,,,,,,,,,,,,,,,,,,,,,,,,,,,,,,,,,,,141.8852481410717,102.07651581435488,86.77316833192397,70.57638662371372,134.3857185715911,117.52805685861307,3.0,3.1,-182,270,0,6,190,-264,358.04087829589844,358.0409617424011,358.044410943985,358.0546712875366,358.20391750335693,358.20391750335693,358.20391750335693,358.20391750335693,358.20391750335693,358.20391750335693,358.20391750335693,359.9720628261566,1,1.9141337871551514,None,,,,,,,,,,,,,,,,,,149,2,2025-02-27_14h51.38.783,comp,2024.2.4,None,2025-02-27 14h51.50.372129 -0500,
100,100,0,critical,whd,35.0,2.1,lower,57.0,133.0,133.0,57.0,70.0,70.0,2,3.547553300857544,None,,,,,0,0,0,0,0,100,100,12,359.98862075805664,,,,,,,,,,,,,,,,,,,,,,,,,,,,,,,,,,,,,,,,,,,,,,,,,,,,,,,,,,,,,,,,,,,,,,,,,,,,,,,,,57.0,133.0,133.0,57.0,70.0,70.0,2.1,2.12,-191,-274,0,-288,160,286,359.9738733768463,359.97399282455444,359.9778196811676,359.98862075805664,360.1377537250519,360.1377537250519,360.1377537250519,360.1377537250519,360.1377537250519,360.1377537250519,360.1377537250519,363.5490562915802,2,3.547553300857544,None,,,,,,,,,,,,,,,,,,149,2,2025-02-27_14h51.38.783,comp,2024.2.4,None,2025-02-27 14h51.50.372129 -0500,
101,101,0,filler_square,None,None,None,None,None,None,None,None,None,None,3,1.7712182998657227,None,,,,,0,0,0,0,0,101,101,186,363.5648982524872,,,,,,,,,,,,,,,,,,,,,,,,,,,,,,,,,,,,,,,,,,,,,,,,,,,,,,,,,,,,,,,,,,,,,,,,,,,,,,,,,66.95177291063408,123.14528624682131,93.19703918251366,101.06309001990087,124.88689413855246,124.88689413855246,4.0,4.2,-208,20,0,-273,209,-4,363.5508997440338,363.5509774684906,363.55411672592163,363.5648982524872,363.70836782455444,363.70836782455444,363.70836782455444,363.70836782455444,363.70836782455444,363.70836782455444,363.70836782455444,365.33913469314575,3,1.7712182998657227,None,,,,,,,,,,,,,,,,,,149,2,2025-02-27_14h51.38.783,comp,2024.2.4,None,2025-02-27 14h51.50.372129 -0500,
102,102,0,filler_square,None,None,None,None,None,None,None,None,None,None,1,1.7326512336730957,None,,,,,0,0,0,0,0,102,102,180,365.355491399765,,,,,,,,,,,,,,,,,,,,,,,,,,,,,,,,,,,,,,,,,,,,,,,,,,,,,,,,,,,,,,,,,,,,,,,,,,,,,,,,,79.30561758581042,79.30561758581042,70.86878978272227,61.180093773190876,78.56986396820162,66.97695413860745,2.1,2.12,-166,-261,0,-289,160,283,365.34103178977966,365.3411145210266,365.3447265625,365.355491399765,365.5047013759613,365.5047013759613,365.5047013759613,365.5047013759613,365.5047013759613,365.5047013759613,365.5047013759613,367.10558104515076,1,1.7326512336730957,None,,,,,,,,,,,,,,,,,,149,2,2025-02-27_14h51.38.783,comp,2024.2.4,None,2025-02-27 14h51.50.372129 -0500,
103,103,0,filler_square,None,None,None,None,None,None,None,None,None,None,2,2.2082626819610596,None,,,,,0,0,0,0,0,103,103,209,367.1219570636749,,,,,,,,,,,,,,,,,,,,,,,,,,,,,,,,,,,,,,,,,,,,,,,,,,,,,,,,,,,,,,,,,,,,,,,,,,,,,,,,,66.09443800782412,68.60321650963608,73.90846050424635,73.90846050424635,57.30506736577534,57.46099970016048,4.0,4.2,-167,5,0,-267,162,-20,367.10745549201965,367.107533454895,367.1108453273773,367.1219570636749,367.2746207714081,367.2746207714081,367.2746207714081,367.2746207714081,367.2746207714081,367.2746207714081,367.2746207714081,369.3408832550049,2,2.2082626819610596,None,,,,,,,,,,,,,,,,,,149,2,2025-02-27_14h51.38.783,comp,2024.2.4,None,2025-02-27 14h51.50.372129 -0500,
104,104,0,critical,dwh,20.0,2.1,lower,78.0,78.0,57.0,133.0,133.0,57.0,3,2.2514545917510986,None,,,,,0,0,0,0,0,104,104,30,369.3568470478058,,,,,,,,,,,,,,,,,,,,,,,,,,,,,,,,,,,,,,,,,,,,,,,,,,,,,,,,,,,,,,,,,,,,,,,,,,,,,,,,,78.0,78.0,57.0,133.0,133.0,57.0,2.1,2.11,-202,272,0,283,191,-290,369.3423545360565,369.34242939949036,369.34606981277466,369.3568470478058,369.50545740127563,369.50545740127563,369.50545740127563,369.50545740127563,369.50545740127563,369.50545740127563,369.50545740127563,371.6245756149292,3,2.2514545917510986,None,,,,,,,,,,,,,,,,,,149,2,2025-02-27_14h51.38.783,comp,2024.2.4,None,2025-02-27 14h51.50.372129 -0500,
105,105,0,filler_square,None,None,None,None,None,None,None,None,None,None,2,3.383265972137451,None,,,,,0,0,0,0,0,105,105,170,371.6408429145813,,,,,,,,,,,,,,,,,,,,,,,,,,,,,,,,,,,,,,,,,,,,,,,,,,,,,,,,,,,,,,,,,,,,,,,,,,,,,,,,,73.26768642083297,91.65946580769489,92.47393781106442,92.47393781106442,68.08339707757573,89.14836930134689,2.1,2.11,-188,250,0,270,187,-285,371.6267216205597,371.62683606147766,371.6305317878723,371.6408429145813,371.7936975955963,371.7936975955963,371.7936975955963,371.7936975955963,371.7936975955963,371.7936975955963,371.7936975955963,375.044935464859,2,3.383265972137451,None,,,,,,,,,,,,,,,,,,149,2,2025-02-27_14h51.38.783,comp,2024.2.4,None,2025-02-27 14h51.50.372129 -0500,
106,106,0,critical,dwh,20.0,4.0,lower,78.0,78.0,57.0,133.0,133.0,57.0,3,1.905667781829834,None,,,,,0,0,0,0,0,106,106,70,375.0645182132721,,,,,,,,,,,,,,,,,,,,,,,,,,,,,,,,,,,,,,,,,,,,,,,,,,,,,,,,,,,,,,,,,,,,,,,,,,,,,,,,,78.0,78.0,57.0,133.0,133.0,57.0,4.0,4.2,-202,11,0,-270,191,-17,375.0466492176056,375.04677414894104,375.05038571357727,375.0645182132721,375.20958065986633,375.20958065986633,375.20958065986633,375.20958065986633,375.20958065986633,375.20958065986633,375.20958065986633,376.97521924972534,3,1.905667781829834,None,,,,,,,,,,,,,,,,,,149,2,2025-02-27_14h51.38.783,comp,2024.2.4,None,2025-02-27 14h51.50.372129 -0500,
107,107,0,critical,dhw,20.0,2.1,lower,78.0,78.0,133.0,57.0,57.0,133.0,3,2.293363094329834,None,,,,,0,0,0,0,0,107,107,2,376.99532866477966,,,,,,,,,,,,,,,,,,,,,,,,,,,,,,,,,,,,,,,,,,,,,,,,,,,,,,,,,,,,,,,,,,,,,,,,,,,,,,,,,78.0,78.0,133.0,57.0,57.0,133.0,2.1,2.12,-164,-275,0,-283,191,262,376.97682881355286,376.9769141674042,376.9804391860962,376.99532866477966,377.14294624328613,377.14294624328613,377.14294624328613,377.14294624328613,377.14294624328613,377.14294624328613,377.14294624328613,379.29245948791504,3,2.293363094329834,None,,,,,,,,,,,,,,,,,,149,2,2025-02-27_14h51.38.783,comp,2024.2.4,None,2025-02-27 14h51.50.372129 -0500,
108,108,0,critical,hdw,35.0,1.0,upper,200.0,125.0,127.0,127.0,125.0,200.0,3,1.8595731258392334,None,,,,,0,0,0,0,0,108,108,109,379.30863094329834,,,,,,,,,,,,,,,,,,,,,,,,,,,,,,,,,,,,,,,,,,,,,,,,,,,,,,,,,,,,,,,,,,,,,,,,,,,,,,,,,200.0,125.0,127.0,127.0,125.0,200.0,1.0,1.1,-702,272,-480,285,-220,262,379.29401659965515,379.29409861564636,379.2975432872772,379.30863094329834,379.466126203537,379.466126203537,379.466126203537,379.466126203537,379.466126203537,379.466126203537,379.466126203537,381.1849536895752,3,1.8595731258392334,None,,,,,,,,,,,,,,,,,,149,2,2025-02-27_14h51.38.783,comp,2024.2.4,None,2025-02-27 14h51.50.372129 -0500,
109,109,0,filler_random,None,None,None,None,None,None,None,None,None,None,2,2.8072307109832764,None,,,,,0,0,0,0,0,109,109,145,381.20163106918335,,,,,,,,,,,,,,,,,,,,,,,,,,,,,,,,,,,,,,,,,,,,,,,,,,,,,,,,,,,,,,,,,,,,,,,,,,,,,,,,,78.19026600375972,61.291472566254896,69.63747409698246,159.00915221175842,99.31296961263328,93.96574778997164,3.0,3.2,-206,-265,0,11,222,282,381.18684554100037,381.1869397163391,381.19034934043884,381.20163106918335,381.34365034103394,381.34365034103394,381.34365034103394,381.34365034103394,381.34365034103394,381.34365034103394,381.34365034103394,384.0117416381836,2,2.8072307109832764,None,,,,,,,,,,,,,,,,,,149,2,2025-02-27_14h51.38.783,comp,2024.2.4,None,2025-02-27 14h51.50.372129 -0500,
110,110,0,critical,whd,20.0,2.1,lower,57.0,133.0,133.0,57.0,78.0,78.0,2,1.990295648574829,None,,,,,0,0,0,0,0,110,110,14,384.02678418159485,,,,,,,,,,,,,,,,,,,,,,,,,,,,,,,,,,,,,,,,,,,,,,,,,,,,,,,,,,,,,,,,,,,,,,,,,,,,,,,,,57.0,133.0,133.0,57.0,78.0,78.0,2.1,2.11,-191,258,0,284,164,-251,384.01332449913025,384.01340222358704,384.017258644104,384.02678418159485,384.18134784698486,384.18134784698486,384.18134784698486,384.18134784698486,384.18134784698486,384.18134784698486,384.18134784698486,386.0290901660919,2,1.990295648574829,None,,,,,,,,,,,,,,,,,,149,2,2025-02-27_14h51.38.783,comp,2024.2.4,None,2025-02-27 14h51.50.372129 -0500,
111,111,0,filler_random,None,None,None,None,None,None,None,None,None,None,1,1.1495211124420166,None,,,,,0,0,0,0,0,111,111,162,386.04370641708374,,,,,,,,,,,,,,,,,,,,,,,,,,,,,,,,,,,,,,,,,,,,,,,,,,,,,,,,,,,,,,,,,,,,,,,,,,,,,,,,,155.88647804291344,164.7720774014865,78.32288236126313,85.10114843720301,137.81860548688564,116.49017683166338,4.0,4.1,-221,-259,0,9,197,-263,386.0308418273926,386.0309212207794,386.0344262123108,386.04370641708374,386.18387365341187,386.18387365341187,386.18387365341187,386.18387365341187,386.18387365341187,386.18387365341187,386.18387365341187,387.19546604156494,1,1.1495211124420166,None,,,,,,,,,,,,,,,,,,149,2,2025-02-27_14h51.38.783,comp,2024.2.4,None,2025-02-27 14h51.50.372129 -0500,
112,112,0,critical,dwh,20.0,2.1,lower,78.0,78.0,57.0,133.0,133.0,57.0,3,1.581024408340454,None,,,,,0,0,0,0,0,112,112,6,387.21135234832764,,,,,,,,,,,,,,,,,,,,,,,,,,,,,,,,,,,,,,,,,,,,,,,,,,,,,,,,,,,,,,,,,,,,,,,,,,,,,,,,,78.0,78.0,57.0,133.0,133.0,57.0,2.1,2.12,-202,-266,0,-275,191,267,387.19701409339905,387.19708943367004,387.2005066871643,387.21135234832764,387.3601734638214,387.3601734638214,387.3601734638214,387.3601734638214,387.3601734638214,387.3601734638214,387.3601734638214,388.79788088798523,3,1.581024408340454,None,,,,,,,,,,,,,,,,,,149,2,2025-02-27_14h51.38.783,comp,2024.2.4,None,2025-02-27 14h51.50.372129 -0500,
113,113,0,critical,dhw,20.0,1.0,upper,141.0,141.0,200.0,125.0,125.0,200.0,3,2.338935613632202,None,,,,,0,0,0,0,0,113,113,55,388.81432604789734,,,,,,,,,,,,,,,,,,,,,,,,,,,,,,,,,,,,,,,,,,,,,,,,,,,,,,,,,,,,,,,,,,,,,,,,,,,,,,,,,141.0,141.0,200.0,125.0,125.0,200.0,1.0,1.3,251,-259,480,-269,738,-273,388.7994110584259,388.79953789711,388.8028266429901,388.81432604789734,388.9635064601898,388.9635064601898,388.9635064601898,388.9635064601898,388.9635064601898,388.9635064601898,388.9635064601898,391.1691243648529,3,2.338935613632202,None,,,,,,,,,,,,,,,,,,149,2,2025-02-27_14h51.38.783,comp,2024.2.4,None,2025-02-27 14h51.50.372129 -0500,
114,114,0,critical,whd,35.0,2.1,upper,125.0,200.0,200.0,125.0,127.0,127.0,2,2.9639458656311035,None,,,,,0,0,0,0,0,114,114,37,391.18821811676025,,,,,,,,,,,,,,,,,,,,,,,,,,,,,,,,,,,,,,,,,,,,,,,,,,,,,,,,,,,,,,,,,,,,,,,,,,,,,,,,,125.0,200.0,200.0,125.0,127.0,127.0,2.1,2.12,-258,-286,0,-284,222,279,391.1709249019623,391.1710011959076,391.17412281036377,391.18821811676025,391.32960295677185,391.32960295677185,391.32960295677185,391.32960295677185,391.32960295677185,391.32960295677185,391.32960295677185,394.16294264793396,2,2.9639458656311035,None,,,,,,,,,,,,,,,,,,149,2,2025-02-27_14h51.38.783,comp,2024.2.4,None,2025-02-27 14h51.50.372129 -0500,
115,115,0,critical,whd,35.0,2.1,lower,57.0,133.0,133.0,57.0,70.0,70.0,2,2.572779655456543,None,,,,,0,0,0,0,0,115,115,36,394.1794059276581,,,,,,,,,,,,,,,,,,,,,,,,,,,,,,,,,,,,,,,,,,,,,,,,,,,,,,,,,,,,,,,,,,,,,,,,,,,,,,,,,57.0,133.0,133.0,57.0,70.0,70.0,2.1,2.11,-191,262,0,283,160,-267,394.16449666023254,394.16457867622375,394.1677007675171,394.1794059276581,394.3150300979614,394.3150300979614,394.3150300979614,394.3150300979614,394.3150300979614,394.3150300979614,394.3150300979614,396.77024364471436,2,2.572779655456543,None,,,,,,,,,,,,,,,,,,149,2,2025-02-27_14h51.38.783,comp,2024.2.4,None,2025-02-27 14h51.50.372129 -0500,
116,116,0,critical,hwd,20.0,1.0,upper,200.0,125.0,125.0,200.0,141.0,141.0,2,1.8442018032073975,None,,,,,0,0,0,0,0,116,116,103,396.7883348464966,,,,,,,,,,,,,,,,,,,,,,,,,,,,,,,,,,,,,,,,,,,,,,,,,,,,,,,,,,,,,,,,,,,,,,,,,,,,,,,,,200.0,125.0,125.0,200.0,141.0,141.0,1.0,1.3,222,-281,480,-284,746,-264,396.772025346756,396.7721583843231,396.77562642097473,396.7883348464966,396.93509221076965,396.93509221076965,396.93509221076965,396.93509221076965,396.93509221076965,396.93509221076965,396.93509221076965,398.6370322704315,2,1.8442018032073975,None,,,,,,,,,,,,,,,,,,149,2,2025-02-27_14h51.38.783,comp,2024.2.4,None,2025-02-27 14h51.50.372129 -0500,
117,117,0,critical,whd,35.0,1.0,upper,125.0,200.0,200.0,125.0,127.0,127.0,2,2.851539373397827,None,,,,,0,0,0,0,0,117,117,85,398.6527214050293,,,,,,,,,,,,,,,,,,,,,,,,,,,,,,,,,,,,,,,,,,,,,,,,,,,,,,,,,,,,,,,,,,,,,,,,,,,,,,,,,125.0,200.0,200.0,125.0,127.0,127.0,1.0,1.3,222,-257,480,-263,702,-290,398.6387724876404,398.6388816833496,398.6420705318451,398.6527214050293,398.80523681640625,398.80523681640625,398.80523681640625,398.80523681640625,398.80523681640625,398.80523681640625,398.80523681640625,401.51822543144226,2,2.851539373397827,None,,,,,,,,,,,,,,,,,,149,2,2025-02-27_14h51.38.783,comp,2024.2.4,None,2025-02-27 14h51.50.372129 -0500,
118,118,0,critical,wdh,20.0,3.0,upper,125.0,200.0,141.0,141.0,200.0,125.0,1,2.4017865657806396,None,,,,,0,0,0,0,0,118,118,81,401.53437757492065,,,,,,,,,,,,,,,,,,,,,,,,,,,,,,,,,,,,,,,,,,,,,,,,,,,,,,,,,,,,,,,,,,,,,,,,,,,,,,,,,125.0,200.0,141.0,141.0,200.0,125.0,3.0,3.1,-266,282,0,-10,229,-280,401.519731760025,401.51984667778015,401.52329206466675,401.53437757492065,401.68353629112244,401.68353629112244,401.68353629112244,401.68353629112244,401.68353629112244,401.68353629112244,401.68353629112244,403.9502923488617,1,2.4017865657806396,None,,,,,,,,,,,,,,,,,,149,2,2025-02-27_14h51.38.783,comp,2024.2.4,None,2025-02-27 14h51.50.372129 -0500,
119,119,0,critical,whd,20.0,2.1,upper,125.0,200.0,200.0,125.0,141.0,141.0,1,2.2226948738098145,None,,,,,0,0,0,0,0,119,119,39,403.9696743488312,,,,,,,,,,,,,,,,,,,,,,,,,,,,,,,,,,,,,,,,,,,,,,,,,,,,,,,,,,,,,,,,,,,,,,,,,,,,,,,,,125.0,200.0,200.0,125.0,141.0,141.0,2.1,2.11,-258,288,0,269,229,-256,403.95195055007935,403.95202803611755,403.95537090301514,403.9696743488312,404.12000799179077,404.12000799179077,404.12000799179077,404.12000799179077,404.12000799179077,404.12000799179077,404.12000799179077,406.20288848876953,1,2.2226948738098145,None,,,,,,,,,,,,,,,,,,149,2,2025-02-27_14h51.38.783,comp,2024.2.4,None,2025-02-27 14h51.50.372129 -0500,
120,120,0,critical,wdh,20.0,4.0,lower,57.0,133.0,78.0,78.0,133.0,57.0,3,1.7086594104766846,None,,,,,0,0,0,0,0,120,120,82,406.2195703983307,,,,,,,,,,,,,,,,,,,,,,,,,,,,,,,,,,,,,,,,,,,,,,,,,,,,,,,,,,,,,,,,,,,,,,,,,,,,,,,,,57.0,133.0,78.0,78.0,133.0,57.0,4.0,4.2,-202,3,0,-274,164,-9,406.2043426036835,406.20441722869873,406.207848072052,406.2195703983307,406.3725700378418,406.3725700378418,406.3725700378418,406.3725700378418,406.3725700378418,406.3725700378418,406.3725700378418,407.94451093673706,3,1.7086594104766846,None,,,,,,,,,,,,,,,,,,149,2,2025-02-27_14h51.38.783,comp,2024.2.4,None,2025-02-27 14h51.50.372129 -0500,
121,121,0,filler_square,None,None,None,None,None,None,None,None,None,None,2,1.0615994930267334,None,,,,,0,0,0,0,0,121,121,176,407.96301651000977,,,,,,,,,,,,,,,,,,,,,,,,,,,,,,,,,,,,,,,,,,,,,,,,,,,,,,,,,,,,,,,,,,,,,,,,,,,,,,,,,73.3616001354878,90.06759755799524,149.86576882967546,149.86576882967546,95.03308568783606,79.67590830461512,4.0,4.1,-216,-288,0,14,211,-256,407.94657373428345,407.94665336608887,407.9502487182617,407.96301651000977,408.1049039363861,408.1049039363861,408.1049039363861,408.1049039363861,408.1049039363861,408.1049039363861,408.1049039363861,409.03625416755676,2,1.0615994930267334,None,,,,,,,,,,,,,,,,,,149,2,2025-02-27_14h51.38.783,comp,2024.2.4,None,2025-02-27 14h51.50.372129 -0500,
122,122,0,critical,dwh,35.0,2.1,lower,70.0,70.0,57.0,133.0,133.0,57.0,3,1.8840525150299072,None,,,,,0,0,0,0,0,122,122,28,409.0524125099182,,,,,,,,,,,,,,,,,,,,,,,,,,,,,,,,,,,,,,,,,,,,,,,,,,,,,,,,,,,,,,,,,,,,,,,,,,,,,,,,,70.0,70.0,57.0,133.0,133.0,57.0,2.1,2.12,-198,-256,0,-254,191,266,409.03794264793396,409.0380244255066,409.0416941642761,409.0524125099182,409.2100203037262,409.2100203037262,409.2100203037262,409.2100203037262,409.2100203037262,409.2100203037262,409.2100203037262,410.942768573761,3,1.8840525150299072,None,,,,,,,,,,,,,,,,,,149,2,2025-02-27_14h51.38.783,comp,2024.2.4,None,2025-02-27 14h51.50.372129 -0500,
123,123,0,filler_random,None,None,None,None,None,None,None,None,None,None,1,4.985422849655151,None,,,,,0,0,0,0,0,123,123,133,410.9607264995575,,,,,,,,,,,,,,,,,,,,,,,,,,,,,,,,,,,,,,,,,,,,,,,,,,,,,,,,,,,,,,,,,,,,,,,,,,,,,,,,,143.8443225191704,153.73652988244567,159.8563726080525,78.67236650926216,171.8322232076124,125.08295121503646,3.0,3.1,-212,281,0,-15,198,-273,410.9445502758026,410.9446313381195,410.9477467536926,410.9607264995575,411.1039435863495,411.1039435863495,411.1039435863495,411.1039435863495,411.1039435863495,411.1039435863495,411.1039435863495,415.95198917388916,1,4.985422849655151,None,,,,,,,,,,,,,,,,,,149,2,2025-02-27_14h51.38.783,comp,2024.2.4,None,2025-02-27 14h51.50.372129 -0500,
124,124,0,critical,hwd,35.0,2.1,lower,133.0,57.0,57.0,133.0,70.0,70.0,2,1.993204116821289,None,,,,,0,0,0,0,0,124,124,16,415.96862721443176,,,,,,,,,,,,,,,,,,,,,,,,,,,,,,,,,,,,,,,,,,,,,,,,,,,,,,,,,,,,,,,,,,,,,,,,,,,,,,,,,133.0,57.0,57.0,133.0,70.0,70.0,2.1,2.12,-191,-278,0,-267,198,259,415.9536786079407,415.9537560939789,415.95727729797363,415.96862721443176,416.1196949481964,416.1196949481964,416.1196949481964,416.1196949481964,416.1196949481964,416.1196949481964,416.1196949481964,417.9731569290161,2,1.993204116821289,None,,,,,,,,,,,,,,,,,,149,2,2025-02-27_14h51.38.783,comp,2024.2.4,None,2025-02-27 14h51.50.372129 -0500,
125,125,0,filler_square,None,None,None,None,None,None,None,None,None,None,2,1.7067387104034424,None,,,,,0,0,0,0,0,125,125,190,417.99021077156067,,,,,,,,,,,,,,,,,,,,,,,,,,,,,,,,,,,,,,,,,,,,,,,,,,,,,,,,,,,,,,,,,,,,,,,,,,,,,,,,,71.64495134599247,100.49735318929137,105.50990252930414,105.50990252930414,104.18593322076633,77.08107043769878,2.2,2.21,-199,-251,0,258,187,260,417.9751944541931,417.9753077030182,417.979421377182,417.99021077156067,418.14187002182007,418.14187002182007,418.14187002182007,418.14187002182007,418.14187002182007,418.14187002182007,418.14187002182007,419.70686960220337,2,1.7067387104034424,None,,,,,,,,,,,,,,,,,,149,2,2025-02-27_14h51.38.783,comp,2024.2.4,None,2025-02-27 14h51.50.372129 -0500,
126,126,0,critical,whd,20.0,2.1,lower,57.0,133.0,133.0,57.0,78.0,78.0,1,1.8086106777191162,None,,,,,0,0,0,0,0,126,126,38,419.72759675979614,,,,,,,,,,,,,,,,,,,,,,,,,,,,,,,,,,,,,,,,,,,,,,,,,,,,,,,,,,,,,,,,,,,,,,,,,,,,,,,,,57.0,133.0,133.0,57.0,78.0,78.0,2.1,2.12,-191,-282,0,-260,164,255,419.7084240913391,419.7085049152374,419.71194648742676,419.72759675979614,419.87304854393005,419.87304854393005,419.87304854393005,419.87304854393005,419.87304854393005,419.87304854393005,419.87304854393005,421.54092741012573,1,1.8086106777191162,None,,,,,,,,,,,,,,,,,,149,2,2025-02-27_14h51.38.783,comp,2024.2.4,None,2025-02-27 14h51.50.372129 -0500,
127,127,0,filler_random,None,None,None,None,None,None,None,None,None,None,1,1.5071499347686768,None,,,,,0,0,0,0,0,127,127,157,421.5570864677429,,,,,,,,,,,,,,,,,,,,,,,,,,,,,,,,,,,,,,,,,,,,,,,,,,,,,,,,,,,,,,,,,,,,,,,,,,,,,,,,,128.67206560731898,128.55652400978693,157.20748034561544,61.4018336937411,64.10861297167662,192.34592933571852,1.0,1.3,289,-289,480,-280,703,-260,421.54267835617065,421.5427596569061,421.5463664531708,421.5570864677429,421.704487323761,421.704487323761,421.704487323761,421.704487323761,421.704487323761,421.704487323761,421.704487323761,423.0833990573883,1,1.5071499347686768,None,,,,,,,,,,,,,,,,,,149,2,2025-02-27_14h51.38.783,comp,2024.2.4,None,2025-02-27 14h51.50.372129 -0500,
128,128,0,critical,hdw,20.0,4.0,lower,133.0,57.0,78.0,78.0,57.0,133.0,1,2.7795557975769043,None,,,,,0,0,0,0,0,128,128,118,423.1006615161896,,,,,,,,,,,,,,,,,,,,,,,,,,,,,,,,,,,,,,,,,,,,,,,,,,,,,,,,,,,,,,,,,,,,,,,,,,,,,,,,,133.0,57.0,78.0,78.0,57.0,133.0,4.0,4.1,-164,-284,0,-3,202,-275,423.08495235443115,423.0850293636322,423.08816933631897,423.1006615161896,423.2419002056122,423.2419002056122,423.2419002056122,423.2419002056122,423.2419002056122,423.2419002056122,423.2419002056122,425.89157247543335,1,2.7795557975769043,None,,,,,,,,,,,,,,,,,,149,2,2025-02-27_14h51.38.783,comp,2024.2.4,None,2025-02-27 14h51.50.372129 -0500,
129,129,0,critical,wdh,35.0,2.1,lower,57.0,133.0,70.0,70.0,133.0,57.0,1,1.7238905429840088,None,,,,,0,0,0,0,0,129,129,32,425.90908765792847,,,,,,,,,,,,,,,,,,,,,,,,,,,,,,,,,,,,,,,,,,,,,,,,,,,,,,,,,,,,,,,,,,,,,,,,,,,,,,,,,57.0,133.0,70.0,70.0,133.0,57.0,2.1,2.11,-198,276,0,262,160,-271,425.893164396286,425.8932423591614,425.8974726200104,425.90908765792847,426.0577645301819,426.0577645301819,426.0577645301819,426.0577645301819,426.0577645301819,426.0577645301819,426.0577645301819,427.6442594528198,1,1.7238905429840088,None,,,,,,,,,,,,,,,,,,149,2,2025-02-27_14h51.38.783,comp,2024.2.4,None,2025-02-27 14h51.50.372129 -0500,
130,130,0,filler_random,None,None,None,None,None,None,None,None,None,None,2,1.0442116260528564,None,,,,,0,0,0,0,0,130,130,151,427.66036462783813,,,,,,,,,,,,,,,,,,,,,,,,,,,,,,,,,,,,,,,,,,,,,,,,,,,,,,,,,,,,,,,,,,,,,,,,,,,,,,,,,87.17600875507549,141.81849261834736,168.41307688708437,195.84754561592933,165.03703469126432,85.77557451462378,4.0,4.1,-265,-259,0,18,237,-254,427.64619541168213,427.6463005542755,427.6495854854584,427.66036462783813,427.80637192726135,427.80637192726135,427.80637192726135,427.80637192726135,427.80637192726135,427.80637192726135,427.80637192726135,428.70812916755676,2,1.0442116260528564,None,,,,,,,,,,,,,,,,,,149,2,2025-02-27_14h51.38.783,comp,2024.2.4,None,2025-02-27 14h51.50.372129 -0500,
131,131,0,catch,None,None,None,None,None,None,None,None,None,None,2,1.2834155559539795,None,,,,,0,0,0,0,0,131,131,129,428.72488617897034,,,,,,,,,,,,,,,,,,,,,,,,,,,,,,,,,,,,,,,,,,,,,,,,,,,,,,,,,,,,,,,,,,,,,,,,,,,,,,,,,107,83,155,170,67,123,2.2,2.22,-222,280,0,-258,242,-266,428.7100946903229,428.71017265319824,428.7134325504303,428.72488617897034,428.8761327266693,428.8761327266693,428.8761327266693,428.8761327266693,428.8761327266693,428.8761327266693,428.8761327266693,430.025221824646,2,1.2834155559539795,None,,,,,,,,,,,,,,,,,,149,2,2025-02-27_14h51.38.783,comp,2024.2.4,None,2025-02-27 14h51.50.372129 -0500,
132,132,0,filler_random,None,None,None,None,None,None,None,None,None,None,2,2.0635263919830322,None,,,,,0,0,0,0,0,132,132,168,430.0414865016937,,,,,,,,,,,,,,,,,,,,,,,,,,,,,,,,,,,,,,,,,,,,,,,,,,,,,,,,,,,,,,,,,,,,,,,,,,,,,,,,,102.05432731573043,181.43691847396724,133.5018021327012,197.70951376208635,145.5845743348105,159.81398272446754,2.1,2.11,-286,263,0,261,275,-266,430.02697372436523,430.02704977989197,430.03033661842346,430.0414865016937,430.19327569007874,430.19327569007874,430.19327569007874,430.19327569007874,430.19327569007874,430.19327569007874,430.19327569007874,432.1127722263336,2,2.0635263919830322,None,,,,,,,,,,,,,,,,,,149,2,2025-02-27_14h51.38.783,comp,2024.2.4,None,2025-02-27 14h51.50.372129 -0500,
133,133,0,critical,whd,35.0,4.0,upper,125.0,200.0,200.0,125.0,127.0,127.0,2,2.6714868545532227,None,,,,,0,0,0,0,0,133,133,89,432.12884616851807,,,,,,,,,,,,,,,,,,,,,,,,,,,,,,,,,,,,,,,,,,,,,,,,,,,,,,,,,,,,,,,,,,,,,,,,,,,,,,,,,125.0,200.0,200.0,125.0,127.0,127.0,4.0,4.2,-258,16,0,-254,222,18,432.1143832206726,432.1144621372223,432.1180250644684,432.12884616851807,432.2772741317749,432.2772741317749,432.2772741317749,432.2772741317749,432.2772741317749,432.2772741317749,432.2772741317749,434.8099031448364,2,2.6714868545532227,None,,,,,,,,,,,,,,,,,,149,2,2025-02-27_14h51.38.783,comp,2024.2.4,None,2025-02-27 14h51.50.372129 -0500,
134,134,0,critical,whd,35.0,3.0,upper,125.0,200.0,200.0,125.0,127.0,127.0,1,2.6775577068328857,None,,,,,0,0,0,0,0,134,134,87,434.826753616333,,,,,,,,,,,,,,,,,,,,,,,,,,,,,,,,,,,,,,,,,,,,,,,,,,,,,,,,,,,,,,,,,,,,,,,,,,,,,,,,,125.0,200.0,200.0,125.0,127.0,127.0,3.0,3.1,-258,281,0,-13,222,-282,434.8114182949066,434.8114938735962,434.8148648738861,434.826753616333,434.9784297943115,434.9784297943115,434.9784297943115,434.9784297943115,434.9784297943115,434.9784297943115,434.9784297943115,437.5092339515686,1,2.6775577068328857,None,,,,,,,,,,,,,,,,,,149,2,2025-02-27_14h51.38.783,comp,2024.2.4,None,2025-02-27 14h51.50.372129 -0500,
135,135,0,critical,dhw,20.0,1.0,lower,78.0,78.0,133.0,57.0,57.0,133.0,3,2.8092637062072754,None,,,,,0,0,0,0,0,135,135,54,437.5279598236084,,,,,,,,,,,,,,,,,,,,,,,,,,,,,,,,,,,,,,,,,,,,,,,,,,,,,,,,,,,,,,,,,,,,,,,,,,,,,,,,,78.0,78.0,133.0,57.0,57.0,133.0,1.0,1.1,-644,280,-480,271,-289,284,437.51087856292725,437.5109806060791,437.5144717693329,437.5279598236084,437.662148475647,437.662148475647,437.662148475647,437.662148475647,437.662148475647,437.662148475647,437.662148475647,440.3452339172363,3,2.8092637062072754,None,,,,,,,,,,,,,,,,,,149,2,2025-02-27_14h51.38.783,comp,2024.2.4,None,2025-02-27 14h51.50.372129 -0500,
136,136,0,critical,hwd,20.0,2.1,lower,133.0,57.0,57.0,133.0,78.0,78.0,2,2.5253500938415527,None,,,,,0,0,0,0,0,136,136,18,440.36520624160767,,,,,,,,,,,,,,,,,,,,,,,,,,,,,,,,,,,,,,,,,,,,,,,,,,,,,,,,,,,,,,,,,,,,,,,,,,,,,,,,,133.0,57.0,57.0,133.0,78.0,78.0,2.1,2.12,-191,-270,0,-264,202,281,440.346732378006,440.3468294143677,440.34987211227417,440.36520624160767,440.5123682022095,440.5123682022095,440.5123682022095,440.5123682022095,440.5123682022095,440.5123682022095,440.5123682022095,442.89760398864746,2,2.5253500938415527,None,,,,,,,,,,,,,,,,,,149,2,2025-02-27_14h51.38.783,comp,2024.2.4,None,2025-02-27 14h51.50.372129 -0500,
137,137,0,critical,dhw,20.0,3.0,upper,141.0,141.0,200.0,125.0,125.0,200.0,3,1.9091172218322754,None,,,,,0,0,0,0,0,137,137,57,442.9157166481018,,,,,,,,,,,,,,,,,,,,,,,,,,,,,,,,,,,,,,,,,,,,,,,,,,,,,,,,,,,,,,,,,,,,,,,,,,,,,,,,,141.0,141.0,200.0,125.0,125.0,200.0,3.0,3.2,-229,-262,0,7,258,282,442.89915680885315,442.89923310279846,442.9026074409485,442.9157166481018,443.0630073547363,443.0630073547363,443.0630073547363,443.0630073547363,443.0630073547363,443.0630073547363,443.0630073547363,444.8308699131012,3,1.9091172218322754,None,,,,,,,,,,,,,,,,,,149,2,2025-02-27_14h51.38.783,comp,2024.2.4,None,2025-02-27 14h51.50.372129 -0500,
138,138,0,filler_square,None,None,None,None,None,None,None,None,None,None,1,1.690164566040039,None,,,,,0,0,0,0,0,138,138,182,444.8470709323883,,,,,,,,,,,,,,,,,,,,,,,,,,,,,,,,,,,,,,,,,,,,,,,,,,,,,,,,,,,,,,,,,,,,,,,,,,,,,,,,,107.58179240736251,107.58179240736251,79.58080187784772,74.94999033720254,64.73604485388779,69.938583405583,2.2,2.21,-187,-268,0,262,168,290,444.8326578140259,444.83273577690125,444.836354970932,444.8470709323883,444.99621748924255,444.99621748924255,444.99621748924255,444.99621748924255,444.99621748924255,444.99621748924255,444.99621748924255,446.5482692718506,1,1.690164566040039,None,,,,,,,,,,,,,,,,,,149,2,2025-02-27_14h51.38.783,comp,2024.2.4,None,2025-02-27 14h51.50.372129 -0500,
139,139,0,filler_random,None,None,None,None,None,None,None,None,None,None,1,1.35561203956604,None,,,,,0,0,0,0,0,139,139,138,446.56468200683594,,,,,,,,,,,,,,,,,,,,,,,,,,,,,,,,,,,,,,,,,,,,,,,,,,,,,,,,,,,,,,,,,,,,,,,,,,,,,,,,,170.14147348408267,153.62458465992756,78.88338624958598,176.0704075682609,193.39854697921746,109.47103097734086,3.0,3.1,-261,257,0,14,239,-288,446.5501582622528,446.55024003982544,446.55394172668457,446.56468200683594,446.7151474952698,446.7151474952698,446.7151474952698,446.7151474952698,446.7151474952698,446.7151474952698,446.7151474952698,447.93095421791077,1,1.35561203956604,None,,,,,,,,,,,,,,,,,,149,2,2025-02-27_14h51.38.783,comp,2024.2.4,None,2025-02-27 14h51.50.372129 -0500,
140,140,0,filler_square,None,None,None,None,None,None,None,None,None,None,2,1.0430541038513184,None,,,,,0,0,0,0,0,140,140,206,447.94922161102295,,,,,,,,,,,,,,,,,,,,,,,,,,,,,,,,,,,,,,,,,,,,,,,,,,,,,,,,,,,,,,,,,,,,,,,,,,,,,,,,,70.34252645771906,82.20291671799572,148.20573380566196,148.20573380566196,94.94380105551461,70.53595613116788,2.1,2.12,-211,-278,0,-284,205,273,447.932715177536,447.93281269073486,447.93620681762695,447.94922161102295,448.099351644516,448.099351644516,448.099351644516,448.099351644516,448.099351644516,448.099351644516,448.099351644516,449.00206446647644,2,1.0430541038513184,None,,,,,,,,,,,,,,,,,,149,2,2025-02-27_14h51.38.783,comp,2024.2.4,None,2025-02-27 14h51.50.372129 -0500,
141,141,0,critical,hwd,35.0,4.0,lower,133.0,57.0,57.0,133.0,70.0,70.0,1,2.71040678024292,None,,,,,0,0,0,0,0,141,141,100,449.018892288208,,,,,,,,,,,,,,,,,,,,,,,,,,,,,,,,,,,,,,,,,,,,,,,,,,,,,,,,,,,,,,,,,,,,,,,,,,,,,,,,,133.0,57.0,57.0,133.0,70.0,70.0,4.0,4.2,-191,7,0,-260,198,0,449.0036988258362,449.003849029541,449.00739002227783,449.018892288208,449.1632652282715,449.1632652282715,449.1632652282715,449.1632652282715,449.1632652282715,449.1632652282715,449.1632652282715,451.73448729515076,1,2.71040678024292,None,,,,,,,,,,,,,,,,,,149,2,2025-02-27_14h51.38.783,comp,2024.2.4,None,2025-02-27 14h51.50.372129 -0500,
142,142,0,critical,whd,35.0,4.0,lower,57.0,133.0,133.0,57.0,70.0,70.0,1,2.9764037132263184,None,,,,,0,0,0,0,0,142,142,88,451.7526009082794,,,,,,,,,,,,,,,,,,,,,,,,,,,,,,,,,,,,,,,,,,,,,,,,,,,,,,,,,,,,,,,,,,,,,,,,,,,,,,,,,57.0,133.0,133.0,57.0,70.0,70.0,4.0,4.2,-191,-1,0,-264,160,12,451.73631143569946,451.73638916015625,451.7395534515381,451.7526009082794,451.90039825439453,451.90039825439453,451.90039825439453,451.90039825439453,451.90039825439453,451.90039825439453,451.90039825439453,454.73621582984924,1,2.9764037132263184,None,,,,,,,,,,,,,,,,,,149,2,2025-02-27_14h51.38.783,comp,2024.2.4,None,2025-02-27 14h51.50.372129 -0500,
