thisN,thisTrialN,thisRepN,effect,order,distance,config,diag,h_1,w_1,h_2,w_2,h_3,w_3,rect_choice.keys,rect_choice.rt,rect_choice.duration,instructions_loop.thisRepN,instructions_loop.thisTrialN,instructions_loop.thisN,instructions_loop.thisIndex,blocks.thisRepN,blocks.thisTrialN,blocks.thisN,blocks.thisIndex,trials.thisRepN,trials.thisTrialN,trials.thisN,trials.thisIndex,thisRow.t,notes,consent.started,agree_button.started,decline_button.started,consent_img.started,mouse.started,consent.stopped,agree_button.numClicks,agree_button.timesOn,agree_button.timesOff,decline_button.numClicks,decline_button.timesOn,decline_button.timesOff,mouse.x,mouse.y,mouse.leftButton,mouse.midButton,mouse.rightButton,mouse.time,mouse.clicked_name,exp_params.started,exp_params.stopped,welcome.started,welcome_text.started,welcome.stopped,instructions_1.started,instructions_1_text_1.started,instructions_1_text_2.started,key_resp.started,instructions_1.stopped,instructions_loop.key_resp.keys,instructions_loop.key_resp.rt,instructions_loop.key_resp.duration,instructions_2.started,instructions_2_text_1.started,instructions_2_text_2.started,key_resp_2.started,instructions_2.stopped,instructions_loop.key_resp_2.keys,instructions_loop.key_resp_2.rt,instructions_loop.key_resp_2.duration,instructions_3.started,instructions_3_text_1.started,r1_instr3.started,r2_instr3.started,r3_instr3.started,r1_instr3_label.started,r2_instr3_label.started,r3_instr3_label.started,instructions_3_text_3.started,instructions_3_text_4.started,key_resp_3.started,instructions_3.stopped,instructions_loop.key_resp_3.keys,instructions_loop.key_resp_3.rt,instructions_loop.key_resp_3.duration,instructions_4.started,instructions_4_text_1.started,instructions_4_text_3.started,instructions_4_text_2.started,key_resp_4.started,instructions_4.stopped,instructions_loop.key_resp_4.keys,instructions_loop.key_resp_4.rt,instructions_loop.key_resp_4.duration,instructions_5.started,instructions_5_text_1.started,instructions_5_text_2.started,key_resp_5.started,instructions_5.stopped,instructions_loop.key_resp_5.keys,instructions_loop.key_resp_5.rt,instructions_loop.key_resp_5.duration,start_exp.started,start_exp_text.started,key_resp_6.started,start_exp.stopped,key_resp_6.keys,key_resp_6.rt,key_resp_6.duration,h_1_tmp,w_1_tmp,h_2_tmp,w_2_tmp,h_3_tmp,w_3_tmp,config_tmp,config_tmp_1,r_1_x,r_1_y,r_2_x,r_2_y,r_3_x,r_3_y,pre_trial.started,pre_trial.stopped,choice_trial.started,rect_choice.started,r_1.started,r_2.started,r_3.started,r_1_label.started,r_2_label.started,r_3_label.started,prompt.started,choice_trial.stopped,trials.rect_choice.keys,trials.rect_choice.rt,trials.rect_choice.duration,end_block.started,end_block_text.started,end_block.stopped,end.started,end_text.started,key_resp_7.started,end.stopped,key_resp_7.keys,key_resp_7.rt,key_resp_7.duration,debriefing.started,debrief_form.started,end_debrief.started,debriefing.stopped,end_debrief.keys,end_debrief.rt,end_debrief.duration,participant,computer,date,expName,psychopyVersion,frameRate,expStart,
,,,,,,,,,,,,,,,,,,,,,,,,,,,,,,,0.015592336654663086,0.041929006576538086,0.041929006576538086,0.041929006576538086,0.015109539031982422,3.724276065826416,1,[3.6811087131500244],[3.6811201572418213],0,,,[-94.0],[-513.0],[1],[0],[0],[3.7081196308135986],['agree_button'],,,,,,,,,,,,,,,,,,,,,,,,,,,,,,,,,,,,,,,,,,,,,,,,,,,,,,,,,,,,,,,,,,,,,,,,,,,,,,,,,,,,,,,,,,,,,,,,,,,,,,,,,,,14,3,2025-02-18_14h04.03.515,comp,2024.2.4,60.088593450044414,2025-02-18 14h04.24.411445 -0500,
,,,,,,,,,,,,,,,,,,,,,,,,,,,,,,,,,,,,,,,,,,,,,,,,,,3.7245326042175293,3.7245688438415527,,,,,,,,,,,,,,,,,,,,,,,,,,,,,,,,,,,,,,,,,,,,,,,,,,,,,,,,,,,,,,,,,,,,,,,,,,,,,,,,,,,,,,,,,,,,,,,,,,,,,,,,,14,3,2025-02-18_14h04.03.515,comp,2024.2.4,60.088593450044414,2025-02-18 14h04.24.411445 -0500,
,,,,,,,,,,,,,,,,,,,,,,,,,,,,,,,,,,,,,,,,,,,,,,,,,,,,3.7245917320251465,3.738095283508301,5.7270331382751465,,,,,,,,,,,,,,,,,,,,,,,,,,,,,,,,,,,,,,,,,,,,,,,,,,,,,,,,,,,,,,,,,,,,,,,,,,,,,,,,,,,,,,,,,,,,,,,,,,,,,,14,3,2025-02-18_14h04.03.515,comp,2024.2.4,60.088593450044414,2025-02-18 14h04.24.411445 -0500,
0,0,0,,,,,,,,,,,,,,,0,0,0,0,,,,,,,,,5.743858814239502,,,,,,,,,,,,,,,,,,,,,,,,,,5.727575063705444,5.743858814239502,5.743858814239502,7.227066278457642,8.19548773765564,space,0.9626381397247314,None,8.195571899414062,8.211150169372559,8.211150169372559,9.710368394851685,14.178277969360352,space,4.45473837852478,None,14.178363561630249,14.200263500213623,14.200263500213623,14.200263500213623,14.200263500213623,14.200263500213623,14.200263500213623,14.200263500213623,14.200263500213623,14.200263500213623,15.677358627319336,17.91190481185913,space,2.216974973678589,None,17.911993503570557,17.927274703979492,17.927274703979492,17.927274703979492,19.42704963684082,19.594772577285767,space,0.1534891128540039,None,19.594879150390625,19.610410928726196,19.610410928726196,21.110279321670532,21.72829532623291,space,0.6167676448822021,None,21.728406190872192,21.7437527179718,21.7437527179718,23.37785816192627,space,1.6212375164031982,None,,,,,,,,,,,,,,,,,,,,,,,,,,,,,,,,,,,,,,,,,,,,,,,14,3,2025-02-18_14h04.03.515,comp,2024.2.4,60.088593450044414,2025-02-18 14h04.24.411445 -0500,
0,0,0,filler_random,None,None,None,None,None,None,None,None,None,None,1,5.614761590957642,None,,,,,0,0,0,0,0,0,0,139,23.438419818878174,,,,,,,,,,,,,,,,,,,,,,,,,,,,,,,,,,,,,,,,,,,,,,,,,,,,,,,,,,,,,,,,,,,,,,,,,,,,,,,,,140.01850118044263,174.63344117615208,76.48887653424148,67.64402061061612,76.3716189572826,167.11989486041512,1.0,1.1,-697,286,-480,268,-267,269,23.424970388412476,23.425018072128296,23.42707920074463,23.438419818878174,23.58343267440796,23.58343267440796,23.58343267440796,23.58343267440796,23.58343267440796,23.58343267440796,23.58343267440796,29.061455488204956,1,5.614761590957642,None,,,,,,,,,,,,,,,,,,14,3,2025-02-18_14h04.03.515,comp,2024.2.4,60.088593450044414,2025-02-18 14h04.24.411445 -0500,
1,1,0,filler_square,None,None,None,None,None,None,None,None,None,None,1,1.4251699447631836,None,,,,,0,0,0,0,0,1,1,171,29.07695460319519,,,,,,,,,,,,,,,,,,,,,,,,,,,,,,,,,,,,,,,,,,,,,,,,,,,,,,,,,,,,,,,,,,,,,,,,,,,,,,,,,160.317633497439,160.317633497439,152.2937173261085,79.68863166687004,132.55088344874946,115.53152024648324,4.0,4.2,-216,1,0,-269,194,-16,29.062570333480835,29.062612771987915,29.065205097198486,29.07695460319519,29.226886987686157,29.226886987686157,29.226886987686157,29.226886987686157,29.226886987686157,29.226886987686157,29.226886987686157,30.511415719985962,1,1.4251699447631836,None,,,,,,,,,,,,,,,,,,14,3,2025-02-18_14h04.03.515,comp,2024.2.4,60.088593450044414,2025-02-18 14h04.24.411445 -0500,
2,2,0,critical,wdh,20.0,4.0,upper,125.0,200.0,141.0,141.0,200.0,125.0,1,2.2378177642822266,None,,,,,0,0,0,0,0,2,2,83,30.52704906463623,,,,,,,,,,,,,,,,,,,,,,,,,,,,,,,,,,,,,,,,,,,,,,,,,,,,,,,,,,,,,,,,,,,,,,,,,,,,,,,,,125.0,200.0,141.0,141.0,200.0,125.0,4.0,4.2,-266,4,0,-251,229,-9,30.512202262878418,30.512243509292603,30.51464033126831,30.52704906463623,30.677021980285645,30.677021980285645,30.677021980285645,30.677021980285645,30.677021980285645,30.677021980285645,30.677021980285645,32.77818059921265,1,2.2378177642822266,None,,,,,,,,,,,,,,,,,,14,3,2025-02-18_14h04.03.515,comp,2024.2.4,60.088593450044414,2025-02-18 14h04.24.411445 -0500,
3,3,0,critical,hwd,35.0,1.0,lower,133.0,57.0,57.0,133.0,70.0,70.0,1,9.627591609954834,None,,,,,0,0,0,0,0,3,3,96,32.793479204177856,,,,,,,,,,,,,,,,,,,,,,,,,,,,,,,,,,,,,,,,,,,,,,,,,,,,,,,,,,,,,,,,,,,,,,,,,,,,,,,,,133.0,57.0,57.0,133.0,70.0,70.0,1.0,1.1,-671,287,-480,275,-282,258,32.778987646102905,32.779027462005615,32.781506061553955,32.793479204177856,32.943533182144165,32.943533182144165,32.943533182144165,32.943533182144165,32.943533182144165,32.943533182144165,32.943533182144165,42.42794370651245,1,9.627591609954834,None,,,,,,,,,,,,,,,,,,14,3,2025-02-18_14h04.03.515,comp,2024.2.4,60.088593450044414,2025-02-18 14h04.24.411445 -0500,
4,4,0,critical,whd,20.0,1.0,lower,57.0,133.0,133.0,57.0,78.0,78.0,2,1.7046444416046143,None,,,,,0,0,0,0,0,4,4,90,42.44360876083374,,,,,,,,,,,,,,,,,,,,,,,,,,,,,,,,,,,,,,,,,,,,,,,,,,,,,,,,,,,,,,,,,,,,,,,,,,,,,,,,,57.0,133.0,133.0,57.0,78.0,78.0,1.0,1.3,289,-275,480,-271,644,-278,42.42873191833496,42.428773403167725,42.43091869354248,42.44360876083374,42.59339714050293,42.59339714050293,42.59339714050293,42.59339714050293,42.59339714050293,42.59339714050293,42.59339714050293,44.16144156455994,2,1.7046444416046143,None,,,,,,,,,,,,,,,,,,14,3,2025-02-18_14h04.03.515,comp,2024.2.4,60.088593450044414,2025-02-18 14h04.24.411445 -0500,
5,5,0,critical,hwd,35.0,2.1,lower,133.0,57.0,57.0,133.0,70.0,70.0,1,3.8833627700805664,None,,,,,0,0,0,0,0,5,5,40,44.17711639404297,,,,,,,,,,,,,,,,,,,,,,,,,,,,,,,,,,,,,,,,,,,,,,,,,,,,,,,,,,,,,,,,,,,,,,,,,,,,,,,,,133.0,57.0,57.0,133.0,70.0,70.0,2.1,2.12,-191,-275,0,-266,198,290,44.16227149963379,44.16231369972229,44.16577649116516,44.17711639404297,44.326756954193115,44.326756954193115,44.326756954193115,44.326756954193115,44.326756954193115,44.326756954193115,44.326756954193115,48.07793354988098,1,3.8833627700805664,None,,,,,,,,,,,,,,,,,,14,3,2025-02-18_14h04.03.515,comp,2024.2.4,60.088593450044414,2025-02-18 14h04.24.411445 -0500,
6,6,0,filler_random,None,None,None,None,None,None,None,None,None,None,3,1.8714063167572021,None,,,,,0,0,0,0,0,6,6,136,48.09331750869751,,,,,,,,,,,,,,,,,,,,,,,,,,,,,,,,,,,,,,,,,,,,,,,,,,,,,,,,,,,,,,,,,,,,,,,,,,,,,,,,,156.40621183468568,111.88612212026585,76.08641082192565,164.57691304108343,158.44708921186455,165.39841949504523,2.2,2.22,-234,252,0,-265,261,-262,48.07887554168701,48.07891607284546,48.081005573272705,48.09331750869751,48.243536710739136,48.243536710739136,48.243536710739136,48.243536710739136,48.243536710739136,48.243536710739136,48.243536710739136,49.977999210357666,3,1.8714063167572021,None,,,,,,,,,,,,,,,,,,14,3,2025-02-18_14h04.03.515,comp,2024.2.4,60.088593450044414,2025-02-18 14h04.24.411445 -0500,
7,7,0,critical,wdh,35.0,2.1,upper,125.0,200.0,127.0,127.0,200.0,125.0,1,2.643702745437622,None,,,,,0,0,0,0,0,7,7,33,49.993271589279175,,,,,,,,,,,,,,,,,,,,,,,,,,,,,,,,,,,,,,,,,,,,,,,,,,,,,,,,,,,,,,,,,,,,,,,,,,,,,,,,,125.0,200.0,127.0,127.0,200.0,125.0,2.1,2.12,-260,-279,0,-275,222,254,49.97881054878235,49.97885322570801,49.98205542564392,49.993271589279175,50.14356064796448,50.14356064796448,50.14356064796448,50.14356064796448,50.14356064796448,50.14356064796448,50.14356064796448,52.644755125045776,1,2.643702745437622,None,,,,,,,,,,,,,,,,,,14,3,2025-02-18_14h04.03.515,comp,2024.2.4,60.088593450044414,2025-02-18 14h04.24.411445 -0500,
8,8,0,filler_random,None,None,None,None,None,None,None,None,None,None,2,1.3286662101745605,None,,,,,0,0,0,0,0,8,8,152,52.66030716896057,,,,,,,,,,,,,,,,,,,,,,,,,,,,,,,,,,,,,,,,,,,,,,,,,,,,,,,,,,,,,,,,,,,,,,,,,,,,,,,,,110.44893104038559,163.4813416903231,191.6716811251585,182.9047417118773,130.66804739070733,165.57363418604555,2.2,2.21,-269,-286,0,289,270,265,52.645708084106445,52.645750761032104,52.648123025894165,52.66030716896057,52.81029486656189,52.81029486656189,52.81029486656189,52.81029486656189,52.81029486656189,52.81029486656189,52.81029486656189,53.99467206001282,2,1.3286662101745605,None,,,,,,,,,,,,,,,,,,14,3,2025-02-18_14h04.03.515,comp,2024.2.4,60.088593450044414,2025-02-18 14h04.24.411445 -0500,
9,9,0,critical,hdw,35.0,1.0,lower,133.0,57.0,70.0,70.0,57.0,133.0,3,1.6834757328033447,None,,,,,0,0,0,0,0,9,9,108,54.0101432800293,,,,,,,,,,,,,,,,,,,,,,,,,,,,,,,,,,,,,,,,,,,,,,,,,,,,,,,,,,,,,,,,,,,,,,,,,,,,,,,,,133.0,57.0,70.0,70.0,57.0,133.0,1.0,1.2,-160,16,0,1,198,0,53.99544930458069,53.99548864364624,53.99765968322754,54.0101432800293,54.159908056259155,54.159908056259155,54.159908056259155,54.159908056259155,54.159908056259155,54.159908056259155,54.159908056259155,55.7112250328064,3,1.6834757328033447,None,,,,,,,,,,,,,,,,,,14,3,2025-02-18_14h04.03.515,comp,2024.2.4,60.088593450044414,2025-02-18 14h04.24.411445 -0500,
10,10,0,filler_square,None,None,None,None,None,None,None,None,None,None,1,3.485610008239746,None,,,,,0,0,0,0,0,10,10,199,55.72657752037048,,,,,,,,,,,,,,,,,,,,,,,,,,,,,,,,,,,,,,,,,,,,,,,,,,,,,,,,,,,,,,,,,,,,,,,,,,,,,,,,,101.43406377228851,101.43406377228851,79.47595558098982,81.48473151071612,100.37470382108171,59.5812820038875,1.0,1.1,-667,275,-480,274,-313,268,55.71215629577637,55.71219491958618,55.714585304260254,55.72657752037048,55.876681327819824,55.876681327819824,55.876681327819824,55.876681327819824,55.876681327819824,55.876681327819824,55.876681327819824,59.22768545150757,1,3.485610008239746,None,,,,,,,,,,,,,,,,,,14,3,2025-02-18_14h04.03.515,comp,2024.2.4,60.088593450044414,2025-02-18 14h04.24.411445 -0500,
11,11,0,filler_square,None,None,None,None,None,None,None,None,None,None,1,1.5457239151000977,None,,,,,0,0,0,0,0,11,11,205,59.243163108825684,,,,,,,,,,,,,,,,,,,,,,,,,,,,,,,,,,,,,,,,,,,,,,,,,,,,,,,,,,,,,,,,,,,,,,,,,,,,,,,,,93.82343011777652,93.82343011777652,80.0294159163826,75.789265945888,87.0939261487735,68.15608607876844,2.2,2.21,-181,-285,0,284,168,275,59.228638887405396,59.22868037223816,59.23066282272339,59.243163108825684,59.393364667892456,59.393364667892456,59.393364667892456,59.393364667892456,59.393364667892456,59.393364667892456,59.393364667892456,60.794811725616455,1,1.5457239151000977,None,,,,,,,,,,,,,,,,,,14,3,2025-02-18_14h04.03.515,comp,2024.2.4,60.088593450044414,2025-02-18 14h04.24.411445 -0500,
12,12,0,filler_square,None,None,None,None,None,None,None,None,None,None,1,1.716498851776123,None,,,,,0,0,0,0,0,12,12,186,60.81009912490845,,,,,,,,,,,,,,,,,,,,,,,,,,,,,,,,,,,,,,,,,,,,,,,,,,,,,,,,,,,,,,,,,,,,,,,,,,,,,,,,,114.73764164584935,114.73764164584935,69.22132357012939,107.9768768083105,92.20259270719686,101.43805975316265,2.1,2.12,-207,-282,0,-263,201,281,60.795722246170044,60.795761823654175,60.79833436012268,60.81009912490845,60.96011185646057,60.96011185646057,60.96011185646057,60.96011185646057,60.96011185646057,60.96011185646057,60.96011185646057,62.52795052528381,1,1.716498851776123,None,,,,,,,,,,,,,,,,,,14,3,2025-02-18_14h04.03.515,comp,2024.2.4,60.088593450044414,2025-02-18 14h04.24.411445 -0500,
13,13,0,critical,dhw,20.0,1.0,upper,141.0,141.0,200.0,125.0,125.0,200.0,3,3.0773332118988037,None,,,,,0,0,0,0,0,13,13,55,62.5435311794281,,,,,,,,,,,,,,,,,,,,,,,,,,,,,,,,,,,,,,,,,,,,,,,,,,,,,,,,,,,,,,,,,,,,,,,,,,,,,,,,,141.0,141.0,200.0,125.0,125.0,200.0,1.0,1.3,251,-265,480,-268,738,-271,62.52873682975769,62.528777837753296,62.53092861175537,62.5435311794281,62.69345259666443,62.69345259666443,62.69345259666443,62.69345259666443,62.69345259666443,62.69345259666443,62.69345259666443,65.6279137134552,3,3.0773332118988037,None,,,,,,,,,,,,,,,,,,14,3,2025-02-18_14h04.03.515,comp,2024.2.4,60.088593450044414,2025-02-18 14h04.24.411445 -0500,
14,14,0,critical,hwd,20.0,1.0,lower,133.0,57.0,57.0,133.0,78.0,78.0,2,2.784419298171997,None,,,,,0,0,0,0,0,14,14,102,65.6436996459961,,,,,,,,,,,,,,,,,,,,,,,,,,,,,,,,,,,,,,,,,,,,,,,,,,,,,,,,,,,,,,,,,,,,,,,,,,,,,,,,,133.0,57.0,57.0,133.0,78.0,78.0,1.0,1.2,-191,16,0,7,202,18,65.62867069244385,65.62871193885803,65.63089561462402,65.6436996459961,65.79336452484131,65.79336452484131,65.79336452484131,65.79336452484131,65.79336452484131,65.79336452484131,65.79336452484131,68.44430375099182,2,2.784419298171997,None,,,,,,,,,,,,,,,,,,14,3,2025-02-18_14h04.03.515,comp,2024.2.4,60.088593450044414,2025-02-18 14h04.24.411445 -0500,
15,15,0,critical,whd,35.0,2.1,lower,57.0,133.0,133.0,57.0,70.0,70.0,1,3.4988691806793213,None,,,,,0,0,0,0,0,15,15,36,68.45976376533508,,,,,,,,,,,,,,,,,,,,,,,,,,,,,,,,,,,,,,,,,,,,,,,,,,,,,,,,,,,,,,,,,,,,,,,,,,,,,,,,,57.0,133.0,133.0,57.0,70.0,70.0,2.1,2.12,-191,-271,0,-273,160,266,68.44510674476624,68.44514656066895,68.44762873649597,68.45976376533508,68.6098861694336,68.6098861694336,68.6098861694336,68.6098861694336,68.6098861694336,68.6098861694336,68.6098861694336,71.9610869884491,1,3.4988691806793213,None,,,,,,,,,,,,,,,,,,14,3,2025-02-18_14h04.03.515,comp,2024.2.4,60.088593450044414,2025-02-18 14h04.24.411445 -0500,
16,16,0,critical,dhw,20.0,3.0,lower,78.0,78.0,133.0,57.0,57.0,133.0,3,1.3968946933746338,None,,,,,0,0,0,0,0,16,16,56,71.97684383392334,,,,,,,,,,,,,,,,,,,,,,,,,,,,,,,,,,,,,,,,,,,,,,,,,,,,,,,,,,,,,,,,,,,,,,,,,,,,,,,,,78.0,78.0,133.0,57.0,57.0,133.0,3.0,3.1,-164,260,0,0,191,-270,71.96187448501587,71.96191596984863,71.9643304347992,71.97684383392334,72.12645530700684,72.12645530700684,72.12645530700684,72.12645530700684,72.12645530700684,72.12645530700684,72.12645530700684,73.37788677215576,3,1.3968946933746338,None,,,,,,,,,,,,,,,,,,14,3,2025-02-18_14h04.03.515,comp,2024.2.4,60.088593450044414,2025-02-18 14h04.24.411445 -0500,
17,17,0,critical,dwh,35.0,1.0,upper,127.0,127.0,125.0,200.0,200.0,125.0,2,2.1491832733154297,None,,,,,0,0,0,0,0,17,17,61,73.39327573776245,,,,,,,,,,,,,,,,,,,,,,,,,,,,,,,,,,,,,,,,,,,,,,,,,,,,,,,,,,,,,,,,,,,,,,,,,,,,,,,,,127.0,127.0,125.0,200.0,200.0,125.0,1.0,1.2,-260,19,0,6,258,-19,73.37865495681763,73.37869596481323,73.38101148605347,73.39327573776245,73.54343914985657,73.54343914985657,73.54343914985657,73.54343914985657,73.54343914985657,73.54343914985657,73.54343914985657,75.54462480545044,2,2.1491832733154297,None,,,,,,,,,,,,,,,,,,14,3,2025-02-18_14h04.03.515,comp,2024.2.4,60.088593450044414,2025-02-18 14h04.24.411445 -0500,
18,18,0,filler_square,None,None,None,None,None,None,None,None,None,None,2,1.171928882598877,None,,,,,0,0,0,0,0,18,18,172,75.55996441841125,,,,,,,,,,,,,,,,,,,,,,,,,,,,,,,,,,,,,,,,,,,,,,,,,,,,,,,,,,,,,,,,,,,,,,,,,,,,,,,,,77.68887896878964,134.26751190729783,188.9373340602679,188.9373340602679,155.87649659589445,185.56825759909364,1.0,1.2,-258,13,0,-1,283,17,75.54560351371765,75.54564619064331,75.54832124710083,75.55996441841125,75.71004557609558,75.71004557609558,75.71004557609558,75.71004557609558,75.71004557609558,75.71004557609558,75.71004557609558,76.74455571174622,2,1.171928882598877,None,,,,,,,,,,,,,,,,,,14,3,2025-02-18_14h04.03.515,comp,2024.2.4,60.088593450044414,2025-02-18 14h04.24.411445 -0500,
19,19,0,filler_square,None,None,None,None,None,None,None,None,None,None,1,1.4049084186553955,None,,,,,0,0,0,0,0,19,19,189,76.75965595245361,,,,,,,,,,,,,,,,,,,,,,,,,,,,,,,,,,,,,,,,,,,,,,,,,,,,,,,,,,,,,,,,,,,,,,,,,,,,,,,,,92.60476292211439,92.60476292211439,84.02018011839465,72.4559093805205,75.55758308523835,67.40046322332488,2.2,2.21,-179,-283,0,287,166,284,76.74554300308228,76.74558544158936,76.74823021888733,76.75965595245361,76.90986132621765,76.90986132621765,76.90986132621765,76.90986132621765,76.90986132621765,76.90986132621765,76.90986132621765,78.17751669883728,1,1.4049084186553955,None,,,,,,,,,,,,,,,,,,14,3,2025-02-18_14h04.03.515,comp,2024.2.4,60.088593450044414,2025-02-18 14h04.24.411445 -0500,
20,20,0,critical,dhw,35.0,1.0,lower,70.0,70.0,133.0,57.0,57.0,133.0,2,1.5715887546539307,None,,,,,0,0,0,0,0,20,20,48,78.19295191764832,,,,,,,,,,,,,,,,,,,,,,,,,,,,,,,,,,,,,,,,,,,,,,,,,,,,,,,,,,,,,,,,,,,,,,,,,,,,,,,,,70.0,70.0,133.0,57.0,57.0,133.0,1.0,1.1,-640,260,-480,255,-289,264,78.1783275604248,78.17836833000183,78.18095111846924,78.19295191764832,78.34308290481567,78.34308290481567,78.34308290481567,78.34308290481567,78.34308290481567,78.34308290481567,78.34308290481567,79.77765130996704,2,1.5715887546539307,None,,,,,,,,,,,,,,,,,,14,3,2025-02-18_14h04.03.515,comp,2024.2.4,60.088593450044414,2025-02-18 14h04.24.411445 -0500,
21,21,0,critical,whd,20.0,3.0,lower,57.0,133.0,133.0,57.0,78.0,78.0,1,1.450765609741211,None,,,,,0,0,0,0,0,21,21,92,79.7931900024414,,,,,,,,,,,,,,,,,,,,,,,,,,,,,,,,,,,,,,,,,,,,,,,,,,,,,,,,,,,,,,,,,,,,,,,,,,,,,,,,,57.0,133.0,133.0,57.0,78.0,78.0,3.0,3.2,-191,-276,0,7,164,289,79.77846193313599,79.77850294113159,79.78112125396729,79.7931900024414,79.9431779384613,79.9431779384613,79.9431779384613,79.9431779384613,79.9431779384613,79.9431779384613,79.9431779384613,81.2608995437622,1,1.450765609741211,None,,,,,,,,,,,,,,,,,,14,3,2025-02-18_14h04.03.515,comp,2024.2.4,60.088593450044414,2025-02-18 14h04.24.411445 -0500,
22,22,0,critical,dwh,35.0,2.1,lower,70.0,70.0,57.0,133.0,133.0,57.0,2,0.9925649166107178,None,,,,,0,0,0,0,0,22,22,28,81.27629566192627,,,,,,,,,,,,,,,,,,,,,,,,,,,,,,,,,,,,,,,,,,,,,,,,,,,,,,,,,,,,,,,,,,,,,,,,,,,,,,,,,70.0,70.0,57.0,133.0,133.0,57.0,2.1,2.12,-198,-283,0,-283,191,278,81.26170301437378,81.26174402236938,81.26420617103577,81.27629566192627,81.4264669418335,81.4264669418335,81.4264669418335,81.4264669418335,81.4264669418335,81.4264669418335,81.4264669418335,82.27765154838562,2,0.9925649166107178,None,,,,,,,,,,,,,,,,,,14,3,2025-02-18_14h04.03.515,comp,2024.2.4,60.088593450044414,2025-02-18 14h04.24.411445 -0500,
23,23,0,filler_square,None,None,None,None,None,None,None,None,None,None,3,1.2003405094146729,None,,,,,0,0,0,0,0,23,23,187,82.29334425926208,,,,,,,,,,,,,,,,,,,,,,,,,,,,,,,,,,,,,,,,,,,,,,,,,,,,,,,,,,,,,,,,,,,,,,,,,,,,,,,,,82.10000836377093,92.69810744495467,119.57568816069097,70.04048825777963,174.71214275720152,174.71214275720152,2.1,2.11,-177,278,0,253,218,-280,82.27866983413696,82.27871203422546,82.28125357627869,82.29334425926208,82.44324779510498,82.44324779510498,82.44324779510498,82.44324779510498,82.44324779510498,82.44324779510498,82.44324779510498,83.51117777824402,3,1.2003405094146729,None,,,,,,,,,,,,,,,,,,14,3,2025-02-18_14h04.03.515,comp,2024.2.4,60.088593450044414,2025-02-18 14h04.24.411445 -0500,
24,24,0,filler_random,None,None,None,None,None,None,None,None,None,None,2,1.310513973236084,None,,,,,0,0,0,0,0,24,24,161,83.52632212638855,,,,,,,,,,,,,,,,,,,,,,,,,,,,,,,,,,,,,,,,,,,,,,,,,,,,,,,,,,,,,,,,,,,,,,,,,,,,,,,,,73.29494775878783,181.9346942474275,170.35339540420517,137.94414841958988,197.0200578164438,99.29004758464377,4.0,4.2,-256,-7,0,-289,215,-18,83.51211428642273,83.51215553283691,83.51457619667053,83.52632212638855,83.67654371261597,83.67654371261597,83.67654371261597,83.67654371261597,83.67654371261597,83.67654371261597,83.67654371261597,84.84445667266846,2,1.310513973236084,None,,,,,,,,,,,,,,,,,,14,3,2025-02-18_14h04.03.515,comp,2024.2.4,60.088593450044414,2025-02-18 14h04.24.411445 -0500,
25,25,0,critical,dhw,35.0,4.0,upper,127.0,127.0,200.0,125.0,125.0,200.0,3,1.6249208450317383,None,,,,,0,0,0,0,0,25,25,53,84.86002039909363,,,,,,,,,,,,,,,,,,,,,,,,,,,,,,,,,,,,,,,,,,,,,,,,,,,,,,,,,,,,,,,,,,,,,,,,,,,,,,,,,127.0,127.0,200.0,125.0,125.0,200.0,4.0,4.2,-222,-2,0,-282,258,-5,84.84526777267456,84.84531044960022,84.84781503677368,84.86002039909363,85.009938955307,85.009938955307,85.009938955307,85.009938955307,85.009938955307,85.009938955307,85.009938955307,86.49446845054626,3,1.6249208450317383,None,,,,,,,,,,,,,,,,,,14,3,2025-02-18_14h04.03.515,comp,2024.2.4,60.088593450044414,2025-02-18 14h04.24.411445 -0500,
26,26,0,critical,dhw,35.0,3.0,upper,127.0,127.0,200.0,125.0,125.0,200.0,3,1.5670115947723389,None,,,,,0,0,0,0,0,26,26,51,86.50992178916931,,,,,,,,,,,,,,,,,,,,,,,,,,,,,,,,,,,,,,,,,,,,,,,,,,,,,,,,,,,,,,,,,,,,,,,,,,,,,,,,,127.0,127.0,200.0,125.0,125.0,200.0,3.0,3.1,-222,280,0,-12,258,-288,86.49525785446167,86.49529838562012,86.49794888496399,86.50992178916931,86.66000938415527,86.66000938415527,86.66000938415527,86.66000938415527,86.66000938415527,86.66000938415527,86.66000938415527,88.09429812431335,3,1.5670115947723389,None,,,,,,,,,,,,,,,,,,14,3,2025-02-18_14h04.03.515,comp,2024.2.4,60.088593450044414,2025-02-18 14h04.24.411445 -0500,
27,27,0,filler_random,None,None,None,None,None,None,None,None,None,None,2,1.438138723373413,None,,,,,0,0,0,0,0,27,27,144,88.10966944694519,,,,,,,,,,,,,,,,,,,,,,,,,,,,,,,,,,,,,,,,,,,,,,,,,,,,,,,,,,,,,,,,,,,,,,,,,,,,,,,,,74.2958415115672,67.76908175056596,198.33046859484455,170.85774831671569,188.18134271945678,149.27168036712206,1.0,1.2,-215,4,0,6,256,19,88.0952501296997,88.09529113769531,88.09783101081848,88.10966944694519,88.260089635849,88.260089635849,88.260089635849,88.260089635849,88.260089635849,88.260089635849,88.260089635849,89.5610818862915,2,1.438138723373413,None,,,,,,,,,,,,,,,,,,14,3,2025-02-18_14h04.03.515,comp,2024.2.4,60.088593450044414,2025-02-18 14h04.24.411445 -0500,
28,28,0,catch,None,None,None,None,None,None,None,None,None,None,1,1.1827173233032227,None,,,,,0,0,0,0,0,28,28,125,89.57627534866333,,,,,,,,,,,,,,,,,,,,,,,,,,,,,,,,,,,,,,,,,,,,,,,,,,,,,,,,,,,,,,,,,,,,,,,,,,,,,,,,,146,179,112,78,119,71,2.2,2.21,-224,-260,0,258,170,268,89.56212830543518,89.56216883659363,89.56459832191467,89.57627534866333,89.72663569450378,89.72663569450378,89.72663569450378,89.72663569450378,89.72663569450378,89.72663569450378,89.72663569450378,90.76106023788452,1,1.1827173233032227,None,,,,,,,,,,,,,,,,,,14,3,2025-02-18_14h04.03.515,comp,2024.2.4,60.088593450044414,2025-02-18 14h04.24.411445 -0500,
29,29,0,critical,wdh,35.0,3.0,upper,125.0,200.0,127.0,127.0,200.0,125.0,1,1.5816388130187988,None,,,,,0,0,0,0,0,29,29,75,90.77647757530212,,,,,,,,,,,,,,,,,,,,,,,,,,,,,,,,,,,,,,,,,,,,,,,,,,,,,,,,,,,,,,,,,,,,,,,,,,,,,,,,,125.0,200.0,127.0,127.0,200.0,125.0,3.0,3.1,-260,251,0,-5,222,-258,90.76188325881958,90.76192593574524,90.76411390304565,90.77647757530212,90.92659902572632,90.92659902572632,90.92659902572632,90.92659902572632,90.92659902572632,90.92659902572632,90.92659902572632,92.36109972000122,1,1.5816388130187988,None,,,,,,,,,,,,,,,,,,14,3,2025-02-18_14h04.03.515,comp,2024.2.4,60.088593450044414,2025-02-18 14h04.24.411445 -0500,
30,30,0,critical,wdh,35.0,1.0,lower,57.0,133.0,70.0,70.0,133.0,57.0,1,1.7821605205535889,None,,,,,0,0,0,0,0,30,30,72,92.37650203704834,,,,,,,,,,,,,,,,,,,,,,,,,,,,,,,,,,,,,,,,,,,,,,,,,,,,,,,,,,,,,,,,,,,,,,,,,,,,,,,,,57.0,133.0,70.0,70.0,133.0,57.0,1.0,1.2,-198,-8,0,19,160,-4,92.3618688583374,92.36190819740295,92.36422491073608,92.37650203704834,92.52630567550659,92.52630567550659,92.52630567550659,92.52630567550659,92.52630567550659,92.52630567550659,92.52630567550659,94.1608338356018,1,1.7821605205535889,None,,,,,,,,,,,,,,,,,,14,3,2025-02-18_14h04.03.515,comp,2024.2.4,60.088593450044414,2025-02-18 14h04.24.411445 -0500,
31,31,0,filler_random,None,None,None,None,None,None,None,None,None,None,3,1.0282201766967773,None,,,,,0,0,0,0,0,31,31,150,94.17646050453186,,,,,,,,,,,,,,,,,,,,,,,,,,,,,,,,,,,,,,,,,,,,,,,,,,,,,,,,,,,,,,,,,,,,,,,,,,,,,,,,,109.89851984173393,126.13979970654229,175.07068444294418,96.07639051385564,192.40615276917575,164.88011020144484,2.1,2.12,-207,-264,0,-269,226,253,94.16173100471497,94.16177129745483,94.16387629508972,94.17646050453186,94.32655310630798,94.32655310630798,94.32655310630798,94.32655310630798,94.32655310630798,94.32655310630798,94.32655310630798,95.21105408668518,3,1.0282201766967773,None,,,,,,,,,,,,,,,,,,14,3,2025-02-18_14h04.03.515,comp,2024.2.4,60.088593450044414,2025-02-18 14h04.24.411445 -0500,
32,32,0,filler_square,None,None,None,None,None,None,None,None,None,None,3,1.547133445739746,None,,,,,0,0,0,0,0,32,32,206,95.22651696205139,,,,,,,,,,,,,,,,,,,,,,,,,,,,,,,,,,,,,,,,,,,,,,,,,,,,,,,,,,,,,,,,,,,,,,,,,,,,,,,,,83.14837180634217,96.22073498827439,85.32422801995219,62.22127335018041,96.54546111551636,96.54546111551636,4.0,4.1,-175,-288,0,-4,175,-289,95.2120246887207,95.21206617355347,95.2145140171051,95.22651696205139,95.37629246711731,95.37629246711731,95.37629246711731,95.37629246711731,95.37629246711731,95.37629246711731,95.37629246711731,96.77773690223694,3,1.547133445739746,None,,,,,,,,,,,,,,,,,,14,3,2025-02-18_14h04.03.515,comp,2024.2.4,60.088593450044414,2025-02-18 14h04.24.411445 -0500,
33,33,0,critical,dwh,20.0,1.0,lower,78.0,78.0,57.0,133.0,133.0,57.0,2,1.7079639434814453,None,,,,,0,0,0,0,0,33,33,66,96.79327821731567,,,,,,,,,,,,,,,,,,,,,,,,,,,,,,,,,,,,,,,,,,,,,,,,,,,,,,,,,,,,,,,,,,,,,,,,,,,,,,,,,78.0,78.0,57.0,133.0,133.0,57.0,1.0,1.2,-202,-11,0,0,191,12,96.77852153778076,96.77856302261353,96.7810537815094,96.79327821731567,96.94293236732483,96.94293236732483,96.94293236732483,96.94293236732483,96.94293236732483,96.94293236732483,96.94293236732483,98.51090168952942,2,1.7079639434814453,None,,,,,,,,,,,,,,,,,,14,3,2025-02-18_14h04.03.515,comp,2024.2.4,60.088593450044414,2025-02-18 14h04.24.411445 -0500,
34,34,0,critical,dwh,20.0,4.0,lower,78.0,78.0,57.0,133.0,133.0,57.0,2,1.383336067199707,None,,,,,0,0,0,0,0,34,34,70,98.52646088600159,,,,,,,,,,,,,,,,,,,,,,,,,,,,,,,,,,,,,,,,,,,,,,,,,,,,,,,,,,,,,,,,,,,,,,,,,,,,,,,,,78.0,78.0,57.0,133.0,133.0,57.0,4.0,4.2,-202,4,0,-275,191,-3,98.51165342330933,98.51169466972351,98.51399445533752,98.52646088600159,98.67631077766418,98.67631077766418,98.67631077766418,98.67631077766418,98.67631077766418,98.67631077766418,98.67631077766418,99.9275381565094,2,1.383336067199707,None,,,,,,,,,,,,,,,,,,14,3,2025-02-18_14h04.03.515,comp,2024.2.4,60.088593450044414,2025-02-18 14h04.24.411445 -0500,
35,35,0,critical,whd,20.0,3.0,upper,125.0,200.0,200.0,125.0,141.0,141.0,1,1.5999479293823242,None,,,,,0,0,0,0,0,35,35,93,99.9429042339325,,,,,,,,,,,,,,,,,,,,,,,,,,,,,,,,,,,,,,,,,,,,,,,,,,,,,,,,,,,,,,,,,,,,,,,,,,,,,,,,,125.0,200.0,200.0,125.0,141.0,141.0,3.0,3.1,-258,255,0,1,229,-272,99.92832803726196,99.92836689949036,99.93091750144958,99.9429042339325,100.09321093559265,100.09321093559265,100.09321093559265,100.09321093559265,100.09321093559265,100.09321093559265,100.09321093559265,101.54461812973022,1,1.5999479293823242,None,,,,,,,,,,,,,,,,,,14,3,2025-02-18_14h04.03.515,comp,2024.2.4,60.088593450044414,2025-02-18 14h04.24.411445 -0500,
36,36,0,critical,hwd,35.0,4.0,lower,133.0,57.0,57.0,133.0,70.0,70.0,2,1.155909538269043,None,,,,,0,0,0,0,0,36,36,100,101.55978727340698,,,,,,,,,,,,,,,,,,,,,,,,,,,,,,,,,,,,,,,,,,,,,,,,,,,,,,,,,,,,,,,,,,,,,,,,,,,,,,,,,133.0,57.0,57.0,133.0,70.0,70.0,4.0,4.2,-191,-7,0,-278,198,-15,101.545419216156,101.54546093940735,101.54753518104553,101.55978727340698,101.70978426933289,101.70978426933289,101.70978426933289,101.70978426933289,101.70978426933289,101.70978426933289,101.70978426933289,102.72768592834473,2,1.155909538269043,None,,,,,,,,,,,,,,,,,,14,3,2025-02-18_14h04.03.515,comp,2024.2.4,60.088593450044414,2025-02-18 14h04.24.411445 -0500,
37,37,0,critical,whd,20.0,4.0,lower,57.0,133.0,133.0,57.0,78.0,78.0,2,1.4301304817199707,None,,,,,0,0,0,0,0,37,37,94,102.74326705932617,,,,,,,,,,,,,,,,,,,,,,,,,,,,,,,,,,,,,,,,,,,,,,,,,,,,,,,,,,,,,,,,,,,,,,,,,,,,,,,,,57.0,133.0,133.0,57.0,78.0,78.0,4.0,4.2,-191,19,0,-265,164,-12,102.72854423522949,102.72858428955078,102.73112559318542,102.74326705932617,102.8928611278534,102.8928611278534,102.8928611278534,102.8928611278534,102.8928611278534,102.8928611278534,102.8928611278534,104.17753577232361,2,1.4301304817199707,None,,,,,,,,,,,,,,,,,,14,3,2025-02-18_14h04.03.515,comp,2024.2.4,60.088593450044414,2025-02-18 14h04.24.411445 -0500,
38,38,0,filler_square,None,None,None,None,None,None,None,None,None,None,3,1.0033774375915527,None,,,,,0,0,0,0,0,38,38,207,104.19298577308655,,,,,,,,,,,,,,,,,,,,,,,,,,,,,,,,,,,,,,,,,,,,,,,,,,,,,,,,,,,,,,,,,,,,,,,,,,,,,,,,,114.28165919870835,88.47098006728754,60.21243178117051,60.77898842134798,124.32958493335175,124.32958493335175,3.0,3.1,-171,261,0,-5,189,-266,104.17848253250122,104.17852330207825,104.18109178543091,104.19298577308655,104.3429536819458,104.3429536819458,104.3429536819458,104.3429536819458,104.3429536819458,104.3429536819458,104.3429536819458,105.21078133583069,3,1.0033774375915527,None,,,,,,,,,,,,,,,,,,14,3,2025-02-18_14h04.03.515,comp,2024.2.4,60.088593450044414,2025-02-18 14h04.24.411445 -0500,
39,39,0,filler_random,None,None,None,None,None,None,None,None,None,None,2,1.3473691940307617,None,,,,,0,0,0,0,0,39,39,162,105.22618556022644,,,,,,,,,,,,,,,,,,,,,,,,,,,,,,,,,,,,,,,,,,,,,,,,,,,,,,,,,,,,,,,,,,,,,,,,,,,,,,,,,63.94901594279289,183.66612395515665,91.73343969985716,122.2268387625721,88.03680836864817,78.33651005087324,2.1,2.12,-249,-264,0,-285,196,263,105.21171045303345,105.21175336837769,105.21439576148987,105.22618556022644,105.37639594078064,105.37639594078064,105.37639594078064,105.37639594078064,105.37639594078064,105.37639594078064,105.37639594078064,106.57748866081238,2,1.3473691940307617,None,,,,,,,,,,,,,,,,,,14,3,2025-02-18_14h04.03.515,comp,2024.2.4,60.088593450044414,2025-02-18 14h04.24.411445 -0500,
40,40,0,critical,dwh,20.0,2.1,upper,141.0,141.0,125.0,200.0,200.0,125.0,2,1.450700283050537,None,,,,,0,0,0,0,0,40,40,31,106.5930187702179,,,,,,,,,,,,,,,,,,,,,,,,,,,,,,,,,,,,,,,,,,,,,,,,,,,,,,,,,,,,,,,,,,,,,,,,,,,,,,,,,141.0,141.0,125.0,200.0,200.0,125.0,2.1,2.12,-266,-280,0,-286,258,273,106.57828450202942,106.57832622528076,106.58088946342468,106.5930187702179,106.74320220947266,106.74320220947266,106.74320220947266,106.74320220947266,106.74320220947266,106.74320220947266,106.74320220947266,108.06095051765442,2,1.450700283050537,None,,,,,,,,,,,,,,,,,,14,3,2025-02-18_14h04.03.515,comp,2024.2.4,60.088593450044414,2025-02-18 14h04.24.411445 -0500,
41,41,0,critical,dwh,35.0,2.1,upper,127.0,127.0,125.0,200.0,200.0,125.0,2,1.328317642211914,None,,,,,0,0,0,0,0,41,41,29,108.07617616653442,,,,,,,,,,,,,,,,,,,,,,,,,,,,,,,,,,,,,,,,,,,,,,,,,,,,,,,,,,,,,,,,,,,,,,,,,,,,,,,,,127.0,127.0,125.0,200.0,200.0,125.0,2.1,2.11,-260,270,0,276,258,-261,108.06174874305725,108.06179022789001,108.06393694877625,108.07617616653442,108.22631359100342,108.22631359100342,108.22631359100342,108.22631359100342,108.22631359100342,108.22631359100342,108.22631359100342,109.41079521179199,2,1.328317642211914,None,,,,,,,,,,,,,,,,,,14,3,2025-02-18_14h04.03.515,comp,2024.2.4,60.088593450044414,2025-02-18 14h04.24.411445 -0500,
42,42,0,filler_random,None,None,None,None,None,None,None,None,None,None,1,1.066951036453247,None,,,,,0,0,0,0,0,42,42,154,109.42627143859863,,,,,,,,,,,,,,,,,,,,,,,,,,,,,,,,,,,,,,,,,,,,,,,,,,,,,,,,,,,,,,,,,,,,,,,,,,,,,,,,,118.86473025732786,183.8721387738402,88.71600359871759,120.64919763169445,112.95415348463295,86.68974637527226,1.0,1.1,-728,261,-480,272,-280,271,109.41172432899475,109.41176629066467,109.41413879394531,109.42627143859863,109.57631611824036,109.57631611824036,109.57631611824036,109.57631611824036,109.57631611824036,109.57631611824036,109.57631611824036,110.51065921783447,1,1.066951036453247,None,,,,,,,,,,,,,,,,,,14,3,2025-02-18_14h04.03.515,comp,2024.2.4,60.088593450044414,2025-02-18 14h04.24.411445 -0500,
43,43,0,filler_random,None,None,None,None,None,None,None,None,None,None,2,1.0535383224487305,None,,,,,0,0,0,0,0,43,43,148,110.5261447429657,,,,,,,,,,,,,,,,,,,,,,,,,,,,,,,,,,,,,,,,,,,,,,,,,,,,,,,,,,,,,,,,,,,,,,,,,,,,,,,,,172.42281772031635,100.87433794275108,137.62141162262571,155.90515262357138,91.02099830442961,60.58297162465293,2.2,2.21,-224,-275,0,286,204,289,110.51155757904053,110.51159858703613,110.51421308517456,110.5261447429657,110.67627286911011,110.67627286911011,110.67627286911011,110.67627286911011,110.67627286911011,110.67627286911011,110.67627286911011,111.59401392936707,2,1.0535383224487305,None,,,,,,,,,,,,,,,,,,14,3,2025-02-18_14h04.03.515,comp,2024.2.4,60.088593450044414,2025-02-18 14h04.24.411445 -0500,
44,44,0,filler_square,None,None,None,None,None,None,None,None,None,None,3,0.954866886138916,None,,,,,0,0,0,0,0,44,44,201,111.60937094688416,,,,,,,,,,,,,,,,,,,,,,,,,,,,,,,,,,,,,,,,,,,,,,,,,,,,,,,,,,,,,,,,,,,,,,,,,,,,,,,,,91.27334666956943,91.27334666956943,72.23571473663753,59.91504846581189,72.11779933360936,89.52683566583553,2.2,2.22,-172,257,0,-257,171,-273,111.59499311447144,111.5950345993042,111.59744000434875,111.60937094688416,111.76011967658997,111.76011967658997,111.76011967658997,111.76011967658997,111.76011967658997,111.76011967658997,111.76011967658997,112.57729601860046,3,0.954866886138916,None,,,,,,,,,,,,,,,,,,14,3,2025-02-18_14h04.03.515,comp,2024.2.4,60.088593450044414,2025-02-18 14h04.24.411445 -0500,
45,45,0,critical,hdw,20.0,2.1,upper,200.0,125.0,141.0,141.0,125.0,200.0,3,1.2439110279083252,None,,,,,0,0,0,0,0,45,45,47,112.59269595146179,,,,,,,,,,,,,,,,,,,,,,,,,,,,,,,,,,,,,,,,,,,,,,,,,,,,,,,,,,,,,,,,,,,,,,,,,,,,,,,,,200.0,125.0,141.0,141.0,125.0,200.0,2.1,2.12,-229,-285,0,-281,266,258,112.57810354232788,112.57814407348633,112.58092880249023,112.59269595146179,112.74320340156555,112.74320340156555,112.74320340156555,112.74320340156555,112.74320340156555,112.74320340156555,112.74320340156555,113.8442862033844,3,1.2439110279083252,None,,,,,,,,,,,,,,,,,,14,3,2025-02-18_14h04.03.515,comp,2024.2.4,60.088593450044414,2025-02-18 14h04.24.411445 -0500,
46,46,0,filler_random,None,None,None,None,None,None,None,None,None,None,1,0.9140098094940186,None,,,,,0,0,0,0,0,46,46,166,113.85970640182495,,,,,,,,,,,,,,,,,,,,,,,,,,,,,,,,,,,,,,,,,,,,,,,,,,,,,,,,,,,,,,,,,,,,,,,,,,,,,,,,,189.51244621336087,195.8635741672905,75.30574340438466,123.27107506833327,174.9354434487039,66.93945671259571,1.0,1.2,-256,3,0,10,191,-4,113.84520816802979,113.84524893760681,113.8476574420929,113.85970640182495,114.00967407226562,114.00967407226562,114.00967407226562,114.00967407226562,114.00967407226562,114.00967407226562,114.00967407226562,114.77773427963257,1,0.9140098094940186,None,,,,,,,,,,,,,,,,,,14,3,2025-02-18_14h04.03.515,comp,2024.2.4,60.088593450044414,2025-02-18 14h04.24.411445 -0500,
47,47,0,catch,None,None,None,None,None,None,None,None,None,None,1,1.018563985824585,None,,,,,0,0,0,0,0,47,47,124,114.79311800003052,,,,,,,,,,,,,,,,,,,,,,,,,,,,,,,,,,,,,,,,,,,,,,,,,,,,,,,,,,,,,,,,,,,,,,,,,,,,,,,,,171,154,94,96,65,125,2.1,2.12,-221,-269,0,-274,206,253,114.77881264686584,114.77885580062866,114.78132033348083,114.79311800003052,114.94294214248657,114.94294214248657,114.94294214248657,114.94294214248657,114.94294214248657,114.94294214248657,114.94294214248657,115.82736229896545,1,1.018563985824585,None,,,,,,,,,,,,,,,,,,14,3,2025-02-18_14h04.03.515,comp,2024.2.4,60.088593450044414,2025-02-18 14h04.24.411445 -0500,
48,48,0,critical,whd,20.0,2.1,lower,57.0,133.0,133.0,57.0,78.0,78.0,3,1.1848978996276855,None,,,,,0,0,0,0,0,48,48,14,115.8427619934082,,,,,,,,,,,,,,,,,,,,,,,,,,,,,,,,,,,,,,,,,,,,,,,,,,,,,,,,,,,,,,,,,,,,,,,,,,,,,,,,,57.0,133.0,133.0,57.0,78.0,78.0,2.1,2.11,-191,264,0,263,164,-275,115.82817149162292,115.82821226119995,115.83069825172424,115.8427619934082,115.99278211593628,115.99278211593628,115.99278211593628,115.99278211593628,115.99278211593628,115.99278211593628,115.99278211593628,117.04394841194153,3,1.1848978996276855,None,,,,,,,,,,,,,,,,,,14,3,2025-02-18_14h04.03.515,comp,2024.2.4,60.088593450044414,2025-02-18 14h04.24.411445 -0500,
49,49,0,critical,hdw,35.0,2.1,upper,200.0,125.0,127.0,127.0,125.0,200.0,1,1.2254586219787598,None,,,,,0,0,0,0,0,49,49,21,117.05936241149902,,,,,,,,,,,,,,,,,,,,,,,,,,,,,,,,,,,,,,,,,,,,,,,,,,,,,,,,,,,,,,,,,,,,,,,,,,,,,,,,,200.0,125.0,127.0,127.0,125.0,200.0,2.1,2.11,-222,255,0,268,260,-261,117.04474449157715,117.04478454589844,117.04689908027649,117.05936241149902,117.20968246459961,117.20968246459961,117.20968246459961,117.20968246459961,117.20968246459961,117.20968246459961,117.20968246459961,118.29419255256653,1,1.2254586219787598,None,,,,,,,,,,,,,,,,,,14,3,2025-02-18_14h04.03.515,comp,2024.2.4,60.088593450044414,2025-02-18 14h04.24.411445 -0500,
50,50,0,critical,wdh,35.0,2.1,upper,125.0,200.0,127.0,127.0,200.0,125.0,1,3.1669933795928955,None,,,,,0,0,0,0,0,50,50,9,118.30959606170654,,,,,,,,,,,,,,,,,,,,,,,,,,,,,,,,,,,,,,,,,,,,,,,,,,,,,,,,,,,,,,,,,,,,,,,,,,,,,,,,,125.0,200.0,127.0,127.0,200.0,125.0,2.1,2.12,-260,-289,0,-275,222,269,118.29500150680542,118.29504323005676,118.29718542098999,118.30959606170654,118.45963954925537,118.45963954925537,118.45963954925537,118.45963954925537,118.45963954925537,118.45963954925537,118.45963954925537,121.47775626182556,1,3.1669933795928955,None,,,,,,,,,,,,,,,,,,14,3,2025-02-18_14h04.03.515,comp,2024.2.4,60.088593450044414,2025-02-18 14h04.24.411445 -0500,
51,51,0,catch,None,None,None,None,None,None,None,None,None,None,2,1.4000611305236816,None,,,,,0,0,0,0,0,51,51,126,121.49299502372742,,,,,,,,,,,,,,,,,,,,,,,,,,,,,,,,,,,,,,,,,,,,,,,,,,,,,,,,,,,,,,,,,,,,,,,,,,,,,,,,,191,134,102,88,132,58,1.0,1.3,273,-281,480,-286,649,-262,121.4788932800293,121.4789547920227,121.48148584365845,121.49299502372742,121.64281177520752,121.64281177520752,121.64281177520752,121.64281177520752,121.64281177520752,121.64281177520752,121.64281177520752,122.91064143180847,2,1.4000611305236816,None,,,,,,,,,,,,,,,,,,14,3,2025-02-18_14h04.03.515,comp,2024.2.4,60.088593450044414,2025-02-18 14h04.24.411445 -0500,
52,52,0,filler_random,None,None,None,None,None,None,None,None,None,None,2,1.7174999713897705,None,,,,,0,0,0,0,0,52,52,141,122.92603588104248,,,,,,,,,,,,,,,,,,,,,,,,,,,,,,,,,,,,,,,,,,,,,,,,,,,,,,,,,,,,,,,,,,,,,,,,,,,,,,,,,87.0298556096081,81.37482033551292,131.7984232908155,174.6931405198119,57.6692954956516,157.26620277528866,4.0,4.1,-224,-286,0,2,262,-256,122.91158604621887,122.91162610054016,122.91425228118896,122.92603588104248,123.07604336738586,123.07604336738586,123.07604336738586,123.07604336738586,123.07604336738586,123.07604336738586,123.07604336738586,124.66054153442383,2,1.7174999713897705,None,,,,,,,,,,,,,,,,,,14,3,2025-02-18_14h04.03.515,comp,2024.2.4,60.088593450044414,2025-02-18 14h04.24.411445 -0500,
53,53,0,catch,None,None,None,None,None,None,None,None,None,None,1,0.8881292343139648,None,,,,,0,0,0,0,0,53,53,127,124.67593932151794,,,,,,,,,,,,,,,,,,,,,,,,,,,,,,,,,,,,,,,,,,,,,,,,,,,,,,,,,,,,,,,,,,,,,,,,,,,,,,,,,190,135,122,68,117,73,2.1,2.12,-198,-277,0,-263,166,264,124.66161847114563,124.66166090965271,124.66427898406982,124.67593932151794,124.82617735862732,124.82617735862732,124.82617735862732,124.82617735862732,124.82617735862732,124.82617735862732,124.82617735862732,125.57730007171631,1,0.8881292343139648,None,,,,,,,,,,,,,,,,,,14,3,2025-02-18_14h04.03.515,comp,2024.2.4,60.088593450044414,2025-02-18 14h04.24.411445 -0500,
54,54,0,filler_random,None,None,None,None,None,None,None,None,None,None,3,1.1870601177215576,None,,,,,0,0,0,0,0,54,54,130,125.59261345863342,,,,,,,,,,,,,,,,,,,,,,,,,,,,,,,,,,,,,,,,,,,,,,,,,,,,,,,,,,,,,,,,,,,,,,,,,,,,,,,,,78.33396966021536,69.40886323233266,158.22035841051763,116.83262386817361,152.46005239240463,178.4810088459062,4.0,4.1,-189,-286,0,17,244,-287,125.57822871208191,125.57827067375183,125.5807592868805,125.59261345863342,125.74283123016357,125.74283123016357,125.74283123016357,125.74283123016357,125.74283123016357,125.74283123016357,125.74283123016357,126.7940559387207,3,1.1870601177215576,None,,,,,,,,,,,,,,,,,,14,3,2025-02-18_14h04.03.515,comp,2024.2.4,60.088593450044414,2025-02-18 14h04.24.411445 -0500,
55,55,0,filler_random,None,None,None,None,None,None,None,None,None,None,3,1.1220626831054688,None,,,,,0,0,0,0,0,55,55,147,126.80930519104004,,,,,,,,,,,,,,,,,,,,,,,,,,,,,,,,,,,,,,,,,,,,,,,,,,,,,,,,,,,,,,,,,,,,,,,,,,,,,,,,,116.32169922341376,178.0592151630014,162.4523386788435,97.25994152159599,199.87965435304451,151.79528963118224,2.2,2.21,-234,-284,0,252,221,284,126.79499101638794,126.7950325012207,126.79746055603027,126.80930519104004,126.95997762680054,126.95997762680054,126.95997762680054,126.95997762680054,126.95997762680054,126.95997762680054,126.95997762680054,127.94406485557556,3,1.1220626831054688,None,,,,,,,,,,,,,,,,,,14,3,2025-02-18_14h04.03.515,comp,2024.2.4,60.088593450044414,2025-02-18 14h04.24.411445 -0500,
56,56,0,critical,whd,35.0,1.0,upper,125.0,200.0,200.0,125.0,127.0,127.0,1,1.276782751083374,None,,,,,0,0,0,0,0,56,56,85,127.95958065986633,,,,,,,,,,,,,,,,,,,,,,,,,,,,,,,,,,,,,,,,,,,,,,,,,,,,,,,,,,,,,,,,,,,,,,,,,,,,,,,,,125.0,200.0,200.0,125.0,127.0,127.0,1.0,1.3,222,-272,480,-282,702,-261,127.94487857818604,127.94492077827454,127.94832229614258,127.95958065986633,128.10951948165894,128.10951948165894,128.10951948165894,128.10951948165894,128.10951948165894,128.10951948165894,128.10951948165894,129.24401378631592,1,1.276782751083374,None,,,,,,,,,,,,,,,,,,14,3,2025-02-18_14h04.03.515,comp,2024.2.4,60.088593450044414,2025-02-18 14h04.24.411445 -0500,
57,57,0,filler_square,None,None,None,None,None,None,None,None,None,None,2,0.9765710830688477,None,,,,,0,0,0,0,0,57,57,190,129.25982999801636,,,,,,,,,,,,,,,,,,,,,,,,,,,,,,,,,,,,,,,,,,,,,,,,,,,,,,,,,,,,,,,,,,,,,,,,,,,,,,,,,149.50434379158094,85.0736942212152,161.6425030996029,161.6425030996029,87.26468314765856,101.10524962413176,3.0,3.2,-219,-278,0,-8,227,263,129.244971036911,129.24501252174377,129.24713706970215,129.25982999801636,129.4094398021698,129.4094398021698,129.4094398021698,129.4094398021698,129.4094398021698,129.4094398021698,129.4094398021698,130.24399709701538,2,0.9765710830688477,None,,,,,,,,,,,,,,,,,,14,3,2025-02-18_14h04.03.515,comp,2024.2.4,60.088593450044414,2025-02-18 14h04.24.411445 -0500,
58,58,0,filler_square,None,None,None,None,None,None,None,None,None,None,1,1.7044603824615479,None,,,,,0,0,0,0,0,58,58,175,130.25957107543945,,,,,,,,,,,,,,,,,,,,,,,,,,,,,,,,,,,,,,,,,,,,,,,,,,,,,,,,,,,,,,,,,,,,,,,,,,,,,,,,,87.38262469312981,87.38262469312981,64.67219615570258,65.07443645294647,70.72178929309713,73.28779231228255,1.0,1.3,308,-267,480,-278,645,-256,130.24496984481812,130.24501252174377,130.2471468448639,130.25957107543945,130.4093554019928,130.4093554019928,130.4093554019928,130.4093554019928,130.4093554019928,130.4093554019928,130.4093554019928,131.97704029083252,1,1.7044603824615479,None,,,,,,,,,,,,,,,,,,14,3,2025-02-18_14h04.03.515,comp,2024.2.4,60.088593450044414,2025-02-18 14h04.24.411445 -0500,
59,59,0,filler_square,None,None,None,None,None,None,None,None,None,None,2,1.2278590202331543,None,,,,,0,0,0,0,0,59,59,204,131.99240946769714,,,,,,,,,,,,,,,,,,,,,,,,,,,,,,,,,,,,,,,,,,,,,,,,,,,,,,,,,,,,,,,,,,,,,,,,,,,,,,,,,100.82193597503363,167.84067520506048,175.56277809664468,175.56277809664468,70.54571185385686,97.41045638034778,2.1,2.12,-268,-252,0,-265,232,253,131.97799468040466,131.9780352115631,131.98044848442078,131.99240946769714,132.14288187026978,132.14288187026978,132.14288187026978,132.14288187026978,132.14288187026978,132.14288187026978,132.14288187026978,133.22723817825317,2,1.2278590202331543,None,,,,,,,,,,,,,,,,,,14,3,2025-02-18_14h04.03.515,comp,2024.2.4,60.088593450044414,2025-02-18 14h04.24.411445 -0500,
60,60,0,filler_random,None,None,None,None,None,None,None,None,None,None,3,2.4578607082366943,None,,,,,0,0,0,0,0,60,60,135,133.24314785003662,,,,,,,,,,,,,,,,,,,,,,,,,,,,,,,,,,,,,,,,,,,,,,,,,,,,,,,,,,,,,,,,,,,,,,,,,,,,,,,,,110.72790521181685,152.26582368847306,151.9306788927272,195.80240524892903,198.76548728938212,141.6704850544087,2.2,2.22,-270,289,0,-274,265,-271,133.2281413078308,133.2281813621521,133.2303068637848,133.24314785003662,133.39306783676147,133.39306783676147,133.39306783676147,133.39306783676147,133.39306783676147,133.39306783676147,133.39306783676147,135.7107491493225,3,2.4578607082366943,None,,,,,,,,,,,,,,,,,,14,3,2025-02-18_14h04.03.515,comp,2024.2.4,60.088593450044414,2025-02-18 14h04.24.411445 -0500,
61,61,0,catch,None,None,None,None,None,None,None,None,None,None,2,0.8852243423461914,None,,,,,0,0,0,0,0,61,61,123,135.72623705863953,,,,,,,,,,,,,,,,,,,,,,,,,,,,,,,,,,,,,,,,,,,,,,,,,,,,,,,,,,,,,,,,,,,,,,,,,,,,,,,,,104,86,127,198,107,83,2.1,2.11,-238,258,0,285,236,-265,135.71184396743774,135.7118866443634,135.71402049064636,135.72623705863953,135.87606167793274,135.87606167793274,135.87606167793274,135.87606167793274,135.87606167793274,135.87606167793274,135.87606167793274,136.6274335384369,2,0.8852243423461914,None,,,,,,,,,,,,,,,,,,14,3,2025-02-18_14h04.03.515,comp,2024.2.4,60.088593450044414,2025-02-18 14h04.24.411445 -0500,
62,62,0,filler_square,None,None,None,None,None,None,None,None,None,None,1,1.888796329498291,None,,,,,0,0,0,0,0,62,62,192,136.6425266265869,,,,,,,,,,,,,,,,,,,,,,,,,,,,,,,,,,,,,,,,,,,,,,,,,,,,,,,,,,,,,,,,,,,,,,,,,,,,,,,,,75.2664839496125,75.2664839496125,74.22969135534076,69.30888140331822,61.782227266662225,67.20605527143309,4.0,4.2,-168,12,0,-264,164,-9,136.62838006019592,136.6284215450287,136.6310064792633,136.6425266265869,136.7926619052887,136.7926619052887,136.7926619052887,136.7926619052887,136.7926619052887,136.7926619052887,136.7926619052887,138.5437204837799,1,1.888796329498291,None,,,,,,,,,,,,,,,,,,14,3,2025-02-18_14h04.03.515,comp,2024.2.4,60.088593450044414,2025-02-18 14h04.24.411445 -0500,
63,63,0,filler_random,None,None,None,None,None,None,None,None,None,None,2,1.1091232299804688,None,,,,,0,0,0,0,0,63,63,149,138.55915594100952,,,,,,,,,,,,,,,,,,,,,,,,,,,,,,,,,,,,,,,,,,,,,,,,,,,,,,,,,,,,,,,,,,,,,,,,,,,,,,,,,90.17141847482768,199.24757862958023,170.1060552289983,130.49902276954603,183.90814014017008,64.85663053447891,4.0,4.1,-261,-283,0,15,194,-271,138.54462456703186,138.5446653366089,138.54675936698914,138.55915594100952,138.7098207473755,138.7098207473755,138.7098207473755,138.7098207473755,138.7098207473755,138.7098207473755,138.7098207473755,139.677161693573,2,1.1091232299804688,None,,,,,,,,,,,,,,,,,,14,3,2025-02-18_14h04.03.515,comp,2024.2.4,60.088593450044414,2025-02-18 14h04.24.411445 -0500,
64,64,0,critical,hdw,20.0,3.0,upper,200.0,125.0,141.0,141.0,125.0,200.0,3,1.422699213027954,None,,,,,0,0,0,0,0,64,64,117,139.6926863193512,,,,,,,,,,,,,,,,,,,,,,,,,,,,,,,,,,,,,,,,,,,,,,,,,,,,,,,,,,,,,,,,,,,,,,,,,,,,,,,,,200.0,125.0,141.0,141.0,125.0,200.0,3.0,3.2,-229,-266,0,-1,266,256,139.6779706478119,139.6780126094818,139.68013620376587,139.6926863193512,139.84281539916992,139.84281539916992,139.84281539916992,139.84281539916992,139.84281539916992,139.84281539916992,139.84281539916992,141.12736320495605,3,1.422699213027954,None,,,,,,,,,,,,,,,,,,14,3,2025-02-18_14h04.03.515,comp,2024.2.4,60.088593450044414,2025-02-18 14h04.24.411445 -0500,
65,65,0,critical,hdw,35.0,2.1,lower,133.0,57.0,70.0,70.0,57.0,133.0,1,2.236626386642456,None,,,,,0,0,0,0,0,65,65,20,141.1428678035736,,,,,,,,,,,,,,,,,,,,,,,,,,,,,,,,,,,,,,,,,,,,,,,,,,,,,,,,,,,,,,,,,,,,,,,,,,,,,,,,,133.0,57.0,70.0,70.0,57.0,133.0,2.1,2.12,-160,-289,0,-272,198,286,141.12820196151733,141.1282434463501,141.13077402114868,141.1428678035736,141.29265904426575,141.29265904426575,141.29265904426575,141.29265904426575,141.29265904426575,141.29265904426575,141.29265904426575,143.39367127418518,1,2.236626386642456,None,,,,,,,,,,,,,,,,,,14,3,2025-02-18_14h04.03.515,comp,2024.2.4,60.088593450044414,2025-02-18 14h04.24.411445 -0500,
66,66,0,filler_square,None,None,None,None,None,None,None,None,None,None,1,1.570340871810913,None,,,,,0,0,0,0,0,66,66,191,143.40912699699402,,,,,,,,,,,,,,,,,,,,,,,,,,,,,,,,,,,,,,,,,,,,,,,,,,,,,,,,,,,,,,,,,,,,,,,,,,,,,,,,,126.32809957613331,126.32809957613331,102.02418426886149,86.1248442759708,58.15199907671172,118.3120004369475,2.2,2.22,-202,252,0,-266,198,-281,143.39461302757263,143.39465355873108,143.39728355407715,143.40912699699402,143.5591742992401,143.5591742992401,143.5591742992401,143.5591742992401,143.5591742992401,143.5591742992401,143.5591742992401,144.99376368522644,1,1.570340871810913,None,,,,,,,,,,,,,,,,,,14,3,2025-02-18_14h04.03.515,comp,2024.2.4,60.088593450044414,2025-02-18 14h04.24.411445 -0500,
67,67,0,critical,hdw,35.0,4.0,lower,133.0,57.0,70.0,70.0,57.0,133.0,3,1.3489232063293457,None,,,,,0,0,0,0,0,67,67,112,145.0091335773468,,,,,,,,,,,,,,,,,,,,,,,,,,,,,,,,,,,,,,,,,,,,,,,,,,,,,,,,,,,,,,,,,,,,,,,,,,,,,,,,,133.0,57.0,70.0,70.0,57.0,133.0,4.0,4.2,-160,-16,0,-256,198,-15,144.9945604801178,144.9946005344391,144.9967324733734,145.0091335773468,145.15921545028687,145.15921545028687,145.15921545028687,145.15921545028687,145.15921545028687,145.15921545028687,145.15921545028687,146.36043620109558,3,1.3489232063293457,None,,,,,,,,,,,,,,,,,,14,3,2025-02-18_14h04.03.515,comp,2024.2.4,60.088593450044414,2025-02-18 14h04.24.411445 -0500,
68,68,0,filler_random,None,None,None,None,None,None,None,None,None,None,1,1.3499946594238281,None,,,,,0,0,0,0,0,68,68,137,146.37599515914917,,,,,,,,,,,,,,,,,,,,,,,,,,,,,,,,,,,,,,,,,,,,,,,,,,,,,,,,,,,,,,,,,,,,,,,,,,,,,,,,,179.704877852645,187.3378494976179,120.17127068238695,136.0012603891496,86.26845406837447,117.6315021245532,2.1,2.12,-258,-277,0,-275,223,273,146.36137127876282,146.36141204833984,146.36384177207947,146.37599515914917,146.5260148048401,146.5260148048401,146.5260148048401,146.5260148048401,146.5260148048401,146.5260148048401,146.5260148048401,147.7274329662323,1,1.3499946594238281,None,,,,,,,,,,,,,,,,,,14,3,2025-02-18_14h04.03.515,comp,2024.2.4,60.088593450044414,2025-02-18 14h04.24.411445 -0500,
69,69,0,filler_random,None,None,None,None,None,None,None,None,None,None,1,1.0605003833770752,None,,,,,0,0,0,0,0,69,69,163,147.7428719997406,,,,,,,,,,,,,,,,,,,,,,,,,,,,,,,,,,,,,,,,,,,,,,,,,,,,,,,,,,,,,,,,,,,,,,,,,,,,,,,,,197.28724250630637,186.55152455513885,169.08676345216747,99.84962612906429,61.46215025462651,115.1893723450795,1.0,1.3,241,-253,480,-258,684,-263,147.7283902168274,147.72843289375305,147.73059916496277,147.7428719997406,147.8926386833191,147.8926386833191,147.8926386833191,147.8926386833191,147.8926386833191,147.8926386833191,147.8926386833191,148.82745099067688,1,1.0605003833770752,None,,,,,,,,,,,,,,,,,,14,3,2025-02-18_14h04.03.515,comp,2024.2.4,60.088593450044414,2025-02-18 14h04.24.411445 -0500,
70,70,0,filler_random,None,None,None,None,None,None,None,None,None,None,2,0.9455747604370117,None,,,,,0,0,0,0,0,70,70,165,148.84268426895142,,,,,,,,,,,,,,,,,,,,,,,,,,,,,,,,,,,,,,,,,,,,,,,,,,,,,,,,,,,,,,,,,,,,,,,,,,,,,,,,,79.71405714635085,119.77464501172864,128.45719693435117,188.34623923985274,181.94916087393943,71.88768244640977,2.1,2.12,-250,-259,0,-279,226,288,148.82857036590576,148.82860803604126,148.83060884475708,148.84268426895142,148.99257397651672,148.99257397651672,148.99257397651672,148.99257397651672,148.99257397651672,148.99257397651672,148.99257397651672,149.79406905174255,2,0.9455747604370117,None,,,,,,,,,,,,,,,,,,14,3,2025-02-18_14h04.03.515,comp,2024.2.4,60.088593450044414,2025-02-18 14h04.24.411445 -0500,
71,71,0,critical,dwh,20.0,4.0,upper,141.0,141.0,125.0,200.0,200.0,125.0,3,2.2912180423736572,None,,,,,0,0,0,0,0,71,71,71,149.80949091911316,,,,,,,,,,,,,,,,,,,,,,,,,,,,,,,,,,,,,,,,,,,,,,,,,,,,,,,,,,,,,,,,,,,,,,,,,,,,,,,,,141.0,141.0,125.0,200.0,200.0,125.0,4.0,4.1,-266,-254,0,-3,258,-252,149.79487466812134,149.7949161529541,149.79704236984253,149.80949091911316,149.9594280719757,149.9594280719757,149.9594280719757,149.9594280719757,149.9594280719757,149.9594280719757,149.9594280719757,152.11053156852722,3,2.2912180423736572,None,,,,,,,,,,,,,,,,,,14,3,2025-02-18_14h04.03.515,comp,2024.2.4,60.088593450044414,2025-02-18 14h04.24.411445 -0500,
72,72,0,critical,hwd,35.0,4.0,upper,200.0,125.0,125.0,200.0,127.0,127.0,1,1.3339004516601562,None,,,,,0,0,0,0,0,72,72,101,152.12603974342346,,,,,,,,,,,,,,,,,,,,,,,,,,,,,,,,,,,,,,,,,,,,,,,,,,,,,,,,,,,,,,,,,,,,,,,,,,,,,,,,,200.0,125.0,125.0,200.0,127.0,127.0,4.0,4.1,-258,-251,0,0,260,-281,152.11135578155518,152.11139822006226,152.11391401290894,152.12603974342346,152.27599024772644,152.27599024772644,152.27599024772644,152.27599024772644,152.27599024772644,152.27599024772644,152.27599024772644,153.47709703445435,1,1.3339004516601562,None,,,,,,,,,,,,,,,,,,14,3,2025-02-18_14h04.03.515,comp,2024.2.4,60.088593450044414,2025-02-18 14h04.24.411445 -0500,
73,73,0,critical,dhw,20.0,2.1,upper,141.0,141.0,200.0,125.0,125.0,200.0,2,1.6388540267944336,None,,,,,0,0,0,0,0,73,73,27,153.49233841896057,,,,,,,,,,,,,,,,,,,,,,,,,,,,,,,,,,,,,,,,,,,,,,,,,,,,,,,,,,,,,,,,,,,,,,,,,,,,,,,,,141.0,141.0,200.0,125.0,125.0,200.0,2.1,2.11,-229,268,0,266,258,-256,153.4778950214386,153.47793650627136,153.48030471801758,153.49233841896057,153.64267301559448,153.64267301559448,153.64267301559448,153.64267301559448,153.64267301559448,153.64267301559448,153.64267301559448,155.14377999305725,2,1.6388540267944336,None,,,,,,,,,,,,,,,,,,14,3,2025-02-18_14h04.03.515,comp,2024.2.4,60.088593450044414,2025-02-18 14h04.24.411445 -0500,
74,74,0,filler_random,None,None,None,None,None,None,None,None,None,None,3,1.2842583656311035,None,,,,,0,0,0,0,0,74,74,133,155.15900015830994,,,,,,,,,,,,,,,,,,,,,,,,,,,,,,,,,,,,,,,,,,,,,,,,,,,,,,,,,,,,,,,,,,,,,,,,,,,,,,,,,134.83229734204372,164.6102047402712,99.65353608916419,174.68889098271208,198.73094713971585,159.6406234514781,2.2,2.21,-266,-277,0,265,263,279,155.14472460746765,155.14476537704468,155.146986246109,155.15900015830994,155.30936789512634,155.30936789512634,155.30936789512634,155.30936789512634,155.30936789512634,155.30936789512634,155.30936789512634,156.4605360031128,3,1.2842583656311035,None,,,,,,,,,,,,,,,,,,14,3,2025-02-18_14h04.03.515,comp,2024.2.4,60.088593450044414,2025-02-18 14h04.24.411445 -0500,
75,75,0,critical,dhw,20.0,2.1,upper,141.0,141.0,200.0,125.0,125.0,200.0,3,1.4171500205993652,None,,,,,0,0,0,0,0,75,75,3,156.4757537841797,,,,,,,,,,,,,,,,,,,,,,,,,,,,,,,,,,,,,,,,,,,,,,,,,,,,,,,,,,,,,,,,,,,,,,,,,,,,,,,,,141.0,141.0,200.0,125.0,125.0,200.0,2.1,2.11,-229,257,0,284,258,-258,156.46136450767517,156.46140575408936,156.46398425102234,156.4757537841797,156.62604236602783,156.62604236602783,156.62604236602783,156.62604236602783,156.62604236602783,156.62604236602783,156.62604236602783,157.9104197025299,3,1.4171500205993652,None,,,,,,,,,,,,,,,,,,14,3,2025-02-18_14h04.03.515,comp,2024.2.4,60.088593450044414,2025-02-18 14h04.24.411445 -0500,
76,76,0,critical,hdw,35.0,2.1,upper,200.0,125.0,127.0,127.0,125.0,200.0,3,1.2942614555358887,None,,,,,0,0,0,0,0,76,76,45,157.92575311660767,,,,,,,,,,,,,,,,,,,,,,,,,,,,,,,,,,,,,,,,,,,,,,,,,,,,,,,,,,,,,,,,,,,,,,,,,,,,,,,,,200.0,125.0,127.0,127.0,125.0,200.0,2.1,2.12,-222,-288,0,-270,260,265,157.9112491607666,157.91128969192505,157.9137659072876,157.92575311660767,158.076030254364,158.076030254364,158.076030254364,158.076030254364,158.076030254364,158.076030254364,158.076030254364,159.2271032333374,3,1.2942614555358887,None,,,,,,,,,,,,,,,,,,14,3,2025-02-18_14h04.03.515,comp,2024.2.4,60.088593450044414,2025-02-18 14h04.24.411445 -0500,
77,77,0,filler_square,None,None,None,None,None,None,None,None,None,None,2,1.2500629425048828,None,,,,,0,0,0,0,0,77,77,174,159.24257397651672,,,,,,,,,,,,,,,,,,,,,,,,,,,,,,,,,,,,,,,,,,,,,,,,,,,,,,,,,,,,,,,,,,,,,,,,,,,,,,,,,70.23499487990685,78.9628982968286,100.59995121318397,100.59995121318397,90.65856117689835,75.97158733281502,2.2,2.22,-186,271,0,-257,184,-262,159.22806525230408,159.22810792922974,159.23024797439575,159.24257397651672,159.39250230789185,159.39250230789185,159.39250230789185,159.39250230789185,159.39250230789185,159.39250230789185,159.39250230789185,160.5102400779724,2,1.2500629425048828,None,,,,,,,,,,,,,,,,,,14,3,2025-02-18_14h04.03.515,comp,2024.2.4,60.088593450044414,2025-02-18 14h04.24.411445 -0500,
78,78,0,critical,dhw,35.0,2.1,upper,127.0,127.0,200.0,125.0,125.0,200.0,3,1.6784768104553223,None,,,,,0,0,0,0,0,78,78,1,160.52569818496704,,,,,,,,,,,,,,,,,,,,,,,,,,,,,,,,,,,,,,,,,,,,,,,,,,,,,,,,,,,,,,,,,,,,,,,,,,,,,,,,,127.0,127.0,200.0,125.0,125.0,200.0,2.1,2.12,-222,-287,0,-277,258,277,160.51108980178833,160.5111312866211,160.51362800598145,160.52569818496704,160.67590165138245,160.67590165138245,160.67590165138245,160.67590165138245,160.67590165138245,160.67590165138245,160.67590165138245,162.2104287147522,3,1.6784768104553223,None,,,,,,,,,,,,,,,,,,14,3,2025-02-18_14h04.03.515,comp,2024.2.4,60.088593450044414,2025-02-18 14h04.24.411445 -0500,
79,79,0,filler_random,None,None,None,None,None,None,None,None,None,None,1,1.3318917751312256,None,,,,,0,0,0,0,0,79,79,159,162.22585701942444,,,,,,,,,,,,,,,,,,,,,,,,,,,,,,,,,,,,,,,,,,,,,,,,,,,,,,,,,,,,,,,,,,,,,,,,,,,,,,,,,169.4114400221,122.69260336923288,100.23407170193819,182.05716062415178,67.82976028200784,118.90645908110609,2.1,2.12,-248,-274,0,-289,246,258,162.21132278442383,162.21136331558228,162.21407866477966,162.22585701942444,162.37590074539185,162.37590074539185,162.37590074539185,162.37590074539185,162.37590074539185,162.37590074539185,162.37590074539185,163.56040573120117,1,1.3318917751312256,None,,,,,,,,,,,,,,,,,,14,3,2025-02-18_14h04.03.515,comp,2024.2.4,60.088593450044414,2025-02-18 14h04.24.411445 -0500,
80,80,0,critical,hwd,35.0,2.1,upper,200.0,125.0,125.0,200.0,127.0,127.0,1,1.1085610389709473,None,,,,,0,0,0,0,0,80,80,17,163.57577180862427,,,,,,,,,,,,,,,,,,,,,,,,,,,,,,,,,,,,,,,,,,,,,,,,,,,,,,,,,,,,,,,,,,,,,,,,,,,,,,,,,200.0,125.0,125.0,200.0,127.0,127.0,2.1,2.11,-258,273,0,278,260,-265,163.56119441986084,163.56123685836792,163.56371355056763,163.57577180862427,163.72599077224731,163.72599077224731,163.72599077224731,163.72599077224731,163.72599077224731,163.72599077224731,163.72599077224731,164.6937437057495,1,1.1085610389709473,None,,,,,,,,,,,,,,,,,,14,3,2025-02-18_14h04.03.515,comp,2024.2.4,60.088593450044414,2025-02-18 14h04.24.411445 -0500,
81,81,0,critical,dhw,35.0,4.0,lower,70.0,70.0,133.0,57.0,57.0,133.0,2,1.216653823852539,None,,,,,0,0,0,0,0,81,81,52,164.70914506912231,,,,,,,,,,,,,,,,,,,,,,,,,,,,,,,,,,,,,,,,,,,,,,,,,,,,,,,,,,,,,,,,,,,,,,,,,,,,,,,,,70.0,70.0,133.0,57.0,57.0,133.0,4.0,4.1,-160,-280,0,19,191,-281,164.69455218315125,164.694593667984,164.69735479354858,164.70914506912231,164.85908317565918,164.85908317565918,164.85908317565918,164.85908317565918,164.85908317565918,164.85908317565918,164.85908317565918,165.92705869674683,2,1.216653823852539,None,,,,,,,,,,,,,,,,,,14,3,2025-02-18_14h04.03.515,comp,2024.2.4,60.088593450044414,2025-02-18 14h04.24.411445 -0500,
82,82,0,critical,hwd,35.0,2.1,lower,133.0,57.0,57.0,133.0,70.0,70.0,2,2.245587110519409,None,,,,,0,0,0,0,0,82,82,16,165.94253969192505,,,,,,,,,,,,,,,,,,,,,,,,,,,,,,,,,,,,,,,,,,,,,,,,,,,,,,,,,,,,,,,,,,,,,,,,,,,,,,,,,133.0,57.0,57.0,133.0,70.0,70.0,2.1,2.12,-191,-269,0,-260,198,280,165.92789006233215,165.9279294013977,165.92998909950256,165.94253969192505,166.0922954082489,166.0922954082489,166.0922954082489,166.0922954082489,166.0922954082489,166.0922954082489,166.0922954082489,168.19351935386658,2,2.245587110519409,None,,,,,,,,,,,,,,,,,,14,3,2025-02-18_14h04.03.515,comp,2024.2.4,60.088593450044414,2025-02-18 14h04.24.411445 -0500,
83,83,0,filler_random,None,None,None,None,None,None,None,None,None,None,1,1.5699639320373535,None,,,,,0,0,0,0,0,83,83,158,168.20927119255066,,,,,,,,,,,,,,,,,,,,,,,,,,,,,,,,,,,,,,,,,,,,,,,,,,,,,,,,,,,,,,,,,,,,,,,,,,,,,,,,,170.9976005551045,174.38239082144372,107.70458005552786,107.28464501022998,80.33469205617321,103.06301612753367,2.1,2.12,-237,-270,0,-273,201,253,168.19441723823547,168.19445753097534,168.1969382762909,168.20927119255066,168.35916686058044,168.35916686058044,168.35916686058044,168.35916686058044,168.35916686058044,168.35916686058044,168.35916686058044,169.79376006126404,1,1.5699639320373535,None,,,,,,,,,,,,,,,,,,14,3,2025-02-18_14h04.03.515,comp,2024.2.4,60.088593450044414,2025-02-18 14h04.24.411445 -0500,
84,84,0,critical,wdh,35.0,1.0,upper,125.0,200.0,127.0,127.0,200.0,125.0,3,1.3221592903137207,None,,,,,0,0,0,0,0,84,84,73,169.80887532234192,,,,,,,,,,,,,,,,,,,,,,,,,,,,,,,,,,,,,,,,,,,,,,,,,,,,,,,,,,,,,,,,,,,,,,,,,,,,,,,,,125.0,200.0,127.0,127.0,200.0,125.0,1.0,1.1,-740,253,-480,258,-258,255,169.79457688331604,169.7946174144745,169.7969446182251,169.80887532234192,169.9593005180359,169.9593005180359,169.9593005180359,169.9593005180359,169.9593005180359,169.9593005180359,169.9593005180359,171.14364981651306,3,1.3221592903137207,None,,,,,,,,,,,,,,,,,,14,3,2025-02-18_14h04.03.515,comp,2024.2.4,60.088593450044414,2025-02-18 14h04.24.411445 -0500,
85,85,0,critical,dhw,20.0,4.0,lower,78.0,78.0,133.0,57.0,57.0,133.0,2,3.566492795944214,None,,,,,0,0,0,0,0,85,85,58,171.15906882286072,,,,,,,,,,,,,,,,,,,,,,,,,,,,,,,,,,,,,,,,,,,,,,,,,,,,,,,,,,,,,,,,,,,,,,,,,,,,,,,,,78.0,78.0,133.0,57.0,57.0,133.0,4.0,4.2,-164,-1,0,-288,191,4,171.14445400238037,171.14449548721313,171.14710927009583,171.15906882286072,171.30892753601074,171.30892753601074,171.30892753601074,171.30892753601074,171.30892753601074,171.30892753601074,171.30892753601074,174.7269630432129,2,3.566492795944214,None,,,,,,,,,,,,,,,,,,14,3,2025-02-18_14h04.03.515,comp,2024.2.4,60.088593450044414,2025-02-18 14h04.24.411445 -0500,
86,86,0,critical,whd,35.0,2.1,upper,125.0,200.0,200.0,125.0,127.0,127.0,2,3.533905029296875,None,,,,,0,0,0,0,0,86,86,37,174.7423710823059,,,,,,,,,,,,,,,,,,,,,,,,,,,,,,,,,,,,,,,,,,,,,,,,,,,,,,,,,,,,,,,,,,,,,,,,,,,,,,,,,125.0,200.0,200.0,125.0,127.0,127.0,2.1,2.11,-258,287,0,252,222,-262,174.7277638912201,174.72781896591187,174.72990822792053,174.7423710823059,174.8924331665039,174.8924331665039,174.8924331665039,174.8924331665039,174.8924331665039,174.8924331665039,174.8924331665039,178.2937695980072,2,3.533905029296875,None,,,,,,,,,,,,,,,,,,14,3,2025-02-18_14h04.03.515,comp,2024.2.4,60.088593450044414,2025-02-18 14h04.24.411445 -0500,
87,87,0,critical,hdw,20.0,4.0,upper,200.0,125.0,141.0,141.0,125.0,200.0,3,2.1750354766845703,None,,,,,0,0,0,0,0,87,87,119,178.30891513824463,,,,,,,,,,,,,,,,,,,,,,,,,,,,,,,,,,,,,,,,,,,,,,,,,,,,,,,,,,,,,,,,,,,,,,,,,,,,,,,,,200.0,125.0,141.0,141.0,125.0,200.0,4.0,4.2,-229,12,0,-276,266,12,178.29456877708435,178.29460859298706,178.29721808433533,178.30891513824463,178.45909571647644,178.45909571647644,178.45909571647644,178.45909571647644,178.45909571647644,178.45909571647644,178.45909571647644,180.4934594631195,3,2.1750354766845703,None,,,,,,,,,,,,,,,,,,14,3,2025-02-18_14h04.03.515,comp,2024.2.4,60.088593450044414,2025-02-18 14h04.24.411445 -0500,
88,88,0,critical,dwh,35.0,3.0,lower,70.0,70.0,57.0,133.0,133.0,57.0,2,1.470186471939087,None,,,,,0,0,0,0,0,88,88,62,180.50895762443542,,,,,,,,,,,,,,,,,,,,,,,,,,,,,,,,,,,,,,,,,,,,,,,,,,,,,,,,,,,,,,,,,,,,,,,,,,,,,,,,,70.0,70.0,57.0,133.0,133.0,57.0,3.0,3.2,-198,-266,0,-11,191,278,180.49425959587097,180.494300365448,180.4969630241394,180.50895762443542,180.6589322090149,180.6589322090149,180.6589322090149,180.6589322090149,180.6589322090149,180.6589322090149,180.6589322090149,181.99333500862122,2,1.470186471939087,None,,,,,,,,,,,,,,,,,,14,3,2025-02-18_14h04.03.515,comp,2024.2.4,60.088593450044414,2025-02-18 14h04.24.411445 -0500,
89,89,0,filler_square,None,None,None,None,None,None,None,None,None,None,1,1.6110877990722656,None,,,,,0,0,0,0,0,89,89,208,182.0087547302246,,,,,,,,,,,,,,,,,,,,,,,,,,,,,,,,,,,,,,,,,,,,,,,,,,,,,,,,,,,,,,,,,,,,,,,,,,,,,,,,,130.71901154460983,130.71901154460983,94.81433628914237,77.08706232008623,122.48989774958274,91.18605000802623,2.1,2.12,-200,-250,0,-254,180,286,181.99432182312012,181.99436330795288,181.9968967437744,182.0087547302246,182.158921957016,182.158921957016,182.158921957016,182.158921957016,182.158921957016,182.158921957016,182.158921957016,183.62675714492798,1,1.6110877990722656,None,,,,,,,,,,,,,,,,,,14,3,2025-02-18_14h04.03.515,comp,2024.2.4,60.088593450044414,2025-02-18 14h04.24.411445 -0500,
90,90,0,filler_random,None,None,None,None,None,None,None,None,None,None,2,1.2173326015472412,None,,,,,0,0,0,0,0,90,90,151,183.64239716529846,,,,,,,,,,,,,,,,,,,,,,,,,,,,,,,,,,,,,,,,,,,,,,,,,,,,,,,,,,,,,,,,,,,,,,,,,,,,,,,,,171.98170066928822,125.62593198736839,198.70984843573456,158.63290182986913,132.74920941593751,182.704267838173,1.0,1.2,-238,15,0,17,267,-1,183.62765455245972,183.6276969909668,183.62993168830872,183.64239716529846,183.79250168800354,183.79250168800354,183.79250168800354,183.79250168800354,183.79250168800354,183.79250168800354,183.79250168800354,184.8769075870514,2,1.2173326015472412,None,,,,,,,,,,,,,,,,,,14,3,2025-02-18_14h04.03.515,comp,2024.2.4,60.088593450044414,2025-02-18 14h04.24.411445 -0500,
91,91,0,filler_square,None,None,None,None,None,None,None,None,None,None,1,2.1030187606811523,None,,,,,0,0,0,0,0,91,91,195,184.89217448234558,,,,,,,,,,,,,,,,,,,,,,,,,,,,,,,,,,,,,,,,,,,,,,,,,,,,,,,,,,,,,,,,,,,,,,,,,,,,,,,,,100.61469699674527,100.61469699674527,78.08380976580827,100.57289749949848,78.94988278336388,81.66530680820478,3.0,3.2,-197,-254,0,3,187,275,184.877867937088,184.8779091835022,184.88000965118408,184.89217448234558,185.04228568077087,185.04228568077087,185.04228568077087,185.04228568077087,185.04228568077087,185.04228568077087,185.04228568077087,187.01007080078125,1,2.1030187606811523,None,,,,,,,,,,,,,,,,,,14,3,2025-02-18_14h04.03.515,comp,2024.2.4,60.088593450044414,2025-02-18 14h04.24.411445 -0500,
92,92,0,filler_random,None,None,None,None,None,None,None,None,None,None,2,2.2265710830688477,None,,,,,0,0,0,0,0,92,92,164,187.02534675598145,,,,,,,,,,,,,,,,,,,,,,,,,,,,,,,,,,,,,,,,,,,,,,,,,,,,,,,,,,,,,,,,,,,,,,,,,,,,,,,,,101.8480513913488,143.32703096932028,91.30730889576374,173.6226382711256,102.14303516673436,114.52884286659176,1.0,1.1,-734,256,-480,283,-240,288,187.0109724998474,187.01101279258728,187.0134048461914,187.02534675598145,187.17555737495422,187.17555737495422,187.17555737495422,187.17555737495422,187.17555737495422,187.17555737495422,187.17555737495422,189.26018285751343,2,2.2265710830688477,None,,,,,,,,,,,,,,,,,,14,3,2025-02-18_14h04.03.515,comp,2024.2.4,60.088593450044414,2025-02-18 14h04.24.411445 -0500,
93,93,0,critical,dwh,20.0,2.1,lower,78.0,78.0,57.0,133.0,133.0,57.0,3,3.0083982944488525,None,,,,,0,0,0,0,0,93,93,6,189.27560830116272,,,,,,,,,,,,,,,,,,,,,,,,,,,,,,,,,,,,,,,,,,,,,,,,,,,,,,,,,,,,,,,,,,,,,,,,,,,,,,,,,78.0,78.0,57.0,133.0,133.0,57.0,2.1,2.12,-202,-261,0,-253,191,279,189.2610218524933,189.26106238365173,189.26356434822083,189.27560830116272,189.42546105384827,189.42546105384827,189.42546105384827,189.42546105384827,189.42546105384827,189.42546105384827,189.42546105384827,192.29405283927917,3,3.0083982944488525,None,,,,,,,,,,,,,,,,,,14,3,2025-02-18_14h04.03.515,comp,2024.2.4,60.088593450044414,2025-02-18 14h04.24.411445 -0500,
94,94,0,filler_square,None,None,None,None,None,None,None,None,None,None,1,2.317378520965576,None,,,,,0,0,0,0,0,94,94,182,192.3096101284027,,,,,,,,,,,,,,,,,,,,,,,,,,,,,,,,,,,,,,,,,,,,,,,,,,,,,,,,,,,,,,,,,,,,,,,,,,,,,,,,,103.98411835677487,103.98411835677487,93.54349597874278,82.08744602369033,62.73319061020841,89.85395671910382,4.0,4.1,-189,-268,0,-7,182,-286,192.29500889778137,192.29504990577698,192.29704976081848,192.3096101284027,192.45911121368408,192.45911121368408,192.45911121368408,192.45911121368408,192.45911121368408,192.45911121368408,192.45911121368408,194.64321327209473,1,2.317378520965576,None,,,,,,,,,,,,,,,,,,14,3,2025-02-18_14h04.03.515,comp,2024.2.4,60.088593450044414,2025-02-18 14h04.24.411445 -0500,
95,95,0,critical,whd,35.0,3.0,lower,57.0,133.0,133.0,57.0,70.0,70.0,1,2.361297845840454,None,,,,,0,0,0,0,0,95,95,86,194.65851306915283,,,,,,,,,,,,,,,,,,,,,,,,,,,,,,,,,,,,,,,,,,,,,,,,,,,,,,,,,,,,,,,,,,,,,,,,,,,,,,,,,57.0,133.0,133.0,57.0,70.0,70.0,3.0,3.1,-191,265,0,-18,160,-278,194.64398407936096,194.64402318000793,194.64647579193115,194.65851306915283,194.80892777442932,194.80892777442932,194.80892777442932,194.80892777442932,194.80892777442932,194.80892777442932,194.80892777442932,197.02657914161682,1,2.361297845840454,None,,,,,,,,,,,,,,,,,,14,3,2025-02-18_14h04.03.515,comp,2024.2.4,60.088593450044414,2025-02-18 14h04.24.411445 -0500,
96,96,0,critical,hdw,20.0,2.1,lower,133.0,57.0,78.0,78.0,57.0,133.0,3,1.9366395473480225,None,,,,,0,0,0,0,0,96,96,22,197.04236268997192,,,,,,,,,,,,,,,,,,,,,,,,,,,,,,,,,,,,,,,,,,,,,,,,,,,,,,,,,,,,,,,,,,,,,,,,,,,,,,,,,133.0,57.0,78.0,78.0,57.0,133.0,2.1,2.11,-164,267,0,287,202,-276,197.02751517295837,197.02755570411682,197.0301787853241,197.04236268997192,197.19200587272644,197.19200587272644,197.19200587272644,197.19200587272644,197.19200587272644,197.19200587272644,197.19200587272644,198.99314379692078,3,1.9366395473480225,None,,,,,,,,,,,,,,,,,,14,3,2025-02-18_14h04.03.515,comp,2024.2.4,60.088593450044414,2025-02-18 14h04.24.411445 -0500,
97,97,0,critical,dwh,20.0,3.0,lower,78.0,78.0,57.0,133.0,133.0,57.0,2,1.9492511749267578,None,,,,,0,0,0,0,0,97,97,68,199.00865721702576,,,,,,,,,,,,,,,,,,,,,,,,,,,,,,,,,,,,,,,,,,,,,,,,,,,,,,,,,,,,,,,,,,,,,,,,,,,,,,,,,78.0,78.0,57.0,133.0,133.0,57.0,3.0,3.2,-202,-260,0,1,191,259,198.99392533302307,198.99396395683289,198.99641942977905,199.00865721702576,199.15884351730347,199.15884351730347,199.15884351730347,199.15884351730347,199.15884351730347,199.15884351730347,199.15884351730347,200.9598822593689,2,1.9492511749267578,None,,,,,,,,,,,,,,,,,,14,3,2025-02-18_14h04.03.515,comp,2024.2.4,60.088593450044414,2025-02-18 14h04.24.411445 -0500,
98,98,0,critical,hdw,35.0,1.0,upper,200.0,125.0,127.0,127.0,125.0,200.0,3,2.084063768386841,None,,,,,0,0,0,0,0,98,98,109,200.97551727294922,,,,,,,,,,,,,,,,,,,,,,,,,,,,,,,,,,,,,,,,,,,,,,,,,,,,,,,,,,,,,,,,,,,,,,,,,,,,,,,,,200.0,125.0,127.0,127.0,125.0,200.0,1.0,1.1,-702,276,-480,276,-220,287,200.96066761016846,200.96070861816406,200.96306991577148,200.97551727294922,201.12553548812866,201.12553548812866,201.12553548812866,201.12553548812866,201.12553548812866,201.12553548812866,201.12553548812866,203.07683324813843,3,2.084063768386841,None,,,,,,,,,,,,,,,,,,14,3,2025-02-18_14h04.03.515,comp,2024.2.4,60.088593450044414,2025-02-18 14h04.24.411445 -0500,
99,99,0,critical,hdw,20.0,2.1,lower,133.0,57.0,78.0,78.0,57.0,133.0,3,2.1277225017547607,None,,,,,0,0,0,0,0,99,99,46,203.09197330474854,,,,,,,,,,,,,,,,,,,,,,,,,,,,,,,,,,,,,,,,,,,,,,,,,,,,,,,,,,,,,,,,,,,,,,,,,,,,,,,,,133.0,57.0,78.0,78.0,57.0,133.0,2.1,2.12,-164,-271,0,-250,202,271,203.0776388645172,203.07767868041992,203.08024787902832,203.09197330474854,203.2420048713684,203.2420048713684,203.2420048713684,203.2420048713684,203.2420048713684,203.2420048713684,203.2420048713684,205.22656321525574,3,2.1277225017547607,None,,,,,,,,,,,,,,,,,,14,3,2025-02-18_14h04.03.515,comp,2024.2.4,60.088593450044414,2025-02-18 14h04.24.411445 -0500,
100,100,0,filler_random,None,None,None,None,None,None,None,None,None,None,2,2.3046352863311768,None,,,,,0,0,0,0,0,100,100,131,205.24216985702515,,,,,,,,,,,,,,,,,,,,,,,,,,,,,,,,,,,,,,,,,,,,,,,,,,,,,,,,,,,,,,,,,,,,,,,,,,,,,,,,,63.50855678428432,197.4570318608813,157.35549578855483,118.6262934697825,193.6961700129934,92.42638600325705,2.1,2.12,-254,-276,0,-271,202,252,205.22750282287598,205.22754383087158,205.23013472557068,205.24216985702515,205.3922553062439,205.3922553062439,205.3922553062439,205.3922553062439,205.3922553062439,205.3922553062439,205.3922553062439,207.55999994277954,2,2.3046352863311768,None,,,,,,,,,,,,,,,,,,14,3,2025-02-18_14h04.03.515,comp,2024.2.4,60.088593450044414,2025-02-18 14h04.24.411445 -0500,
101,101,0,filler_random,None,None,None,None,None,None,None,None,None,None,1,2.860257387161255,None,,,,,0,0,0,0,0,101,101,146,207.57537841796875,,,,,,,,,,,,,,,,,,,,,,,,,,,,,,,,,,,,,,,,,,,,,,,,,,,,,,,,,,,,,,,,,,,,,,,,,,,,,,,,,160.66401411350515,105.05852971734623,63.49118687909605,183.00078451746214,113.38818678104965,86.51820455120514,3.0,3.2,-240,-264,0,-13,231,270,207.56090688705444,207.56094765663147,207.564293384552,207.57537841796875,207.72545528411865,207.72545528411865,207.72545528411865,207.72545528411865,207.72545528411865,207.72545528411865,207.72545528411865,210.4431881904602,1,2.860257387161255,None,,,,,,,,,,,,,,,,,,14,3,2025-02-18_14h04.03.515,comp,2024.2.4,60.088593450044414,2025-02-18 14h04.24.411445 -0500,
102,102,0,critical,dhw,35.0,2.1,lower,70.0,70.0,133.0,57.0,57.0,133.0,3,2.098466396331787,None,,,,,0,0,0,0,0,102,102,24,210.4590322971344,,,,,,,,,,,,,,,,,,,,,,,,,,,,,,,,,,,,,,,,,,,,,,,,,,,,,,,,,,,,,,,,,,,,,,,,,,,,,,,,,70.0,70.0,133.0,57.0,57.0,133.0,2.1,2.11,-160,256,0,268,191,-285,210.44398379325867,210.44402480125427,210.44647908210754,210.4590322971344,210.60852885246277,210.60852885246277,210.60852885246277,210.60852885246277,210.60852885246277,210.60852885246277,210.60852885246277,212.55976486206055,3,2.098466396331787,None,,,,,,,,,,,,,,,,,,14,3,2025-02-18_14h04.03.515,comp,2024.2.4,60.088593450044414,2025-02-18 14h04.24.411445 -0500,
103,103,0,critical,hwd,20.0,2.1,upper,200.0,125.0,125.0,200.0,141.0,141.0,2,2.7392897605895996,None,,,,,0,0,0,0,0,103,103,43,212.57535648345947,,,,,,,,,,,,,,,,,,,,,,,,,,,,,,,,,,,,,,,,,,,,,,,,,,,,,,,,,,,,,,,,,,,,,,,,,,,,,,,,,200.0,125.0,125.0,200.0,141.0,141.0,2.1,2.12,-258,-260,0,-271,266,250,212.56057834625244,212.5606186389923,212.56291556358337,212.57535648345947,212.72566890716553,212.72566890716553,212.72566890716553,212.72566890716553,212.72566890716553,212.72566890716553,212.72566890716553,215.3267080783844,2,2.7392897605895996,None,,,,,,,,,,,,,,,,,,14,3,2025-02-18_14h04.03.515,comp,2024.2.4,60.088593450044414,2025-02-18 14h04.24.411445 -0500,
104,104,0,critical,dhw,35.0,2.1,upper,127.0,127.0,200.0,125.0,125.0,200.0,3,3.061690092086792,None,,,,,0,0,0,0,0,104,104,25,215.34179496765137,,,,,,,,,,,,,,,,,,,,,,,,,,,,,,,,,,,,,,,,,,,,,,,,,,,,,,,,,,,,,,,,,,,,,,,,,,,,,,,,,127.0,127.0,200.0,125.0,125.0,200.0,2.1,2.12,-222,-265,0,-251,258,256,215.32752418518066,215.32756400108337,215.33014249801636,215.34179496765137,215.49207663536072,215.49207663536072,215.49207663536072,215.49207663536072,215.49207663536072,215.49207663536072,215.49207663536072,218.41013431549072,3,3.061690092086792,None,,,,,,,,,,,,,,,,,,14,3,2025-02-18_14h04.03.515,comp,2024.2.4,60.088593450044414,2025-02-18 14h04.24.411445 -0500,
105,105,0,critical,wdh,20.0,2.1,lower,57.0,133.0,78.0,78.0,133.0,57.0,1,2.6745879650115967,None,,,,,0,0,0,0,0,105,105,10,218.4254026412964,,,,,,,,,,,,,,,,,,,,,,,,,,,,,,,,,,,,,,,,,,,,,,,,,,,,,,,,,,,,,,,,,,,,,,,,,,,,,,,,,57.0,133.0,78.0,78.0,133.0,57.0,2.1,2.11,-202,274,0,257,164,-265,218.4109332561493,218.41097402572632,218.41340470314026,218.4254026412964,218.5752248764038,218.5752248764038,218.5752248764038,218.5752248764038,218.5752248764038,218.5752248764038,218.5752248764038,221.10970997810364,1,2.6745879650115967,None,,,,,,,,,,,,,,,,,,14,3,2025-02-18_14h04.03.515,comp,2024.2.4,60.088593450044414,2025-02-18 14h04.24.411445 -0500,
106,106,0,filler_square,None,None,None,None,None,None,None,None,None,None,1,3.253251791000366,None,,,,,0,0,0,0,0,106,106,173,221.1254358291626,,,,,,,,,,,,,,,,,,,,,,,,,,,,,,,,,,,,,,,,,,,,,,,,,,,,,,,,,,,,,,,,,,,,,,,,,,,,,,,,,177.4236351165418,177.4236351165418,78.2598281110999,176.06254802375003,103.30244118435604,176.1618990381528,3.0,3.2,-273,-289,0,-17,272,289,221.11067986488342,221.11072087287903,221.1130564212799,221.1254358291626,221.2753975391388,221.2753975391388,221.2753975391388,221.2753975391388,221.2753975391388,221.2753975391388,221.2753975391388,224.3931474685669,1,3.253251791000366,None,,,,,,,,,,,,,,,,,,14,3,2025-02-18_14h04.03.515,comp,2024.2.4,60.088593450044414,2025-02-18 14h04.24.411445 -0500,
107,107,0,critical,hdw,35.0,3.0,upper,200.0,125.0,127.0,127.0,125.0,200.0,1,1.5382602214813232,None,,,,,0,0,0,0,0,107,107,111,224.40831422805786,,,,,,,,,,,,,,,,,,,,,,,,,,,,,,,,,,,,,,,,,,,,,,,,,,,,,,,,,,,,,,,,,,,,,,,,,,,,,,,,,200.0,125.0,127.0,127.0,125.0,200.0,3.0,3.1,-222,270,0,-4,260,-272,224.3940315246582,224.3940703868866,224.39658856391907,224.40831422805786,224.55871391296387,224.55871391296387,224.55871391296387,224.55871391296387,224.55871391296387,224.55871391296387,224.55871391296387,225.95977139472961,1,1.5382602214813232,None,,,,,,,,,,,,,,,,,,14,3,2025-02-18_14h04.03.515,comp,2024.2.4,60.088593450044414,2025-02-18 14h04.24.411445 -0500,
108,108,0,critical,whd,35.0,1.0,lower,57.0,133.0,133.0,57.0,70.0,70.0,1,5.235663652420044,None,,,,,0,0,0,0,0,108,108,84,225.975022315979,,,,,,,,,,,,,,,,,,,,,,,,,,,,,,,,,,,,,,,,,,,,,,,,,,,,,,,,,,,,,,,,,,,,,,,,,,,,,,,,,57.0,133.0,133.0,57.0,70.0,70.0,1.0,1.1,-671,250,-480,286,-320,269,225.9605996608734,225.96064043045044,225.9627501964569,225.975022315979,226.1251609325409,226.1251609325409,226.1251609325409,226.1251609325409,226.1251609325409,226.1251609325409,226.1251609325409,231.22621846199036,1,5.235663652420044,None,,,,,,,,,,,,,,,,,,14,3,2025-02-18_14h04.03.515,comp,2024.2.4,60.088593450044414,2025-02-18 14h04.24.411445 -0500,
109,109,0,critical,dwh,35.0,1.0,lower,70.0,70.0,57.0,133.0,133.0,57.0,2,2.6175270080566406,None,,,,,0,0,0,0,0,109,109,60,231.24163460731506,,,,,,,,,,,,,,,,,,,,,,,,,,,,,,,,,,,,,,,,,,,,,,,,,,,,,,,,,,,,,,,,,,,,,,,,,,,,,,,,,70.0,70.0,57.0,133.0,133.0,57.0,1.0,1.3,282,-283,480,-253,671,-250,231.22701001167297,231.22705078125,231.22951340675354,231.24163460731506,231.39175152778625,231.39175152778625,231.39175152778625,231.39175152778625,231.39175152778625,231.39175152778625,231.39175152778625,233.87628841400146,2,2.6175270080566406,None,,,,,,,,,,,,,,,,,,14,3,2025-02-18_14h04.03.515,comp,2024.2.4,60.088593450044414,2025-02-18 14h04.24.411445 -0500,
110,110,0,critical,wdh,20.0,3.0,upper,125.0,200.0,141.0,141.0,200.0,125.0,1,3.054244041442871,None,,,,,0,0,0,0,0,110,110,81,233.90824484825134,,,,,,,,,,,,,,,,,,,,,,,,,,,,,,,,,,,,,,,,,,,,,,,,,,,,,,,,,,,,,,,,,,,,,,,,,,,,,,,,,125.0,200.0,141.0,141.0,200.0,125.0,3.0,3.2,-266,-276,0,-15,229,253,233.877099275589,233.87713980674744,233.87961316108704,233.90824484825134,234.0420413017273,234.0420413017273,234.0420413017273,234.0420413017273,234.0420413017273,234.0420413017273,234.0420413017273,236.976637840271,1,3.054244041442871,None,,,,,,,,,,,,,,,,,,14,3,2025-02-18_14h04.03.515,comp,2024.2.4,60.088593450044414,2025-02-18 14h04.24.411445 -0500,
111,111,0,critical,wdh,20.0,1.0,lower,57.0,133.0,78.0,78.0,133.0,57.0,3,2.6837141513824463,None,,,,,0,0,0,0,0,111,111,78,236.99172616004944,,,,,,,,,,,,,,,,,,,,,,,,,,,,,,,,,,,,,,,,,,,,,,,,,,,,,,,,,,,,,,,,,,,,,,,,,,,,,,,,,57.0,133.0,78.0,78.0,133.0,57.0,1.0,1.2,-202,-12,0,-18,164,-13,236.9774603843689,236.9775025844574,236.97962999343872,236.99172616004944,237.14182925224304,237.14182925224304,237.14182925224304,237.14182925224304,237.14182925224304,237.14182925224304,237.14182925224304,239.69434666633606,3,2.6837141513824463,None,,,,,,,,,,,,,,,,,,14,3,2025-02-18_14h04.03.515,comp,2024.2.4,60.088593450044414,2025-02-18 14h04.24.411445 -0500,
112,112,0,catch,None,None,None,None,None,None,None,None,None,None,3,1.1666340827941895,None,,,,,0,0,0,0,0,112,112,128,239.7091784477234,,,,,,,,,,,,,,,,,,,,,,,,,,,,,,,,,,,,,,,,,,,,,,,,,,,,,,,,,,,,,,,,,,,,,,,,,,,,,,,,,85,105,118,72,173,152,1.0,1.1,-664,278,-480,281,-272,287,239.69539546966553,239.69543600082397,239.69785737991333,239.7091784477234,239.85882139205933,239.85882139205933,239.85882139205933,239.85882139205933,239.85882139205933,239.85882139205933,239.85882139205933,240.89287114143372,3,1.1666340827941895,None,,,,,,,,,,,,,,,,,,14,3,2025-02-18_14h04.03.515,comp,2024.2.4,60.088593450044414,2025-02-18 14h04.24.411445 -0500,
113,113,0,critical,whd,20.0,2.1,upper,125.0,200.0,200.0,125.0,141.0,141.0,2,1.5918505191802979,None,,,,,0,0,0,0,0,113,113,39,240.90818858146667,,,,,,,,,,,,,,,,,,,,,,,,,,,,,,,,,,,,,,,,,,,,,,,,,,,,,,,,,,,,,,,,,,,,,,,,,,,,,,,,,125.0,200.0,200.0,125.0,141.0,141.0,2.1,2.12,-258,-275,0,-262,229,257,240.89366245269775,240.89370393753052,240.89606475830078,240.90818858146667,241.05857038497925,241.05857038497925,241.05857038497925,241.05857038497925,241.05857038497925,241.05857038497925,241.05857038497925,242.50972628593445,2,1.5918505191802979,None,,,,,,,,,,,,,,,,,,14,3,2025-02-18_14h04.03.515,comp,2024.2.4,60.088593450044414,2025-02-18 14h04.24.411445 -0500,
114,114,0,filler_square,None,None,None,None,None,None,None,None,None,None,2,1.0854580402374268,None,,,,,0,0,0,0,0,114,114,198,242.52513146400452,,,,,,,,,,,,,,,,,,,,,,,,,,,,,,,,,,,,,,,,,,,,,,,,,,,,,,,,,,,,,,,,,,,,,,,,,,,,,,,,,88.61042714362367,84.35836407272171,113.52085464421354,113.52085464421354,80.53321041266888,82.70898796360166,4.0,4.1,-195,-287,0,9,194,-259,242.51065230369568,242.5106909275055,242.51292490959167,242.52513146400452,242.6749882698059,242.6749882698059,242.6749882698059,242.6749882698059,242.6749882698059,242.6749882698059,242.6749882698059,243.6263029575348,2,1.0854580402374268,None,,,,,,,,,,,,,,,,,,14,3,2025-02-18_14h04.03.515,comp,2024.2.4,60.088593450044414,2025-02-18 14h04.24.411445 -0500,
115,115,0,filler_square,None,None,None,None,None,None,None,None,None,None,1,1.968857765197754,None,,,,,0,0,0,0,0,115,115,193,243.641676902771,,,,,,,,,,,,,,,,,,,,,,,,,,,,,,,,,,,,,,,,,,,,,,,,,,,,,,,,,,,,,,,,,,,,,,,,,,,,,,,,,75.72622845866297,75.72622845866297,68.51986323830248,67.76965657202776,67.48157201863737,58.54010173865547,2.2,2.22,-168,282,0,-280,159,-272,243.62728667259216,243.6273283958435,243.62979340553284,243.641676902771,243.7917137145996,243.7917137145996,243.7917137145996,243.7917137145996,243.7917137145996,243.7917137145996,243.7917137145996,245.62621235847473,1,1.968857765197754,None,,,,,,,,,,,,,,,,,,14,3,2025-02-18_14h04.03.515,comp,2024.2.4,60.088593450044414,2025-02-18 14h04.24.411445 -0500,
116,116,0,critical,wdh,20.0,4.0,lower,57.0,133.0,78.0,78.0,133.0,57.0,3,10.352826833724976,None,,,,,0,0,0,0,0,116,116,82,245.64155173301697,,,,,,,,,,,,,,,,,,,,,,,,,,,,,,,,,,,,,,,,,,,,,,,,,,,,,,,,,,,,,,,,,,,,,,,,,,,,,,,,,57.0,133.0,78.0,78.0,133.0,57.0,4.0,4.1,-202,-256,0,9,164,-287,245.62701654434204,245.6270558834076,245.62923574447632,245.64155173301697,245.79174160957336,245.79174160957336,245.79174160957336,245.79174160957336,245.79174160957336,245.79174160957336,245.79174160957336,256.0093491077423,3,10.352826833724976,None,,,,,,,,,,,,,,,,,,14,3,2025-02-18_14h04.03.515,comp,2024.2.4,60.088593450044414,2025-02-18 14h04.24.411445 -0500,
117,117,0,filler_random,None,None,None,None,None,None,None,None,None,None,3,1.2747924327850342,None,,,,,0,0,0,0,0,117,117,169,256.0246663093567,,,,,,,,,,,,,,,,,,,,,,,,,,,,,,,,,,,,,,,,,,,,,,,,,,,,,,,,,,,,,,,,,,,,,,,,,,,,,,,,,129.543413412224,97.94942829037004,165.2229605951802,77.51909947047379,179.3560475046222,138.5039566164608,1.0,1.1,-664,266,-480,269,-276,280,256.0102515220642,256.01029109954834,256.01277256011963,256.0246663093567,256.1749551296234,256.1749551296234,256.1749551296234,256.1749551296234,256.1749551296234,256.1749551296234,256.1749551296234,257.30945897102356,3,1.2747924327850342,None,,,,,,,,,,,,,,,,,,14,3,2025-02-18_14h04.03.515,comp,2024.2.4,60.088593450044414,2025-02-18 14h04.24.411445 -0500,
118,118,0,critical,dhw,35.0,1.0,upper,127.0,127.0,200.0,125.0,125.0,200.0,2,3.9671852588653564,None,,,,,0,0,0,0,0,118,118,49,257.32494378089905,,,,,,,,,,,,,,,,,,,,,,,,,,,,,,,,,,,,,,,,,,,,,,,,,,,,,,,,,,,,,,,,,,,,,,,,,,,,,,,,,127.0,127.0,200.0,125.0,125.0,200.0,1.0,1.2,-222,3,0,-3,258,-1,257.31022548675537,257.31026458740234,257.31265687942505,257.32494378089905,257.47523307800293,257.47523307800293,257.47523307800293,257.47523307800293,257.47523307800293,257.47523307800293,257.47523307800293,261.3095703125,2,3.9671852588653564,None,,,,,,,,,,,,,,,,,,14,3,2025-02-18_14h04.03.515,comp,2024.2.4,60.088593450044414,2025-02-18 14h04.24.411445 -0500,
119,119,0,critical,dhw,35.0,3.0,lower,70.0,70.0,133.0,57.0,57.0,133.0,3,1.3750512599945068,None,,,,,0,0,0,0,0,119,119,50,261.32486271858215,,,,,,,,,,,,,,,,,,,,,,,,,,,,,,,,,,,,,,,,,,,,,,,,,,,,,,,,,,,,,,,,,,,,,,,,,,,,,,,,,70.0,70.0,133.0,57.0,57.0,133.0,3.0,3.2,-160,-264,0,6,191,260,261.3103725910187,261.31041407585144,261.3129665851593,261.32486271858215,261.47490072250366,261.47490072250366,261.47490072250366,261.47490072250366,261.47490072250366,261.47490072250366,261.47490072250366,262.7094097137451,3,1.3750512599945068,None,,,,,,,,,,,,,,,,,,14,3,2025-02-18_14h04.03.515,comp,2024.2.4,60.088593450044414,2025-02-18 14h04.24.411445 -0500,
120,120,0,critical,wdh,35.0,4.0,upper,125.0,200.0,127.0,127.0,200.0,125.0,1,1.7013163566589355,None,,,,,0,0,0,0,0,120,120,77,262.7250235080719,,,,,,,,,,,,,,,,,,,,,,,,,,,,,,,,,,,,,,,,,,,,,,,,,,,,,,,,,,,,,,,,,,,,,,,,,,,,,,,,,125.0,200.0,127.0,127.0,200.0,125.0,4.0,4.1,-260,-278,0,-7,222,-258,262.7102098464966,262.71025133132935,262.71270084381104,262.7250235080719,262.875079870224,262.875079870224,262.875079870224,262.875079870224,262.875079870224,262.875079870224,262.875079870224,264.4428596496582,1,1.7013163566589355,None,,,,,,,,,,,,,,,,,,14,3,2025-02-18_14h04.03.515,comp,2024.2.4,60.088593450044414,2025-02-18 14h04.24.411445 -0500,
121,121,0,critical,hdw,20.0,1.0,upper,200.0,125.0,141.0,141.0,125.0,200.0,3,1.033975601196289,None,,,,,0,0,0,0,0,121,121,115,264.45799374580383,,,,,,,,,,,,,,,,,,,,,,,,,,,,,,,,,,,,,,,,,,,,,,,,,,,,,,,,,,,,,,,,,,,,,,,,,,,,,,,,,200.0,125.0,141.0,141.0,125.0,200.0,1.0,1.1,-709,271,-480,254,-214,260,264.44362902641296,264.4436674118042,264.44595980644226,264.45799374580383,264.60841608047485,264.60841608047485,264.60841608047485,264.60841608047485,264.60841608047485,264.60841608047485,264.60841608047485,265.50943207740784,3,1.033975601196289,None,,,,,,,,,,,,,,,,,,14,3,2025-02-18_14h04.03.515,comp,2024.2.4,60.088593450044414,2025-02-18 14h04.24.411445 -0500,
122,122,0,critical,dwh,20.0,2.1,upper,141.0,141.0,125.0,200.0,200.0,125.0,2,1.3751578330993652,None,,,,,0,0,0,0,0,122,122,7,265.5247552394867,,,,,,,,,,,,,,,,,,,,,,,,,,,,,,,,,,,,,,,,,,,,,,,,,,,,,,,,,,,,,,,,,,,,,,,,,,,,,,,,,141.0,141.0,125.0,200.0,200.0,125.0,2.1,2.11,-266,279,0,265,258,-262,265.5102446079254,265.5102870464325,265.5128254890442,265.5247552394867,265.6750764846802,265.6750764846802,265.6750764846802,265.6750764846802,265.6750764846802,265.6750764846802,265.6750764846802,266.9096052646637,2,1.3751578330993652,None,,,,,,,,,,,,,,,,,,14,3,2025-02-18_14h04.03.515,comp,2024.2.4,60.088593450044414,2025-02-18 14h04.24.411445 -0500,
123,123,0,critical,whd,20.0,1.0,upper,125.0,200.0,200.0,125.0,141.0,141.0,1,1.8320035934448242,None,,,,,0,0,0,0,0,123,123,91,266.92502093315125,,,,,,,,,,,,,,,,,,,,,,,,,,,,,,,,,,,,,,,,,,,,,,,,,,,,,,,,,,,,,,,,,,,,,,,,,,,,,,,,,125.0,200.0,200.0,125.0,141.0,141.0,1.0,1.2,-258,-11,0,3,229,-14,266.9103970527649,266.9104390144348,266.9129707813263,266.92502093315125,267.0749740600586,267.0749740600586,267.0749740600586,267.0749740600586,267.0749740600586,267.0749740600586,267.0749740600586,268.75958728790283,1,1.8320035934448242,None,,,,,,,,,,,,,,,,,,14,3,2025-02-18_14h04.03.515,comp,2024.2.4,60.088593450044414,2025-02-18 14h04.24.411445 -0500,
124,124,0,filler_random,None,None,None,None,None,None,None,None,None,None,2,1.197016954421997,None,,,,,0,0,0,0,0,124,124,138,268.7749354839325,,,,,,,,,,,,,,,,,,,,,,,,,,,,,,,,,,,,,,,,,,,,,,,,,,,,,,,,,,,,,,,,,,,,,,,,,,,,,,,,,119.01244918867546,98.44292053196443,75.21682386192619,146.8622090169078,118.87201089459109,57.38855088234101,3.0,3.1,-219,274,0,5,198,-267,268.7604866027832,268.7605278491974,268.76275873184204,268.7749354839325,268.924866437912,268.924866437912,268.924866437912,268.924866437912,268.924866437912,268.924866437912,268.924866437912,269.9760684967041,2,1.197016954421997,None,,,,,,,,,,,,,,,,,,14,3,2025-02-18_14h04.03.515,comp,2024.2.4,60.088593450044414,2025-02-18 14h04.24.411445 -0500,
125,125,0,critical,hdw,20.0,2.1,upper,200.0,125.0,141.0,141.0,125.0,200.0,3,1.4274976253509521,None,,,,,0,0,0,0,0,125,125,23,269.9915587902069,,,,,,,,,,,,,,,,,,,,,,,,,,,,,,,,,,,,,,,,,,,,,,,,,,,,,,,,,,,,,,,,,,,,,,,,,,,,,,,,,200.0,125.0,141.0,141.0,125.0,200.0,2.1,2.12,-229,-287,0,-287,266,274,269.9768581390381,269.97689986228943,269.9789946079254,269.9915587902069,270.1416177749634,270.1416177749634,270.1416177749634,270.1416177749634,270.1416177749634,270.1416177749634,270.1416177749634,271.4261243343353,3,1.4274976253509521,None,,,,,,,,,,,,,,,,,,14,3,2025-02-18_14h04.03.515,comp,2024.2.4,60.088593450044414,2025-02-18 14h04.24.411445 -0500,
126,126,0,critical,hwd,35.0,3.0,upper,200.0,125.0,125.0,200.0,127.0,127.0,2,1.19356107711792,None,,,,,0,0,0,0,0,126,126,99,271.44156670570374,,,,,,,,,,,,,,,,,,,,,,,,,,,,,,,,,,,,,,,,,,,,,,,,,,,,,,,,,,,,,,,,,,,,,,,,,,,,,,,,,200.0,125.0,125.0,200.0,127.0,127.0,3.0,3.1,-258,283,0,-6,260,-274,271.42692041397095,271.42696166038513,271.4292061328888,271.44156670570374,271.59162640571594,271.59162640571594,271.59162640571594,271.59162640571594,271.59162640571594,271.59162640571594,271.59162640571594,272.64276599884033,2,1.19356107711792,None,,,,,,,,,,,,,,,,,,14,3,2025-02-18_14h04.03.515,comp,2024.2.4,60.088593450044414,2025-02-18 14h04.24.411445 -0500,
127,127,0,filler_square,None,None,None,None,None,None,None,None,None,None,2,0.9839553833007812,None,,,,,0,0,0,0,0,127,127,194,272.65830636024475,,,,,,,,,,,,,,,,,,,,,,,,,,,,,,,,,,,,,,,,,,,,,,,,,,,,,,,,,,,,,,,,,,,,,,,,,,,,,,,,,115.03599903780506,120.87764617557687,151.74932803647118,151.74932803647118,142.26267935161212,58.38985949467206,1.0,1.2,-232,-13,0,-18,201,20,272.6437187194824,272.6437590122223,272.64610385894775,272.65830636024475,272.808119058609,272.808119058609,272.808119058609,272.808119058609,272.808119058609,272.808119058609,272.808119058609,273.6593129634857,2,0.9839553833007812,None,,,,,,,,,,,,,,,,,,14,3,2025-02-18_14h04.03.515,comp,2024.2.4,60.088593450044414,2025-02-18 14h04.24.411445 -0500,
128,128,0,filler_square,None,None,None,None,None,None,None,None,None,None,2,1.0171053409576416,None,,,,,0,0,0,0,0,128,128,170,273.6746664047241,,,,,,,,,,,,,,,,,,,,,,,,,,,,,,,,,,,,,,,,,,,,,,,,,,,,,,,,,,,,,,,,,,,,,,,,,,,,,,,,,68.30674708275748,115.0594299602055,186.45912334115567,186.45912334115567,85.94020489955655,97.63861245703208,4.0,4.2,-247,-6,0,-252,238,-7,273.6602818965912,273.66032218933105,273.6628165245056,273.6746664047241,273.8248517513275,273.8248517513275,273.8248517513275,273.8248517513275,273.8248517513275,273.8248517513275,273.8248517513275,274.6929190158844,2,1.0171053409576416,None,,,,,,,,,,,,,,,,,,14,3,2025-02-18_14h04.03.515,comp,2024.2.4,60.088593450044414,2025-02-18 14h04.24.411445 -0500,
129,129,0,filler_square,None,None,None,None,None,None,None,None,None,None,2,1.294734001159668,None,,,,,0,0,0,0,0,129,129,184,274.7082710266113,,,,,,,,,,,,,,,,,,,,,,,,,,,,,,,,,,,,,,,,,,,,,,,,,,,,,,,,,,,,,,,,,,,,,,,,,,,,,,,,,126.80101549963263,115.95138430385472,131.1911414577665,131.1911414577665,85.83241707620066,71.24400798620273,3.0,3.1,-220,254,0,4,197,-257,274.69388222694397,274.6939363479614,274.69646167755127,274.7082710266113,274.85802841186523,274.85802841186523,274.85802841186523,274.85802841186523,274.85802841186523,274.85802841186523,274.85802841186523,276.0092008113861,2,1.294734001159668,None,,,,,,,,,,,,,,,,,,14,3,2025-02-18_14h04.03.515,comp,2024.2.4,60.088593450044414,2025-02-18 14h04.24.411445 -0500,
130,130,0,critical,hwd,20.0,2.1,lower,133.0,57.0,57.0,133.0,78.0,78.0,1,1.2501235008239746,None,,,,,0,0,0,0,0,130,130,18,276.0248668193817,,,,,,,,,,,,,,,,,,,,,,,,,,,,,,,,,,,,,,,,,,,,,,,,,,,,,,,,,,,,,,,,,,,,,,,,,,,,,,,,,133.0,57.0,57.0,133.0,78.0,78.0,2.1,2.11,-191,259,0,271,202,-272,276.00999307632446,276.01003432273865,276.0125126838684,276.0248668193817,276.1748049259186,276.1748049259186,276.1748049259186,276.1748049259186,276.1748049259186,276.1748049259186,276.1748049259186,277.27618956565857,1,1.2501235008239746,None,,,,,,,,,,,,,,,,,,14,3,2025-02-18_14h04.03.515,comp,2024.2.4,60.088593450044414,2025-02-18 14h04.24.411445 -0500,
131,131,0,critical,dhw,20.0,3.0,upper,141.0,141.0,200.0,125.0,125.0,200.0,2,2.583526849746704,None,,,,,0,0,0,0,0,131,131,57,277.29164814949036,,,,,,,,,,,,,,,,,,,,,,,,,,,,,,,,,,,,,,,,,,,,,,,,,,,,,,,,,,,,,,,,,,,,,,,,,,,,,,,,,141.0,141.0,200.0,125.0,125.0,200.0,3.0,3.2,-229,-263,0,-6,258,253,277.276992559433,277.277046918869,277.2796428203583,277.29164814949036,277.4415748119354,277.4415748119354,277.4415748119354,277.4415748119354,277.4415748119354,277.4415748119354,277.4415748119354,279.8763403892517,2,2.583526849746704,None,,,,,,,,,,,,,,,,,,14,3,2025-02-18_14h04.03.515,comp,2024.2.4,60.088593450044414,2025-02-18 14h04.24.411445 -0500,
132,132,0,critical,hwd,20.0,3.0,upper,200.0,125.0,125.0,200.0,141.0,141.0,2,4.83853554725647,None,,,,,0,0,0,0,0,132,132,105,279.89151668548584,,,,,,,,,,,,,,,,,,,,,,,,,,,,,,,,,,,,,,,,,,,,,,,,,,,,,,,,,,,,,,,,,,,,,,,,,,,,,,,,,200.0,125.0,125.0,200.0,141.0,141.0,3.0,3.1,-258,282,0,20,266,-274,279.8771245479584,279.8771667480469,279.87967705726624,279.89151668548584,280.04161763191223,280.04161763191223,280.04161763191223,280.04161763191223,280.04161763191223,280.04161763191223,280.04161763191223,284.7428767681122,2,4.83853554725647,None,,,,,,,,,,,,,,,,,,14,3,2025-02-18_14h04.03.515,comp,2024.2.4,60.088593450044414,2025-02-18 14h04.24.411445 -0500,
133,133,0,critical,hwd,20.0,2.1,lower,133.0,57.0,57.0,133.0,78.0,78.0,2,1.7990524768829346,None,,,,,0,0,0,0,0,133,133,42,284.75794291496277,,,,,,,,,,,,,,,,,,,,,,,,,,,,,,,,,,,,,,,,,,,,,,,,,,,,,,,,,,,,,,,,,,,,,,,,,,,,,,,,,133.0,57.0,57.0,133.0,78.0,78.0,2.1,2.11,-191,278,0,254,202,-263,284.7436773777008,284.74371790885925,284.746071100235,284.75794291496277,284.9079113006592,284.9079113006592,284.9079113006592,284.9079113006592,284.9079113006592,284.9079113006592,284.9079113006592,286.5591742992401,2,1.7990524768829346,None,,,,,,,,,,,,,,,,,,14,3,2025-02-18_14h04.03.515,comp,2024.2.4,60.088593450044414,2025-02-18 14h04.24.411445 -0500,
134,134,0,filler_random,None,None,None,None,None,None,None,None,None,None,2,0.8999884128570557,None,,,,,0,0,0,0,0,134,134,145,286.57504081726074,,,,,,,,,,,,,,,,,,,,,,,,,,,,,,,,,,,,,,,,,,,,,,,,,,,,,,,,,,,,,,,,,,,,,,,,,,,,,,,,,83.49981728830866,132.04976191380786,181.5545653485192,109.68014492863362,99.62037311838114,152.4117169895226,1.0,1.1,-697,280,-480,270,-253,284,286.560076713562,286.5601167678833,286.5622396469116,286.57504081726074,286.7247562408447,286.7247562408447,286.7247562408447,286.7247562408447,286.7247562408447,286.7247562408447,286.7247562408447,287.4762194156647,2,0.8999884128570557,None,,,,,,,,,,,,,,,,,,14,3,2025-02-18_14h04.03.515,comp,2024.2.4,60.088593450044414,2025-02-18 14h04.24.411445 -0500,
135,135,0,critical,hdw,20.0,3.0,lower,133.0,57.0,78.0,78.0,57.0,133.0,3,1.5671346187591553,None,,,,,0,0,0,0,0,135,135,116,287.49135422706604,,,,,,,,,,,,,,,,,,,,,,,,,,,,,,,,,,,,,,,,,,,,,,,,,,,,,,,,,,,,,,,,,,,,,,,,,,,,,,,,,133.0,57.0,78.0,78.0,57.0,133.0,3.0,3.1,-164,276,0,11,202,-275,287.47705340385437,287.47710967063904,287.4796941280365,287.49135422706604,287.6412172317505,287.6412172317505,287.6412172317505,287.6412172317505,287.6412172317505,287.6412172317505,287.6412172317505,289.0756676197052,3,1.5671346187591553,None,,,,,,,,,,,,,,,,,,14,3,2025-02-18_14h04.03.515,comp,2024.2.4,60.088593450044414,2025-02-18 14h04.24.411445 -0500,
136,136,0,critical,wdh,35.0,4.0,lower,57.0,133.0,70.0,70.0,133.0,57.0,1,2.238830804824829,None,,,,,0,0,0,0,0,136,136,76,289.09114599227905,,,,,,,,,,,,,,,,,,,,,,,,,,,,,,,,,,,,,,,,,,,,,,,,,,,,,,,,,,,,,,,,,,,,,,,,,,,,,,,,,57.0,133.0,70.0,70.0,133.0,57.0,4.0,4.2,-198,2,0,-265,160,13,289.07643270492554,289.0764720439911,289.07907700538635,289.09114599227905,289.24149227142334,289.24149227142334,289.24149227142334,289.24149227142334,289.24149227142334,289.24149227142334,289.24149227142334,291.342476606369,1,2.238830804824829,None,,,,,,,,,,,,,,,,,,14,3,2025-02-18_14h04.03.515,comp,2024.2.4,60.088593450044414,2025-02-18 14h04.24.411445 -0500,
137,137,0,filler_random,None,None,None,None,None,None,None,None,None,None,2,1.1504597663879395,None,,,,,0,0,0,0,0,137,137,140,291.35770320892334,,,,,,,,,,,,,,,,,,,,,,,,,,,,,,,,,,,,,,,,,,,,,,,,,,,,,,,,,,,,,,,,,,,,,,,,,,,,,,,,,129.07351216683293,128.56687760453894,195.18680665366207,82.1179747109123,136.40419220153817,79.21684800992136,3.0,3.2,-201,-283,0,13,177,280,291.3433835506439,291.3434238433838,291.34600925445557,291.35770320892334,291.5079457759857,291.5079457759857,291.5079457759857,291.5079457759857,291.5079457759857,291.5079457759857,291.5079457759857,292.50938415527344,2,1.1504597663879395,None,,,,,,,,,,,,,,,,,,14,3,2025-02-18_14h04.03.515,comp,2024.2.4,60.088593450044414,2025-02-18 14h04.24.411445 -0500,
138,138,0,filler_random,None,None,None,None,None,None,None,None,None,None,2,1.142319679260254,None,,,,,0,0,0,0,0,138,138,157,292.5246534347534,,,,,,,,,,,,,,,,,,,,,,,,,,,,,,,,,,,,,,,,,,,,,,,,,,,,,,,,,,,,,,,,,,,,,,,,,,,,,,,,,133.38673972376276,107.21753860679857,157.90821900026532,116.38856799476473,138.41710022213186,80.81109130617708,2.2,2.21,-208,-276,0,255,195,269,292.5103132724762,292.51035356521606,292.51287269592285,292.5246534347534,292.67469215393066,292.67469215393066,292.67469215393066,292.67469215393066,292.67469215393066,292.67469215393066,292.67469215393066,293.6757695674896,2,1.142319679260254,None,,,,,,,,,,,,,,,,,,14,3,2025-02-18_14h04.03.515,comp,2024.2.4,60.088593450044414,2025-02-18 14h04.24.411445 -0500,
139,139,0,critical,hwd,20.0,4.0,lower,133.0,57.0,57.0,133.0,78.0,78.0,2,1.2078044414520264,None,,,,,0,0,0,0,0,139,139,106,293.6914048194885,,,,,,,,,,,,,,,,,,,,,,,,,,,,,,,,,,,,,,,,,,,,,,,,,,,,,,,,,,,,,,,,,,,,,,,,,,,,,,,,,133.0,57.0,57.0,133.0,78.0,78.0,4.0,4.2,-191,-13,0,-261,202,-11,293.67654490470886,293.6765854358673,293.67881751060486,293.6914048194885,293.84125661849976,293.84125661849976,293.84125661849976,293.84125661849976,293.84125661849976,293.84125661849976,293.84125661849976,294.9089705944061,2,1.2078044414520264,None,,,,,,,,,,,,,,,,,,14,3,2025-02-18_14h04.03.515,comp,2024.2.4,60.088593450044414,2025-02-18 14h04.24.411445 -0500,
