thisN,thisTrialN,thisRepN,effect,order,distance,config,diag,h_1,w_1,h_2,w_2,h_3,w_3,rect_choice.keys,rect_choice.rt,rect_choice.duration,instructions_loop.thisRepN,instructions_loop.thisTrialN,instructions_loop.thisN,instructions_loop.thisIndex,blocks.thisRepN,blocks.thisTrialN,blocks.thisN,blocks.thisIndex,trials.thisRepN,trials.thisTrialN,trials.thisN,trials.thisIndex,thisRow.t,notes,consent.started,agree_button.started,decline_button.started,consent_img.started,mouse.started,consent.stopped,agree_button.numClicks,agree_button.timesOn,agree_button.timesOff,decline_button.numClicks,decline_button.timesOn,decline_button.timesOff,mouse.x,mouse.y,mouse.leftButton,mouse.midButton,mouse.rightButton,mouse.time,mouse.clicked_name,exp_params.started,exp_params.stopped,welcome.started,welcome_text.started,welcome.stopped,instructions_1.started,instructions_1_text_1.started,instructions_1_text_2.started,key_resp.started,instructions_1.stopped,instructions_loop.key_resp.keys,instructions_loop.key_resp.rt,instructions_loop.key_resp.duration,instructions_2.started,instructions_2_text_1.started,instructions_2_text_2.started,key_resp_2.started,instructions_2.stopped,instructions_loop.key_resp_2.keys,instructions_loop.key_resp_2.rt,instructions_loop.key_resp_2.duration,instructions_3.started,instructions_3_text_1.started,r1_instr3.started,r2_instr3.started,r3_instr3.started,r1_instr3_label.started,r2_instr3_label.started,r3_instr3_label.started,instructions_3_text_3.started,instructions_3_text_4.started,key_resp_3.started,instructions_3.stopped,instructions_loop.key_resp_3.keys,instructions_loop.key_resp_3.rt,instructions_loop.key_resp_3.duration,instructions_4.started,instructions_4_text_1.started,instructions_4_text_3.started,instructions_4_text_2.started,key_resp_4.started,instructions_4.stopped,instructions_loop.key_resp_4.keys,instructions_loop.key_resp_4.rt,instructions_loop.key_resp_4.duration,instructions_5.started,instructions_5_text_1.started,instructions_5_text_2.started,key_resp_5.started,instructions_5.stopped,instructions_loop.key_resp_5.keys,instructions_loop.key_resp_5.rt,instructions_loop.key_resp_5.duration,start_exp.started,start_exp_text.started,key_resp_6.started,start_exp.stopped,key_resp_6.keys,key_resp_6.rt,key_resp_6.duration,h_1_tmp,w_1_tmp,h_2_tmp,w_2_tmp,h_3_tmp,w_3_tmp,config_tmp,config_tmp_1,r_1_x,r_1_y,r_2_x,r_2_y,r_3_x,r_3_y,pre_trial.started,pre_trial.stopped,choice_trial.started,rect_choice.started,r_1.started,r_2.started,r_3.started,r_1_label.started,r_2_label.started,r_3_label.started,prompt.started,choice_trial.stopped,trials.rect_choice.keys,trials.rect_choice.rt,trials.rect_choice.duration,end_block.started,end_block_text.started,end_block.stopped,end.started,end_text.started,key_resp_7.started,end.stopped,key_resp_7.keys,key_resp_7.rt,key_resp_7.duration,debriefing.started,debrief_form.started,end_debrief.started,debriefing.stopped,end_debrief.keys,end_debrief.rt,end_debrief.duration,participant,computer,date,expName,psychopyVersion,frameRate,expStart,
,,,,,,,,,,,,,,,,,,,,,,,,,,,,,,,0.015594244003295898,0.04215574264526367,0.04215574264526367,0.04215574264526367,0.015133142471313477,32.48484826087952,1,[32.441405057907104],[32.44141626358032],0,,,[-101.0],[-485.0],[1],[0],[0],[32.46871757507324],['agree_button'],,,,,,,,,,,,,,,,,,,,,,,,,,,,,,,,,,,,,,,,,,,,,,,,,,,,,,,,,,,,,,,,,,,,,,,,,,,,,,,,,,,,,,,,,,,,,,,,,,,,,,,,,,,150,3,2025-02-27_14h51.50.408,comp,2024.2.4,60.23520761258097,2025-02-27 14h52.01.076737 -0500,
,,,,,,,,,,,,,,,,,,,,,,,,,,,,,,,,,,,,,,,,,,,,,,,,,,32.48512125015259,32.48515462875366,,,,,,,,,,,,,,,,,,,,,,,,,,,,,,,,,,,,,,,,,,,,,,,,,,,,,,,,,,,,,,,,,,,,,,,,,,,,,,,,,,,,,,,,,,,,,,,,,,,,,,,,,150,3,2025-02-27_14h51.50.408,comp,2024.2.4,60.23520761258097,2025-02-27 14h52.01.076737 -0500,
,,,,,,,,,,,,,,,,,,,,,,,,,,,,,,,,,,,,,,,,,,,,,,,,,,,,32.48517727851868,32.49842691421509,34.493505239486694,,,,,,,,,,,,,,,,,,,,,,,,,,,,,,,,,,,,,,,,,,,,,,,,,,,,,,,,,,,,,,,,,,,,,,,,,,,,,,,,,,,,,,,,,,,,,,,,,,,,,,150,3,2025-02-27_14h51.50.408,comp,2024.2.4,60.23520761258097,2025-02-27 14h52.01.076737 -0500,
0,0,0,,,,,,,,,,,,,,,0,0,0,0,,,,,,,,,34.51023292541504,,,,,,,,,,,,,,,,,,,,,,,,,,34.49405598640442,34.51023292541504,34.51023292541504,35.99342679977417,38.779080867767334,space,2.7721428871154785,None,38.779162883758545,38.79424500465393,38.79424500465393,40.29352807998657,50.161255836486816,space,9.850258827209473,None,50.16133999824524,50.18319082260132,50.18319082260132,50.18319082260132,50.18319082260132,50.18319082260132,50.18319082260132,50.18319082260132,50.18319082260132,50.18319082260132,51.660483837127686,59.71203875541687,space,8.050344944000244,None,59.71214199066162,59.72731041908264,59.72731041908264,59.72731041908264,61.22714018821716,66.47777724266052,space,5.243118524551392,None,66.47786116600037,66.49358916282654,66.49358916282654,67.99331307411194,68.27777123451233,space,0.27696800231933594,None,68.27787637710571,68.29352164268494,68.29352164268494,69.67738604545593,space,1.367929458618164,None,,,,,,,,,,,,,,,,,,,,,,,,,,,,,,,,,,,,,,,,,,,,,,,150,3,2025-02-27_14h51.50.408,comp,2024.2.4,60.23520761258097,2025-02-27 14h52.01.076737 -0500,
0,0,0,critical,dhw,20.0,4.0,upper,141.0,141.0,200.0,125.0,125.0,200.0,3,129.64264583587646,None,,,,,0,0,0,0,0,0,0,59,69.73786759376526,,,,,,,,,,,,,,,,,,,,,,,,,,,,,,,,,,,,,,,,,,,,,,,,,,,,,,,,,,,,,,,,,,,,,,,,,,,,,,,,,141.0,141.0,200.0,125.0,125.0,200.0,4.0,4.1,-229,-282,0,2,258,-274,69.72424697875977,69.72429180145264,69.72631525993347,69.73786759376526,69.88261151313782,69.88261151313782,69.88261151313782,69.88261151313782,69.88261151313782,69.88261151313782,69.88261151313782,199.3938765525818,3,129.64264583587646,None,,,,,,,,,,,,,,,,,,150,3,2025-02-27_14h51.50.408,comp,2024.2.4,60.23520761258097,2025-02-27 14h52.01.076737 -0500,
1,1,0,filler_random,None,None,None,None,None,None,None,None,None,None,3,4.555314064025879,None,,,,,0,0,0,0,0,1,1,132,199.40902972221375,,,,,,,,,,,,,,,,,,,,,,,,,,,,,,,,,,,,,,,,,,,,,,,,,,,,,,,,,,,,,,,,,,,,,,,,,,,,,,,,,120.51719791175086,119.06916662748084,120.80221937268641,120.1306943707688,152.9633284260809,114.06309944098228,2.2,2.21,-216,-252,0,276,213,277,199.39480686187744,199.3948473930359,199.3970913887024,199.40902972221375,199.55921339988708,199.55921339988708,199.55921339988708,199.55921339988708,199.55921339988708,199.55921339988708,199.55921339988708,203.9771625995636,3,4.555314064025879,None,,,,,,,,,,,,,,,,,,150,3,2025-02-27_14h51.50.408,comp,2024.2.4,60.23520761258097,2025-02-27 14h52.01.076737 -0500,
2,2,0,filler_square,None,None,None,None,None,None,None,None,None,None,3,4.1504833698272705,None,,,,,0,0,0,0,0,2,2,196,203.99242615699768,,,,,,,,,,,,,,,,,,,,,,,,,,,,,,,,,,,,,,,,,,,,,,,,,,,,,,,,,,,,,,,,,,,,,,,,,,,,,,,,,71.50421267718393,76.41214813252543,86.15217336921083,78.6402039265564,93.0465009246757,93.0465009246757,3.0,3.1,-174,265,0,1,182,-266,203.97812390327454,203.97816681861877,203.98032355308533,203.99242615699768,204.14251947402954,204.14251947402954,204.14251947402954,204.14251947402954,204.14251947402954,204.14251947402954,204.14251947402954,208.16007804870605,3,4.1504833698272705,None,,,,,,,,,,,,,,,,,,150,3,2025-02-27_14h51.50.408,comp,2024.2.4,60.23520761258097,2025-02-27 14h52.01.076737 -0500,
3,3,0,filler_random,None,None,None,None,None,None,None,None,None,None,2,1.6215322017669678,None,,,,,0,0,0,0,0,3,3,133,208.1756088733673,,,,,,,,,,,,,,,,,,,,,,,,,,,,,,,,,,,,,,,,,,,,,,,,,,,,,,,,,,,,,,,,,,,,,,,,,,,,,,,,,118.73368446132274,111.33911429874355,150.64925016549637,140.7424468725985,104.0695167403438,83.57072292359685,4.0,4.1,-222,-268,0,-19,208,-258,208.16099166870117,208.16103219985962,208.16339898109436,208.1756088733673,208.32611870765686,208.32611870765686,208.32611870765686,208.32611870765686,208.32611870765686,208.32611870765686,208.32611870765686,209.81030416488647,2,1.6215322017669678,None,,,,,,,,,,,,,,,,,,150,3,2025-02-27_14h51.50.408,comp,2024.2.4,60.23520761258097,2025-02-27 14h52.01.076737 -0500,
4,4,0,critical,dhw,20.0,3.0,upper,141.0,141.0,200.0,125.0,125.0,200.0,3,1.683985948562622,None,,,,,0,0,0,0,0,4,4,57,209.82566618919373,,,,,,,,,,,,,,,,,,,,,,,,,,,,,,,,,,,,,,,,,,,,,,,,,,,,,,,,,,,,,,,,,,,,,,,,,,,,,,,,,141.0,141.0,200.0,125.0,125.0,200.0,3.0,3.1,-229,286,0,2,258,-281,209.81108140945435,209.81112265586853,209.81354212760925,209.82566618919373,209.97598886489868,209.97598886489868,209.97598886489868,209.97598886489868,209.97598886489868,209.97598886489868,209.97598886489868,211.5109007358551,3,1.683985948562622,None,,,,,,,,,,,,,,,,,,150,3,2025-02-27_14h51.50.408,comp,2024.2.4,60.23520761258097,2025-02-27 14h52.01.076737 -0500,
5,5,0,filler_random,None,None,None,None,None,None,None,None,None,None,3,1.1028311252593994,None,,,,,0,0,0,0,0,5,5,159,211.52611255645752,,,,,,,,,,,,,,,,,,,,,,,,,,,,,,,,,,,,,,,,,,,,,,,,,,,,,,,,,,,,,,,,,,,,,,,,,,,,,,,,,190.81623523762372,86.28090530058253,59.7603053550877,67.63131882085729,179.71996690108517,121.51471973624713,1.0,1.2,-173,-20,0,-1,191,13,211.5119071006775,211.51194953918457,211.51472926139832,211.52611255645752,211.67585015296936,211.67585015296936,211.67585015296936,211.67585015296936,211.67585015296936,211.67585015296936,211.67585015296936,212.6435956954956,3,1.1028311252593994,None,,,,,,,,,,,,,,,,,,150,3,2025-02-27_14h51.50.408,comp,2024.2.4,60.23520761258097,2025-02-27 14h52.01.076737 -0500,
6,6,0,filler_square,None,None,None,None,None,None,None,None,None,None,1,1.4508612155914307,None,,,,,0,0,0,0,0,6,6,177,212.65892148017883,,,,,,,,,,,,,,,,,,,,,,,,,,,,,,,,,,,,,,,,,,,,,,,,,,,,,,,,,,,,,,,,,,,,,,,,,,,,,,,,,136.65087729871894,136.65087729871894,119.00506510445996,89.58777151325717,83.73948061106275,109.06830804733981,3.0,3.1,-209,274,0,-12,195,-275,212.6445643901825,212.64460515975952,212.6471710205078,212.65892148017883,212.8091607093811,212.8091607093811,212.8091607093811,212.8091607093811,212.8091607093811,212.8091607093811,212.8091607093811,214.12680506706238,1,1.4508612155914307,None,,,,,,,,,,,,,,,,,,150,3,2025-02-27_14h51.50.408,comp,2024.2.4,60.23520761258097,2025-02-27 14h52.01.076737 -0500,
7,7,0,filler_square,None,None,None,None,None,None,None,None,None,None,1,1.2166697978973389,None,,,,,0,0,0,0,0,7,7,203,214.14229440689087,,,,,,,,,,,,,,,,,,,,,,,,,,,,,,,,,,,,,,,,,,,,,,,,,,,,,,,,,,,,,,,,,,,,,,,,,,,,,,,,,105.33712990834294,105.33712990834294,64.09185912726903,78.17075765911828,79.04398250896215,81.43217214966191,4.0,4.2,-188,10,0,-252,176,12,214.12775897979736,214.12779879570007,214.13035702705383,214.14229440689087,214.29235768318176,214.29235768318176,214.29235768318176,214.29235768318176,214.29235768318176,214.29235768318176,214.29235768318176,215.36046719551086,1,1.2166697978973389,None,,,,,,,,,,,,,,,,,,150,3,2025-02-27_14h51.50.408,comp,2024.2.4,60.23520761258097,2025-02-27 14h52.01.076737 -0500,
8,8,0,critical,hwd,35.0,1.0,upper,200.0,125.0,125.0,200.0,127.0,127.0,2,2.7253618240356445,None,,,,,0,0,0,0,0,8,8,97,215.37587451934814,,,,,,,,,,,,,,,,,,,,,,,,,,,,,,,,,,,,,,,,,,,,,,,,,,,,,,,,,,,,,,,,,,,,,,,,,,,,,,,,,200.0,125.0,125.0,200.0,127.0,127.0,1.0,1.3,222,-252,480,-255,740,-277,215.36127853393555,215.36131811141968,215.3637626171112,215.37587451934814,215.52590036392212,215.52590036392212,215.52590036392212,215.52590036392212,215.52590036392212,215.52590036392212,215.52590036392212,218.1103162765503,2,2.7253618240356445,None,,,,,,,,,,,,,,,,,,150,3,2025-02-27_14h51.50.408,comp,2024.2.4,60.23520761258097,2025-02-27 14h52.01.076737 -0500,
9,9,0,critical,hdw,20.0,2.1,lower,133.0,57.0,78.0,78.0,57.0,133.0,3,3.0495240688323975,None,,,,,0,0,0,0,0,9,9,22,218.12583374977112,,,,,,,,,,,,,,,,,,,,,,,,,,,,,,,,,,,,,,,,,,,,,,,,,,,,,,,,,,,,,,,,,,,,,,,,,,,,,,,,,133.0,57.0,78.0,78.0,57.0,133.0,2.1,2.12,-164,-277,0,-279,202,271,218.11111521720886,218.1111557483673,218.1132869720459,218.12583374977112,218.2758083343506,218.2758083343506,218.2758083343506,218.2758083343506,218.2758083343506,218.2758083343506,218.2758083343506,221.17708539962769,3,3.0495240688323975,None,,,,,,,,,,,,,,,,,,150,3,2025-02-27_14h51.50.408,comp,2024.2.4,60.23520761258097,2025-02-27 14h52.01.076737 -0500,
10,10,0,filler_square,None,None,None,None,None,None,None,None,None,None,1,1.724581003189087,None,,,,,0,0,0,0,0,10,10,202,221.19254565238953,,,,,,,,,,,,,,,,,,,,,,,,,,,,,,,,,,,,,,,,,,,,,,,,,,,,,,,,,,,,,,,,,,,,,,,,,,,,,,,,,113.60766302094393,113.60766302094393,113.16648074419436,79.68379534818493,99.89794090452963,59.0525683912398,1.0,1.1,-673,251,-480,255,-315,281,221.17802500724792,221.17808079719543,221.1805853843689,221.19254565238953,221.3425748348236,221.3425748348236,221.3425748348236,221.3425748348236,221.3425748348236,221.3425748348236,221.3425748348236,222.92677927017212,1,1.724581003189087,None,,,,,,,,,,,,,,,,,,150,3,2025-02-27_14h51.50.408,comp,2024.2.4,60.23520761258097,2025-02-27 14h52.01.076737 -0500,
11,11,0,critical,wdh,20.0,4.0,lower,57.0,133.0,78.0,78.0,133.0,57.0,1,3.2163145542144775,None,,,,,0,0,0,0,0,11,11,82,222.94246172904968,,,,,,,,,,,,,,,,,,,,,,,,,,,,,,,,,,,,,,,,,,,,,,,,,,,,,,,,,,,,,,,,,,,,,,,,,,,,,,,,,57.0,133.0,78.0,78.0,133.0,57.0,4.0,4.1,-202,-255,0,-11,164,-279,222.92758178710938,222.92762279510498,222.93016576766968,222.94246172904968,223.09236216545105,223.09236216545105,223.09236216545105,223.09236216545105,223.09236216545105,223.09236216545105,223.09236216545105,226.1602771282196,1,3.2163145542144775,None,,,,,,,,,,,,,,,,,,150,3,2025-02-27_14h51.50.408,comp,2024.2.4,60.23520761258097,2025-02-27 14h52.01.076737 -0500,
12,12,0,critical,dhw,35.0,4.0,upper,127.0,127.0,200.0,125.0,125.0,200.0,3,2.6212949752807617,None,,,,,0,0,0,0,0,12,12,53,226.17578101158142,,,,,,,,,,,,,,,,,,,,,,,,,,,,,,,,,,,,,,,,,,,,,,,,,,,,,,,,,,,,,,,,,,,,,,,,,,,,,,,,,127.0,127.0,200.0,125.0,125.0,200.0,4.0,4.1,-222,-254,0,7,258,-290,226.16104912757874,226.1611020565033,226.16322088241577,226.17578101158142,226.32582330703735,226.32582330703735,226.32582330703735,226.32582330703735,226.32582330703735,226.32582330703735,226.32582330703735,228.81032848358154,3,2.6212949752807617,None,,,,,,,,,,,,,,,,,,150,3,2025-02-27_14h51.50.408,comp,2024.2.4,60.23520761258097,2025-02-27 14h52.01.076737 -0500,
13,13,0,critical,dwh,35.0,2.1,lower,70.0,70.0,57.0,133.0,133.0,57.0,2,1.4673588275909424,None,,,,,0,0,0,0,0,13,13,28,228.8255603313446,,,,,,,,,,,,,,,,,,,,,,,,,,,,,,,,,,,,,,,,,,,,,,,,,,,,,,,,,,,,,,,,,,,,,,,,,,,,,,,,,70.0,70.0,57.0,133.0,133.0,57.0,2.1,2.12,-198,-255,0,-272,191,257,228.81113624572754,228.81117606163025,228.81356239318848,228.8255603313446,228.97569370269775,228.97569370269775,228.97569370269775,228.97569370269775,228.97569370269775,228.97569370269775,228.97569370269775,230.31015515327454,2,1.4673588275909424,None,,,,,,,,,,,,,,,,,,150,3,2025-02-27_14h51.50.408,comp,2024.2.4,60.23520761258097,2025-02-27 14h52.01.076737 -0500,
14,14,0,filler_square,None,None,None,None,None,None,None,None,None,None,1,1.375690221786499,None,,,,,0,0,0,0,0,14,14,191,230.3254692554474,,,,,,,,,,,,,,,,,,,,,,,,,,,,,,,,,,,,,,,,,,,,,,,,,,,,,,,,,,,,,,,,,,,,,,,,,,,,,,,,,158.10944911064277,158.10944911064277,108.72514811542726,116.79498755474108,135.1625732559148,123.6085602375183,4.0,4.1,-233,-285,0,16,216,-281,230.31111240386963,230.3111536502838,230.31447339057922,230.3254692554474,230.47575402259827,230.47575402259827,230.47575402259827,230.47575402259827,230.47575402259827,230.47575402259827,230.47575402259827,231.7102723121643,1,1.375690221786499,None,,,,,,,,,,,,,,,,,,150,3,2025-02-27_14h51.50.408,comp,2024.2.4,60.23520761258097,2025-02-27 14h52.01.076737 -0500,
15,15,0,filler_random,None,None,None,None,None,None,None,None,None,None,3,1.934452772140503,None,,,,,0,0,0,0,0,15,15,162,231.72586297988892,,,,,,,,,,,,,,,,,,,,,,,,,,,,,,,,,,,,,,,,,,,,,,,,,,,,,,,,,,,,,,,,,,,,,,,,,,,,,,,,,90.06427956874116,90.49502192102446,99.63208019409939,57.551590017581056,171.50136921651378,96.40874277425826,2.1,2.11,-170,274,0,258,173,-281,231.7111828327179,231.71122312545776,231.71336126327515,231.72586297988892,231.8756730556488,231.8756730556488,231.8756730556488,231.8756730556488,231.8756730556488,231.8756730556488,231.8756730556488,233.67681455612183,3,1.934452772140503,None,,,,,,,,,,,,,,,,,,150,3,2025-02-27_14h51.50.408,comp,2024.2.4,60.23520761258097,2025-02-27 14h52.01.076737 -0500,
16,16,0,critical,dhw,35.0,3.0,upper,127.0,127.0,200.0,125.0,125.0,200.0,3,1.7522244453430176,None,,,,,0,0,0,0,0,16,16,51,233.6922206878662,,,,,,,,,,,,,,,,,,,,,,,,,,,,,,,,,,,,,,,,,,,,,,,,,,,,,,,,,,,,,,,,,,,,,,,,,,,,,,,,,127.0,127.0,200.0,125.0,125.0,200.0,3.0,3.2,-222,-266,0,7,258,279,233.6776087284088,233.67764711380005,233.68023657798767,233.6922206878662,233.84239554405212,233.84239554405212,233.84239554405212,233.84239554405212,233.84239554405212,233.84239554405212,233.84239554405212,235.46026945114136,3,1.7522244453430176,None,,,,,,,,,,,,,,,,,,150,3,2025-02-27_14h51.50.408,comp,2024.2.4,60.23520761258097,2025-02-27 14h52.01.076737 -0500,
17,17,0,critical,dwh,35.0,2.1,upper,127.0,127.0,125.0,200.0,200.0,125.0,2,1.5615227222442627,None,,,,,0,0,0,0,0,17,17,5,235.47554683685303,,,,,,,,,,,,,,,,,,,,,,,,,,,,,,,,,,,,,,,,,,,,,,,,,,,,,,,,,,,,,,,,,,,,,,,,,,,,,,,,,127.0,127.0,125.0,200.0,200.0,125.0,2.1,2.11,-260,267,0,270,258,-276,235.46107864379883,235.46112060546875,235.46324610710144,235.47554683685303,235.62579774856567,235.62579774856567,235.62579774856567,235.62579774856567,235.62579774856567,235.62579774856567,235.62579774856567,237.04357528686523,2,1.5615227222442627,None,,,,,,,,,,,,,,,,,,150,3,2025-02-27_14h51.50.408,comp,2024.2.4,60.23520761258097,2025-02-27 14h52.01.076737 -0500,
18,18,0,critical,whd,35.0,2.1,lower,57.0,133.0,133.0,57.0,70.0,70.0,1,1.266632080078125,None,,,,,0,0,0,0,0,18,18,12,237.05903601646423,,,,,,,,,,,,,,,,,,,,,,,,,,,,,,,,,,,,,,,,,,,,,,,,,,,,,,,,,,,,,,,,,,,,,,,,,,,,,,,,,57.0,133.0,133.0,57.0,70.0,70.0,2.1,2.12,-191,-265,0,-288,160,287,237.04437613487244,237.04441714286804,237.0468442440033,237.05903601646423,237.2088348865509,237.2088348865509,237.2088348865509,237.2088348865509,237.2088348865509,237.2088348865509,237.2088348865509,238.32680535316467,1,1.266632080078125,None,,,,,,,,,,,,,,,,,,150,3,2025-02-27_14h51.50.408,comp,2024.2.4,60.23520761258097,2025-02-27 14h52.01.076737 -0500,
19,19,0,filler_square,None,None,None,None,None,None,None,None,None,None,3,1.648207187652588,None,,,,,0,0,0,0,0,19,19,181,238.34241724014282,,,,,,,,,,,,,,,,,,,,,,,,,,,,,,,,,,,,,,,,,,,,,,,,,,,,,,,,,,,,,,,,,,,,,,,,,,,,,,,,,93.23037950471942,57.47045691654143,121.92246181253903,125.05108481880697,129.03850061344392,129.03850061344392,4.0,4.2,-187,16,0,-284,223,10,238.32772970199585,238.32777094841003,238.33054065704346,238.34241724014282,238.49220967292786,238.49220967292786,238.49220967292786,238.49220967292786,238.49220967292786,238.49220967292786,238.49220967292786,239.99358558654785,3,1.648207187652588,None,,,,,,,,,,,,,,,,,,150,3,2025-02-27_14h51.50.408,comp,2024.2.4,60.23520761258097,2025-02-27 14h52.01.076737 -0500,
20,20,0,filler_random,None,None,None,None,None,None,None,None,None,None,1,1.4122674465179443,None,,,,,0,0,0,0,0,20,20,138,240.00893473625183,,,,,,,,,,,,,,,,,,,,,,,,,,,,,,,,,,,,,,,,,,,,,,,,,,,,,,,,,,,,,,,,,,,,,,,,,,,,,,,,,191.69754133722748,180.4702727663094,115.64438145819443,61.57013694405813,197.74934859335934,141.62066849214847,1.0,1.1,-697,281,-480,285,-282,266,239.994473695755,239.99451160430908,239.9968762397766,240.00893473625183,240.15914225578308,240.15914225578308,240.15914225578308,240.15914225578308,240.15914225578308,240.15914225578308,240.15914225578308,241.42700028419495,1,1.4122674465179443,None,,,,,,,,,,,,,,,,,,150,3,2025-02-27_14h51.50.408,comp,2024.2.4,60.23520761258097,2025-02-27 14h52.01.076737 -0500,
21,21,0,critical,dhw,20.0,1.0,lower,78.0,78.0,133.0,57.0,57.0,133.0,3,1.5379142761230469,None,,,,,0,0,0,0,0,21,21,54,241.44232630729675,,,,,,,,,,,,,,,,,,,,,,,,,,,,,,,,,,,,,,,,,,,,,,,,,,,,,,,,,,,,,,,,,,,,,,,,,,,,,,,,,78.0,78.0,133.0,57.0,57.0,133.0,1.0,1.1,-644,251,-480,267,-289,253,241.42781567573547,241.42785692214966,241.43004608154297,241.44232630729675,241.5922191143036,241.5922191143036,241.5922191143036,241.5922191143036,241.5922191143036,241.5922191143036,241.5922191143036,242.99340343475342,3,1.5379142761230469,None,,,,,,,,,,,,,,,,,,150,3,2025-02-27_14h51.50.408,comp,2024.2.4,60.23520761258097,2025-02-27 14h52.01.076737 -0500,
22,22,0,critical,hdw,35.0,3.0,lower,133.0,57.0,70.0,70.0,57.0,133.0,3,0.9500181674957275,None,,,,,0,0,0,0,0,22,22,110,243.0087354183197,,,,,,,,,,,,,,,,,,,,,,,,,,,,,,,,,,,,,,,,,,,,,,,,,,,,,,,,,,,,,,,,,,,,,,,,,,,,,,,,,133.0,57.0,70.0,70.0,57.0,133.0,3.0,3.2,-160,-280,0,6,198,284,242.9942169189453,242.99425840377808,242.99667811393738,243.0087354183197,243.15875458717346,243.15875458717346,243.15875458717346,243.15875458717346,243.15875458717346,243.15875458717346,243.15875458717346,243.96010780334473,3,0.9500181674957275,None,,,,,,,,,,,,,,,,,,150,3,2025-02-27_14h51.50.408,comp,2024.2.4,60.23520761258097,2025-02-27 14h52.01.076737 -0500,
23,23,0,critical,dwh,20.0,4.0,lower,78.0,78.0,57.0,133.0,133.0,57.0,2,0.9826891422271729,None,,,,,0,0,0,0,0,23,23,70,243.9759283065796,,,,,,,,,,,,,,,,,,,,,,,,,,,,,,,,,,,,,,,,,,,,,,,,,,,,,,,,,,,,,,,,,,,,,,,,,,,,,,,,,78.0,78.0,57.0,133.0,133.0,57.0,4.0,4.1,-202,-270,0,-14,191,-287,243.96087765693665,243.9609191417694,243.9634656906128,243.9759283065796,244.12554693222046,244.12554693222046,244.12554693222046,244.12554693222046,244.12554693222046,244.12554693222046,244.12554693222046,244.96017932891846,2,0.9826891422271729,None,,,,,,,,,,,,,,,,,,150,3,2025-02-27_14h51.50.408,comp,2024.2.4,60.23520761258097,2025-02-27 14h52.01.076737 -0500,
24,24,0,critical,hdw,20.0,1.0,upper,200.0,125.0,141.0,141.0,125.0,200.0,3,1.0213730335235596,None,,,,,0,0,0,0,0,24,24,115,244.97552156448364,,,,,,,,,,,,,,,,,,,,,,,,,,,,,,,,,,,,,,,,,,,,,,,,,,,,,,,,,,,,,,,,,,,,,,,,,,,,,,,,,200.0,125.0,141.0,141.0,125.0,200.0,1.0,1.1,-709,269,-480,271,-214,289,244.96099162101746,244.96103239059448,244.9635512828827,244.97552156448364,245.12571096420288,245.12571096420288,245.12571096420288,245.12571096420288,245.12571096420288,245.12571096420288,245.12571096420288,246.01004815101624,3,1.0213730335235596,None,,,,,,,,,,,,,,,,,,150,3,2025-02-27_14h51.50.408,comp,2024.2.4,60.23520761258097,2025-02-27 14h52.01.076737 -0500,
25,25,0,critical,dwh,35.0,2.1,upper,127.0,127.0,125.0,200.0,200.0,125.0,2,1.011498212814331,None,,,,,0,0,0,0,0,25,25,29,246.0254738330841,,,,,,,,,,,,,,,,,,,,,,,,,,,,,,,,,,,,,,,,,,,,,,,,,,,,,,,,,,,,,,,,,,,,,,,,,,,,,,,,,127.0,127.0,125.0,200.0,200.0,125.0,2.1,2.11,-260,260,0,255,258,-289,246.01083207130432,246.01087188720703,246.01293301582336,246.0254738330841,246.17565655708313,246.17565655708313,246.17565655708313,246.17565655708313,246.17565655708313,246.17565655708313,246.17565655708313,247.0434694290161,2,1.011498212814331,None,,,,,,,,,,,,,,,,,,150,3,2025-02-27_14h51.50.408,comp,2024.2.4,60.23520761258097,2025-02-27 14h52.01.076737 -0500,
26,26,0,critical,whd,20.0,1.0,upper,125.0,200.0,200.0,125.0,141.0,141.0,1,1.3621511459350586,None,,,,,0,0,0,0,0,26,26,91,247.05889987945557,,,,,,,,,,,,,,,,,,,,,,,,,,,,,,,,,,,,,,,,,,,,,,,,,,,,,,,,,,,,,,,,,,,,,,,,,,,,,,,,,125.0,200.0,200.0,125.0,141.0,141.0,1.0,1.3,222,-271,480,-262,709,-267,247.04425263404846,247.04429292678833,247.0466902256012,247.05889987945557,247.20904660224915,247.20904660224915,247.20904660224915,247.20904660224915,247.20904660224915,247.20904660224915,247.20904660224915,248.4269359111786,1,1.3621511459350586,None,,,,,,,,,,,,,,,,,,150,3,2025-02-27_14h51.50.408,comp,2024.2.4,60.23520761258097,2025-02-27 14h52.01.076737 -0500,
27,27,0,critical,hdw,20.0,4.0,lower,133.0,57.0,78.0,78.0,57.0,133.0,3,1.3000602722167969,None,,,,,0,0,0,0,0,27,27,118,248.44216060638428,,,,,,,,,,,,,,,,,,,,,,,,,,,,,,,,,,,,,,,,,,,,,,,,,,,,,,,,,,,,,,,,,,,,,,,,,,,,,,,,,133.0,57.0,78.0,78.0,57.0,133.0,4.0,4.2,-164,-6,0,-267,202,-6,248.42780709266663,248.4278473854065,248.42995691299438,248.44216060638428,248.59203624725342,248.59203624725342,248.59203624725342,248.59203624725342,248.59203624725342,248.59203624725342,248.59203624725342,249.7597634792328,3,1.3000602722167969,None,,,,,,,,,,,,,,,,,,150,3,2025-02-27_14h51.50.408,comp,2024.2.4,60.23520761258097,2025-02-27 14h52.01.076737 -0500,
28,28,0,filler_random,None,None,None,None,None,None,None,None,None,None,2,1.414813756942749,None,,,,,0,0,0,0,0,28,28,137,249.77541303634644,,,,,,,,,,,,,,,,,,,,,,,,,,,,,,,,,,,,,,,,,,,,,,,,,,,,,,,,,,,,,,,,,,,,,,,,,,,,,,,,,66.13727702912236,166.79124267326353,176.0678561253693,123.27929186959264,184.49768961607907,133.30609814273362,2.1,2.12,-241,-282,0,-273,224,268,249.76064109802246,249.76068019866943,249.7627420425415,249.77541303634644,249.92551922798157,249.92551922798157,249.92551922798157,249.92551922798157,249.92551922798157,249.92551922798157,249.92551922798157,251.19354939460754,2,1.414813756942749,None,,,,,,,,,,,,,,,,,,150,3,2025-02-27_14h51.50.408,comp,2024.2.4,60.23520761258097,2025-02-27 14h52.01.076737 -0500,
29,29,0,filler_square,None,None,None,None,None,None,None,None,None,None,2,1.3548574447631836,None,,,,,0,0,0,0,0,29,29,172,251.20921421051025,,,,,,,,,,,,,,,,,,,,,,,,,,,,,,,,,,,,,,,,,,,,,,,,,,,,,,,,,,,,,,,,,,,,,,,,,,,,,,,,,84.04210321468753,59.88421195166351,77.3939669115052,71.98210151392537,88.33285250488603,88.33285250488603,4.0,4.1,-162,-257,0,17,176,-283,251.19452166557312,251.19456338882446,251.19668841362,251.20921421051025,251.35871601104736,251.35871601104736,251.35871601104736,251.35871601104736,251.35871601104736,251.35871601104736,251.35871601104736,252.5764651298523,2,1.3548574447631836,None,,,,,,,,,,,,,,,,,,150,3,2025-02-27_14h51.50.408,comp,2024.2.4,60.23520761258097,2025-02-27 14h52.01.076737 -0500,
30,30,0,critical,dwh,20.0,4.0,upper,141.0,141.0,125.0,200.0,200.0,125.0,2,2.0841023921966553,None,,,,,0,0,0,0,0,30,30,71,252.5920286178589,,,,,,,,,,,,,,,,,,,,,,,,,,,,,,,,,,,,,,,,,,,,,,,,,,,,,,,,,,,,,,,,,,,,,,,,,,,,,,,,,141.0,141.0,125.0,200.0,200.0,125.0,4.0,4.1,-266,-254,0,-13,258,-271,252.5773184299469,252.57735562324524,252.58004784584045,252.5920286178589,252.74228763580322,252.74228763580322,252.74228763580322,252.74228763580322,252.74228763580322,252.74228763580322,252.74228763580322,254.69341921806335,2,2.0841023921966553,None,,,,,,,,,,,,,,,,,,150,3,2025-02-27_14h51.50.408,comp,2024.2.4,60.23520761258097,2025-02-27 14h52.01.076737 -0500,
31,31,0,critical,hwd,35.0,1.0,lower,133.0,57.0,57.0,133.0,70.0,70.0,1,1.7037098407745361,None,,,,,0,0,0,0,0,31,31,96,254.70866298675537,,,,,,,,,,,,,,,,,,,,,,,,,,,,,,,,,,,,,,,,,,,,,,,,,,,,,,,,,,,,,,,,,,,,,,,,,,,,,,,,,133.0,57.0,57.0,133.0,70.0,70.0,1.0,1.3,289,-272,480,-282,678,-250,254.6942126750946,254.6942536830902,254.69669222831726,254.70866298675537,254.85883808135986,254.85883808135986,254.85883808135986,254.85883808135986,254.85883808135986,254.85883808135986,254.85883808135986,256.42644906044006,1,1.7037098407745361,None,,,,,,,,,,,,,,,,,,150,3,2025-02-27_14h51.50.408,comp,2024.2.4,60.23520761258097,2025-02-27 14h52.01.076737 -0500,
32,32,0,critical,whd,20.0,2.1,upper,125.0,200.0,200.0,125.0,141.0,141.0,2,1.859062910079956,None,,,,,0,0,0,0,0,32,32,39,256.4419095516205,,,,,,,,,,,,,,,,,,,,,,,,,,,,,,,,,,,,,,,,,,,,,,,,,,,,,,,,,,,,,,,,,,,,,,,,,,,,,,,,,125.0,200.0,200.0,125.0,141.0,141.0,2.1,2.11,-258,281,0,265,229,-286,256.4272475242615,256.42728638648987,256.42978167533875,256.4419095516205,256.59234499931335,256.59234499931335,256.59234499931335,256.59234499931335,256.59234499931335,256.59234499931335,256.59234499931335,258.3101546764374,2,1.859062910079956,None,,,,,,,,,,,,,,,,,,150,3,2025-02-27_14h51.50.408,comp,2024.2.4,60.23520761258097,2025-02-27 14h52.01.076737 -0500,
33,33,0,critical,whd,20.0,1.0,lower,57.0,133.0,133.0,57.0,78.0,78.0,1,5.04915714263916,None,,,,,0,0,0,0,0,33,33,90,258.32557702064514,,,,,,,,,,,,,,,,,,,,,,,,,,,,,,,,,,,,,,,,,,,,,,,,,,,,,,,,,,,,,,,,,,,,,,,,,,,,,,,,,57.0,133.0,133.0,57.0,78.0,78.0,1.0,1.2,-191,11,0,18,164,0,258.3109550476074,258.310994386673,258.3131492137909,258.32557702064514,258.4753906726837,258.4753906726837,258.4753906726837,258.4753906726837,258.4753906726837,258.4753906726837,258.4753906726837,263.3932282924652,1,5.04915714263916,None,,,,,,,,,,,,,,,,,,150,3,2025-02-27_14h51.50.408,comp,2024.2.4,60.23520761258097,2025-02-27 14h52.01.076737 -0500,
34,34,0,filler_random,None,None,None,None,None,None,None,None,None,None,1,1.5552139282226562,None,,,,,0,0,0,0,0,34,34,134,263.40871715545654,,,,,,,,,,,,,,,,,,,,,,,,,,,,,,,,,,,,,,,,,,,,,,,,,,,,,,,,,,,,,,,,,,,,,,,,,,,,,,,,,166.59190852657537,157.50058241173815,122.49963172549585,84.80171523884286,130.09459979257608,140.55448941659327,2.1,2.11,-217,272,0,283,209,-289,263.39415550231934,263.394198179245,263.3973705768585,263.40871715545654,263.55886125564575,263.55886125564575,263.55886125564575,263.55886125564575,263.55886125564575,263.55886125564575,263.55886125564575,264.97665309906006,1,1.5552139282226562,None,,,,,,,,,,,,,,,,,,150,3,2025-02-27_14h51.50.408,comp,2024.2.4,60.23520761258097,2025-02-27 14h52.01.076737 -0500,
35,35,0,filler_square,None,None,None,None,None,None,None,None,None,None,2,1.333803415298462,None,,,,,0,0,0,0,0,35,35,188,264.9919788837433,,,,,,,,,,,,,,,,,,,,,,,,,,,,,,,,,,,,,,,,,,,,,,,,,,,,,,,,,,,,,,,,,,,,,,,,,,,,,,,,,115.47934650756113,102.46110774229362,137.34501654673414,137.34501654673414,103.82773874447982,113.27711120630477,2.1,2.12,-216,-250,0,-282,221,251,264.97762537002563,264.97766637802124,264.98022270202637,264.9919788837433,265.1422197818756,265.1422197818756,265.1422197818756,265.1422197818756,265.1422197818756,265.1422197818756,265.1422197818756,266.34313797950745,2,1.333803415298462,None,,,,,,,,,,,,,,,,,,150,3,2025-02-27_14h51.50.408,comp,2024.2.4,60.23520761258097,2025-02-27 14h52.01.076737 -0500,
36,36,0,critical,dwh,35.0,4.0,upper,127.0,127.0,125.0,200.0,200.0,125.0,2,3.1027517318725586,None,,,,,0,0,0,0,0,36,36,65,266.3586673736572,,,,,,,,,,,,,,,,,,,,,,,,,,,,,,,,,,,,,,,,,,,,,,,,,,,,,,,,,,,,,,,,,,,,,,,,,,,,,,,,,127.0,127.0,125.0,200.0,200.0,125.0,4.0,4.2,-260,-1,0,-273,258,-12,266.34393334388733,266.3439736366272,266.3463685512543,266.3586673736572,266.508953332901,266.508953332901,266.508953332901,266.508953332901,266.508953332901,266.508953332901,266.508953332901,269.4767370223999,2,3.1027517318725586,None,,,,,,,,,,,,,,,,,,150,3,2025-02-27_14h51.50.408,comp,2024.2.4,60.23520761258097,2025-02-27 14h52.01.076737 -0500,
37,37,0,critical,whd,35.0,2.1,lower,57.0,133.0,133.0,57.0,70.0,70.0,3,3.5288729667663574,None,,,,,0,0,0,0,0,37,37,36,269.4919865131378,,,,,,,,,,,,,,,,,,,,,,,,,,,,,,,,,,,,,,,,,,,,,,,,,,,,,,,,,,,,,,,,,,,,,,,,,,,,,,,,,57.0,133.0,133.0,57.0,70.0,70.0,2.1,2.12,-191,-274,0,-267,160,277,269.4775810241699,269.4776220321655,269.4801061153412,269.4919865131378,269.64204359054565,269.64204359054565,269.64204359054565,269.64204359054565,269.64204359054565,269.64204359054565,269.64204359054565,273.026748418808,3,3.5288729667663574,None,,,,,,,,,,,,,,,,,,150,3,2025-02-27_14h51.50.408,comp,2024.2.4,60.23520761258097,2025-02-27 14h52.01.076737 -0500,
38,38,0,critical,hdw,20.0,2.1,upper,200.0,125.0,141.0,141.0,125.0,200.0,1,3.937765598297119,None,,,,,0,0,0,0,0,38,38,23,273.0422873497009,,,,,,,,,,,,,,,,,,,,,,,,,,,,,,,,,,,,,,,,,,,,,,,,,,,,,,,,,,,,,,,,,,,,,,,,,,,,,,,,,200.0,125.0,141.0,141.0,125.0,200.0,2.1,2.12,-229,-264,0,-270,266,280,273.02755641937256,273.02759766578674,273.0300829410553,273.0422873497009,273.1921591758728,273.1921591758728,273.1921591758728,273.1921591758728,273.1921591758728,273.1921591758728,273.1921591758728,276.99339485168457,1,3.937765598297119,None,,,,,,,,,,,,,,,,,,150,3,2025-02-27_14h51.50.408,comp,2024.2.4,60.23520761258097,2025-02-27 14h52.01.076737 -0500,
39,39,0,catch,None,None,None,None,None,None,None,None,None,None,1,2.1974000930786133,None,,,,,0,0,0,0,0,39,39,122,277.0085964202881,,,,,,,,,,,,,,,,,,,,,,,,,,,,,,,,,,,,,,,,,,,,,,,,,,,,,,,,,,,,,,,,,,,,,,,,,,,,,,,,,141,184,87,103,122,68,2.1,2.11,-240,259,0,259,182,-279,276.9944372177124,276.99447870254517,276.99690079689026,277.0085964202881,277.1587989330292,277.1587989330292,277.1587989330292,277.1587989330292,277.1587989330292,277.1587989330292,277.1587989330292,279.210027217865,1,2.1974000930786133,None,,,,,,,,,,,,,,,,,,150,3,2025-02-27_14h51.50.408,comp,2024.2.4,60.23520761258097,2025-02-27 14h52.01.076737 -0500,
40,40,0,critical,dhw,35.0,3.0,lower,70.0,70.0,133.0,57.0,57.0,133.0,3,2.2432796955108643,None,,,,,0,0,0,0,0,40,40,50,279.22547578811646,,,,,,,,,,,,,,,,,,,,,,,,,,,,,,,,,,,,,,,,,,,,,,,,,,,,,,,,,,,,,,,,,,,,,,,,,,,,,,,,,70.0,70.0,133.0,57.0,57.0,133.0,3.0,3.1,-160,252,0,-19,191,-267,279.21082186698914,279.2108631134033,279.2129969596863,279.22547578811646,279.37516045570374,279.37516045570374,279.37516045570374,279.37516045570374,279.37516045570374,279.37516045570374,279.37516045570374,281.4764051437378,3,2.2432796955108643,None,,,,,,,,,,,,,,,,,,150,3,2025-02-27_14h51.50.408,comp,2024.2.4,60.23520761258097,2025-02-27 14h52.01.076737 -0500,
41,41,0,filler_square,None,None,None,None,None,None,None,None,None,None,3,1.928565502166748,None,,,,,0,0,0,0,0,41,41,175,281.49219274520874,,,,,,,,,,,,,,,,,,,,,,,,,,,,,,,,,,,,,,,,,,,,,,,,,,,,,,,,,,,,,,,,,,,,,,,,,,,,,,,,,95.89367726760197,60.822398904570846,88.34344751813903,68.96446008722542,133.9748790547299,133.9748790547299,1.0,1.3,319,-267,480,-251,677,-254,281.4773368835449,281.4773778915405,281.4797821044922,281.49219274520874,281.64202761650085,281.64202761650085,281.64202761650085,281.64202761650085,281.64202761650085,281.64202761650085,281.64202761650085,283.4264554977417,3,1.928565502166748,None,,,,,,,,,,,,,,,,,,150,3,2025-02-27_14h51.50.408,comp,2024.2.4,60.23520761258097,2025-02-27 14h52.01.076737 -0500,
42,42,0,filler_square,None,None,None,None,None,None,None,None,None,None,1,1.370210886001587,None,,,,,0,0,0,0,0,42,42,192,283.4421010017395,,,,,,,,,,,,,,,,,,,,,,,,,,,,,,,,,,,,,,,,,,,,,,,,,,,,,,,,,,,,,,,,,,,,,,,,,,,,,,,,,179.84354835447147,179.84354835447147,63.31364860352168,118.51621283794738,136.22823527547814,179.60816614509028,2.1,2.11,-245,271,0,257,245,-270,283.4274139404297,283.42745423316956,283.4298424720764,283.4421010017395,283.5920023918152,283.5920023918152,283.5920023918152,283.5920023918152,283.5920023918152,283.5920023918152,283.5920023918152,284.82653403282166,1,1.370210886001587,None,,,,,,,,,,,,,,,,,,150,3,2025-02-27_14h51.50.408,comp,2024.2.4,60.23520761258097,2025-02-27 14h52.01.076737 -0500,
43,43,0,filler_square,None,None,None,None,None,None,None,None,None,None,1,2.0913257598876953,None,,,,,0,0,0,0,0,43,43,171,284.841938495636,,,,,,,,,,,,,,,,,,,,,,,,,,,,,,,,,,,,,,,,,,,,,,,,,,,,,,,,,,,,,,,,,,,,,,,,,,,,,,,,,72.78559006215012,73.65824756307816,60.89380532078361,61.97151588730492,75.38797062523403,75.38797062523403,2.1,2.12,-164,-259,0,-254,165,251,284.82748103141785,284.8275218009949,284.8299186229706,284.841938495636,284.9917540550232,284.9917540550232,284.9917540550232,284.9917540550232,284.9917540550232,284.9917540550232,284.9917540550232,286.94300532341003,1,2.0913257598876953,None,,,,,,,,,,,,,,,,,,150,3,2025-02-27_14h51.50.408,comp,2024.2.4,60.23520761258097,2025-02-27 14h52.01.076737 -0500,
44,44,0,critical,dwh,20.0,1.0,lower,78.0,78.0,57.0,133.0,133.0,57.0,2,1.383183240890503,None,,,,,0,0,0,0,0,44,44,66,286.95877599716187,,,,,,,,,,,,,,,,,,,,,,,,,,,,,,,,,,,,,,,,,,,,,,,,,,,,,,,,,,,,,,,,,,,,,,,,,,,,,,,,,78.0,78.0,57.0,133.0,133.0,57.0,1.0,1.2,-202,19,0,-8,191,-19,286.94378900527954,286.9438302516937,286.94613885879517,286.95877599716187,287.10860657691956,287.10860657691956,287.10860657691956,287.10860657691956,287.10860657691956,287.10860657691956,287.10860657691956,288.35967922210693,2,1.383183240890503,None,,,,,,,,,,,,,,,,,,150,3,2025-02-27_14h51.50.408,comp,2024.2.4,60.23520761258097,2025-02-27 14h52.01.076737 -0500,
45,45,0,critical,wdh,35.0,2.1,lower,57.0,133.0,70.0,70.0,133.0,57.0,1,2.3887734413146973,None,,,,,0,0,0,0,0,45,45,32,288.3750259876251,,,,,,,,,,,,,,,,,,,,,,,,,,,,,,,,,,,,,,,,,,,,,,,,,,,,,,,,,,,,,,,,,,,,,,,,,,,,,,,,,57.0,133.0,70.0,70.0,133.0,57.0,2.1,2.12,-198,-254,0,-284,160,252,288.3604838848114,288.3605225086212,288.3630290031433,288.3750259876251,288.5251204967499,288.5251204967499,288.5251204967499,288.5251204967499,288.5251204967499,288.5251204967499,288.5251204967499,290.7763102054596,1,2.3887734413146973,None,,,,,,,,,,,,,,,,,,150,3,2025-02-27_14h51.50.408,comp,2024.2.4,60.23520761258097,2025-02-27 14h52.01.076737 -0500,
46,46,0,filler_random,None,None,None,None,None,None,None,None,None,None,1,1.5719611644744873,None,,,,,0,0,0,0,0,46,46,158,290.79177927970886,,,,,,,,,,,,,,,,,,,,,,,,,,,,,,,,,,,,,,,,,,,,,,,,,,,,,,,,,,,,,,,,,,,,,,,,,,,,,,,,,112.10552592373507,148.5076473356383,134.3430984443584,76.95332260280654,176.91034076492895,76.73593507781598,4.0,4.2,-209,6,0,-257,173,0,290.77720737457275,290.7772481441498,290.7797341346741,290.79177927970886,290.9419195652008,290.9419195652008,290.9419195652008,290.9419195652008,290.9419195652008,290.9419195652008,290.9419195652008,292.3764476776123,1,1.5719611644744873,None,,,,,,,,,,,,,,,,,,150,3,2025-02-27_14h51.50.408,comp,2024.2.4,60.23520761258097,2025-02-27 14h52.01.076737 -0500,
47,47,0,filler_square,None,None,None,None,None,None,None,None,None,None,2,1.3502113819122314,None,,,,,0,0,0,0,0,47,47,201,292.39176630973816,,,,,,,,,,,,,,,,,,,,,,,,,,,,,,,,,,,,,,,,,,,,,,,,,,,,,,,,,,,,,,,,,,,,,,,,,,,,,,,,,109.74474188222456,96.29830103812007,111.89162921613512,111.89162921613512,57.272957706664585,59.6536109172306,2.1,2.12,-200,-257,0,-286,182,260,292.3774425983429,292.3774857521057,292.37990379333496,292.39176630973816,292.5417640209198,292.5417640209198,292.5417640209198,292.5417640209198,292.5417640209198,292.5417640209198,292.5417640209198,293.7596094608307,2,1.3502113819122314,None,,,,,,,,,,,,,,,,,,150,3,2025-02-27_14h51.50.408,comp,2024.2.4,60.23520761258097,2025-02-27 14h52.01.076737 -0500,
48,48,0,critical,hdw,35.0,2.1,lower,133.0,57.0,70.0,70.0,57.0,133.0,3,1.517289638519287,None,,,,,0,0,0,0,0,48,48,20,293.7750515937805,,,,,,,,,,,,,,,,,,,,,,,,,,,,,,,,,,,,,,,,,,,,,,,,,,,,,,,,,,,,,,,,,,,,,,,,,,,,,,,,,133.0,57.0,70.0,70.0,57.0,133.0,2.1,2.12,-160,-256,0,-260,198,273,293.7604093551636,293.76044940948486,293.76296496391296,293.7750515937805,293.9251208305359,293.9251208305359,293.9251208305359,293.9251208305359,293.9251208305359,293.9251208305359,293.9251208305359,295.30963134765625,3,1.517289638519287,None,,,,,,,,,,,,,,,,,,150,3,2025-02-27_14h51.50.408,comp,2024.2.4,60.23520761258097,2025-02-27 14h52.01.076737 -0500,
49,49,0,critical,hwd,35.0,4.0,lower,133.0,57.0,57.0,133.0,70.0,70.0,1,1.1673591136932373,None,,,,,0,0,0,0,0,49,49,100,295.32509899139404,,,,,,,,,,,,,,,,,,,,,,,,,,,,,,,,,,,,,,,,,,,,,,,,,,,,,,,,,,,,,,,,,,,,,,,,,,,,,,,,,133.0,57.0,57.0,133.0,70.0,70.0,4.0,4.2,-191,-4,0,-257,198,0,295.3104202747345,295.3104600906372,295.3130147457123,295.32509899139404,295.47516417503357,295.47516417503357,295.47516417503357,295.47516417503357,295.47516417503357,295.47516417503357,295.47516417503357,296.5097153186798,1,1.1673591136932373,None,,,,,,,,,,,,,,,,,,150,3,2025-02-27_14h51.50.408,comp,2024.2.4,60.23520761258097,2025-02-27 14h52.01.076737 -0500,
50,50,0,critical,wdh,35.0,2.1,lower,57.0,133.0,70.0,70.0,133.0,57.0,1,1.3670101165771484,None,,,,,0,0,0,0,0,50,50,8,296.5251462459564,,,,,,,,,,,,,,,,,,,,,,,,,,,,,,,,,,,,,,,,,,,,,,,,,,,,,,,,,,,,,,,,,,,,,,,,,,,,,,,,,57.0,133.0,70.0,70.0,133.0,57.0,2.1,2.11,-198,251,0,276,160,-267,296.510516166687,296.5105547904968,296.51310873031616,296.5251462459564,296.67498755455017,296.67498755455017,296.67498755455017,296.67498755455017,296.67498755455017,296.67498755455017,296.67498755455017,297.90963888168335,1,1.3670101165771484,None,,,,,,,,,,,,,,,,,,150,3,2025-02-27_14h51.50.408,comp,2024.2.4,60.23520761258097,2025-02-27 14h52.01.076737 -0500,
51,51,0,critical,whd,20.0,2.1,lower,57.0,133.0,133.0,57.0,78.0,78.0,1,2.416839361190796,None,,,,,0,0,0,0,0,51,51,38,297.92508339881897,,,,,,,,,,,,,,,,,,,,,,,,,,,,,,,,,,,,,,,,,,,,,,,,,,,,,,,,,,,,,,,,,,,,,,,,,,,,,,,,,57.0,133.0,133.0,57.0,78.0,78.0,2.1,2.11,-191,260,0,275,164,-261,297.9104390144348,297.9104790687561,297.912974357605,297.92508339881897,298.0750513076782,298.0750513076782,298.0750513076782,298.0750513076782,298.0750513076782,298.0750513076782,298.0750513076782,300.3432660102844,1,2.416839361190796,None,,,,,,,,,,,,,,,,,,150,3,2025-02-27_14h51.50.408,comp,2024.2.4,60.23520761258097,2025-02-27 14h52.01.076737 -0500,
52,52,0,critical,hwd,35.0,2.1,upper,200.0,125.0,125.0,200.0,127.0,127.0,2,1.3743577003479004,None,,,,,0,0,0,0,0,52,52,41,300.3586301803589,,,,,,,,,,,,,,,,,,,,,,,,,,,,,,,,,,,,,,,,,,,,,,,,,,,,,,,,,,,,,,,,,,,,,,,,,,,,,,,,,200.0,125.0,125.0,200.0,127.0,127.0,2.1,2.12,-258,-262,0,-274,260,259,300.34404039382935,300.3440957069397,300.3467288017273,300.3586301803589,300.5087616443634,300.5087616443634,300.5087616443634,300.5087616443634,300.5087616443634,300.5087616443634,300.5087616443634,301.74316453933716,2,1.3743577003479004,None,,,,,,,,,,,,,,,,,,150,3,2025-02-27_14h51.50.408,comp,2024.2.4,60.23520761258097,2025-02-27 14h52.01.076737 -0500,
53,53,0,critical,hdw,20.0,4.0,upper,200.0,125.0,141.0,141.0,125.0,200.0,2,1.831291913986206,None,,,,,0,0,0,0,0,53,53,119,301.7586488723755,,,,,,,,,,,,,,,,,,,,,,,,,,,,,,,,,,,,,,,,,,,,,,,,,,,,,,,,,,,,,,,,,,,,,,,,,,,,,,,,,200.0,125.0,141.0,141.0,125.0,200.0,4.0,4.1,-229,-269,0,-18,266,-264,301.7439856529236,301.7440273761749,301.7462360858917,301.7586488723755,301.9088599681854,301.9088599681854,301.9088599681854,301.9088599681854,301.9088599681854,301.9088599681854,301.9088599681854,303.5933401584625,2,1.831291913986206,None,,,,,,,,,,,,,,,,,,150,3,2025-02-27_14h51.50.408,comp,2024.2.4,60.23520761258097,2025-02-27 14h52.01.076737 -0500,
54,54,0,critical,whd,35.0,2.1,upper,125.0,200.0,200.0,125.0,127.0,127.0,2,1.619089126586914,None,,,,,0,0,0,0,0,54,54,13,303.60872769355774,,,,,,,,,,,,,,,,,,,,,,,,,,,,,,,,,,,,,,,,,,,,,,,,,,,,,,,,,,,,,,,,,,,,,,,,,,,,,,,,,125.0,200.0,200.0,125.0,127.0,127.0,2.1,2.12,-258,-267,0,-260,222,265,303.5941753387451,303.59421586990356,303.5963544845581,303.60872769355774,303.7591254711151,303.7591254711151,303.7591254711151,303.7591254711151,303.7591254711151,303.7591254711151,303.7591254711151,305.2431607246399,2,1.619089126586914,None,,,,,,,,,,,,,,,,,,150,3,2025-02-27_14h51.50.408,comp,2024.2.4,60.23520761258097,2025-02-27 14h52.01.076737 -0500,
55,55,0,critical,dwh,35.0,3.0,lower,70.0,70.0,57.0,133.0,133.0,57.0,3,4.042201995849609,None,,,,,0,0,0,0,0,55,55,62,305.2583661079407,,,,,,,,,,,,,,,,,,,,,,,,,,,,,,,,,,,,,,,,,,,,,,,,,,,,,,,,,,,,,,,,,,,,,,,,,,,,,,,,,70.0,70.0,57.0,133.0,133.0,57.0,3.0,3.1,-198,261,0,15,191,-286,305.2439332008362,305.2439742088318,305.2463252544403,305.2583661079407,305.4084177017212,305.4084177017212,305.4084177017212,305.4084177017212,305.4084177017212,305.4084177017212,305.4084177017212,309.3094882965088,3,4.042201995849609,None,,,,,,,,,,,,,,,,,,150,3,2025-02-27_14h51.50.408,comp,2024.2.4,60.23520761258097,2025-02-27 14h52.01.076737 -0500,
56,56,0,critical,wdh,20.0,3.0,lower,57.0,133.0,78.0,78.0,133.0,57.0,1,1.3432965278625488,None,,,,,0,0,0,0,0,56,56,80,309.3252727985382,,,,,,,,,,,,,,,,,,,,,,,,,,,,,,,,,,,,,,,,,,,,,,,,,,,,,,,,,,,,,,,,,,,,,,,,,,,,,,,,,57.0,133.0,78.0,78.0,133.0,57.0,3.0,3.1,-202,285,0,10,164,-254,309.3102934360504,309.3103346824646,309.31247544288635,309.3252727985382,309.4752240180969,309.4752240180969,309.4752240180969,309.4752240180969,309.4752240180969,309.4752240180969,309.4752240180969,310.67615962028503,1,1.3432965278625488,None,,,,,,,,,,,,,,,,,,150,3,2025-02-27_14h51.50.408,comp,2024.2.4,60.23520761258097,2025-02-27 14h52.01.076737 -0500,
57,57,0,filler_random,None,None,None,None,None,None,None,None,None,None,2,1.3837885856628418,None,,,,,0,0,0,0,0,57,57,157,310.6918992996216,,,,,,,,,,,,,,,,,,,,,,,,,,,,,,,,,,,,,,,,,,,,,,,,,,,,,,,,,,,,,,,,,,,,,,,,,,,,,,,,,91.60749430496088,122.92920447046934,76.54685705417802,176.15708867447103,183.34186310884218,128.19542274552356,2.1,2.11,-246,262,0,275,248,-278,310.67707419395447,310.67711663246155,310.6796009540558,310.6918992996216,310.84219098091125,310.84219098091125,310.84219098091125,310.84219098091125,310.84219098091125,310.84219098091125,310.84219098091125,312.0928065776825,2,1.3837885856628418,None,,,,,,,,,,,,,,,,,,150,3,2025-02-27_14h51.50.408,comp,2024.2.4,60.23520761258097,2025-02-27 14h52.01.076737 -0500,
58,58,0,critical,dhw,20.0,4.0,lower,78.0,78.0,133.0,57.0,57.0,133.0,3,2.439344882965088,None,,,,,0,0,0,0,0,58,58,58,312.1082561016083,,,,,,,,,,,,,,,,,,,,,,,,,,,,,,,,,,,,,,,,,,,,,,,,,,,,,,,,,,,,,,,,,,,,,,,,,,,,,,,,,78.0,78.0,133.0,57.0,57.0,133.0,4.0,4.2,-164,-4,0,-266,191,12,312.09360575675964,312.09364676475525,312.096230506897,312.1082561016083,312.25839281082153,312.25839281082153,312.25839281082153,312.25839281082153,312.25839281082153,312.25839281082153,312.25839281082153,314.5598177909851,3,2.439344882965088,None,,,,,,,,,,,,,,,,,,150,3,2025-02-27_14h51.50.408,comp,2024.2.4,60.23520761258097,2025-02-27 14h52.01.076737 -0500,
59,59,0,critical,wdh,35.0,2.1,upper,125.0,200.0,127.0,127.0,200.0,125.0,1,1.8047304153442383,None,,,,,0,0,0,0,0,59,59,9,314.575035572052,,,,,,,,,,,,,,,,,,,,,,,,,,,,,,,,,,,,,,,,,,,,,,,,,,,,,,,,,,,,,,,,,,,,,,,,,,,,,,,,,125.0,200.0,127.0,127.0,200.0,125.0,2.1,2.12,-260,-287,0,-266,222,263,314.5606298446655,314.5606701374054,314.563193321228,314.575035572052,314.72535490989685,314.72535490989685,314.72535490989685,314.72535490989685,314.72535490989685,314.72535490989685,314.72535490989685,316.3930537700653,1,1.8047304153442383,None,,,,,,,,,,,,,,,,,,150,3,2025-02-27_14h51.50.408,comp,2024.2.4,60.23520761258097,2025-02-27 14h52.01.076737 -0500,
60,60,0,filler_random,None,None,None,None,None,None,None,None,None,None,2,2.9817843437194824,None,,,,,0,0,0,0,0,60,60,161,316.4083778858185,,,,,,,,,,,,,,,,,,,,,,,,,,,,,,,,,,,,,,,,,,,,,,,,,,,,,,,,,,,,,,,,,,,,,,,,,,,,,,,,,74.22033672420199,127.683021378923,136.29964808512113,80.60207117989697,153.1679937755109,69.81927730978303,1.0,1.2,-200,-18,0,-3,171,11,316.39396142959595,316.39400267601013,316.39732241630554,316.4083778858185,316.558562040329,316.558562040329,316.558562040329,316.558562040329,316.558562040329,316.558562040329,316.558562040329,319.392963886261,2,2.9817843437194824,None,,,,,,,,,,,,,,,,,,150,3,2025-02-27_14h51.50.408,comp,2024.2.4,60.23520761258097,2025-02-27 14h52.01.076737 -0500,
61,61,0,critical,dwh,20.0,2.1,upper,141.0,141.0,125.0,200.0,200.0,125.0,2,1.6601028442382812,None,,,,,0,0,0,0,0,61,61,7,319.40848445892334,,,,,,,,,,,,,,,,,,,,,,,,,,,,,,,,,,,,,,,,,,,,,,,,,,,,,,,,,,,,,,,,,,,,,,,,,,,,,,,,,141.0,141.0,125.0,200.0,200.0,125.0,2.1,2.12,-266,-265,0,-254,258,255,319.3937244415283,319.39376306533813,319.396324634552,319.40848445892334,319.5585787296295,319.5585787296295,319.5585787296295,319.5585787296295,319.5585787296295,319.5585787296295,319.5585787296295,321.0763373374939,2,1.6601028442382812,None,,,,,,,,,,,,,,,,,,150,3,2025-02-27_14h51.50.408,comp,2024.2.4,60.23520761258097,2025-02-27 14h52.01.076737 -0500,
62,62,0,critical,whd,35.0,1.0,lower,57.0,133.0,133.0,57.0,70.0,70.0,1,1.2086634635925293,None,,,,,0,0,0,0,0,62,62,84,321.09184741973877,,,,,,,,,,,,,,,,,,,,,,,,,,,,,,,,,,,,,,,,,,,,,,,,,,,,,,,,,,,,,,,,,,,,,,,,,,,,,,,,,57.0,133.0,133.0,57.0,70.0,70.0,1.0,1.3,289,-259,480,-281,640,-267,321.0772144794464,321.0772547721863,321.0794093608856,321.09184741973877,321.2417347431183,321.2417347431183,321.2417347431183,321.2417347431183,321.2417347431183,321.2417347431183,321.2417347431183,322.30931782722473,1,1.2086634635925293,None,,,,,,,,,,,,,,,,,,150,3,2025-02-27_14h51.50.408,comp,2024.2.4,60.23520761258097,2025-02-27 14h52.01.076737 -0500,
63,63,0,catch,None,None,None,None,None,None,None,None,None,None,2,1.095350742340088,None,,,,,0,0,0,0,0,63,63,123,322.3250210285187,,,,,,,,,,,,,,,,,,,,,,,,,,,,,,,,,,,,,,,,,,,,,,,,,,,,,,,,,,,,,,,,,,,,,,,,,,,,,,,,,121,69,133,192,102,88,4.0,4.2,-226,19,0,-282,236,-7,322.310364484787,322.31040716171265,322.3128573894501,322.3250210285187,322.47521901130676,322.47521901130676,322.47521901130676,322.47521901130676,322.47521901130676,322.47521901130676,322.47521901130676,323.4262342453003,2,1.095350742340088,None,,,,,,,,,,,,,,,,,,150,3,2025-02-27_14h51.50.408,comp,2024.2.4,60.23520761258097,2025-02-27 14h52.01.076737 -0500,
64,64,0,critical,whd,20.0,4.0,lower,57.0,133.0,133.0,57.0,78.0,78.0,1,2.1636781692504883,None,,,,,0,0,0,0,0,64,64,94,323.44195556640625,,,,,,,,,,,,,,,,,,,,,,,,,,,,,,,,,,,,,,,,,,,,,,,,,,,,,,,,,,,,,,,,,,,,,,,,,,,,,,,,,57.0,133.0,133.0,57.0,78.0,78.0,4.0,4.2,-191,12,0,-288,164,-2,323.426988363266,323.4270272254944,323.42911553382874,323.44195556640625,323.5918095111847,323.5918095111847,323.5918095111847,323.5918095111847,323.5918095111847,323.5918095111847,323.5918095111847,325.6094856262207,1,2.1636781692504883,None,,,,,,,,,,,,,,,,,,150,3,2025-02-27_14h51.50.408,comp,2024.2.4,60.23520761258097,2025-02-27 14h52.01.076737 -0500,
65,65,0,critical,hdw,35.0,2.1,upper,200.0,125.0,127.0,127.0,125.0,200.0,3,3.61869740486145,None,,,,,0,0,0,0,0,65,65,21,325.6250991821289,,,,,,,,,,,,,,,,,,,,,,,,,,,,,,,,,,,,,,,,,,,,,,,,,,,,,,,,,,,,,,,,,,,,,,,,,,,,,,,,,200.0,125.0,127.0,127.0,125.0,200.0,2.1,2.11,-222,273,0,270,260,-262,325.6102695465088,325.6103093624115,325.61251997947693,325.6250991821289,325.77511739730835,325.77511739730835,325.77511739730835,325.77511739730835,325.77511739730835,325.77511739730835,325.77511739730835,329.2598898410797,3,3.61869740486145,None,,,,,,,,,,,,,,,,,,150,3,2025-02-27_14h51.50.408,comp,2024.2.4,60.23520761258097,2025-02-27 14h52.01.076737 -0500,
66,66,0,critical,hwd,20.0,3.0,lower,133.0,57.0,57.0,133.0,78.0,78.0,1,1.9044501781463623,None,,,,,0,0,0,0,0,66,66,104,329.2750811576843,,,,,,,,,,,,,,,,,,,,,,,,,,,,,,,,,,,,,,,,,,,,,,,,,,,,,,,,,,,,,,,,,,,,,,,,,,,,,,,,,133.0,57.0,57.0,133.0,78.0,78.0,3.0,3.1,-191,258,0,0,202,-272,329.2607057094574,329.26074624061584,329.2633032798767,329.2750811576843,329.4249303340912,329.4249303340912,329.4249303340912,329.4249303340912,329.4249303340912,329.4249303340912,329.4249303340912,331.1925587654114,1,1.9044501781463623,None,,,,,,,,,,,,,,,,,,150,3,2025-02-27_14h51.50.408,comp,2024.2.4,60.23520761258097,2025-02-27 14h52.01.076737 -0500,
67,67,0,critical,hdw,35.0,2.1,upper,200.0,125.0,127.0,127.0,125.0,200.0,1,1.0357105731964111,None,,,,,0,0,0,0,0,67,67,45,331.2080783843994,,,,,,,,,,,,,,,,,,,,,,,,,,,,,,,,,,,,,,,,,,,,,,,,,,,,,,,,,,,,,,,,,,,,,,,,,,,,,,,,,200.0,125.0,127.0,127.0,125.0,200.0,2.1,2.11,-222,269,0,252,260,-284,331.1933834552765,331.1934232711792,331.19594717025757,331.2080783843994,331.3583984375,331.3583984375,331.3583984375,331.3583984375,331.3583984375,331.3583984375,331.3583984375,332.2594668865204,1,1.0357105731964111,None,,,,,,,,,,,,,,,,,,150,3,2025-02-27_14h51.50.408,comp,2024.2.4,60.23520761258097,2025-02-27 14h52.01.076737 -0500,
68,68,0,filler_square,None,None,None,None,None,None,None,None,None,None,1,1.3308064937591553,None,,,,,0,0,0,0,0,68,68,186,332.2748055458069,,,,,,,,,,,,,,,,,,,,,,,,,,,,,,,,,,,,,,,,,,,,,,,,,,,,,,,,,,,,,,,,,,,,,,,,,,,,,,,,,162.41889954409714,162.41889954409714,159.45901892571123,70.2674874111819,71.5949881531248,78.71379079964662,2.2,2.21,-212,-283,0,273,170,279,332.26038002967834,332.2604184150696,332.2628071308136,332.2748055458069,332.42511892318726,332.42511892318726,332.42511892318726,332.42511892318726,332.42511892318726,332.42511892318726,332.42511892318726,333.60959243774414,1,1.3308064937591553,None,,,,,,,,,,,,,,,,,,150,3,2025-02-27_14h51.50.408,comp,2024.2.4,60.23520761258097,2025-02-27 14h52.01.076737 -0500,
69,69,0,critical,hdw,35.0,4.0,upper,200.0,125.0,127.0,127.0,125.0,200.0,3,2.075237512588501,None,,,,,0,0,0,0,0,69,69,113,333.625107049942,,,,,,,,,,,,,,,,,,,,,,,,,,,,,,,,,,,,,,,,,,,,,,,,,,,,,,,,,,,,,,,,,,,,,,,,,,,,,,,,,200.0,125.0,127.0,127.0,125.0,200.0,4.0,4.1,-222,-253,0,-12,260,-268,333.61037373542786,333.6104145050049,333.6125283241272,333.625107049942,333.77519035339355,333.77519035339355,333.77519035339355,333.77519035339355,333.77519035339355,333.77519035339355,333.77519035339355,335.70944356918335,3,2.075237512588501,None,,,,,,,,,,,,,,,,,,150,3,2025-02-27_14h51.50.408,comp,2024.2.4,60.23520761258097,2025-02-27 14h52.01.076737 -0500,
70,70,0,critical,hdw,20.0,2.1,upper,200.0,125.0,141.0,141.0,125.0,200.0,3,1.1506643295288086,None,,,,,0,0,0,0,0,70,70,47,335.72504901885986,,,,,,,,,,,,,,,,,,,,,,,,,,,,,,,,,,,,,,,,,,,,,,,,,,,,,,,,,,,,,,,,,,,,,,,,,,,,,,,,,200.0,125.0,141.0,141.0,125.0,200.0,2.1,2.11,-229,268,0,275,266,-259,335.7102315425873,335.71027278900146,335.71239948272705,335.72504901885986,335.8750422000885,335.8750422000885,335.8750422000885,335.8750422000885,335.8750422000885,335.8750422000885,335.8750422000885,336.8929030895233,3,1.1506643295288086,None,,,,,,,,,,,,,,,,,,150,3,2025-02-27_14h51.50.408,comp,2024.2.4,60.23520761258097,2025-02-27 14h52.01.076737 -0500,
71,71,0,filler_random,None,None,None,None,None,None,None,None,None,None,1,1.7514307498931885,None,,,,,0,0,0,0,0,71,71,147,336.9081733226776,,,,,,,,,,,,,,,,,,,,,,,,,,,,,,,,,,,,,,,,,,,,,,,,,,,,,,,,,,,,,,,,,,,,,,,,,,,,,,,,,147.36037273042444,108.06855907766038,96.76108672234777,108.5559863957409,150.41048702410694,66.7834339952748,2.1,2.11,-204,271,0,271,184,-257,336.89382219314575,336.8938658237457,336.89641547203064,336.9081733226776,337.0582003593445,337.0582003593445,337.0582003593445,337.0582003593445,337.0582003593445,337.0582003593445,337.0582003593445,338.6759788990021,1,1.7514307498931885,None,,,,,,,,,,,,,,,,,,150,3,2025-02-27_14h51.50.408,comp,2024.2.4,60.23520761258097,2025-02-27 14h52.01.076737 -0500,
72,72,0,critical,wdh,20.0,2.1,upper,125.0,200.0,141.0,141.0,200.0,125.0,1,1.776982307434082,None,,,,,0,0,0,0,0,72,72,35,338.69139790534973,,,,,,,,,,,,,,,,,,,,,,,,,,,,,,,,,,,,,,,,,,,,,,,,,,,,,,,,,,,,,,,,,,,,,,,,,,,,,,,,,125.0,200.0,141.0,141.0,200.0,125.0,2.1,2.11,-266,268,0,283,229,-268,338.6767876148224,338.6768288612366,338.6788840293884,338.69139790534973,338.8418323993683,338.8418323993683,338.8418323993683,338.8418323993683,338.8418323993683,338.8418323993683,338.8418323993683,340.47619700431824,1,1.776982307434082,None,,,,,,,,,,,,,,,,,,150,3,2025-02-27_14h51.50.408,comp,2024.2.4,60.23520761258097,2025-02-27 14h52.01.076737 -0500,
73,73,0,filler_random,None,None,None,None,None,None,None,None,None,None,3,1.9676783084869385,None,,,,,0,0,0,0,0,73,73,139,340.49186396598816,,,,,,,,,,,,,,,,,,,,,,,,,,,,,,,,,,,,,,,,,,,,,,,,,,,,,,,,,,,,,,,,,,,,,,,,,,,,,,,,,194.9358770741668,184.73587721743135,109.27613825895202,135.3499385293208,197.27377648505805,199.44020259121436,2.1,2.12,-256,-263,0,-278,263,290,340.4770858287811,340.47712659835815,340.47923469543457,340.49186396598816,340.64186549186707,340.64186549186707,340.64186549186707,340.64186549186707,340.64186549186707,340.64186549186707,340.64186549186707,342.4763958454132,3,1.9676783084869385,None,,,,,,,,,,,,,,,,,,150,3,2025-02-27_14h51.50.408,comp,2024.2.4,60.23520761258097,2025-02-27 14h52.01.076737 -0500,
74,74,0,critical,wdh,35.0,4.0,lower,57.0,133.0,70.0,70.0,133.0,57.0,1,3.144890785217285,None,,,,,0,0,0,0,0,74,74,76,342.49148082733154,,,,,,,,,,,,,,,,,,,,,,,,,,,,,,,,,,,,,,,,,,,,,,,,,,,,,,,,,,,,,,,,,,,,,,,,,,,,,,,,,57.0,133.0,70.0,70.0,133.0,57.0,4.0,4.2,-198,-9,0,-283,160,11,342.47718477249146,342.477224111557,342.47941398620605,342.49148082733154,342.6414394378662,342.6414394378662,342.6414394378662,342.6414394378662,342.6414394378662,342.6414394378662,342.6414394378662,345.6426799297333,1,3.144890785217285,None,,,,,,,,,,,,,,,,,,150,3,2025-02-27_14h51.50.408,comp,2024.2.4,60.23520761258097,2025-02-27 14h52.01.076737 -0500,
75,75,0,critical,dhw,20.0,3.0,lower,78.0,78.0,133.0,57.0,57.0,133.0,2,2.0503954887390137,None,,,,,0,0,0,0,0,75,75,56,345.658225774765,,,,,,,,,,,,,,,,,,,,,,,,,,,,,,,,,,,,,,,,,,,,,,,,,,,,,,,,,,,,,,,,,,,,,,,,,,,,,,,,,78.0,78.0,133.0,57.0,57.0,133.0,3.0,3.2,-164,-281,0,16,191,270,345.6434693336487,345.6435091495514,345.64603304862976,345.658225774765,345.8081738948822,345.8081738948822,345.8081738948822,345.8081738948822,345.8081738948822,345.8081738948822,345.8081738948822,347.7259256839752,2,2.0503954887390137,None,,,,,,,,,,,,,,,,,,150,3,2025-02-27_14h51.50.408,comp,2024.2.4,60.23520761258097,2025-02-27 14h52.01.076737 -0500,
76,76,0,critical,whd,35.0,2.1,upper,125.0,200.0,200.0,125.0,127.0,127.0,1,2.102309226989746,None,,,,,0,0,0,0,0,76,76,37,347.74137568473816,,,,,,,,,,,,,,,,,,,,,,,,,,,,,,,,,,,,,,,,,,,,,,,,,,,,,,,,,,,,,,,,,,,,,,,,,,,,,,,,,125.0,200.0,200.0,125.0,127.0,127.0,2.1,2.12,-258,-277,0,-286,222,279,347.72672414779663,347.7267646789551,347.7289936542511,347.74137568473816,347.8916575908661,347.8916575908661,347.8916575908661,347.8916575908661,347.8916575908661,347.8916575908661,347.8916575908661,349.85941338539124,1,2.102309226989746,None,,,,,,,,,,,,,,,,,,150,3,2025-02-27_14h51.50.408,comp,2024.2.4,60.23520761258097,2025-02-27 14h52.01.076737 -0500,
77,77,0,filler_random,None,None,None,None,None,None,None,None,None,None,2,2.12152361869812,None,,,,,0,0,0,0,0,77,77,168,349.8746757507324,,,,,,,,,,,,,,,,,,,,,,,,,,,,,,,,,,,,,,,,,,,,,,,,,,,,,,,,,,,,,,,,,,,,,,,,,,,,,,,,,159.1537779957928,71.17629249410065,196.47083613749984,63.58657989853586,108.07624130466726,86.87918621297342,2.1,2.11,-163,271,0,275,171,-266,349.8603274822235,349.8603677749634,349.86278104782104,349.8746757507324,350.025182723999,350.025182723999,350.025182723999,350.025182723999,350.025182723999,350.025182723999,350.025182723999,352.00926065444946,2,2.12152361869812,None,,,,,,,,,,,,,,,,,,150,3,2025-02-27_14h51.50.408,comp,2024.2.4,60.23520761258097,2025-02-27 14h52.01.076737 -0500,
78,78,0,critical,whd,20.0,3.0,lower,57.0,133.0,133.0,57.0,78.0,78.0,1,1.6757194995880127,None,,,,,0,0,0,0,0,78,78,92,352.0245759487152,,,,,,,,,,,,,,,,,,,,,,,,,,,,,,,,,,,,,,,,,,,,,,,,,,,,,,,,,,,,,,,,,,,,,,,,,,,,,,,,,57.0,133.0,133.0,57.0,78.0,78.0,3.0,3.1,-191,261,0,5,164,-251,352.01004123687744,352.0100917816162,352.01250553131104,352.0245759487152,352.1746735572815,352.1746735572815,352.1746735572815,352.1746735572815,352.1746735572815,352.1746735572815,352.1746735572815,353.70925855636597,1,1.6757194995880127,None,,,,,,,,,,,,,,,,,,150,3,2025-02-27_14h51.50.408,comp,2024.2.4,60.23520761258097,2025-02-27 14h52.01.076737 -0500,
79,79,0,critical,wdh,35.0,3.0,upper,125.0,200.0,127.0,127.0,200.0,125.0,2,1.1271193027496338,None,,,,,0,0,0,0,0,79,79,75,353.72511553764343,,,,,,,,,,,,,,,,,,,,,,,,,,,,,,,,,,,,,,,,,,,,,,,,,,,,,,,,,,,,,,,,,,,,,,,,,,,,,,,,,125.0,200.0,127.0,127.0,200.0,125.0,3.0,3.1,-260,259,0,-10,222,-262,353.71003246307373,353.71008467674255,353.7122206687927,353.72511553764343,353.8749158382416,353.8749158382416,353.8749158382416,353.8749158382416,353.8749158382416,353.8749158382416,353.8749158382416,354.8593592643738,2,1.1271193027496338,None,,,,,,,,,,,,,,,,,,150,3,2025-02-27_14h51.50.408,comp,2024.2.4,60.23520761258097,2025-02-27 14h52.01.076737 -0500,
80,80,0,filler_random,None,None,None,None,None,None,None,None,None,None,3,1.7453975677490234,None,,,,,0,0,0,0,0,80,80,141,354.87493205070496,,,,,,,,,,,,,,,,,,,,,,,,,,,,,,,,,,,,,,,,,,,,,,,,,,,,,,,,,,,,,,,,,,,,,,,,,,,,,,,,,70.41971072661886,104.85055136238034,85.47487717786683,120.78721109944422,196.02191941729356,120.80272964835207,1.0,1.2,-209,-7,0,-7,217,-18,354.86020851135254,354.860249042511,354.8623101711273,354.87493205070496,355.0248637199402,355.0248637199402,355.0248637199402,355.0248637199402,355.0248637199402,355.0248637199402,355.0248637199402,356.62616777420044,3,1.7453975677490234,None,,,,,,,,,,,,,,,,,,150,3,2025-02-27_14h51.50.408,comp,2024.2.4,60.23520761258097,2025-02-27 14h52.01.076737 -0500,
81,81,0,critical,hwd,20.0,2.1,upper,200.0,125.0,125.0,200.0,141.0,141.0,2,2.058638334274292,None,,,,,0,0,0,0,0,81,81,19,356.64168405532837,,,,,,,,,,,,,,,,,,,,,,,,,,,,,,,,,,,,,,,,,,,,,,,,,,,,,,,,,,,,,,,,,,,,,,,,,,,,,,,,,200.0,125.0,125.0,200.0,141.0,141.0,2.1,2.12,-258,-286,0,-255,266,266,356.6269450187683,356.6269853115082,356.62914848327637,356.64168405532837,356.7915995121002,356.7915995121002,356.7915995121002,356.7915995121002,356.7915995121002,356.7915995121002,356.7915995121002,358.7094578742981,2,2.058638334274292,None,,,,,,,,,,,,,,,,,,150,3,2025-02-27_14h51.50.408,comp,2024.2.4,60.23520761258097,2025-02-27 14h52.01.076737 -0500,
82,82,0,critical,dhw,35.0,1.0,upper,127.0,127.0,200.0,125.0,125.0,200.0,2,0.9432985782623291,None,,,,,0,0,0,0,0,82,82,49,358.7250294685364,,,,,,,,,,,,,,,,,,,,,,,,,,,,,,,,,,,,,,,,,,,,,,,,,,,,,,,,,,,,,,,,,,,,,,,,,,,,,,,,,127.0,127.0,200.0,125.0,125.0,200.0,1.0,1.2,-222,-9,0,1,258,16,358.7102601528168,358.71030163764954,358.7124981880188,358.7250294685364,358.87504386901855,358.87504386901855,358.87504386901855,358.87504386901855,358.87504386901855,358.87504386901855,358.87504386901855,359.6761269569397,2,0.9432985782623291,None,,,,,,,,,,,,,,,,,,150,3,2025-02-27_14h51.50.408,comp,2024.2.4,60.23520761258097,2025-02-27 14h52.01.076737 -0500,
83,83,0,critical,wdh,35.0,2.1,upper,125.0,200.0,127.0,127.0,200.0,125.0,1,1.6558403968811035,None,,,,,0,0,0,0,0,83,83,33,359.6914949417114,,,,,,,,,,,,,,,,,,,,,,,,,,,,,,,,,,,,,,,,,,,,,,,,,,,,,,,,,,,,,,,,,,,,,,,,,,,,,,,,,125.0,200.0,127.0,127.0,200.0,125.0,2.1,2.12,-260,-256,0,-289,222,261,359.6769013404846,359.6769423484802,359.67934799194336,359.6914949417114,359.84165620803833,359.84165620803833,359.84165620803833,359.84165620803833,359.84165620803833,359.84165620803833,359.84165620803833,361.3595132827759,1,1.6558403968811035,None,,,,,,,,,,,,,,,,,,150,3,2025-02-27_14h51.50.408,comp,2024.2.4,60.23520761258097,2025-02-27 14h52.01.076737 -0500,
84,84,0,catch,None,None,None,None,None,None,None,None,None,None,3,1.804814338684082,None,,,,,0,0,0,0,0,84,84,121,361.3745803833008,,,,,,,,,,,,,,,,,,,,,,,,,,,,,,,,,,,,,,,,,,,,,,,,,,,,,,,,,,,,,,,,,,,,,,,,,,,,,,,,,92,98,92,98,126,199,2.1,2.11,-194,269,0,254,244,-268,361.36056423187256,361.360604763031,361.3626832962036,361.3745803833008,361.52487349510193,361.52487349510193,361.52487349510193,361.52487349510193,361.52487349510193,361.52487349510193,361.52487349510193,363.1926097869873,3,1.804814338684082,None,,,,,,,,,,,,,,,,,,150,3,2025-02-27_14h51.50.408,comp,2024.2.4,60.23520761258097,2025-02-27 14h52.01.076737 -0500,
85,85,0,filler_random,None,None,None,None,None,None,None,None,None,None,2,2.5503108501434326,None,,,,,0,0,0,0,0,85,85,166,363.20797181129456,,,,,,,,,,,,,,,,,,,,,,,,,,,,,,,,,,,,,,,,,,,,,,,,,,,,,,,,,,,,,,,,,,,,,,,,,,,,,,,,,83.05137188017844,152.8598500612794,108.20288374848187,190.0049407396208,70.14344945362112,94.85626239893178,3.0,3.2,-267,-259,0,11,238,275,363.19351863861084,363.1935601234436,363.1960473060608,363.20797181129456,363.3580913543701,363.3580913543701,363.3580913543701,363.3580913543701,363.3580913543701,363.3580913543701,363.3580913543701,365.7595589160919,2,2.5503108501434326,None,,,,,,,,,,,,,,,,,,150,3,2025-02-27_14h51.50.408,comp,2024.2.4,60.23520761258097,2025-02-27 14h52.01.076737 -0500,
86,86,0,filler_square,None,None,None,None,None,None,None,None,None,None,3,3.799049139022827,None,,,,,0,0,0,0,0,86,86,208,365.7749533653259,,,,,,,,,,,,,,,,,,,,,,,,,,,,,,,,,,,,,,,,,,,,,,,,,,,,,,,,,,,,,,,,,,,,,,,,,,,,,,,,,57.29454224625047,57.076792594152465,57.18183318214272,57.00199523699861,57.37061134484928,57.37061134484928,4.0,4.1,-153,-268,0,-2,153,-273,365.7605285644531,365.76056933403015,365.7627201080322,365.7749533653259,365.9246869087219,365.9246869087219,365.9246869087219,365.9246869087219,365.9246869087219,365.9246869087219,365.9246869087219,369.5924277305603,3,3.799049139022827,None,,,,,,,,,,,,,,,,,,150,3,2025-02-27_14h51.50.408,comp,2024.2.4,60.23520761258097,2025-02-27 14h52.01.076737 -0500,
87,87,0,filler_square,None,None,None,None,None,None,None,None,None,None,3,1.3553199768066406,None,,,,,0,0,0,0,0,87,87,174,369.60791397094727,,,,,,,,,,,,,,,,,,,,,,,,,,,,,,,,,,,,,,,,,,,,,,,,,,,,,,,,,,,,,,,,,,,,,,,,,,,,,,,,,79.8896368812176,62.02259706793104,63.30222194203109,75.11828976397092,83.08466643958275,83.08466643958275,4.0,4.1,-165,-260,0,-2,175,-260,369.5933747291565,369.5934157371521,369.5958845615387,369.60791397094727,369.7581055164337,369.7581055164337,369.7581055164337,369.7581055164337,369.7581055164337,369.7581055164337,369.7581055164337,370.9759249687195,3,1.3553199768066406,None,,,,,,,,,,,,,,,,,,150,3,2025-02-27_14h51.50.408,comp,2024.2.4,60.23520761258097,2025-02-27 14h52.01.076737 -0500,
88,88,0,critical,wdh,20.0,2.1,lower,57.0,133.0,78.0,78.0,133.0,57.0,1,1.644824504852295,None,,,,,0,0,0,0,0,88,88,10,370.9913101196289,,,,,,,,,,,,,,,,,,,,,,,,,,,,,,,,,,,,,,,,,,,,,,,,,,,,,,,,,,,,,,,,,,,,,,,,,,,,,,,,,57.0,133.0,78.0,78.0,133.0,57.0,2.1,2.11,-202,255,0,269,164,-259,370.9767520427704,370.97679233551025,370.9794011116028,370.9913101196289,371.1412498950958,371.1412498950958,371.1412498950958,371.1412498950958,371.1412498950958,371.1412498950958,371.1412498950958,372.6423897743225,1,1.644824504852295,None,,,,,,,,,,,,,,,,,,150,3,2025-02-27_14h51.50.408,comp,2024.2.4,60.23520761258097,2025-02-27 14h52.01.076737 -0500,
89,89,0,filler_square,None,None,None,None,None,None,None,None,None,None,1,1.217245101928711,None,,,,,0,0,0,0,0,89,89,178,372.6581585407257,,,,,,,,,,,,,,,,,,,,,,,,,,,,,,,,,,,,,,,,,,,,,,,,,,,,,,,,,,,,,,,,,,,,,,,,,,,,,,,,,184.77901012683867,184.77901012683867,97.53637068490087,87.20017652824102,135.64731873228908,80.46827042244155,3.0,3.2,-232,-259,0,-4,180,263,372.6433000564575,372.6433391571045,372.64575123786926,372.6581585407257,372.8081638813019,372.8081638813019,372.8081638813019,372.8081638813019,372.8081638813019,372.8081638813019,372.8081638813019,373.8925402164459,1,1.217245101928711,None,,,,,,,,,,,,,,,,,,150,3,2025-02-27_14h51.50.408,comp,2024.2.4,60.23520761258097,2025-02-27 14h52.01.076737 -0500,
90,90,0,filler_square,None,None,None,None,None,None,None,None,None,None,1,1.68804931640625,None,,,,,0,0,0,0,0,90,90,194,373.90794563293457,,,,,,,,,,,,,,,,,,,,,,,,,,,,,,,,,,,,,,,,,,,,,,,,,,,,,,,,,,,,,,,,,,,,,,,,,,,,,,,,,175.50805959498757,175.50805959498757,69.28811302944422,144.76157735491188,153.80471486028233,109.03139430501525,3.0,3.1,-256,265,0,8,223,-278,373.8934750556946,373.8935170173645,373.8959662914276,373.90794563293457,374.05812907218933,374.05812907218933,374.05812907218933,374.05812907218933,374.05812907218933,374.05812907218933,374.05812907218933,375.60924339294434,1,1.68804931640625,None,,,,,,,,,,,,,,,,,,150,3,2025-02-27_14h51.50.408,comp,2024.2.4,60.23520761258097,2025-02-27 14h52.01.076737 -0500,
91,91,0,critical,dwh,35.0,2.1,lower,70.0,70.0,57.0,133.0,133.0,57.0,3,2.6671769618988037,None,,,,,0,0,0,0,0,91,91,4,375.6243689060211,,,,,,,,,,,,,,,,,,,,,,,,,,,,,,,,,,,,,,,,,,,,,,,,,,,,,,,,,,,,,,,,,,,,,,,,,,,,,,,,,70.0,70.0,57.0,133.0,133.0,57.0,2.1,2.11,-198,252,0,257,191,-276,375.61002469062805,375.6100764274597,375.612446308136,375.6243689060211,375.77467131614685,375.77467131614685,375.77467131614685,375.77467131614685,375.77467131614685,375.77467131614685,375.77467131614685,378.3090317249298,3,2.6671769618988037,None,,,,,,,,,,,,,,,,,,150,3,2025-02-27_14h51.50.408,comp,2024.2.4,60.23520761258097,2025-02-27 14h52.01.076737 -0500,
92,92,0,filler_random,None,None,None,None,None,None,None,None,None,None,2,1.4804441928863525,None,,,,,0,0,0,0,0,92,92,164,378.32445549964905,,,,,,,,,,,,,,,,,,,,,,,,,,,,,,,,,,,,,,,,,,,,,,,,,,,,,,,,,,,,,,,,,,,,,,,,,,,,,,,,,83.67601624180962,59.21795352840209,68.91660219438792,177.2479400049142,115.33885281405477,136.32977987056833,3.0,3.2,-214,-280,0,9,253,259,378.3099455833435,378.3099858760834,378.31235671043396,378.32445549964905,378.47472405433655,378.47472405433655,378.47472405433655,378.47472405433655,378.47472405433655,378.47472405433655,378.47472405433655,379.8092186450958,2,1.4804441928863525,None,,,,,,,,,,,,,,,,,,150,3,2025-02-27_14h51.50.408,comp,2024.2.4,60.23520761258097,2025-02-27 14h52.01.076737 -0500,
93,93,0,filler_square,None,None,None,None,None,None,None,None,None,None,1,4.107728719711304,None,,,,,0,0,0,0,0,93,93,207,379.8247983455658,,,,,,,,,,,,,,,,,,,,,,,,,,,,,,,,,,,,,,,,,,,,,,,,,,,,,,,,,,,,,,,,,,,,,,,,,,,,,,,,,81.57904715044997,81.57904715044997,78.01113971908856,57.26652792262105,71.43049301261487,77.09226065614881,2.1,2.11,-165,273,0,262,163,-285,379.81018590927124,379.8102297782898,379.81236457824707,379.8247983455658,379.974650144577,379.974650144577,379.974650144577,379.974650144577,379.974650144577,379.974650144577,379.974650144577,383.94238448143005,1,4.107728719711304,None,,,,,,,,,,,,,,,,,,150,3,2025-02-27_14h51.50.408,comp,2024.2.4,60.23520761258097,2025-02-27 14h52.01.076737 -0500,
94,94,0,filler_random,None,None,None,None,None,None,None,None,None,None,2,1.3582687377929688,None,,,,,0,0,0,0,0,94,94,151,383.9581117630005,,,,,,,,,,,,,,,,,,,,,,,,,,,,,,,,,,,,,,,,,,,,,,,,,,,,,,,,,,,,,,,,,,,,,,,,,,,,,,,,,102.78447519088945,67.89275872328736,189.25059589561428,192.06305621521616,147.30488188928723,143.17738634452456,2.2,2.22,-226,263,0,-279,264,-270,383.9432828426361,383.9433259963989,383.9454815387726,383.9581117630005,384.10844683647156,384.10844683647156,384.10844683647156,384.10844683647156,384.10844683647156,384.10844683647156,384.10844683647156,385.3258273601532,2,1.3582687377929688,None,,,,,,,,,,,,,,,,,,150,3,2025-02-27_14h51.50.408,comp,2024.2.4,60.23520761258097,2025-02-27 14h52.01.076737 -0500,
95,95,0,critical,hwd,35.0,3.0,upper,200.0,125.0,125.0,200.0,127.0,127.0,2,1.2947583198547363,None,,,,,0,0,0,0,0,95,95,99,385.3413074016571,,,,,,,,,,,,,,,,,,,,,,,,,,,,,,,,,,,,,,,,,,,,,,,,,,,,,,,,,,,,,,,,,,,,,,,,,,,,,,,,,200.0,125.0,125.0,200.0,127.0,127.0,3.0,3.1,-258,254,0,-1,260,-279,385.32660603523254,385.3266453742981,385.3291344642639,385.3413074016571,385.4913680553436,385.4913680553436,385.4913680553436,385.4913680553436,385.4913680553436,385.4913680553436,385.4913680553436,386.6424973011017,2,1.2947583198547363,None,,,,,,,,,,,,,,,,,,150,3,2025-02-27_14h51.50.408,comp,2024.2.4,60.23520761258097,2025-02-27 14h52.01.076737 -0500,
96,96,0,critical,wdh,20.0,1.0,upper,125.0,200.0,141.0,141.0,200.0,125.0,1,2.121309280395508,None,,,,,0,0,0,0,0,96,96,79,386.6579315662384,,,,,,,,,,,,,,,,,,,,,,,,,,,,,,,,,,,,,,,,,,,,,,,,,,,,,,,,,,,,,,,,,,,,,,,,,,,,,,,,,125.0,200.0,141.0,141.0,200.0,125.0,1.0,1.2,-266,-12,0,15,229,11,386.6432819366455,386.6433231830597,386.64578580856323,386.6579315662384,386.8080327510834,386.8080327510834,386.8080327510834,386.8080327510834,386.8080327510834,386.8080327510834,386.8080327510834,388.7925283908844,1,2.121309280395508,None,,,,,,,,,,,,,,,,,,150,3,2025-02-27_14h51.50.408,comp,2024.2.4,60.23520761258097,2025-02-27 14h52.01.076737 -0500,
97,97,0,critical,wdh,20.0,2.1,lower,57.0,133.0,78.0,78.0,133.0,57.0,1,2.0924623012542725,None,,,,,0,0,0,0,0,97,97,34,388.8077862262726,,,,,,,,,,,,,,,,,,,,,,,,,,,,,,,,,,,,,,,,,,,,,,,,,,,,,,,,,,,,,,,,,,,,,,,,,,,,,,,,,57.0,133.0,78.0,78.0,133.0,57.0,2.1,2.12,-202,-264,0,-261,164,264,388.7933313846588,388.7933735847473,388.7958459854126,388.8077862262726,388.9577820301056,388.9577820301056,388.9577820301056,388.9577820301056,388.9577820301056,388.9577820301056,388.9577820301056,390.90892243385315,1,2.0924623012542725,None,,,,,,,,,,,,,,,,,,150,3,2025-02-27_14h51.50.408,comp,2024.2.4,60.23520761258097,2025-02-27 14h52.01.076737 -0500,
98,98,0,critical,hdw,35.0,1.0,upper,200.0,125.0,127.0,127.0,125.0,200.0,3,1.848947286605835,None,,,,,0,0,0,0,0,98,98,109,390.9248631000519,,,,,,,,,,,,,,,,,,,,,,,,,,,,,,,,,,,,,,,,,,,,,,,,,,,,,,,,,,,,,,,,,,,,,,,,,,,,,,,,,200.0,125.0,127.0,127.0,125.0,200.0,1.0,1.1,-702,268,-480,282,-220,279,390.90972352027893,390.9097638130188,390.91200137138367,390.9248631000519,391.07509541511536,391.07509541511536,391.07509541511536,391.07509541511536,391.07509541511536,391.07509541511536,391.07509541511536,392.77603220939636,3,1.848947286605835,None,,,,,,,,,,,,,,,,,,150,3,2025-02-27_14h51.50.408,comp,2024.2.4,60.23520761258097,2025-02-27 14h52.01.076737 -0500,
99,99,0,filler_random,None,None,None,None,None,None,None,None,None,None,2,1.7717392444610596,None,,,,,0,0,0,0,0,99,99,165,392.7913439273834,,,,,,,,,,,,,,,,,,,,,,,,,,,,,,,,,,,,,,,,,,,,,,,,,,,,,,,,,,,,,,,,,,,,,,,,,,,,,,,,,104.19968445259212,149.69117004790854,159.55481168699154,145.1473430745662,180.11748774367481,110.1046665253814,2.2,2.21,-243,-276,0,271,224,276,392.7769408226013,392.7769811153412,392.77904081344604,392.7913439273834,392.9412648677826,392.9412648677826,392.9412648677826,392.9412648677826,392.9412648677826,392.9412648677826,392.9412648677826,394.57582688331604,2,1.7717392444610596,None,,,,,,,,,,,,,,,,,,150,3,2025-02-27_14h51.50.408,comp,2024.2.4,60.23520761258097,2025-02-27 14h52.01.076737 -0500,
100,100,0,filler_random,None,None,None,None,None,None,None,None,None,None,3,2.2363650798797607,None,,,,,0,0,0,0,0,100,100,135,394.5909676551819,,,,,,,,,,,,,,,,,,,,,,,,,,,,,,,,,,,,,,,,,,,,,,,,,,,,,,,,,,,,,,,,,,,,,,,,,,,,,,,,,179.40046596670385,125.1805865229656,162.90788353950478,77.94528103395203,94.19605759654777,142.12871472976911,1.0,1.1,-678,262,-480,252,-274,286,394.57668685913086,394.5767261981964,394.5789620876312,394.5909676551819,394.7412142753601,394.7412142753601,394.7412142753601,394.7412142753601,394.7412142753601,394.7412142753601,394.7412142753601,396.84234952926636,3,2.2363650798797607,None,,,,,,,,,,,,,,,,,,150,3,2025-02-27_14h51.50.408,comp,2024.2.4,60.23520761258097,2025-02-27 14h52.01.076737 -0500,
101,101,0,filler_square,None,None,None,None,None,None,None,None,None,None,3,1.7537815570831299,None,,,,,0,0,0,0,0,101,101,200,396.85769176483154,,,,,,,,,,,,,,,,,,,,,,,,,,,,,,,,,,,,,,,,,,,,,,,,,,,,,,,,,,,,,,,,,,,,,,,,,,,,,,,,,173.9614469365937,87.35523881263002,103.69994686163218,143.76895124321177,194.06529002883283,194.06529002883283,2.2,2.21,-212,-264,0,283,265,286,396.8433177471161,396.84335947036743,396.84577798843384,396.85769176483154,397.00804710388184,397.00804710388184,397.00804710388184,397.00804710388184,397.00804710388184,397.00804710388184,397.00804710388184,398.62578988075256,3,1.7537815570831299,None,,,,,,,,,,,,,,,,,,150,3,2025-02-27_14h51.50.408,comp,2024.2.4,60.23520761258097,2025-02-27 14h52.01.076737 -0500,
102,102,0,critical,wdh,35.0,4.0,upper,125.0,200.0,127.0,127.0,200.0,125.0,1,1.2507774829864502,None,,,,,0,0,0,0,0,102,102,77,398.64109349250793,,,,,,,,,,,,,,,,,,,,,,,,,,,,,,,,,,,,,,,,,,,,,,,,,,,,,,,,,,,,,,,,,,,,,,,,,,,,,,,,,125.0,200.0,127.0,127.0,200.0,125.0,4.0,4.2,-260,10,0,-279,222,-16,398.6265754699707,398.62661623954773,398.62916016578674,398.64109349250793,398.7913336753845,398.7913336753845,398.7913336753845,398.7913336753845,398.7913336753845,398.7913336753845,398.7913336753845,399.90902876853943,1,1.2507774829864502,None,,,,,,,,,,,,,,,,,,150,3,2025-02-27_14h51.50.408,comp,2024.2.4,60.23520761258097,2025-02-27 14h52.01.076737 -0500,
103,103,0,critical,dwh,35.0,4.0,lower,70.0,70.0,57.0,133.0,133.0,57.0,2,2.719017744064331,None,,,,,0,0,0,0,0,103,103,64,399.92430782318115,,,,,,,,,,,,,,,,,,,,,,,,,,,,,,,,,,,,,,,,,,,,,,,,,,,,,,,,,,,,,,,,,,,,,,,,,,,,,,,,,70.0,70.0,57.0,133.0,133.0,57.0,4.0,4.1,-198,-258,0,-6,191,-256,399.9097864627838,399.9098241329193,399.9117991924286,399.92430782318115,400.074405670166,400.074405670166,400.074405670166,400.074405670166,400.074405670166,400.074405670166,400.074405670166,402.65896677970886,2,2.719017744064331,None,,,,,,,,,,,,,,,,,,150,3,2025-02-27_14h51.50.408,comp,2024.2.4,60.23520761258097,2025-02-27 14h52.01.076737 -0500,
104,104,0,filler_square,None,None,None,None,None,None,None,None,None,None,2,1.257866621017456,None,,,,,0,0,0,0,0,104,104,187,402.6743779182434,,,,,,,,,,,,,,,,,,,,,,,,,,,,,,,,,,,,,,,,,,,,,,,,,,,,,,,,,,,,,,,,,,,,,,,,,,,,,,,,,64.73876141406451,59.80556128069965,67.60393343383522,67.60393343383522,63.135525627489024,60.91752546042326,2.1,2.11,-160,289,0,284,160,-271,402.6599750518799,402.6600179672241,402.66260838508606,402.6743779182434,402.8243417739868,402.8243417739868,402.8243417739868,402.8243417739868,402.8243417739868,402.8243417739868,402.8243417739868,403.9421715736389,2,1.257866621017456,None,,,,,,,,,,,,,,,,,,150,3,2025-02-27_14h51.50.408,comp,2024.2.4,60.23520761258097,2025-02-27 14h52.01.076737 -0500,
105,105,0,critical,wdh,20.0,1.0,lower,57.0,133.0,78.0,78.0,133.0,57.0,1,1.399906873703003,None,,,,,0,0,0,0,0,105,105,78,403.95796155929565,,,,,,,,,,,,,,,,,,,,,,,,,,,,,,,,,,,,,,,,,,,,,,,,,,,,,,,,,,,,,,,,,,,,,,,,,,,,,,,,,57.0,133.0,78.0,78.0,133.0,57.0,1.0,1.3,278,-269,480,-279,644,-264,403.94298672676086,403.94302892684937,403.9453501701355,403.95796155929565,404.1077399253845,404.1077399253845,404.1077399253845,404.1077399253845,404.1077399253845,404.1077399253845,404.1077399253845,405.37539052963257,1,1.399906873703003,None,,,,,,,,,,,,,,,,,,150,3,2025-02-27_14h51.50.408,comp,2024.2.4,60.23520761258097,2025-02-27 14h52.01.076737 -0500,
106,106,0,critical,whd,20.0,2.1,upper,125.0,200.0,200.0,125.0,141.0,141.0,3,1.7882673740386963,None,,,,,0,0,0,0,0,106,106,15,405.3908853530884,,,,,,,,,,,,,,,,,,,,,,,,,,,,,,,,,,,,,,,,,,,,,,,,,,,,,,,,,,,,,,,,,,,,,,,,,,,,,,,,,125.0,200.0,200.0,125.0,141.0,141.0,2.1,2.11,-258,269,0,271,229,-281,405.37614917755127,405.37618589401245,405.3785526752472,405.3908853530884,405.54123282432556,405.54123282432556,405.54123282432556,405.54123282432556,405.54123282432556,405.54123282432556,405.54123282432556,407.19248723983765,3,1.7882673740386963,None,,,,,,,,,,,,,,,,,,150,3,2025-02-27_14h51.50.408,comp,2024.2.4,60.23520761258097,2025-02-27 14h52.01.076737 -0500,
107,107,0,filler_random,None,None,None,None,None,None,None,None,None,None,3,1.8355848789215088,None,,,,,0,0,0,0,0,107,107,163,407.20768332481384,,,,,,,,,,,,,,,,,,,,,,,,,,,,,,,,,,,,,,,,,,,,,,,,,,,,,,,,,,,,,,,,,,,,,,,,,,,,,,,,,189.35210459472245,62.94549430047084,111.3801207557468,181.0204307180888,125.46504473506565,185.74389487961724,2.1,2.12,-218,-260,0,-272,279,260,407.1933665275574,407.1934063434601,407.1957745552063,407.20768332481384,407.3580298423767,407.3580298423767,407.3580298423767,407.3580298423767,407.3580298423767,407.3580298423767,407.3580298423767,409.0590224266052,3,1.8355848789215088,None,,,,,,,,,,,,,,,,,,150,3,2025-02-27_14h51.50.408,comp,2024.2.4,60.23520761258097,2025-02-27 14h52.01.076737 -0500,
108,108,0,filler_square,None,None,None,None,None,None,None,None,None,None,3,2.1774213314056396,None,,,,,0,0,0,0,0,108,108,184,409.0744354724884,,,,,,,,,,,,,,,,,,,,,,,,,,,,,,,,,,,,,,,,,,,,,,,,,,,,,,,,,,,,,,,,,,,,,,,,,,,,,,,,,176.5467892124102,176.43792884488516,110.0061448076147,167.2394902958145,192.01991243385797,192.01991243385797,2.2,2.22,-268,281,0,-262,276,-284,409.05998158454895,409.06002259254456,409.06336522102356,409.0744354724884,409.22475242614746,409.22475242614746,409.22475242614746,409.22475242614746,409.22475242614746,409.22475242614746,409.22475242614746,411.25912499427795,3,2.1774213314056396,None,,,,,,,,,,,,,,,,,,150,3,2025-02-27_14h51.50.408,comp,2024.2.4,60.23520761258097,2025-02-27 14h52.01.076737 -0500,
109,109,0,critical,hwd,35.0,2.1,upper,200.0,125.0,125.0,200.0,127.0,127.0,2,2.1146156787872314,None,,,,,0,0,0,0,0,109,109,17,411.27463579177856,,,,,,,,,,,,,,,,,,,,,,,,,,,,,,,,,,,,,,,,,,,,,,,,,,,,,,,,,,,,,,,,,,,,,,,,,,,,,,,,,200.0,125.0,125.0,200.0,127.0,127.0,2.1,2.12,-258,-284,0,-254,260,262,411.2599470615387,411.25998854637146,411.2621371746063,411.27463579177856,411.4245955944061,411.4245955944061,411.4245955944061,411.4245955944061,411.4245955944061,411.4245955944061,411.4245955944061,413.3924136161804,2,2.1146156787872314,None,,,,,,,,,,,,,,,,,,150,3,2025-02-27_14h51.50.408,comp,2024.2.4,60.23520761258097,2025-02-27 14h52.01.076737 -0500,
110,110,0,critical,dhw,20.0,2.1,lower,78.0,78.0,133.0,57.0,57.0,133.0,3,2.8439953327178955,None,,,,,0,0,0,0,0,110,110,26,413.40787982940674,,,,,,,,,,,,,,,,,,,,,,,,,,,,,,,,,,,,,,,,,,,,,,,,,,,,,,,,,,,,,,,,,,,,,,,,,,,,,,,,,78.0,78.0,133.0,57.0,57.0,133.0,2.1,2.12,-164,-272,0,-288,191,289,413.3931930065155,413.39323329925537,413.3953323364258,413.40787982940674,413.55767130851746,413.55767130851746,413.55767130851746,413.55767130851746,413.55767130851746,413.55767130851746,413.55767130851746,416.25875186920166,3,2.8439953327178955,None,,,,,,,,,,,,,,,,,,150,3,2025-02-27_14h51.50.408,comp,2024.2.4,60.23520761258097,2025-02-27 14h52.01.076737 -0500,
111,111,0,filler_square,None,None,None,None,None,None,None,None,None,None,2,1.4576287269592285,None,,,,,0,0,0,0,0,111,111,176,416.2745819091797,,,,,,,,,,,,,,,,,,,,,,,,,,,,,,,,,,,,,,,,,,,,,,,,,,,,,,,,,,,,,,,,,,,,,,,,,,,,,,,,,65.57848145975146,107.18202307293444,146.15557064917465,146.15557064917465,93.00596301842769,114.65769086882426,4.0,4.2,-223,-13,0,-269,226,14,416.25972390174866,416.2597665786743,416.2622699737549,416.2745819091797,416.4243426322937,416.4243426322937,416.4243426322937,416.4243426322937,416.4243426322937,416.4243426322937,416.4243426322937,417.7422606945038,2,1.4576287269592285,None,,,,,,,,,,,,,,,,,,150,3,2025-02-27_14h51.50.408,comp,2024.2.4,60.23520761258097,2025-02-27 14h52.01.076737 -0500,
112,112,0,critical,dhw,20.0,2.1,upper,141.0,141.0,200.0,125.0,125.0,200.0,3,2.757891893386841,None,,,,,0,0,0,0,0,112,112,27,417.757887840271,,,,,,,,,,,,,,,,,,,,,,,,,,,,,,,,,,,,,,,,,,,,,,,,,,,,,,,,,,,,,,,,,,,,,,,,,,,,,,,,,141.0,141.0,200.0,125.0,125.0,200.0,2.1,2.12,-229,-268,0,-290,258,252,417.7430491447449,417.74310326576233,417.7452528476715,417.757887840271,417.90789008140564,417.90789008140564,417.90789008140564,417.90789008140564,417.90789008140564,417.90789008140564,417.90789008140564,420.5257182121277,3,2.757891893386841,None,,,,,,,,,,,,,,,,,,150,3,2025-02-27_14h51.50.408,comp,2024.2.4,60.23520761258097,2025-02-27 14h52.01.076737 -0500,
113,113,0,critical,dhw,20.0,2.1,lower,78.0,78.0,133.0,57.0,57.0,133.0,3,2.166633367538452,None,,,,,0,0,0,0,0,113,113,2,420.54124426841736,,,,,,,,,,,,,,,,,,,,,,,,,,,,,,,,,,,,,,,,,,,,,,,,,,,,,,,,,,,,,,,,,,,,,,,,,,,,,,,,,78.0,78.0,133.0,57.0,57.0,133.0,2.1,2.11,-164,275,0,264,191,-277,420.5265018939972,420.52654123306274,420.5289568901062,420.54124426841736,420.6910500526428,420.6910500526428,420.6910500526428,420.6910500526428,420.6910500526428,420.6910500526428,420.6910500526428,422.72565937042236,3,2.166633367538452,None,,,,,,,,,,,,,,,,,,150,3,2025-02-27_14h51.50.408,comp,2024.2.4,60.23520761258097,2025-02-27 14h52.01.076737 -0500,
114,114,0,filler_random,None,None,None,None,None,None,None,None,None,None,3,1.8329765796661377,None,,,,,0,0,0,0,0,114,114,136,422.74080061912537,,,,,,,,,,,,,,,,,,,,,,,,,,,,,,,,,,,,,,,,,,,,,,,,,,,,,,,,,,,,,,,,,,,,,,,,,,,,,,,,,185.12051617631445,102.92357271874316,71.64693853222849,83.51957801610868,141.09413350598624,129.51386453579505,2.1,2.12,-189,-273,0,-276,203,252,422.7265477180481,422.7265863418579,422.72904205322266,422.74080061912537,422.8911292552948,422.8911292552948,422.8911292552948,422.8911292552948,422.8911292552948,422.8911292552948,422.8911292552948,424.5755524635315,3,1.8329765796661377,None,,,,,,,,,,,,,,,,,,150,3,2025-02-27_14h51.50.408,comp,2024.2.4,60.23520761258097,2025-02-27 14h52.01.076737 -0500,
115,115,0,critical,hwd,35.0,4.0,upper,200.0,125.0,125.0,200.0,127.0,127.0,2,1.6359570026397705,None,,,,,0,0,0,0,0,115,115,101,424.591023683548,,,,,,,,,,,,,,,,,,,,,,,,,,,,,,,,,,,,,,,,,,,,,,,,,,,,,,,,,,,,,,,,,,,,,,,,,,,,,,,,,200.0,125.0,125.0,200.0,127.0,127.0,4.0,4.1,-258,-276,0,20,260,-261,424.5763330459595,424.5763747692108,424.57849073410034,424.591023683548,424.741251707077,424.741251707077,424.741251707077,424.741251707077,424.741251707077,424.741251707077,424.741251707077,426.2424807548523,2,1.6359570026397705,None,,,,,,,,,,,,,,,,,,150,3,2025-02-27_14h51.50.408,comp,2024.2.4,60.23520761258097,2025-02-27 14h52.01.076737 -0500,
116,116,0,filler_random,None,None,None,None,None,None,None,None,None,None,1,1.2835872173309326,None,,,,,0,0,0,0,0,116,116,169,426.2575705051422,,,,,,,,,,,,,,,,,,,,,,,,,,,,,,,,,,,,,,,,,,,,,,,,,,,,,,,,,,,,,,,,,,,,,,,,,,,,,,,,,167.24515502454568,126.28252467564101,60.27947282159697,176.5417568948484,72.19020670016018,129.35232213323377,2.1,2.11,-247,254,0,268,249,-257,426.24339962005615,426.2434422969818,426.24583673477173,426.2575705051422,426.4076807498932,426.4076807498932,426.4076807498932,426.4076807498932,426.4076807498932,426.4076807498932,426.4076807498932,427.5587282180786,1,1.2835872173309326,None,,,,,,,,,,,,,,,,,,150,3,2025-02-27_14h51.50.408,comp,2024.2.4,60.23520761258097,2025-02-27 14h52.01.076737 -0500,
117,117,0,filler_square,None,None,None,None,None,None,None,None,None,None,2,2.7580068111419678,None,,,,,0,0,0,0,0,117,117,205,427.5741238594055,,,,,,,,,,,,,,,,,,,,,,,,,,,,,,,,,,,,,,,,,,,,,,,,,,,,,,,,,,,,,,,,,,,,,,,,,,,,,,,,,61.80961847059743,61.36249232583356,72.91030945270232,72.91030945270232,71.19929350557697,68.21252276726341,4.0,4.1,-163,-283,0,15,167,-283,427.5597095489502,427.55975103378296,427.56229305267334,427.5741238594055,427.7244122028351,427.7244122028351,427.7244122028351,427.7244122028351,427.7244122028351,427.7244122028351,427.7244122028351,430.34188199043274,2,2.7580068111419678,None,,,,,,,,,,,,,,,,,,150,3,2025-02-27_14h51.50.408,comp,2024.2.4,60.23520761258097,2025-02-27 14h52.01.076737 -0500,
118,118,0,critical,dhw,35.0,1.0,lower,70.0,70.0,133.0,57.0,57.0,133.0,2,2.3501434326171875,None,,,,,0,0,0,0,0,118,118,48,430.35780143737793,,,,,,,,,,,,,,,,,,,,,,,,,,,,,,,,,,,,,,,,,,,,,,,,,,,,,,,,,,,,,,,,,,,,,,,,,,,,,,,,,70.0,70.0,133.0,57.0,57.0,133.0,1.0,1.2,-160,-10,0,-12,191,5,430.3426809310913,430.3427231311798,430.3452453613281,430.35780143737793,430.50751852989197,430.50751852989197,430.50751852989197,430.50751852989197,430.50751852989197,430.50751852989197,430.50751852989197,432.72544026374817,2,2.3501434326171875,None,,,,,,,,,,,,,,,,,,150,3,2025-02-27_14h51.50.408,comp,2024.2.4,60.23520761258097,2025-02-27 14h52.01.076737 -0500,
119,119,0,critical,hwd,20.0,2.1,lower,133.0,57.0,57.0,133.0,78.0,78.0,2,1.2219414710998535,None,,,,,0,0,0,0,0,119,119,42,432.7408585548401,,,,,,,,,,,,,,,,,,,,,,,,,,,,,,,,,,,,,,,,,,,,,,,,,,,,,,,,,,,,,,,,,,,,,,,,,,,,,,,,,133.0,57.0,57.0,133.0,78.0,78.0,2.1,2.12,-191,-255,0,-270,202,269,432.7262055873871,432.7262444496155,432.72863507270813,432.7408585548401,432.890816450119,432.890816450119,432.890816450119,432.890816450119,432.890816450119,432.890816450119,432.890816450119,433.97545433044434,2,1.2219414710998535,None,,,,,,,,,,,,,,,,,,150,3,2025-02-27_14h51.50.408,comp,2024.2.4,60.23520761258097,2025-02-27 14h52.01.076737 -0500,
120,120,0,filler_square,None,None,None,None,None,None,None,None,None,None,2,1.0283846855163574,None,,,,,0,0,0,0,0,120,120,204,434.00733065605164,,,,,,,,,,,,,,,,,,,,,,,,,,,,,,,,,,,,,,,,,,,,,,,,,,,,,,,,,,,,,,,,,,,,,,,,,,,,,,,,,63.138391398649965,120.31098035127158,175.47833110249402,175.47833110249402,132.55842617565773,94.61356973290077,2.2,2.21,-244,-279,0,256,231,260,433.9764075279236,433.97644901275635,433.97888588905334,434.00733065605164,434.141410112381,434.141410112381,434.141410112381,434.141410112381,434.141410112381,434.141410112381,434.141410112381,435.0421977043152,2,1.0283846855163574,None,,,,,,,,,,,,,,,,,,150,3,2025-02-27_14h51.50.408,comp,2024.2.4,60.23520761258097,2025-02-27 14h52.01.076737 -0500,
121,121,0,catch,None,None,None,None,None,None,None,None,None,None,1,1.0337677001953125,None,,,,,0,0,0,0,0,121,121,124,435.0576331615448,,,,,,,,,,,,,,,,,,,,,,,,,,,,,,,,,,,,,,,,,,,,,,,,,,,,,,,,,,,,,,,,,,,,,,,,,,,,,,,,,140,185,61,129,116,74,2.2,2.22,-253,268,0,-273,198,-262,435.04324102401733,435.04328322410583,435.04572439193726,435.0576331615448,435.20772767066956,435.20772767066956,435.20772767066956,435.20772767066956,435.20772767066956,435.20772767066956,435.20772767066956,436.1088125705719,1,1.0337677001953125,None,,,,,,,,,,,,,,,,,,150,3,2025-02-27_14h51.50.408,comp,2024.2.4,60.23520761258097,2025-02-27 14h52.01.076737 -0500,
122,122,0,critical,dwh,20.0,2.1,upper,141.0,141.0,125.0,200.0,200.0,125.0,2,1.0799980163574219,None,,,,,0,0,0,0,0,122,122,31,436.12425661087036,,,,,,,,,,,,,,,,,,,,,,,,,,,,,,,,,,,,,,,,,,,,,,,,,,,,,,,,,,,,,,,,,,,,,,,,,,,,,,,,,141.0,141.0,125.0,200.0,200.0,125.0,2.1,2.12,-266,-262,0,-275,258,263,436.1096467971802,436.1096885204315,436.1122989654541,436.12425661087036,436.27482867240906,436.27482867240906,436.27482867240906,436.27482867240906,436.27482867240906,436.27482867240906,436.27482867240906,437.20905113220215,2,1.0799980163574219,None,,,,,,,,,,,,,,,,,,150,3,2025-02-27_14h51.50.408,comp,2024.2.4,60.23520761258097,2025-02-27 14h52.01.076737 -0500,
123,123,0,filler_square,None,None,None,None,None,None,None,None,None,None,3,1.6025028228759766,None,,,,,0,0,0,0,0,123,123,209,437.2244129180908,,,,,,,,,,,,,,,,,,,,,,,,,,,,,,,,,,,,,,,,,,,,,,,,,,,,,,,,,,,,,,,,,,,,,,,,,,,,,,,,,88.04138692382232,137.3113620826412,115.18425032215217,68.13694603437372,138.17205969307537,138.17205969307537,4.0,4.1,-199,-278,0,-6,199,-261,437.2102782726288,437.21032190322876,437.2128527164459,437.2244129180908,437.37473368644714,437.37473368644714,437.37473368644714,437.37473368644714,437.37473368644714,437.37473368644714,437.37473368644714,438.84191155433655,3,1.6025028228759766,None,,,,,,,,,,,,,,,,,,150,3,2025-02-27_14h51.50.408,comp,2024.2.4,60.23520761258097,2025-02-27 14h52.01.076737 -0500,
124,124,0,filler_random,None,None,None,None,None,None,None,None,None,None,1,1.4582910537719727,None,,,,,0,0,0,0,0,124,124,145,438.85741686820984,,,,,,,,,,,,,,,,,,,,,,,,,,,,,,,,,,,,,,,,,,,,,,,,,,,,,,,,,,,,,,,,,,,,,,,,,,,,,,,,,103.3549882099814,193.68347300919896,160.61792856217028,98.12038475243175,165.10428762522884,90.73221829292376,1.0,1.3,238,-256,480,-266,670,-264,438.8427851200104,438.84282398223877,438.8455126285553,438.85741686820984,439.00767970085144,439.00767970085144,439.00767970085144,439.00767970085144,439.00767970085144,439.00767970085144,439.00767970085144,440.3253974914551,1,1.4582910537719727,None,,,,,,,,,,,,,,,,,,150,3,2025-02-27_14h51.50.408,comp,2024.2.4,60.23520761258097,2025-02-27 14h52.01.076737 -0500,
125,125,0,critical,hwd,20.0,1.0,upper,200.0,125.0,125.0,200.0,141.0,141.0,2,2.0947811603546143,None,,,,,0,0,0,0,0,125,125,103,440.3409252166748,,,,,,,,,,,,,,,,,,,,,,,,,,,,,,,,,,,,,,,,,,,,,,,,,,,,,,,,,,,,,,,,,,,,,,,,,,,,,,,,,200.0,125.0,125.0,200.0,141.0,141.0,1.0,1.1,-738,277,-480,287,-214,263,440.32618975639343,440.32622957229614,440.3285779953003,440.3409252166748,440.4911262989044,440.4911262989044,440.4911262989044,440.4911262989044,440.4911262989044,440.4911262989044,440.4911262989044,442.44229316711426,2,2.0947811603546143,None,,,,,,,,,,,,,,,,,,150,3,2025-02-27_14h51.50.408,comp,2024.2.4,60.23520761258097,2025-02-27 14h52.01.076737 -0500,
126,126,0,filler_square,None,None,None,None,None,None,None,None,None,None,3,2.7779321670532227,None,,,,,0,0,0,0,0,126,126,182,442.45770287513733,,,,,,,,,,,,,,,,,,,,,,,,,,,,,,,,,,,,,,,,,,,,,,,,,,,,,,,,,,,,,,,,,,,,,,,,,,,,,,,,,57.73106190214353,71.37515943767718,60.273436175791495,58.94004416654284,71.79980141892098,71.79980141892098,4.0,4.2,-161,-15,0,-251,161,17,442.4432828426361,442.44332480430603,442.44574522972107,442.45770287513733,442.60752844810486,442.60752844810486,442.60752844810486,442.60752844810486,442.60752844810486,442.60752844810486,442.60752844810486,445.24192237854004,3,2.7779321670532227,None,,,,,,,,,,,,,,,,,,150,3,2025-02-27_14h51.50.408,comp,2024.2.4,60.23520761258097,2025-02-27 14h52.01.076737 -0500,
127,127,0,critical,dwh,35.0,1.0,lower,70.0,70.0,57.0,133.0,133.0,57.0,1,1.833747386932373,None,,,,,0,0,0,0,0,127,127,60,445.2576205730438,,,,,,,,,,,,,,,,,,,,,,,,,,,,,,,,,,,,,,,,,,,,,,,,,,,,,,,,,,,,,,,,,,,,,,,,,,,,,,,,,70.0,70.0,57.0,133.0,133.0,57.0,1.0,1.3,282,-285,480,-284,671,-281,445.24272751808167,445.2427680492401,445.2453947067261,445.2576205730438,445.4075255393982,445.4075255393982,445.4075255393982,445.4075255393982,445.4075255393982,445.4075255393982,445.4075255393982,447.10854148864746,1,1.833747386932373,None,,,,,,,,,,,,,,,,,,150,3,2025-02-27_14h51.50.408,comp,2024.2.4,60.23520761258097,2025-02-27 14h52.01.076737 -0500,
128,128,0,filler_random,None,None,None,None,None,None,None,None,None,None,1,1.959697961807251,None,,,,,0,0,0,0,0,128,128,143,447.12403631210327,,,,,,,,,,,,,,,,,,,,,,,,,,,,,,,,,,,,,,,,,,,,,,,,,,,,,,,,,,,,,,,,,,,,,,,,,,,,,,,,,199.25556281873892,169.34139426931688,149.61616314135296,166.3686796810697,181.2415630911124,152.10322427231802,1.0,1.3,216,-266,480,-261,735,-284,447.109393119812,447.1094317436218,447.11185455322266,447.12403631210327,447.27443194389343,447.27443194389343,447.27443194389343,447.27443194389343,447.27443194389343,447.27443194389343,447.27443194389343,449.0922780036926,1,1.959697961807251,None,,,,,,,,,,,,,,,,,,150,3,2025-02-27_14h51.50.408,comp,2024.2.4,60.23520761258097,2025-02-27 14h52.01.076737 -0500,
129,129,0,catch,None,None,None,None,None,None,None,None,None,None,1,0.7838304042816162,None,,,,,0,0,0,0,0,129,129,129,449.10771799087524,,,,,,,,,,,,,,,,,,,,,,,,,,,,,,,,,,,,,,,,,,,,,,,,,,,,,,,,,,,,,,,,,,,,,,,,,,,,,,,,,136,189,121,69,62,128,4.0,4.2,-225,17,0,-270,194,17,449.0933117866516,449.0933530330658,449.09571170806885,449.10771799087524,449.2575080394745,449.2575080394745,449.2575080394745,449.2575080394745,449.2575080394745,449.2575080394745,449.2575080394745,449.9086215496063,1,0.7838304042816162,None,,,,,,,,,,,,,,,,,,150,3,2025-02-27_14h51.50.408,comp,2024.2.4,60.23520761258097,2025-02-27 14h52.01.076737 -0500,
130,130,0,filler_random,None,None,None,None,None,None,None,None,None,None,3,1.3917739391326904,None,,,,,0,0,0,0,0,130,130,153,449.9241189956665,,,,,,,,,,,,,,,,,,,,,,,,,,,,,,,,,,,,,,,,,,,,,,,,,,,,,,,,,,,,,,,,,,,,,,,,,,,,,,,,,123.93664835758382,105.72500943952195,94.36423579452239,144.80108215823537,175.99674386459407,124.48816125824447,2.2,2.22,-221,280,0,-279,231,-276,449.9095401763916,449.9095814228058,449.9120948314667,449.9241189956665,450.07427620887756,450.07427620887756,450.07427620887756,450.07427620887756,450.07427620887756,450.07427620887756,450.07427620887756,451.3254270553589,3,1.3917739391326904,None,,,,,,,,,,,,,,,,,,150,3,2025-02-27_14h51.50.408,comp,2024.2.4,60.23520761258097,2025-02-27 14h52.01.076737 -0500,
131,131,0,critical,hdw,20.0,1.0,lower,133.0,57.0,78.0,78.0,57.0,133.0,3,1.6218719482421875,None,,,,,0,0,0,0,0,131,131,114,451.3408658504486,,,,,,,,,,,,,,,,,,,,,,,,,,,,,,,,,,,,,,,,,,,,,,,,,,,,,,,,,,,,,,,,,,,,,,,,,,,,,,,,,133.0,57.0,78.0,78.0,57.0,133.0,1.0,1.2,-164,-8,0,2,202,-3,451.3262162208557,451.32625675201416,451.3286409378052,451.3408658504486,451.4907901287079,451.4907901287079,451.4907901287079,451.4907901287079,451.4907901287079,451.4907901287079,451.4907901287079,452.97536301612854,3,1.6218719482421875,None,,,,,,,,,,,,,,,,,,150,3,2025-02-27_14h51.50.408,comp,2024.2.4,60.23520761258097,2025-02-27 14h52.01.076737 -0500,
132,132,0,filler_square,None,None,None,None,None,None,None,None,None,None,2,1.1414716243743896,None,,,,,0,0,0,0,0,132,132,197,452.9905984401703,,,,,,,,,,,,,,,,,,,,,,,,,,,,,,,,,,,,,,,,,,,,,,,,,,,,,,,,,,,,,,,,,,,,,,,,,,,,,,,,,107.50476626159517,62.1826579141253,112.83646066182193,112.83646066182193,93.18073884611539,59.08347927677379,2.1,2.11,-184,266,0,264,182,-268,452.976331949234,452.97637486457825,452.97877407073975,452.9905984401703,453.14083647727966,453.14083647727966,453.14083647727966,453.14083647727966,453.14083647727966,453.14083647727966,453.14083647727966,454.1418626308441,2,1.1414716243743896,None,,,,,,,,,,,,,,,,,,150,3,2025-02-27_14h51.50.408,comp,2024.2.4,60.23520761258097,2025-02-27 14h52.01.076737 -0500,
133,133,0,critical,wdh,35.0,1.0,lower,57.0,133.0,70.0,70.0,133.0,57.0,1,1.8156886100769043,None,,,,,0,0,0,0,0,133,133,72,454.15756607055664,,,,,,,,,,,,,,,,,,,,,,,,,,,,,,,,,,,,,,,,,,,,,,,,,,,,,,,,,,,,,,,,,,,,,,,,,,,,,,,,,57.0,133.0,70.0,70.0,133.0,57.0,1.0,1.2,-198,-10,0,9,160,-13,454.142609834671,454.1426486968994,454.14522767066956,454.15756607055664,454.30747175216675,454.30747175216675,454.30747175216675,454.30747175216675,454.30747175216675,454.30747175216675,454.30747175216675,455.97545623779297,1,1.8156886100769043,None,,,,,,,,,,,,,,,,,,150,3,2025-02-27_14h51.50.408,comp,2024.2.4,60.23520761258097,2025-02-27 14h52.01.076737 -0500,
134,134,0,critical,wdh,20.0,3.0,upper,125.0,200.0,141.0,141.0,200.0,125.0,1,1.7824296951293945,None,,,,,0,0,0,0,0,134,134,81,455.9908323287964,,,,,,,,,,,,,,,,,,,,,,,,,,,,,,,,,,,,,,,,,,,,,,,,,,,,,,,,,,,,,,,,,,,,,,,,,,,,,,,,,125.0,200.0,141.0,141.0,200.0,125.0,3.0,3.1,-266,271,0,7,229,-262,455.9762387275696,455.9762797355652,455.9787244796753,455.9908323287964,456.141081571579,456.141081571579,456.141081571579,456.141081571579,456.141081571579,456.141081571579,456.141081571579,457.77555894851685,1,1.7824296951293945,None,,,,,,,,,,,,,,,,,,150,3,2025-02-27_14h51.50.408,comp,2024.2.4,60.23520761258097,2025-02-27 14h52.01.076737 -0500,
135,135,0,filler_square,None,None,None,None,None,None,None,None,None,None,2,1.452023983001709,None,,,,,0,0,0,0,0,135,135,179,457.790860414505,,,,,,,,,,,,,,,,,,,,,,,,,,,,,,,,,,,,,,,,,,,,,,,,,,,,,,,,,,,,,,,,,,,,,,,,,,,,,,,,,58.5362795117268,66.01488391038018,119.6690420117376,119.6690420117376,106.05913351648823,107.68754347571237,2.1,2.11,-189,265,0,289,210,-278,457.77655363082886,457.77659606933594,457.77873134613037,457.790860414505,457.94100618362427,457.94100618362427,457.94100618362427,457.94100618362427,457.94100618362427,457.94100618362427,457.94100618362427,459.258593082428,2,1.452023983001709,None,,,,,,,,,,,,,,,,,,150,3,2025-02-27_14h51.50.408,comp,2024.2.4,60.23520761258097,2025-02-27 14h52.01.076737 -0500,
136,136,0,critical,dhw,35.0,2.1,lower,70.0,70.0,133.0,57.0,57.0,133.0,3,2.1687493324279785,None,,,,,0,0,0,0,0,136,136,0,459.2739956378937,,,,,,,,,,,,,,,,,,,,,,,,,,,,,,,,,,,,,,,,,,,,,,,,,,,,,,,,,,,,,,,,,,,,,,,,,,,,,,,,,70.0,70.0,133.0,57.0,57.0,133.0,2.1,2.12,-160,-255,0,-267,191,257,459.2593500614166,459.259388923645,459.26182317733765,459.2739956378937,459.4241580963135,459.4241580963135,459.4241580963135,459.4241580963135,459.4241580963135,459.4241580963135,459.4241580963135,461.458434343338,3,2.1687493324279785,None,,,,,,,,,,,,,,,,,,150,3,2025-02-27_14h51.50.408,comp,2024.2.4,60.23520761258097,2025-02-27 14h52.01.076737 -0500,
137,137,0,filler_random,None,None,None,None,None,None,None,None,None,None,1,1.2725377082824707,None,,,,,0,0,0,0,0,137,137,167,461.4740831851959,,,,,,,,,,,,,,,,,,,,,,,,,,,,,,,,,,,,,,,,,,,,,,,,,,,,,,,,,,,,,,,,,,,,,,,,,,,,,,,,,115.82022629170235,184.81065978141527,170.7051376423752,90.93572701088229,139.09692866878802,66.19013500885812,1.0,1.2,-234,-4,0,6,175,2,461.4592995643616,461.45934009552,461.461786031723,461.4740831851959,461.62425541877747,461.62425541877747,461.62425541877747,461.62425541877747,461.62425541877747,461.62425541877747,461.62425541877747,462.7591326236725,1,1.2725377082824707,None,,,,,,,,,,,,,,,,,,150,3,2025-02-27_14h51.50.408,comp,2024.2.4,60.23520761258097,2025-02-27 14h52.01.076737 -0500,
138,138,0,critical,dwh,20.0,2.1,lower,78.0,78.0,57.0,133.0,133.0,57.0,2,2.5581469535827637,None,,,,,0,0,0,0,0,138,138,30,462.77399158477783,,,,,,,,,,,,,,,,,,,,,,,,,,,,,,,,,,,,,,,,,,,,,,,,,,,,,,,,,,,,,,,,,,,,,,,,,,,,,,,,,78.0,78.0,57.0,133.0,133.0,57.0,2.1,2.11,-202,258,0,286,191,-263,462.7599124908447,462.7599537372589,462.7622580528259,462.77399158477783,462.92417454719543,462.92417454719543,462.92417454719543,462.92417454719543,462.92417454719543,462.92417454719543,462.92417454719543,465.3419380187988,2,2.5581469535827637,None,,,,,,,,,,,,,,,,,,150,3,2025-02-27_14h51.50.408,comp,2024.2.4,60.23520761258097,2025-02-27 14h52.01.076737 -0500,
139,139,0,critical,whd,35.0,4.0,lower,57.0,133.0,133.0,57.0,70.0,70.0,1,1.4532372951507568,None,,,,,0,0,0,0,0,139,139,88,465.35757541656494,,,,,,,,,,,,,,,,,,,,,,,,,,,,,,,,,,,,,,,,,,,,,,,,,,,,,,,,,,,,,,,,,,,,,,,,,,,,,,,,,57.0,133.0,133.0,57.0,70.0,70.0,4.0,4.1,-191,-267,0,-16,160,-266,465.34274554252625,465.34278559684753,465.34530377388,465.35757541656494,465.50737738609314,465.50737738609314,465.50737738609314,465.50737738609314,465.50737738609314,465.50737738609314,465.50737738609314,466.8251495361328,1,1.4532372951507568,None,,,,,,,,,,,,,,,,,,150,3,2025-02-27_14h51.50.408,comp,2024.2.4,60.23520761258097,2025-02-27 14h52.01.076737 -0500,
