thisN,thisTrialN,thisRepN,effect,order,distance,config,diag,h_1,w_1,h_2,w_2,h_3,w_3,rect_choice.keys,rect_choice.rt,rect_choice.duration,instructions_loop.thisRepN,instructions_loop.thisTrialN,instructions_loop.thisN,instructions_loop.thisIndex,blocks.thisRepN,blocks.thisTrialN,blocks.thisN,blocks.thisIndex,trials.thisRepN,trials.thisTrialN,trials.thisN,trials.thisIndex,thisRow.t,notes,consent.started,agree_button.started,decline_button.started,consent_img.started,mouse.started,consent.stopped,agree_button.numClicks,agree_button.timesOn,agree_button.timesOff,decline_button.numClicks,decline_button.timesOn,decline_button.timesOff,mouse.x,mouse.y,mouse.leftButton,mouse.midButton,mouse.rightButton,mouse.time,mouse.clicked_name,exp_params.started,exp_params.stopped,welcome.started,welcome_text.started,welcome.stopped,instructions_1.started,instructions_1_text_1.started,instructions_1_text_2.started,key_resp.started,instructions_1.stopped,instructions_loop.key_resp.keys,instructions_loop.key_resp.rt,instructions_loop.key_resp.duration,instructions_2.started,instructions_2_text_1.started,instructions_2_text_2.started,key_resp_2.started,instructions_2.stopped,instructions_loop.key_resp_2.keys,instructions_loop.key_resp_2.rt,instructions_loop.key_resp_2.duration,instructions_3.started,instructions_3_text_1.started,r1_instr3.started,r2_instr3.started,r3_instr3.started,r1_instr3_label.started,r2_instr3_label.started,r3_instr3_label.started,instructions_3_text_3.started,instructions_3_text_4.started,key_resp_3.started,instructions_3.stopped,instructions_loop.key_resp_3.keys,instructions_loop.key_resp_3.rt,instructions_loop.key_resp_3.duration,instructions_4.started,instructions_4_text_1.started,instructions_4_text_3.started,instructions_4_text_2.started,key_resp_4.started,instructions_4.stopped,instructions_loop.key_resp_4.keys,instructions_loop.key_resp_4.rt,instructions_loop.key_resp_4.duration,instructions_5.started,instructions_5_text_1.started,instructions_5_text_2.started,key_resp_5.started,instructions_5.stopped,instructions_loop.key_resp_5.keys,instructions_loop.key_resp_5.rt,instructions_loop.key_resp_5.duration,start_exp.started,start_exp_text.started,key_resp_6.started,start_exp.stopped,key_resp_6.keys,key_resp_6.rt,key_resp_6.duration,h_1_tmp,w_1_tmp,h_2_tmp,w_2_tmp,h_3_tmp,w_3_tmp,config_tmp,config_tmp_1,r_1_x,r_1_y,r_2_x,r_2_y,r_3_x,r_3_y,pre_trial.started,pre_trial.stopped,choice_trial.started,rect_choice.started,r_1.started,r_2.started,r_3.started,r_1_label.started,r_2_label.started,r_3_label.started,prompt.started,choice_trial.stopped,trials.rect_choice.keys,trials.rect_choice.rt,trials.rect_choice.duration,end_block.started,end_block_text.started,end_block.stopped,end.started,end_text.started,key_resp_7.started,end.stopped,key_resp_7.keys,key_resp_7.rt,key_resp_7.duration,debriefing.started,debrief_form.started,end_debrief.started,debriefing.stopped,end_debrief.keys,end_debrief.rt,end_debrief.duration,participant,computer,date,expName,psychopyVersion,frameRate,expStart,
,,,,,,,,,,,,,,,,,,,,,,,,,,,,,,,0.03658294677734375,0.0962057113647461,0.0962057113647461,0.0962057113647461,0.0363924503326416,9.626268148422241,1,[9.528119325637817],[9.528137922286987],0,,,[-70.0],[-499.0],[1],[0],[0],[9.580255508422852],['agree_button'],,,,,,,,,,,,,,,,,,,,,,,,,,,,,,,,,,,,,,,,,,,,,,,,,,,,,,,,,,,,,,,,,,,,,,,,,,,,,,,,,,,,,,,,,,,,,,,,,,,,,,,,,,,151,1,2025-02-28_09h51.40.650,comp,2024.2.4,54.55174952234912,2025-02-28 09h53.02.065319 -0500,
,,,,,,,,,,,,,,,,,,,,,,,,,,,,,,,,,,,,,,,,,,,,,,,,,,9.626668214797974,9.626721382141113,,,,,,,,,,,,,,,,,,,,,,,,,,,,,,,,,,,,,,,,,,,,,,,,,,,,,,,,,,,,,,,,,,,,,,,,,,,,,,,,,,,,,,,,,,,,,,,,,,,,,,,,,151,1,2025-02-28_09h51.40.650,comp,2024.2.4,54.55174952234912,2025-02-28 09h53.02.065319 -0500,
,,,,,,,,,,,,,,,,,,,,,,,,,,,,,,,,,,,,,,,,,,,,,,,,,,,,9.626775741577148,9.660182237625122,11.631456851959229,,,,,,,,,,,,,,,,,,,,,,,,,,,,,,,,,,,,,,,,,,,,,,,,,,,,,,,,,,,,,,,,,,,,,,,,,,,,,,,,,,,,,,,,,,,,,,,,,,,,,,151,1,2025-02-28_09h51.40.650,comp,2024.2.4,54.55174952234912,2025-02-28 09h53.02.065319 -0500,
0,0,0,,,,,,,,,,,,,,,0,0,0,0,,,,,,,,,11.648172855377197,,,,,,,,,,,,,,,,,,,,,,,,,,11.632440567016602,11.648172855377197,11.648172855377197,13.135207414627075,16.569475173950195,space,3.4143874645233154,None,16.5696280002594,16.585102319717407,16.585102319717407,18.073862075805664,29.207191467285156,space,11.130534410476685,None,29.207335472106934,29.25109362602234,29.25109362602234,29.25109362602234,29.25109362602234,29.25109362602234,29.25109362602234,29.25109362602234,29.25109362602234,29.25109362602234,30.707409620285034,35.57544207572937,space,4.857048034667969,None,35.575610637664795,35.59284043312073,35.59284043312073,35.59284043312073,37.075263023376465,45.978384256362915,space,8.889148712158203,None,45.97853446006775,45.993650674819946,45.993650674819946,47.47830009460449,49.479087114334106,space,1.9986648559570312,None,49.479289531707764,49.4948673248291,49.4948673248291,51.14798974990845,space,1.6375820636749268,None,,,,,,,,,,,,,,,,,,,,,,,,,,,,,,,,,,,,,,,,,,,,,,,151,1,2025-02-28_09h51.40.650,comp,2024.2.4,54.55174952234912,2025-02-28 09h53.02.065319 -0500,
0,0,0,filler_random,None,None,None,None,None,None,None,None,None,None,2,5.6797730922698975,None,,,,,0,0,0,0,0,0,0,131,51.34877586364746,,,,,,,,,,,,,,,,,,,,,,,,,,,,,,,,,,,,,,,,,,,,,,,,,,,,,,,,,,,,,,,,,,,,,,,,,,,,,,,,,161.65522883072472,77.58373816742319,84.2302142443767,148.3793763803045,82.92423694277812,92.34772557428738,2.1,2.12,-209,-279,0,-253,216,279,51.33206009864807,51.33213186264038,51.333698987960815,51.34877586364746,51.504202127456665,51.504202127456665,51.504202127456665,51.504202127456665,51.504202127456665,51.504202127456665,51.504202127456665,57.05025100708008,2,5.6797730922698975,None,,,,,,,,,,,,,,,,,,151,1,2025-02-28_09h51.40.650,comp,2024.2.4,54.55174952234912,2025-02-28 09h53.02.065319 -0500,
1,1,0,critical,dhw,35.0,4.0,lower,70.0,70.0,133.0,57.0,57.0,133.0,2,4.3109657764434814,None,,,,,0,0,0,0,0,1,1,52,57.07026481628418,,,,,,,,,,,,,,,,,,,,,,,,,,,,,,,,,,,,,,,,,,,,,,,,,,,,,,,,,,,,,,,,,,,,,,,,,,,,,,,,,70.0,70.0,133.0,57.0,57.0,133.0,4.0,4.2,-160,1,0,-251,191,-6,57.05179810523987,57.05187177658081,57.0550422668457,57.07026481628418,57.21656131744385,57.21656131744385,57.21656131744385,57.21656131744385,57.21656131744385,57.21656131744385,57.21656131744385,61.38341689109802,2,4.3109657764434814,None,,,,,,,,,,,,,,,,,,151,1,2025-02-28_09h51.40.650,comp,2024.2.4,54.55174952234912,2025-02-28 09h53.02.065319 -0500,
2,2,0,filler_random,None,None,None,None,None,None,None,None,None,None,3,4.044432163238525,None,,,,,0,0,0,0,0,2,2,158,61.400060176849365,,,,,,,,,,,,,,,,,,,,,,,,,,,,,,,,,,,,,,,,,,,,,,,,,,,,,,,,,,,,,,,,,,,,,,,,,,,,,,,,,57.50657025518779,180.18183862346717,93.48009604654787,162.74473358136015,141.2526202312407,178.7518222844019,3.0,3.2,-267,-272,0,3,267,264,61.38513803482056,61.38521480560303,61.388087034225464,61.400060176849365,61.55665159225464,61.55665159225464,61.55665159225464,61.55665159225464,61.55665159225464,61.55665159225464,61.55665159225464,65.45897197723389,3,4.044432163238525,None,,,,,,,,,,,,,,,,,,151,1,2025-02-28_09h51.40.650,comp,2024.2.4,54.55174952234912,2025-02-28 09h53.02.065319 -0500,
3,3,0,filler_random,None,None,None,None,None,None,None,None,None,None,1,2.862199544906616,None,,,,,0,0,0,0,0,3,3,147,65.47943115234375,,,,,,,,,,,,,,,,,,,,,,,,,,,,,,,,,,,,,,,,,,,,,,,,,,,,,,,,,,,,,,,,,,,,,,,,,,,,,,,,,124.57222372457514,199.3549982801937,147.79840942272446,160.25166375238115,93.58135851418854,100.55075332223446,3.0,3.2,-276,-267,0,-11,226,259,65.46064853668213,65.46072697639465,65.46362614631653,65.47943115234375,65.61790609359741,65.61790609359741,65.61790609359741,65.61790609359741,65.61790609359741,65.61790609359741,65.61790609359741,68.3530662059784,1,2.862199544906616,None,,,,,,,,,,,,,,,,,,151,1,2025-02-28_09h51.40.650,comp,2024.2.4,54.55174952234912,2025-02-28 09h53.02.065319 -0500,
4,4,0,filler_square,None,None,None,None,None,None,None,None,None,None,3,5.595404863357544,None,,,,,0,0,0,0,0,4,4,203,68.37001466751099,,,,,,,,,,,,,,,,,,,,,,,,,,,,,,,,,,,,,,,,,,,,,,,,,,,,,,,,,,,,,,,,,,,,,,,,,,,,,,,,,81.0939034291325,69.33734177760275,81.66521325744831,71.48553677138813,85.90464865226714,85.90464865226714,1.0,1.3,314,-284,480,-271,655,-263,68.35495662689209,68.35503506660461,68.35911703109741,68.37001466751099,68.52122068405151,68.52122068405151,68.52122068405151,68.52122068405151,68.52122068405151,68.52122068405151,68.52122068405151,73.9736659526825,3,5.595404863357544,None,,,,,,,,,,,,,,,,,,151,1,2025-02-28_09h51.40.650,comp,2024.2.4,54.55174952234912,2025-02-28 09h53.02.065319 -0500,
5,5,0,critical,whd,35.0,2.1,upper,125.0,200.0,200.0,125.0,127.0,127.0,1,10.015063524246216,None,,,,,0,0,0,0,0,5,5,37,73.99032211303711,,,,,,,,,,,,,,,,,,,,,,,,,,,,,,,,,,,,,,,,,,,,,,,,,,,,,,,,,,,,,,,,,,,,,,,,,,,,,,,,,125.0,200.0,200.0,125.0,127.0,127.0,2.1,2.12,-258,-278,0,-275,222,265,73.97540760040283,73.97548913955688,73.9793655872345,73.99032211303711,74.13697695732117,74.13697695732117,74.13697695732117,74.13697695732117,74.13697695732117,74.13697695732117,74.13697695732117,84.00941610336304,1,10.015063524246216,None,,,,,,,,,,,,,,,,,,151,1,2025-02-28_09h51.40.650,comp,2024.2.4,54.55174952234912,2025-02-28 09h53.02.065319 -0500,
6,6,0,filler_random,None,None,None,None,None,None,None,None,None,None,2,2.682715892791748,None,,,,,0,0,0,0,0,6,6,161,84.0258309841156,,,,,,,,,,,,,,,,,,,,,,,,,,,,,,,,,,,,,,,,,,,,,,,,,,,,,,,,,,,,,,,,,,,,,,,,,,,,,,,,,71.92716587442139,101.42831538288101,130.02688593013897,111.87741532023924,58.33730674330463,141.50255320714396,2.1,2.11,-203,257,0,278,223,-265,84.01140975952148,84.01153445243835,84.01504135131836,84.0258309841156,84.17297148704529,84.17297148704529,84.17297148704529,84.17297148704529,84.17297148704529,84.17297148704529,84.17297148704529,86.72491931915283,2,2.682715892791748,None,,,,,,,,,,,,,,,,,,151,1,2025-02-28_09h51.40.650,comp,2024.2.4,54.55174952234912,2025-02-28 09h53.02.065319 -0500,
7,7,0,filler_square,None,None,None,None,None,None,None,None,None,None,3,3.927664279937744,None,,,,,0,0,0,0,0,7,7,182,86.74166440963745,,,,,,,,,,,,,,,,,,,,,,,,,,,,,,,,,,,,,,,,,,,,,,,,,,,,,,,,,,,,,,,,,,,,,,,,,,,,,,,,,120.07154081076698,70.87676366361012,109.53394709009052,67.01796652127115,130.64082090493235,130.64082090493235,3.0,3.1,-165,289,0,-15,195,-275,86.72686052322388,86.72693657875061,86.73017239570618,86.74166440963745,86.89867043495178,86.89867043495178,86.89867043495178,86.89867043495178,86.89867043495178,86.89867043495178,86.89867043495178,90.67690753936768,3,3.927664279937744,None,,,,,,,,,,,,,,,,,,151,1,2025-02-28_09h51.40.650,comp,2024.2.4,54.55174952234912,2025-02-28 09h53.02.065319 -0500,
8,8,0,filler_square,None,None,None,None,None,None,None,None,None,None,3,12.662088632583618,None,,,,,0,0,0,0,0,8,8,194,90.69527125358582,,,,,,,,,,,,,,,,,,,,,,,,,,,,,,,,,,,,,,,,,,,,,,,,,,,,,,,,,,,,,,,,,,,,,,,,,,,,,,,,,62.9504808486823,62.9504808486823,60.683516632838256,61.9851644418473,60.91247079008988,59.372451713925706,3.0,3.1,-158,260,0,-13,157,-280,90.67891716957092,90.67899346351624,90.68240761756897,90.69527125358582,90.84399819374084,90.84399819374084,90.84399819374084,90.84399819374084,90.84399819374084,90.84399819374084,90.84399819374084,103.3642430305481,3,12.662088632583618,None,,,,,,,,,,,,,,,,,,151,1,2025-02-28_09h51.40.650,comp,2024.2.4,54.55174952234912,2025-02-28 09h53.02.065319 -0500,
9,9,0,filler_random,None,None,None,None,None,None,None,None,None,None,3,2.1767468452453613,None,,,,,0,0,0,0,0,9,9,148,103.38041424751282,,,,,,,,,,,,,,,,,,,,,,,,,,,,,,,,,,,,,,,,,,,,,,,,,,,,,,,,,,,,,,,,,,,,,,,,,,,,,,,,,84.652894380481,65.11382433344923,138.03907029352035,94.9877592867618,177.2868873196423,117.42710776715236,3.0,3.1,-176,269,0,-5,202,-272,103.36607098579407,103.36614966392517,103.36938953399658,103.38041424751282,103.52827262878418,103.52827262878418,103.52827262878418,103.52827262878418,103.52827262878418,103.52827262878418,103.52827262878418,105.56531739234924,3,2.1767468452453613,None,,,,,,,,,,,,,,,,,,151,1,2025-02-28_09h51.40.650,comp,2024.2.4,54.55174952234912,2025-02-28 09h53.02.065319 -0500,
10,10,0,critical,hdw,20.0,2.1,upper,200.0,125.0,141.0,141.0,125.0,200.0,3,6.470931053161621,None,,,,,0,0,0,0,0,10,10,47,105.58170485496521,,,,,,,,,,,,,,,,,,,,,,,,,,,,,,,,,,,,,,,,,,,,,,,,,,,,,,,,,,,,,,,,,,,,,,,,,,,,,,,,,200.0,125.0,141.0,141.0,125.0,200.0,2.1,2.11,-229,281,0,251,266,-259,105.56673383712769,105.56683158874512,105.57091426849365,105.58170485496521,105.72884774208069,105.72884774208069,105.72884774208069,105.72884774208069,105.72884774208069,105.72884774208069,105.72884774208069,112.06879496574402,3,6.470931053161621,None,,,,,,,,,,,,,,,,,,151,1,2025-02-28_09h51.40.650,comp,2024.2.4,54.55174952234912,2025-02-28 09h53.02.065319 -0500,
11,11,0,filler_random,None,None,None,None,None,None,None,None,None,None,2,3.600192070007324,None,,,,,0,0,0,0,0,11,11,163,112.08494091033936,,,,,,,,,,,,,,,,,,,,,,,,,,,,,,,,,,,,,,,,,,,,,,,,,,,,,,,,,,,,,,,,,,,,,,,,,,,,,,,,,163.74212967005357,79.37948695513272,98.56246894085166,133.86660010906337,154.4401626622901,60.28541940384837,1.0,1.1,-683,286,-480,255,-287,262,112.07084488868713,112.07093691825867,112.07435631752014,112.08494091033936,112.2348849773407,112.2348849773407,112.2348849773407,112.2348849773407,112.2348849773407,112.2348849773407,112.2348849773407,115.68788933753967,2,3.600192070007324,None,,,,,,,,,,,,,,,,,,151,1,2025-02-28_09h51.40.650,comp,2024.2.4,54.55174952234912,2025-02-28 09h53.02.065319 -0500,
12,12,0,critical,dwh,20.0,1.0,lower,78.0,78.0,57.0,133.0,133.0,57.0,2,7.54810357093811,None,,,,,0,0,0,0,0,12,12,66,115.7047963142395,,,,,,,,,,,,,,,,,,,,,,,,,,,,,,,,,,,,,,,,,,,,,,,,,,,,,,,,,,,,,,,,,,,,,,,,,,,,,,,,,78.0,78.0,57.0,133.0,133.0,57.0,1.0,1.2,-202,13,0,6,191,-4,115.6895740032196,115.68970465660095,115.693026304245,115.7047963142395,115.85179662704468,115.85179662704468,115.85179662704468,115.85179662704468,115.85179662704468,115.85179662704468,115.85179662704468,123.25536751747131,2,7.54810357093811,None,,,,,,,,,,,,,,,,,,151,1,2025-02-28_09h51.40.650,comp,2024.2.4,54.55174952234912,2025-02-28 09h53.02.065319 -0500,
13,13,0,filler_square,None,None,None,None,None,None,None,None,None,None,3,2.3097386360168457,None,,,,,0,0,0,0,0,13,13,171,123.27183175086975,,,,,,,,,,,,,,,,,,,,,,,,,,,,,,,,,,,,,,,,,,,,,,,,,,,,,,,,,,,,,,,,,,,,,,,,,,,,,,,,,70.77240639525134,103.75926015116829,167.5974194348002,82.32541562264247,179.2528591884552,179.2528591884552,3.0,3.1,-189,252,0,19,227,-274,123.25716948509216,123.25724697113037,123.26016449928284,123.27183175086975,123.42030835151672,123.42030835151672,123.42030835151672,123.42030835151672,123.42030835151672,123.42030835151672,123.42030835151672,125.58907103538513,3,2.3097386360168457,None,,,,,,,,,,,,,,,,,,151,1,2025-02-28_09h51.40.650,comp,2024.2.4,54.55174952234912,2025-02-28 09h53.02.065319 -0500,
14,14,0,filler_random,None,None,None,None,None,None,None,None,None,None,1,2.070573091506958,None,,,,,0,0,0,0,0,14,14,139,125.60598945617676,,,,,,,,,,,,,,,,,,,,,,,,,,,,,,,,,,,,,,,,,,,,,,,,,,,,,,,,,,,,,,,,,,,,,,,,,,,,,,,,,172.9616044540798,140.8987743108669,65.88876657213578,108.3207585163305,128.1350704799028,100.07650227118225,2.2,2.22,-221,290,0,-287,200,-265,125.5911180973053,125.59119963645935,125.59509587287903,125.60598945617676,125.75584244728088,125.75584244728088,125.75584244728088,125.75584244728088,125.75584244728088,125.75584244728088,125.75584244728088,127.68717741966248,1,2.070573091506958,None,,,,,,,,,,,,,,,,,,151,1,2025-02-28_09h51.40.650,comp,2024.2.4,54.55174952234912,2025-02-28 09h53.02.065319 -0500,
15,15,0,filler_random,None,None,None,None,None,None,None,None,None,None,2,2.21262788772583,None,,,,,0,0,0,0,0,15,15,159,127.70403003692627,,,,,,,,,,,,,,,,,,,,,,,,,,,,,,,,,,,,,,,,,,,,,,,,,,,,,,,,,,,,,,,,,,,,,,,,,,,,,,,,,131.01963296370548,137.63722406587198,160.00285796817062,145.99181167550668,181.32497555934873,74.60375793235708,4.0,4.2,-238,-1,0,-250,206,2,127.68894958496094,127.68907880783081,127.69238710403442,127.70403003692627,127.86355185508728,127.86355185508728,127.86355185508728,127.86355185508728,127.86355185508728,127.86355185508728,127.86355185508728,129.9294514656067,2,2.21262788772583,None,,,,,,,,,,,,,,,,,,151,1,2025-02-28_09h51.40.650,comp,2024.2.4,54.55174952234912,2025-02-28 09h53.02.065319 -0500,
16,16,0,filler_square,None,None,None,None,None,None,None,None,None,None,3,2.5271520614624023,None,,,,,0,0,0,0,0,16,16,200,129.94950532913208,,,,,,,,,,,,,,,,,,,,,,,,,,,,,,,,,,,,,,,,,,,,,,,,,,,,,,,,,,,,,,,,,,,,,,,,,,,,,,,,,107.43083760805027,121.19079919781643,150.05853628112715,163.7165283430761,165.043045629318,165.043045629318,2.1,2.11,-238,290,0,263,260,-250,129.93138790130615,129.93146514892578,129.9346809387207,129.94950532913208,130.08933758735657,130.08933758735657,130.08933758735657,130.08933758735657,130.08933758735657,130.08933758735657,130.08933758735657,132.49105548858643,3,2.5271520614624023,None,,,,,,,,,,,,,,,,,,151,1,2025-02-28_09h51.40.650,comp,2024.2.4,54.55174952234912,2025-02-28 09h53.02.065319 -0500,
17,17,0,critical,dwh,35.0,2.1,upper,127.0,127.0,125.0,200.0,200.0,125.0,2,2.873447895050049,None,,,,,0,0,0,0,0,17,17,5,132.50726222991943,,,,,,,,,,,,,,,,,,,,,,,,,,,,,,,,,,,,,,,,,,,,,,,,,,,,,,,,,,,,,,,,,,,,,,,,,,,,,,,,,127.0,127.0,125.0,200.0,200.0,125.0,2.1,2.12,-260,-268,0,-273,258,258,132.49270462989807,132.49286031723022,132.4969379901886,132.50726222991943,132.6528639793396,132.6528639793396,132.6528639793396,132.6528639793396,132.6528639793396,132.6528639793396,132.6528639793396,135.39356470108032,2,2.873447895050049,None,,,,,,,,,,,,,,,,,,151,1,2025-02-28_09h51.40.650,comp,2024.2.4,54.55174952234912,2025-02-28 09h53.02.065319 -0500,
18,18,0,critical,dhw,35.0,4.0,upper,127.0,127.0,200.0,125.0,125.0,200.0,3,3.8239009380340576,None,,,,,0,0,0,0,0,18,18,53,135.4133312702179,,,,,,,,,,,,,,,,,,,,,,,,,,,,,,,,,,,,,,,,,,,,,,,,,,,,,,,,,,,,,,,,,,,,,,,,,,,,,,,,,127.0,127.0,200.0,125.0,125.0,200.0,4.0,4.1,-222,-274,0,-7,258,-263,135.3954029083252,135.39548015594482,135.39843797683716,135.4133312702179,135.55800604820251,135.55800604820251,135.55800604820251,135.55800604820251,135.55800604820251,135.55800604820251,135.55800604820251,139.2462260723114,3,3.8239009380340576,None,,,,,,,,,,,,,,,,,,151,1,2025-02-28_09h51.40.650,comp,2024.2.4,54.55174952234912,2025-02-28 09h53.02.065319 -0500,
19,19,0,critical,whd,35.0,3.0,upper,125.0,200.0,200.0,125.0,127.0,127.0,1,4.3790833950042725,None,,,,,0,0,0,0,0,19,19,87,139.2660264968872,,,,,,,,,,,,,,,,,,,,,,,,,,,,,,,,,,,,,,,,,,,,,,,,,,,,,,,,,,,,,,,,,,,,,,,,,,,,,,,,,125.0,200.0,200.0,125.0,127.0,127.0,3.0,3.2,-258,-262,0,13,222,278,139.2478334903717,139.2479112148285,139.25083446502686,139.2660264968872,139.40913319587708,139.40913319587708,139.40913319587708,139.40913319587708,139.40913319587708,139.40913319587708,139.40913319587708,143.6505584716797,1,4.3790833950042725,None,,,,,,,,,,,,,,,,,,151,1,2025-02-28_09h51.40.650,comp,2024.2.4,54.55174952234912,2025-02-28 09h53.02.065319 -0500,
20,20,0,critical,wdh,20.0,2.1,lower,57.0,133.0,78.0,78.0,133.0,57.0,1,5.58246111869812,None,,,,,0,0,0,0,0,20,20,34,143.67015767097473,,,,,,,,,,,,,,,,,,,,,,,,,,,,,,,,,,,,,,,,,,,,,,,,,,,,,,,,,,,,,,,,,,,,,,,,,,,,,,,,,57.0,133.0,78.0,78.0,133.0,57.0,2.1,2.11,-202,282,0,259,164,-277,143.65210151672363,143.6521782875061,143.65506410598755,143.67015767097473,143.81101036071777,143.81101036071777,143.81101036071777,143.81101036071777,143.81101036071777,143.81101036071777,143.81101036071777,149.26588201522827,1,5.58246111869812,None,,,,,,,,,,,,,,,,,,151,1,2025-02-28_09h51.40.650,comp,2024.2.4,54.55174952234912,2025-02-28 09h53.02.065319 -0500,
21,21,0,filler_random,None,None,None,None,None,None,None,None,None,None,1,3.791412353515625,None,,,,,0,0,0,0,0,21,21,145,149.28525376319885,,,,,,,,,,,,,,,,,,,,,,,,,,,,,,,,,,,,,,,,,,,,,,,,,,,,,,,,,,,,,,,,,,,,,,,,,,,,,,,,,147.70126525622587,147.4586724376525,118.23272723464883,155.87926159241397,108.1580805005803,105.13574112203996,3.0,3.2,-248,-273,0,-5,227,252,149.26766538619995,149.26776719093323,149.2706422805786,149.28525376319885,149.4286766052246,149.4286766052246,149.4286766052246,149.4286766052246,149.4286766052246,149.4286766052246,149.4286766052246,153.07945775985718,1,3.791412353515625,None,,,,,,,,,,,,,,,,,,151,1,2025-02-28_09h51.40.650,comp,2024.2.4,54.55174952234912,2025-02-28 09h53.02.065319 -0500,
22,22,0,critical,wdh,35.0,1.0,lower,57.0,133.0,70.0,70.0,133.0,57.0,1,5.886353015899658,None,,,,,0,0,0,0,0,22,22,72,153.0950584411621,,,,,,,,,,,,,,,,,,,,,,,,,,,,,,,,,,,,,,,,,,,,,,,,,,,,,,,,,,,,,,,,,,,,,,,,,,,,,,,,,57.0,133.0,70.0,70.0,133.0,57.0,1.0,1.3,282,-273,480,-269,640,-269,153.08102250099182,153.08110213279724,153.0842969417572,153.0950584411621,153.24491453170776,153.24491453170776,153.24491453170776,153.24491453170776,153.24491453170776,153.24491453170776,153.24491453170776,158.98693871498108,1,5.886353015899658,None,,,,,,,,,,,,,,,,,,151,1,2025-02-28_09h51.40.650,comp,2024.2.4,54.55174952234912,2025-02-28 09h53.02.065319 -0500,
23,23,0,filler_random,None,None,None,None,None,None,None,None,None,None,1,1.4505412578582764,None,,,,,0,0,0,0,0,23,23,166,159.00318336486816,,,,,,,,,,,,,,,,,,,,,,,,,,,,,,,,,,,,,,,,,,,,,,,,,,,,,,,,,,,,,,,,,,,,,,,,,,,,,,,,,121.33921730857728,160.87421791223898,143.803974000534,63.25065438505193,66.80820150127529,97.20776685613669,2.1,2.11,-208,266,0,251,176,-276,158.98855566978455,158.98863458633423,158.99151730537415,159.00318336486816,159.14887189865112,159.14887189865112,159.14887189865112,159.14887189865112,159.14887189865112,159.14887189865112,159.14887189865112,160.46523523330688,1,1.4505412578582764,None,,,,,,,,,,,,,,,,,,151,1,2025-02-28_09h51.40.650,comp,2024.2.4,54.55174952234912,2025-02-28 09h53.02.065319 -0500,
24,24,0,critical,whd,20.0,4.0,upper,125.0,200.0,200.0,125.0,141.0,141.0,1,4.163236618041992,None,,,,,0,0,0,0,0,24,24,95,160.48157835006714,,,,,,,,,,,,,,,,,,,,,,,,,,,,,,,,,,,,,,,,,,,,,,,,,,,,,,,,,,,,,,,,,,,,,,,,,,,,,,,,,125.0,200.0,200.0,125.0,141.0,141.0,4.0,4.1,-258,-267,0,10,229,-267,160.4666817188263,160.46679425239563,160.46993947029114,160.48157835006714,160.63161277770996,160.63161277770996,160.63161277770996,160.63161277770996,160.63161277770996,160.63161277770996,160.63161277770996,164.65389943122864,1,4.163236618041992,None,,,,,,,,,,,,,,,,,,151,1,2025-02-28_09h51.40.650,comp,2024.2.4,54.55174952234912,2025-02-28 09h53.02.065319 -0500,
25,25,0,critical,dhw,35.0,2.1,upper,127.0,127.0,200.0,125.0,125.0,200.0,3,4.007251501083374,None,,,,,0,0,0,0,0,25,25,1,164.67018795013428,,,,,,,,,,,,,,,,,,,,,,,,,,,,,,,,,,,,,,,,,,,,,,,,,,,,,,,,,,,,,,,,,,,,,,,,,,,,,,,,,127.0,127.0,200.0,125.0,125.0,200.0,2.1,2.11,-222,267,0,284,258,-276,164.65550422668457,164.65558433532715,164.65852618217468,164.67018795013428,164.81702375411987,164.81702375411987,164.81702375411987,164.81702375411987,164.81702375411987,164.81702375411987,164.81702375411987,168.6832981109619,3,4.007251501083374,None,,,,,,,,,,,,,,,,,,151,1,2025-02-28_09h51.40.650,comp,2024.2.4,54.55174952234912,2025-02-28 09h53.02.065319 -0500,
26,26,0,filler_square,None,None,None,None,None,None,None,None,None,None,2,2.297043561935425,None,,,,,0,0,0,0,0,26,26,188,168.70047903060913,,,,,,,,,,,,,,,,,,,,,,,,,,,,,,,,,,,,,,,,,,,,,,,,,,,,,,,,,,,,,,,,,,,,,,,,,,,,,,,,,87.35553998822806,70.091010560669,110.84941808365556,110.84941808365556,76.24545543143836,91.9639713199063,3.0,3.2,-186,-260,0,-18,197,250,168.68537306785583,168.68545174598694,168.68864130973816,168.70047903060913,168.8402590751648,168.8402590751648,168.8402590751648,168.8402590751648,168.8402590751648,168.8402590751648,168.8402590751648,171.00315308570862,2,2.297043561935425,None,,,,,,,,,,,,,,,,,,151,1,2025-02-28_09h51.40.650,comp,2024.2.4,54.55174952234912,2025-02-28 09h53.02.065319 -0500,
27,27,0,filler_square,None,None,None,None,None,None,None,None,None,None,3,4.256819725036621,None,,,,,0,0,0,0,0,27,27,195,171.02013230323792,,,,,,,,,,,,,,,,,,,,,,,,,,,,,,,,,,,,,,,,,,,,,,,,,,,,,,,,,,,,,,,,,,,,,,,,,,,,,,,,,82.8141815962756,76.36178803422305,80.79251026428196,71.62558804858375,89.2211058827006,89.2211058827006,2.1,2.12,-170,-265,0,-270,176,288,171.00526213645935,171.00536608695984,171.00928401947021,171.02013230323792,171.16873288154602,171.16873288154602,171.16873288154602,171.16873288154602,171.16873288154602,171.16873288154602,171.16873288154602,175.28642630577087,3,4.256819725036621,None,,,,,,,,,,,,,,,,,,151,1,2025-02-28_09h51.40.650,comp,2024.2.4,54.55174952234912,2025-02-28 09h53.02.065319 -0500,
28,28,0,catch,None,None,None,None,None,None,None,None,None,None,3,1.9816648960113525,None,,,,,0,0,0,0,0,28,28,124,175.3034908771515,,,,,,,,,,,,,,,,,,,,,,,,,,,,,,,,,,,,,,,,,,,,,,,,,,,,,,,,,,,,,,,,,,,,,,,,,,,,,,,,,73,117,91,99,139,186,1.0,1.1,-684,269,-480,289,-242,251,175.28839993476868,175.2884817123413,175.29188776016235,175.3034908771515,175.45320177078247,175.45320177078247,175.45320177078247,175.45320177078247,175.45320177078247,175.45320177078247,175.45320177078247,177.29154658317566,3,1.9816648960113525,None,,,,,,,,,,,,,,,,,,151,1,2025-02-28_09h51.40.650,comp,2024.2.4,54.55174952234912,2025-02-28 09h53.02.065319 -0500,
29,29,0,filler_square,None,None,None,None,None,None,None,None,None,None,2,3.5988588333129883,None,,,,,0,0,0,0,0,29,29,176,177.3099009990692,,,,,,,,,,,,,,,,,,,,,,,,,,,,,,,,,,,,,,,,,,,,,,,,,,,,,,,,,,,,,,,,,,,,,,,,,,,,,,,,,80.44562300587307,84.30082742327515,86.88928311076809,86.88928311076809,69.3348350785598,80.98111544813538,3.0,3.1,-182,274,0,-8,180,-276,177.29351997375488,177.29361200332642,177.29691004753113,177.3099009990692,177.4554054737091,177.4554054737091,177.4554054737091,177.4554054737091,177.4554054737091,177.4554054737091,177.4554054737091,180.92114877700806,2,3.5988588333129883,None,,,,,,,,,,,,,,,,,,151,1,2025-02-28_09h51.40.650,comp,2024.2.4,54.55174952234912,2025-02-28 09h53.02.065319 -0500,
30,30,0,critical,hwd,20.0,1.0,upper,200.0,125.0,125.0,200.0,141.0,141.0,2,7.75534725189209,None,,,,,0,0,0,0,0,30,30,103,180.93741941452026,,,,,,,,,,,,,,,,,,,,,,,,,,,,,,,,,,,,,,,,,,,,,,,,,,,,,,,,,,,,,,,,,,,,,,,,,,,,,,,,,200.0,125.0,125.0,200.0,141.0,141.0,1.0,1.2,-258,17,0,12,266,-13,180.9228162765503,180.92289304733276,180.92619252204895,180.93741941452026,181.07768511772156,181.07768511772156,181.07768511772156,181.07768511772156,181.07768511772156,181.07768511772156,181.07768511772156,188.7076563835144,2,7.75534725189209,None,,,,,,,,,,,,,,,,,,151,1,2025-02-28_09h51.40.650,comp,2024.2.4,54.55174952234912,2025-02-28 09h53.02.065319 -0500,
31,31,0,filler_random,None,None,None,None,None,None,None,None,None,None,2,1.736558198928833,None,,,,,0,0,0,0,0,31,31,168,188.72451543807983,,,,,,,,,,,,,,,,,,,,,,,,,,,,,,,,,,,,,,,,,,,,,,,,,,,,,,,,,,,,,,,,,,,,,,,,,,,,,,,,,85.91865352569869,127.59390533470886,110.81059338461945,156.68567323222683,113.12726007514607,86.42452731139792,1.0,1.2,-238,2,0,-13,218,17,188.70939230918884,188.70946836471558,188.71356296539307,188.72451543807983,188.87544322013855,188.87544322013855,188.87544322013855,188.87544322013855,188.87544322013855,188.87544322013855,188.87544322013855,190.47466492652893,2,1.736558198928833,None,,,,,,,,,,,,,,,,,,151,1,2025-02-28_09h51.40.650,comp,2024.2.4,54.55174952234912,2025-02-28 09h53.02.065319 -0500,
32,32,0,critical,dwh,35.0,3.0,lower,70.0,70.0,57.0,133.0,133.0,57.0,2,7.659900903701782,None,,,,,0,0,0,0,0,32,32,62,190.49052548408508,,,,,,,,,,,,,,,,,,,,,,,,,,,,,,,,,,,,,,,,,,,,,,,,,,,,,,,,,,,,,,,,,,,,,,,,,,,,,,,,,70.0,70.0,57.0,133.0,133.0,57.0,3.0,3.2,-198,-256,0,9,191,259,190.47623252868652,190.47630858421326,190.4795789718628,190.49052548408508,190.6482379436493,190.6482379436493,190.6482379436493,190.6482379436493,190.6482379436493,190.6482379436493,190.6482379436493,198.1610996723175,2,7.659900903701782,None,,,,,,,,,,,,,,,,,,151,1,2025-02-28_09h51.40.650,comp,2024.2.4,54.55174952234912,2025-02-28 09h53.02.065319 -0500,
33,33,0,filler_square,None,None,None,None,None,None,None,None,None,None,3,2.811699628829956,None,,,,,0,0,0,0,0,33,33,172,198.17770910263062,,,,,,,,,,,,,,,,,,,,,,,,,,,,,,,,,,,,,,,,,,,,,,,,,,,,,,,,,,,,,,,,,,,,,,,,,,,,,,,,,107.11365528883067,116.38002622688876,125.74180254646406,164.2596292473915,168.14660541947723,168.14660541947723,1.0,1.2,-236,-17,0,-4,262,16,198.16316723823547,198.16324615478516,198.16676664352417,198.17770910263062,198.32540464401245,198.32540464401245,198.32540464401245,198.32540464401245,198.32540464401245,198.32540464401245,198.32540464401245,200.9950499534607,3,2.811699628829956,None,,,,,,,,,,,,,,,,,,151,1,2025-02-28_09h51.40.650,comp,2024.2.4,54.55174952234912,2025-02-28 09h53.02.065319 -0500,
34,34,0,critical,hdw,35.0,2.1,upper,200.0,125.0,127.0,127.0,125.0,200.0,3,4.353495836257935,None,,,,,0,0,0,0,0,34,34,45,201.01150798797607,,,,,,,,,,,,,,,,,,,,,,,,,,,,,,,,,,,,,,,,,,,,,,,,,,,,,,,,,,,,,,,,,,,,,,,,,,,,,,,,,200.0,125.0,127.0,127.0,125.0,200.0,2.1,2.11,-222,273,0,260,260,-261,200.99656558036804,200.9966425895691,200.99983763694763,201.01150798797607,201.16425776481628,201.16425776481628,201.16425776481628,201.16425776481628,201.16425776481628,201.16425776481628,201.16425776481628,205.38552498817444,3,4.353495836257935,None,,,,,,,,,,,,,,,,,,151,1,2025-02-28_09h51.40.650,comp,2024.2.4,54.55174952234912,2025-02-28 09h53.02.065319 -0500,
35,35,0,critical,dhw,35.0,2.1,lower,70.0,70.0,133.0,57.0,57.0,133.0,2,6.548573732376099,None,,,,,0,0,0,0,0,35,35,24,205.4003553390503,,,,,,,,,,,,,,,,,,,,,,,,,,,,,,,,,,,,,,,,,,,,,,,,,,,,,,,,,,,,,,,,,,,,,,,,,,,,,,,,,70.0,70.0,133.0,57.0,57.0,133.0,2.1,2.12,-160,-263,0,-289,191,273,205.38705825805664,205.38713431358337,205.3900649547577,205.4003553390503,205.54597878456116,205.54597878456116,205.54597878456116,205.54597878456116,205.54597878456116,205.54597878456116,205.54597878456116,211.9689302444458,2,6.548573732376099,None,,,,,,,,,,,,,,,,,,151,1,2025-02-28_09h51.40.650,comp,2024.2.4,54.55174952234912,2025-02-28 09h53.02.065319 -0500,
36,36,0,critical,dhw,35.0,2.1,lower,70.0,70.0,133.0,57.0,57.0,133.0,3,11.37270212173462,None,,,,,0,0,0,0,0,36,36,0,211.98414182662964,,,,,,,,,,,,,,,,,,,,,,,,,,,,,,,,,,,,,,,,,,,,,,,,,,,,,,,,,,,,,,,,,,,,,,,,,,,,,,,,,70.0,70.0,133.0,57.0,57.0,133.0,2.1,2.12,-160,-271,0,-251,191,274,211.97054147720337,211.9706211090088,211.9738826751709,211.98414182662964,212.13225603103638,212.13225603103638,212.13225603103638,212.13225603103638,212.13225603103638,212.13225603103638,212.13225603103638,223.35999512672424,3,11.37270212173462,None,,,,,,,,,,,,,,,,,,151,1,2025-02-28_09h51.40.650,comp,2024.2.4,54.55174952234912,2025-02-28 09h53.02.065319 -0500,
37,37,0,critical,wdh,20.0,1.0,lower,57.0,133.0,78.0,78.0,133.0,57.0,3,9.136800050735474,None,,,,,0,0,0,0,0,37,37,78,223.3808159828186,,,,,,,,,,,,,,,,,,,,,,,,,,,,,,,,,,,,,,,,,,,,,,,,,,,,,,,,,,,,,,,,,,,,,,,,,,,,,,,,,57.0,133.0,78.0,78.0,133.0,57.0,1.0,1.2,-202,19,0,-7,164,0,223.36156392097473,223.3616418838501,223.36500000953674,223.3808159828186,223.51862573623657,223.51862573623657,223.51862573623657,223.51862573623657,223.51862573623657,223.51862573623657,223.51862573623657,232.5213520526886,3,9.136800050735474,None,,,,,,,,,,,,,,,,,,151,1,2025-02-28_09h51.40.650,comp,2024.2.4,54.55174952234912,2025-02-28 09h53.02.065319 -0500,
38,38,0,filler_square,None,None,None,None,None,None,None,None,None,None,2,2.7142224311828613,None,,,,,0,0,0,0,0,38,38,204,232.5390820503235,,,,,,,,,,,,,,,,,,,,,,,,,,,,,,,,,,,,,,,,,,,,,,,,,,,,,,,,,,,,,,,,,,,,,,,,,,,,,,,,,60.570243047356485,79.44771581764849,88.0434147985917,88.0434147985917,67.89271655578553,79.54317859317197,2.2,2.22,-180,260,0,-283,180,-283,232.5232195854187,232.5232994556427,232.52744722366333,232.5390820503235,232.6938121318817,232.6938121318817,232.6938121318817,232.6938121318817,232.6938121318817,232.6938121318817,232.6938121318817,235.2591438293457,2,2.7142224311828613,None,,,,,,,,,,,,,,,,,,151,1,2025-02-28_09h51.40.650,comp,2024.2.4,54.55174952234912,2025-02-28 09h53.02.065319 -0500,
39,39,0,catch,None,None,None,None,None,None,None,None,None,None,3,1.5416345596313477,None,,,,,0,0,0,0,0,39,39,123,235.27979564666748,,,,,,,,,,,,,,,,,,,,,,,,,,,,,,,,,,,,,,,,,,,,,,,,,,,,,,,,,,,,,,,,,,,,,,,,,,,,,,,,,120,70,118,72,192,133,1.0,1.1,-647,268,-480,262,-282,271,235.26118779182434,235.26126956939697,235.26415824890137,235.27979564666748,235.4219012260437,235.4219012260437,235.4219012260437,235.4219012260437,235.4219012260437,235.4219012260437,235.4219012260437,236.8299000263214,3,1.5416345596313477,None,,,,,,,,,,,,,,,,,,151,1,2025-02-28_09h51.40.650,comp,2024.2.4,54.55174952234912,2025-02-28 09h53.02.065319 -0500,
40,40,0,filler_square,None,None,None,None,None,None,None,None,None,None,2,2.807865858078003,None,,,,,0,0,0,0,0,40,40,196,236.84550428390503,,,,,,,,,,,,,,,,,,,,,,,,,,,,,,,,,,,,,,,,,,,,,,,,,,,,,,,,,,,,,,,,,,,,,,,,,,,,,,,,,62.689587859798344,76.22429948948412,113.77252439468934,113.77252439468934,80.96872892244438,63.31932304755257,2.2,2.21,-191,-268,0,267,185,255,236.83168411254883,236.83180379867554,236.83464813232422,236.84550428390503,236.9948980808258,236.9948980808258,236.9948980808258,236.9948980808258,236.9948980808258,236.9948980808258,236.9948980808258,239.65586829185486,2,2.807865858078003,None,,,,,,,,,,,,,,,,,,151,1,2025-02-28_09h51.40.650,comp,2024.2.4,54.55174952234912,2025-02-28 09h53.02.065319 -0500,
41,41,0,critical,whd,20.0,2.1,lower,57.0,133.0,133.0,57.0,78.0,78.0,1,3.824782371520996,None,,,,,0,0,0,0,0,41,41,14,239.67685627937317,,,,,,,,,,,,,,,,,,,,,,,,,,,,,,,,,,,,,,,,,,,,,,,,,,,,,,,,,,,,,,,,,,,,,,,,,,,,,,,,,57.0,133.0,133.0,57.0,78.0,78.0,2.1,2.11,-191,255,0,286,164,-252,239.6575939655304,239.65767312049866,239.6612012386322,239.67685627937317,239.82176327705383,239.82176327705383,239.82176327705383,239.82176327705383,239.82176327705383,239.82176327705383,239.82176327705383,243.50843143463135,1,3.824782371520996,None,,,,,,,,,,,,,,,,,,151,1,2025-02-28_09h51.40.650,comp,2024.2.4,54.55174952234912,2025-02-28 09h53.02.065319 -0500,
42,42,0,filler_random,None,None,None,None,None,None,None,None,None,None,3,2.512767791748047,None,,,,,0,0,0,0,0,42,42,149,243.5251920223236,,,,,,,,,,,,,,,,,,,,,,,,,,,,,,,,,,,,,,,,,,,,,,,,,,,,,,,,,,,,,,,,,,,,,,,,,,,,,,,,,182.04140912392256,87.4152800284127,112.55433324116945,75.40375462127494,164.60849234154884,105.03679620681207,4.0,4.1,-177,-254,0,-8,186,-258,243.51023530960083,243.51035165786743,243.51424837112427,243.5251920223236,243.67543053627014,243.67543053627014,243.67543053627014,243.67543053627014,243.67543053627014,243.67543053627014,243.67543053627014,246.04347133636475,3,2.512767791748047,None,,,,,,,,,,,,,,,,,,151,1,2025-02-28_09h51.40.650,comp,2024.2.4,54.55174952234912,2025-02-28 09h53.02.065319 -0500,
43,43,0,critical,wdh,35.0,1.0,upper,125.0,200.0,127.0,127.0,200.0,125.0,3,3.8730878829956055,None,,,,,0,0,0,0,0,43,43,73,246.05994749069214,,,,,,,,,,,,,,,,,,,,,,,,,,,,,,,,,,,,,,,,,,,,,,,,,,,,,,,,,,,,,,,,,,,,,,,,,,,,,,,,,125.0,200.0,127.0,127.0,200.0,125.0,1.0,1.3,220,-255,480,-258,702,-273,246.04499626159668,246.04507303237915,246.0491750240326,246.05994749069214,246.21528124809265,246.21528124809265,246.21528124809265,246.21528124809265,246.21528124809265,246.21528124809265,246.21528124809265,249.9427306652069,3,3.8730878829956055,None,,,,,,,,,,,,,,,,,,151,1,2025-02-28_09h51.40.650,comp,2024.2.4,54.55174952234912,2025-02-28 09h53.02.065319 -0500,
44,44,0,critical,wdh,20.0,2.1,upper,125.0,200.0,141.0,141.0,200.0,125.0,1,5.214054107666016,None,,,,,0,0,0,0,0,44,44,35,249.9593906402588,,,,,,,,,,,,,,,,,,,,,,,,,,,,,,,,,,,,,,,,,,,,,,,,,,,,,,,,,,,,,,,,,,,,,,,,,,,,,,,,,125.0,200.0,141.0,141.0,200.0,125.0,2.1,2.12,-266,-280,0,-273,229,255,249.9442481994629,249.94432592391968,249.9474811553955,249.9593906402588,250.11806321144104,250.11806321144104,250.11806321144104,250.11806321144104,250.11806321144104,250.11806321144104,250.11806321144104,255.17727494239807,1,5.214054107666016,None,,,,,,,,,,,,,,,,,,151,1,2025-02-28_09h51.40.650,comp,2024.2.4,54.55174952234912,2025-02-28 09h53.02.065319 -0500,
45,45,0,critical,whd,20.0,1.0,upper,125.0,200.0,200.0,125.0,141.0,141.0,1,6.4591898918151855,None,,,,,0,0,0,0,0,45,45,91,255.193834066391,,,,,,,,,,,,,,,,,,,,,,,,,,,,,,,,,,,,,,,,,,,,,,,,,,,,,,,,,,,,,,,,,,,,,,,,,,,,,,,,,125.0,200.0,200.0,125.0,141.0,141.0,1.0,1.3,222,-285,480,-274,709,-254,255.17880749702454,255.17888593673706,255.18206906318665,255.193834066391,255.34896612167358,255.34896612167358,255.34896612167358,255.34896612167358,255.34896612167358,255.34896612167358,255.34896612167358,261.6643147468567,1,6.4591898918151855,None,,,,,,,,,,,,,,,,,,151,1,2025-02-28_09h51.40.650,comp,2024.2.4,54.55174952234912,2025-02-28 09h53.02.065319 -0500,
46,46,0,filler_square,None,None,None,None,None,None,None,None,None,None,3,2.6560919284820557,None,,,,,0,0,0,0,0,46,46,186,261.6849892139435,,,,,,,,,,,,,,,,,,,,,,,,,,,,,,,,,,,,,,,,,,,,,,,,,,,,,,,,,,,,,,,,,,,,,,,,,,,,,,,,,90.05368108616366,133.9753991021131,64.62878546789702,127.98314617757899,169.24557133723508,169.24557133723508,4.0,4.2,-227,-13,0,-255,245,18,261.66631531715393,261.6664366722107,261.66970896720886,261.6849892139435,261.8304123878479,261.8304123878479,261.8304123878479,261.8304123878479,261.8304123878479,261.8304123878479,261.8304123878479,264.3567326068878,3,2.6560919284820557,None,,,,,,,,,,,,,,,,,,151,1,2025-02-28_09h51.40.650,comp,2024.2.4,54.55174952234912,2025-02-28 09h53.02.065319 -0500,
47,47,0,filler_random,None,None,None,None,None,None,None,None,None,None,3,2.201902151107788,None,,,,,0,0,0,0,0,47,47,136,264.37182211875916,,,,,,,,,,,,,,,,,,,,,,,,,,,,,,,,,,,,,,,,,,,,,,,,,,,,,,,,,,,,,,,,,,,,,,,,,,,,,,,,,144.66825731823894,60.24806088873129,169.21292087499805,64.05752472450504,109.79532384240508,132.03029228166938,3.0,3.1,-158,268,0,-8,194,-255,264.3584213256836,264.3584966659546,264.3614032268524,264.37182211875916,264.5144808292389,264.5144808292389,264.5144808292389,264.5144808292389,264.5144808292389,264.5144808292389,264.5144808292389,266.58390951156616,3,2.201902151107788,None,,,,,,,,,,,,,,,,,,151,1,2025-02-28_09h51.40.650,comp,2024.2.4,54.55174952234912,2025-02-28 09h53.02.065319 -0500,
48,48,0,critical,hwd,35.0,4.0,lower,133.0,57.0,57.0,133.0,70.0,70.0,2,9.763770818710327,None,,,,,0,0,0,0,0,48,48,100,266.60211992263794,,,,,,,,,,,,,,,,,,,,,,,,,,,,,,,,,,,,,,,,,,,,,,,,,,,,,,,,,,,,,,,,,,,,,,,,,,,,,,,,,133.0,57.0,57.0,133.0,70.0,70.0,4.0,4.2,-191,11,0,-290,198,-14,266.58554434776306,266.58562326431274,266.58860993385315,266.60211992263794,266.74783062934875,266.74783062934875,266.74783062934875,266.74783062934875,266.74783062934875,266.74783062934875,266.74783062934875,276.3746657371521,2,9.763770818710327,None,,,,,,,,,,,,,,,,,,151,1,2025-02-28_09h51.40.650,comp,2024.2.4,54.55174952234912,2025-02-28 09h53.02.065319 -0500,
49,49,0,critical,wdh,35.0,4.0,lower,57.0,133.0,70.0,70.0,133.0,57.0,1,2.8366382122039795,None,,,,,0,0,0,0,0,49,49,76,276.3928792476654,,,,,,,,,,,,,,,,,,,,,,,,,,,,,,,,,,,,,,,,,,,,,,,,,,,,,,,,,,,,,,,,,,,,,,,,,,,,,,,,,57.0,133.0,70.0,70.0,133.0,57.0,4.0,4.1,-198,-262,0,1,160,-253,276.37617230415344,276.3762788772583,276.37915778160095,276.3928792476654,276.5336582660675,276.5336582660675,276.5336582660675,276.5336582660675,276.5336582660675,276.5336582660675,276.5336582660675,279.2373721599579,1,2.8366382122039795,None,,,,,,,,,,,,,,,,,,151,1,2025-02-28_09h51.40.650,comp,2024.2.4,54.55174952234912,2025-02-28 09h53.02.065319 -0500,
50,50,0,filler_random,None,None,None,None,None,None,None,None,None,None,1,5.181471824645996,None,,,,,0,0,0,0,0,50,50,154,279.2557702064514,,,,,,,,,,,,,,,,,,,,,,,,,,,,,,,,,,,,,,,,,,,,,,,,,,,,,,,,,,,,,,,,,,,,,,,,,,,,,,,,,146.06254458058038,140.28306734814726,87.98345210873143,147.20965501321663,197.7504621453394,99.33860242049835,1.0,1.1,-720,281,-480,282,-261,288,279.23930954933167,279.2393870353699,279.2426087856293,279.2557702064514,279.40125584602356,279.40125584602356,279.40125584602356,279.40125584602356,279.40125584602356,279.40125584602356,279.40125584602356,284.4424829483032,1,5.181471824645996,None,,,,,,,,,,,,,,,,,,151,1,2025-02-28_09h51.40.650,comp,2024.2.4,54.55174952234912,2025-02-28 09h53.02.065319 -0500,
51,51,0,critical,dwh,35.0,1.0,lower,70.0,70.0,57.0,133.0,133.0,57.0,2,3.2578184604644775,None,,,,,0,0,0,0,0,51,51,60,284.45991683006287,,,,,,,,,,,,,,,,,,,,,,,,,,,,,,,,,,,,,,,,,,,,,,,,,,,,,,,,,,,,,,,,,,,,,,,,,,,,,,,,,70.0,70.0,57.0,133.0,133.0,57.0,1.0,1.1,-678,250,-480,265,-289,256,284.44398641586304,284.4440634250641,284.44701051712036,284.45991683006287,284.6023061275482,284.6023061275482,284.6023061275482,284.6023061275482,284.6023061275482,284.6023061275482,284.6023061275482,287.72109937667847,2,3.2578184604644775,None,,,,,,,,,,,,,,,,,,151,1,2025-02-28_09h51.40.650,comp,2024.2.4,54.55174952234912,2025-02-28 09h53.02.065319 -0500,
52,52,0,critical,hdw,35.0,2.1,lower,133.0,57.0,70.0,70.0,57.0,133.0,3,3.6763083934783936,None,,,,,0,0,0,0,0,52,52,20,287.7374355792999,,,,,,,,,,,,,,,,,,,,,,,,,,,,,,,,,,,,,,,,,,,,,,,,,,,,,,,,,,,,,,,,,,,,,,,,,,,,,,,,,133.0,57.0,70.0,70.0,57.0,133.0,2.1,2.11,-160,265,0,264,198,-263,287.7226014137268,287.7226791381836,287.72577929496765,287.7374355792999,287.88816928863525,287.88816928863525,287.88816928863525,287.88816928863525,287.88816928863525,287.88816928863525,287.88816928863525,291.4224066734314,3,3.6763083934783936,None,,,,,,,,,,,,,,,,,,151,1,2025-02-28_09h51.40.650,comp,2024.2.4,54.55174952234912,2025-02-28 09h53.02.065319 -0500,
53,53,0,critical,hdw,20.0,4.0,lower,133.0,57.0,78.0,78.0,57.0,133.0,3,4.347757577896118,None,,,,,0,0,0,0,0,53,53,118,291.44132232666016,,,,,,,,,,,,,,,,,,,,,,,,,,,,,,,,,,,,,,,,,,,,,,,,,,,,,,,,,,,,,,,,,,,,,,,,,,,,,,,,,133.0,57.0,78.0,78.0,57.0,133.0,4.0,4.1,-164,-281,0,-18,202,-252,291.42394638061523,291.42402482032776,291.427109003067,291.44132232666016,291.5891604423523,291.5891604423523,291.5891604423523,291.5891604423523,291.5891604423523,291.5891604423523,291.5891604423523,295.79130005836487,3,4.347757577896118,None,,,,,,,,,,,,,,,,,,151,1,2025-02-28_09h51.40.650,comp,2024.2.4,54.55174952234912,2025-02-28 09h53.02.065319 -0500,
54,54,0,critical,hwd,20.0,1.0,lower,133.0,57.0,57.0,133.0,78.0,78.0,2,2.7585291862487793,None,,,,,0,0,0,0,0,54,54,102,295.8073379993439,,,,,,,,,,,,,,,,,,,,,,,,,,,,,,,,,,,,,,,,,,,,,,,,,,,,,,,,,,,,,,,,,,,,,,,,,,,,,,,,,133.0,57.0,57.0,133.0,78.0,78.0,1.0,1.2,-191,9,0,-12,202,3,295.79283905029297,295.7929184436798,295.79610109329224,295.8073379993439,295.95743107795715,295.95743107795715,295.95743107795715,295.95743107795715,295.95743107795715,295.95743107795715,295.95743107795715,298.5777087211609,2,2.7585291862487793,None,,,,,,,,,,,,,,,,,,151,1,2025-02-28_09h51.40.650,comp,2024.2.4,54.55174952234912,2025-02-28 09h53.02.065319 -0500,
55,55,0,critical,dhw,20.0,4.0,upper,141.0,141.0,200.0,125.0,125.0,200.0,3,3.3611955642700195,None,,,,,0,0,0,0,0,55,55,59,298.5961482524872,,,,,,,,,,,,,,,,,,,,,,,,,,,,,,,,,,,,,,,,,,,,,,,,,,,,,,,,,,,,,,,,,,,,,,,,,,,,,,,,,141.0,141.0,200.0,125.0,125.0,200.0,4.0,4.2,-229,-18,0,-285,258,-17,298.5793695449829,298.5794508457184,298.5825674533844,298.5961482524872,298.743008852005,298.743008852005,298.743008852005,298.743008852005,298.743008852005,298.743008852005,298.743008852005,301.96179962158203,3,3.3611955642700195,None,,,,,,,,,,,,,,,,,,151,1,2025-02-28_09h51.40.650,comp,2024.2.4,54.55174952234912,2025-02-28 09h53.02.065319 -0500,
56,56,0,critical,dwh,20.0,4.0,upper,141.0,141.0,125.0,200.0,200.0,125.0,2,3.2265636920928955,None,,,,,0,0,0,0,0,56,56,71,301.978524684906,,,,,,,,,,,,,,,,,,,,,,,,,,,,,,,,,,,,,,,,,,,,,,,,,,,,,,,,,,,,,,,,,,,,,,,,,,,,,,,,,141.0,141.0,125.0,200.0,200.0,125.0,4.0,4.2,-266,-15,0,-261,258,0,301.9634037017822,301.96350502967834,301.9668231010437,301.978524684906,302.125860452652,302.125860452652,302.125860452652,302.125860452652,302.125860452652,302.125860452652,302.125860452652,305.21967339515686,2,3.2265636920928955,None,,,,,,,,,,,,,,,,,,151,1,2025-02-28_09h51.40.650,comp,2024.2.4,54.55174952234912,2025-02-28 09h53.02.065319 -0500,
57,57,0,filler_random,None,None,None,None,None,None,None,None,None,None,3,2.6337082386016846,None,,,,,0,0,0,0,0,57,57,155,305.2362723350525,,,,,,,,,,,,,,,,,,,,,,,,,,,,,,,,,,,,,,,,,,,,,,,,,,,,,,,,,,,,,,,,,,,,,,,,,,,,,,,,,79.18523759521918,174.79199873023583,109.5468381910932,156.47805149861614,183.39978674835368,153.60559277281817,4.0,4.2,-262,15,0,-275,251,-7,305.2214322090149,305.2215621471405,305.2249000072479,305.2362723350525,305.3767018318176,305.3767018318176,305.3767018318176,305.3767018318176,305.3767018318176,305.3767018318176,305.3767018318176,307.87951278686523,3,2.6337082386016846,None,,,,,,,,,,,,,,,,,,151,1,2025-02-28_09h51.40.650,comp,2024.2.4,54.55174952234912,2025-02-28 09h53.02.065319 -0500,
58,58,0,filler_random,None,None,None,None,None,None,None,None,None,None,2,2.3078534603118896,None,,,,,0,0,0,0,0,58,58,137,307.8975224494934,,,,,,,,,,,,,,,,,,,,,,,,,,,,,,,,,,,,,,,,,,,,,,,,,,,,,,,,,,,,,,,,,,,,,,,,,,,,,,,,,77.05035639532004,160.11006082318738,181.0443152204562,112.41650759424412,103.3884356683568,73.65973692258099,2.2,2.22,-232,252,0,-282,189,-264,307.8814151287079,307.8814973831177,307.8845753669739,307.8975224494934,308.05351424217224,308.05351424217224,308.05351424217224,308.05351424217224,308.05351424217224,308.05351424217224,308.05351424217224,310.21669030189514,2,2.3078534603118896,None,,,,,,,,,,,,,,,,,,151,1,2025-02-28_09h51.40.650,comp,2024.2.4,54.55174952234912,2025-02-28 09h53.02.065319 -0500,
59,59,0,filler_square,None,None,None,None,None,None,None,None,None,None,1,3.9877705574035645,None,,,,,0,0,0,0,0,59,59,202,310.2333490848541,,,,,,,,,,,,,,,,,,,,,,,,,,,,,,,,,,,,,,,,,,,,,,,,,,,,,,,,,,,,,,,,,,,,,,,,,,,,,,,,,126.15253082207425,126.15253082207425,125.75043296225294,103.64738055188354,68.77904954243104,83.07459794275736,1.0,1.1,-691,273,-480,281,-291,275,310.21882462501526,310.21890211105347,310.2223310470581,310.2333490848541,310.38532280921936,310.38532280921936,310.38532280921936,310.38532280921936,310.38532280921936,310.38532280921936,310.38532280921936,314.2317280769348,1,3.9877705574035645,None,,,,,,,,,,,,,,,,,,151,1,2025-02-28_09h51.40.650,comp,2024.2.4,54.55174952234912,2025-02-28 09h53.02.065319 -0500,
60,60,0,critical,wdh,35.0,2.1,lower,57.0,133.0,70.0,70.0,133.0,57.0,1,6.4851014614105225,None,,,,,0,0,0,0,0,60,60,32,314.2482764720917,,,,,,,,,,,,,,,,,,,,,,,,,,,,,,,,,,,,,,,,,,,,,,,,,,,,,,,,,,,,,,,,,,,,,,,,,,,,,,,,,57.0,133.0,70.0,70.0,133.0,57.0,2.1,2.12,-198,-285,0,-266,160,263,314.2332830429077,314.2333941459656,314.23744797706604,314.2482764720917,314.3844995498657,314.3844995498657,314.3844995498657,314.3844995498657,314.3844995498657,314.3844995498657,314.3844995498657,320.7352788448334,1,6.4851014614105225,None,,,,,,,,,,,,,,,,,,151,1,2025-02-28_09h51.40.650,comp,2024.2.4,54.55174952234912,2025-02-28 09h53.02.065319 -0500,
61,61,0,critical,dwh,20.0,2.1,lower,78.0,78.0,57.0,133.0,133.0,57.0,2,4.078549146652222,None,,,,,0,0,0,0,0,61,61,30,320.75133776664734,,,,,,,,,,,,,,,,,,,,,,,,,,,,,,,,,,,,,,,,,,,,,,,,,,,,,,,,,,,,,,,,,,,,,,,,,,,,,,,,,78.0,78.0,57.0,133.0,133.0,57.0,2.1,2.11,-202,259,0,268,191,-266,320.7367980480194,320.73688197135925,320.7404305934906,320.75133776664734,320.8993158340454,320.8993158340454,320.8993158340454,320.8993158340454,320.8993158340454,320.8993158340454,320.8993158340454,324.8348526954651,2,4.078549146652222,None,,,,,,,,,,,,,,,,,,151,1,2025-02-28_09h51.40.650,comp,2024.2.4,54.55174952234912,2025-02-28 09h53.02.065319 -0500,
62,62,0,filler_random,None,None,None,None,None,None,None,None,None,None,2,2.025597333908081,None,,,,,0,0,0,0,0,62,62,132,324.8515410423279,,,,,,,,,,,,,,,,,,,,,,,,,,,,,,,,,,,,,,,,,,,,,,,,,,,,,,,,,,,,,,,,,,,,,,,,,,,,,,,,,80.34294600814783,149.37311638714152,177.6258648432202,194.31283116839933,118.60691234165145,191.7357288090559,4.0,4.1,-268,-289,0,5,289,-265,324.836537361145,324.83661818504333,324.8407127857208,324.8515410423279,325.0098571777344,325.0098571777344,325.0098571777344,325.0098571777344,325.0098571777344,325.0098571777344,325.0098571777344,326.89350509643555,2,2.025597333908081,None,,,,,,,,,,,,,,,,,,151,1,2025-02-28_09h51.40.650,comp,2024.2.4,54.55174952234912,2025-02-28 09h53.02.065319 -0500,
63,63,0,filler_random,None,None,None,None,None,None,None,None,None,None,1,5.391886234283447,None,,,,,0,0,0,0,0,63,63,164,326.9093267917633,,,,,,,,,,,,,,,,,,,,,,,,,,,,,,,,,,,,,,,,,,,,,,,,,,,,,,,,,,,,,,,,,,,,,,,,,,,,,,,,,189.62382292486703,69.41345977595965,77.74273889774038,117.91059080481605,173.38568868941366,66.27736464676963,4.0,4.2,-190,2,0,-251,188,-6,326.89529848098755,326.89543056488037,326.8986768722534,326.9093267917633,327.0500683784485,327.0500683784485,327.0500683784485,327.0500683784485,327.0500683784485,327.0500683784485,327.0500683784485,332.3033719062805,1,5.391886234283447,None,,,,,,,,,,,,,,,,,,151,1,2025-02-28_09h51.40.650,comp,2024.2.4,54.55174952234912,2025-02-28 09h53.02.065319 -0500,
64,64,0,critical,wdh,35.0,3.0,lower,57.0,133.0,70.0,70.0,133.0,57.0,3,6.1339430809021,None,,,,,0,0,0,0,0,64,64,74,332.31944251060486,,,,,,,,,,,,,,,,,,,,,,,,,,,,,,,,,,,,,,,,,,,,,,,,,,,,,,,,,,,,,,,,,,,,,,,,,,,,,,,,,57.0,133.0,70.0,70.0,133.0,57.0,3.0,3.1,-198,273,0,-12,160,-277,332.30507230758667,332.3051526546478,332.30857706069946,332.31944251060486,332.4675736427307,332.4675736427307,332.4675736427307,332.4675736427307,332.4675736427307,332.4675736427307,332.4675736427307,338.47097063064575,3,6.1339430809021,None,,,,,,,,,,,,,,,,,,151,1,2025-02-28_09h51.40.650,comp,2024.2.4,54.55174952234912,2025-02-28 09h53.02.065319 -0500,
65,65,0,filler_square,None,None,None,None,None,None,None,None,None,None,2,2.4774158000946045,None,,,,,0,0,0,0,0,65,65,175,338.48854517936707,,,,,,,,,,,,,,,,,,,,,,,,,,,,,,,,,,,,,,,,,,,,,,,,,,,,,,,,,,,,,,,,,,,,,,,,,,,,,,,,,87.87165518912461,119.7886028548786,173.59505876885862,173.59505876885862,160.7783654088165,120.36781778589686,4.0,4.2,-243,-9,0,-254,243,3,338.47294998168945,338.4730267524719,338.4763355255127,338.48854517936707,338.6389079093933,338.6389079093933,338.6389079093933,338.6389079093933,338.6389079093933,338.6389079093933,338.6389079093933,340.97233152389526,2,2.4774158000946045,None,,,,,,,,,,,,,,,,,,151,1,2025-02-28_09h51.40.650,comp,2024.2.4,54.55174952234912,2025-02-28 09h53.02.065319 -0500,
66,66,0,critical,hwd,35.0,3.0,upper,200.0,125.0,125.0,200.0,127.0,127.0,2,2.8252382278442383,None,,,,,0,0,0,0,0,66,66,99,340.98801255226135,,,,,,,,,,,,,,,,,,,,,,,,,,,,,,,,,,,,,,,,,,,,,,,,,,,,,,,,,,,,,,,,,,,,,,,,,,,,,,,,,200.0,125.0,125.0,200.0,127.0,127.0,3.0,3.1,-258,285,0,-14,260,-287,340.9738221168518,340.97391748428345,340.9772596359253,340.98801255226135,341.1385295391083,341.1385295391083,341.1385295391083,341.1385295391083,341.1385295391083,341.1385295391083,341.1385295391083,343.8284523487091,2,2.8252382278442383,None,,,,,,,,,,,,,,,,,,151,1,2025-02-28_09h51.40.650,comp,2024.2.4,54.55174952234912,2025-02-28 09h53.02.065319 -0500,
67,67,0,filler_square,None,None,None,None,None,None,None,None,None,None,3,2.3127286434173584,None,,,,,0,0,0,0,0,67,67,198,343.8444404602051,,,,,,,,,,,,,,,,,,,,,,,,,,,,,,,,,,,,,,,,,,,,,,,,,,,,,,,,,,,,,,,,,,,,,,,,,,,,,,,,,96.15258547019445,85.45923004305769,65.1145162283293,96.72390763054432,97.2380779982178,97.2380779982178,4.0,4.1,-187,-271,0,11,193,-261,343.830539226532,343.830619096756,343.8340985774994,343.8444404602051,343.9929790496826,343.9929790496826,343.9929790496826,343.9929790496826,343.9929790496826,343.9929790496826,343.9929790496826,346.17352533340454,3,2.3127286434173584,None,,,,,,,,,,,,,,,,,,151,1,2025-02-28_09h51.40.650,comp,2024.2.4,54.55174952234912,2025-02-28 09h53.02.065319 -0500,
68,68,0,critical,hwd,35.0,2.1,upper,200.0,125.0,125.0,200.0,127.0,127.0,2,4.752579927444458,None,,,,,0,0,0,0,0,68,68,17,346.1888861656189,,,,,,,,,,,,,,,,,,,,,,,,,,,,,,,,,,,,,,,,,,,,,,,,,,,,,,,,,,,,,,,,,,,,,,,,,,,,,,,,,200.0,125.0,125.0,200.0,127.0,127.0,2.1,2.12,-258,-289,0,-262,260,278,346.17503786087036,346.17511320114136,346.17860984802246,346.1888861656189,346.3407738208771,346.3407738208771,346.3407738208771,346.3407738208771,346.3407738208771,346.3407738208771,346.3407738208771,350.94484853744507,2,4.752579927444458,None,,,,,,,,,,,,,,,,,,151,1,2025-02-28_09h51.40.650,comp,2024.2.4,54.55174952234912,2025-02-28 09h53.02.065319 -0500,
69,69,0,filler_random,None,None,None,None,None,None,None,None,None,None,2,1.4442195892333984,None,,,,,0,0,0,0,0,69,69,142,350.9612727165222,,,,,,,,,,,,,,,,,,,,,,,,,,,,,,,,,,,,,,,,,,,,,,,,,,,,,,,,,,,,,,,,,,,,,,,,,,,,,,,,,169.5643269145849,83.83263763741925,177.3526805083413,141.69812451041562,169.24460321079619,64.91724948083176,1.0,1.2,-209,-19,0,2,199,1,350.94712233543396,350.9472804069519,350.9504988193512,350.9612727165222,351.10782289505005,351.10782289505005,351.10782289505005,351.10782289505005,351.10782289505005,351.10782289505005,351.10782289505005,352.4157335758209,2,1.4442195892333984,None,,,,,,,,,,,,,,,,,,151,1,2025-02-28_09h51.40.650,comp,2024.2.4,54.55174952234912,2025-02-28 09h53.02.065319 -0500,
70,70,0,critical,hdw,35.0,3.0,lower,133.0,57.0,70.0,70.0,57.0,133.0,3,3.8064868450164795,None,,,,,0,0,0,0,0,70,70,110,352.43158626556396,,,,,,,,,,,,,,,,,,,,,,,,,,,,,,,,,,,,,,,,,,,,,,,,,,,,,,,,,,,,,,,,,,,,,,,,,,,,,,,,,133.0,57.0,70.0,70.0,57.0,133.0,3.0,3.2,-160,-268,0,17,198,252,352.41726779937744,352.4173467159271,352.42025995254517,352.43158626556396,352.5733301639557,352.5733301639557,352.5733301639557,352.5733301639557,352.5733301639557,352.5733301639557,352.5733301639557,356.2452268600464,3,3.8064868450164795,None,,,,,,,,,,,,,,,,,,151,1,2025-02-28_09h51.40.650,comp,2024.2.4,54.55174952234912,2025-02-28 09h53.02.065319 -0500,
71,71,0,critical,hwd,35.0,1.0,upper,200.0,125.0,125.0,200.0,127.0,127.0,1,5.456828832626343,None,,,,,0,0,0,0,0,71,71,97,356.261812210083,,,,,,,,,,,,,,,,,,,,,,,,,,,,,,,,,,,,,,,,,,,,,,,,,,,,,,,,,,,,,,,,,,,,,,,,,,,,,,,,,200.0,125.0,125.0,200.0,127.0,127.0,1.0,1.3,222,-288,480,-271,740,-260,356.2469198703766,356.2470591068268,356.2509925365448,356.261812210083,356.4104857444763,356.4104857444763,356.4104857444763,356.4104857444763,356.4104857444763,356.4104857444763,356.4104857444763,361.73639726638794,1,5.456828832626343,None,,,,,,,,,,,,,,,,,,151,1,2025-02-28_09h51.40.650,comp,2024.2.4,54.55174952234912,2025-02-28 09h53.02.065319 -0500,
72,72,0,filler_random,None,None,None,None,None,None,None,None,None,None,3,2.086743116378784,None,,,,,0,0,0,0,0,72,72,152,361.75144267082214,,,,,,,,,,,,,,,,,,,,,,,,,,,,,,,,,,,,,,,,,,,,,,,,,,,,,,,,,,,,,,,,,,,,,,,,,,,,,,,,,59.222807283193944,125.97463460911362,120.74835769810127,73.05829641745001,91.42674366822635,150.29101898598094,3.0,3.2,-196,-268,0,16,208,251,361.7381098270416,361.7381854057312,361.74105405807495,361.75144267082214,361.8996880054474,361.8996880054474,361.8996880054474,361.8996880054474,361.8996880054474,361.8996880054474,361.8996880054474,363.84638929367065,3,2.086743116378784,None,,,,,,,,,,,,,,,,,,151,1,2025-02-28_09h51.40.650,comp,2024.2.4,54.55174952234912,2025-02-28 09h53.02.065319 -0500,
73,73,0,critical,wdh,20.0,4.0,upper,125.0,200.0,141.0,141.0,200.0,125.0,1,2.9117465019226074,None,,,,,0,0,0,0,0,73,73,83,363.8625030517578,,,,,,,,,,,,,,,,,,,,,,,,,,,,,,,,,,,,,,,,,,,,,,,,,,,,,,,,,,,,,,,,,,,,,,,,,,,,,,,,,125.0,200.0,141.0,141.0,200.0,125.0,4.0,4.1,-266,-273,0,-9,229,-260,363.84789872169495,363.84797835350037,363.8514142036438,363.8625030517578,364.0151524543762,364.0151524543762,364.0151524543762,364.0151524543762,364.0151524543762,364.0151524543762,364.0151524543762,366.7801284790039,1,2.9117465019226074,None,,,,,,,,,,,,,,,,,,151,1,2025-02-28_09h51.40.650,comp,2024.2.4,54.55174952234912,2025-02-28 09h53.02.065319 -0500,
74,74,0,filler_random,None,None,None,None,None,None,None,None,None,None,3,2.030794382095337,None,,,,,0,0,0,0,0,74,74,157,366.79876589775085,,,,,,,,,,,,,,,,,,,,,,,,,,,,,,,,,,,,,,,,,,,,,,,,,,,,,,,,,,,,,,,,,,,,,,,,,,,,,,,,,86.1589200377768,81.49518433481045,104.7741593579234,72.76720468198407,149.68435916277943,106.55257694700046,2.2,2.21,-173,-256,0,264,186,289,366.78205037117004,366.78214621543884,366.78537487983704,366.79876589775085,366.955849647522,366.955849647522,366.955849647522,366.955849647522,366.955849647522,366.955849647522,366.955849647522,368.8324246406555,3,2.030794382095337,None,,,,,,,,,,,,,,,,,,151,1,2025-02-28_09h51.40.650,comp,2024.2.4,54.55174952234912,2025-02-28 09h53.02.065319 -0500,
75,75,0,critical,whd,20.0,3.0,lower,57.0,133.0,133.0,57.0,78.0,78.0,3,6.1809141635894775,None,,,,,0,0,0,0,0,75,75,92,368.848726272583,,,,,,,,,,,,,,,,,,,,,,,,,,,,,,,,,,,,,,,,,,,,,,,,,,,,,,,,,,,,,,,,,,,,,,,,,,,,,,,,,57.0,133.0,133.0,57.0,78.0,78.0,3.0,3.1,-191,285,0,-3,164,-287,368.83405208587646,368.8341329097748,368.8371567726135,368.848726272583,368.9982023239136,368.9982023239136,368.9982023239136,368.9982023239136,368.9982023239136,368.9982023239136,368.9982023239136,375.03879022598267,3,6.1809141635894775,None,,,,,,,,,,,,,,,,,,151,1,2025-02-28_09h51.40.650,comp,2024.2.4,54.55174952234912,2025-02-28 09h53.02.065319 -0500,
76,76,0,filler_square,None,None,None,None,None,None,None,None,None,None,3,1.5340633392333984,None,,,,,0,0,0,0,0,76,76,177,375.05527329444885,,,,,,,,,,,,,,,,,,,,,,,,,,,,,,,,,,,,,,,,,,,,,,,,,,,,,,,,,,,,,,,,,,,,,,,,,,,,,,,,,115.93729983406837,71.29347984677585,105.64760316164964,91.31933181562613,144.73446465552712,144.73446465552712,3.0,3.1,-177,272,0,-17,214,-260,375.04054021835327,375.0406184196472,375.04354596138,375.05527329444885,375.1978988647461,375.1978988647461,375.1978988647461,375.1978988647461,375.1978988647461,375.1978988647461,375.1978988647461,376.5991711616516,3,1.5340633392333984,None,,,,,,,,,,,,,,,,,,151,1,2025-02-28_09h51.40.650,comp,2024.2.4,54.55174952234912,2025-02-28 09h53.02.065319 -0500,
77,77,0,critical,dhw,20.0,1.0,upper,141.0,141.0,200.0,125.0,125.0,200.0,3,2.746819257736206,None,,,,,0,0,0,0,0,77,77,55,376.61854457855225,,,,,,,,,,,,,,,,,,,,,,,,,,,,,,,,,,,,,,,,,,,,,,,,,,,,,,,,,,,,,,,,,,,,,,,,,,,,,,,,,141.0,141.0,200.0,125.0,125.0,200.0,1.0,1.2,-229,-3,0,12,258,5,376.6006495952606,376.6007251739502,376.6040756702423,376.61854457855225,376.7668435573578,376.7668435573578,376.7668435573578,376.7668435573578,376.7668435573578,376.7668435573578,376.7668435573578,379.36891317367554,3,2.746819257736206,None,,,,,,,,,,,,,,,,,,151,1,2025-02-28_09h51.40.650,comp,2024.2.4,54.55174952234912,2025-02-28 09h53.02.065319 -0500,
78,78,0,filler_square,None,None,None,None,None,None,None,None,None,None,3,3.524076223373413,None,,,,,0,0,0,0,0,78,78,199,379.3856461048126,,,,,,,,,,,,,,,,,,,,,,,,,,,,,,,,,,,,,,,,,,,,,,,,,,,,,,,,,,,,,,,,,,,,,,,,,,,,,,,,,64.10919244809145,64.10919244809145,63.36706219374994,60.02250341578635,59.38734349778935,58.97586501647701,1.0,1.3,322,-268,480,-283,635,-255,379.37102723121643,379.3711049556732,379.37465500831604,379.3856461048126,379.5344355106354,379.5344355106354,379.5344355106354,379.5344355106354,379.5344355106354,379.5344355106354,379.5344355106354,382.92311835289,3,3.524076223373413,None,,,,,,,,,,,,,,,,,,151,1,2025-02-28_09h51.40.650,comp,2024.2.4,54.55174952234912,2025-02-28 09h53.02.065319 -0500,
79,79,0,critical,whd,35.0,4.0,lower,57.0,133.0,133.0,57.0,70.0,70.0,1,3.3715617656707764,None,,,,,0,0,0,0,0,79,79,88,382.9388325214386,,,,,,,,,,,,,,,,,,,,,,,,,,,,,,,,,,,,,,,,,,,,,,,,,,,,,,,,,,,,,,,,,,,,,,,,,,,,,,,,,57.0,133.0,133.0,57.0,70.0,70.0,4.0,4.1,-191,-269,0,-1,160,-286,382.9246244430542,382.92470383644104,382.9282581806183,382.9388325214386,383.08418703079224,383.08418703079224,383.08418703079224,383.08418703079224,383.08418703079224,383.08418703079224,383.08418703079224,386.3195321559906,1,3.3715617656707764,None,,,,,,,,,,,,,,,,,,151,1,2025-02-28_09h51.40.650,comp,2024.2.4,54.55174952234912,2025-02-28 09h53.02.065319 -0500,
80,80,0,critical,wdh,35.0,3.0,upper,125.0,200.0,127.0,127.0,200.0,125.0,3,3.033139944076538,None,,,,,0,0,0,0,0,80,80,75,386.340204000473,,,,,,,,,,,,,,,,,,,,,,,,,,,,,,,,,,,,,,,,,,,,,,,,,,,,,,,,,,,,,,,,,,,,,,,,,,,,,,,,,125.0,200.0,127.0,127.0,200.0,125.0,3.0,3.1,-260,283,0,-12,222,-255,386.32109355926514,386.3211748600006,386.3243637084961,386.340204000473,386.490487575531,386.490487575531,386.490487575531,386.490487575531,386.490487575531,386.490487575531,386.490487575531,389.386919260025,3,3.033139944076538,None,,,,,,,,,,,,,,,,,,151,1,2025-02-28_09h51.40.650,comp,2024.2.4,54.55174952234912,2025-02-28 09h53.02.065319 -0500,
81,81,0,critical,wdh,20.0,3.0,lower,57.0,133.0,78.0,78.0,133.0,57.0,1,2.7936196327209473,None,,,,,0,0,0,0,0,81,81,80,389.41172671318054,,,,,,,,,,,,,,,,,,,,,,,,,,,,,,,,,,,,,,,,,,,,,,,,,,,,,,,,,,,,,,,,,,,,,,,,,,,,,,,,,57.0,133.0,78.0,78.0,133.0,57.0,3.0,3.2,-202,-259,0,0,164,279,389.38852739334106,389.3886024951935,389.3921015262604,389.41172671318054,389.55589604377747,389.55589604377747,389.55589604377747,389.55589604377747,389.55589604377747,389.55589604377747,389.55589604377747,392.2205340862274,1,2.7936196327209473,None,,,,,,,,,,,,,,,,,,151,1,2025-02-28_09h51.40.650,comp,2024.2.4,54.55174952234912,2025-02-28 09h53.02.065319 -0500,
82,82,0,critical,whd,20.0,2.1,lower,57.0,133.0,133.0,57.0,78.0,78.0,3,4.369307279586792,None,,,,,0,0,0,0,0,82,82,38,392.2368550300598,,,,,,,,,,,,,,,,,,,,,,,,,,,,,,,,,,,,,,,,,,,,,,,,,,,,,,,,,,,,,,,,,,,,,,,,,,,,,,,,,57.0,133.0,133.0,57.0,78.0,78.0,2.1,2.11,-191,252,0,250,164,-290,392.2221598625183,392.2222535610199,392.2255461215973,392.2368550300598,392.3893370628357,392.3893370628357,392.3893370628357,392.3893370628357,392.3893370628357,392.3893370628357,392.3893370628357,396.62457156181335,3,4.369307279586792,None,,,,,,,,,,,,,,,,,,151,1,2025-02-28_09h51.40.650,comp,2024.2.4,54.55174952234912,2025-02-28 09h53.02.065319 -0500,
83,83,0,critical,dwh,20.0,4.0,lower,78.0,78.0,57.0,133.0,133.0,57.0,3,5.076668739318848,None,,,,,0,0,0,0,0,83,83,70,396.64067935943604,,,,,,,,,,,,,,,,,,,,,,,,,,,,,,,,,,,,,,,,,,,,,,,,,,,,,,,,,,,,,,,,,,,,,,,,,,,,,,,,,78.0,78.0,57.0,133.0,133.0,57.0,4.0,4.1,-202,-257,0,-10,191,-257,396.62623715400696,396.62637162208557,396.6303246021271,396.64067935943604,396.7893133163452,396.7893133163452,396.7893133163452,396.7893133163452,396.7893133163452,396.7893133163452,396.7893133163452,401.7298595905304,3,5.076668739318848,None,,,,,,,,,,,,,,,,,,151,1,2025-02-28_09h51.40.650,comp,2024.2.4,54.55174952234912,2025-02-28 09h53.02.065319 -0500,
84,84,0,catch,None,None,None,None,None,None,None,None,None,None,1,2.5586838722229004,None,,,,,0,0,0,0,0,84,84,122,401.7506613731384,,,,,,,,,,,,,,,,,,,,,,,,,,,,,,,,,,,,,,,,,,,,,,,,,,,,,,,,,,,,,,,,,,,,,,,,,,,,,,,,,190,135,92,98,114,76,2.1,2.11,-212,259,0,287,183,-288,401.73184418678284,401.7319219112396,401.73486828804016,401.7506613731384,401.89181900024414,401.89181900024414,401.89181900024414,401.89181900024414,401.89181900024414,401.89181900024414,401.89181900024414,404.325359582901,1,2.5586838722229004,None,,,,,,,,,,,,,,,,,,151,1,2025-02-28_09h51.40.650,comp,2024.2.4,54.55174952234912,2025-02-28 09h53.02.065319 -0500,
85,85,0,filler_square,None,None,None,None,None,None,None,None,None,None,3,1.7124199867248535,None,,,,,0,0,0,0,0,85,85,187,404.34146523475647,,,,,,,,,,,,,,,,,,,,,,,,,,,,,,,,,,,,,,,,,,,,,,,,,,,,,,,,,,,,,,,,,,,,,,,,,,,,,,,,,144.13243393013818,63.751682937432534,58.03485444096602,100.28371328703658,170.966446487665,170.966446487665,1.0,1.1,-658,286,-480,264,-248,280,404.3274567127228,404.3275372982025,404.3311140537262,404.34146523475647,404.492698431015,404.492698431015,404.492698431015,404.492698431015,404.492698431015,404.492698431015,404.492698431015,406.0585927963257,3,1.7124199867248535,None,,,,,,,,,,,,,,,,,,151,1,2025-02-28_09h51.40.650,comp,2024.2.4,54.55174952234912,2025-02-28 09h53.02.065319 -0500,
86,86,0,filler_square,None,None,None,None,None,None,None,None,None,None,1,2.006681203842163,None,,,,,0,0,0,0,0,86,86,189,406.0793035030365,,,,,,,,,,,,,,,,,,,,,,,,,,,,,,,,,,,,,,,,,,,,,,,,,,,,,,,,,,,,,,,,,,,,,,,,,,,,,,,,,122.09644791184466,122.09644791184466,100.04595835296556,91.51176777632249,109.39574884440975,57.76847354711195,3.0,3.2,-203,-290,0,7,171,259,406.0605401992798,406.0606298446655,406.0636191368103,406.0793035030365,406.225625038147,406.225625038147,406.225625038147,406.225625038147,406.225625038147,406.225625038147,406.225625038147,408.0901801586151,1,2.006681203842163,None,,,,,,,,,,,,,,,,,,151,1,2025-02-28_09h51.40.650,comp,2024.2.4,54.55174952234912,2025-02-28 09h53.02.065319 -0500,
87,87,0,catch,None,None,None,None,None,None,None,None,None,None,3,1.9856743812561035,None,,,,,0,0,0,0,0,87,87,125,408.10789155960083,,,,,,,,,,,,,,,,,,,,,,,,,,,,,,,,,,,,,,,,,,,,,,,,,,,,,,,,,,,,,,,,,,,,,,,,,,,,,,,,,96,94,65,125,194,131,3.0,3.1,-206,262,0,-16,224,-276,408.092036485672,408.092111825943,408.09501099586487,408.10789155960083,408.2596573829651,408.2596573829651,408.2596573829651,408.2596573829651,408.2596573829651,408.2596573829651,408.2596573829651,410.11068058013916,3,1.9856743812561035,None,,,,,,,,,,,,,,,,,,151,1,2025-02-28_09h51.40.650,comp,2024.2.4,54.55174952234912,2025-02-28 09h53.02.065319 -0500,
88,88,0,critical,whd,20.0,2.1,upper,125.0,200.0,200.0,125.0,141.0,141.0,1,3.4545702934265137,None,,,,,0,0,0,0,0,88,88,39,410.1269176006317,,,,,,,,,,,,,,,,,,,,,,,,,,,,,,,,,,,,,,,,,,,,,,,,,,,,,,,,,,,,,,,,,,,,,,,,,,,,,,,,,125.0,200.0,200.0,125.0,141.0,141.0,2.1,2.12,-258,-267,0,-262,229,251,410.11243987083435,410.11251735687256,410.11615347862244,410.1269176006317,410.26063776016235,410.26063776016235,410.26063776016235,410.26063776016235,410.26063776016235,410.26063776016235,410.26063776016235,413.5963897705078,1,3.4545702934265137,None,,,,,,,,,,,,,,,,,,151,1,2025-02-28_09h51.40.650,comp,2024.2.4,54.55174952234912,2025-02-28 09h53.02.065319 -0500,
89,89,0,critical,whd,35.0,3.0,lower,57.0,133.0,133.0,57.0,70.0,70.0,2,7.4257097244262695,None,,,,,0,0,0,0,0,89,89,86,413.61168336868286,,,,,,,,,,,,,,,,,,,,,,,,,,,,,,,,,,,,,,,,,,,,,,,,,,,,,,,,,,,,,,,,,,,,,,,,,,,,,,,,,57.0,133.0,133.0,57.0,70.0,70.0,3.0,3.1,-191,257,0,-1,160,-271,413.5979518890381,413.59806656837463,413.6011941432953,413.61168336868286,413.76686787605286,413.76686787605286,413.76686787605286,413.76686787605286,413.76686787605286,413.76686787605286,413.76686787605286,421.05019783973694,2,7.4257097244262695,None,,,,,,,,,,,,,,,,,,151,1,2025-02-28_09h51.40.650,comp,2024.2.4,54.55174952234912,2025-02-28 09h53.02.065319 -0500,
90,90,0,critical,whd,35.0,2.1,lower,57.0,133.0,133.0,57.0,70.0,70.0,2,3.040905714035034,None,,,,,0,0,0,0,0,90,90,12,421.06928157806396,,,,,,,,,,,,,,,,,,,,,,,,,,,,,,,,,,,,,,,,,,,,,,,,,,,,,,,,,,,,,,,,,,,,,,,,,,,,,,,,,57.0,133.0,133.0,57.0,70.0,70.0,2.1,2.12,-191,-252,0,-273,160,284,421.05222725868225,421.0523602962494,421.0553936958313,421.06928157806396,421.2150340080261,421.2150340080261,421.2150340080261,421.2150340080261,421.2150340080261,421.2150340080261,421.2150340080261,424.11497807502747,2,3.040905714035034,None,,,,,,,,,,,,,,,,,,151,1,2025-02-28_09h51.40.650,comp,2024.2.4,54.55174952234912,2025-02-28 09h53.02.065319 -0500,
91,91,0,filler_square,None,None,None,None,None,None,None,None,None,None,2,1.898618459701538,None,,,,,0,0,0,0,0,91,91,170,424.131121635437,,,,,,,,,,,,,,,,,,,,,,,,,,,,,,,,,,,,,,,,,,,,,,,,,,,,,,,,,,,,,,,,,,,,,,,,,,,,,,,,,63.596214759199334,64.04053958611125,85.11000651722325,85.11000651722325,70.85637421325399,80.26970192166299,2.2,2.21,-171,-259,0,289,179,265,424.1168420314789,424.1169216632843,424.1203258037567,424.131121635437,424.280250787735,424.280250787735,424.280250787735,424.280250787735,424.280250787735,424.280250787735,424.280250787735,426.03982424736023,2,1.898618459701538,None,,,,,,,,,,,,,,,,,,151,1,2025-02-28_09h51.40.650,comp,2024.2.4,54.55174952234912,2025-02-28 09h53.02.065319 -0500,
92,92,0,critical,dhw,20.0,2.1,upper,141.0,141.0,200.0,125.0,125.0,200.0,2,4.068072557449341,None,,,,,0,0,0,0,0,92,92,27,426.05739283561707,,,,,,,,,,,,,,,,,,,,,,,,,,,,,,,,,,,,,,,,,,,,,,,,,,,,,,,,,,,,,,,,,,,,,,,,,,,,,,,,,141.0,141.0,200.0,125.0,125.0,200.0,2.1,2.12,-229,-256,0,-257,258,260,426.0412826538086,426.0413610935211,426.0442485809326,426.05739283561707,426.1962389945984,426.1962389945984,426.1962389945984,426.1962389945984,426.1962389945984,426.1962389945984,426.1962389945984,430.1434509754181,2,4.068072557449341,None,,,,,,,,,,,,,,,,,,151,1,2025-02-28_09h51.40.650,comp,2024.2.4,54.55174952234912,2025-02-28 09h53.02.065319 -0500,
93,93,0,critical,dhw,20.0,3.0,upper,141.0,141.0,200.0,125.0,125.0,200.0,3,2.0619208812713623,None,,,,,0,0,0,0,0,93,93,57,430.15948152542114,,,,,,,,,,,,,,,,,,,,,,,,,,,,,,,,,,,,,,,,,,,,,,,,,,,,,,,,,,,,,,,,,,,,,,,,,,,,,,,,,141.0,141.0,200.0,125.0,125.0,200.0,3.0,3.1,-229,266,0,-14,258,-280,430.14517974853516,430.14530968666077,430.1485891342163,430.15948152542114,430.30088210105896,430.30088210105896,430.30088210105896,430.30088210105896,430.30088210105896,430.30088210105896,430.30088210105896,432.2342371940613,3,2.0619208812713623,None,,,,,,,,,,,,,,,,,,151,1,2025-02-28_09h51.40.650,comp,2024.2.4,54.55174952234912,2025-02-28 09h53.02.065319 -0500,
94,94,0,critical,whd,35.0,2.1,lower,57.0,133.0,133.0,57.0,70.0,70.0,2,8.034908533096313,None,,,,,0,0,0,0,0,94,94,36,432.2505896091461,,,,,,,,,,,,,,,,,,,,,,,,,,,,,,,,,,,,,,,,,,,,,,,,,,,,,,,,,,,,,,,,,,,,,,,,,,,,,,,,,57.0,133.0,133.0,57.0,70.0,70.0,2.1,2.11,-191,265,0,285,160,-270,432.23592710494995,432.2360050678253,432.2393367290497,432.2505896091461,432.4068512916565,432.4068512916565,432.4068512916565,432.4068512916565,432.4068512916565,432.4068512916565,432.4068512916565,440.3038823604584,2,8.034908533096313,None,,,,,,,,,,,,,,,,,,151,1,2025-02-28_09h51.40.650,comp,2024.2.4,54.55174952234912,2025-02-28 09h53.02.065319 -0500,
95,95,0,filler_square,None,None,None,None,None,None,None,None,None,None,1,2.7100446224212646,None,,,,,0,0,0,0,0,95,95,197,440.3202152252197,,,,,,,,,,,,,,,,,,,,,,,,,,,,,,,,,,,,,,,,,,,,,,,,,,,,,,,,,,,,,,,,,,,,,,,,,,,,,,,,,180.14048979819523,180.14048979819523,169.888537451003,102.3860806140995,97.19163719963959,149.8833262635245,1.0,1.1,-717,283,-480,270,-258,284,440.3057310581207,440.3058362007141,440.3099060058594,440.3202152252197,440.47168707847595,440.47168707847595,440.47168707847595,440.47168707847595,440.47168707847595,440.47168707847595,440.47168707847595,443.03957986831665,1,2.7100446224212646,None,,,,,,,,,,,,,,,,,,151,1,2025-02-28_09h51.40.650,comp,2024.2.4,54.55174952234912,2025-02-28 09h53.02.065319 -0500,
96,96,0,filler_square,None,None,None,None,None,None,None,None,None,None,1,2.1608314514160156,None,,,,,0,0,0,0,0,96,96,201,443.0609202384949,,,,,,,,,,,,,,,,,,,,,,,,,,,,,,,,,,,,,,,,,,,,,,,,,,,,,,,,,,,,,,,,,,,,,,,,,,,,,,,,,136.06918597672387,136.06918597672387,59.61570644837912,93.44233920279964,116.23978694896854,130.54993024304196,1.0,1.2,-211,18,0,-1,208,-13,443.0415608882904,443.04164361953735,443.0450088977814,443.0609202384949,443.20530891418457,443.20530891418457,443.20530891418457,443.20530891418457,443.20530891418457,443.20530891418457,443.20530891418457,445.24028849601746,1,2.1608314514160156,None,,,,,,,,,,,,,,,,,,151,1,2025-02-28_09h51.40.650,comp,2024.2.4,54.55174952234912,2025-02-28 09h53.02.065319 -0500,
97,97,0,critical,hwd,20.0,3.0,upper,200.0,125.0,125.0,200.0,141.0,141.0,2,4.612891674041748,None,,,,,0,0,0,0,0,97,97,105,445.2565472126007,,,,,,,,,,,,,,,,,,,,,,,,,,,,,,,,,,,,,,,,,,,,,,,,,,,,,,,,,,,,,,,,,,,,,,,,,,,,,,,,,200.0,125.0,125.0,200.0,141.0,141.0,3.0,3.1,-258,256,0,-15,266,-282,445.24216294288635,445.2422924041748,445.2455801963806,445.2565472126007,445.40752243995667,445.40752243995667,445.40752243995667,445.40752243995667,445.40752243995667,445.40752243995667,445.40752243995667,449.87328362464905,2,4.612891674041748,None,,,,,,,,,,,,,,,,,,151,1,2025-02-28_09h51.40.650,comp,2024.2.4,54.55174952234912,2025-02-28 09h53.02.065319 -0500,
98,98,0,filler_random,None,None,None,None,None,None,None,None,None,None,1,8.72352409362793,None,,,,,0,0,0,0,0,98,98,135,449.8899898529053,,,,,,,,,,,,,,,,,,,,,,,,,,,,,,,,,,,,,,,,,,,,,,,,,,,,,,,,,,,,,,,,,,,,,,,,,,,,,,,,,125.69024254545839,189.17178474265066,123.88681585192968,72.69933935204777,109.97617325775798,126.30746211838034,2.2,2.22,-227,288,0,-254,196,-267,449.8749854564667,449.87506461143494,449.8791365623474,449.8899898529053,450.0390741825104,450.0390741825104,450.0390741825104,450.0390741825104,450.0390741825104,450.0390741825104,450.0390741825104,458.6290879249573,1,8.72352409362793,None,,,,,,,,,,,,,,,,,,151,1,2025-02-28_09h51.40.650,comp,2024.2.4,54.55174952234912,2025-02-28 09h53.02.065319 -0500,
99,99,0,critical,dwh,20.0,2.1,upper,141.0,141.0,125.0,200.0,200.0,125.0,2,5.848614692687988,None,,,,,0,0,0,0,0,99,99,31,458.644953250885,,,,,,,,,,,,,,,,,,,,,,,,,,,,,,,,,,,,,,,,,,,,,,,,,,,,,,,,,,,,,,,,,,,,,,,,,,,,,,,,,141.0,141.0,125.0,200.0,200.0,125.0,2.1,2.11,-266,254,0,288,258,-285,458.63105034828186,458.6312024593353,458.6344714164734,458.644953250885,458.78581380844116,458.78581380844116,458.78581380844116,458.78581380844116,458.78581380844116,458.78581380844116,458.78581380844116,464.50615310668945,2,5.848614692687988,None,,,,,,,,,,,,,,,,,,151,1,2025-02-28_09h51.40.650,comp,2024.2.4,54.55174952234912,2025-02-28 09h53.02.065319 -0500,
100,100,0,catch,None,None,None,None,None,None,None,None,None,None,3,4.080187559127808,None,,,,,0,0,0,0,0,100,100,126,464.525958776474,,,,,,,,,,,,,,,,,,,,,,,,,,,,,,,,,,,,,,,,,,,,,,,,,,,,,,,,,,,,,,,,,,,,,,,,,,,,,,,,,93,97,111,79,129,196,2.2,2.22,-184,254,0,-271,234,-254,464.50829815864563,464.50837802886963,464.5115966796875,464.525958776474,464.6634986400604,464.6634986400604,464.6634986400604,464.6634986400604,464.6634986400604,464.6634986400604,464.6634986400604,468.61517214775085,3,4.080187559127808,None,,,,,,,,,,,,,,,,,,151,1,2025-02-28_09h51.40.650,comp,2024.2.4,54.55174952234912,2025-02-28 09h53.02.065319 -0500,
101,101,0,critical,hdw,20.0,2.1,lower,133.0,57.0,78.0,78.0,57.0,133.0,3,8.579593181610107,None,,,,,0,0,0,0,0,101,101,46,468.63402009010315,,,,,,,,,,,,,,,,,,,,,,,,,,,,,,,,,,,,,,,,,,,,,,,,,,,,,,,,,,,,,,,,,,,,,,,,,,,,,,,,,133.0,57.0,78.0,78.0,57.0,133.0,2.1,2.11,-164,272,0,251,202,-287,468.61696219444275,468.61704754829407,468.6204218864441,468.63402009010315,468.779079914093,468.779079914093,468.779079914093,468.779079914093,468.779079914093,468.779079914093,468.779079914093,477.217408657074,3,8.579593181610107,None,,,,,,,,,,,,,,,,,,151,1,2025-02-28_09h51.40.650,comp,2024.2.4,54.55174952234912,2025-02-28 09h53.02.065319 -0500,
102,102,0,critical,hwd,35.0,4.0,upper,200.0,125.0,125.0,200.0,127.0,127.0,2,2.4722540378570557,None,,,,,0,0,0,0,0,102,102,101,477.2380361557007,,,,,,,,,,,,,,,,,,,,,,,,,,,,,,,,,,,,,,,,,,,,,,,,,,,,,,,,,,,,,,,,,,,,,,,,,,,,,,,,,200.0,125.0,125.0,200.0,127.0,127.0,4.0,4.2,-258,-4,0,-252,260,7,477.21907687187195,477.21919775009155,477.222350358963,477.2380361557007,477.3803834915161,477.3803834915161,477.3803834915161,477.3803834915161,477.3803834915161,477.3803834915161,477.3803834915161,479.7162902355194,2,2.4722540378570557,None,,,,,,,,,,,,,,,,,,151,1,2025-02-28_09h51.40.650,comp,2024.2.4,54.55174952234912,2025-02-28 09h53.02.065319 -0500,
103,103,0,critical,wdh,35.0,2.1,lower,57.0,133.0,70.0,70.0,133.0,57.0,1,2.233821392059326,None,,,,,0,0,0,0,0,103,103,8,479.73234009742737,,,,,,,,,,,,,,,,,,,,,,,,,,,,,,,,,,,,,,,,,,,,,,,,,,,,,,,,,,,,,,,,,,,,,,,,,,,,,,,,,57.0,133.0,70.0,70.0,133.0,57.0,2.1,2.12,-198,-264,0,-282,160,274,479.71784138679504,479.71791911125183,479.7214183807373,479.73234009742737,479.88766622543335,479.88766622543335,479.88766622543335,479.88766622543335,479.88766622543335,479.88766622543335,479.88766622543335,481.97335982322693,1,2.233821392059326,None,,,,,,,,,,,,,,,,,,151,1,2025-02-28_09h51.40.650,comp,2024.2.4,54.55174952234912,2025-02-28 09h53.02.065319 -0500,
104,104,0,critical,hwd,20.0,3.0,lower,133.0,57.0,57.0,133.0,78.0,78.0,2,2.5702662467956543,None,,,,,0,0,0,0,0,104,104,104,481.9911079406738,,,,,,,,,,,,,,,,,,,,,,,,,,,,,,,,,,,,,,,,,,,,,,,,,,,,,,,,,,,,,,,,,,,,,,,,,,,,,,,,,133.0,57.0,57.0,133.0,78.0,78.0,3.0,3.2,-191,-252,0,-4,202,286,481.97486090660095,481.9749391078949,481.9778962135315,481.9911079406738,482.1340844631195,482.1340844631195,482.1340844631195,482.1340844631195,482.1340844631195,482.1340844631195,482.1340844631195,484.5659565925598,2,2.5702662467956543,None,,,,,,,,,,,,,,,,,,151,1,2025-02-28_09h51.40.650,comp,2024.2.4,54.55174952234912,2025-02-28 09h53.02.065319 -0500,
105,105,0,critical,dhw,35.0,3.0,lower,70.0,70.0,133.0,57.0,57.0,133.0,2,2.7034621238708496,None,,,,,0,0,0,0,0,105,105,50,484.58284735679626,,,,,,,,,,,,,,,,,,,,,,,,,,,,,,,,,,,,,,,,,,,,,,,,,,,,,,,,,,,,,,,,,,,,,,,,,,,,,,,,,70.0,70.0,133.0,57.0,57.0,133.0,3.0,3.2,-160,-284,0,10,191,258,484.5675559043884,484.5676574707031,484.5710663795471,484.58284735679626,484.71851658821106,484.71851658821106,484.71851658821106,484.71851658821106,484.71851658821106,484.71851658821106,484.71851658821106,487.2884302139282,2,2.7034621238708496,None,,,,,,,,,,,,,,,,,,151,1,2025-02-28_09h51.40.650,comp,2024.2.4,54.55174952234912,2025-02-28 09h53.02.065319 -0500,
106,106,0,critical,whd,20.0,3.0,upper,125.0,200.0,200.0,125.0,141.0,141.0,1,1.9100894927978516,None,,,,,0,0,0,0,0,106,106,93,487.305540561676,,,,,,,,,,,,,,,,,,,,,,,,,,,,,,,,,,,,,,,,,,,,,,,,,,,,,,,,,,,,,,,,,,,,,,,,,,,,,,,,,125.0,200.0,200.0,125.0,141.0,141.0,3.0,3.2,-258,-272,0,-15,229,284,487.29013562202454,487.2902657985687,487.2936840057373,487.305540561676,487.45042276382446,487.45042276382446,487.45042276382446,487.45042276382446,487.45042276382446,487.45042276382446,487.45042276382446,489.2180938720703,1,1.9100894927978516,None,,,,,,,,,,,,,,,,,,151,1,2025-02-28_09h51.40.650,comp,2024.2.4,54.55174952234912,2025-02-28 09h53.02.065319 -0500,
107,107,0,critical,dhw,20.0,2.1,upper,141.0,141.0,200.0,125.0,125.0,200.0,2,2.4415669441223145,None,,,,,0,0,0,0,0,107,107,3,489.23598074913025,,,,,,,,,,,,,,,,,,,,,,,,,,,,,,,,,,,,,,,,,,,,,,,,,,,,,,,,,,,,,,,,,,,,,,,,,,,,,,,,,141.0,141.0,200.0,125.0,125.0,200.0,2.1,2.12,-229,-282,0,-273,258,262,489.21960830688477,489.219685792923,489.222722530365,489.23598074913025,489.38950276374817,489.38950276374817,489.38950276374817,489.38950276374817,489.38950276374817,489.38950276374817,489.38950276374817,491.68673276901245,2,2.4415669441223145,None,,,,,,,,,,,,,,,,,,151,1,2025-02-28_09h51.40.650,comp,2024.2.4,54.55174952234912,2025-02-28 09h53.02.065319 -0500,
108,108,0,filler_random,None,None,None,None,None,None,None,None,None,None,3,2.1668145656585693,None,,,,,0,0,0,0,0,108,108,144,491.70362520217896,,,,,,,,,,,,,,,,,,,,,,,,,,,,,,,,,,,,,,,,,,,,,,,,,,,,,,,,,,,,,,,,,,,,,,,,,,,,,,,,,109.87200846904481,64.0393503070114,95.87637145334645,79.16960942932678,137.4408519064594,99.36072602225023,1.0,1.2,-168,9,0,17,185,2,491.68844747543335,491.6885278224945,491.69177079200745,491.70362520217896,491.8400981426239,491.8400981426239,491.8400981426239,491.8400981426239,491.8400981426239,491.8400981426239,491.8400981426239,493.87306237220764,3,2.1668145656585693,None,,,,,,,,,,,,,,,,,,151,1,2025-02-28_09h51.40.650,comp,2024.2.4,54.55174952234912,2025-02-28 09h53.02.065319 -0500,
109,109,0,critical,wdh,35.0,2.1,upper,125.0,200.0,127.0,127.0,200.0,125.0,3,1.8207480907440186,None,,,,,0,0,0,0,0,109,109,33,493.88983249664307,,,,,,,,,,,,,,,,,,,,,,,,,,,,,,,,,,,,,,,,,,,,,,,,,,,,,,,,,,,,,,,,,,,,,,,,,,,,,,,,,125.0,200.0,127.0,127.0,200.0,125.0,2.1,2.11,-260,272,0,271,222,-261,493.875168800354,493.8752510547638,493.87817454338074,493.88983249664307,494.0372006893158,494.0372006893158,494.0372006893158,494.0372006893158,494.0372006893158,494.0372006893158,494.0372006893158,495.7216422557831,3,1.8207480907440186,None,,,,,,,,,,,,,,,,,,151,1,2025-02-28_09h51.40.650,comp,2024.2.4,54.55174952234912,2025-02-28 09h53.02.065319 -0500,
110,110,0,critical,hwd,20.0,2.1,upper,200.0,125.0,125.0,200.0,141.0,141.0,2,11.29158329963684,None,,,,,0,0,0,0,0,110,110,43,495.73800325393677,,,,,,,,,,,,,,,,,,,,,,,,,,,,,,,,,,,,,,,,,,,,,,,,,,,,,,,,,,,,,,,,,,,,,,,,,,,,,,,,,200.0,125.0,125.0,200.0,141.0,141.0,2.1,2.12,-258,-270,0,-289,266,251,495.7232303619385,495.72331070899963,495.7273304462433,495.73800325393677,495.88654613494873,495.88654613494873,495.88654613494873,495.88654613494873,495.88654613494873,495.88654613494873,495.88654613494873,507.0403161048889,2,11.29158329963684,None,,,,,,,,,,,,,,,,,,151,1,2025-02-28_09h51.40.650,comp,2024.2.4,54.55174952234912,2025-02-28 09h53.02.065319 -0500,
111,111,0,filler_square,None,None,None,None,None,None,None,None,None,None,1,2.6285126209259033,None,,,,,0,0,0,0,0,111,111,183,507.0570578575134,,,,,,,,,,,,,,,,,,,,,,,,,,,,,,,,,,,,,,,,,,,,,,,,,,,,,,,,,,,,,,,,,,,,,,,,,,,,,,,,,103.72242959172718,106.58437832072528,81.14926931894688,67.20313973355701,155.6094521246992,155.6094521246992,3.0,3.2,-183,-279,0,-19,207,274,507.04209065437317,507.0421676635742,507.04527616500854,507.0570578575134,507.207147359848,507.207147359848,507.207147359848,507.207147359848,507.207147359848,507.207147359848,507.207147359848,509.6976709365845,1,2.6285126209259033,None,,,,,,,,,,,,,,,,,,151,1,2025-02-28_09h51.40.650,comp,2024.2.4,54.55174952234912,2025-02-28 09h53.02.065319 -0500,
112,112,0,filler_random,None,None,None,None,None,None,None,None,None,None,3,2.188201427459717,None,,,,,0,0,0,0,0,112,112,156,509.71345615386963,,,,,,,,,,,,,,,,,,,,,,,,,,,,,,,,,,,,,,,,,,,,,,,,,,,,,,,,,,,,,,,,,,,,,,,,,,,,,,,,,62.60349282020554,81.2430466958108,134.35836045261078,156.8423050091614,185.63578223547668,146.3463466656586,3.0,3.1,-215,263,0,1,248,-281,509.6994743347168,509.6995544433594,509.7024748325348,509.71345615386963,509.85689210891724,509.85689210891724,509.85689210891724,509.85689210891724,509.85689210891724,509.85689210891724,509.85689210891724,511.91178345680237,3,2.188201427459717,None,,,,,,,,,,,,,,,,,,151,1,2025-02-28_09h51.40.650,comp,2024.2.4,54.55174952234912,2025-02-28 09h53.02.065319 -0500,
113,113,0,filler_square,None,None,None,None,None,None,None,None,None,None,1,2.9173502922058105,None,,,,,0,0,0,0,0,113,113,184,511.9285035133362,,,,,,,,,,,,,,,,,,,,,,,,,,,,,,,,,,,,,,,,,,,,,,,,,,,,,,,,,,,,,,,,,,,,,,,,,,,,,,,,,58.043897095675725,61.91057639801788,61.39565870131496,61.032607092616225,62.70815312103969,62.70815312103969,1.0,1.1,-637,273,-480,256,-322,278,511.91372418403625,511.91386699676514,511.91757369041443,511.9285035133362,512.0753633975983,512.0753633975983,512.0753633975983,512.0753633975983,512.0753633975983,512.0753633975983,512.0753633975983,514.863358259201,1,2.9173502922058105,None,,,,,,,,,,,,,,,,,,151,1,2025-02-28_09h51.40.650,comp,2024.2.4,54.55174952234912,2025-02-28 09h53.02.065319 -0500,
114,114,0,critical,wdh,20.0,2.1,lower,57.0,133.0,78.0,78.0,133.0,57.0,3,2.3408496379852295,None,,,,,0,0,0,0,0,114,114,10,514.8815450668335,,,,,,,,,,,,,,,,,,,,,,,,,,,,,,,,,,,,,,,,,,,,,,,,,,,,,,,,,,,,,,,,,,,,,,,,,,,,,,,,,57.0,133.0,78.0,78.0,133.0,57.0,2.1,2.11,-202,258,0,272,164,-258,514.8652079105377,514.8652956485748,514.8687720298767,514.8815450668335,515.0323746204376,515.0323746204376,515.0323746204376,515.0323746204376,515.0323746204376,515.0323746204376,515.0323746204376,517.2311842441559,3,2.3408496379852295,None,,,,,,,,,,,,,,,,,,151,1,2025-02-28_09h51.40.650,comp,2024.2.4,54.55174952234912,2025-02-28 09h53.02.065319 -0500,
115,115,0,filler_square,None,None,None,None,None,None,None,None,None,None,2,2.0683257579803467,None,,,,,0,0,0,0,0,115,115,185,517.2492682933807,,,,,,,,,,,,,,,,,,,,,,,,,,,,,,,,,,,,,,,,,,,,,,,,,,,,,,,,,,,,,,,,,,,,,,,,,,,,,,,,,113.51031551548519,80.75767895394293,117.74165052287762,117.74165052287762,64.60962899962598,84.88276404678614,2.2,2.22,-195,282,0,-255,197,-279,517.2330996990204,517.2331802845001,517.2361137866974,517.2492682933807,517.3949477672577,517.3949477672577,517.3949477672577,517.3949477672577,517.3949477672577,517.3949477672577,517.3949477672577,519.327577829361,2,2.0683257579803467,None,,,,,,,,,,,,,,,,,,151,1,2025-02-28_09h51.40.650,comp,2024.2.4,54.55174952234912,2025-02-28 09h53.02.065319 -0500,
116,116,0,filler_random,None,None,None,None,None,None,None,None,None,None,1,4.925414323806763,None,,,,,0,0,0,0,0,116,116,146,519.3441948890686,,,,,,,,,,,,,,,,,,,,,,,,,,,,,,,,,,,,,,,,,,,,,,,,,,,,,,,,,,,,,,,,,,,,,,,,,,,,,,,,,112.2280319386099,177.55447969388416,66.22428233737996,103.73005002882618,158.68949688795703,93.5703169851381,2.1,2.11,-237,255,0,271,195,-270,519.3292970657349,519.3293764591217,519.3324239253998,519.3441948890686,519.4956092834473,519.4956092834473,519.4956092834473,519.4956092834473,519.4956092834473,519.4956092834473,519.4956092834473,524.2867839336395,1,4.925414323806763,None,,,,,,,,,,,,,,,,,,151,1,2025-02-28_09h51.40.650,comp,2024.2.4,54.55174952234912,2025-02-28 09h53.02.065319 -0500,
117,117,0,critical,hdw,35.0,4.0,upper,200.0,125.0,127.0,127.0,125.0,200.0,3,4.859468936920166,None,,,,,0,0,0,0,0,117,117,113,524.3064713478088,,,,,,,,,,,,,,,,,,,,,,,,,,,,,,,,,,,,,,,,,,,,,,,,,,,,,,,,,,,,,,,,,,,,,,,,,,,,,,,,,200.0,125.0,127.0,127.0,125.0,200.0,4.0,4.1,-222,-272,0,-6,260,-269,524.2882254123688,524.2882990837097,524.291172504425,524.3064713478088,524.4445462226868,524.4445462226868,524.4445462226868,524.4445462226868,524.4445462226868,524.4445462226868,524.4445462226868,529.1835105419159,3,4.859468936920166,None,,,,,,,,,,,,,,,,,,151,1,2025-02-28_09h51.40.650,comp,2024.2.4,54.55174952234912,2025-02-28 09h53.02.065319 -0500,
118,118,0,filler_square,None,None,None,None,None,None,None,None,None,None,3,2.308542490005493,None,,,,,0,0,0,0,0,118,118,208,529.2018258571625,,,,,,,,,,,,,,,,,,,,,,,,,,,,,,,,,,,,,,,,,,,,,,,,,,,,,,,,,,,,,,,,,,,,,,,,,,,,,,,,,88.66962811570905,74.24241632030558,78.3204055938393,63.59812366843495,131.35413238262652,131.35413238262652,2.2,2.21,-165,-278,0,252,193,276,529.185605764389,529.1856853961945,529.1890642642975,529.2018258571625,529.3497960567474,529.3497960567474,529.3497960567474,529.3497960567474,529.3497960567474,529.3497960567474,529.3497960567474,531.5186665058136,3,2.308542490005493,None,,,,,,,,,,,,,,,,,,151,1,2025-02-28_09h51.40.650,comp,2024.2.4,54.55174952234912,2025-02-28 09h53.02.065319 -0500,
119,119,0,critical,whd,35.0,4.0,upper,125.0,200.0,200.0,125.0,127.0,127.0,1,3.389183521270752,None,,,,,0,0,0,0,0,119,119,89,531.5365452766418,,,,,,,,,,,,,,,,,,,,,,,,,,,,,,,,,,,,,,,,,,,,,,,,,,,,,,,,,,,,,,,,,,,,,,,,,,,,,,,,,125.0,200.0,200.0,125.0,127.0,127.0,4.0,4.1,-258,-275,0,9,222,-258,531.5203859806061,531.5204672813416,531.5233521461487,531.5365452766418,531.6828625202179,531.6828625202179,531.6828625202179,531.6828625202179,531.6828625202179,531.6828625202179,531.6828625202179,534.9390847682953,1,3.389183521270752,None,,,,,,,,,,,,,,,,,,151,1,2025-02-28_09h51.40.650,comp,2024.2.4,54.55174952234912,2025-02-28 09h53.02.065319 -0500,
120,120,0,filler_square,None,None,None,None,None,None,None,None,None,None,3,1.6689910888671875,None,,,,,0,0,0,0,0,120,120,205,534.9546434879303,,,,,,,,,,,,,,,,,,,,,,,,,,,,,,,,,,,,,,,,,,,,,,,,,,,,,,,,,,,,,,,,,,,,,,,,,,,,,,,,,66.88400127421878,66.88400127421878,63.16812433758741,65.74167331049712,65.54664889088858,66.15121773889824,3.0,3.1,-162,273,0,-8,162,-279,534.9408354759216,534.9409148693085,534.9437856674194,534.9546434879303,535.1003458499908,535.1003458499908,535.1003458499908,535.1003458499908,535.1003458499908,535.1003458499908,535.1003458499908,536.6351926326752,3,1.6689910888671875,None,,,,,,,,,,,,,,,,,,151,1,2025-02-28_09h51.40.650,comp,2024.2.4,54.55174952234912,2025-02-28 09h53.02.065319 -0500,
121,121,0,filler_random,None,None,None,None,None,None,None,None,None,None,2,2.0184993743896484,None,,,,,0,0,0,0,0,121,121,141,536.6512486934662,,,,,,,,,,,,,,,,,,,,,,,,,,,,,,,,,,,,,,,,,,,,,,,,,,,,,,,,,,,,,,,,,,,,,,,,,,,,,,,,,172.00337525761415,79.38240587594164,74.57372784958616,196.40733316187524,71.08171256768703,111.73149429103081,3.0,3.1,-234,273,0,5,250,-284,536.6370570659637,536.6371946334839,536.640433549881,536.6512486934662,536.7998297214508,536.7998297214508,536.7998297214508,536.7998297214508,536.7998297214508,536.7998297214508,536.7998297214508,538.6860258579254,2,2.0184993743896484,None,,,,,,,,,,,,,,,,,,151,1,2025-02-28_09h51.40.650,comp,2024.2.4,54.55174952234912,2025-02-28 09h53.02.065319 -0500,
122,122,0,filler_square,None,None,None,None,None,None,None,None,None,None,3,1.6979029178619385,None,,,,,0,0,0,0,0,122,122,191,538.7002191543579,,,,,,,,,,,,,,,,,,,,,,,,,,,,,,,,,,,,,,,,,,,,,,,,,,,,,,,,,,,,,,,,,,,,,,,,,,,,,,,,,139.16988170009114,107.1557092243542,127.81958994865117,63.64877165776082,158.7747618543562,158.7747618543562,2.1,2.12,-181,-267,0,-269,207,278,538.688054561615,538.6881339550018,538.6910905838013,538.7002191543579,538.850346326828,538.850346326828,538.850346326828,538.850346326828,538.850346326828,538.850346326828,538.850346326828,540.4008059501648,3,1.6979029178619385,None,,,,,,,,,,,,,,,,,,151,1,2025-02-28_09h51.40.650,comp,2024.2.4,54.55174952234912,2025-02-28 09h53.02.065319 -0500,
123,123,0,filler_random,None,None,None,None,None,None,None,None,None,None,3,3.987231969833374,None,,,,,0,0,0,0,0,123,123,153,540.4185757637024,,,,,,,,,,,,,,,,,,,,,,,,,,,,,,,,,,,,,,,,,,,,,,,,,,,,,,,,,,,,,,,,,,,,,,,,,,,,,,,,,177.0211671971211,61.10626495707255,152.74335357560955,99.75017919059667,110.96445935450708,106.82668565799744,2.1,2.11,-176,271,0,270,199,-256,540.4024333953857,540.4025115966797,540.4055480957031,540.4185757637024,540.5689804553986,540.5689804553986,540.5689804553986,540.5689804553986,540.5689804553986,540.5689804553986,540.5689804553986,544.419570684433,3,3.987231969833374,None,,,,,,,,,,,,,,,,,,151,1,2025-02-28_09h51.40.650,comp,2024.2.4,54.55174952234912,2025-02-28 09h53.02.065319 -0500,
124,124,0,filler_square,None,None,None,None,None,None,None,None,None,None,3,3.6746339797973633,None,,,,,0,0,0,0,0,124,124,174,544.4359233379364,,,,,,,,,,,,,,,,,,,,,,,,,,,,,,,,,,,,,,,,,,,,,,,,,,,,,,,,,,,,,,,,,,,,,,,,,,,,,,,,,57.096097968530955,62.3267794707771,66.88607863567434,66.88607863567434,60.14827449388217,60.430487294641594,4.0,4.1,-161,-258,0,2,160,-259,544.4216194152832,544.4216978549957,544.4251520633698,544.4359233379364,544.5887932777405,544.5887932777405,544.5887932777405,544.5887932777405,544.5887932777405,544.5887932777405,544.5887932777405,548.1208074092865,3,3.6746339797973633,None,,,,,,,,,,,,,,,,,,151,1,2025-02-28_09h51.40.650,comp,2024.2.4,54.55174952234912,2025-02-28 09h53.02.065319 -0500,
125,125,0,catch,None,None,None,None,None,None,None,None,None,None,3,1.2837543487548828,None,,,,,0,0,0,0,0,125,125,128,548.1382315158844,,,,,,,,,,,,,,,,,,,,,,,,,,,,,,,,,,,,,,,,,,,,,,,,,,,,,,,,,,,,,,,,,,,,,,,,,,,,,,,,,94,96,125,65,150,175,3.0,3.1,-176,259,0,3,216,-260,548.1229996681213,548.1230821609497,548.1266252994537,548.1382315158844,548.2846601009369,548.2846601009369,548.2846601009369,548.2846601009369,548.2846601009369,548.2846601009369,548.2846601009369,549.4255638122559,3,1.2837543487548828,None,,,,,,,,,,,,,,,,,,151,1,2025-02-28_09h51.40.650,comp,2024.2.4,54.55174952234912,2025-02-28 09h53.02.065319 -0500,
126,126,0,filler_square,None,None,None,None,None,None,None,None,None,None,3,3.009356737136841,None,,,,,0,0,0,0,0,126,126,180,549.4448745250702,,,,,,,,,,,,,,,,,,,,,,,,,,,,,,,,,,,,,,,,,,,,,,,,,,,,,,,,,,,,,,,,,,,,,,,,,,,,,,,,,85.82961043337018,85.82961043337018,58.20525977665541,61.534874236324605,79.35102619514645,63.12005216047544,2.2,2.22,-170,253,0,-260,158,-283,549.427659034729,549.4277610778809,549.4309449195862,549.4448745250702,549.5878720283508,549.5878720283508,549.5878720283508,549.5878720283508,549.5878720283508,549.5878720283508,549.5878720283508,552.4564428329468,3,3.009356737136841,None,,,,,,,,,,,,,,,,,,151,1,2025-02-28_09h51.40.650,comp,2024.2.4,54.55174952234912,2025-02-28 09h53.02.065319 -0500,
127,127,0,critical,dwh,35.0,2.1,upper,127.0,127.0,125.0,200.0,200.0,125.0,3,2.6296889781951904,None,,,,,0,0,0,0,0,127,127,29,552.4724657535553,,,,,,,,,,,,,,,,,,,,,,,,,,,,,,,,,,,,,,,,,,,,,,,,,,,,,,,,,,,,,,,,,,,,,,,,,,,,,,,,,127.0,127.0,125.0,200.0,200.0,125.0,2.1,2.11,-260,256,0,261,258,-272,552.4580743312836,552.4581799507141,552.4616279602051,552.4724657535553,552.622474193573,552.622474193573,552.622474193573,552.622474193573,552.622474193573,552.622474193573,552.622474193573,555.1053333282471,3,2.6296889781951904,None,,,,,,,,,,,,,,,,,,151,1,2025-02-28_09h51.40.650,comp,2024.2.4,54.55174952234912,2025-02-28 09h53.02.065319 -0500,
128,128,0,critical,dwh,20.0,2.1,upper,141.0,141.0,125.0,200.0,200.0,125.0,2,2.913465976715088,None,,,,,0,0,0,0,0,128,128,7,555.1250402927399,,,,,,,,,,,,,,,,,,,,,,,,,,,,,,,,,,,,,,,,,,,,,,,,,,,,,,,,,,,,,,,,,,,,,,,,,,,,,,,,,141.0,141.0,125.0,200.0,200.0,125.0,2.1,2.12,-266,-280,0,-279,258,282,555.1067998409271,555.106876373291,555.1099090576172,555.1250402927399,555.27263879776,555.27263879776,555.27263879776,555.27263879776,555.27263879776,555.27263879776,555.27263879776,558.0410122871399,2,2.913465976715088,None,,,,,,,,,,,,,,,,,,151,1,2025-02-28_09h51.40.650,comp,2024.2.4,54.55174952234912,2025-02-28 09h53.02.065319 -0500,
129,129,0,critical,dwh,35.0,2.1,lower,70.0,70.0,57.0,133.0,133.0,57.0,2,1.372877836227417,None,,,,,0,0,0,0,0,129,129,28,558.057724237442,,,,,,,,,,,,,,,,,,,,,,,,,,,,,,,,,,,,,,,,,,,,,,,,,,,,,,,,,,,,,,,,,,,,,,,,,,,,,,,,,70.0,70.0,57.0,133.0,133.0,57.0,2.1,2.12,-198,-288,0,-262,191,284,558.0425593852997,558.042638540268,558.0460934638977,558.057724237442,558.1955413818359,558.1955413818359,558.1955413818359,558.1955413818359,558.1955413818359,558.1955413818359,558.1955413818359,559.4411735534668,2,1.372877836227417,None,,,,,,,,,,,,,,,,,,151,1,2025-02-28_09h51.40.650,comp,2024.2.4,54.55174952234912,2025-02-28 09h53.02.065319 -0500,
130,130,0,critical,hdw,35.0,3.0,upper,200.0,125.0,127.0,127.0,125.0,200.0,3,1.7333226203918457,None,,,,,0,0,0,0,0,130,130,111,559.4569263458252,,,,,,,,,,,,,,,,,,,,,,,,,,,,,,,,,,,,,,,,,,,,,,,,,,,,,,,,,,,,,,,,,,,,,,,,,,,,,,,,,200.0,125.0,127.0,127.0,125.0,200.0,3.0,3.1,-222,275,0,-11,260,-285,559.4426467418671,559.4427247047424,559.4461586475372,559.4569263458252,559.6132824420929,559.6132824420929,559.6132824420929,559.6132824420929,559.6132824420929,559.6132824420929,559.6132824420929,561.2081251144409,3,1.7333226203918457,None,,,,,,,,,,,,,,,,,,151,1,2025-02-28_09h51.40.650,comp,2024.2.4,54.55174952234912,2025-02-28 09h53.02.065319 -0500,
131,131,0,filler_random,None,None,None,None,None,None,None,None,None,None,1,1.8061542510986328,None,,,,,0,0,0,0,0,131,131,165,561.2241172790527,,,,,,,,,,,,,,,,,,,,,,,,,,,,,,,,,,,,,,,,,,,,,,,,,,,,,,,,,,,,,,,,,,,,,,,,,,,,,,,,,152.92440387997567,149.7982255053647,140.55224789654795,123.57779804213602,82.45521357091584,139.48731762694905,3.0,3.2,-233,-283,0,-12,228,262,561.2100660800934,561.2101449966431,561.2137904167175,561.2241172790527,561.3737235069275,561.3737235069275,561.3737235069275,561.3737235069275,561.3737235069275,561.3737235069275,561.3737235069275,563.047304391861,1,1.8061542510986328,None,,,,,,,,,,,,,,,,,,151,1,2025-02-28_09h51.40.650,comp,2024.2.4,54.55174952234912,2025-02-28 09h53.02.065319 -0500,
132,132,0,critical,dhw,20.0,2.1,lower,78.0,78.0,133.0,57.0,57.0,133.0,3,1.6552348136901855,None,,,,,0,0,0,0,0,132,132,2,563.0632452964783,,,,,,,,,,,,,,,,,,,,,,,,,,,,,,,,,,,,,,,,,,,,,,,,,,,,,,,,,,,,,,,,,,,,,,,,,,,,,,,,,78.0,78.0,133.0,57.0,57.0,133.0,2.1,2.11,-164,266,0,265,191,-276,563.048971414566,563.0490460395813,563.052383184433,563.0632452964783,563.2091965675354,563.2091965675354,563.2091965675354,563.2091965675354,563.2091965675354,563.2091965675354,563.2091965675354,564.72616147995,3,1.6552348136901855,None,,,,,,,,,,,,,,,,,,151,1,2025-02-28_09h51.40.650,comp,2024.2.4,54.55174952234912,2025-02-28 09h53.02.065319 -0500,
133,133,0,filler_random,None,None,None,None,None,None,None,None,None,None,1,1.959824562072754,None,,,,,0,0,0,0,0,133,133,167,564.7419903278351,,,,,,,,,,,,,,,,,,,,,,,,,,,,,,,,,,,,,,,,,,,,,,,,,,,,,,,,,,,,,,,,,,,,,,,,,,,,,,,,,103.07774287273571,138.5703621986769,138.09350175651093,82.42974676518044,141.13109405946682,177.66155597534805,3.0,3.2,-207,-274,0,-16,226,265,564.7279300689697,564.7280077934265,564.7313966751099,564.7419903278351,564.8939480781555,564.8939480781555,564.8939480781555,564.8939480781555,564.8939480781555,564.8939480781555,564.8939480781555,566.7168197631836,1,1.959824562072754,None,,,,,,,,,,,,,,,,,,151,1,2025-02-28_09h51.40.650,comp,2024.2.4,54.55174952234912,2025-02-28 09h53.02.065319 -0500,
134,134,0,critical,hdw,20.0,1.0,upper,200.0,125.0,141.0,141.0,125.0,200.0,1,1.7388906478881836,None,,,,,0,0,0,0,0,134,134,115,566.7325406074524,,,,,,,,,,,,,,,,,,,,,,,,,,,,,,,,,,,,,,,,,,,,,,,,,,,,,,,,,,,,,,,,,,,,,,,,,,,,,,,,,200.0,125.0,141.0,141.0,125.0,200.0,1.0,1.1,-709,252,-480,262,-214,267,566.718302488327,566.7183766365051,566.7213137149811,566.7325406074524,566.8789370059967,566.8789370059967,566.8789370059967,566.8789370059967,566.8789370059967,566.8789370059967,566.8789370059967,568.4779000282288,1,1.7388906478881836,None,,,,,,,,,,,,,,,,,,151,1,2025-02-28_09h51.40.650,comp,2024.2.4,54.55174952234912,2025-02-28 09h53.02.065319 -0500,
135,135,0,critical,dhw,35.0,2.1,upper,127.0,127.0,200.0,125.0,125.0,200.0,2,3.9846043586730957,None,,,,,0,0,0,0,0,135,135,25,568.4938881397247,,,,,,,,,,,,,,,,,,,,,,,,,,,,,,,,,,,,,,,,,,,,,,,,,,,,,,,,,,,,,,,,,,,,,,,,,,,,,,,,,127.0,127.0,200.0,125.0,125.0,200.0,2.1,2.12,-222,-270,0,-267,258,286,568.4794445037842,568.4795231819153,568.482608795166,568.4938881397247,568.6483745574951,568.6483745574951,568.6483745574951,568.6483745574951,568.6483745574951,568.6483745574951,568.6483745574951,572.4843235015869,2,3.9846043586730957,None,,,,,,,,,,,,,,,,,,151,1,2025-02-28_09h51.40.650,comp,2024.2.4,54.55174952234912,2025-02-28 09h53.02.065319 -0500,
136,136,0,critical,hwd,35.0,1.0,lower,133.0,57.0,57.0,133.0,70.0,70.0,2,2.345557451248169,None,,,,,0,0,0,0,0,136,136,96,572.5002546310425,,,,,,,,,,,,,,,,,,,,,,,,,,,,,,,,,,,,,,,,,,,,,,,,,,,,,,,,,,,,,,,,,,,,,,,,,,,,,,,,,133.0,57.0,57.0,133.0,70.0,70.0,1.0,1.2,-191,12,0,2,198,-18,572.4859037399292,572.4859845638275,572.4893069267273,572.5002546310425,572.646849155426,572.646849155426,572.646849155426,572.646849155426,572.646849155426,572.646849155426,572.646849155426,574.8618397712708,2,2.345557451248169,None,,,,,,,,,,,,,,,,,,151,1,2025-02-28_09h51.40.650,comp,2024.2.4,54.55174952234912,2025-02-28 09h53.02.065319 -0500,
137,137,0,critical,wdh,20.0,1.0,upper,125.0,200.0,141.0,141.0,200.0,125.0,1,3.5453107357025146,None,,,,,0,0,0,0,0,137,137,79,574.8777568340302,,,,,,,,,,,,,,,,,,,,,,,,,,,,,,,,,,,,,,,,,,,,,,,,,,,,,,,,,,,,,,,,,,,,,,,,,,,,,,,,,125.0,200.0,141.0,141.0,200.0,125.0,1.0,1.1,-746,284,-480,288,-251,252,574.8634157180786,574.8634939193726,574.8667728900909,574.8777568340302,575.020539522171,575.020539522171,575.020539522171,575.020539522171,575.020539522171,575.020539522171,575.020539522171,578.4305970668793,1,3.5453107357025146,None,,,,,,,,,,,,,,,,,,151,1,2025-02-28_09h51.40.650,comp,2024.2.4,54.55174952234912,2025-02-28 09h53.02.065319 -0500,
138,138,0,critical,dwh,20.0,3.0,lower,78.0,78.0,57.0,133.0,133.0,57.0,2,2.2392845153808594,None,,,,,0,0,0,0,0,138,138,68,578.4465672969818,,,,,,,,,,,,,,,,,,,,,,,,,,,,,,,,,,,,,,,,,,,,,,,,,,,,,,,,,,,,,,,,,,,,,,,,,,,,,,,,,78.0,78.0,57.0,133.0,133.0,57.0,3.0,3.1,-202,269,0,15,191,-255,578.4321293830872,578.4322073459625,578.4355478286743,578.4465672969818,578.5955379009247,578.5955379009247,578.5955379009247,578.5955379009247,578.5955379009247,578.5955379009247,578.5955379009247,580.699631690979,2,2.2392845153808594,None,,,,,,,,,,,,,,,,,,151,1,2025-02-28_09h51.40.650,comp,2024.2.4,54.55174952234912,2025-02-28 09h53.02.065319 -0500,
139,139,0,filler_square,None,None,None,None,None,None,None,None,None,None,3,1.9461450576782227,None,,,,,0,0,0,0,0,139,139,207,580.71581864357,,,,,,,,,,,,,,,,,,,,,,,,,,,,,,,,,,,,,,,,,,,,,,,,,,,,,,,,,,,,,,,,,,,,,,,,,,,,,,,,,86.41132457607829,84.6597470139688,117.73048245575828,95.88617457372379,161.79471839734487,161.79471839734487,1.0,1.2,-186,-8,0,6,225,-7,580.7015609741211,580.7016384601593,580.7054860591888,580.71581864357,580.8678524494171,580.8678524494171,580.8678524494171,580.8678524494171,580.8678524494171,580.8678524494171,580.8678524494171,582.6663687229156,3,1.9461450576782227,None,,,,,,,,,,,,,,,,,,151,1,2025-02-28_09h51.40.650,comp,2024.2.4,54.55174952234912,2025-02-28 09h53.02.065319 -0500,
