thisN,thisTrialN,thisRepN,effect,order,distance,config,diag,h_1,w_1,h_2,w_2,h_3,w_3,rect_choice.keys,rect_choice.rt,rect_choice.duration,instructions_loop.thisRepN,instructions_loop.thisTrialN,instructions_loop.thisN,instructions_loop.thisIndex,blocks.thisRepN,blocks.thisTrialN,blocks.thisN,blocks.thisIndex,trials.thisRepN,trials.thisTrialN,trials.thisN,trials.thisIndex,thisRow.t,notes,consent.started,agree_button.started,decline_button.started,consent_img.started,mouse.started,consent.stopped,agree_button.numClicks,agree_button.timesOn,agree_button.timesOff,decline_button.numClicks,decline_button.timesOn,decline_button.timesOff,mouse.x,mouse.y,mouse.leftButton,mouse.midButton,mouse.rightButton,mouse.time,mouse.clicked_name,exp_params.started,exp_params.stopped,welcome.started,welcome_text.started,welcome.stopped,instructions_1.started,instructions_1_text_1.started,instructions_1_text_2.started,key_resp.started,instructions_1.stopped,instructions_loop.key_resp.keys,instructions_loop.key_resp.rt,instructions_loop.key_resp.duration,instructions_2.started,instructions_2_text_1.started,instructions_2_text_2.started,key_resp_2.started,instructions_2.stopped,instructions_loop.key_resp_2.keys,instructions_loop.key_resp_2.rt,instructions_loop.key_resp_2.duration,instructions_3.started,instructions_3_text_1.started,r1_instr3.started,r2_instr3.started,r3_instr3.started,r1_instr3_label.started,r2_instr3_label.started,r3_instr3_label.started,instructions_3_text_3.started,instructions_3_text_4.started,key_resp_3.started,instructions_3.stopped,instructions_loop.key_resp_3.keys,instructions_loop.key_resp_3.rt,instructions_loop.key_resp_3.duration,instructions_4.started,instructions_4_text_1.started,instructions_4_text_3.started,instructions_4_text_2.started,key_resp_4.started,instructions_4.stopped,instructions_loop.key_resp_4.keys,instructions_loop.key_resp_4.rt,instructions_loop.key_resp_4.duration,instructions_5.started,instructions_5_text_1.started,instructions_5_text_2.started,key_resp_5.started,instructions_5.stopped,instructions_loop.key_resp_5.keys,instructions_loop.key_resp_5.rt,instructions_loop.key_resp_5.duration,start_exp.started,start_exp_text.started,key_resp_6.started,start_exp.stopped,key_resp_6.keys,key_resp_6.rt,key_resp_6.duration,h_1_tmp,w_1_tmp,h_2_tmp,w_2_tmp,h_3_tmp,w_3_tmp,config_tmp,config_tmp_1,r_1_x,r_1_y,r_2_x,r_2_y,r_3_x,r_3_y,pre_trial.started,pre_trial.stopped,choice_trial.started,rect_choice.started,r_1.started,r_2.started,r_3.started,r_1_label.started,r_2_label.started,r_3_label.started,prompt.started,choice_trial.stopped,trials.rect_choice.keys,trials.rect_choice.rt,trials.rect_choice.duration,end_block.started,end_block_text.started,end_block.stopped,end.started,end_text.started,key_resp_7.started,end.stopped,key_resp_7.keys,key_resp_7.rt,key_resp_7.duration,debriefing.started,debrief_form.started,end_debrief.started,debriefing.stopped,end_debrief.keys,end_debrief.rt,end_debrief.duration,participant,computer,date,expName,psychopyVersion,frameRate,expStart,
,,,,,,,,,,,,,,,,,,,,,,,,,,,,,,,0.014728784561157227,0.08188581466674805,0.08188581466674805,0.08188581466674805,0.014537334442138672,8.239710569381714,1,[8.155008316040039],[8.155039072036743],0,,,[-82.0],[-524.0],[1],[0],[0],[8.205537796020508],['agree_button'],,,,,,,,,,,,,,,,,,,,,,,,,,,,,,,,,,,,,,,,,,,,,,,,,,,,,,,,,,,,,,,,,,,,,,,,,,,,,,,,,,,,,,,,,,,,,,,,,,,,,,,,,,,152,2,2025-02-28_09h52.21.721,comp,2024.2.4,None,2025-02-28 09h57.26.956963 -0500,
,,,,,,,,,,,,,,,,,,,,,,,,,,,,,,,,,,,,,,,,,,,,,,,,,,8.240238428115845,8.24030590057373,,,,,,,,,,,,,,,,,,,,,,,,,,,,,,,,,,,,,,,,,,,,,,,,,,,,,,,,,,,,,,,,,,,,,,,,,,,,,,,,,,,,,,,,,,,,,,,,,,,,,,,,,152,2,2025-02-28_09h52.21.721,comp,2024.2.4,None,2025-02-28 09h57.26.956963 -0500,
,,,,,,,,,,,,,,,,,,,,,,,,,,,,,,,,,,,,,,,,,,,,,,,,,,,,8.240349769592285,8.256767272949219,10.243488550186157,,,,,,,,,,,,,,,,,,,,,,,,,,,,,,,,,,,,,,,,,,,,,,,,,,,,,,,,,,,,,,,,,,,,,,,,,,,,,,,,,,,,,,,,,,,,,,,,,,,,,,152,2,2025-02-28_09h52.21.721,comp,2024.2.4,None,2025-02-28 09h57.26.956963 -0500,
0,0,0,,,,,,,,,,,,,,,0,0,0,0,,,,,,,,,10.260426759719849,,,,,,,,,,,,,,,,,,,,,,,,,,10.2443368434906,10.260426759719849,10.260426759719849,11.742725133895874,14.379641056060791,space,2.635091781616211,None,14.3797025680542,14.394806385040283,14.394806385040283,15.892494440078735,27.115734577178955,space,11.205304145812988,None,27.11588740348816,27.172500133514404,27.172500133514404,27.172500133514404,27.172500133514404,27.172500133514404,27.172500133514404,27.172500133514404,27.172500133514404,27.172500133514404,28.615695476531982,33.404497146606445,space,4.778140068054199,None,33.40466809272766,33.42262578010559,33.42262578010559,33.42262578010559,34.91809916496277,39.88772511482239,space,4.964233875274658,None,39.887879371643066,39.90288305282593,39.90288305282593,41.405516386032104,43.371684074401855,space,1.9482216835021973,None,43.37187957763672,43.38716745376587,43.38716745376587,44.87173128128052,space,1.4705860614776611,None,,,,,,,,,,,,,,,,,,,,,,,,,,,,,,,,,,,,,,,,,,,,,,,152,2,2025-02-28_09h52.21.721,comp,2024.2.4,None,2025-02-28 09h57.26.956963 -0500,
0,0,0,filler_square,None,None,None,None,None,None,None,None,None,None,2,2.376786947250366,None,,,,,0,0,0,0,0,0,0,199,45.04129076004028,,,,,,,,,,,,,,,,,,,,,,,,,,,,,,,,,,,,,,,,,,,,,,,,,,,,,,,,,,,,,,,,,,,,,,,,,,,,,,,,,68.40790794142005,77.13243060551682,136.54693412188772,136.54693412188772,107.20187804396878,83.54454342323771,3.0,3.2,-203,-256,0,-19,206,272,45.022879123687744,45.02295684814453,45.02601075172424,45.04129076004028,45.19719576835632,45.19719576835632,45.19719576835632,45.19719576835632,45.19719576835632,45.19719576835632,45.19719576835632,47.426337003707886,2,2.376786947250366,None,,,,,,,,,,,,,,,,,,152,2,2025-02-28_09h52.21.721,comp,2024.2.4,None,2025-02-28 09h57.26.956963 -0500,
1,1,0,critical,hwd,35.0,1.0,lower,133.0,57.0,57.0,133.0,70.0,70.0,1,2.456573963165283,None,,,,,0,0,0,0,0,1,1,96,47.44216799736023,,,,,,,,,,,,,,,,,,,,,,,,,,,,,,,,,,,,,,,,,,,,,,,,,,,,,,,,,,,,,,,,,,,,,,,,,,,,,,,,,133.0,57.0,57.0,133.0,70.0,70.0,1.0,1.2,-191,17,0,1,198,13,47.4279465675354,47.42802715301514,47.431366205215454,47.44216799736023,47.58956480026245,47.58956480026245,47.58956480026245,47.58956480026245,47.58956480026245,47.58956480026245,47.58956480026245,49.907339572906494,1,2.456573963165283,None,,,,,,,,,,,,,,,,,,152,2,2025-02-28_09h52.21.721,comp,2024.2.4,None,2025-02-28 09h57.26.956963 -0500,
2,2,0,critical,wdh,35.0,4.0,lower,57.0,133.0,70.0,70.0,133.0,57.0,3,2.0793673992156982,None,,,,,0,0,0,0,0,2,2,76,49.92321038246155,,,,,,,,,,,,,,,,,,,,,,,,,,,,,,,,,,,,,,,,,,,,,,,,,,,,,,,,,,,,,,,,,,,,,,,,,,,,,,,,,57.0,133.0,70.0,70.0,133.0,57.0,4.0,4.2,-198,-3,0,-270,160,10,49.9088089466095,49.908891677856445,49.912343978881836,49.92321038246155,50.072263956069946,50.072263956069946,50.072263956069946,50.072263956069946,50.072263956069946,50.072263956069946,50.072263956069946,52.00771117210388,3,2.0793673992156982,None,,,,,,,,,,,,,,,,,,152,2,2025-02-28_09h52.21.721,comp,2024.2.4,None,2025-02-28 09h57.26.956963 -0500,
3,3,0,critical,whd,20.0,1.0,lower,57.0,133.0,133.0,57.0,78.0,78.0,2,1.8830878734588623,None,,,,,0,0,0,0,0,3,3,90,52.02328872680664,,,,,,,,,,,,,,,,,,,,,,,,,,,,,,,,,,,,,,,,,,,,,,,,,,,,,,,,,,,,,,,,,,,,,,,,,,,,,,,,,57.0,133.0,133.0,57.0,78.0,78.0,1.0,1.2,-191,-8,0,-1,164,16,52.009225606918335,52.009305238723755,52.01263165473938,52.02328872680664,52.171483516693115,52.171483516693115,52.171483516693115,52.171483516693115,52.171483516693115,52.171483516693115,52.171483516693115,53.908896684646606,2,1.8830878734588623,None,,,,,,,,,,,,,,,,,,152,2,2025-02-28_09h52.21.721,comp,2024.2.4,None,2025-02-28 09h57.26.956963 -0500,
4,4,0,critical,hdw,20.0,3.0,upper,200.0,125.0,141.0,141.0,125.0,200.0,3,8.00601077079773,None,,,,,0,0,0,0,0,4,4,117,53.924654960632324,,,,,,,,,,,,,,,,,,,,,,,,,,,,,,,,,,,,,,,,,,,,,,,,,,,,,,,,,,,,,,,,,,,,,,,,,,,,,,,,,200.0,125.0,141.0,141.0,125.0,200.0,3.0,3.1,-229,286,0,-10,266,-253,53.91037917137146,53.91052484512329,53.91395807266235,53.924654960632324,54.073150873184204,54.073150873184204,54.073150873184204,54.073150873184204,54.073150873184204,54.073150873184204,54.073150873184204,61.93832278251648,3,8.00601077079773,None,,,,,,,,,,,,,,,,,,152,2,2025-02-28_09h52.21.721,comp,2024.2.4,None,2025-02-28 09h57.26.956963 -0500,
5,5,0,critical,wdh,20.0,2.1,lower,57.0,133.0,78.0,78.0,133.0,57.0,3,3.7753350734710693,None,,,,,0,0,0,0,0,5,5,10,61.95446228981018,,,,,,,,,,,,,,,,,,,,,,,,,,,,,,,,,,,,,,,,,,,,,,,,,,,,,,,,,,,,,,,,,,,,,,,,,,,,,,,,,57.0,133.0,78.0,78.0,133.0,57.0,2.1,2.11,-202,256,0,258,164,-262,61.939854860305786,61.939931869506836,61.942792654037476,61.95446228981018,62.09502601623535,62.09502601623535,62.09502601623535,62.09502601623535,62.09502601623535,62.09502601623535,62.09502601623535,65.74536085128784,3,3.7753350734710693,None,,,,,,,,,,,,,,,,,,152,2,2025-02-28_09h52.21.721,comp,2024.2.4,None,2025-02-28 09h57.26.956963 -0500,
6,6,0,critical,hdw,35.0,3.0,lower,133.0,57.0,70.0,70.0,57.0,133.0,1,5.4591779708862305,None,,,,,0,0,0,0,0,6,6,110,65.76138830184937,,,,,,,,,,,,,,,,,,,,,,,,,,,,,,,,,,,,,,,,,,,,,,,,,,,,,,,,,,,,,,,,,,,,,,,,,,,,,,,,,133.0,57.0,70.0,70.0,57.0,133.0,3.0,3.2,-160,-290,0,17,198,253,65.74708104133606,65.74718642234802,65.75071501731873,65.76138830184937,65.89959216117859,65.89959216117859,65.89959216117859,65.89959216117859,65.89959216117859,65.89959216117859,65.89959216117859,71.23104190826416,1,5.4591779708862305,None,,,,,,,,,,,,,,,,,,152,2,2025-02-28_09h52.21.721,comp,2024.2.4,None,2025-02-28 09h57.26.956963 -0500,
7,7,0,critical,whd,35.0,3.0,lower,57.0,133.0,133.0,57.0,70.0,70.0,2,5.050436019897461,None,,,,,0,0,0,0,0,7,7,86,71.2476499080658,,,,,,,,,,,,,,,,,,,,,,,,,,,,,,,,,,,,,,,,,,,,,,,,,,,,,,,,,,,,,,,,,,,,,,,,,,,,,,,,,57.0,133.0,133.0,57.0,70.0,70.0,3.0,3.2,-191,-256,0,1,160,287,71.23264002799988,71.2327253818512,71.23679947853088,71.2476499080658,71.3962984085083,71.3962984085083,71.3962984085083,71.3962984085083,71.3962984085083,71.3962984085083,71.3962984085083,76.31504511833191,2,5.050436019897461,None,,,,,,,,,,,,,,,,,,152,2,2025-02-28_09h52.21.721,comp,2024.2.4,None,2025-02-28 09h57.26.956963 -0500,
8,8,0,filler_square,None,None,None,None,None,None,None,None,None,None,2,3.098925828933716,None,,,,,0,0,0,0,0,8,8,195,76.33495235443115,,,,,,,,,,,,,,,,,,,,,,,,,,,,,,,,,,,,,,,,,,,,,,,,,,,,,,,,,,,,,,,,,,,,,,,,,,,,,,,,,138.8398435320305,61.61054873270486,170.12418674890853,170.12418674890853,127.56323000335236,88.50197725814427,2.1,2.12,-212,-264,0,-276,225,251,76.31696939468384,76.31710362434387,76.32029962539673,76.33495235443115,76.48175072669983,76.48175072669983,76.48175072669983,76.48175072669983,76.48175072669983,76.48175072669983,76.48175072669983,79.44974184036255,2,3.098925828933716,None,,,,,,,,,,,,,,,,,,152,2,2025-02-28_09h52.21.721,comp,2024.2.4,None,2025-02-28 09h57.26.956963 -0500,
9,9,0,critical,wdh,20.0,1.0,lower,57.0,133.0,78.0,78.0,133.0,57.0,3,6.272802352905273,None,,,,,0,0,0,0,0,9,9,78,79.46515941619873,,,,,,,,,,,,,,,,,,,,,,,,,,,,,,,,,,,,,,,,,,,,,,,,,,,,,,,,,,,,,,,,,,,,,,,,,,,,,,,,,57.0,133.0,78.0,78.0,133.0,57.0,1.0,1.3,278,-279,480,-288,644,-256,79.45133209228516,79.45145273208618,79.45490074157715,79.46515941619873,79.61631464958191,79.61631464958191,79.61631464958191,79.61631464958191,79.61631464958191,79.61631464958191,79.61631464958191,85.75183057785034,3,6.272802352905273,None,,,,,,,,,,,,,,,,,,152,2,2025-02-28_09h52.21.721,comp,2024.2.4,None,2025-02-28 09h57.26.956963 -0500,
10,10,0,filler_random,None,None,None,None,None,None,None,None,None,None,1,1.5307323932647705,None,,,,,0,0,0,0,0,10,10,133,85.76800417900085,,,,,,,,,,,,,,,,,,,,,,,,,,,,,,,,,,,,,,,,,,,,,,,,,,,,,,,,,,,,,,,,,,,,,,,,,,,,,,,,,87.09543043470181,197.465105980346,68.11640589679804,90.7095902057072,74.23138691237618,67.42071040022236,4.0,4.1,-240,-281,0,-9,175,-254,85.75350379943848,85.75359606742859,85.75755167007446,85.76800417900085,85.92264986038208,85.92264986038208,85.92264986038208,85.92264986038208,85.92264986038208,85.92264986038208,85.92264986038208,87.30264973640442,1,1.5307323932647705,None,,,,,,,,,,,,,,,,,,152,2,2025-02-28_09h52.21.721,comp,2024.2.4,None,2025-02-28 09h57.26.956963 -0500,
11,11,0,filler_random,None,None,None,None,None,None,None,None,None,None,3,3.1866958141326904,None,,,,,0,0,0,0,0,11,11,165,87.31936049461365,,,,,,,,,,,,,,,,,,,,,,,,,,,,,,,,,,,,,,,,,,,,,,,,,,,,,,,,,,,,,,,,,,,,,,,,,,,,,,,,,170.15285319485838,116.55804986662369,92.41919909726644,127.45084794065359,139.24598196036777,186.07274085174194,1.0,1.1,-698,275,-480,289,-227,273,87.30442786216736,87.30452084541321,87.30860996246338,87.31936049461365,87.4724748134613,87.4724748134613,87.4724748134613,87.4724748134613,87.4724748134613,87.4724748134613,87.4724748134613,90.51088190078735,3,3.1866958141326904,None,,,,,,,,,,,,,,,,,,152,2,2025-02-28_09h52.21.721,comp,2024.2.4,None,2025-02-28 09h57.26.956963 -0500,
12,12,0,critical,hwd,35.0,4.0,upper,200.0,125.0,125.0,200.0,127.0,127.0,2,11.278993844985962,None,,,,,0,0,0,0,0,12,12,101,90.5313093662262,,,,,,,,,,,,,,,,,,,,,,,,,,,,,,,,,,,,,,,,,,,,,,,,,,,,,,,,,,,,,,,,,,,,,,,,,,,,,,,,,200.0,125.0,125.0,200.0,127.0,127.0,4.0,4.2,-258,6,0,-285,260,13,90.51245403289795,90.51253843307495,90.51578760147095,90.5313093662262,90.66905045509338,90.66905045509338,90.66905045509338,90.66905045509338,90.66905045509338,90.66905045509338,90.66905045509338,101.81645798683167,2,11.278993844985962,None,,,,,,,,,,,,,,,,,,152,2,2025-02-28_09h52.21.721,comp,2024.2.4,None,2025-02-28 09h57.26.956963 -0500,
13,13,0,filler_square,None,None,None,None,None,None,None,None,None,None,1,1.5716168880462646,None,,,,,0,0,0,0,0,13,13,192,101.83831715583801,,,,,,,,,,,,,,,,,,,,,,,,,,,,,,,,,,,,,,,,,,,,,,,,,,,,,,,,,,,,,,,,,,,,,,,,,,,,,,,,,184.7376353282025,184.7376353282025,140.4911187955829,156.99111545242968,147.7849083563063,112.28127859517141,1.0,1.2,-267,0,0,11,231,-1,101.81844735145569,101.81857228279114,101.82181739807129,101.83831715583801,101.97372245788574,101.97372245788574,101.97372245788574,101.97372245788574,101.97372245788574,101.97372245788574,101.97372245788574,103.42749309539795,1,1.5716168880462646,None,,,,,,,,,,,,,,,,,,152,2,2025-02-28_09h52.21.721,comp,2024.2.4,None,2025-02-28 09h57.26.956963 -0500,
14,14,0,critical,wdh,35.0,3.0,upper,125.0,200.0,127.0,127.0,200.0,125.0,3,4.8635663986206055,None,,,,,0,0,0,0,0,14,14,75,103.44314193725586,,,,,,,,,,,,,,,,,,,,,,,,,,,,,,,,,,,,,,,,,,,,,,,,,,,,,,,,,,,,,,,,,,,,,,,,,,,,,,,,,125.0,200.0,127.0,127.0,200.0,125.0,3.0,3.1,-260,272,0,16,222,-284,103.42897534370422,103.42905592918396,103.43289518356323,103.44314193725586,103.59022545814514,103.59022545814514,103.59022545814514,103.59022545814514,103.59022545814514,103.59022545814514,103.59022545814514,108.31060123443604,3,4.8635663986206055,None,,,,,,,,,,,,,,,,,,152,2,2025-02-28_09h52.21.721,comp,2024.2.4,None,2025-02-28 09h57.26.956963 -0500,
15,15,0,critical,hdw,35.0,2.1,lower,133.0,57.0,70.0,70.0,57.0,133.0,1,7.738430976867676,None,,,,,0,0,0,0,0,15,15,44,108.32748603820801,,,,,,,,,,,,,,,,,,,,,,,,,,,,,,,,,,,,,,,,,,,,,,,,,,,,,,,,,,,,,,,,,,,,,,,,,,,,,,,,,133.0,57.0,70.0,70.0,57.0,133.0,2.1,2.12,-160,-257,0,-265,198,253,108.31233525276184,108.31245827674866,108.31713366508484,108.32748603820801,108.47548604011536,108.47548604011536,108.47548604011536,108.47548604011536,108.47548604011536,108.47548604011536,108.47548604011536,116.07701563835144,1,7.738430976867676,None,,,,,,,,,,,,,,,,,,152,2,2025-02-28_09h52.21.721,comp,2024.2.4,None,2025-02-28 09h57.26.956963 -0500,
16,16,0,filler_random,None,None,None,None,None,None,None,None,None,None,3,2.6244893074035645,None,,,,,0,0,0,0,0,16,16,132,116.09750986099243,,,,,,,,,,,,,,,,,,,,,,,,,,,,,,,,,,,,,,,,,,,,,,,,,,,,,,,,,,,,,,,,,,,,,,,,,,,,,,,,,159.82883596544374,132.72583548386902,96.83115215527701,73.13440293290392,199.67581268654078,194.73680789538878,1.0,1.3,281,-271,480,-272,710,-271,116.07874274253845,116.07882475852966,116.08203411102295,116.09750986099243,116.24499368667603,116.24499368667603,116.24499368667603,116.24499368667603,116.24499368667603,116.24499368667603,116.24499368667603,118.73447966575623,3,2.6244893074035645,None,,,,,,,,,,,,,,,,,,152,2,2025-02-28_09h52.21.721,comp,2024.2.4,None,2025-02-28 09h57.26.956963 -0500,
17,17,0,critical,whd,35.0,1.0,lower,57.0,133.0,133.0,57.0,70.0,70.0,2,2.595716953277588,None,,,,,0,0,0,0,0,17,17,84,118.7502965927124,,,,,,,,,,,,,,,,,,,,,,,,,,,,,,,,,,,,,,,,,,,,,,,,,,,,,,,,,,,,,,,,,,,,,,,,,,,,,,,,,57.0,133.0,133.0,57.0,70.0,70.0,1.0,1.2,-191,-13,0,13,160,-14,118.73594880104065,118.7360291481018,118.73896098136902,118.7502965927124,118.89861941337585,118.89861941337585,118.89861941337585,118.89861941337585,118.89861941337585,118.89861941337585,118.89861941337585,121.36321306228638,2,2.595716953277588,None,,,,,,,,,,,,,,,,,,152,2,2025-02-28_09h52.21.721,comp,2024.2.4,None,2025-02-28 09h57.26.956963 -0500,
18,18,0,critical,dwh,20.0,1.0,lower,78.0,78.0,57.0,133.0,133.0,57.0,3,3.102874994277954,None,,,,,0,0,0,0,0,18,18,66,121.37921857833862,,,,,,,,,,,,,,,,,,,,,,,,,,,,,,,,,,,,,,,,,,,,,,,,,,,,,,,,,,,,,,,,,,,,,,,,,,,,,,,,,78.0,78.0,57.0,133.0,133.0,57.0,1.0,1.2,-202,14,0,7,191,-11,121.36474585533142,121.3648247718811,121.36896705627441,121.37921857833862,121.53846216201782,121.53846216201782,121.53846216201782,121.53846216201782,121.53846216201782,121.53846216201782,121.53846216201782,124.49704480171204,3,3.102874994277954,None,,,,,,,,,,,,,,,,,,152,2,2025-02-28_09h52.21.721,comp,2024.2.4,None,2025-02-28 09h57.26.956963 -0500,
19,19,0,filler_square,None,None,None,None,None,None,None,None,None,None,1,2.081251382827759,None,,,,,0,0,0,0,0,19,19,205,124.51281762123108,,,,,,,,,,,,,,,,,,,,,,,,,,,,,,,,,,,,,,,,,,,,,,,,,,,,,,,,,,,,,,,,,,,,,,,,,,,,,,,,,72.51226198751834,72.51226198751834,59.10761891740487,72.344364404273,63.98497529515828,70.82186537749888,1.0,1.2,-168,-17,0,12,168,19,124.49898910522461,124.49912142753601,124.50245189666748,124.51281762123108,124.6652262210846,124.6652262210846,124.6652262210846,124.6652262210846,124.6652262210846,124.6652262210846,124.6652262210846,126.5989203453064,1,2.081251382827759,None,,,,,,,,,,,,,,,,,,152,2,2025-02-28_09h52.21.721,comp,2024.2.4,None,2025-02-28 09h57.26.956963 -0500,
20,20,0,filler_square,None,None,None,None,None,None,None,None,None,None,3,2.1702606678009033,None,,,,,0,0,0,0,0,20,20,172,126.61572647094727,,,,,,,,,,,,,,,,,,,,,,,,,,,,,,,,,,,,,,,,,,,,,,,,,,,,,,,,,,,,,,,,,,,,,,,,,,,,,,,,,70.20753025053286,121.83952903960717,66.97768989488384,117.98848776120231,125.9575545770239,125.9575545770239,3.0,3.2,-216,-278,0,-13,218,265,126.60110139846802,126.60118818283081,126.60490870475769,126.61572647094727,126.7680070400238,126.7680070400238,126.7680070400238,126.7680070400238,126.7680070400238,126.7680070400238,126.7680070400238,128.7988932132721,3,2.1702606678009033,None,,,,,,,,,,,,,,,,,,152,2,2025-02-28_09h52.21.721,comp,2024.2.4,None,2025-02-28 09h57.26.956963 -0500,
21,21,0,critical,wdh,20.0,2.1,upper,125.0,200.0,141.0,141.0,200.0,125.0,1,6.548833608627319,None,,,,,0,0,0,0,0,21,21,35,128.8140573501587,,,,,,,,,,,,,,,,,,,,,,,,,,,,,,,,,,,,,,,,,,,,,,,,,,,,,,,,,,,,,,,,,,,,,,,,,,,,,,,,,125.0,200.0,141.0,141.0,200.0,125.0,2.1,2.12,-266,-288,0,-267,229,267,128.80034947395325,128.80044603347778,128.80375814437866,128.8140573501587,128.97165632247925,128.97165632247925,128.97165632247925,128.97165632247925,128.97165632247925,128.97165632247925,128.97165632247925,135.36903834342957,1,6.548833608627319,None,,,,,,,,,,,,,,,,,,152,2,2025-02-28_09h52.21.721,comp,2024.2.4,None,2025-02-28 09h57.26.956963 -0500,
22,22,0,critical,dhw,35.0,3.0,upper,127.0,127.0,200.0,125.0,125.0,200.0,2,4.72921085357666,None,,,,,0,0,0,0,0,22,22,51,135.38530850410461,,,,,,,,,,,,,,,,,,,,,,,,,,,,,,,,,,,,,,,,,,,,,,,,,,,,,,,,,,,,,,,,,,,,,,,,,,,,,,,,,127.0,127.0,200.0,125.0,125.0,200.0,3.0,3.2,-222,-252,0,-1,258,283,135.3707332611084,135.3708746433258,135.37454390525818,135.38530850410461,135.53402543067932,135.53402543067932,135.53402543067932,135.53402543067932,135.53402543067932,135.53402543067932,135.53402543067932,140.12134861946106,2,4.72921085357666,None,,,,,,,,,,,,,,,,,,152,2,2025-02-28_09h52.21.721,comp,2024.2.4,None,2025-02-28 09h57.26.956963 -0500,
23,23,0,filler_square,None,None,None,None,None,None,None,None,None,None,3,1.6064105033874512,None,,,,,0,0,0,0,0,23,23,179,140.1400933265686,,,,,,,,,,,,,,,,,,,,,,,,,,,,,,,,,,,,,,,,,,,,,,,,,,,,,,,,,,,,,,,,,,,,,,,,,,,,,,,,,140.08035946421194,73.33791780221816,105.79847596897181,153.70090936148134,176.2869861649491,176.2869861649491,2.1,2.11,-210,277,0,258,261,-280,140.123539686203,140.12363052368164,140.12690138816833,140.1400933265686,140.28631448745728,140.28631448745728,140.28631448745728,140.28631448745728,140.28631448745728,140.28631448745728,140.28631448745728,141.75568747520447,3,1.6064105033874512,None,,,,,,,,,,,,,,,,,,152,2,2025-02-28_09h52.21.721,comp,2024.2.4,None,2025-02-28 09h57.26.956963 -0500,
24,24,0,filler_random,None,None,None,None,None,None,None,None,None,None,2,2.127213478088379,None,,,,,0,0,0,0,0,24,24,136,141.77142882347107,,,,,,,,,,,,,,,,,,,,,,,,,,,,,,,,,,,,,,,,,,,,,,,,,,,,,,,,,,,,,,,,,,,,,,,,,,,,,,,,,128.54387767670931,119.57318471866338,178.03718295046087,93.68043298981901,83.7002788458797,126.64256016840551,1.0,1.1,-683,286,-480,262,-274,289,141.75760746002197,141.75769352912903,141.76069521903992,141.77142882347107,141.9173653125763,141.9173653125763,141.9173653125763,141.9173653125763,141.9173653125763,141.9173653125763,141.9173653125763,143.90418314933777,2,2.127213478088379,None,,,,,,,,,,,,,,,,,,152,2,2025-02-28_09h52.21.721,comp,2024.2.4,None,2025-02-28 09h57.26.956963 -0500,
25,25,0,filler_square,None,None,None,None,None,None,None,None,None,None,2,5.169511079788208,None,,,,,0,0,0,0,0,25,25,175,143.92061352729797,,,,,,,,,,,,,,,,,,,,,,,,,,,,,,,,,,,,,,,,,,,,,,,,,,,,,,,,,,,,,,,,,,,,,,,,,,,,,,,,,108.68410298555557,107.90347348587795,112.54280311697335,112.54280311697335,95.04292126700643,100.37911574683936,2.2,2.22,-206,252,0,-264,202,-258,143.90623450279236,143.906316280365,143.90976190567017,143.92061352729797,144.07265996932983,144.07265996932983,144.07265996932983,144.07265996932983,144.07265996932983,144.07265996932983,144.07265996932983,149.10562348365784,2,5.169511079788208,None,,,,,,,,,,,,,,,,,,152,2,2025-02-28_09h52.21.721,comp,2024.2.4,None,2025-02-28 09h57.26.956963 -0500,
26,26,0,critical,wdh,35.0,3.0,lower,57.0,133.0,70.0,70.0,133.0,57.0,3,3.5685553550720215,None,,,,,0,0,0,0,0,26,26,74,149.12153005599976,,,,,,,,,,,,,,,,,,,,,,,,,,,,,,,,,,,,,,,,,,,,,,,,,,,,,,,,,,,,,,,,,,,,,,,,,,,,,,,,,57.0,133.0,70.0,70.0,133.0,57.0,3.0,3.1,-198,272,0,10,160,-287,149.1071367263794,149.10721588134766,149.1112596988678,149.12153005599976,149.2716178894043,149.2716178894043,149.2716178894043,149.2716178894043,149.2716178894043,149.2716178894043,149.2716178894043,152.70744109153748,3,3.5685553550720215,None,,,,,,,,,,,,,,,,,,152,2,2025-02-28_09h52.21.721,comp,2024.2.4,None,2025-02-28 09h57.26.956963 -0500,
27,27,0,critical,dwh,20.0,2.1,lower,78.0,78.0,57.0,133.0,133.0,57.0,3,1.1939125061035156,None,,,,,0,0,0,0,0,27,27,6,152.7286355495453,,,,,,,,,,,,,,,,,,,,,,,,,,,,,,,,,,,,,,,,,,,,,,,,,,,,,,,,,,,,,,,,,,,,,,,,,,,,,,,,,78.0,78.0,57.0,133.0,133.0,57.0,2.1,2.12,-202,-259,0,-265,191,272,152.70895981788635,152.70904064178467,152.71215176582336,152.7286355495453,152.87289571762085,152.87289571762085,152.87289571762085,152.87289571762085,152.87289571762085,152.87289571762085,152.87289571762085,153.92599081993103,3,1.1939125061035156,None,,,,,,,,,,,,,,,,,,152,2,2025-02-28_09h52.21.721,comp,2024.2.4,None,2025-02-28 09h57.26.956963 -0500,
28,28,0,filler_random,None,None,None,None,None,None,None,None,None,None,2,3.171628952026367,None,,,,,0,0,0,0,0,28,28,134,153.94252014160156,,,,,,,,,,,,,,,,,,,,,,,,,,,,,,,,,,,,,,,,,,,,,,,,,,,,,,,,,,,,,,,,,,,,,,,,,,,,,,,,,72.67657889011618,63.565010200209876,194.54895643942157,139.4274228044012,183.1715725258984,58.92952496472293,4.0,4.1,-197,-284,0,-9,195,-253,153.92796683311462,153.9280526638031,153.931875705719,153.94252014160156,154.10001802444458,154.10001802444458,154.10001802444458,154.10001802444458,154.10001802444458,154.10001802444458,154.10001802444458,157.12778520584106,2,3.171628952026367,None,,,,,,,,,,,,,,,,,,152,2,2025-02-28_09h52.21.721,comp,2024.2.4,None,2025-02-28 09h57.26.956963 -0500,
29,29,0,critical,hwd,20.0,4.0,upper,200.0,125.0,125.0,200.0,141.0,141.0,2,2.8430440425872803,None,,,,,0,0,0,0,0,29,29,107,157.14371037483215,,,,,,,,,,,,,,,,,,,,,,,,,,,,,,,,,,,,,,,,,,,,,,,,,,,,,,,,,,,,,,,,,,,,,,,,,,,,,,,,,200.0,125.0,125.0,200.0,141.0,141.0,4.0,4.2,-258,-6,0,-282,266,-8,157.12935304641724,157.1294870376587,157.13261461257935,157.14371037483215,157.29873371124268,157.29873371124268,157.29873371124268,157.29873371124268,157.29873371124268,157.29873371124268,157.29873371124268,159.9901840686798,2,2.8430440425872803,None,,,,,,,,,,,,,,,,,,152,2,2025-02-28_09h52.21.721,comp,2024.2.4,None,2025-02-28 09h57.26.956963 -0500,
30,30,0,filler_square,None,None,None,None,None,None,None,None,None,None,1,5.075456857681274,None,,,,,0,0,0,0,0,30,30,198,160.00672125816345,,,,,,,,,,,,,,,,,,,,,,,,,,,,,,,,,,,,,,,,,,,,,,,,,,,,,,,,,,,,,,,,,,,,,,,,,,,,,,,,,164.35872560176563,164.35872560176563,143.1124576913689,102.46775130835917,102.6328671386074,162.15115243926346,4.0,4.2,-229,-15,0,-263,228,-17,159.99192118644714,159.9920003414154,159.99488711357117,160.00672125816345,160.1429762840271,160.1429762840271,160.1429762840271,160.1429762840271,160.1429762840271,160.1429762840271,160.1429762840271,165.0847945213318,1,5.075456857681274,None,,,,,,,,,,,,,,,,,,152,2,2025-02-28_09h52.21.721,comp,2024.2.4,None,2025-02-28 09h57.26.956963 -0500,
31,31,0,critical,hwd,20.0,2.1,upper,200.0,125.0,125.0,200.0,141.0,141.0,2,3.9693825244903564,None,,,,,0,0,0,0,0,31,31,43,165.1046690940857,,,,,,,,,,,,,,,,,,,,,,,,,,,,,,,,,,,,,,,,,,,,,,,,,,,,,,,,,,,,,,,,,,,,,,,,,,,,,,,,,200.0,125.0,125.0,200.0,141.0,141.0,2.1,2.11,-258,257,0,281,266,-267,165.08646178245544,165.08654689788818,165.0898756980896,165.1046690940857,165.24343919754028,165.24343919754028,165.24343919754028,165.24343919754028,165.24343919754028,165.24343919754028,165.24343919754028,169.07812190055847,2,3.9693825244903564,None,,,,,,,,,,,,,,,,,,152,2,2025-02-28_09h52.21.721,comp,2024.2.4,None,2025-02-28 09h57.26.956963 -0500,
32,32,0,critical,whd,35.0,4.0,upper,125.0,200.0,200.0,125.0,127.0,127.0,2,1.5805013179779053,None,,,,,0,0,0,0,0,32,32,89,169.09429240226746,,,,,,,,,,,,,,,,,,,,,,,,,,,,,,,,,,,,,,,,,,,,,,,,,,,,,,,,,,,,,,,,,,,,,,,,,,,,,,,,,125.0,200.0,200.0,125.0,127.0,127.0,4.0,4.1,-258,-273,0,8,222,-254,169.07981872558594,169.07995510101318,169.08345437049866,169.09429240226746,169.24374651908875,169.24374651908875,169.24374651908875,169.24374651908875,169.24374651908875,169.24374651908875,169.24374651908875,170.68180012702942,2,1.5805013179779053,None,,,,,,,,,,,,,,,,,,152,2,2025-02-28_09h52.21.721,comp,2024.2.4,None,2025-02-28 09h57.26.956963 -0500,
33,33,0,critical,hwd,35.0,3.0,upper,200.0,125.0,125.0,200.0,127.0,127.0,2,3.6953766345977783,None,,,,,0,0,0,0,0,33,33,99,170.69886803627014,,,,,,,,,,,,,,,,,,,,,,,,,,,,,,,,,,,,,,,,,,,,,,,,,,,,,,,,,,,,,,,,,,,,,,,,,,,,,,,,,200.0,125.0,125.0,200.0,127.0,127.0,3.0,3.1,-258,270,0,-12,260,-284,170.68371152877808,170.6838710308075,170.68729782104492,170.69886803627014,170.84489178657532,170.84489178657532,170.84489178657532,170.84489178657532,170.84489178657532,170.84489178657532,170.84489178657532,174.41312527656555,2,3.6953766345977783,None,,,,,,,,,,,,,,,,,,152,2,2025-02-28_09h52.21.721,comp,2024.2.4,None,2025-02-28 09h57.26.956963 -0500,
34,34,0,critical,dhw,20.0,4.0,lower,78.0,78.0,133.0,57.0,57.0,133.0,2,2.6921780109405518,None,,,,,0,0,0,0,0,34,34,58,174.43265891075134,,,,,,,,,,,,,,,,,,,,,,,,,,,,,,,,,,,,,,,,,,,,,,,,,,,,,,,,,,,,,,,,,,,,,,,,,,,,,,,,,78.0,78.0,133.0,57.0,57.0,133.0,4.0,4.2,-164,-1,0,-263,191,-5,174.41463994979858,174.41471767425537,174.4179790019989,174.43265891075134,174.5801603794098,174.5801603794098,174.5801603794098,174.5801603794098,174.5801603794098,174.5801603794098,174.5801603794098,177.1297800540924,2,2.6921780109405518,None,,,,,,,,,,,,,,,,,,152,2,2025-02-28_09h52.21.721,comp,2024.2.4,None,2025-02-28 09h57.26.956963 -0500,
35,35,0,filler_random,None,None,None,None,None,None,None,None,None,None,1,1.991558313369751,None,,,,,0,0,0,0,0,35,35,167,177.14653635025024,,,,,,,,,,,,,,,,,,,,,,,,,,,,,,,,,,,,,,,,,,,,,,,,,,,,,,,,,,,,,,,,,,,,,,,,,,,,,,,,,153.66238987916313,117.78925581049226,136.04288027086784,61.43628189318117,128.92558947617695,76.2001316399945,4.0,4.1,-186,-287,0,0,165,-263,177.13167476654053,177.13179898262024,177.13500452041626,177.14653635025024,177.30233526229858,177.30233526229858,177.30233526229858,177.30233526229858,177.30233526229858,177.30233526229858,177.30233526229858,179.14782786369324,1,1.991558313369751,None,,,,,,,,,,,,,,,,,,152,2,2025-02-28_09h52.21.721,comp,2024.2.4,None,2025-02-28 09h57.26.956963 -0500,
36,36,0,filler_random,None,None,None,None,None,None,None,None,None,None,1,3.7426509857177734,None,,,,,0,0,0,0,0,36,36,141,179.16365599632263,,,,,,,,,,,,,,,,,,,,,,,,,,,,,,,,,,,,,,,,,,,,,,,,,,,,,,,,,,,,,,,,,,,,,,,,,,,,,,,,,144.09449583972375,99.41391700555877,152.81007708387534,80.40250041692543,58.00630189459426,177.05529665560937,4.0,4.2,-186,8,0,-256,225,0,179.14961528778076,179.14969849586487,179.15295839309692,179.16365599632263,179.31265449523926,179.31265449523926,179.31265449523926,179.31265449523926,179.31265449523926,179.31265449523926,179.31265449523926,182.91781377792358,1,3.7426509857177734,None,,,,,,,,,,,,,,,,,,152,2,2025-02-28_09h52.21.721,comp,2024.2.4,None,2025-02-28 09h57.26.956963 -0500,
37,37,0,critical,dwh,35.0,2.1,upper,127.0,127.0,125.0,200.0,200.0,125.0,3,2.604623317718506,None,,,,,0,0,0,0,0,37,37,5,182.93364071846008,,,,,,,,,,,,,,,,,,,,,,,,,,,,,,,,,,,,,,,,,,,,,,,,,,,,,,,,,,,,,,,,,,,,,,,,,,,,,,,,,127.0,127.0,125.0,200.0,200.0,125.0,2.1,2.12,-260,-276,0,-280,258,285,182.91942739486694,182.91956424713135,182.92286610603333,182.93364071846008,183.07894587516785,183.07894587516785,183.07894587516785,183.07894587516785,183.07894587516785,183.07894587516785,183.07894587516785,185.55037260055542,3,2.604623317718506,None,,,,,,,,,,,,,,,,,,152,2,2025-02-28_09h52.21.721,comp,2024.2.4,None,2025-02-28 09h57.26.956963 -0500,
38,38,0,filler_random,None,None,None,None,None,None,None,None,None,None,1,1.7393033504486084,None,,,,,0,0,0,0,0,38,38,131,185.56687879562378,,,,,,,,,,,,,,,,,,,,,,,,,,,,,,,,,,,,,,,,,,,,,,,,,,,,,,,,,,,,,,,,,,,,,,,,,,,,,,,,,115.7942029291621,144.0240218634449,99.58208399333253,73.04314051025915,139.70772497319516,66.82540556177807,2.1,2.12,-205,-263,0,-270,166,265,185.55212092399597,185.5521981716156,185.55618047714233,185.56687879562378,185.71677374839783,185.71677374839783,185.71677374839783,185.71677374839783,185.71677374839783,185.71677374839783,185.71677374839783,187.32114672660828,1,1.7393033504486084,None,,,,,,,,,,,,,,,,,,152,2,2025-02-28_09h52.21.721,comp,2024.2.4,None,2025-02-28 09h57.26.956963 -0500,
39,39,0,critical,hwd,35.0,2.1,lower,133.0,57.0,57.0,133.0,70.0,70.0,1,2.9516193866729736,None,,,,,0,0,0,0,0,39,39,40,187.33846592903137,,,,,,,,,,,,,,,,,,,,,,,,,,,,,,,,,,,,,,,,,,,,,,,,,,,,,,,,,,,,,,,,,,,,,,,,,,,,,,,,,133.0,57.0,57.0,133.0,70.0,70.0,2.1,2.12,-191,-259,0,-272,198,251,187.32279920578003,187.3228805065155,187.3258032798767,187.33846592903137,187.483957529068,187.483957529068,187.483957529068,187.483957529068,187.483957529068,187.483957529068,187.483957529068,190.30534648895264,1,2.9516193866729736,None,,,,,,,,,,,,,,,,,,152,2,2025-02-28_09h52.21.721,comp,2024.2.4,None,2025-02-28 09h57.26.956963 -0500,
40,40,0,filler_square,None,None,None,None,None,None,None,None,None,None,2,1.40096116065979,None,,,,,0,0,0,0,0,40,40,177,190.32126379013062,,,,,,,,,,,,,,,,,,,,,,,,,,,,,,,,,,,,,,,,,,,,,,,,,,,,,,,,,,,,,,,,,,,,,,,,,,,,,,,,,86.20642603151903,94.95328665049124,131.11728532289033,131.11728532289033,77.5336493891937,87.17523687036916,2.1,2.12,-209,-272,0,-272,205,282,190.3074562549591,190.30753779411316,190.31089639663696,190.32126379013062,190.47127199172974,190.47127199172974,190.47127199172974,190.47127199172974,190.47127199172974,190.47127199172974,190.47127199172974,191.73548460006714,2,1.40096116065979,None,,,,,,,,,,,,,,,,,,152,2,2025-02-28_09h52.21.721,comp,2024.2.4,None,2025-02-28 09h57.26.956963 -0500,
41,41,0,filler_random,None,None,None,None,None,None,None,None,None,None,2,2.2116494178771973,None,,,,,0,0,0,0,0,41,41,166,191.75112986564636,,,,,,,,,,,,,,,,,,,,,,,,,,,,,,,,,,,,,,,,,,,,,,,,,,,,,,,,,,,,,,,,,,,,,,,,,,,,,,,,,186.3519058493205,67.72498532718234,110.73507130243696,197.02693055234715,78.28551829597626,147.33565594849367,3.0,3.1,-228,272,0,4,268,-250,191.73730278015137,191.73746967315674,191.74086713790894,191.75112986564636,191.90265011787415,191.90265011787415,191.90265011787415,191.90265011787415,191.90265011787415,191.90265011787415,191.90265011787415,193.96963787078857,2,2.2116494178771973,None,,,,,,,,,,,,,,,,,,152,2,2025-02-28_09h52.21.721,comp,2024.2.4,None,2025-02-28 09h57.26.956963 -0500,
42,42,0,critical,wdh,35.0,4.0,upper,125.0,200.0,127.0,127.0,200.0,125.0,3,5.4883599281311035,None,,,,,0,0,0,0,0,42,42,77,193.98603534698486,,,,,,,,,,,,,,,,,,,,,,,,,,,,,,,,,,,,,,,,,,,,,,,,,,,,,,,,,,,,,,,,,,,,,,,,,,,,,,,,,125.0,200.0,127.0,127.0,200.0,125.0,4.0,4.1,-260,-273,0,0,222,-275,193.97111582756042,193.97119426727295,193.97525238990784,193.98603534698486,194.1346743106842,194.1346743106842,194.1346743106842,194.1346743106842,194.1346743106842,194.1346743106842,194.1346743106842,199.48730659484863,3,5.4883599281311035,None,,,,,,,,,,,,,,,,,,152,2,2025-02-28_09h52.21.721,comp,2024.2.4,None,2025-02-28 09h57.26.956963 -0500,
43,43,0,critical,hdw,20.0,2.1,lower,133.0,57.0,78.0,78.0,57.0,133.0,1,3.166426420211792,None,,,,,0,0,0,0,0,43,43,22,199.50771307945251,,,,,,,,,,,,,,,,,,,,,,,,,,,,,,,,,,,,,,,,,,,,,,,,,,,,,,,,,,,,,,,,,,,,,,,,,,,,,,,,,133.0,57.0,78.0,78.0,57.0,133.0,2.1,2.12,-164,-288,0,-283,202,285,199.4888858795166,199.4889669418335,199.49231696128845,199.50771307945251,199.65445685386658,199.65445685386658,199.65445685386658,199.65445685386658,199.65445685386658,199.65445685386658,199.65445685386658,202.69133925437927,1,3.166426420211792,None,,,,,,,,,,,,,,,,,,152,2,2025-02-28_09h52.21.721,comp,2024.2.4,None,2025-02-28 09h57.26.956963 -0500,
44,44,0,critical,dhw,20.0,3.0,upper,141.0,141.0,200.0,125.0,125.0,200.0,3,6.125868558883667,None,,,,,0,0,0,0,0,44,44,57,202.70956897735596,,,,,,,,,,,,,,,,,,,,,,,,,,,,,,,,,,,,,,,,,,,,,,,,,,,,,,,,,,,,,,,,,,,,,,,,,,,,,,,,,141.0,141.0,200.0,125.0,125.0,200.0,3.0,3.1,-229,250,0,-17,258,-251,202.69309186935425,202.69317722320557,202.69610047340393,202.70956897735596,202.8559811115265,202.8559811115265,202.8559811115265,202.8559811115265,202.8559811115265,202.8559811115265,202.8559811115265,208.83888053894043,3,6.125868558883667,None,,,,,,,,,,,,,,,,,,152,2,2025-02-28_09h52.21.721,comp,2024.2.4,None,2025-02-28 09h57.26.956963 -0500,
45,45,0,filler_random,None,None,None,None,None,None,None,None,None,None,1,1.6606507301330566,None,,,,,0,0,0,0,0,45,45,137,208.85547757148743,,,,,,,,,,,,,,,,,,,,,,,,,,,,,,,,,,,,,,,,,,,,,,,,,,,,,,,,,,,,,,,,,,,,,,,,,,,,,,,,,138.07646679173774,186.85764152461877,80.5334906671769,65.96279288942374,139.17627702422504,117.41041059916762,4.0,4.1,-222,-284,0,14,188,-264,208.84084367752075,208.84092807769775,208.84445810317993,208.85547757148743,208.99712991714478,208.99712991714478,208.99712991714478,208.99712991714478,208.99712991714478,208.99712991714478,208.99712991714478,210.5270926952362,1,1.6606507301330566,None,,,,,,,,,,,,,,,,,,152,2,2025-02-28_09h52.21.721,comp,2024.2.4,None,2025-02-28 09h57.26.956963 -0500,
46,46,0,critical,wdh,20.0,2.1,lower,57.0,133.0,78.0,78.0,133.0,57.0,3,4.964122533798218,None,,,,,0,0,0,0,0,46,46,34,210.54282450675964,,,,,,,,,,,,,,,,,,,,,,,,,,,,,,,,,,,,,,,,,,,,,,,,,,,,,,,,,,,,,,,,,,,,,,,,,,,,,,,,,57.0,133.0,78.0,78.0,133.0,57.0,2.1,2.11,-202,270,0,266,164,-262,210.52880144119263,210.52888250350952,210.53210139274597,210.54282450675964,210.69201135635376,210.69201135635376,210.69201135635376,210.69201135635376,210.69201135635376,210.69201135635376,210.69201135635376,215.51463389396667,3,4.964122533798218,None,,,,,,,,,,,,,,,,,,152,2,2025-02-28_09h52.21.721,comp,2024.2.4,None,2025-02-28 09h57.26.956963 -0500,
47,47,0,filler_square,None,None,None,None,None,None,None,None,None,None,3,1.8120107650756836,None,,,,,0,0,0,0,0,47,47,194,215.53517055511475,,,,,,,,,,,,,,,,,,,,,,,,,,,,,,,,,,,,,,,,,,,,,,,,,,,,,,,,,,,,,,,,,,,,,,,,,,,,,,,,,106.871551950728,85.79640783923755,107.06505589085381,109.94668255692565,134.2836689229208,134.2836689229208,2.1,2.11,-194,284,0,268,218,-258,215.5164930820465,215.5165777206421,215.51945042610168,215.53517055511475,215.67726302146912,215.67726302146912,215.67726302146912,215.67726302146912,215.67726302146912,215.67726302146912,215.67726302146912,217.355703830719,3,1.8120107650756836,None,,,,,,,,,,,,,,,,,,152,2,2025-02-28_09h52.21.721,comp,2024.2.4,None,2025-02-28 09h57.26.956963 -0500,
48,48,0,critical,dhw,20.0,2.1,upper,141.0,141.0,200.0,125.0,125.0,200.0,3,3.7270772457122803,None,,,,,0,0,0,0,0,48,48,3,217.37156200408936,,,,,,,,,,,,,,,,,,,,,,,,,,,,,,,,,,,,,,,,,,,,,,,,,,,,,,,,,,,,,,,,,,,,,,,,,,,,,,,,,141.0,141.0,200.0,125.0,125.0,200.0,2.1,2.11,-229,275,0,286,258,-267,217.35733318328857,217.35747408866882,217.36075091362,217.37156200408936,217.50993847846985,217.50993847846985,217.50993847846985,217.50993847846985,217.50993847846985,217.50993847846985,217.50993847846985,221.11730217933655,3,3.7270772457122803,None,,,,,,,,,,,,,,,,,,152,2,2025-02-28_09h52.21.721,comp,2024.2.4,None,2025-02-28 09h57.26.956963 -0500,
49,49,0,filler_random,None,None,None,None,None,None,None,None,None,None,3,3.340177536010742,None,,,,,0,0,0,0,0,49,49,155,221.13447451591492,,,,,,,,,,,,,,,,,,,,,,,,,,,,,,,,,,,,,,,,,,,,,,,,,,,,,,,,,,,,,,,,,,,,,,,,,,,,,,,,,112.22408829578129,72.032884829581,89.05030519592833,86.11685369429907,153.90180153556537,127.49798917813706,2.2,2.22,-175,264,0,-267,203,-290,221.11907529830933,221.1191565990448,221.1220428943634,221.13447451591492,221.27803659439087,221.27803659439087,221.27803659439087,221.27803659439087,221.27803659439087,221.27803659439087,221.27803659439087,224.4779188632965,3,3.340177536010742,None,,,,,,,,,,,,,,,,,,152,2,2025-02-28_09h52.21.721,comp,2024.2.4,None,2025-02-28 09h57.26.956963 -0500,
50,50,0,critical,hdw,20.0,2.1,lower,133.0,57.0,78.0,78.0,57.0,133.0,3,7.123613595962524,None,,,,,0,0,0,0,0,50,50,46,224.49466347694397,,,,,,,,,,,,,,,,,,,,,,,,,,,,,,,,,,,,,,,,,,,,,,,,,,,,,,,,,,,,,,,,,,,,,,,,,,,,,,,,,133.0,57.0,78.0,78.0,57.0,133.0,2.1,2.11,-164,287,0,270,202,-287,224.47960829734802,224.4797432422638,224.48300790786743,224.49466347694397,224.65148091316223,224.65148091316223,224.65148091316223,224.65148091316223,224.65148091316223,224.65148091316223,224.65148091316223,231.63217663764954,3,7.123613595962524,None,,,,,,,,,,,,,,,,,,152,2,2025-02-28_09h52.21.721,comp,2024.2.4,None,2025-02-28 09h57.26.956963 -0500,
51,51,0,critical,dwh,20.0,2.1,upper,141.0,141.0,125.0,200.0,200.0,125.0,3,1.8346376419067383,None,,,,,0,0,0,0,0,51,51,7,231.64759755134583,,,,,,,,,,,,,,,,,,,,,,,,,,,,,,,,,,,,,,,,,,,,,,,,,,,,,,,,,,,,,,,,,,,,,,,,,,,,,,,,,141.0,141.0,125.0,200.0,200.0,125.0,2.1,2.12,-266,-278,0,-273,258,271,231.6337492465973,231.63383102416992,231.63699913024902,231.64759755134583,231.78574299812317,231.78574299812317,231.78574299812317,231.78574299812317,231.78574299812317,231.78574299812317,231.78574299812317,233.49808764457703,3,1.8346376419067383,None,,,,,,,,,,,,,,,,,,152,2,2025-02-28_09h52.21.721,comp,2024.2.4,None,2025-02-28 09h57.26.956963 -0500,
52,52,0,critical,dwh,35.0,4.0,lower,70.0,70.0,57.0,133.0,133.0,57.0,2,1.6945526599884033,None,,,,,0,0,0,0,0,52,52,64,233.515629529953,,,,,,,,,,,,,,,,,,,,,,,,,,,,,,,,,,,,,,,,,,,,,,,,,,,,,,,,,,,,,,,,,,,,,,,,,,,,,,,,,70.0,70.0,57.0,133.0,133.0,57.0,4.0,4.1,-198,-256,0,-18,191,-273,233.49972653388977,233.4998083114624,233.50309705734253,233.515629529953,233.66878986358643,233.66878986358643,233.66878986358643,233.66878986358643,233.66878986358643,233.66878986358643,233.66878986358643,235.22132349014282,2,1.6945526599884033,None,,,,,,,,,,,,,,,,,,152,2,2025-02-28_09h52.21.721,comp,2024.2.4,None,2025-02-28 09h57.26.956963 -0500,
53,53,0,critical,dhw,35.0,3.0,lower,70.0,70.0,133.0,57.0,57.0,133.0,2,1.685166835784912,None,,,,,0,0,0,0,0,53,53,50,235.23722958564758,,,,,,,,,,,,,,,,,,,,,,,,,,,,,,,,,,,,,,,,,,,,,,,,,,,,,,,,,,,,,,,,,,,,,,,,,,,,,,,,,70.0,70.0,133.0,57.0,57.0,133.0,3.0,3.2,-160,-281,0,-7,191,254,235.2230246067047,235.2231616973877,235.22642135620117,235.23722958564758,235.38017988204956,235.38017988204956,235.38017988204956,235.38017988204956,235.38017988204956,235.38017988204956,235.38017988204956,236.93199229240417,2,1.685166835784912,None,,,,,,,,,,,,,,,,,,152,2,2025-02-28_09h52.21.721,comp,2024.2.4,None,2025-02-28 09h57.26.956963 -0500,
54,54,0,critical,hwd,20.0,1.0,upper,200.0,125.0,125.0,200.0,141.0,141.0,2,1.7985639572143555,None,,,,,0,0,0,0,0,54,54,103,236.9479901790619,,,,,,,,,,,,,,,,,,,,,,,,,,,,,,,,,,,,,,,,,,,,,,,,,,,,,,,,,,,,,,,,,,,,,,,,,,,,,,,,,200.0,125.0,125.0,200.0,141.0,141.0,1.0,1.1,-738,262,-480,274,-214,250,236.93352127075195,236.93360352516174,236.93677949905396,236.9479901790619,237.1049349308014,237.1049349308014,237.1049349308014,237.1049349308014,237.1049349308014,237.1049349308014,237.1049349308014,238.7489366531372,2,1.7985639572143555,None,,,,,,,,,,,,,,,,,,152,2,2025-02-28_09h52.21.721,comp,2024.2.4,None,2025-02-28 09h57.26.956963 -0500,
55,55,0,critical,hwd,20.0,2.1,lower,133.0,57.0,57.0,133.0,78.0,78.0,2,4.429162979125977,None,,,,,0,0,0,0,0,55,55,18,238.7658040523529,,,,,,,,,,,,,,,,,,,,,,,,,,,,,,,,,,,,,,,,,,,,,,,,,,,,,,,,,,,,,,,,,,,,,,,,,,,,,,,,,133.0,57.0,57.0,133.0,78.0,78.0,2.1,2.11,-191,286,0,269,202,-259,238.75055766105652,238.75063633918762,238.75394105911255,238.7658040523529,238.91687202453613,238.91687202453613,238.91687202453613,238.91687202453613,238.91687202453613,238.91687202453613,238.91687202453613,243.2005443572998,2,4.429162979125977,None,,,,,,,,,,,,,,,,,,152,2,2025-02-28_09h52.21.721,comp,2024.2.4,None,2025-02-28 09h57.26.956963 -0500,
56,56,0,critical,dhw,20.0,2.1,lower,78.0,78.0,133.0,57.0,57.0,133.0,2,2.5659375190734863,None,,,,,0,0,0,0,0,56,56,26,243.22028708457947,,,,,,,,,,,,,,,,,,,,,,,,,,,,,,,,,,,,,,,,,,,,,,,,,,,,,,,,,,,,,,,,,,,,,,,,,,,,,,,,,78.0,78.0,133.0,57.0,57.0,133.0,2.1,2.12,-164,-261,0,-259,191,252,243.2020103931427,243.2020926475525,243.20525097846985,243.22028708457947,243.35887336730957,243.35887336730957,243.35887336730957,243.35887336730957,243.35887336730957,243.35887336730957,243.35887336730957,245.80315327644348,2,2.5659375190734863,None,,,,,,,,,,,,,,,,,,152,2,2025-02-28_09h52.21.721,comp,2024.2.4,None,2025-02-28 09h57.26.956963 -0500,
57,57,0,filler_random,None,None,None,None,None,None,None,None,None,None,2,2.7029623985290527,None,,,,,0,0,0,0,0,57,57,149,245.8193051815033,,,,,,,,,,,,,,,,,,,,,,,,,,,,,,,,,,,,,,,,,,,,,,,,,,,,,,,,,,,,,,,,,,,,,,,,,,,,,,,,,64.82497512884967,192.7390519925058,149.79796392780372,193.4831179504806,166.31384902007403,132.65808977817085,3.0,3.2,-289,-285,0,16,259,257,245.805162191391,245.80526685714722,245.80890107154846,245.8193051815033,245.9576861858368,245.9576861858368,245.9576861858368,245.9576861858368,245.9576861858368,245.9576861858368,245.9576861858368,248.5406391620636,2,2.7029623985290527,None,,,,,,,,,,,,,,,,,,152,2,2025-02-28_09h52.21.721,comp,2024.2.4,None,2025-02-28 09h57.26.956963 -0500,
58,58,0,filler_random,None,None,None,None,None,None,None,None,None,None,3,1.9736244678497314,None,,,,,0,0,0,0,0,58,58,151,248.55853724479675,,,,,,,,,,,,,,,,,,,,,,,,,,,,,,,,,,,,,,,,,,,,,,,,,,,,,,,,,,,,,,,,,,,,,,,,,,,,,,,,,84.43165876708305,158.9470033646544,58.57383328944209,134.60583981886913,155.29546681289185,99.56149625813632,2.1,2.11,-243,257,0,260,213,-264,248.54246401786804,248.54261136054993,248.54585194587708,248.55853724479675,248.7039930820465,248.7039930820465,248.7039930820465,248.7039930820465,248.7039930820465,248.7039930820465,248.7039930820465,250.53847932815552,3,1.9736244678497314,None,,,,,,,,,,,,,,,,,,152,2,2025-02-28_09h52.21.721,comp,2024.2.4,None,2025-02-28 09h57.26.956963 -0500,
59,59,0,filler_square,None,None,None,None,None,None,None,None,None,None,3,1.23020601272583,None,,,,,0,0,0,0,0,59,59,186,250.55628728866577,,,,,,,,,,,,,,,,,,,,,,,,,,,,,,,,,,,,,,,,,,,,,,,,,,,,,,,,,,,,,,,,,,,,,,,,,,,,,,,,,130.77527142085515,77.11415346954159,84.36669637830572,64.59107038069888,166.543195148386,166.543195148386,3.0,3.1,-167,262,0,-15,212,-276,250.54032158851624,250.54046750068665,250.5433120727539,250.55628728866577,250.70282220840454,250.70282220840454,250.70282220840454,250.70282220840454,250.70282220840454,250.70282220840454,250.70282220840454,251.80354928970337,3,1.23020601272583,None,,,,,,,,,,,,,,,,,,152,2,2025-02-28_09h52.21.721,comp,2024.2.4,None,2025-02-28 09h57.26.956963 -0500,
60,60,0,catch,None,None,None,None,None,None,None,None,None,None,1,1.4265000820159912,None,,,,,0,0,0,0,0,60,60,128,251.82375526428223,,,,,,,,,,,,,,,,,,,,,,,,,,,,,,,,,,,,,,,,,,,,,,,,,,,,,,,,,,,,,,,,,,,,,,,,,,,,,,,,,143,182,106,84,101,89,3.0,3.1,-229,270,0,-12,182,-257,251.8056263923645,251.80570602416992,251.80912613868713,251.82375526428223,251.97134351730347,251.97134351730347,251.97134351730347,251.97134351730347,251.97134351730347,251.97134351730347,251.97134351730347,253.25450825691223,1,1.4265000820159912,None,,,,,,,,,,,,,,,,,,152,2,2025-02-28_09h52.21.721,comp,2024.2.4,None,2025-02-28 09h57.26.956963 -0500,
61,61,0,critical,whd,35.0,2.1,upper,125.0,200.0,200.0,125.0,127.0,127.0,2,2.068251848220825,None,,,,,0,0,0,0,0,61,61,13,253.27018284797668,,,,,,,,,,,,,,,,,,,,,,,,,,,,,,,,,,,,,,,,,,,,,,,,,,,,,,,,,,,,,,,,,,,,,,,,,,,,,,,,,125.0,200.0,200.0,125.0,127.0,127.0,2.1,2.11,-258,276,0,275,222,-280,253.25603556632996,253.2561161518097,253.25943732261658,253.27018284797668,253.42028403282166,253.42028403282166,253.42028403282166,253.42028403282166,253.42028403282166,253.42028403282166,253.42028403282166,255.35433292388916,2,2.068251848220825,None,,,,,,,,,,,,,,,,,,152,2,2025-02-28_09h52.21.721,comp,2024.2.4,None,2025-02-28 09h57.26.956963 -0500,
62,62,0,catch,None,None,None,None,None,None,None,None,None,None,1,1.0479669570922852,None,,,,,0,0,0,0,0,62,62,122,255.370929479599,,,,,,,,,,,,,,,,,,,,,,,,,,,,,,,,,,,,,,,,,,,,,,,,,,,,,,,,,,,,,,,,,,,,,,,,,,,,,,,,,132,193,121,69,84,106,2.1,2.11,-227,278,0,263,184,-265,255.35647177696228,255.35655236244202,255.35972785949707,255.370929479599,255.52217030525208,255.52217030525208,255.52217030525208,255.52217030525208,255.52217030525208,255.52217030525208,255.52217030525208,256.4293613433838,1,1.0479669570922852,None,,,,,,,,,,,,,,,,,,152,2,2025-02-28_09h52.21.721,comp,2024.2.4,None,2025-02-28 09h57.26.956963 -0500,
63,63,0,critical,wdh,20.0,1.0,upper,125.0,200.0,141.0,141.0,200.0,125.0,3,4.137949705123901,None,,,,,0,0,0,0,0,63,63,79,256.4489440917969,,,,,,,,,,,,,,,,,,,,,,,,,,,,,,,,,,,,,,,,,,,,,,,,,,,,,,,,,,,,,,,,,,,,,,,,,,,,,,,,,125.0,200.0,141.0,141.0,200.0,125.0,1.0,1.2,-266,-16,0,-11,229,5,256.43084692955017,256.4309251308441,256.43377709388733,256.4489440917969,256.5903136730194,256.5903136730194,256.5903136730194,256.5903136730194,256.5903136730194,256.5903136730194,256.5903136730194,260.594126701355,3,4.137949705123901,None,,,,,,,,,,,,,,,,,,152,2,2025-02-28_09h52.21.721,comp,2024.2.4,None,2025-02-28 09h57.26.956963 -0500,
64,64,0,catch,None,None,None,None,None,None,None,None,None,None,1,0.9443633556365967,None,,,,,0,0,0,0,0,64,64,125,260.610652923584,,,,,,,,,,,,,,,,,,,,,,,,,,,,,,,,,,,,,,,,,,,,,,,,,,,,,,,,,,,,,,,,,,,,,,,,,,,,,,,,,166,159,97,93,63,127,1.0,1.1,-702,281,-480,251,-274,289,260.59624695777893,260.59633231163025,260.5997040271759,260.610652923584,260.75725769996643,260.75725769996643,260.75725769996643,260.75725769996643,260.75725769996643,260.75725769996643,260.75725769996643,261.56076884269714,1,0.9443633556365967,None,,,,,,,,,,,,,,,,,,152,2,2025-02-28_09h52.21.721,comp,2024.2.4,None,2025-02-28 09h57.26.956963 -0500,
65,65,0,filler_random,None,None,None,None,None,None,None,None,None,None,3,1.3062634468078613,None,,,,,0,0,0,0,0,65,65,153,261.5770227909088,,,,,,,,,,,,,,,,,,,,,,,,,,,,,,,,,,,,,,,,,,,,,,,,,,,,,,,,,,,,,,,,,,,,,,,,,,,,,,,,,73.68577365070729,61.91644063568443,85.75355609310664,99.59938390799124,180.08341166986688,91.40505941113388,2.2,2.21,-177,-276,0,268,192,285,261.5629496574402,261.56304001808167,261.56625533103943,261.5770227909088,261.7238874435425,261.7238874435425,261.7238874435425,261.7238874435425,261.7238874435425,261.7238874435425,261.7238874435425,262.8900947570801,3,1.3062634468078613,None,,,,,,,,,,,,,,,,,,152,2,2025-02-28_09h52.21.721,comp,2024.2.4,None,2025-02-28 09h57.26.956963 -0500,
66,66,0,critical,hdw,20.0,3.0,lower,133.0,57.0,78.0,78.0,57.0,133.0,1,1.8612749576568604,None,,,,,0,0,0,0,0,66,66,116,262.9097981452942,,,,,,,,,,,,,,,,,,,,,,,,,,,,,,,,,,,,,,,,,,,,,,,,,,,,,,,,,,,,,,,,,,,,,,,,,,,,,,,,,133.0,57.0,78.0,78.0,57.0,133.0,3.0,3.2,-164,-286,0,20,202,265,262.89160895347595,262.89169096946716,262.8948154449463,262.9097981452942,263.05749917030334,263.05749917030334,263.05749917030334,263.05749917030334,263.05749917030334,263.05749917030334,263.05749917030334,264.7801687717438,1,1.8612749576568604,None,,,,,,,,,,,,,,,,,,152,2,2025-02-28_09h52.21.721,comp,2024.2.4,None,2025-02-28 09h57.26.956963 -0500,
67,67,0,catch,None,None,None,None,None,None,None,None,None,None,2,1.039529800415039,None,,,,,0,0,0,0,0,67,67,121,264.79698300361633,,,,,,,,,,,,,,,,,,,,,,,,,,,,,,,,,,,,,,,,,,,,,,,,,,,,,,,,,,,,,,,,,,,,,,,,,,,,,,,,,117,73,192,133,58,132,3.0,3.2,-199,-288,0,17,228,275,264.7820785045624,264.7821569442749,264.78535747528076,264.79698300361633,264.94110560417175,264.94110560417175,264.94110560417175,264.94110560417175,264.94110560417175,264.94110560417175,264.94110560417175,265.8411383628845,2,1.039529800415039,None,,,,,,,,,,,,,,,,,,152,2,2025-02-28_09h52.21.721,comp,2024.2.4,None,2025-02-28 09h57.26.956963 -0500,
68,68,0,critical,hdw,35.0,1.0,lower,133.0,57.0,70.0,70.0,57.0,133.0,3,1.5579068660736084,None,,,,,0,0,0,0,0,68,68,108,265.86118388175964,,,,,,,,,,,,,,,,,,,,,,,,,,,,,,,,,,,,,,,,,,,,,,,,,,,,,,,,,,,,,,,,,,,,,,,,,,,,,,,,,133.0,57.0,70.0,70.0,57.0,133.0,1.0,1.3,320,-264,480,-266,678,-289,265.8426921367645,265.84277272224426,265.84581899642944,265.86118388175964,266.00826382637024,266.00826382637024,266.00826382637024,266.00826382637024,266.00826382637024,266.00826382637024,266.00826382637024,267.42730498313904,3,1.5579068660736084,None,,,,,,,,,,,,,,,,,,152,2,2025-02-28_09h52.21.721,comp,2024.2.4,None,2025-02-28 09h57.26.956963 -0500,
69,69,0,critical,dhw,35.0,4.0,lower,70.0,70.0,133.0,57.0,57.0,133.0,1,1.7830002307891846,None,,,,,0,0,0,0,0,69,69,52,267.44349670410156,,,,,,,,,,,,,,,,,,,,,,,,,,,,,,,,,,,,,,,,,,,,,,,,,,,,,,,,,,,,,,,,,,,,,,,,,,,,,,,,,70.0,70.0,133.0,57.0,57.0,133.0,4.0,4.2,-160,-20,0,-273,191,-4,267.42905259132385,267.4291603565216,267.43263721466064,267.44349670410156,267.59356689453125,267.59356689453125,267.59356689453125,267.59356689453125,267.59356689453125,267.59356689453125,267.59356689453125,269.243953704834,1,1.7830002307891846,None,,,,,,,,,,,,,,,,,,152,2,2025-02-28_09h52.21.721,comp,2024.2.4,None,2025-02-28 09h57.26.956963 -0500,
70,70,0,filler_square,None,None,None,None,None,None,None,None,None,None,2,2.7598416805267334,None,,,,,0,0,0,0,0,70,70,174,269.2586827278137,,,,,,,,,,,,,,,,,,,,,,,,,,,,,,,,,,,,,,,,,,,,,,,,,,,,,,,,,,,,,,,,,,,,,,,,,,,,,,,,,102.39622997989557,89.2931393212352,135.8452663129222,135.8452663129222,108.35982978620518,95.45678410378129,3.0,3.1,-209,264,0,15,212,-288,269.24581503868103,269.2459433078766,269.24917006492615,269.2586827278137,269.4103603363037,269.4103603363037,269.4103603363037,269.4103603363037,269.4103603363037,269.4103603363037,269.4103603363037,272.0271465778351,2,2.7598416805267334,None,,,,,,,,,,,,,,,,,,152,2,2025-02-28_09h52.21.721,comp,2024.2.4,None,2025-02-28 09h57.26.956963 -0500,
71,71,0,filler_random,None,None,None,None,None,None,None,None,None,None,2,1.5515336990356445,None,,,,,0,0,0,0,0,71,71,168,272.04287219047546,,,,,,,,,,,,,,,,,,,,,,,,,,,,,,,,,,,,,,,,,,,,,,,,,,,,,,,,,,,,,,,,,,,,,,,,,,,,,,,,,64.24463330936813,186.39403302135563,117.72494912051927,198.76850880207525,95.83608458487689,180.40273318230953,2.1,2.11,-289,258,0,273,286,-278,272.02887773513794,272.0290081501007,272.03219628334045,272.04287219047546,272.1941714286804,272.1941714286804,272.1941714286804,272.1941714286804,272.1941714286804,272.1941714286804,272.1941714286804,273.6098392009735,2,1.5515336990356445,None,,,,,,,,,,,,,,,,,,152,2,2025-02-28_09h52.21.721,comp,2024.2.4,None,2025-02-28 09h57.26.956963 -0500,
72,72,0,critical,hdw,20.0,1.0,upper,200.0,125.0,141.0,141.0,125.0,200.0,3,4.649510622024536,None,,,,,0,0,0,0,0,72,72,115,273.6254954338074,,,,,,,,,,,,,,,,,,,,,,,,,,,,,,,,,,,,,,,,,,,,,,,,,,,,,,,,,,,,,,,,,,,,,,,,,,,,,,,,,200.0,125.0,141.0,141.0,125.0,200.0,1.0,1.1,-709,260,-480,282,-214,266,273.6113440990448,273.6114544868469,273.61457324028015,273.6254954338074,273.7781822681427,273.7781822681427,273.7781822681427,273.7781822681427,273.7781822681427,273.7781822681427,273.7781822681427,278.28061032295227,3,4.649510622024536,None,,,,,,,,,,,,,,,,,,152,2,2025-02-28_09h52.21.721,comp,2024.2.4,None,2025-02-28 09h57.26.956963 -0500,
73,73,0,filler_square,None,None,None,None,None,None,None,None,None,None,1,14.329405784606934,None,,,,,0,0,0,0,0,73,73,200,278.29700350761414,,,,,,,,,,,,,,,,,,,,,,,,,,,,,,,,,,,,,,,,,,,,,,,,,,,,,,,,,,,,,,,,,,,,,,,,,,,,,,,,,57.37239813585789,57.291769451804136,57.19815635243221,57.248038196786304,57.38145794510194,57.38145794510194,2.1,2.11,-153,252,0,254,153,-258,278.28271746635437,278.2827990055084,278.286123752594,278.29700350761414,278.44611620903015,278.44611620903015,278.44611620903015,278.44611620903015,278.44611620903015,278.44611620903015,278.44611620903015,292.63871335983276,1,14.329405784606934,None,,,,,,,,,,,,,,,,,,152,2,2025-02-28_09h52.21.721,comp,2024.2.4,None,2025-02-28 09h57.26.956963 -0500,
74,74,0,filler_square,None,None,None,None,None,None,None,None,None,None,2,2.8658804893493652,None,,,,,0,0,0,0,0,74,74,173,292.6585388183594,,,,,,,,,,,,,,,,,,,,,,,,,,,,,,,,,,,,,,,,,,,,,,,,,,,,,,,,,,,,,,,,,,,,,,,,,,,,,,,,,60.30795521666795,100.0764215166958,128.7372668327901,128.7372668327901,62.842005084944184,105.66866761195118,1.0,1.3,270,-260,480,-268,693,-253,292.6405739784241,292.64065861701965,292.64352893829346,292.6585388183594,292.8009331226349,292.8009331226349,292.8009331226349,292.8009331226349,292.8009331226349,292.8009331226349,292.8009331226349,295.53588795661926,2,2.8658804893493652,None,,,,,,,,,,,,,,,,,,152,2,2025-02-28_09h52.21.721,comp,2024.2.4,None,2025-02-28 09h57.26.956963 -0500,
75,75,0,critical,wdh,35.0,2.1,lower,57.0,133.0,70.0,70.0,133.0,57.0,3,2.1702258586883545,None,,,,,0,0,0,0,0,75,75,8,295.55217266082764,,,,,,,,,,,,,,,,,,,,,,,,,,,,,,,,,,,,,,,,,,,,,,,,,,,,,,,,,,,,,,,,,,,,,,,,,,,,,,,,,57.0,133.0,70.0,70.0,133.0,57.0,2.1,2.12,-198,-258,0,-273,160,272,295.5374505519867,295.53756856918335,295.54145073890686,295.55217266082764,295.70638728141785,295.70638728141785,295.70638728141785,295.70638728141785,295.70638728141785,295.70638728141785,295.70638728141785,297.7375440597534,3,2.1702258586883545,None,,,,,,,,,,,,,,,,,,152,2,2025-02-28_09h52.21.721,comp,2024.2.4,None,2025-02-28 09h57.26.956963 -0500,
76,76,0,filler_square,None,None,None,None,None,None,None,None,None,None,1,3.2580153942108154,None,,,,,0,0,0,0,0,76,76,187,297.7542278766632,,,,,,,,,,,,,,,,,,,,,,,,,,,,,,,,,,,,,,,,,,,,,,,,,,,,,,,,,,,,,,,,,,,,,,,,,,,,,,,,,147.08023319724353,147.08023319724353,110.18160130285919,125.65140647278061,124.87944030915752,90.13128044964962,4.0,4.1,-232,-280,0,17,204,-272,297.7396318912506,297.73971939086914,297.7430102825165,297.7542278766632,297.90137004852295,297.90137004852295,297.90137004852295,297.90137004852295,297.90137004852295,297.90137004852295,297.90137004852295,301.0166642665863,1,3.2580153942108154,None,,,,,,,,,,,,,,,,,,152,2,2025-02-28_09h52.21.721,comp,2024.2.4,None,2025-02-28 09h57.26.956963 -0500,
77,77,0,filler_square,None,None,None,None,None,None,None,None,None,None,1,3.000411033630371,None,,,,,0,0,0,0,0,77,77,196,301.0340962409973,,,,,,,,,,,,,,,,,,,,,,,,,,,,,,,,,,,,,,,,,,,,,,,,,,,,,,,,,,,,,,,,,,,,,,,,,,,,,,,,,110.0230620841431,110.0230620841431,85.00412384766182,61.618964240001496,86.00989562679952,66.66706616333309,1.0,1.3,298,-289,480,-257,640,-277,301.01846718788147,301.0185513496399,301.0213725566864,301.0340962409973,301.17289447784424,301.17289447784424,301.17289447784424,301.17289447784424,301.17289447784424,301.17289447784424,301.17289447784424,304.0373194217682,1,3.000411033630371,None,,,,,,,,,,,,,,,,,,152,2,2025-02-28_09h52.21.721,comp,2024.2.4,None,2025-02-28 09h57.26.956963 -0500,
78,78,0,filler_random,None,None,None,None,None,None,None,None,None,None,3,2.052924156188965,None,,,,,0,0,0,0,0,78,78,135,304.05353593826294,,,,,,,,,,,,,,,,,,,,,,,,,,,,,,,,,,,,,,,,,,,,,,,,,,,,,,,,,,,,,,,,,,,,,,,,,,,,,,,,,119.9653932033437,195.44687063846234,104.93373645499767,73.87445206604096,178.84186378229657,177.41824307190524,4.0,4.2,-231,-5,0,-265,222,9,304.0390684604645,304.0391511917114,304.04265427589417,304.05353593826294,304.2012379169464,304.2012379169464,304.2012379169464,304.2012379169464,304.2012379169464,304.2012379169464,304.2012379169464,306.1223132610321,3,2.052924156188965,None,,,,,,,,,,,,,,,,,,152,2,2025-02-28_09h52.21.721,comp,2024.2.4,None,2025-02-28 09h57.26.956963 -0500,
79,79,0,critical,wdh,35.0,2.1,upper,125.0,200.0,127.0,127.0,200.0,125.0,3,5.4423582553863525,None,,,,,0,0,0,0,0,79,79,33,306.1361360549927,,,,,,,,,,,,,,,,,,,,,,,,,,,,,,,,,,,,,,,,,,,,,,,,,,,,,,,,,,,,,,,,,,,,,,,,,,,,,,,,,125.0,200.0,127.0,127.0,200.0,125.0,2.1,2.12,-260,-265,0,-259,222,274,306.12385296821594,306.1239309310913,306.1270921230316,306.1361360549927,306.29507970809937,306.29507970809937,306.29507970809937,306.29507970809937,306.29507970809937,306.29507970809937,306.29507970809937,311.5949902534485,3,5.4423582553863525,None,,,,,,,,,,,,,,,,,,152,2,2025-02-28_09h52.21.721,comp,2024.2.4,None,2025-02-28 09h57.26.956963 -0500,
80,80,0,critical,hdw,35.0,2.1,upper,200.0,125.0,127.0,127.0,125.0,200.0,3,5.528059244155884,None,,,,,0,0,0,0,0,80,80,45,311.61062383651733,,,,,,,,,,,,,,,,,,,,,,,,,,,,,,,,,,,,,,,,,,,,,,,,,,,,,,,,,,,,,,,,,,,,,,,,,,,,,,,,,200.0,125.0,127.0,127.0,125.0,200.0,2.1,2.11,-222,261,0,266,260,-274,311.59652614593506,311.5966086387634,311.5994894504547,311.61062383651733,311.7549340724945,311.7549340724945,311.7549340724945,311.7549340724945,311.7549340724945,311.7549340724945,311.7549340724945,317.1421513557434,3,5.528059244155884,None,,,,,,,,,,,,,,,,,,152,2,2025-02-28_09h52.21.721,comp,2024.2.4,None,2025-02-28 09h57.26.956963 -0500,
81,81,0,catch,None,None,None,None,None,None,None,None,None,None,3,1.356288194656372,None,,,,,0,0,0,0,0,81,81,126,317.1589071750641,,,,,,,,,,,,,,,,,,,,,,,,,,,,,,,,,,,,,,,,,,,,,,,,,,,,,,,,,,,,,,,,,,,,,,,,,,,,,,,,,65,125,110,80,140,185,4.0,4.2,-198,12,0,-267,228,6,317.1440727710724,317.1441559791565,317.148140668869,317.1589071750641,317.3088490962982,317.3088490962982,317.3088490962982,317.3088490962982,317.3088490962982,317.3088490962982,317.3088490962982,318.52578020095825,3,1.356288194656372,None,,,,,,,,,,,,,,,,,,152,2,2025-02-28_09h52.21.721,comp,2024.2.4,None,2025-02-28 09h57.26.956963 -0500,
82,82,0,critical,whd,35.0,2.1,upper,125.0,200.0,200.0,125.0,127.0,127.0,2,1.9006602764129639,None,,,,,0,0,0,0,0,82,82,37,318.5418131351471,,,,,,,,,,,,,,,,,,,,,,,,,,,,,,,,,,,,,,,,,,,,,,,,,,,,,,,,,,,,,,,,,,,,,,,,,,,,,,,,,125.0,200.0,200.0,125.0,127.0,127.0,2.1,2.11,-258,278,0,280,222,-261,318.5274693965912,318.52755761146545,318.5310482978821,318.5418131351471,318.69950342178345,318.69950342178345,318.69950342178345,318.69950342178345,318.69950342178345,318.69950342178345,318.69950342178345,320.45847511291504,2,1.9006602764129639,None,,,,,,,,,,,,,,,,,,152,2,2025-02-28_09h52.21.721,comp,2024.2.4,None,2025-02-28 09h57.26.956963 -0500,
83,83,0,critical,dwh,20.0,2.1,upper,141.0,141.0,125.0,200.0,200.0,125.0,2,5.528721809387207,None,,,,,0,0,0,0,0,83,83,31,320.47487783432007,,,,,,,,,,,,,,,,,,,,,,,,,,,,,,,,,,,,,,,,,,,,,,,,,,,,,,,,,,,,,,,,,,,,,,,,,,,,,,,,,141.0,141.0,125.0,200.0,200.0,125.0,2.1,2.12,-266,-251,0,-286,258,274,320.46009373664856,320.4601745605469,320.46349692344666,320.47487783432007,320.6288433074951,320.6288433074951,320.6288433074951,320.6288433074951,320.6288433074951,320.6288433074951,320.6288433074951,326.0116596221924,2,5.528721809387207,None,,,,,,,,,,,,,,,,,,152,2,2025-02-28_09h52.21.721,comp,2024.2.4,None,2025-02-28 09h57.26.956963 -0500,
84,84,0,critical,dwh,20.0,4.0,upper,141.0,141.0,125.0,200.0,200.0,125.0,2,1.9773521423339844,None,,,,,0,0,0,0,0,84,84,71,326.0276532173157,,,,,,,,,,,,,,,,,,,,,,,,,,,,,,,,,,,,,,,,,,,,,,,,,,,,,,,,,,,,,,,,,,,,,,,,,,,,,,,,,141.0,141.0,125.0,200.0,200.0,125.0,4.0,4.1,-266,-282,0,3,258,-262,326.0133101940155,326.01344180107117,326.01681685447693,326.0276532173157,326.1786165237427,326.1786165237427,326.1786165237427,326.1786165237427,326.1786165237427,326.1786165237427,326.1786165237427,328.008225440979,2,1.9773521423339844,None,,,,,,,,,,,,,,,,,,152,2,2025-02-28_09h52.21.721,comp,2024.2.4,None,2025-02-28 09h57.26.956963 -0500,
85,85,0,critical,hdw,20.0,4.0,upper,200.0,125.0,141.0,141.0,125.0,200.0,3,2.129380941390991,None,,,,,0,0,0,0,0,85,85,119,328.02548837661743,,,,,,,,,,,,,,,,,,,,,,,,,,,,,,,,,,,,,,,,,,,,,,,,,,,,,,,,,,,,,,,,,,,,,,,,,,,,,,,,,200.0,125.0,141.0,141.0,125.0,200.0,4.0,4.1,-229,-283,0,15,266,-288,328.00982880592346,328.00990557670593,328.01318621635437,328.02548837661743,328.1621217727661,328.1621217727661,328.1621217727661,328.1621217727661,328.1621217727661,328.1621217727661,328.1621217727661,330.1637215614319,3,2.129380941390991,None,,,,,,,,,,,,,,,,,,152,2,2025-02-28_09h52.21.721,comp,2024.2.4,None,2025-02-28 09h57.26.956963 -0500,
86,86,0,critical,whd,20.0,1.0,upper,125.0,200.0,200.0,125.0,141.0,141.0,2,1.4317409992218018,None,,,,,0,0,0,0,0,86,86,91,330.1795554161072,,,,,,,,,,,,,,,,,,,,,,,,,,,,,,,,,,,,,,,,,,,,,,,,,,,,,,,,,,,,,,,,,,,,,,,,,,,,,,,,,125.0,200.0,200.0,125.0,141.0,141.0,1.0,1.1,-738,284,-480,273,-251,285,330.1653115749359,330.16539001464844,330.16878938674927,330.1795554161072,330.33276414871216,330.33276414871216,330.33276414871216,330.33276414871216,330.33276414871216,330.33276414871216,330.33276414871216,331.6186077594757,2,1.4317409992218018,None,,,,,,,,,,,,,,,,,,152,2,2025-02-28_09h52.21.721,comp,2024.2.4,None,2025-02-28 09h57.26.956963 -0500,
87,87,0,filler_square,None,None,None,None,None,None,None,None,None,None,1,1.8800227642059326,None,,,,,0,0,0,0,0,87,87,204,331.6345157623291,,,,,,,,,,,,,,,,,,,,,,,,,,,,,,,,,,,,,,,,,,,,,,,,,,,,,,,,,,,,,,,,,,,,,,,,,,,,,,,,,161.9316762106591,161.9316762106591,119.88533313097756,156.71299857765183,161.22107167094708,84.77702408329,3.0,3.2,-255,-252,0,12,217,287,331.62029790878296,331.62038254737854,331.6232213973999,331.6345157623291,331.7807705402374,331.7807705402374,331.7807705402374,331.7807705402374,331.7807705402374,331.7807705402374,331.7807705402374,333.530522108078,1,1.8800227642059326,None,,,,,,,,,,,,,,,,,,152,2,2025-02-28_09h52.21.721,comp,2024.2.4,None,2025-02-28 09h57.26.956963 -0500,
88,88,0,filler_random,None,None,None,None,None,None,None,None,None,None,2,1.280785322189331,None,,,,,0,0,0,0,0,88,88,169,333.54605293273926,,,,,,,,,,,,,,,,,,,,,,,,,,,,,,,,,,,,,,,,,,,,,,,,,,,,,,,,,,,,,,,,,,,,,,,,,,,,,,,,,117.2142290103814,185.18331700676603,199.31502074363453,182.6790956270805,188.39338866151255,140.87043064958948,2.2,2.21,-280,-271,0,254,258,287,333.53221559524536,333.532297372818,333.53579354286194,333.54605293273926,333.69553208351135,333.69553208351135,333.69553208351135,333.69553208351135,333.69553208351135,333.69553208351135,333.69553208351135,334.82932782173157,2,1.280785322189331,None,,,,,,,,,,,,,,,,,,152,2,2025-02-28_09h52.21.721,comp,2024.2.4,None,2025-02-28 09h57.26.956963 -0500,
89,89,0,critical,dwh,35.0,1.0,upper,127.0,127.0,125.0,200.0,200.0,125.0,3,3.8681647777557373,None,,,,,0,0,0,0,0,89,89,61,334.8467905521393,,,,,,,,,,,,,,,,,,,,,,,,,,,,,,,,,,,,,,,,,,,,,,,,,,,,,,,,,,,,,,,,,,,,,,,,,,,,,,,,,127.0,127.0,125.0,200.0,200.0,125.0,1.0,1.1,-740,273,-480,259,-222,258,334.83092641830444,334.83100509643555,334.8340973854065,334.8467905521393,334.99943351745605,334.99943351745605,334.99943351745605,334.99943351745605,334.99943351745605,334.99943351745605,334.99943351745605,338.7171850204468,3,3.8681647777557373,None,,,,,,,,,,,,,,,,,,152,2,2025-02-28_09h52.21.721,comp,2024.2.4,None,2025-02-28 09h57.26.956963 -0500,
90,90,0,critical,hwd,35.0,4.0,lower,133.0,57.0,57.0,133.0,70.0,70.0,2,1.7972469329833984,None,,,,,0,0,0,0,0,90,90,100,338.7336161136627,,,,,,,,,,,,,,,,,,,,,,,,,,,,,,,,,,,,,,,,,,,,,,,,,,,,,,,,,,,,,,,,,,,,,,,,,,,,,,,,,133.0,57.0,57.0,133.0,70.0,70.0,4.0,4.2,-191,10,0,-267,198,16,338.71885418891907,338.7189590930939,338.72207283973694,338.7336161136627,338.88250613212585,338.88250613212585,338.88250613212585,338.88250613212585,338.88250613212585,338.88250613212585,338.88250613212585,340.5333049297333,2,1.7972469329833984,None,,,,,,,,,,,,,,,,,,152,2,2025-02-28_09h52.21.721,comp,2024.2.4,None,2025-02-28 09h57.26.956963 -0500,
91,91,0,filler_random,None,None,None,None,None,None,None,None,None,None,3,1.5161280632019043,None,,,,,0,0,0,0,0,91,91,150,340.5510141849518,,,,,,,,,,,,,,,,,,,,,,,,,,,,,,,,,,,,,,,,,,,,,,,,,,,,,,,,,,,,,,,,,,,,,,,,,,,,,,,,,191.5738777130961,118.15776008359569,87.01613538229907,130.19481347286444,172.28632920677754,170.9841892931661,4.0,4.1,-220,-268,0,-8,247,-266,340.53499722480774,340.535115480423,340.5380733013153,340.5510141849518,340.6973376274109,340.6973376274109,340.6973376274109,340.6973376274109,340.6973376274109,340.6973376274109,340.6973376274109,342.071763753891,3,1.5161280632019043,None,,,,,,,,,,,,,,,,,,152,2,2025-02-28_09h52.21.721,comp,2024.2.4,None,2025-02-28 09h57.26.956963 -0500,
92,92,0,filler_square,None,None,None,None,None,None,None,None,None,None,1,2.482781410217285,None,,,,,0,0,0,0,0,92,92,181,342.08770203590393,,,,,,,,,,,,,,,,,,,,,,,,,,,,,,,,,,,,,,,,,,,,,,,,,,,,,,,,,,,,,,,,,,,,,,,,,,,,,,,,,118.60376711559579,118.60376711559579,113.4768041559619,86.38712558689764,96.33068290298334,113.6870568048551,4.0,4.2,-198,-5,0,-279,196,-17,342.07370042800903,342.0737795829773,342.07694244384766,342.08770203590393,342.2362630367279,342.2362630367279,342.2362630367279,342.2362630367279,342.2362630367279,342.2362630367279,342.2362630367279,344.58708214759827,1,2.482781410217285,None,,,,,,,,,,,,,,,,,,152,2,2025-02-28_09h52.21.721,comp,2024.2.4,None,2025-02-28 09h57.26.956963 -0500,
93,93,0,critical,wdh,20.0,4.0,upper,125.0,200.0,141.0,141.0,200.0,125.0,3,1.9284420013427734,None,,,,,0,0,0,0,0,93,93,83,344.6025390625,,,,,,,,,,,,,,,,,,,,,,,,,,,,,,,,,,,,,,,,,,,,,,,,,,,,,,,,,,,,,,,,,,,,,,,,,,,,,,,,,125.0,200.0,141.0,141.0,200.0,125.0,4.0,4.2,-266,15,0,-288,229,6,344.5887076854706,344.588787317276,344.592120885849,344.6025390625,344.75013041496277,344.75013041496277,344.75013041496277,344.75013041496277,344.75013041496277,344.75013041496277,344.75013041496277,346.53332257270813,3,1.9284420013427734,None,,,,,,,,,,,,,,,,,,152,2,2025-02-28_09h52.21.721,comp,2024.2.4,None,2025-02-28 09h57.26.956963 -0500,
94,94,0,catch,None,None,None,None,None,None,None,None,None,None,3,1.1489434242248535,None,,,,,0,0,0,0,0,94,94,123,346.5498456954956,,,,,,,,,,,,,,,,,,,,,,,,,,,,,,,,,,,,,,,,,,,,,,,,,,,,,,,,,,,,,,,,,,,,,,,,,,,,,,,,,125,65,74,116,146,179,1.0,1.1,-666,288,-480,263,-236,283,346.5354645252228,346.53555178642273,346.5388152599335,346.5498456954956,346.70206212997437,346.70206212997437,346.70206212997437,346.70206212997437,346.70206212997437,346.70206212997437,346.70206212997437,347.7006871700287,3,1.1489434242248535,None,,,,,,,,,,,,,,,,,,152,2,2025-02-28_09h52.21.721,comp,2024.2.4,None,2025-02-28 09h57.26.956963 -0500,
95,95,0,filler_square,None,None,None,None,None,None,None,None,None,None,1,0.942798376083374,None,,,,,0,0,0,0,0,95,95,197,347.7167603969574,,,,,,,,,,,,,,,,,,,,,,,,,,,,,,,,,,,,,,,,,,,,,,,,,,,,,,,,,,,,,,,,,,,,,,,,,,,,,,,,,98.54892433090976,98.54892433090976,66.64120359755992,76.7878399235726,65.40003851231153,74.15889237574096,4.0,4.2,-184,10,0,-260,171,-15,347.7024450302124,347.7025635242462,347.70592045783997,347.7167603969574,347.86949729919434,347.86949729919434,347.86949729919434,347.86949729919434,347.86949729919434,347.86949729919434,347.86949729919434,348.6682412624359,1,0.942798376083374,None,,,,,,,,,,,,,,,,,,152,2,2025-02-28_09h52.21.721,comp,2024.2.4,None,2025-02-28 09h57.26.956963 -0500,
96,96,0,critical,dwh,20.0,2.1,lower,78.0,78.0,57.0,133.0,133.0,57.0,2,2.422755718231201,None,,,,,0,0,0,0,0,96,96,30,348.68435168266296,,,,,,,,,,,,,,,,,,,,,,,,,,,,,,,,,,,,,,,,,,,,,,,,,,,,,,,,,,,,,,,,,,,,,,,,,,,,,,,,,78.0,78.0,57.0,133.0,133.0,57.0,2.1,2.12,-202,-273,0,-279,191,261,348.66984605789185,348.6699233055115,348.67330503463745,348.68435168266296,348.8334665298462,348.8334665298462,348.8334665298462,348.8334665298462,348.8334665298462,348.8334665298462,348.8334665298462,351.1186773777008,2,2.422755718231201,None,,,,,,,,,,,,,,,,,,152,2,2025-02-28_09h52.21.721,comp,2024.2.4,None,2025-02-28 09h57.26.956963 -0500,
97,97,0,filler_random,None,None,None,None,None,None,None,None,None,None,3,2.3348848819732666,None,,,,,0,0,0,0,0,97,97,146,351.13231921195984,,,,,,,,,,,,,,,,,,,,,,,,,,,,,,,,,,,,,,,,,,,,,,,,,,,,,,,,,,,,,,,,,,,,,,,,,,,,,,,,,147.82653841046474,89.65975829852857,106.35449513397614,150.24995130763133,182.26548755467186,166.65557207553906,1.0,1.2,-216,11,0,16,254,6,351.12037444114685,351.120481967926,351.12334728240967,351.13231921195984,351.2901737689972,351.2901737689972,351.2901737689972,351.2901737689972,351.2901737689972,351.2901737689972,351.2901737689972,353.46984696388245,3,2.3348848819732666,None,,,,,,,,,,,,,,,,,,152,2,2025-02-28_09h52.21.721,comp,2024.2.4,None,2025-02-28 09h57.26.956963 -0500,
98,98,0,filler_square,None,None,None,None,None,None,None,None,None,None,3,3.0932540893554688,None,,,,,0,0,0,0,0,98,98,184,353.4865012168884,,,,,,,,,,,,,,,,,,,,,,,,,,,,,,,,,,,,,,,,,,,,,,,,,,,,,,,,,,,,,,,,,,,,,,,,,,,,,,,,,70.6144790264622,61.27285589225552,71.95935530273641,63.69939583906343,79.66063365550195,79.66063365550195,2.2,2.22,-158,263,0,-257,168,-289,353.47186160087585,353.4719486236572,353.47558522224426,353.4865012168884,353.63636207580566,353.63636207580566,353.63636207580566,353.63636207580566,353.63636207580566,353.63636207580566,353.63636207580566,356.5880846977234,3,3.0932540893554688,None,,,,,,,,,,,,,,,,,,152,2,2025-02-28_09h52.21.721,comp,2024.2.4,None,2025-02-28 09h57.26.956963 -0500,
99,99,0,critical,hwd,20.0,4.0,lower,133.0,57.0,57.0,133.0,78.0,78.0,2,4.2953057289123535,None,,,,,0,0,0,0,0,99,99,106,356.6039216518402,,,,,,,,,,,,,,,,,,,,,,,,,,,,,,,,,,,,,,,,,,,,,,,,,,,,,,,,,,,,,,,,,,,,,,,,,,,,,,,,,133.0,57.0,57.0,133.0,78.0,78.0,4.0,4.2,-191,-2,0,-288,202,4,356.5897171497345,356.5897967815399,356.593181848526,356.6039216518402,356.75696444511414,356.75696444511414,356.75696444511414,356.75696444511414,356.75696444511414,356.75696444511414,356.75696444511414,360.9078760147095,2,4.2953057289123535,None,,,,,,,,,,,,,,,,,,152,2,2025-02-28_09h52.21.721,comp,2024.2.4,None,2025-02-28 09h57.26.956963 -0500,
100,100,0,critical,hwd,35.0,2.1,upper,200.0,125.0,125.0,200.0,127.0,127.0,2,2.90336012840271,None,,,,,0,0,0,0,0,100,100,17,360.9239354133606,,,,,,,,,,,,,,,,,,,,,,,,,,,,,,,,,,,,,,,,,,,,,,,,,,,,,,,,,,,,,,,,,,,,,,,,,,,,,,,,,200.0,125.0,125.0,200.0,127.0,127.0,2.1,2.11,-258,253,0,288,260,-268,360.90974378585815,360.90986585617065,360.91282415390015,360.9239354133606,361.0725266933441,361.0725266933441,361.0725266933441,361.0725266933441,361.0725266933441,361.0725266933441,361.0725266933441,363.84425258636475,2,2.90336012840271,None,,,,,,,,,,,,,,,,,,152,2,2025-02-28_09h52.21.721,comp,2024.2.4,None,2025-02-28 09h57.26.956963 -0500,
101,101,0,critical,whd,20.0,2.1,upper,125.0,200.0,200.0,125.0,141.0,141.0,2,3.037414312362671,None,,,,,0,0,0,0,0,101,101,15,363.862007856369,,,,,,,,,,,,,,,,,,,,,,,,,,,,,,,,,,,,,,,,,,,,,,,,,,,,,,,,,,,,,,,,,,,,,,,,,,,,,,,,,125.0,200.0,200.0,125.0,141.0,141.0,2.1,2.12,-258,-286,0,-288,229,269,363.8459348678589,363.84607315063477,363.8492786884308,363.862007856369,364.00649905204773,364.00649905204773,364.00649905204773,364.00649905204773,364.00649905204773,364.00649905204773,364.00649905204773,366.9076192378998,2,3.037414312362671,None,,,,,,,,,,,,,,,,,,152,2,2025-02-28_09h52.21.721,comp,2024.2.4,None,2025-02-28 09h57.26.956963 -0500,
102,102,0,filler_random,None,None,None,None,None,None,None,None,None,None,3,1.4390389919281006,None,,,,,0,0,0,0,0,102,102,148,366.92359924316406,,,,,,,,,,,,,,,,,,,,,,,,,,,,,,,,,,,,,,,,,,,,,,,,,,,,,,,,,,,,,,,,,,,,,,,,,,,,,,,,,71.85634718579954,137.11684001979853,77.57898453555823,162.94555577034828,80.94311174761089,185.30165520057318,2.1,2.12,-246,-274,0,-263,270,260,366.909462928772,366.90955114364624,366.91283988952637,366.92359924316406,367.07199454307556,367.07199454307556,367.07199454307556,367.07199454307556,367.07199454307556,367.07199454307556,367.07199454307556,368.37535333633423,3,1.4390389919281006,None,,,,,,,,,,,,,,,,,,152,2,2025-02-28_09h52.21.721,comp,2024.2.4,None,2025-02-28 09h57.26.956963 -0500,
103,103,0,critical,hdw,20.0,2.1,upper,200.0,125.0,141.0,141.0,125.0,200.0,3,2.2782351970672607,None,,,,,0,0,0,0,0,103,103,47,368.3963806629181,,,,,,,,,,,,,,,,,,,,,,,,,,,,,,,,,,,,,,,,,,,,,,,,,,,,,,,,,,,,,,,,,,,,,,,,,,,,,,,,,200.0,125.0,141.0,141.0,125.0,200.0,2.1,2.12,-229,-283,0,-283,266,285,368.37697672843933,368.3770742416382,368.38054752349854,368.3963806629181,368.5413570404053,368.5413570404053,368.5413570404053,368.5413570404053,368.5413570404053,368.5413570404053,368.5413570404053,370.68874979019165,3,2.2782351970672607,None,,,,,,,,,,,,,,,,,,152,2,2025-02-28_09h52.21.721,comp,2024.2.4,None,2025-02-28 09h57.26.956963 -0500,
104,104,0,critical,wdh,35.0,2.1,upper,125.0,200.0,127.0,127.0,200.0,125.0,3,1.7546734809875488,None,,,,,0,0,0,0,0,104,104,9,370.70427346229553,,,,,,,,,,,,,,,,,,,,,,,,,,,,,,,,,,,,,,,,,,,,,,,,,,,,,,,,,,,,,,,,,,,,,,,,,,,,,,,,,125.0,200.0,127.0,127.0,200.0,125.0,2.1,2.12,-260,-269,0,-271,222,261,370.6902422904968,370.69032406806946,370.6932051181793,370.70427346229553,370.8569002151489,370.8569002151489,370.8569002151489,370.8569002151489,370.8569002151489,370.8569002151489,370.8569002151489,372.46447110176086,3,1.7546734809875488,None,,,,,,,,,,,,,,,,,,152,2,2025-02-28_09h52.21.721,comp,2024.2.4,None,2025-02-28 09h57.26.956963 -0500,
105,105,0,critical,wdh,20.0,3.0,lower,57.0,133.0,78.0,78.0,133.0,57.0,1,5.495712041854858,None,,,,,0,0,0,0,0,105,105,80,372.48291873931885,,,,,,,,,,,,,,,,,,,,,,,,,,,,,,,,,,,,,,,,,,,,,,,,,,,,,,,,,,,,,,,,,,,,,,,,,,,,,,,,,57.0,133.0,78.0,78.0,133.0,57.0,3.0,3.2,-202,-255,0,-15,164,281,372.4659974575043,372.4660761356354,372.46929025650024,372.48291873931885,372.6242206096649,372.6242206096649,372.6242206096649,372.6242206096649,372.6242206096649,372.6242206096649,372.6242206096649,377.9948980808258,1,5.495712041854858,None,,,,,,,,,,,,,,,,,,152,2,2025-02-28_09h52.21.721,comp,2024.2.4,None,2025-02-28 09h57.26.956963 -0500,
106,106,0,filler_square,None,None,None,None,None,None,None,None,None,None,3,2.215367555618286,None,,,,,0,0,0,0,0,106,106,190,378.01142597198486,,,,,,,,,,,,,,,,,,,,,,,,,,,,,,,,,,,,,,,,,,,,,,,,,,,,,,,,,,,,,,,,,,,,,,,,,,,,,,,,,63.84991477858008,72.04017375577564,97.05030579513259,85.83837064383022,99.75859109775709,99.75859109775709,2.2,2.21,-175,-279,0,267,189,276,377.996915102005,377.9970006942749,378.00066089630127,378.01142597198486,378.1629796028137,378.1629796028137,378.1629796028137,378.1629796028137,378.1629796028137,378.1629796028137,378.1629796028137,380.2288372516632,3,2.215367555618286,None,,,,,,,,,,,,,,,,,,152,2,2025-02-28_09h52.21.721,comp,2024.2.4,None,2025-02-28 09h57.26.956963 -0500,
107,107,0,critical,dhw,35.0,2.1,lower,70.0,70.0,133.0,57.0,57.0,133.0,3,2.4679601192474365,None,,,,,0,0,0,0,0,107,107,24,380.2467939853668,,,,,,,,,,,,,,,,,,,,,,,,,,,,,,,,,,,,,,,,,,,,,,,,,,,,,,,,,,,,,,,,,,,,,,,,,,,,,,,,,70.0,70.0,133.0,57.0,57.0,133.0,2.1,2.11,-160,259,0,290,191,-255,380.2304358482361,380.23051834106445,380.23381876945496,380.2467939853668,380.39498257637024,380.39498257637024,380.39498257637024,380.39498257637024,380.39498257637024,380.39498257637024,380.39498257637024,382.72977662086487,3,2.4679601192474365,None,,,,,,,,,,,,,,,,,,152,2,2025-02-28_09h52.21.721,comp,2024.2.4,None,2025-02-28 09h57.26.956963 -0500,
108,108,0,critical,dwh,35.0,2.1,upper,127.0,127.0,125.0,200.0,200.0,125.0,2,4.6173765659332275,None,,,,,0,0,0,0,0,108,108,29,382.745313167572,,,,,,,,,,,,,,,,,,,,,,,,,,,,,,,,,,,,,,,,,,,,,,,,,,,,,,,,,,,,,,,,,,,,,,,,,,,,,,,,,127.0,127.0,125.0,200.0,200.0,125.0,2.1,2.12,-260,-283,0,-269,258,270,382.73138189315796,382.7315104007721,382.7349603176117,382.745313167572,382.8948452472687,382.8948452472687,382.8948452472687,382.8948452472687,382.8948452472687,382.8948452472687,382.8948452472687,387.36551427841187,2,4.6173765659332275,None,,,,,,,,,,,,,,,,,,152,2,2025-02-28_09h52.21.721,comp,2024.2.4,None,2025-02-28 09h57.26.956963 -0500,
109,109,0,critical,dhw,35.0,1.0,upper,127.0,127.0,200.0,125.0,125.0,200.0,2,2.2769856452941895,None,,,,,0,0,0,0,0,109,109,49,387.38215136528015,,,,,,,,,,,,,,,,,,,,,,,,,,,,,,,,,,,,,,,,,,,,,,,,,,,,,,,,,,,,,,,,,,,,,,,,,,,,,,,,,127.0,127.0,200.0,125.0,125.0,200.0,1.0,1.3,258,-271,480,-284,738,-250,387.36717462539673,387.3673002719879,387.3713331222534,387.38215136528015,387.52962470054626,387.52962470054626,387.52962470054626,387.52962470054626,387.52962470054626,387.52962470054626,387.52962470054626,389.66366243362427,2,2.2769856452941895,None,,,,,,,,,,,,,,,,,,152,2,2025-02-28_09h52.21.721,comp,2024.2.4,None,2025-02-28 09h57.26.956963 -0500,
110,110,0,filler_square,None,None,None,None,None,None,None,None,None,None,1,1.240849494934082,None,,,,,0,0,0,0,0,110,110,193,389.68182277679443,,,,,,,,,,,,,,,,,,,,,,,,,,,,,,,,,,,,,,,,,,,,,,,,,,,,,,,,,,,,,,,,,,,,,,,,,,,,,,,,,185.70549200664686,185.70549200664686,109.96367376916923,78.18048077318656,97.17250858717509,154.68931236939648,2.1,2.11,-228,272,0,276,212,-288,389.6654646396637,389.66554951667786,389.6687252521515,389.68182277679443,389.828364610672,389.828364610672,389.828364610672,389.828364610672,389.828364610672,389.828364610672,389.828364610672,390.935631275177,1,1.240849494934082,None,,,,,,,,,,,,,,,,,,152,2,2025-02-28_09h52.21.721,comp,2024.2.4,None,2025-02-28 09h57.26.956963 -0500,
111,111,0,critical,whd,35.0,2.1,lower,57.0,133.0,133.0,57.0,70.0,70.0,2,3.5001330375671387,None,,,,,0,0,0,0,0,111,111,12,390.9504978656769,,,,,,,,,,,,,,,,,,,,,,,,,,,,,,,,,,,,,,,,,,,,,,,,,,,,,,,,,,,,,,,,,,,,,,,,,,,,,,,,,57.0,133.0,133.0,57.0,70.0,70.0,2.1,2.11,-191,266,0,266,160,-254,390.93721055984497,390.9372932910919,390.9401276111603,390.9504978656769,391.09662199020386,391.09662199020386,391.09662199020386,391.09662199020386,391.09662199020386,391.09662199020386,391.09662199020386,394.46566343307495,2,3.5001330375671387,None,,,,,,,,,,,,,,,,,,152,2,2025-02-28_09h52.21.721,comp,2024.2.4,None,2025-02-28 09h57.26.956963 -0500,
112,112,0,critical,hwd,20.0,1.0,lower,133.0,57.0,57.0,133.0,78.0,78.0,1,5.985914945602417,None,,,,,0,0,0,0,0,112,112,102,394.480792760849,,,,,,,,,,,,,,,,,,,,,,,,,,,,,,,,,,,,,,,,,,,,,,,,,,,,,,,,,,,,,,,,,,,,,,,,,,,,,,,,,133.0,57.0,57.0,133.0,78.0,78.0,1.0,1.3,289,-266,480,-276,682,-255,394.46709871292114,394.46717715263367,394.47057700157166,394.480792760849,394.6312382221222,394.6312382221222,394.6312382221222,394.6312382221222,394.6312382221222,394.6312382221222,394.6312382221222,400.4686288833618,1,5.985914945602417,None,,,,,,,,,,,,,,,,,,152,2,2025-02-28_09h52.21.721,comp,2024.2.4,None,2025-02-28 09h57.26.956963 -0500,
113,113,0,filler_square,None,None,None,None,None,None,None,None,None,None,1,1.4853053092956543,None,,,,,0,0,0,0,0,113,113,171,400.4854476451874,,,,,,,,,,,,,,,,,,,,,,,,,,,,,,,,,,,,,,,,,,,,,,,,,,,,,,,,,,,,,,,,,,,,,,,,,,,,,,,,,117.8326797661738,117.8326797661738,69.27764064646888,99.10445111821292,94.6189190111267,85.6004549189188,2.1,2.12,-204,-260,0,-285,188,253,400.47073674201965,400.4708728790283,400.4746835231781,400.4854476451874,400.6344497203827,400.6344497203827,400.6344497203827,400.6344497203827,400.6344497203827,400.6344497203827,400.6344497203827,401.9846761226654,1,1.4853053092956543,None,,,,,,,,,,,,,,,,,,152,2,2025-02-28_09h52.21.721,comp,2024.2.4,None,2025-02-28 09h57.26.956963 -0500,
114,114,0,critical,whd,20.0,3.0,lower,57.0,133.0,133.0,57.0,78.0,78.0,2,1.9792799949645996,None,,,,,0,0,0,0,0,114,114,92,402.0001575946808,,,,,,,,,,,,,,,,,,,,,,,,,,,,,,,,,,,,,,,,,,,,,,,,,,,,,,,,,,,,,,,,,,,,,,,,,,,,,,,,,57.0,133.0,133.0,57.0,78.0,78.0,3.0,3.2,-191,-254,0,1,164,283,401.9862985610962,401.9863784313202,401.98968291282654,402.0001575946808,402.1507022380829,402.1507022380829,402.1507022380829,402.1507022380829,402.1507022380829,402.1507022380829,402.1507022380829,403.98449206352234,2,1.9792799949645996,None,,,,,,,,,,,,,,,,,,152,2,2025-02-28_09h52.21.721,comp,2024.2.4,None,2025-02-28 09h57.26.956963 -0500,
115,115,0,critical,dwh,20.0,3.0,upper,141.0,141.0,125.0,200.0,200.0,125.0,2,2.114362955093384,None,,,,,0,0,0,0,0,115,115,69,404.0007514953613,,,,,,,,,,,,,,,,,,,,,,,,,,,,,,,,,,,,,,,,,,,,,,,,,,,,,,,,,,,,,,,,,,,,,,,,,,,,,,,,,141.0,141.0,125.0,200.0,200.0,125.0,3.0,3.1,-266,284,0,-6,258,-288,403.9859549999237,403.98603343963623,403.98913645744324,404.0007514953613,404.15284967422485,404.15284967422485,404.15284967422485,404.15284967422485,404.15284967422485,404.15284967422485,404.15284967422485,406.1214828491211,2,2.114362955093384,None,,,,,,,,,,,,,,,,,,152,2,2025-02-28_09h52.21.721,comp,2024.2.4,None,2025-02-28 09h57.26.956963 -0500,
116,116,0,critical,whd,35.0,4.0,lower,57.0,133.0,133.0,57.0,70.0,70.0,2,3.769207239151001,None,,,,,0,0,0,0,0,116,116,88,406.13749718666077,,,,,,,,,,,,,,,,,,,,,,,,,,,,,,,,,,,,,,,,,,,,,,,,,,,,,,,,,,,,,,,,,,,,,,,,,,,,,,,,,57.0,133.0,133.0,57.0,70.0,70.0,4.0,4.1,-191,-254,0,-14,160,-252,406.1231436729431,406.1232559680939,406.126718044281,406.13749718666077,406.2856025695801,406.2856025695801,406.2856025695801,406.2856025695801,406.2856025695801,406.2856025695801,406.2856025695801,409.91931533813477,2,3.769207239151001,None,,,,,,,,,,,,,,,,,,152,2,2025-02-28_09h52.21.721,comp,2024.2.4,None,2025-02-28 09h57.26.956963 -0500,
117,117,0,critical,dwh,20.0,3.0,lower,78.0,78.0,57.0,133.0,133.0,57.0,3,2.764747142791748,None,,,,,0,0,0,0,0,117,117,68,409.93531036376953,,,,,,,,,,,,,,,,,,,,,,,,,,,,,,,,,,,,,,,,,,,,,,,,,,,,,,,,,,,,,,,,,,,,,,,,,,,,,,,,,78.0,78.0,57.0,133.0,133.0,57.0,3.0,3.2,-202,-273,0,-10,191,280,409.92098212242126,409.9211142063141,409.92436838150024,409.93531036376953,410.0833351612091,410.0833351612091,410.0833351612091,410.0833351612091,410.0833351612091,410.0833351612091,410.0833351612091,412.70723843574524,3,2.764747142791748,None,,,,,,,,,,,,,,,,,,152,2,2025-02-28_09h52.21.721,comp,2024.2.4,None,2025-02-28 09h57.26.956963 -0500,
118,118,0,filler_square,None,None,None,None,None,None,None,None,None,None,3,3.119713306427002,None,,,,,0,0,0,0,0,118,118,188,412.7230656147003,,,,,,,,,,,,,,,,,,,,,,,,,,,,,,,,,,,,,,,,,,,,,,,,,,,,,,,,,,,,,,,,,,,,,,,,,,,,,,,,,106.84933815918251,106.25151150578813,57.87391804053747,114.0252914670026,123.08310801857151,123.08310801857151,1.0,1.1,-686,274,-480,268,-265,271,412.7090859413147,412.70916748046875,412.712384223938,412.7230656147003,412.87017130851746,412.87017130851746,412.87017130851746,412.87017130851746,412.87017130851746,412.87017130851746,412.87017130851746,415.8556957244873,3,3.119713306427002,None,,,,,,,,,,,,,,,,,,152,2,2025-02-28_09h52.21.721,comp,2024.2.4,None,2025-02-28 09h57.26.956963 -0500,
119,119,0,critical,whd,35.0,1.0,upper,125.0,200.0,200.0,125.0,127.0,127.0,2,1.6759693622589111,None,,,,,0,0,0,0,0,119,119,85,415.87149453163147,,,,,,,,,,,,,,,,,,,,,,,,,,,,,,,,,,,,,,,,,,,,,,,,,,,,,,,,,,,,,,,,,,,,,,,,,,,,,,,,,125.0,200.0,200.0,125.0,127.0,127.0,1.0,1.2,-258,-20,0,-1,222,-10,415.85713148117065,415.8572072982788,415.8603792190552,415.87149453163147,416.0236973762512,416.0236973762512,416.0236973762512,416.0236973762512,416.0236973762512,416.0236973762512,416.0236973762512,417.5575804710388,2,1.6759693622589111,None,,,,,,,,,,,,,,,,,,152,2,2025-02-28_09h52.21.721,comp,2024.2.4,None,2025-02-28 09h57.26.956963 -0500,
120,120,0,filler_random,None,None,None,None,None,None,None,None,None,None,3,1.9094953536987305,None,,,,,0,0,0,0,0,120,120,157,417.5740096569061,,,,,,,,,,,,,,,,,,,,,,,,,,,,,,,,,,,,,,,,,,,,,,,,,,,,,,,,,,,,,,,,,,,,,,,,,,,,,,,,,136.75149658955252,74.99608758128265,75.10770452407087,77.04421674490693,189.12542451551812,94.64871980885009,2.2,2.22,-172,283,0,-287,182,-283,417.55957221984863,417.55966091156006,417.56306624412537,417.5740096569061,417.72355103492737,417.72355103492737,417.72355103492737,417.72355103492737,417.72355103492737,417.72355103492737,417.72355103492737,419.49090361595154,3,1.9094953536987305,None,,,,,,,,,,,,,,,,,,152,2,2025-02-28_09h52.21.721,comp,2024.2.4,None,2025-02-28 09h57.26.956963 -0500,
121,121,0,critical,dhw,35.0,4.0,upper,127.0,127.0,200.0,125.0,125.0,200.0,2,1.8121912479400635,None,,,,,0,0,0,0,0,121,121,53,419.5109040737152,,,,,,,,,,,,,,,,,,,,,,,,,,,,,,,,,,,,,,,,,,,,,,,,,,,,,,,,,,,,,,,,,,,,,,,,,,,,,,,,,127.0,127.0,200.0,125.0,125.0,200.0,4.0,4.2,-222,-19,0,-264,258,-15,419.49243354797363,419.49252009391785,419.49595308303833,419.5109040737152,419.65807819366455,419.65807819366455,419.65807819366455,419.65807819366455,419.65807819366455,419.65807819366455,419.65807819366455,421.3250319957733,2,1.8121912479400635,None,,,,,,,,,,,,,,,,,,152,2,2025-02-28_09h52.21.721,comp,2024.2.4,None,2025-02-28 09h57.26.956963 -0500,
122,122,0,critical,dhw,20.0,1.0,upper,141.0,141.0,200.0,125.0,125.0,200.0,2,1.6290030479431152,None,,,,,0,0,0,0,0,122,122,55,421.3420660495758,,,,,,,,,,,,,,,,,,,,,,,,,,,,,,,,,,,,,,,,,,,,,,,,,,,,,,,,,,,,,,,,,,,,,,,,,,,,,,,,,141.0,141.0,200.0,125.0,125.0,200.0,1.0,1.1,-709,279,-480,273,-222,283,421.32673931121826,421.32684874534607,421.3304634094238,421.3420660495758,421.4892075061798,421.4892075061798,421.4892075061798,421.4892075061798,421.4892075061798,421.4892075061798,421.4892075061798,422.9764392375946,2,1.6290030479431152,None,,,,,,,,,,,,,,,,,,152,2,2025-02-28_09h52.21.721,comp,2024.2.4,None,2025-02-28 09h57.26.956963 -0500,
123,123,0,filler_square,None,None,None,None,None,None,None,None,None,None,2,1.3780145645141602,None,,,,,0,0,0,0,0,123,123,203,422.9928674697876,,,,,,,,,,,,,,,,,,,,,,,,,,,,,,,,,,,,,,,,,,,,,,,,,,,,,,,,,,,,,,,,,,,,,,,,,,,,,,,,,100.58202277531808,172.57330511353052,198.98749912808097,198.98749912808097,83.59372856848755,120.01022830714393,1.0,1.2,-282,0,0,3,255,5,422.97854709625244,422.9786329269409,422.982070684433,422.9928674697876,423.14076232910156,423.14076232910156,423.14076232910156,423.14076232910156,423.14076232910156,423.14076232910156,423.14076232910156,424.37525486946106,2,1.3780145645141602,None,,,,,,,,,,,,,,,,,,152,2,2025-02-28_09h52.21.721,comp,2024.2.4,None,2025-02-28 09h57.26.956963 -0500,
124,124,0,catch,None,None,None,None,None,None,None,None,None,None,1,1.5565712451934814,None,,,,,0,0,0,0,0,124,124,129,424.3920934200287,,,,,,,,,,,,,,,,,,,,,,,,,,,,,,,,,,,,,,,,,,,,,,,,,,,,,,,,,,,,,,,,,,,,,,,,,,,,,,,,,132,193,76,114,61,129,2.1,2.11,-250,287,0,255,218,-260,424.3771195411682,424.37719893455505,424.3805561065674,424.3920934200287,424.5421533584595,424.5421533584595,424.5421533584595,424.5421533584595,424.5421533584595,424.5421533584595,424.5421533584595,425.96465826034546,1,1.5565712451934814,None,,,,,,,,,,,,,,,,,,152,2,2025-02-28_09h52.21.721,comp,2024.2.4,None,2025-02-28 09h57.26.956963 -0500,
125,125,0,critical,dhw,20.0,3.0,lower,78.0,78.0,133.0,57.0,57.0,133.0,2,2.174293279647827,None,,,,,0,0,0,0,0,125,125,56,425.9810070991516,,,,,,,,,,,,,,,,,,,,,,,,,,,,,,,,,,,,,,,,,,,,,,,,,,,,,,,,,,,,,,,,,,,,,,,,,,,,,,,,,78.0,78.0,133.0,57.0,57.0,133.0,3.0,3.1,-164,258,0,-1,191,-289,425.9662537574768,425.96633410453796,425.96971440315247,425.9810070991516,426.1232748031616,426.1232748031616,426.1232748031616,426.1232748031616,426.1232748031616,426.1232748031616,426.1232748031616,428.1589615345001,2,2.174293279647827,None,,,,,,,,,,,,,,,,,,152,2,2025-02-28_09h52.21.721,comp,2024.2.4,None,2025-02-28 09h57.26.956963 -0500,
126,126,0,critical,whd,20.0,4.0,upper,125.0,200.0,200.0,125.0,141.0,141.0,2,2.874046564102173,None,,,,,0,0,0,0,0,126,126,95,428.1768162250519,,,,,,,,,,,,,,,,,,,,,,,,,,,,,,,,,,,,,,,,,,,,,,,,,,,,,,,,,,,,,,,,,,,,,,,,,,,,,,,,,125.0,200.0,200.0,125.0,141.0,141.0,4.0,4.2,-258,19,0,-273,229,5,428.16061997413635,428.16070103645325,428.1639702320099,428.1768162250519,428.32737946510315,428.32737946510315,428.32737946510315,428.32737946510315,428.32737946510315,428.32737946510315,428.32737946510315,431.06517910957336,2,2.874046564102173,None,,,,,,,,,,,,,,,,,,152,2,2025-02-28_09h52.21.721,comp,2024.2.4,None,2025-02-28 09h57.26.956963 -0500,
127,127,0,critical,dhw,20.0,2.1,upper,141.0,141.0,200.0,125.0,125.0,200.0,2,1.0576260089874268,None,,,,,0,0,0,0,0,127,127,27,431.0816490650177,,,,,,,,,,,,,,,,,,,,,,,,,,,,,,,,,,,,,,,,,,,,,,,,,,,,,,,,,,,,,,,,,,,,,,,,,,,,,,,,,141.0,141.0,200.0,125.0,125.0,200.0,2.1,2.11,-229,284,0,279,258,-264,431.06700015068054,431.0671298503876,431.07035183906555,431.0816490650177,431.2343363761902,431.2343363761902,431.2343363761902,431.2343363761902,431.2343363761902,431.2343363761902,431.2343363761902,432.1448040008545,2,1.0576260089874268,None,,,,,,,,,,,,,,,,,,152,2,2025-02-28_09h52.21.721,comp,2024.2.4,None,2025-02-28 09h57.26.956963 -0500,
128,128,0,filler_random,None,None,None,None,None,None,None,None,None,None,1,1.2658655643463135,None,,,,,0,0,0,0,0,128,128,142,432.16101002693176,,,,,,,,,,,,,,,,,,,,,,,,,,,,,,,,,,,,,,,,,,,,,,,,,,,,,,,,,,,,,,,,,,,,,,,,,,,,,,,,,196.05410484903553,121.76301174915065,97.88618089679967,89.44513383023283,191.0068272555866,73.15972124476872,2.2,2.22,-202,284,0,-260,177,-253,432.14646649360657,432.14654994010925,432.1496057510376,432.16101002693176,432.3135051727295,432.3135051727295,432.3135051727295,432.3135051727295,432.3135051727295,432.3135051727295,432.3135051727295,433.4434611797333,1,1.2658655643463135,None,,,,,,,,,,,,,,,,,,152,2,2025-02-28_09h52.21.721,comp,2024.2.4,None,2025-02-28 09h57.26.956963 -0500,
129,129,0,filler_random,None,None,None,None,None,None,None,None,None,None,2,2.7589526176452637,None,,,,,0,0,0,0,0,129,129,163,433.45982122421265,,,,,,,,,,,,,,,,,,,,,,,,,,,,,,,,,,,,,,,,,,,,,,,,,,,,,,,,,,,,,,,,,,,,,,,,,,,,,,,,,66.59726725058454,150.7211197319357,198.91171009968858,162.95133861300536,186.43006759730469,171.24206026223857,3.0,3.2,-253,-281,0,19,263,285,433.44514060020447,433.4452202320099,433.4483451843262,433.45982122421265,433.600252866745,433.600252866745,433.600252866745,433.600252866745,433.600252866745,433.600252866745,433.600252866745,436.2289001941681,2,2.7589526176452637,None,,,,,,,,,,,,,,,,,,152,2,2025-02-28_09h52.21.721,comp,2024.2.4,None,2025-02-28 09h57.26.956963 -0500,
130,130,0,critical,wdh,20.0,4.0,lower,57.0,133.0,78.0,78.0,133.0,57.0,3,1.7589526176452637,None,,,,,0,0,0,0,0,130,130,82,436.2455675601959,,,,,,,,,,,,,,,,,,,,,,,,,,,,,,,,,,,,,,,,,,,,,,,,,,,,,,,,,,,,,,,,,,,,,,,,,,,,,,,,,57.0,133.0,78.0,78.0,133.0,57.0,4.0,4.1,-202,-258,0,-12,164,-277,436.230388879776,436.23050808906555,436.2339904308319,436.2455675601959,436.3925063610077,436.3925063610077,436.3925063610077,436.3925063610077,436.3925063610077,436.3925063610077,436.3925063610077,438.01535272598267,3,1.7589526176452637,None,,,,,,,,,,,,,,,,,,152,2,2025-02-28_09h52.21.721,comp,2024.2.4,None,2025-02-28 09h57.26.956963 -0500,
131,131,0,catch,None,None,None,None,None,None,None,None,None,None,3,1.2668287754058838,None,,,,,0,0,0,0,0,131,131,120,438.0319654941559,,,,,,,,,,,,,,,,,,,,,,,,,,,,,,,,,,,,,,,,,,,,,,,,,,,,,,,,,,,,,,,,,,,,,,,,,,,,,,,,,64,126,109,81,194,131,3.0,3.1,-200,256,0,17,202,-280,438.01769280433655,438.0177788734436,438.0212845802307,438.0319654941559,438.17796516418457,438.17796516418457,438.17796516418457,438.17796516418457,438.17796516418457,438.17796516418457,438.17796516418457,439.31660652160645,3,1.2668287754058838,None,,,,,,,,,,,,,,,,,,152,2,2025-02-28_09h52.21.721,comp,2024.2.4,None,2025-02-28 09h57.26.956963 -0500,
132,132,0,filler_random,None,None,None,None,None,None,None,None,None,None,1,1.1343626976013184,None,,,,,0,0,0,0,0,132,132,147,439.3325614929199,,,,,,,,,,,,,,,,,,,,,,,,,,,,,,,,,,,,,,,,,,,,,,,,,,,,,,,,,,,,,,,,,,,,,,,,,,,,,,,,,195.4296539408313,91.48312063142562,154.64409458983482,61.699834465547866,189.9853590858777,79.15204205408085,3.0,3.2,-173,-257,0,-9,166,282,439.31847953796387,439.3185682296753,439.3214998245239,439.3325614929199,439.4794981479645,439.4794981479645,439.4794981479645,439.4794981479645,439.4794981479645,439.4794981479645,439.4794981479645,440.4806568622589,1,1.1343626976013184,None,,,,,,,,,,,,,,,,,,152,2,2025-02-28_09h52.21.721,comp,2024.2.4,None,2025-02-28 09h57.26.956963 -0500,
133,133,0,filler_square,None,None,None,None,None,None,None,None,None,None,2,0.8902914524078369,None,,,,,0,0,0,0,0,133,133,208,440.4965305328369,,,,,,,,,,,,,,,,,,,,,,,,,,,,,,,,,,,,,,,,,,,,,,,,,,,,,,,,,,,,,,,,,,,,,,,,,,,,,,,,,78.82765161998019,145.87469449996337,194.45335822571596,194.45335822571596,85.67514114643643,105.98616982858655,4.0,4.2,-266,15,0,-267,246,-5,440.48265075683594,440.48277831077576,440.48614287376404,440.4965305328369,440.64584970474243,440.64584970474243,440.64584970474243,440.64584970474243,440.64584970474243,440.64584970474243,440.64584970474243,441.4042103290558,2,0.8902914524078369,None,,,,,,,,,,,,,,,,,,152,2,2025-02-28_09h52.21.721,comp,2024.2.4,None,2025-02-28 09h57.26.956963 -0500,
134,134,0,critical,wdh,20.0,2.1,upper,125.0,200.0,141.0,141.0,200.0,125.0,3,2.6161069869995117,None,,,,,0,0,0,0,0,134,134,11,441.41901540756226,,,,,,,,,,,,,,,,,,,,,,,,,,,,,,,,,,,,,,,,,,,,,,,,,,,,,,,,,,,,,,,,,,,,,,,,,,,,,,,,,125.0,200.0,141.0,141.0,200.0,125.0,2.1,2.11,-266,262,0,278,229,-284,441.4057903289795,441.40587091445923,441.4087264537811,441.41901540756226,441.56948947906494,441.56948947906494,441.56948947906494,441.56948947906494,441.56948947906494,441.56948947906494,441.56948947906494,444.0475881099701,3,2.6161069869995117,None,,,,,,,,,,,,,,,,,,152,2,2025-02-28_09h52.21.721,comp,2024.2.4,None,2025-02-28 09h57.26.956963 -0500,
135,135,0,filler_random,None,None,None,None,None,None,None,None,None,None,3,1.538893699645996,None,,,,,0,0,0,0,0,135,135,160,444.06400656700134,,,,,,,,,,,,,,,,,,,,,,,,,,,,,,,,,,,,,,,,,,,,,,,,,,,,,,,,,,,,,,,,,,,,,,,,,,,,,,,,,140.1208675751655,97.20500692480178,74.11638180201479,58.3598362736445,139.29388637310012,125.14171206667115,2.2,2.22,-174,266,0,-271,188,-260,444.0493628978729,444.0495250225067,444.0527789592743,444.06400656700134,444.2193822860718,444.2193822860718,444.2193822860718,444.2193822860718,444.2193822860718,444.2193822860718,444.2193822860718,445.61869382858276,3,1.538893699645996,None,,,,,,,,,,,,,,,,,,152,2,2025-02-28_09h52.21.721,comp,2024.2.4,None,2025-02-28 09h57.26.956963 -0500,
136,136,0,filler_random,None,None,None,None,None,None,None,None,None,None,1,0.8803083896636963,None,,,,,0,0,0,0,0,136,136,145,445.6346833705902,,,,,,,,,,,,,,,,,,,,,,,,,,,,,,,,,,,,,,,,,,,,,,,,,,,,,,,,,,,,,,,,,,,,,,,,,,,,,,,,,162.76416184433475,163.44529200450646,67.42086535319599,118.7335028961779,130.7237123072019,122.15089394354248,4.0,4.2,-237,-18,0,-286,216,-18,445.6205265522003,445.6206085681915,445.6244385242462,445.6346833705902,445.78415632247925,445.78415632247925,445.78415632247925,445.78415632247925,445.78415632247925,445.78415632247925,445.78415632247925,446.5197150707245,1,0.8803083896636963,None,,,,,,,,,,,,,,,,,,152,2,2025-02-28_09h52.21.721,comp,2024.2.4,None,2025-02-28 09h57.26.956963 -0500,
137,137,0,filler_square,None,None,None,None,None,None,None,None,None,None,3,1.1257500648498535,None,,,,,0,0,0,0,0,137,137,182,446.5411732196808,,,,,,,,,,,,,,,,,,,,,,,,,,,,,,,,,,,,,,,,,,,,,,,,,,,,,,,,,,,,,,,,,,,,,,,,,,,,,,,,,95.53326385530812,163.6360869350669,72.89586837963965,116.73070260854563,181.56088924592495,181.56088924592495,2.2,2.21,-236,-277,0,285,245,260,446.5216987133026,446.52178025245667,446.5246551036835,446.5411732196808,446.68006348609924,446.68006348609924,446.68006348609924,446.68006348609924,446.68006348609924,446.68006348609924,446.68006348609924,447.6824560165405,3,1.1257500648498535,None,,,,,,,,,,,,,,,,,,152,2,2025-02-28_09h52.21.721,comp,2024.2.4,None,2025-02-28 09h57.26.956963 -0500,
138,138,0,filler_square,None,None,None,None,None,None,None,None,None,None,1,1.264446496963501,None,,,,,0,0,0,0,0,138,138,207,447.6984658241272,,,,,,,,,,,,,,,,,,,,,,,,,,,,,,,,,,,,,,,,,,,,,,,,,,,,,,,,,,,,,,,,,,,,,,,,,,,,,,,,,73.69992410939399,73.69992410939399,60.23534737705038,57.8177936909321,59.00781658225749,60.7147194024855,2.1,2.12,-162,-264,0,-256,155,271,447.6845805644989,447.6846625804901,447.6881558895111,447.6984658241272,447.84981989860535,447.84981989860535,447.84981989860535,447.84981989860535,447.84981989860535,447.84981989860535,447.84981989860535,448.97764921188354,1,1.264446496963501,None,,,,,,,,,,,,,,,,,,152,2,2025-02-28_09h52.21.721,comp,2024.2.4,None,2025-02-28 09h57.26.956963 -0500,
139,139,0,critical,dwh,35.0,4.0,upper,127.0,127.0,125.0,200.0,200.0,125.0,3,2.136953592300415,None,,,,,0,0,0,0,0,139,139,65,448.9939637184143,,,,,,,,,,,,,,,,,,,,,,,,,,,,,,,,,,,,,,,,,,,,,,,,,,,,,,,,,,,,,,,,,,,,,,,,,,,,,,,,,127.0,127.0,125.0,200.0,200.0,125.0,4.0,4.1,-260,-262,0,-14,258,-273,448.97918796539307,448.9792697429657,448.9825532436371,448.9939637184143,449.1329267024994,449.1329267024994,449.1329267024994,449.1329267024994,449.1329267024994,449.1329267024994,449.1329267024994,451.1497447490692,3,2.136953592300415,None,,,,,,,,,,,,,,,,,,152,2,2025-02-28_09h52.21.721,comp,2024.2.4,None,2025-02-28 09h57.26.956963 -0500,
140,140,0,critical,hwd,20.0,2.1,lower,133.0,57.0,57.0,133.0,78.0,78.0,1,1.6301696300506592,None,,,,,0,0,0,0,0,140,140,42,451.1652364730835,,,,,,,,,,,,,,,,,,,,,,,,,,,,,,,,,,,,,,,,,,,,,,,,,,,,,,,,,,,,,,,,,,,,,,,,,,,,,,,,,133.0,57.0,57.0,133.0,78.0,78.0,2.1,2.12,-191,-251,0,-255,202,280,451.15150356292725,451.15158677101135,451.15467500686646,451.1652364730835,451.3149437904358,451.3149437904358,451.3149437904358,451.3149437904358,451.3149437904358,451.3149437904358,451.3149437904358,452.7998983860016,1,1.6301696300506592,None,,,,,,,,,,,,,,,,,,152,2,2025-02-28_09h52.21.721,comp,2024.2.4,None,2025-02-28 09h57.26.956963 -0500,
141,141,0,filler_random,None,None,None,None,None,None,None,None,None,None,2,1.5823848247528076,None,,,,,0,0,0,0,0,141,141,154,452.82052206993103,,,,,,,,,,,,,,,,,,,,,,,,,,,,,,,,,,,,,,,,,,,,,,,,,,,,,,,,,,,,,,,,,,,,,,,,,,,,,,,,,188.39899894750852,146.59832970613633,199.55837938841088,124.02105855155602,117.15630677519641,182.2110710616777,4.0,4.2,-231,4,0,-270,249,-15,452.80167508125305,452.8017797470093,452.80526089668274,452.82052206993103,452.9675600528717,452.9675600528717,452.9675600528717,452.9675600528717,452.9675600528717,452.9675600528717,452.9675600528717,454.4151020050049,2,1.5823848247528076,None,,,,,,,,,,,,,,,,,,152,2,2025-02-28_09h52.21.721,comp,2024.2.4,None,2025-02-28 09h57.26.956963 -0500,
142,142,0,filler_square,None,None,None,None,None,None,None,None,None,None,3,3.531324625015259,None,,,,,0,0,0,0,0,142,142,180,454.4321482181549,,,,,,,,,,,,,,,,,,,,,,,,,,,,,,,,,,,,,,,,,,,,,,,,,,,,,,,,,,,,,,,,,,,,,,,,,,,,,,,,,60.7872177770711,60.7872177770711,59.48177628037551,60.136186329542795,60.38534080291581,60.02820331253855,2.2,2.22,-156,256,0,-270,156,-270,454.416880607605,454.4169600009918,454.4197795391083,454.4321482181549,454.58757305145264,454.58757305145264,454.58757305145264,454.58757305145264,454.58757305145264,454.58757305145264,454.58757305145264,457.97259640693665,3,3.531324625015259,None,,,,,,,,,,,,,,,,,,152,2,2025-02-28_09h52.21.721,comp,2024.2.4,None,2025-02-28 09h57.26.956963 -0500,
