thisN,thisTrialN,thisRepN,effect,order,distance,config,diag,h_1,w_1,h_2,w_2,h_3,w_3,rect_choice.keys,rect_choice.rt,rect_choice.duration,instructions_loop.thisRepN,instructions_loop.thisTrialN,instructions_loop.thisN,instructions_loop.thisIndex,blocks.thisRepN,blocks.thisTrialN,blocks.thisN,blocks.thisIndex,trials.thisRepN,trials.thisTrialN,trials.thisN,trials.thisIndex,thisRow.t,notes,consent.started,agree_button.started,decline_button.started,consent_img.started,mouse.started,consent.stopped,agree_button.numClicks,agree_button.timesOn,agree_button.timesOff,decline_button.numClicks,decline_button.timesOn,decline_button.timesOff,mouse.x,mouse.y,mouse.leftButton,mouse.midButton,mouse.rightButton,mouse.time,mouse.clicked_name,exp_params.started,exp_params.stopped,welcome.started,welcome_text.started,welcome.stopped,instructions_1.started,instructions_1_text_1.started,instructions_1_text_2.started,key_resp.started,instructions_1.stopped,instructions_loop.key_resp.keys,instructions_loop.key_resp.rt,instructions_loop.key_resp.duration,instructions_2.started,instructions_2_text_1.started,instructions_2_text_2.started,key_resp_2.started,instructions_2.stopped,instructions_loop.key_resp_2.keys,instructions_loop.key_resp_2.rt,instructions_loop.key_resp_2.duration,instructions_3.started,instructions_3_text_1.started,r1_instr3.started,r2_instr3.started,r3_instr3.started,r1_instr3_label.started,r2_instr3_label.started,r3_instr3_label.started,instructions_3_text_3.started,instructions_3_text_4.started,key_resp_3.started,instructions_3.stopped,instructions_loop.key_resp_3.keys,instructions_loop.key_resp_3.rt,instructions_loop.key_resp_3.duration,instructions_4.started,instructions_4_text_1.started,instructions_4_text_3.started,instructions_4_text_2.started,key_resp_4.started,instructions_4.stopped,instructions_loop.key_resp_4.keys,instructions_loop.key_resp_4.rt,instructions_loop.key_resp_4.duration,instructions_5.started,instructions_5_text_1.started,instructions_5_text_2.started,key_resp_5.started,instructions_5.stopped,instructions_loop.key_resp_5.keys,instructions_loop.key_resp_5.rt,instructions_loop.key_resp_5.duration,start_exp.started,start_exp_text.started,key_resp_6.started,start_exp.stopped,key_resp_6.keys,key_resp_6.rt,key_resp_6.duration,h_1_tmp,w_1_tmp,h_2_tmp,w_2_tmp,h_3_tmp,w_3_tmp,config_tmp,config_tmp_1,r_1_x,r_1_y,r_2_x,r_2_y,r_3_x,r_3_y,pre_trial.started,pre_trial.stopped,choice_trial.started,rect_choice.started,r_1.started,r_2.started,r_3.started,r_1_label.started,r_2_label.started,r_3_label.started,prompt.started,choice_trial.stopped,trials.rect_choice.keys,trials.rect_choice.rt,trials.rect_choice.duration,end_block.started,end_block_text.started,end_block.stopped,end.started,end_text.started,key_resp_7.started,end.stopped,key_resp_7.keys,key_resp_7.rt,key_resp_7.duration,debriefing.started,debrief_form.started,end_debrief.started,debriefing.stopped,end_debrief.keys,end_debrief.rt,end_debrief.duration,participant,computer,date,expName,psychopyVersion,frameRate,expStart,
,,,,,,,,,,,,,,,,,,,,,,,,,,,,,,,0.01556086540222168,0.09954357147216797,0.09954357147216797,0.09954357147216797,0.015100955963134766,6.612048625946045,1,[6.511277437210083],[6.511289119720459],0,,,[-51.0],[-495.0],[1],[0],[0],[6.578476667404175],['agree_button'],,,,,,,,,,,,,,,,,,,,,,,,,,,,,,,,,,,,,,,,,,,,,,,,,,,,,,,,,,,,,,,,,,,,,,,,,,,,,,,,,,,,,,,,,,,,,,,,,,,,,,,,,,,153,3,2025-02-28_09h53.42.497,comp,2024.2.4,60.08205175219454,2025-02-28 09h57.26.141376 -0500,
,,,,,,,,,,,,,,,,,,,,,,,,,,,,,,,,,,,,,,,,,,,,,,,,,,6.612334489822388,6.612367630004883,,,,,,,,,,,,,,,,,,,,,,,,,,,,,,,,,,,,,,,,,,,,,,,,,,,,,,,,,,,,,,,,,,,,,,,,,,,,,,,,,,,,,,,,,,,,,,,,,,,,,,,,,153,3,2025-02-28_09h53.42.497,comp,2024.2.4,60.08205175219454,2025-02-28 09h57.26.141376 -0500,
,,,,,,,,,,,,,,,,,,,,,,,,,,,,,,,,,,,,,,,,,,,,,,,,,,,,6.612389326095581,6.626304864883423,8.62291145324707,,,,,,,,,,,,,,,,,,,,,,,,,,,,,,,,,,,,,,,,,,,,,,,,,,,,,,,,,,,,,,,,,,,,,,,,,,,,,,,,,,,,,,,,,,,,,,,,,,,,,,153,3,2025-02-28_09h53.42.497,comp,2024.2.4,60.08205175219454,2025-02-28 09h57.26.141376 -0500,
0,0,0,,,,,,,,,,,,,,,0,0,0,0,,,,,,,,,8.639837503433228,,,,,,,,,,,,,,,,,,,,,,,,,,8.623435974121094,8.639837503433228,8.639837503433228,10.122878789901733,14.424476623535156,space,4.286070346832275,None,14.424553394317627,14.43982481956482,14.43982481956482,15.939741849899292,26.440576314926147,space,10.484700441360474,None,26.440656423568726,26.462872982025146,26.462872982025146,26.462872982025146,26.462872982025146,26.462872982025146,26.462872982025146,26.462872982025146,26.462872982025146,26.462872982025146,27.939913272857666,42.124220848083496,space,14.174046277999878,None,42.1243040561676,42.13995575904846,42.13995575904846,42.13995575904846,43.63949751853943,48.107077836990356,space,4.450172185897827,None,48.10715866088867,48.12287211418152,48.12287211418152,49.62277317047119,50.74034833908081,space,1.1000845432281494,None,50.74045538902283,50.756038188934326,50.756038188934326,52.44029259681702,space,1.6770918369293213,None,,,,,,,,,,,,,,,,,,,,,,,,,,,,,,,,,,,,,,,,,,,,,,,153,3,2025-02-28_09h53.42.497,comp,2024.2.4,60.08205175219454,2025-02-28 09h57.26.141376 -0500,
0,0,0,critical,wdh,35.0,4.0,upper,125.0,200.0,127.0,127.0,200.0,125.0,1,4.855058670043945,None,,,,,0,0,0,0,0,0,0,77,52.651405811309814,,,,,,,,,,,,,,,,,,,,,,,,,,,,,,,,,,,,,,,,,,,,,,,,,,,,,,,,,,,,,,,,,,,,,,,,,,,,,,,,,125.0,200.0,127.0,127.0,200.0,125.0,4.0,4.2,-260,-3,0,-281,222,-14,52.63654136657715,52.63660407066345,52.639360427856445,52.651405811309814,52.796658754348755,52.796658754348755,52.796658754348755,52.796658754348755,52.796658754348755,52.796658754348755,52.796658754348755,57.524126291275024,1,4.855058670043945,None,,,,,,,,,,,,,,,,,,153,3,2025-02-28_09h53.42.497,comp,2024.2.4,60.08205175219454,2025-02-28 09h57.26.141376 -0500,
1,1,0,filler_random,None,None,None,None,None,None,None,None,None,None,1,3.558130979537964,None,,,,,0,0,0,0,0,1,1,167,57.539321184158325,,,,,,,,,,,,,,,,,,,,,,,,,,,,,,,,,,,,,,,,,,,,,,,,,,,,,,,,,,,,,,,,,,,,,,,,,,,,,,,,,83.11534422519843,174.16597393167615,70.04243097204288,117.35141186781479,148.93998292716975,89.72961772699279,2.1,2.11,-242,256,0,277,200,-272,57.52504825592041,57.52509093284607,57.52743721008301,57.539321184158325,57.68955588340759,57.68955588340759,57.68955588340759,57.68955588340759,57.68955588340759,57.68955588340759,57.68955588340759,61.10714054107666,1,3.558130979537964,None,,,,,,,,,,,,,,,,,,153,3,2025-02-28_09h53.42.497,comp,2024.2.4,60.08205175219454,2025-02-28 09h57.26.141376 -0500,
2,2,0,critical,wdh,35.0,3.0,upper,125.0,200.0,127.0,127.0,200.0,125.0,1,6.7259416580200195,None,,,,,0,0,0,0,0,2,2,75,61.12308979034424,,,,,,,,,,,,,,,,,,,,,,,,,,,,,,,,,,,,,,,,,,,,,,,,,,,,,,,,,,,,,,,,,,,,,,,,,,,,,,,,,125.0,200.0,127.0,127.0,200.0,125.0,3.0,3.1,-260,284,0,12,222,-276,61.10793161392212,61.10797095298767,61.11034107208252,61.12308979034424,61.27291822433472,61.27291822433472,61.27291822433472,61.27291822433472,61.27291822433472,61.27291822433472,61.27291822433472,67.8572986125946,1,6.7259416580200195,None,,,,,,,,,,,,,,,,,,153,3,2025-02-28_09h53.42.497,comp,2024.2.4,60.08205175219454,2025-02-28 09h57.26.141376 -0500,
3,3,0,critical,wdh,20.0,3.0,upper,125.0,200.0,141.0,141.0,200.0,125.0,1,6.944252014160156,None,,,,,0,0,0,0,0,3,3,81,67.87272810935974,,,,,,,,,,,,,,,,,,,,,,,,,,,,,,,,,,,,,,,,,,,,,,,,,,,,,,,,,,,,,,,,,,,,,,,,,,,,,,,,,125.0,200.0,141.0,141.0,200.0,125.0,3.0,3.1,-266,259,0,-4,229,-279,67.85809564590454,67.85813641548157,67.86062288284302,67.87272810935974,68.02313303947449,68.02313303947449,68.02313303947449,68.02313303947449,68.02313303947449,68.02313303947449,68.02313303947449,74.82387781143188,1,6.944252014160156,None,,,,,,,,,,,,,,,,,,153,3,2025-02-28_09h53.42.497,comp,2024.2.4,60.08205175219454,2025-02-28 09h57.26.141376 -0500,
4,4,0,filler_square,None,None,None,None,None,None,None,None,None,None,1,4.025415420532227,None,,,,,0,0,0,0,0,4,4,176,74.83959674835205,,,,,,,,,,,,,,,,,,,,,,,,,,,,,,,,,,,,,,,,,,,,,,,,,,,,,,,,,,,,,,,,,,,,,,,,,,,,,,,,,77.10556488530123,77.10556488530123,64.86261571022072,74.52938759395778,72.21169552567697,67.54338279712519,4.0,4.2,-172,-15,0,-274,167,0,74.82482099533081,74.82486152648926,74.82697129249573,74.83959674835205,74.98930048942566,74.98930048942566,74.98930048942566,74.98930048942566,74.98930048942566,74.98930048942566,74.98930048942566,78.87364411354065,1,4.025415420532227,None,,,,,,,,,,,,,,,,,,153,3,2025-02-28_09h53.42.497,comp,2024.2.4,60.08205175219454,2025-02-28 09h57.26.141376 -0500,
5,5,0,critical,dwh,20.0,2.1,upper,141.0,141.0,125.0,200.0,200.0,125.0,2,3.89547061920166,None,,,,,0,0,0,0,0,5,5,7,78.88944172859192,,,,,,,,,,,,,,,,,,,,,,,,,,,,,,,,,,,,,,,,,,,,,,,,,,,,,,,,,,,,,,,,,,,,,,,,,,,,,,,,,141.0,141.0,125.0,200.0,200.0,125.0,2.1,2.11,-266,281,0,284,258,-286,78.87445998191833,78.87450122833252,78.87699151039124,78.88944172859192,79.03968071937561,79.03968071937561,79.03968071937561,79.03968071937561,79.03968071937561,79.03968071937561,79.03968071937561,82.79158663749695,2,3.89547061920166,None,,,,,,,,,,,,,,,,,,153,3,2025-02-28_09h53.42.497,comp,2024.2.4,60.08205175219454,2025-02-28 09h57.26.141376 -0500,
6,6,0,critical,hdw,35.0,2.1,upper,200.0,125.0,127.0,127.0,125.0,200.0,3,3.898427963256836,None,,,,,0,0,0,0,0,6,6,45,82.80787944793701,,,,,,,,,,,,,,,,,,,,,,,,,,,,,,,,,,,,,,,,,,,,,,,,,,,,,,,,,,,,,,,,,,,,,,,,,,,,,,,,,200.0,125.0,127.0,127.0,125.0,200.0,2.1,2.11,-222,257,0,252,260,-250,82.79237937927246,82.79375052452087,82.79653573036194,82.80787944793701,82.95602059364319,82.95602059364319,82.95602059364319,82.95602059364319,82.95602059364319,82.95602059364319,82.95602059364319,86.72381687164307,3,3.898427963256836,None,,,,,,,,,,,,,,,,,,153,3,2025-02-28_09h53.42.497,comp,2024.2.4,60.08205175219454,2025-02-28 09h57.26.141376 -0500,
7,7,0,filler_random,None,None,None,None,None,None,None,None,None,None,2,2.5099804401397705,None,,,,,0,0,0,0,0,7,7,164,86.73908162117004,,,,,,,,,,,,,,,,,,,,,,,,,,,,,,,,,,,,,,,,,,,,,,,,,,,,,,,,,,,,,,,,,,,,,,,,,,,,,,,,,109.4285511410848,141.38096569949144,163.15742147269555,114.54736884878864,96.20782498724765,161.48756466720232,2.1,2.11,-224,287,0,255,234,-250,86.72474002838135,86.72478008270264,86.72688865661621,86.73908162117004,86.88962364196777,86.88962364196777,86.88962364196777,86.88962364196777,86.88962364196777,86.88962364196777,86.88962364196777,89.25713229179382,2,2.5099804401397705,None,,,,,,,,,,,,,,,,,,153,3,2025-02-28_09h53.42.497,comp,2024.2.4,60.08205175219454,2025-02-28 09h57.26.141376 -0500,
8,8,0,catch,None,None,None,None,None,None,None,None,None,None,3,1.8499987125396729,None,,,,,0,0,0,0,0,8,8,122,89.27271819114685,,,,,,,,,,,,,,,,,,,,,,,,,,,,,,,,,,,,,,,,,,,,,,,,,,,,,,,,,,,,,,,,,,,,,,,,,,,,,,,,,83,107,79,111,170,155,2.1,2.12,-205,-253,0,-269,229,276,89.25817131996155,89.25821280479431,89.26068043708801,89.27271819114685,89.42261004447937,89.42261004447937,89.42261004447937,89.42261004447937,89.42261004447937,89.42261004447937,89.42261004447937,91.12392258644104,3,1.8499987125396729,None,,,,,,,,,,,,,,,,,,153,3,2025-02-28_09h53.42.497,comp,2024.2.4,60.08205175219454,2025-02-28 09h57.26.141376 -0500,
9,9,0,critical,dhw,20.0,3.0,upper,141.0,141.0,200.0,125.0,125.0,200.0,3,2.804553985595703,None,,,,,0,0,0,0,0,9,9,57,91.13933205604553,,,,,,,,,,,,,,,,,,,,,,,,,,,,,,,,,,,,,,,,,,,,,,,,,,,,,,,,,,,,,,,,,,,,,,,,,,,,,,,,,141.0,141.0,200.0,125.0,125.0,200.0,3.0,3.1,-229,263,0,-10,258,-254,91.1247308254242,91.1247706413269,91.12689280509949,91.13933205604553,91.28945922851562,91.28945922851562,91.28945922851562,91.28945922851562,91.28945922851562,91.28945922851562,91.28945922851562,93.95719027519226,3,2.804553985595703,None,,,,,,,,,,,,,,,,,,153,3,2025-02-28_09h53.42.497,comp,2024.2.4,60.08205175219454,2025-02-28 09h57.26.141376 -0500,
10,10,0,critical,hdw,35.0,2.1,upper,200.0,125.0,127.0,127.0,125.0,200.0,3,3.5881764888763428,None,,,,,0,0,0,0,0,10,10,21,93.97235703468323,,,,,,,,,,,,,,,,,,,,,,,,,,,,,,,,,,,,,,,,,,,,,,,,,,,,,,,,,,,,,,,,,,,,,,,,,,,,,,,,,200.0,125.0,127.0,127.0,125.0,200.0,2.1,2.12,-222,-289,0,-268,260,251,93.95800232887268,93.95804262161255,93.96042680740356,93.97235703468323,94.12265825271606,94.12265825271606,94.12265825271606,94.12265825271606,94.12265825271606,94.12265825271606,94.12265825271606,97.57372403144836,3,3.5881764888763428,None,,,,,,,,,,,,,,,,,,153,3,2025-02-28_09h53.42.497,comp,2024.2.4,60.08205175219454,2025-02-28 09h57.26.141376 -0500,
11,11,0,critical,wdh,20.0,1.0,lower,57.0,133.0,78.0,78.0,133.0,57.0,3,3.227823495864868,None,,,,,0,0,0,0,0,11,11,78,97.58902668952942,,,,,,,,,,,,,,,,,,,,,,,,,,,,,,,,,,,,,,,,,,,,,,,,,,,,,,,,,,,,,,,,,,,,,,,,,,,,,,,,,57.0,133.0,78.0,78.0,133.0,57.0,1.0,1.3,278,-282,480,-252,644,-265,97.5745141506195,97.57455515861511,97.57659578323364,97.58902668952942,97.73931050300598,97.73931050300598,97.73931050300598,97.73931050300598,97.73931050300598,97.73931050300598,97.73931050300598,100.82353711128235,3,3.227823495864868,None,,,,,,,,,,,,,,,,,,153,3,2025-02-28_09h53.42.497,comp,2024.2.4,60.08205175219454,2025-02-28 09h57.26.141376 -0500,
12,12,0,filler_square,None,None,None,None,None,None,None,None,None,None,2,7.504460573196411,None,,,,,0,0,0,0,0,12,12,183,100.83933997154236,,,,,,,,,,,,,,,,,,,,,,,,,,,,,,,,,,,,,,,,,,,,,,,,,,,,,,,,,,,,,,,,,,,,,,,,,,,,,,,,,117.05955729889422,90.25621182282649,187.5519470334973,187.5519470334973,186.58109644750724,179.47547931982612,2.2,2.21,-235,-262,0,288,280,279,100.82451224327087,100.82455396652222,100.8270320892334,100.83933997154236,100.98974609375,100.98974609375,100.98974609375,100.98974609375,100.98974609375,100.98974609375,100.98974609375,108.35706853866577,2,7.504460573196411,None,,,,,,,,,,,,,,,,,,153,3,2025-02-28_09h53.42.497,comp,2024.2.4,60.08205175219454,2025-02-28 09h57.26.141376 -0500,
13,13,0,critical,dwh,35.0,2.1,upper,127.0,127.0,125.0,200.0,200.0,125.0,2,6.851581811904907,None,,,,,0,0,0,0,0,13,13,29,108.37227487564087,,,,,,,,,,,,,,,,,,,,,,,,,,,,,,,,,,,,,,,,,,,,,,,,,,,,,,,,,,,,,,,,,,,,,,,,,,,,,,,,,127.0,127.0,125.0,200.0,200.0,125.0,2.1,2.11,-260,275,0,276,258,-259,108.35803365707397,108.35807251930237,108.36043524742126,108.37227487564087,108.52263832092285,108.52263832092285,108.52263832092285,108.52263832092285,108.52263832092285,108.52263832092285,108.52263832092285,115.24033856391907,2,6.851581811904907,None,,,,,,,,,,,,,,,,,,153,3,2025-02-28_09h53.42.497,comp,2024.2.4,60.08205175219454,2025-02-28 09h57.26.141376 -0500,
14,14,0,filler_random,None,None,None,None,None,None,None,None,None,None,1,1.9610426425933838,None,,,,,0,0,0,0,0,14,14,148,115.25565600395203,,,,,,,,,,,,,,,,,,,,,,,,,,,,,,,,,,,,,,,,,,,,,,,,,,,,,,,,,,,,,,,,,,,,,,,,,,,,,,,,,184.08618472998495,184.2095639535063,102.17613088751162,62.83210962191119,97.68813118011786,153.47335988478022,2.1,2.12,-220,-267,0,-274,204,263,115.24136066436768,115.24140214920044,115.24356579780579,115.25565600395203,115.4060161113739,115.4060161113739,115.4060161113739,115.4060161113739,115.4060161113739,115.4060161113739,115.4060161113739,117.22368478775024,1,1.9610426425933838,None,,,,,,,,,,,,,,,,,,153,3,2025-02-28_09h53.42.497,comp,2024.2.4,60.08205175219454,2025-02-28 09h57.26.141376 -0500,
15,15,0,filler_random,None,None,None,None,None,None,None,None,None,None,3,1.5211076736450195,None,,,,,0,0,0,0,0,15,15,139,117.23922753334045,,,,,,,,,,,,,,,,,,,,,,,,,,,,,,,,,,,,,,,,,,,,,,,,,,,,,,,,,,,,,,,,,,,,,,,,,,,,,,,,,127.49471827896609,64.48223732007915,77.92122159050275,157.56631169791598,131.72326364912266,182.56499860940983,4.0,4.1,-207,-273,0,19,266,-259,117.22459721565247,117.22463774681091,117.22719979286194,117.23922753334045,117.38911080360413,117.38911080360413,117.38911080360413,117.38911080360413,117.38911080360413,117.38911080360413,117.38911080360413,118.77350521087646,3,1.5211076736450195,None,,,,,,,,,,,,,,,,,,153,3,2025-02-28_09h53.42.497,comp,2024.2.4,60.08205175219454,2025-02-28 09h57.26.141376 -0500,
16,16,0,filler_square,None,None,None,None,None,None,None,None,None,None,3,0.8758821487426758,None,,,,,0,0,0,0,0,16,16,187,118.7888491153717,,,,,,,,,,,,,,,,,,,,,,,,,,,,,,,,,,,,,,,,,,,,,,,,,,,,,,,,,,,,,,,,,,,,,,,,,,,,,,,,,58.57719200287986,115.60433572402273,86.00345361554403,112.00783847960992,181.90903031300076,181.90903031300076,1.0,1.1,-690,256,-480,259,-237,274,118.77444410324097,118.77448153495789,118.7770049571991,118.7888491153717,118.93918085098267,118.93918085098267,118.93918085098267,118.93918085098267,118.93918085098267,118.93918085098267,118.93918085098267,119.67361235618591,3,0.8758821487426758,None,,,,,,,,,,,,,,,,,,153,3,2025-02-28_09h53.42.497,comp,2024.2.4,60.08205175219454,2025-02-28 09h57.26.141376 -0500,
17,17,0,critical,whd,20.0,4.0,upper,125.0,200.0,200.0,125.0,141.0,141.0,1,4.216952562332153,None,,,,,0,0,0,0,0,17,17,95,119.68905711174011,,,,,,,,,,,,,,,,,,,,,,,,,,,,,,,,,,,,,,,,,,,,,,,,,,,,,,,,,,,,,,,,,,,,,,,,,,,,,,,,,125.0,200.0,200.0,125.0,141.0,141.0,4.0,4.2,-258,-13,0,-252,229,0,119.67440366744995,119.6744430065155,119.676913022995,119.68905711174011,119.83920907974243,119.83920907974243,119.83920907974243,119.83920907974243,119.83920907974243,119.83920907974243,119.83920907974243,123.90708470344543,1,4.216952562332153,None,,,,,,,,,,,,,,,,,,153,3,2025-02-28_09h53.42.497,comp,2024.2.4,60.08205175219454,2025-02-28 09h57.26.141376 -0500,
18,18,0,critical,dhw,20.0,2.1,lower,78.0,78.0,133.0,57.0,57.0,133.0,1,4.431753873825073,None,,,,,0,0,0,0,0,18,18,26,123.92270708084106,,,,,,,,,,,,,,,,,,,,,,,,,,,,,,,,,,,,,,,,,,,,,,,,,,,,,,,,,,,,,,,,,,,,,,,,,,,,,,,,,78.0,78.0,133.0,57.0,57.0,133.0,2.1,2.11,-164,285,0,268,191,-259,123.9078574180603,123.90789556503296,123.91021752357483,123.92270708084106,124.07247638702393,124.07247638702393,124.07247638702393,124.07247638702393,124.07247638702393,124.07247638702393,124.07247638702393,128.35686492919922,1,4.431753873825073,None,,,,,,,,,,,,,,,,,,153,3,2025-02-28_09h53.42.497,comp,2024.2.4,60.08205175219454,2025-02-28 09h57.26.141376 -0500,
19,19,0,critical,hdw,20.0,4.0,upper,200.0,125.0,141.0,141.0,125.0,200.0,3,3.116952657699585,None,,,,,0,0,0,0,0,19,19,119,128.37254333496094,,,,,,,,,,,,,,,,,,,,,,,,,,,,,,,,,,,,,,,,,,,,,,,,,,,,,,,,,,,,,,,,,,,,,,,,,,,,,,,,,200.0,125.0,141.0,141.0,125.0,200.0,4.0,4.2,-229,-8,0,-259,266,-18,128.35764575004578,128.35768628120422,128.35982418060303,128.37254333496094,128.52256298065186,128.52256298065186,128.52256298065186,128.52256298065186,128.52256298065186,128.52256298065186,128.52256298065186,131.50699591636658,3,3.116952657699585,None,,,,,,,,,,,,,,,,,,153,3,2025-02-28_09h53.42.497,comp,2024.2.4,60.08205175219454,2025-02-28 09h57.26.141376 -0500,
20,20,0,filler_random,None,None,None,None,None,None,None,None,None,None,2,1.0624656677246094,None,,,,,0,0,0,0,0,20,20,135,131.52212023735046,,,,,,,,,,,,,,,,,,,,,,,,,,,,,,,,,,,,,,,,,,,,,,,,,,,,,,,,,,,,,,,,,,,,,,,,,,,,,,,,,128.63527850914906,88.65451388828993,153.28759803411526,124.59595157801034,98.84758299426989,80.31775849231573,2.1,2.12,-203,-276,0,-263,198,285,131.50789761543274,131.50793623924255,131.50994896888733,131.52212023735046,131.67235231399536,131.67235231399536,131.67235231399536,131.67235231399536,131.67235231399536,131.67235231399536,131.67235231399536,132.59010219573975,2,1.0624656677246094,None,,,,,,,,,,,,,,,,,,153,3,2025-02-28_09h53.42.497,comp,2024.2.4,60.08205175219454,2025-02-28 09h57.26.141376 -0500,
21,21,0,filler_random,None,None,None,None,None,None,None,None,None,None,2,1.105957269668579,None,,,,,0,0,0,0,0,21,21,157,132.6056752204895,,,,,,,,,,,,,,,,,,,,,,,,,,,,,,,,,,,,,,,,,,,,,,,,,,,,,,,,,,,,,,,,,,,,,,,,,,,,,,,,,175.79566296693395,108.78306824401781,168.9222018390284,196.58036608055582,82.74794658124299,177.55343936467725,2.1,2.11,-249,279,0,258,283,-280,132.5909881591797,132.59102821350098,132.59350085258484,132.6056752204895,132.75566482543945,132.75566482543945,132.75566482543945,132.75566482543945,132.75566482543945,132.75566482543945,132.75566482543945,133.72357654571533,2,1.105957269668579,None,,,,,,,,,,,,,,,,,,153,3,2025-02-28_09h53.42.497,comp,2024.2.4,60.08205175219454,2025-02-28 09h57.26.141376 -0500,
22,22,0,critical,hwd,20.0,1.0,lower,133.0,57.0,57.0,133.0,78.0,78.0,2,6.63066291809082,None,,,,,0,0,0,0,0,22,22,102,133.73884558677673,,,,,,,,,,,,,,,,,,,,,,,,,,,,,,,,,,,,,,,,,,,,,,,,,,,,,,,,,,,,,,,,,,,,,,,,,,,,,,,,,133.0,57.0,57.0,133.0,78.0,78.0,1.0,1.1,-671,257,-480,251,-278,254,133.72438597679138,133.72442603111267,133.72787880897522,133.73884558677673,133.88897705078125,133.88897705078125,133.88897705078125,133.88897705078125,133.88897705078125,133.88897705078125,133.88897705078125,140.37337946891785,2,6.63066291809082,None,,,,,,,,,,,,,,,,,,153,3,2025-02-28_09h53.42.497,comp,2024.2.4,60.08205175219454,2025-02-28 09h57.26.141376 -0500,
23,23,0,critical,dwh,20.0,1.0,lower,78.0,78.0,57.0,133.0,133.0,57.0,3,6.180492162704468,None,,,,,0,0,0,0,0,23,23,66,140.38890552520752,,,,,,,,,,,,,,,,,,,,,,,,,,,,,,,,,,,,,,,,,,,,,,,,,,,,,,,,,,,,,,,,,,,,,,,,,,,,,,,,,78.0,78.0,57.0,133.0,133.0,57.0,1.0,1.2,-202,-14,0,8,191,14,140.37415051460266,140.3741898536682,140.37658381462097,140.38890552520752,140.53878474235535,140.53878474235535,140.53878474235535,140.53878474235535,140.53878474235535,140.53878474235535,140.53878474235535,146.5734076499939,3,6.180492162704468,None,,,,,,,,,,,,,,,,,,153,3,2025-02-28_09h53.42.497,comp,2024.2.4,60.08205175219454,2025-02-28 09h57.26.141376 -0500,
24,24,0,critical,hwd,35.0,4.0,lower,133.0,57.0,57.0,133.0,70.0,70.0,1,8.051167964935303,None,,,,,0,0,0,0,0,24,24,100,146.5889024734497,,,,,,,,,,,,,,,,,,,,,,,,,,,,,,,,,,,,,,,,,,,,,,,,,,,,,,,,,,,,,,,,,,,,,,,,,,,,,,,,,133.0,57.0,57.0,133.0,70.0,70.0,4.0,4.1,-191,-255,0,-14,198,-264,146.574200630188,146.57424139976501,146.57661080360413,146.5889024734497,146.73878455162048,146.73878455162048,146.73878455162048,146.73878455162048,146.73878455162048,146.73878455162048,146.73878455162048,154.65643954277039,1,8.051167964935303,None,,,,,,,,,,,,,,,,,,153,3,2025-02-28_09h53.42.497,comp,2024.2.4,60.08205175219454,2025-02-28 09h57.26.141376 -0500,
25,25,0,critical,hwd,20.0,4.0,lower,133.0,57.0,57.0,133.0,78.0,78.0,2,2.4170303344726562,None,,,,,0,0,0,0,0,25,25,106,154.67193984985352,,,,,,,,,,,,,,,,,,,,,,,,,,,,,,,,,,,,,,,,,,,,,,,,,,,,,,,,,,,,,,,,,,,,,,,,,,,,,,,,,133.0,57.0,57.0,133.0,78.0,78.0,4.0,4.1,-191,-265,0,-12,202,-265,154.65720558166504,154.6572425365448,154.65973091125488,154.67193984985352,154.82214331626892,154.82214331626892,154.82214331626892,154.82214331626892,154.82214331626892,154.82214331626892,154.82214331626892,157.10650420188904,2,2.4170303344726562,None,,,,,,,,,,,,,,,,,,153,3,2025-02-28_09h53.42.497,comp,2024.2.4,60.08205175219454,2025-02-28 09h57.26.141376 -0500,
26,26,0,critical,dwh,35.0,2.1,lower,70.0,70.0,57.0,133.0,133.0,57.0,2,2.678337335586548,None,,,,,0,0,0,0,0,26,26,4,157.12204313278198,,,,,,,,,,,,,,,,,,,,,,,,,,,,,,,,,,,,,,,,,,,,,,,,,,,,,,,,,,,,,,,,,,,,,,,,,,,,,,,,,70.0,70.0,57.0,133.0,133.0,57.0,2.1,2.12,-198,-288,0,-289,191,262,157.10735726356506,157.10739636421204,157.10996294021606,157.12204313278198,157.27197670936584,157.27197670936584,157.27197670936584,157.27197670936584,157.27197670936584,157.27197670936584,157.27197670936584,159.8063840866089,2,2.678337335586548,None,,,,,,,,,,,,,,,,,,153,3,2025-02-28_09h53.42.497,comp,2024.2.4,60.08205175219454,2025-02-28 09h57.26.141376 -0500,
27,27,0,filler_square,None,None,None,None,None,None,None,None,None,None,2,2.289367198944092,None,,,,,0,0,0,0,0,27,27,170,159.82212233543396,,,,,,,,,,,,,,,,,,,,,,,,,,,,,,,,,,,,,,,,,,,,,,,,,,,,,,,,,,,,,,,,,,,,,,,,,,,,,,,,,61.208287370535054,61.40532255443888,74.92681055965573,74.92681055965573,67.27599189847126,74.888163580868,4.0,4.1,-164,-289,0,-12,171,-250,159.80753469467163,159.80757594108582,159.81015634536743,159.82212233543396,159.97191452980042,159.97191452980042,159.97191452980042,159.97191452980042,159.97191452980042,159.97191452980042,159.97191452980042,162.12327098846436,2,2.289367198944092,None,,,,,,,,,,,,,,,,,,153,3,2025-02-28_09h53.42.497,comp,2024.2.4,60.08205175219454,2025-02-28 09h57.26.141376 -0500,
28,28,0,catch,None,None,None,None,None,None,None,None,None,None,2,1.8330585956573486,None,,,,,0,0,0,0,0,28,28,120,162.13856101036072,,,,,,,,,,,,,,,,,,,,,,,,,,,,,,,,,,,,,,,,,,,,,,,,,,,,,,,,,,,,,,,,,,,,,,,,,,,,,,,,,109,81,180,145,124,66,2.1,2.11,-209,282,0,259,202,-268,162.12433123588562,162.12437081336975,162.12685012817383,162.13856101036072,162.28877353668213,162.28877353668213,162.28877353668213,162.28877353668213,162.28877353668213,162.28877353668213,162.28877353668213,163.99002385139465,2,1.8330585956573486,None,,,,,,,,,,,,,,,,,,153,3,2025-02-28_09h53.42.497,comp,2024.2.4,60.08205175219454,2025-02-28 09h57.26.141376 -0500,
29,29,0,filler_square,None,None,None,None,None,None,None,None,None,None,3,2.0750839710235596,None,,,,,0,0,0,0,0,29,29,200,164.00535488128662,,,,,,,,,,,,,,,,,,,,,,,,,,,,,,,,,,,,,,,,,,,,,,,,,,,,,,,,,,,,,,,,,,,,,,,,,,,,,,,,,100.52264959199465,80.63502697426381,164.37338592358344,134.33836020981235,167.36148133126977,167.36148133126977,4.0,4.2,-203,-8,0,-271,247,15,163.9909827709198,163.99102187156677,163.9933466911316,164.00535488128662,164.15556812286377,164.15556812286377,164.15556812286377,164.15556812286377,164.15556812286377,164.15556812286377,164.15556812286377,166.08996868133545,3,2.0750839710235596,None,,,,,,,,,,,,,,,,,,153,3,2025-02-28_09h53.42.497,comp,2024.2.4,60.08205175219454,2025-02-28 09h57.26.141376 -0500,
30,30,0,critical,whd,20.0,2.1,upper,125.0,200.0,200.0,125.0,141.0,141.0,2,5.318104982376099,None,,,,,0,0,0,0,0,30,30,15,166.10546898841858,,,,,,,,,,,,,,,,,,,,,,,,,,,,,,,,,,,,,,,,,,,,,,,,,,,,,,,,,,,,,,,,,,,,,,,,,,,,,,,,,125.0,200.0,200.0,125.0,141.0,141.0,2.1,2.12,-258,-284,0,-288,229,267,166.09079337120056,166.09084630012512,166.09334444999695,166.10546898841858,166.25558614730835,166.25558614730835,166.25558614730835,166.25558614730835,166.25558614730835,166.25558614730835,166.25558614730835,171.44007658958435,2,5.318104982376099,None,,,,,,,,,,,,,,,,,,153,3,2025-02-28_09h53.42.497,comp,2024.2.4,60.08205175219454,2025-02-28 09h57.26.141376 -0500,
31,31,0,critical,dhw,20.0,4.0,lower,78.0,78.0,133.0,57.0,57.0,133.0,3,7.977047920227051,None,,,,,0,0,0,0,0,31,31,58,171.45528411865234,,,,,,,,,,,,,,,,,,,,,,,,,,,,,,,,,,,,,,,,,,,,,,,,,,,,,,,,,,,,,,,,,,,,,,,,,,,,,,,,,78.0,78.0,133.0,57.0,57.0,133.0,4.0,4.1,-164,-284,0,-2,191,-267,171.440904378891,171.4409453868866,171.44305658340454,171.45528411865234,171.60528016090393,171.60528016090393,171.60528016090393,171.60528016090393,171.60528016090393,171.60528016090393,171.60528016090393,179.43967127799988,3,7.977047920227051,None,,,,,,,,,,,,,,,,,,153,3,2025-02-28_09h53.42.497,comp,2024.2.4,60.08205175219454,2025-02-28 09h57.26.141376 -0500,
32,32,0,filler_random,None,None,None,None,None,None,None,None,None,None,3,3.1768510341644287,None,,,,,0,0,0,0,0,32,32,145,179.45537853240967,,,,,,,,,,,,,,,,,,,,,,,,,,,,,,,,,,,,,,,,,,,,,,,,,,,,,,,,,,,,,,,,,,,,,,,,,,,,,,,,,103.83819403198046,187.50156113233868,68.23006473410821,110.22422257637461,103.54267670028753,189.2964759670617,1.0,1.2,-245,16,0,2,246,-6,179.44057440757751,179.44061517715454,179.44320583343506,179.45537853240967,179.60524773597717,179.60524773597717,179.60524773597717,179.60524773597717,179.60524773597717,179.60524773597717,179.60524773597717,182.6398754119873,3,3.1768510341644287,None,,,,,,,,,,,,,,,,,,153,3,2025-02-28_09h53.42.497,comp,2024.2.4,60.08205175219454,2025-02-28 09h57.26.141376 -0500,
33,33,0,critical,hdw,35.0,3.0,lower,133.0,57.0,70.0,70.0,57.0,133.0,3,7.344677448272705,None,,,,,0,0,0,0,0,33,33,110,182.65547490119934,,,,,,,,,,,,,,,,,,,,,,,,,,,,,,,,,,,,,,,,,,,,,,,,,,,,,,,,,,,,,,,,,,,,,,,,,,,,,,,,,133.0,57.0,70.0,70.0,57.0,133.0,3.0,3.2,-160,-275,0,12,198,265,182.6406717300415,182.64071249961853,182.64280080795288,182.65547490119934,182.8051643371582,182.8051643371582,182.8051643371582,182.8051643371582,182.8051643371582,182.8051643371582,182.8051643371582,190.00620007514954,3,7.344677448272705,None,,,,,,,,,,,,,,,,,,153,3,2025-02-28_09h53.42.497,comp,2024.2.4,60.08205175219454,2025-02-28 09h57.26.141376 -0500,
34,34,0,critical,dwh,35.0,1.0,lower,70.0,70.0,57.0,133.0,133.0,57.0,3,4.417487382888794,None,,,,,0,0,0,0,0,34,34,60,190.02190446853638,,,,,,,,,,,,,,,,,,,,,,,,,,,,,,,,,,,,,,,,,,,,,,,,,,,,,,,,,,,,,,,,,,,,,,,,,,,,,,,,,70.0,70.0,57.0,133.0,133.0,57.0,1.0,1.3,282,-276,480,-269,671,-271,190.0069978237152,190.00703740119934,190.0093858242035,190.02190446853638,190.1719377040863,190.1719377040863,190.1719377040863,190.1719377040863,190.1719377040863,190.1719377040863,190.1719377040863,194.45632481575012,3,4.417487382888794,None,,,,,,,,,,,,,,,,,,153,3,2025-02-28_09h53.42.497,comp,2024.2.4,60.08205175219454,2025-02-28 09h57.26.141376 -0500,
35,35,0,critical,dhw,35.0,2.1,upper,127.0,127.0,200.0,125.0,125.0,200.0,2,2.9364147186279297,None,,,,,0,0,0,0,0,35,35,25,194.47173309326172,,,,,,,,,,,,,,,,,,,,,,,,,,,,,,,,,,,,,,,,,,,,,,,,,,,,,,,,,,,,,,,,,,,,,,,,,,,,,,,,,127.0,127.0,200.0,125.0,125.0,200.0,2.1,2.12,-222,-268,0,-273,258,274,194.45722794532776,194.45726704597473,194.45939540863037,194.47173309326172,194.62205266952515,194.62205266952515,194.62205266952515,194.62205266952515,194.62205266952515,194.62205266952515,194.62205266952515,197.42317628860474,2,2.9364147186279297,None,,,,,,,,,,,,,,,,,,153,3,2025-02-28_09h53.42.497,comp,2024.2.4,60.08205175219454,2025-02-28 09h57.26.141376 -0500,
36,36,0,critical,hwd,35.0,2.1,lower,133.0,57.0,57.0,133.0,70.0,70.0,2,6.088799715042114,None,,,,,0,0,0,0,0,36,36,16,197.43837761878967,,,,,,,,,,,,,,,,,,,,,,,,,,,,,,,,,,,,,,,,,,,,,,,,,,,,,,,,,,,,,,,,,,,,,,,,,,,,,,,,,133.0,57.0,57.0,133.0,70.0,70.0,2.1,2.11,-191,290,0,251,198,-256,197.42398047447205,197.42402124404907,197.42619156837463,197.43837761878967,197.58845782279968,197.58845782279968,197.58845782279968,197.58845782279968,197.58845782279968,197.58845782279968,197.58845782279968,203.5395224094391,2,6.088799715042114,None,,,,,,,,,,,,,,,,,,153,3,2025-02-28_09h53.42.497,comp,2024.2.4,60.08205175219454,2025-02-28 09h57.26.141376 -0500,
37,37,0,filler_random,None,None,None,None,None,None,None,None,None,None,2,3.5574724674224854,None,,,,,0,0,0,0,0,37,37,143,203.55502653121948,,,,,,,,,,,,,,,,,,,,,,,,,,,,,,,,,,,,,,,,,,,,,,,,,,,,,,,,,,,,,,,,,,,,,,,,,,,,,,,,,169.17790986280133,101.35486157721324,159.01637983530284,131.19178337198332,97.29275966446994,126.02819283589712,1.0,1.3,268,-290,480,-252,705,-272,203.5405571460724,203.54059886932373,203.5429389476776,203.55502653121948,203.70519161224365,203.70519161224365,203.70519161224365,203.70519161224365,203.70519161224365,203.70519161224365,203.70519161224365,207.12284135818481,2,3.5574724674224854,None,,,,,,,,,,,,,,,,,,153,3,2025-02-28_09h53.42.497,comp,2024.2.4,60.08205175219454,2025-02-28 09h57.26.141376 -0500,
38,38,0,critical,dwh,20.0,3.0,lower,78.0,78.0,57.0,133.0,133.0,57.0,3,8.061439275741577,None,,,,,0,0,0,0,0,38,38,68,207.1386742591858,,,,,,,,,,,,,,,,,,,,,,,,,,,,,,,,,,,,,,,,,,,,,,,,,,,,,,,,,,,,,,,,,,,,,,,,,,,,,,,,,78.0,78.0,57.0,133.0,133.0,57.0,3.0,3.1,-202,270,0,18,191,-264,207.12363195419312,207.12367343902588,207.1257083415985,207.1386742591858,207.28848910331726,207.28848910331726,207.28848910331726,207.28848910331726,207.28848910331726,207.28848910331726,207.28848910331726,215.20624375343323,3,8.061439275741577,None,,,,,,,,,,,,,,,,,,153,3,2025-02-28_09h53.42.497,comp,2024.2.4,60.08205175219454,2025-02-28 09h57.26.141376 -0500,
39,39,0,filler_random,None,None,None,None,None,None,None,None,None,None,2,1.0892512798309326,None,,,,,0,0,0,0,0,39,39,132,215.22183895111084,,,,,,,,,,,,,,,,,,,,,,,,,,,,,,,,,,,,,,,,,,,,,,,,,,,,,,,,,,,,,,,,,,,,,,,,,,,,,,,,,99.1126330529196,106.63776646209787,170.74412861057442,103.68523933525704,130.72522304029513,112.810310267203,2.2,2.21,-201,-277,0,257,204,284,215.20719456672668,215.20723700523376,215.20972561836243,215.22183895111084,215.37181758880615,215.37181758880615,215.37181758880615,215.37181758880615,215.37181758880615,215.37181758880615,215.37181758880615,216.32318305969238,2,1.0892512798309326,None,,,,,,,,,,,,,,,,,,153,3,2025-02-28_09h53.42.497,comp,2024.2.4,60.08205175219454,2025-02-28 09h57.26.141376 -0500,
40,40,0,critical,whd,35.0,4.0,lower,57.0,133.0,133.0,57.0,70.0,70.0,1,9.71711778640747,None,,,,,0,0,0,0,0,40,40,88,216.3383390903473,,,,,,,,,,,,,,,,,,,,,,,,,,,,,,,,,,,,,,,,,,,,,,,,,,,,,,,,,,,,,,,,,,,,,,,,,,,,,,,,,57.0,133.0,133.0,57.0,70.0,70.0,4.0,4.2,-191,13,0,-260,160,-5,216.323970079422,216.3240101337433,216.3261218070984,216.3383390903473,216.48831272125244,216.48831272125244,216.48831272125244,216.48831272125244,216.48831272125244,216.48831272125244,216.48831272125244,226.0727322101593,1,9.71711778640747,None,,,,,,,,,,,,,,,,,,153,3,2025-02-28_09h53.42.497,comp,2024.2.4,60.08205175219454,2025-02-28 09h57.26.141376 -0500,
41,41,0,critical,dhw,20.0,2.1,lower,78.0,78.0,133.0,57.0,57.0,133.0,3,2.9349470138549805,None,,,,,0,0,0,0,0,41,41,2,226.08819723129272,,,,,,,,,,,,,,,,,,,,,,,,,,,,,,,,,,,,,,,,,,,,,,,,,,,,,,,,,,,,,,,,,,,,,,,,,,,,,,,,,78.0,78.0,133.0,57.0,57.0,133.0,2.1,2.12,-164,-262,0,-277,191,265,226.07353925704956,226.07357954978943,226.0761477947235,226.08819723129272,226.23821258544922,226.23821258544922,226.23821258544922,226.23821258544922,226.23821258544922,226.23821258544922,226.23821258544922,229.03938913345337,3,2.9349470138549805,None,,,,,,,,,,,,,,,,,,153,3,2025-02-28_09h53.42.497,comp,2024.2.4,60.08205175219454,2025-02-28 09h57.26.141376 -0500,
42,42,0,filler_random,None,None,None,None,None,None,None,None,None,None,3,1.4091918468475342,None,,,,,0,0,0,0,0,42,42,154,229.0548665523529,,,,,,,,,,,,,,,,,,,,,,,,,,,,,,,,,,,,,,,,,,,,,,,,,,,,,,,,,,,,,,,,,,,,,,,,,,,,,,,,,154.30105086939082,122.63727823696955,63.26070206792501,89.61374043832481,121.14702835718813,174.9900176137537,2.2,2.21,-202,-256,0,267,228,260,229.0403299331665,229.04037022590637,229.0429389476776,229.0548665523529,229.2050483226776,229.2050483226776,229.2050483226776,229.2050483226776,229.2050483226776,229.2050483226776,229.2050483226776,230.4727749824524,3,1.4091918468475342,None,,,,,,,,,,,,,,,,,,153,3,2025-02-28_09h53.42.497,comp,2024.2.4,60.08205175219454,2025-02-28 09h57.26.141376 -0500,
43,43,0,critical,whd,35.0,4.0,upper,125.0,200.0,200.0,125.0,127.0,127.0,1,2.2868523597717285,None,,,,,0,0,0,0,0,43,43,89,230.4883074760437,,,,,,,,,,,,,,,,,,,,,,,,,,,,,,,,,,,,,,,,,,,,,,,,,,,,,,,,,,,,,,,,,,,,,,,,,,,,,,,,,125.0,200.0,200.0,125.0,127.0,127.0,4.0,4.2,-258,-3,0,-275,222,-19,230.47359800338745,230.47363948822021,230.47583603858948,230.4883074760437,230.63837146759033,230.63837146759033,230.63837146759033,230.63837146759033,230.63837146759033,230.63837146759033,230.63837146759033,232.78954005241394,1,2.2868523597717285,None,,,,,,,,,,,,,,,,,,153,3,2025-02-28_09h53.42.497,comp,2024.2.4,60.08205175219454,2025-02-28 09h57.26.141376 -0500,
44,44,0,critical,wdh,20.0,2.1,upper,125.0,200.0,141.0,141.0,200.0,125.0,1,7.659101963043213,None,,,,,0,0,0,0,0,44,44,35,232.80486130714417,,,,,,,,,,,,,,,,,,,,,,,,,,,,,,,,,,,,,,,,,,,,,,,,,,,,,,,,,,,,,,,,,,,,,,,,,,,,,,,,,125.0,200.0,141.0,141.0,200.0,125.0,2.1,2.11,-266,276,0,271,229,-278,232.79032230377197,232.79036116600037,232.79377269744873,232.80486130714417,232.95509123802185,232.95509123802185,232.95509123802185,232.95509123802185,232.95509123802185,232.95509123802185,232.95509123802185,240.4727966785431,1,7.659101963043213,None,,,,,,,,,,,,,,,,,,153,3,2025-02-28_09h53.42.497,comp,2024.2.4,60.08205175219454,2025-02-28 09h57.26.141376 -0500,
45,45,0,filler_random,None,None,None,None,None,None,None,None,None,None,3,1.3275113105773926,None,,,,,0,0,0,0,0,45,45,136,240.4883086681366,,,,,,,,,,,,,,,,,,,,,,,,,,,,,,,,,,,,,,,,,,,,,,,,,,,,,,,,,,,,,,,,,,,,,,,,,,,,,,,,,97.3404382205627,58.969783213939664,167.20276048219003,74.19364103428198,186.79985153727552,154.03240005442285,2.2,2.21,-163,-269,0,289,210,273,240.47369194030762,240.47373294830322,240.47583627700806,240.4883086681366,240.6385726928711,240.6385726928711,240.6385726928711,240.6385726928711,240.6385726928711,240.6385726928711,240.6385726928711,241.82267951965332,3,1.3275113105773926,None,,,,,,,,,,,,,,,,,,153,3,2025-02-28_09h53.42.497,comp,2024.2.4,60.08205175219454,2025-02-28 09h57.26.141376 -0500,
46,46,0,filler_random,None,None,None,None,None,None,None,None,None,None,2,2.400651693344116,None,,,,,0,0,0,0,0,46,46,150,241.8383285999298,,,,,,,,,,,,,,,,,,,,,,,,,,,,,,,,,,,,,,,,,,,,,,,,,,,,,,,,,,,,,,,,,,,,,,,,,,,,,,,,,160.94101630063585,156.34391792261704,160.17764459145786,179.48420638012357,82.1228266387935,122.96416271756469,2.2,2.22,-264,271,0,-280,247,-283,241.8235719203949,241.82361125946045,241.82576894760132,241.8383285999298,241.98839211463928,241.98839211463928,241.98839211463928,241.98839211463928,241.98839211463928,241.98839211463928,241.98839211463928,244.25612688064575,2,2.400651693344116,None,,,,,,,,,,,,,,,,,,153,3,2025-02-28_09h53.42.497,comp,2024.2.4,60.08205175219454,2025-02-28 09h57.26.141376 -0500,
47,47,0,filler_random,None,None,None,None,None,None,None,None,None,None,2,0.888077974319458,None,,,,,0,0,0,0,0,47,47,137,244.27140998840332,,,,,,,,,,,,,,,,,,,,,,,,,,,,,,,,,,,,,,,,,,,,,,,,,,,,,,,,,,,,,,,,,,,,,,,,,,,,,,,,,114.37680897279279,64.61488784781687,192.39102757032953,122.31815090594544,131.05370292210281,77.62878360000482,2.1,2.12,-189,-290,0,-283,196,263,244.257009267807,244.2570481300354,244.25943326950073,244.27140998840332,244.42151308059692,244.42151308059692,244.42151308059692,244.42151308059692,244.42151308059692,244.42151308059692,244.42151308059692,245.17255067825317,2,0.888077974319458,None,,,,,,,,,,,,,,,,,,153,3,2025-02-28_09h53.42.497,comp,2024.2.4,60.08205175219454,2025-02-28 09h57.26.141376 -0500,
48,48,0,filler_random,None,None,None,None,None,None,None,None,None,None,3,1.3242480754852295,None,,,,,0,0,0,0,0,48,48,162,245.1880123615265,,,,,,,,,,,,,,,,,,,,,,,,,,,,,,,,,,,,,,,,,,,,,,,,,,,,,,,,,,,,,,,,,,,,,,,,,,,,,,,,,199.81490289233105,77.80287318543326,134.48594061823104,112.08501378470315,182.41086330507432,169.89791814883952,4.0,4.2,-191,-3,0,-263,237,-17,245.1734688282013,245.17350959777832,245.1760642528534,245.1880123615265,245.33835530281067,245.33835530281067,245.33835530281067,245.33835530281067,245.33835530281067,245.33835530281067,245.33835530281067,246.5226607322693,3,1.3242480754852295,None,,,,,,,,,,,,,,,,,,153,3,2025-02-28_09h53.42.497,comp,2024.2.4,60.08205175219454,2025-02-28 09h57.26.141376 -0500,
49,49,0,critical,wdh,35.0,3.0,lower,57.0,133.0,70.0,70.0,133.0,57.0,3,2.7832765579223633,None,,,,,0,0,0,0,0,49,49,74,246.5383539199829,,,,,,,,,,,,,,,,,,,,,,,,,,,,,,,,,,,,,,,,,,,,,,,,,,,,,,,,,,,,,,,,,,,,,,,,,,,,,,,,,57.0,133.0,70.0,70.0,133.0,57.0,3.0,3.2,-198,-274,0,8,160,265,246.5234637260437,246.5235047340393,246.5256381034851,246.5383539199829,246.68807125091553,246.68807125091553,246.68807125091553,246.68807125091553,246.68807125091553,246.68807125091553,246.68807125091553,249.33918380737305,3,2.7832765579223633,None,,,,,,,,,,,,,,,,,,153,3,2025-02-28_09h53.42.497,comp,2024.2.4,60.08205175219454,2025-02-28 09h57.26.141376 -0500,
50,50,0,critical,wdh,20.0,4.0,lower,57.0,133.0,78.0,78.0,133.0,57.0,2,5.950377464294434,None,,,,,0,0,0,0,0,50,50,82,249.35455799102783,,,,,,,,,,,,,,,,,,,,,,,,,,,,,,,,,,,,,,,,,,,,,,,,,,,,,,,,,,,,,,,,,,,,,,,,,,,,,,,,,57.0,133.0,78.0,78.0,133.0,57.0,4.0,4.1,-202,-276,0,18,164,-255,249.33994150161743,249.3399796485901,249.34226322174072,249.35455799102783,249.50510907173157,249.50510907173157,249.50510907173157,249.50510907173157,249.50510907173157,249.50510907173157,249.50510907173157,255.30605268478394,2,5.950377464294434,None,,,,,,,,,,,,,,,,,,153,3,2025-02-28_09h53.42.497,comp,2024.2.4,60.08205175219454,2025-02-28 09h57.26.141376 -0500,
51,51,0,filler_square,None,None,None,None,None,None,None,None,None,None,1,1.3339884281158447,None,,,,,0,0,0,0,0,51,51,203,255.32153034210205,,,,,,,,,,,,,,,,,,,,,,,,,,,,,,,,,,,,,,,,,,,,,,,,,,,,,,,,,,,,,,,,,,,,,,,,,,,,,,,,,176.47283971320385,176.47283971320385,104.56464897675141,111.82969405508237,116.81451010354056,137.41274508409515,4.0,4.1,-240,-281,0,9,221,-269,255.30700373649597,255.30704307556152,255.3094277381897,255.32153034210205,255.47153282165527,255.47153282165527,255.47153282165527,255.47153282165527,255.47153282165527,255.47153282165527,255.47153282165527,256.67259883880615,1,1.3339884281158447,None,,,,,,,,,,,,,,,,,,153,3,2025-02-28_09h53.42.497,comp,2024.2.4,60.08205175219454,2025-02-28 09h57.26.141376 -0500,
52,52,0,critical,whd,35.0,3.0,upper,125.0,200.0,200.0,125.0,127.0,127.0,1,5.28703761100769,None,,,,,0,0,0,0,0,52,52,87,256.68790650367737,,,,,,,,,,,,,,,,,,,,,,,,,,,,,,,,,,,,,,,,,,,,,,,,,,,,,,,,,,,,,,,,,,,,,,,,,,,,,,,,,125.0,200.0,200.0,125.0,127.0,127.0,3.0,3.2,-258,-276,0,-1,222,256,256.67338728904724,256.67342829704285,256.6759672164917,256.68790650367737,256.8383731842041,256.8383731842041,256.8383731842041,256.8383731842041,256.8383731842041,256.8383731842041,256.8383731842041,261.98942255973816,1,5.28703761100769,None,,,,,,,,,,,,,,,,,,153,3,2025-02-28_09h53.42.497,comp,2024.2.4,60.08205175219454,2025-02-28 09h57.26.141376 -0500,
53,53,0,critical,wdh,20.0,4.0,upper,125.0,200.0,141.0,141.0,200.0,125.0,3,1.402207612991333,None,,,,,0,0,0,0,0,53,53,83,262.00475430488586,,,,,,,,,,,,,,,,,,,,,,,,,,,,,,,,,,,,,,,,,,,,,,,,,,,,,,,,,,,,,,,,,,,,,,,,,,,,,,,,,125.0,200.0,141.0,141.0,200.0,125.0,4.0,4.1,-266,-268,0,-1,229,-275,261.9902808666229,261.9903209209442,261.9923622608185,262.00475430488586,262.1549150943756,262.1549150943756,262.1549150943756,262.1549150943756,262.1549150943756,262.1549150943756,262.1549150943756,263.42245984077454,3,1.402207612991333,None,,,,,,,,,,,,,,,,,,153,3,2025-02-28_09h53.42.497,comp,2024.2.4,60.08205175219454,2025-02-28 09h57.26.141376 -0500,
54,54,0,critical,dwh,20.0,4.0,upper,141.0,141.0,125.0,200.0,200.0,125.0,2,5.6259377002716064,None,,,,,0,0,0,0,0,54,54,71,263.4377934932709,,,,,,,,,,,,,,,,,,,,,,,,,,,,,,,,,,,,,,,,,,,,,,,,,,,,,,,,,,,,,,,,,,,,,,,,,,,,,,,,,141.0,141.0,125.0,200.0,200.0,125.0,4.0,4.2,-266,4,0,-276,258,11,263.4232528209686,263.42329263687134,263.42577934265137,263.4377934932709,263.5885980129242,263.5885980129242,263.5885980129242,263.5885980129242,263.5885980129242,263.5885980129242,263.5885980129242,269.07273983955383,2,5.6259377002716064,None,,,,,,,,,,,,,,,,,,153,3,2025-02-28_09h53.42.497,comp,2024.2.4,60.08205175219454,2025-02-28 09h57.26.141376 -0500,
55,55,0,critical,hdw,20.0,3.0,lower,133.0,57.0,78.0,78.0,57.0,133.0,2,5.416615009307861,None,,,,,0,0,0,0,0,55,55,116,269.08823800086975,,,,,,,,,,,,,,,,,,,,,,,,,,,,,,,,,,,,,,,,,,,,,,,,,,,,,,,,,,,,,,,,,,,,,,,,,,,,,,,,,133.0,57.0,78.0,78.0,57.0,133.0,3.0,3.1,-164,251,0,-4,202,-287,269.07354187965393,269.0735824108124,269.07608222961426,269.08823800086975,269.2379012107849,269.2379012107849,269.2379012107849,269.2379012107849,269.2379012107849,269.2379012107849,269.2379012107849,274.5223579406738,2,5.416615009307861,None,,,,,,,,,,,,,,,,,,153,3,2025-02-28_09h53.42.497,comp,2024.2.4,60.08205175219454,2025-02-28 09h57.26.141376 -0500,
56,56,0,critical,hdw,35.0,3.0,upper,200.0,125.0,127.0,127.0,125.0,200.0,3,2.415462017059326,None,,,,,0,0,0,0,0,56,56,111,274.5378472805023,,,,,,,,,,,,,,,,,,,,,,,,,,,,,,,,,,,,,,,,,,,,,,,,,,,,,,,,,,,,,,,,,,,,,,,,,,,,,,,,,200.0,125.0,127.0,127.0,125.0,200.0,3.0,3.1,-222,269,0,3,260,-259,274.5231685638428,274.52320885658264,274.525671005249,274.5378472805023,274.688161611557,274.688161611557,274.688161611557,274.688161611557,274.688161611557,274.688161611557,274.688161611557,276.95606446266174,3,2.415462017059326,None,,,,,,,,,,,,,,,,,,153,3,2025-02-28_09h53.42.497,comp,2024.2.4,60.08205175219454,2025-02-28 09h57.26.141376 -0500,
57,57,0,filler_random,None,None,None,None,None,None,None,None,None,None,3,3.2761945724487305,None,,,,,0,0,0,0,0,57,57,131,276.9714379310608,,,,,,,,,,,,,,,,,,,,,,,,,,,,,,,,,,,,,,,,,,,,,,,,,,,,,,,,,,,,,,,,,,,,,,,,,,,,,,,,,155.44409261120086,113.97016893492473,81.98245488314171,89.08796878734265,198.27451407969738,168.1990330686328,4.0,4.1,-198,-250,0,-16,225,-263,276.95696449279785,276.95700335502625,276.9591348171234,276.9714379310608,277.1213834285736,277.1213834285736,277.1213834285736,277.1213834285736,277.1213834285736,277.1213834285736,277.1213834285736,280.2558624744415,3,3.2761945724487305,None,,,,,,,,,,,,,,,,,,153,3,2025-02-28_09h53.42.497,comp,2024.2.4,60.08205175219454,2025-02-28 09h57.26.141376 -0500,
58,58,0,filler_random,None,None,None,None,None,None,None,None,None,None,1,2.2251181602478027,None,,,,,0,0,0,0,0,58,58,155,280.27137780189514,,,,,,,,,,,,,,,,,,,,,,,,,,,,,,,,,,,,,,,,,,,,,,,,,,,,,,,,,,,,,,,,,,,,,,,,,,,,,,,,,180.25250241897942,143.92691651734413,156.16246066199426,115.89608820725306,165.20044512441575,88.95856368275396,3.0,3.1,-226,257,0,-1,198,-264,280.25672245025635,280.2567603588104,280.2587766647339,280.27137780189514,280.42157793045044,280.42157793045044,280.42157793045044,280.42157793045044,280.42157793045044,280.42157793045044,280.42157793045044,282.50587940216064,1,2.2251181602478027,None,,,,,,,,,,,,,,,,,,153,3,2025-02-28_09h53.42.497,comp,2024.2.4,60.08205175219454,2025-02-28 09h57.26.141376 -0500,
59,59,0,filler_square,None,None,None,None,None,None,None,None,None,None,2,5.542154788970947,None,,,,,0,0,0,0,0,59,59,192,282.5213828086853,,,,,,,,,,,,,,,,,,,,,,,,,,,,,,,,,,,,,,,,,,,,,,,,,,,,,,,,,,,,,,,,,,,,,,,,,,,,,,,,,67.4789396771331,65.4288356004079,73.46429800624824,73.46429800624824,61.48411754701427,64.76127967581382,1.0,1.1,-645,274,-480,288,-315,267,282.50682735443115,282.5068690776825,282.50916290283203,282.5213828086853,282.68793416023254,282.68793416023254,282.68793416023254,282.68793416023254,282.68793416023254,282.68793416023254,282.68793416023254,288.0721457004547,2,5.542154788970947,None,,,,,,,,,,,,,,,,,,153,3,2025-02-28_09h53.42.497,comp,2024.2.4,60.08205175219454,2025-02-28 09h57.26.141376 -0500,
60,60,0,critical,whd,35.0,2.1,lower,57.0,133.0,133.0,57.0,70.0,70.0,1,3.471322536468506,None,,,,,0,0,0,0,0,60,60,12,288.08787655830383,,,,,,,,,,,,,,,,,,,,,,,,,,,,,,,,,,,,,,,,,,,,,,,,,,,,,,,,,,,,,,,,,,,,,,,,,,,,,,,,,57.0,133.0,133.0,57.0,70.0,70.0,2.1,2.12,-191,-286,0,-284,160,279,288.0729365348816,288.0729732513428,288.0749583244324,288.08787655830383,288.2380590438843,288.2380590438843,288.2380590438843,288.2380590438843,288.2380590438843,288.2380590438843,288.2380590438843,291.57221841812134,1,3.471322536468506,None,,,,,,,,,,,,,,,,,,153,3,2025-02-28_09h53.42.497,comp,2024.2.4,60.08205175219454,2025-02-28 09h57.26.141376 -0500,
61,61,0,critical,whd,20.0,1.0,upper,125.0,200.0,200.0,125.0,141.0,141.0,1,3.2277941703796387,None,,,,,0,0,0,0,0,61,61,91,291.5876410007477,,,,,,,,,,,,,,,,,,,,,,,,,,,,,,,,,,,,,,,,,,,,,,,,,,,,,,,,,,,,,,,,,,,,,,,,,,,,,,,,,125.0,200.0,200.0,125.0,141.0,141.0,1.0,1.1,-738,290,-480,255,-251,259,291.57302713394165,291.5730664730072,291.57552695274353,291.5876410007477,291.73803067207336,291.73803067207336,291.73803067207336,291.73803067207336,291.73803067207336,291.73803067207336,291.73803067207336,294.82244968414307,1,3.2277941703796387,None,,,,,,,,,,,,,,,,,,153,3,2025-02-28_09h53.42.497,comp,2024.2.4,60.08205175219454,2025-02-28 09h57.26.141376 -0500,
62,62,0,filler_square,None,None,None,None,None,None,None,None,None,None,2,4.193551540374756,None,,,,,0,0,0,0,0,62,62,194,294.83795499801636,,,,,,,,,,,,,,,,,,,,,,,,,,,,,,,,,,,,,,,,,,,,,,,,,,,,,,,,,,,,,,,,,,,,,,,,,,,,,,,,,89.3699453767561,64.50595316509776,90.18312521677083,90.18312521677083,65.16700591539515,85.44438413207146,3.0,3.2,-173,-269,0,10,184,262,294.8234086036682,294.8234486579895,294.8258430957794,294.83795499801636,294.98785638809204,294.98785638809204,294.98785638809204,294.98785638809204,294.98785638809204,294.98785638809204,294.98785638809204,299.0387604236603,2,4.193551540374756,None,,,,,,,,,,,,,,,,,,153,3,2025-02-28_09h53.42.497,comp,2024.2.4,60.08205175219454,2025-02-28 09h57.26.141376 -0500,
63,63,0,critical,dhw,35.0,4.0,upper,127.0,127.0,200.0,125.0,125.0,200.0,3,1.433819055557251,None,,,,,0,0,0,0,0,63,63,53,299.05453634262085,,,,,,,,,,,,,,,,,,,,,,,,,,,,,,,,,,,,,,,,,,,,,,,,,,,,,,,,,,,,,,,,,,,,,,,,,,,,,,,,,127.0,127.0,200.0,125.0,125.0,200.0,4.0,4.1,-222,-257,0,-13,258,-272,299.0395357608795,299.03957509994507,299.0417251586914,299.05453634262085,299.2046318054199,299.2046318054199,299.2046318054199,299.2046318054199,299.2046318054199,299.2046318054199,299.2046318054199,300.50570344924927,3,1.433819055557251,None,,,,,,,,,,,,,,,,,,153,3,2025-02-28_09h53.42.497,comp,2024.2.4,60.08205175219454,2025-02-28 09h57.26.141376 -0500,
64,64,0,critical,hwd,35.0,2.1,lower,133.0,57.0,57.0,133.0,70.0,70.0,1,5.032428026199341,None,,,,,0,0,0,0,0,64,64,40,300.52093172073364,,,,,,,,,,,,,,,,,,,,,,,,,,,,,,,,,,,,,,,,,,,,,,,,,,,,,,,,,,,,,,,,,,,,,,,,,,,,,,,,,133.0,57.0,57.0,133.0,70.0,70.0,2.1,2.12,-191,-286,0,-268,198,277,300.50647830963135,300.50651454925537,300.5086627006531,300.52093172073364,300.6711046695709,300.6711046695709,300.6711046695709,300.6711046695709,300.6711046695709,300.6711046695709,300.6711046695709,305.555536031723,1,5.032428026199341,None,,,,,,,,,,,,,,,,,,153,3,2025-02-28_09h53.42.497,comp,2024.2.4,60.08205175219454,2025-02-28 09h57.26.141376 -0500,
65,65,0,critical,hdw,35.0,2.1,lower,133.0,57.0,70.0,70.0,57.0,133.0,3,3.6513497829437256,None,,,,,0,0,0,0,0,65,65,44,305.5711615085602,,,,,,,,,,,,,,,,,,,,,,,,,,,,,,,,,,,,,,,,,,,,,,,,,,,,,,,,,,,,,,,,,,,,,,,,,,,,,,,,,133.0,57.0,70.0,70.0,57.0,133.0,2.1,2.11,-160,276,0,284,198,-260,305.5563461780548,305.55638790130615,305.558393239975,305.5711615085602,305.7209801673889,305.7209801673889,305.7209801673889,305.7209801673889,305.7209801673889,305.7209801673889,305.7209801673889,309.23873233795166,3,3.6513497829437256,None,,,,,,,,,,,,,,,,,,153,3,2025-02-28_09h53.42.497,comp,2024.2.4,60.08205175219454,2025-02-28 09h57.26.141376 -0500,
66,66,0,critical,hwd,35.0,2.1,upper,200.0,125.0,125.0,200.0,127.0,127.0,2,8.777167320251465,None,,,,,0,0,0,0,0,66,66,17,309.254230260849,,,,,,,,,,,,,,,,,,,,,,,,,,,,,,,,,,,,,,,,,,,,,,,,,,,,,,,,,,,,,,,,,,,,,,,,,,,,,,,,,200.0,125.0,125.0,200.0,127.0,127.0,2.1,2.11,-258,285,0,271,260,-279,309.23953890800476,309.2395794391632,309.241854429245,309.254230260849,309.4046335220337,309.4046335220337,309.4046335220337,309.4046335220337,309.4046335220337,309.4046335220337,309.4046335220337,318.038866519928,2,8.777167320251465,None,,,,,,,,,,,,,,,,,,153,3,2025-02-28_09h53.42.497,comp,2024.2.4,60.08205175219454,2025-02-28 09h57.26.141376 -0500,
67,67,0,filler_square,None,None,None,None,None,None,None,None,None,None,2,1.0666306018829346,None,,,,,0,0,0,0,0,67,67,177,318.0544693470001,,,,,,,,,,,,,,,,,,,,,,,,,,,,,,,,,,,,,,,,,,,,,,,,,,,,,,,,,,,,,,,,,,,,,,,,,,,,,,,,,82.08687742550889,72.26723621107601,158.56353478003342,158.56353478003342,64.47723794159374,148.7607323738337,2.1,2.11,-211,262,0,270,250,-263,318.03981614112854,318.03985929489136,318.0421643257141,318.0544693470001,318.2043340206146,318.2043340206146,318.2043340206146,318.2043340206146,318.2043340206146,318.2043340206146,318.2043340206146,319.1387302875519,2,1.0666306018829346,None,,,,,,,,,,,,,,,,,,153,3,2025-02-28_09h53.42.497,comp,2024.2.4,60.08205175219454,2025-02-28 09h57.26.141376 -0500,
68,68,0,critical,hdw,35.0,1.0,upper,200.0,125.0,127.0,127.0,125.0,200.0,1,3.8524274826049805,None,,,,,0,0,0,0,0,68,68,109,319.1541647911072,,,,,,,,,,,,,,,,,,,,,,,,,,,,,,,,,,,,,,,,,,,,,,,,,,,,,,,,,,,,,,,,,,,,,,,,,,,,,,,,,200.0,125.0,127.0,127.0,125.0,200.0,1.0,1.3,258,-282,480,-268,740,-272,319.13954424858093,319.13958406448364,319.1416208744049,319.1541647911072,319.30463194847107,319.30463194847107,319.30463194847107,319.30463194847107,319.30463194847107,319.30463194847107,319.30463194847107,323.0223422050476,1,3.8524274826049805,None,,,,,,,,,,,,,,,,,,153,3,2025-02-28_09h53.42.497,comp,2024.2.4,60.08205175219454,2025-02-28 09h57.26.141376 -0500,
69,69,0,critical,hdw,20.0,3.0,upper,200.0,125.0,141.0,141.0,125.0,200.0,3,2.409742593765259,None,,,,,0,0,0,0,0,69,69,117,323.03753113746643,,,,,,,,,,,,,,,,,,,,,,,,,,,,,,,,,,,,,,,,,,,,,,,,,,,,,,,,,,,,,,,,,,,,,,,,,,,,,,,,,200.0,125.0,141.0,141.0,125.0,200.0,3.0,3.2,-229,-289,0,-3,266,271,323.02313590049744,323.02317571640015,323.0252821445465,323.03753113746643,323.1880910396576,323.1880910396576,323.1880910396576,323.1880910396576,323.1880910396576,323.1880910396576,323.1880910396576,325.45564889907837,3,2.409742593765259,None,,,,,,,,,,,,,,,,,,153,3,2025-02-28_09h53.42.497,comp,2024.2.4,60.08205175219454,2025-02-28 09h57.26.141376 -0500,
70,70,0,critical,hwd,20.0,2.1,lower,133.0,57.0,57.0,133.0,78.0,78.0,2,5.119492530822754,None,,,,,0,0,0,0,0,70,70,18,325.4710795879364,,,,,,,,,,,,,,,,,,,,,,,,,,,,,,,,,,,,,,,,,,,,,,,,,,,,,,,,,,,,,,,,,,,,,,,,,,,,,,,,,133.0,57.0,57.0,133.0,78.0,78.0,2.1,2.11,-191,256,0,273,202,-250,325.45645236968994,325.45649313926697,325.45868039131165,325.4710795879364,325.62085723876953,325.62085723876953,325.62085723876953,325.62085723876953,325.62085723876953,325.62085723876953,325.62085723876953,330.60536527633667,2,5.119492530822754,None,,,,,,,,,,,,,,,,,,153,3,2025-02-28_09h53.42.497,comp,2024.2.4,60.08205175219454,2025-02-28 09h57.26.141376 -0500,
71,71,0,filler_random,None,None,None,None,None,None,None,None,None,None,1,3.8894407749176025,None,,,,,0,0,0,0,0,71,71,152,330.62077951431274,,,,,,,,,,,,,,,,,,,,,,,,,,,,,,,,,,,,,,,,,,,,,,,,,,,,,,,,,,,,,,,,,,,,,,,,,,,,,,,,,131.0458803794184,126.09593047377628,71.4379930896404,190.9128274838948,65.55932538462297,86.5937324561258,1.0,1.3,225,-257,480,-254,715,-268,330.6062898635864,330.60633063316345,330.6088285446167,330.62077951431274,330.7708795070648,330.7708795070648,330.7708795070648,330.7708795070648,330.7708795070648,330.7708795070648,330.7708795070648,334.52227759361267,1,3.8894407749176025,None,,,,,,,,,,,,,,,,,,153,3,2025-02-28_09h53.42.497,comp,2024.2.4,60.08205175219454,2025-02-28 09h57.26.141376 -0500,
72,72,0,filler_square,None,None,None,None,None,None,None,None,None,None,3,1.1260066032409668,None,,,,,0,0,0,0,0,72,72,208,334.5374176502228,,,,,,,,,,,,,,,,,,,,,,,,,,,,,,,,,,,,,,,,,,,,,,,,,,,,,,,,,,,,,,,,,,,,,,,,,,,,,,,,,101.20962528451795,115.15201923511376,128.42451348923373,116.84852578109655,154.180493064304,154.180493064304,2.1,2.12,-212,-280,0,-288,232,269,334.5232141017914,334.52325201034546,334.5256316661835,334.5374176502228,334.6877040863037,334.6877040863037,334.6877040863037,334.6877040863037,334.6877040863037,334.6877040863037,334.6877040863037,335.67205572128296,3,1.1260066032409668,None,,,,,,,,,,,,,,,,,,153,3,2025-02-28_09h53.42.497,comp,2024.2.4,60.08205175219454,2025-02-28 09h57.26.141376 -0500,
73,73,0,filler_square,None,None,None,None,None,None,None,None,None,None,2,1.2492835521697998,None,,,,,0,0,0,0,0,73,73,196,335.6876857280731,,,,,,,,,,,,,,,,,,,,,,,,,,,,,,,,,,,,,,,,,,,,,,,,,,,,,,,,,,,,,,,,,,,,,,,,,,,,,,,,,80.78888153566515,68.48174709368583,139.69371170312724,139.69371170312724,101.93517979605349,126.1385517955278,4.0,4.2,-200,-15,0,-257,229,1,335.6730110645294,335.6730523109436,335.67516469955444,335.6876857280731,335.8375976085663,335.8375976085663,335.8375976085663,335.8375976085663,335.8375976085663,335.8375976085663,335.8375976085663,336.9552974700928,2,1.2492835521697998,None,,,,,,,,,,,,,,,,,,153,3,2025-02-28_09h53.42.497,comp,2024.2.4,60.08205175219454,2025-02-28 09h57.26.141376 -0500,
74,74,0,filler_square,None,None,None,None,None,None,None,None,None,None,3,0.9714200496673584,None,,,,,0,0,0,0,0,74,74,182,336.97083473205566,,,,,,,,,,,,,,,,,,,,,,,,,,,,,,,,,,,,,,,,,,,,,,,,,,,,,,,,,,,,,,,,,,,,,,,,,,,,,,,,,107.32111955806798,138.36559295712942,186.50478968763315,93.77128101954287,195.7290673205554,195.7290673205554,3.0,3.2,-212,-274,0,3,241,253,336.95626854896545,336.9563105106354,336.95886158943176,336.97083473205566,337.1211771965027,337.1211771965027,337.1211771965027,337.1211771965027,337.1211771965027,337.1211771965027,337.1211771965027,337.9555699825287,3,0.9714200496673584,None,,,,,,,,,,,,,,,,,,153,3,2025-02-28_09h53.42.497,comp,2024.2.4,60.08205175219454,2025-02-28 09h57.26.141376 -0500,
75,75,0,critical,hwd,35.0,1.0,upper,200.0,125.0,125.0,200.0,127.0,127.0,2,2.267563581466675,None,,,,,0,0,0,0,0,75,75,97,337.97075939178467,,,,,,,,,,,,,,,,,,,,,,,,,,,,,,,,,,,,,,,,,,,,,,,,,,,,,,,,,,,,,,,,,,,,,,,,,,,,,,,,,200.0,125.0,125.0,200.0,127.0,127.0,1.0,1.2,-258,-15,0,20,260,-19,337.9563446044922,337.956383228302,337.9588644504547,337.97075939178467,338.1212239265442,338.1212239265442,338.1212239265442,338.1212239265442,338.1212239265442,338.1212239265442,338.1212239265442,340.25542879104614,2,2.267563581466675,None,,,,,,,,,,,,,,,,,,153,3,2025-02-28_09h53.42.497,comp,2024.2.4,60.08205175219454,2025-02-28 09h57.26.141376 -0500,
76,76,0,filler_square,None,None,None,None,None,None,None,None,None,None,1,0.9124777317047119,None,,,,,0,0,0,0,0,76,76,173,340.2706642150879,,,,,,,,,,,,,,,,,,,,,,,,,,,,,,,,,,,,,,,,,,,,,,,,,,,,,,,,,,,,,,,,,,,,,,,,,,,,,,,,,193.05474196074564,193.05474196074564,118.33217363028172,173.48366902793242,93.85391939018933,75.09330583389544,3.0,3.2,-279,-286,0,12,220,277,340.25639510154724,340.2564363479614,340.2590012550354,340.2706642150879,340.42092847824097,340.42092847824097,340.42092847824097,340.42092847824097,340.42092847824097,340.42092847824097,340.42092847824097,341.18885493278503,1,0.9124777317047119,None,,,,,,,,,,,,,,,,,,153,3,2025-02-28_09h53.42.497,comp,2024.2.4,60.08205175219454,2025-02-28 09h57.26.141376 -0500,
77,77,0,critical,hdw,35.0,1.0,lower,133.0,57.0,70.0,70.0,57.0,133.0,3,8.932878494262695,None,,,,,0,0,0,0,0,77,77,108,341.2042136192322,,,,,,,,,,,,,,,,,,,,,,,,,,,,,,,,,,,,,,,,,,,,,,,,,,,,,,,,,,,,,,,,,,,,,,,,,,,,,,,,,133.0,57.0,70.0,70.0,57.0,133.0,1.0,1.3,320,-262,480,-265,678,-288,341.18964290618896,341.18968176841736,341.1919720172882,341.2042136192322,341.35459995269775,341.35459995269775,341.35459995269775,341.35459995269775,341.35459995269775,341.35459995269775,341.35459995269775,350.1387052536011,3,8.932878494262695,None,,,,,,,,,,,,,,,,,,153,3,2025-02-28_09h53.42.497,comp,2024.2.4,60.08205175219454,2025-02-28 09h57.26.141376 -0500,
78,78,0,critical,hwd,35.0,4.0,upper,200.0,125.0,125.0,200.0,127.0,127.0,2,4.955897808074951,None,,,,,0,0,0,0,0,78,78,101,350.1542410850525,,,,,,,,,,,,,,,,,,,,,,,,,,,,,,,,,,,,,,,,,,,,,,,,,,,,,,,,,,,,,,,,,,,,,,,,,,,,,,,,,200.0,125.0,125.0,200.0,127.0,127.0,4.0,4.1,-258,-283,0,-4,260,-280,350.13949394226074,350.13953495025635,350.14204359054565,350.1542410850525,350.30441999435425,350.30441999435425,350.30441999435425,350.30441999435425,350.30441999435425,350.30441999435425,350.30441999435425,355.1221010684967,2,4.955897808074951,None,,,,,,,,,,,,,,,,,,153,3,2025-02-28_09h53.42.497,comp,2024.2.4,60.08205175219454,2025-02-28 09h57.26.141376 -0500,
79,79,0,catch,None,None,None,None,None,None,None,None,None,None,3,1.2305424213409424,None,,,,,0,0,0,0,0,79,79,125,355.1373052597046,,,,,,,,,,,,,,,,,,,,,,,,,,,,,,,,,,,,,,,,,,,,,,,,,,,,,,,,,,,,,,,,,,,,,,,,,,,,,,,,,118,72,92,98,152,173,3.0,3.2,-181,-288,0,2,232,260,355.12315368652344,355.1231918334961,355.1255609989166,355.1373052597046,355.28750681877136,355.28750681877136,355.28750681877136,355.28750681877136,355.28750681877136,355.28750681877136,355.28750681877136,356.3721103668213,3,1.2305424213409424,None,,,,,,,,,,,,,,,,,,153,3,2025-02-28_09h53.42.497,comp,2024.2.4,60.08205175219454,2025-02-28 09h57.26.141376 -0500,
80,80,0,critical,hwd,35.0,2.1,upper,200.0,125.0,125.0,200.0,127.0,127.0,2,2.8509340286254883,None,,,,,0,0,0,0,0,80,80,41,356.38743901252747,,,,,,,,,,,,,,,,,,,,,,,,,,,,,,,,,,,,,,,,,,,,,,,,,,,,,,,,,,,,,,,,,,,,,,,,,,,,,,,,,200.0,125.0,125.0,200.0,127.0,127.0,2.1,2.11,-258,269,0,256,260,-268,356.37287497520447,356.3729133605957,356.3749165534973,356.38743901252747,356.5375828742981,356.5375828742981,356.5375828742981,356.5375828742981,356.5375828742981,356.5375828742981,356.5375828742981,359.25533390045166,2,2.8509340286254883,None,,,,,,,,,,,,,,,,,,153,3,2025-02-28_09h53.42.497,comp,2024.2.4,60.08205175219454,2025-02-28 09h57.26.141376 -0500,
81,81,0,catch,None,None,None,None,None,None,None,None,None,None,3,1.4881582260131836,None,,,,,0,0,0,0,0,81,81,121,359.27064418792725,,,,,,,,,,,,,,,,,,,,,,,,,,,,,,,,,,,,,,,,,,,,,,,,,,,,,,,,,,,,,,,,,,,,,,,,,,,,,,,,,70,120,100,90,144,181,3.0,3.1,-201,256,0,16,232,-256,359.2563214302063,359.2563602924347,359.2587444782257,359.27064418792725,359.4208462238312,359.4208462238312,359.4208462238312,359.4208462238312,359.4208462238312,359.4208462238312,359.4208462238312,360.77205514907837,3,1.4881582260131836,None,,,,,,,,,,,,,,,,,,153,3,2025-02-28_09h53.42.497,comp,2024.2.4,60.08205175219454,2025-02-28 09h57.26.141376 -0500,
82,82,0,critical,hwd,20.0,3.0,upper,200.0,125.0,125.0,200.0,141.0,141.0,2,3.122799873352051,None,,,,,0,0,0,0,0,82,82,105,360.7872836589813,,,,,,,,,,,,,,,,,,,,,,,,,,,,,,,,,,,,,,,,,,,,,,,,,,,,,,,,,,,,,,,,,,,,,,,,,,,,,,,,,200.0,125.0,125.0,200.0,141.0,141.0,3.0,3.1,-258,265,0,15,266,-250,360.7728531360626,360.77289271354675,360.7752366065979,360.7872836589813,360.9376919269562,360.9376919269562,360.9376919269562,360.9376919269562,360.9376919269562,360.9376919269562,360.9376919269562,363.9220643043518,2,3.122799873352051,None,,,,,,,,,,,,,,,,,,153,3,2025-02-28_09h53.42.497,comp,2024.2.4,60.08205175219454,2025-02-28 09h57.26.141376 -0500,
83,83,0,filler_square,None,None,None,None,None,None,None,None,None,None,1,1.9417788982391357,None,,,,,0,0,0,0,0,83,83,198,363.93722343444824,,,,,,,,,,,,,,,,,,,,,,,,,,,,,,,,,,,,,,,,,,,,,,,,,,,,,,,,,,,,,,,,,,,,,,,,,,,,,,,,,97.12197905243121,97.12197905243121,60.293868849082,65.55662207393868,76.50862768116598,57.635758303349654,4.0,4.2,-177,-13,0,-289,158,-5,363.92300176620483,363.92304039001465,363.9253990650177,363.93722343444824,364.0872960090637,364.0872960090637,364.0872960090637,364.0872960090637,364.0872960090637,364.0872960090637,364.0872960090637,365.8883788585663,1,1.9417788982391357,None,,,,,,,,,,,,,,,,,,153,3,2025-02-28_09h53.42.497,comp,2024.2.4,60.08205175219454,2025-02-28 09h57.26.141376 -0500,
84,84,0,filler_square,None,None,None,None,None,None,None,None,None,None,3,1.710832118988037,None,,,,,0,0,0,0,0,84,84,197,365.9042229652405,,,,,,,,,,,,,,,,,,,,,,,,,,,,,,,,,,,,,,,,,,,,,,,,,,,,,,,,,,,,,,,,,,,,,,,,,,,,,,,,,107.93385374547321,101.90826669580515,121.6640672610539,64.3501920658141,126.19413752229838,126.19413752229838,1.0,1.2,-179,-19,0,2,191,10,365.8893041610718,365.8893449306488,365.8918209075928,365.9042229652405,366.0540261268616,366.0540261268616,366.0540261268616,366.0540261268616,366.0540261268616,366.0540261268616,366.0540261268616,367.62170219421387,3,1.710832118988037,None,,,,,,,,,,,,,,,,,,153,3,2025-02-28_09h53.42.497,comp,2024.2.4,60.08205175219454,2025-02-28 09h57.26.141376 -0500,
85,85,0,filler_square,None,None,None,None,None,None,None,None,None,None,1,1.721240758895874,None,,,,,0,0,0,0,0,85,85,206,367.63745188713074,,,,,,,,,,,,,,,,,,,,,,,,,,,,,,,,,,,,,,,,,,,,,,,,,,,,,,,,,,,,,,,,,,,,,,,,,,,,,,,,,123.60292184897297,123.60292184897297,115.39464335295992,97.72462484389396,99.05269771259726,106.339551505669,4.0,4.1,-207,-270,0,16,198,-271,367.6226615905762,367.62270307540894,367.62526297569275,367.63745188713074,367.78758239746094,367.78758239746094,367.78758239746094,367.78758239746094,367.78758239746094,367.78758239746094,367.78758239746094,369.3718011379242,1,1.721240758895874,None,,,,,,,,,,,,,,,,,,153,3,2025-02-28_09h53.42.497,comp,2024.2.4,60.08205175219454,2025-02-28 09h57.26.141376 -0500,
86,86,0,critical,hdw,20.0,4.0,lower,133.0,57.0,78.0,78.0,57.0,133.0,2,4.060042142868042,None,,,,,0,0,0,0,0,86,86,118,369.38718008995056,,,,,,,,,,,,,,,,,,,,,,,,,,,,,,,,,,,,,,,,,,,,,,,,,,,,,,,,,,,,,,,,,,,,,,,,,,,,,,,,,133.0,57.0,78.0,78.0,57.0,133.0,4.0,4.2,-164,16,0,-264,202,-10,369.3725838661194,369.3726215362549,369.37464332580566,369.38718008995056,369.53733563423157,369.53733563423157,369.53733563423157,369.53733563423157,369.53733563423157,369.53733563423157,369.53733563423157,373.4551796913147,2,4.060042142868042,None,,,,,,,,,,,,,,,,,,153,3,2025-02-28_09h53.42.497,comp,2024.2.4,60.08205175219454,2025-02-28 09h57.26.141376 -0500,
87,87,0,critical,hdw,20.0,2.1,lower,133.0,57.0,78.0,78.0,57.0,133.0,3,5.600498676300049,None,,,,,0,0,0,0,0,87,87,22,373.47073245048523,,,,,,,,,,,,,,,,,,,,,,,,,,,,,,,,,,,,,,,,,,,,,,,,,,,,,,,,,,,,,,,,,,,,,,,,,,,,,,,,,133.0,57.0,78.0,78.0,57.0,133.0,2.1,2.12,-164,-275,0,-286,202,287,373.45596742630005,373.4560077190399,373.45837116241455,373.47073245048523,373.62057638168335,373.62057638168335,373.62057638168335,373.62057638168335,373.62057638168335,373.62057638168335,373.62057638168335,379.0883848667145,3,5.600498676300049,None,,,,,,,,,,,,,,,,,,153,3,2025-02-28_09h53.42.497,comp,2024.2.4,60.08205175219454,2025-02-28 09h57.26.141376 -0500,
88,88,0,filler_random,None,None,None,None,None,None,None,None,None,None,3,1.5183253288269043,None,,,,,0,0,0,0,0,88,88,163,379.1037850379944,,,,,,,,,,,,,,,,,,,,,,,,,,,,,,,,,,,,,,,,,,,,,,,,,,,,,,,,,,,,,,,,,,,,,,,,,,,,,,,,,182.04508006246198,92.16219586071512,101.00729007033502,97.81509175094044,137.42338547515342,114.94386658439498,2.1,2.11,-191,274,0,289,202,-252,379.08928656578064,379.0893247127533,379.09175634384155,379.1037850379944,379.25394225120544,379.25394225120544,379.25394225120544,379.25394225120544,379.25394225120544,379.25394225120544,379.25394225120544,380.63843536376953,3,1.5183253288269043,None,,,,,,,,,,,,,,,,,,153,3,2025-02-28_09h53.42.497,comp,2024.2.4,60.08205175219454,2025-02-28 09h57.26.141376 -0500,
89,89,0,critical,wdh,35.0,1.0,lower,57.0,133.0,70.0,70.0,133.0,57.0,1,8.088116645812988,None,,,,,0,0,0,0,0,89,89,72,380.6537718772888,,,,,,,,,,,,,,,,,,,,,,,,,,,,,,,,,,,,,,,,,,,,,,,,,,,,,,,,,,,,,,,,,,,,,,,,,,,,,,,,,57.0,133.0,70.0,70.0,133.0,57.0,1.0,1.1,-678,284,-480,269,-320,278,380.63920283317566,380.63923954963684,380.641726732254,380.6537718772888,380.8037588596344,380.8037588596344,380.8037588596344,380.8037588596344,380.8037588596344,380.8037588596344,380.8037588596344,388.7550368309021,1,8.088116645812988,None,,,,,,,,,,,,,,,,,,153,3,2025-02-28_09h53.42.497,comp,2024.2.4,60.08205175219454,2025-02-28 09h57.26.141376 -0500,
90,90,0,filler_square,None,None,None,None,None,None,None,None,None,None,3,1.5006914138793945,None,,,,,0,0,0,0,0,90,90,209,388.77038526535034,,,,,,,,,,,,,,,,,,,,,,,,,,,,,,,,,,,,,,,,,,,,,,,,,,,,,,,,,,,,,,,,,,,,,,,,,,,,,,,,,161.39918804695952,166.4846410264207,162.10991960522756,145.13587445843748,180.45229497641213,180.45229497641213,1.0,1.1,-732,264,-480,276,-221,262,388.75598549842834,388.7560269832611,388.75837993621826,388.77038526535034,388.92076683044434,388.92076683044434,388.92076683044434,388.92076683044434,388.92076683044434,388.92076683044434,388.92076683044434,390.27217078208923,3,1.5006914138793945,None,,,,,,,,,,,,,,,,,,153,3,2025-02-28_09h53.42.497,comp,2024.2.4,60.08205175219454,2025-02-28 09h57.26.141376 -0500,
91,91,0,critical,hdw,20.0,2.1,lower,133.0,57.0,78.0,78.0,57.0,133.0,3,7.334744453430176,None,,,,,0,0,0,0,0,91,91,46,390.28738021850586,,,,,,,,,,,,,,,,,,,,,,,,,,,,,,,,,,,,,,,,,,,,,,,,,,,,,,,,,,,,,,,,,,,,,,,,,,,,,,,,,133.0,57.0,78.0,78.0,57.0,133.0,2.1,2.12,-164,-253,0,-251,202,290,390.27295088768005,390.2729911804199,390.27530694007874,390.28738021850586,390.4374198913574,390.4374198913574,390.4374198913574,390.4374198913574,390.4374198913574,390.4374198913574,390.4374198913574,397.63816714286804,3,7.334744453430176,None,,,,,,,,,,,,,,,,,,153,3,2025-02-28_09h53.42.497,comp,2024.2.4,60.08205175219454,2025-02-28 09h57.26.141376 -0500,
92,92,0,critical,hwd,35.0,3.0,upper,200.0,125.0,125.0,200.0,127.0,127.0,2,2.0008432865142822,None,,,,,0,0,0,0,0,92,92,99,397.65369868278503,,,,,,,,,,,,,,,,,,,,,,,,,,,,,,,,,,,,,,,,,,,,,,,,,,,,,,,,,,,,,,,,,,,,,,,,,,,,,,,,,200.0,125.0,125.0,200.0,127.0,127.0,3.0,3.1,-258,251,0,-9,260,-265,397.6389503479004,397.6389901638031,397.64139699935913,397.65369868278503,397.80413699150085,397.80413699150085,397.80413699150085,397.80413699150085,397.80413699150085,397.80413699150085,397.80413699150085,399.6716914176941,2,2.0008432865142822,None,,,,,,,,,,,,,,,,,,153,3,2025-02-28_09h53.42.497,comp,2024.2.4,60.08205175219454,2025-02-28 09h57.26.141376 -0500,
93,93,0,filler_random,None,None,None,None,None,None,None,None,None,None,1,8.071341753005981,None,,,,,0,0,0,0,0,93,93,141,399.6870393753052,,,,,,,,,,,,,,,,,,,,,,,,,,,,,,,,,,,,,,,,,,,,,,,,,,,,,,,,,,,,,,,,,,,,,,,,,,,,,,,,,118.88356041671733,196.67992390108395,190.50151433866745,81.48968185908628,140.91147929437463,133.23361519597864,1.0,1.1,-715,271,-480,272,-277,286,399.67260670661926,399.67264699935913,399.6747262477875,399.6870393753052,399.8371961116791,399.8371961116791,399.8371961116791,399.8371961116791,399.8371961116791,399.8371961116791,399.8371961116791,407.7716224193573,1,8.071341753005981,None,,,,,,,,,,,,,,,,,,153,3,2025-02-28_09h53.42.497,comp,2024.2.4,60.08205175219454,2025-02-28 09h57.26.141376 -0500,
94,94,0,critical,dwh,35.0,4.0,lower,70.0,70.0,57.0,133.0,133.0,57.0,3,10.571507215499878,None,,,,,0,0,0,0,0,94,94,64,407.786869764328,,,,,,,,,,,,,,,,,,,,,,,,,,,,,,,,,,,,,,,,,,,,,,,,,,,,,,,,,,,,,,,,,,,,,,,,,,,,,,,,,70.0,70.0,57.0,133.0,133.0,57.0,4.0,4.2,-198,16,0,-264,191,15,407.7724311351776,407.77247047424316,407.7750289440155,407.786869764328,407.9370367527008,407.9370367527008,407.9370367527008,407.9370367527008,407.9370367527008,407.9370367527008,407.9370367527008,418.3714280128479,3,10.571507215499878,None,,,,,,,,,,,,,,,,,,153,3,2025-02-28_09h53.42.497,comp,2024.2.4,60.08205175219454,2025-02-28 09h57.26.141376 -0500,
95,95,0,filler_square,None,None,None,None,None,None,None,None,None,None,1,2.550004482269287,None,,,,,0,0,0,0,0,95,95,175,418.38673281669617,,,,,,,,,,,,,,,,,,,,,,,,,,,,,,,,,,,,,,,,,,,,,,,,,,,,,,,,,,,,,,,,,,,,,,,,,,,,,,,,,173.78831457609797,173.78831457609797,125.03897661761903,145.71270276147914,143.23034404590547,102.80692559628159,2.2,2.21,-256,-258,0,264,220,280,418.37235927581787,418.37239718437195,418.37487602233887,418.38673281669617,418.5370469093323,418.5370469093323,418.5370469093323,418.5370469093323,418.5370469093323,418.5370469093323,418.5370469093323,420.9548592567444,1,2.550004482269287,None,,,,,,,,,,,,,,,,,,153,3,2025-02-28_09h53.42.497,comp,2024.2.4,60.08205175219454,2025-02-28 09h57.26.141376 -0500,
96,96,0,critical,dhw,20.0,1.0,upper,141.0,141.0,200.0,125.0,125.0,200.0,3,3.8283753395080566,None,,,,,0,0,0,0,0,96,96,55,420.9701964855194,,,,,,,,,,,,,,,,,,,,,,,,,,,,,,,,,,,,,,,,,,,,,,,,,,,,,,,,,,,,,,,,,,,,,,,,,,,,,,,,,141.0,141.0,200.0,125.0,125.0,200.0,1.0,1.2,-229,15,0,15,258,-1,420.9557225704193,420.9557626247406,420.9579026699066,420.9701964855194,421.1205401420593,421.1205401420593,421.1205401420593,421.1205401420593,421.1205401420593,421.1205401420593,421.1205401420593,424.8048779964447,3,3.8283753395080566,None,,,,,,,,,,,,,,,,,,153,3,2025-02-28_09h53.42.497,comp,2024.2.4,60.08205175219454,2025-02-28 09h57.26.141376 -0500,
97,97,0,critical,hdw,35.0,4.0,upper,200.0,125.0,127.0,127.0,125.0,200.0,3,1.1054205894470215,None,,,,,0,0,0,0,0,97,97,113,424.8203284740448,,,,,,,,,,,,,,,,,,,,,,,,,,,,,,,,,,,,,,,,,,,,,,,,,,,,,,,,,,,,,,,,,,,,,,,,,,,,,,,,,200.0,125.0,127.0,127.0,125.0,200.0,4.0,4.2,-222,-7,0,-260,260,15,424.80563282966614,424.8056712150574,424.80787658691406,424.8203284740448,424.9709646701813,424.9709646701813,424.9709646701813,424.9709646701813,424.9709646701813,424.9709646701813,424.9709646701813,425.93838119506836,3,1.1054205894470215,None,,,,,,,,,,,,,,,,,,153,3,2025-02-28_09h53.42.497,comp,2024.2.4,60.08205175219454,2025-02-28 09h57.26.141376 -0500,
98,98,0,catch,None,None,None,None,None,None,None,None,None,None,3,0.8770191669464111,None,,,,,0,0,0,0,0,98,98,127,425.95355200767517,,,,,,,,,,,,,,,,,,,,,,,,,,,,,,,,,,,,,,,,,,,,,,,,,,,,,,,,,,,,,,,,,,,,,,,,,,,,,,,,,85,105,64,126,163,162,3.0,3.1,-212,256,0,17,240,-271,425.93939447402954,425.93943309783936,425.94185185432434,425.95355200767517,426.1037197113037,426.1037197113037,426.1037197113037,426.1037197113037,426.1037197113037,426.1037197113037,426.1037197113037,426.838171005249,3,0.8770191669464111,None,,,,,,,,,,,,,,,,,,153,3,2025-02-28_09h53.42.497,comp,2024.2.4,60.08205175219454,2025-02-28 09h57.26.141376 -0500,
99,99,0,critical,dwh,20.0,2.1,lower,78.0,78.0,57.0,133.0,133.0,57.0,2,6.200406312942505,None,,,,,0,0,0,0,0,99,99,30,426.8536810874939,,,,,,,,,,,,,,,,,,,,,,,,,,,,,,,,,,,,,,,,,,,,,,,,,,,,,,,,,,,,,,,,,,,,,,,,,,,,,,,,,78.0,78.0,57.0,133.0,133.0,57.0,2.1,2.11,-202,282,0,255,191,-278,426.83896923065186,426.83900928497314,426.8415994644165,426.8536810874939,427.00356936454773,427.00356936454773,427.00356936454773,427.00356936454773,427.00356936454773,427.00356936454773,427.00356936454773,433.0713074207306,2,6.200406312942505,None,,,,,,,,,,,,,,,,,,153,3,2025-02-28_09h53.42.497,comp,2024.2.4,60.08205175219454,2025-02-28 09h57.26.141376 -0500,
100,100,0,critical,dwh,20.0,4.0,lower,78.0,78.0,57.0,133.0,133.0,57.0,3,5.343834638595581,None,,,,,0,0,0,0,0,100,100,70,433.0867133140564,,,,,,,,,,,,,,,,,,,,,,,,,,,,,,,,,,,,,,,,,,,,,,,,,,,,,,,,,,,,,,,,,,,,,,,,,,,,,,,,,78.0,78.0,57.0,133.0,133.0,57.0,4.0,4.2,-202,5,0,-267,191,-16,433.07207798957825,433.0721170902252,433.07454323768616,433.0867133140564,433.23686695098877,433.23686695098877,433.23686695098877,433.23686695098877,433.23686695098877,433.23686695098877,433.23686695098877,438.4380829334259,3,5.343834638595581,None,,,,,,,,,,,,,,,,,,153,3,2025-02-28_09h53.42.497,comp,2024.2.4,60.08205175219454,2025-02-28 09h57.26.141376 -0500,
101,101,0,critical,whd,20.0,3.0,lower,57.0,133.0,133.0,57.0,78.0,78.0,1,4.6559953689575195,None,,,,,0,0,0,0,0,101,101,92,438.45360040664673,,,,,,,,,,,,,,,,,,,,,,,,,,,,,,,,,,,,,,,,,,,,,,,,,,,,,,,,,,,,,,,,,,,,,,,,,,,,,,,,,57.0,133.0,133.0,57.0,78.0,78.0,3.0,3.1,-191,262,0,0,164,-288,438.43885469436646,438.4388949871063,438.44129633903503,438.45360040664673,438.6035099029541,438.6035099029541,438.6035099029541,438.6035099029541,438.6035099029541,438.6035099029541,438.6035099029541,443.12128138542175,1,4.6559953689575195,None,,,,,,,,,,,,,,,,,,153,3,2025-02-28_09h53.42.497,comp,2024.2.4,60.08205175219454,2025-02-28 09h57.26.141376 -0500,
102,102,0,critical,dhw,35.0,4.0,lower,70.0,70.0,133.0,57.0,57.0,133.0,3,3.7258505821228027,None,,,,,0,0,0,0,0,102,102,52,443.13664627075195,,,,,,,,,,,,,,,,,,,,,,,,,,,,,,,,,,,,,,,,,,,,,,,,,,,,,,,,,,,,,,,,,,,,,,,,,,,,,,,,,70.0,70.0,133.0,57.0,57.0,133.0,4.0,4.1,-160,-280,0,10,191,-253,443.1222233772278,443.1222629547119,443.1246964931488,443.13664627075195,443.286732673645,443.286732673645,443.286732673645,443.286732673645,443.286732673645,443.286732673645,443.286732673645,446.8711895942688,3,3.7258505821228027,None,,,,,,,,,,,,,,,,,,153,3,2025-02-28_09h53.42.497,comp,2024.2.4,60.08205175219454,2025-02-28 09h57.26.141376 -0500,
103,103,0,filler_random,None,None,None,None,None,None,None,None,None,None,1,1.4227185249328613,None,,,,,0,0,0,0,0,103,103,147,446.88690280914307,,,,,,,,,,,,,,,,,,,,,,,,,,,,,,,,,,,,,,,,,,,,,,,,,,,,,,,,,,,,,,,,,,,,,,,,,,,,,,,,,87.50880072973477,132.70274286672276,176.669804927291,78.85368677299871,69.41457000552771,62.662474217693884,2.2,2.22,-202,288,0,-278,167,-278,446.8721194267273,446.87215924263,446.87429094314575,446.88690280914307,447.03686451911926,447.03686451911926,447.03686451911926,447.03686451911926,447.03686451911926,447.03686451911926,447.03686451911926,448.32145142555237,1,1.4227185249328613,None,,,,,,,,,,,,,,,,,,153,3,2025-02-28_09h53.42.497,comp,2024.2.4,60.08205175219454,2025-02-28 09h57.26.141376 -0500,
104,104,0,critical,whd,20.0,4.0,lower,57.0,133.0,133.0,57.0,78.0,78.0,2,2.399386405944824,None,,,,,0,0,0,0,0,104,104,94,448.33672976493835,,,,,,,,,,,,,,,,,,,,,,,,,,,,,,,,,,,,,,,,,,,,,,,,,,,,,,,,,,,,,,,,,,,,,,,,,,,,,,,,,57.0,133.0,133.0,57.0,78.0,78.0,4.0,4.1,-191,-288,0,13,164,-272,448.3222680091858,448.3223080635071,448.3248379230499,448.33672976493835,448.4866850376129,448.4866850376129,448.4866850376129,448.4866850376129,448.4866850376129,448.4866850376129,448.4866850376129,450.73792815208435,2,2.399386405944824,None,,,,,,,,,,,,,,,,,,153,3,2025-02-28_09h53.42.497,comp,2024.2.4,60.08205175219454,2025-02-28 09h57.26.141376 -0500,
105,105,0,filler_square,None,None,None,None,None,None,None,None,None,None,2,1.3411929607391357,None,,,,,0,0,0,0,0,105,105,179,450.7536070346832,,,,,,,,,,,,,,,,,,,,,,,,,,,,,,,,,,,,,,,,,,,,,,,,,,,,,,,,,,,,,,,,,,,,,,,,,,,,,,,,,76.6006924299026,60.345927257156504,94.59187015948424,94.59187015948424,71.04595359281794,66.46947152672251,4.0,4.1,-173,-263,0,-1,177,-268,450.73898696899414,450.73902893066406,450.7414333820343,450.7536070346832,450.9034388065338,450.9034388065338,450.9034388065338,450.9034388065338,450.9034388065338,450.9034388065338,450.9034388065338,452.1043975353241,2,1.3411929607391357,None,,,,,,,,,,,,,,,,,,153,3,2025-02-28_09h53.42.497,comp,2024.2.4,60.08205175219454,2025-02-28 09h57.26.141376 -0500,
106,106,0,critical,hdw,35.0,2.1,lower,133.0,57.0,70.0,70.0,57.0,133.0,3,2.1668574810028076,None,,,,,0,0,0,0,0,106,106,20,452.12014389038086,,,,,,,,,,,,,,,,,,,,,,,,,,,,,,,,,,,,,,,,,,,,,,,,,,,,,,,,,,,,,,,,,,,,,,,,,,,,,,,,,133.0,57.0,70.0,70.0,57.0,133.0,2.1,2.11,-160,271,0,254,198,-276,452.1051924228668,452.1052315235138,452.1076476573944,452.12014389038086,452.2700824737549,452.2700824737549,452.2700824737549,452.2700824737549,452.2700824737549,452.2700824737549,452.2700824737549,454.30442118644714,3,2.1668574810028076,None,,,,,,,,,,,,,,,,,,153,3,2025-02-28_09h53.42.497,comp,2024.2.4,60.08205175219454,2025-02-28 09h57.26.141376 -0500,
107,107,0,filler_square,None,None,None,None,None,None,None,None,None,None,1,0.9836757183074951,None,,,,,0,0,0,0,0,107,107,190,454.3199529647827,,,,,,,,,,,,,,,,,,,,,,,,,,,,,,,,,,,,,,,,,,,,,,,,,,,,,,,,,,,,,,,,,,,,,,,,,,,,,,,,,146.22746526224643,146.22746526224643,106.16272552587242,120.15049318661427,67.99854793942735,65.77964793864436,2.1,2.11,-229,254,0,255,189,-274,454.30541706085205,454.30545592308044,454.30799770355225,454.3199529647827,454.4703583717346,454.4703583717346,454.4703583717346,454.4703583717346,454.4703583717346,454.4703583717346,454.4703583717346,455.3211405277252,1,0.9836757183074951,None,,,,,,,,,,,,,,,,,,153,3,2025-02-28_09h53.42.497,comp,2024.2.4,60.08205175219454,2025-02-28 09h57.26.141376 -0500,
108,108,0,critical,dhw,20.0,2.1,upper,141.0,141.0,200.0,125.0,125.0,200.0,3,1.0850164890289307,None,,,,,0,0,0,0,0,108,108,27,455.3366298675537,,,,,,,,,,,,,,,,,,,,,,,,,,,,,,,,,,,,,,,,,,,,,,,,,,,,,,,,,,,,,,,,,,,,,,,,,,,,,,,,,141.0,141.0,200.0,125.0,125.0,200.0,2.1,2.12,-229,-274,0,-270,258,255,455.3219380378723,455.32197737693787,455.32437467575073,455.3366298675537,455.48731231689453,455.48731231689453,455.48731231689453,455.48731231689453,455.48731231689453,455.48731231689453,455.48731231689453,456.43791007995605,3,1.0850164890289307,None,,,,,,,,,,,,,,,,,,153,3,2025-02-28_09h53.42.497,comp,2024.2.4,60.08205175219454,2025-02-28 09h57.26.141376 -0500,
109,109,0,critical,dhw,35.0,1.0,upper,127.0,127.0,200.0,125.0,125.0,200.0,3,2.8340132236480713,None,,,,,0,0,0,0,0,109,109,49,456.45313906669617,,,,,,,,,,,,,,,,,,,,,,,,,,,,,,,,,,,,,,,,,,,,,,,,,,,,,,,,,,,,,,,,,,,,,,,,,,,,,,,,,127.0,127.0,200.0,125.0,125.0,200.0,1.0,1.1,-702,283,-480,282,-222,288,456.43867206573486,456.43871235847473,456.44074535369873,456.45313906669617,456.60363817214966,456.60363817214966,456.60363817214966,456.60363817214966,456.60363817214966,456.60363817214966,456.60363817214966,459.3049318790436,3,2.8340132236480713,None,,,,,,,,,,,,,,,,,,153,3,2025-02-28_09h53.42.497,comp,2024.2.4,60.08205175219454,2025-02-28 09h57.26.141376 -0500,
110,110,0,filler_square,None,None,None,None,None,None,None,None,None,None,3,1.150503158569336,None,,,,,0,0,0,0,0,110,110,181,459.3200190067291,,,,,,,,,,,,,,,,,,,,,,,,,,,,,,,,,,,,,,,,,,,,,,,,,,,,,,,,,,,,,,,,,,,,,,,,,,,,,,,,,143.147620523226,105.62358919268061,166.33384807902985,64.74898623703817,199.63189683207176,199.63189683207176,3.0,3.2,-181,-284,0,4,228,273,459.3058919906616,459.30593180656433,459.30802512168884,459.3200190067291,459.4701955318451,459.4701955318451,459.4701955318451,459.4701955318451,459.4701955318451,459.4701955318451,459.4701955318451,460.4878785610199,3,1.150503158569336,None,,,,,,,,,,,,,,,,,,153,3,2025-02-28_09h53.42.497,comp,2024.2.4,60.08205175219454,2025-02-28 09h57.26.141376 -0500,
111,111,0,critical,whd,20.0,3.0,upper,125.0,200.0,200.0,125.0,141.0,141.0,2,2.000572919845581,None,,,,,0,0,0,0,0,111,111,93,460.50323247909546,,,,,,,,,,,,,,,,,,,,,,,,,,,,,,,,,,,,,,,,,,,,,,,,,,,,,,,,,,,,,,,,,,,,,,,,,,,,,,,,,125.0,200.0,200.0,125.0,141.0,141.0,3.0,3.2,-258,-281,0,-8,229,272,460.4886519908905,460.4886906147003,460.49190068244934,460.50323247909546,460.65373706817627,460.65373706817627,460.65373706817627,460.65373706817627,460.65373706817627,460.65373706817627,460.65373706817627,462.5214092731476,2,2.000572919845581,None,,,,,,,,,,,,,,,,,,153,3,2025-02-28_09h53.42.497,comp,2024.2.4,60.08205175219454,2025-02-28 09h57.26.141376 -0500,
112,112,0,filler_square,None,None,None,None,None,None,None,None,None,None,1,3.069046974182129,None,,,,,0,0,0,0,0,112,112,201,462.5366299152374,,,,,,,,,,,,,,,,,,,,,,,,,,,,,,,,,,,,,,,,,,,,,,,,,,,,,,,,,,,,,,,,,,,,,,,,,,,,,,,,,161.2049877544516,161.2049877544516,159.33687907196446,122.0724984095412,146.8233503543094,158.74464499510788,3.0,3.2,-238,-278,0,-15,236,257,462.5224096775055,462.5224497318268,462.52490639686584,462.5366299152374,462.6869692802429,462.6869692802429,462.6869692802429,462.6869692802429,462.6869692802429,462.6869692802429,462.6869692802429,465.6213970184326,1,3.069046974182129,None,,,,,,,,,,,,,,,,,,153,3,2025-02-28_09h53.42.497,comp,2024.2.4,60.08205175219454,2025-02-28 09h57.26.141376 -0500,
113,113,0,critical,wdh,35.0,2.1,upper,125.0,200.0,127.0,127.0,200.0,125.0,1,2.0992753505706787,None,,,,,0,0,0,0,0,113,113,33,465.63656854629517,,,,,,,,,,,,,,,,,,,,,,,,,,,,,,,,,,,,,,,,,,,,,,,,,,,,,,,,,,,,,,,,,,,,,,,,,,,,,,,,,125.0,200.0,127.0,127.0,200.0,125.0,2.1,2.12,-260,-267,0,-266,222,259,465.6221876144409,465.6222243309021,465.62425422668457,465.63656854629517,465.786865234375,465.786865234375,465.786865234375,465.786865234375,465.786865234375,465.786865234375,465.786865234375,467.73797130584717,1,2.0992753505706787,None,,,,,,,,,,,,,,,,,,153,3,2025-02-28_09h53.42.497,comp,2024.2.4,60.08205175219454,2025-02-28 09h57.26.141376 -0500,
114,114,0,filler_random,None,None,None,None,None,None,None,None,None,None,3,2.7089009284973145,None,,,,,0,0,0,0,0,114,114,146,467.75341415405273,,,,,,,,,,,,,,,,,,,,,,,,,,,,,,,,,,,,,,,,,,,,,,,,,,,,,,,,,,,,,,,,,,,,,,,,,,,,,,,,,129.90104292548884,160.7085922962996,194.1353412646865,77.08332928217132,78.14207039836074,183.58802860433508,2.2,2.21,-215,-265,0,285,226,288,467.7388684749603,467.7389073371887,467.74105978012085,467.75341415405273,467.9035577774048,467.9035577774048,467.9035577774048,467.9035577774048,467.9035577774048,467.9035577774048,467.9035577774048,470.4712281227112,3,2.7089009284973145,None,,,,,,,,,,,,,,,,,,153,3,2025-02-28_09h53.42.497,comp,2024.2.4,60.08205175219454,2025-02-28 09h57.26.141376 -0500,
115,115,0,critical,dhw,35.0,2.1,lower,70.0,70.0,133.0,57.0,57.0,133.0,2,4.559178829193115,None,,,,,0,0,0,0,0,115,115,0,470.4871439933777,,,,,,,,,,,,,,,,,,,,,,,,,,,,,,,,,,,,,,,,,,,,,,,,,,,,,,,,,,,,,,,,,,,,,,,,,,,,,,,,,70.0,70.0,133.0,57.0,57.0,133.0,2.1,2.12,-160,-289,0,-255,191,285,470.4720289707184,470.47207021713257,470.474182844162,470.4871439933777,470.63659620285034,470.63659620285034,470.63659620285034,470.63659620285034,470.63659620285034,470.63659620285034,470.63659620285034,475.05447483062744,2,4.559178829193115,None,,,,,,,,,,,,,,,,,,153,3,2025-02-28_09h53.42.497,comp,2024.2.4,60.08205175219454,2025-02-28 09h57.26.141376 -0500,
116,116,0,filler_random,None,None,None,None,None,None,None,None,None,None,1,1.5681779384613037,None,,,,,0,0,0,0,0,116,116,138,475.0700452327728,,,,,,,,,,,,,,,,,,,,,,,,,,,,,,,,,,,,,,,,,,,,,,,,,,,,,,,,,,,,,,,,,,,,,,,,,,,,,,,,,184.3819314537333,193.90829281646072,84.8844304491529,84.75057797085856,117.6100836164479,69.92725283752942,2.2,2.21,-235,-266,0,256,173,266,475.05540227890015,475.0554449558258,475.05801820755005,475.0700452327728,475.22019267082214,475.22019267082214,475.22019267082214,475.22019267082214,475.22019267082214,475.22019267082214,475.22019267082214,476.6543712615967,1,1.5681779384613037,None,,,,,,,,,,,,,,,,,,153,3,2025-02-28_09h53.42.497,comp,2024.2.4,60.08205175219454,2025-02-28 09h57.26.141376 -0500,
117,117,0,critical,dwh,35.0,3.0,lower,70.0,70.0,57.0,133.0,133.0,57.0,3,7.551661491394043,None,,,,,0,0,0,0,0,117,117,62,476.6697766780853,,,,,,,,,,,,,,,,,,,,,,,,,,,,,,,,,,,,,,,,,,,,,,,,,,,,,,,,,,,,,,,,,,,,,,,,,,,,,,,,,70.0,70.0,57.0,133.0,133.0,57.0,3.0,3.1,-198,266,0,1,191,-266,476.65515327453613,476.65519285202026,476.65766406059265,476.6697766780853,476.82002782821655,476.82002782821655,476.82002782821655,476.82002782821655,476.82002782821655,476.82002782821655,476.82002782821655,484.2375981807709,3,7.551661491394043,None,,,,,,,,,,,,,,,,,,153,3,2025-02-28_09h53.42.497,comp,2024.2.4,60.08205175219454,2025-02-28 09h57.26.141376 -0500,
118,118,0,filler_random,None,None,None,None,None,None,None,None,None,None,3,1.009162425994873,None,,,,,0,0,0,0,0,118,118,169,484.25305700302124,,,,,,,,,,,,,,,,,,,,,,,,,,,,,,,,,,,,,,,,,,,,,,,,,,,,,,,,,,,,,,,,,,,,,,,,,,,,,,,,,57.10664152644051,117.95734118886077,75.27405957034948,98.18040282470659,110.63157372315185,146.19133231346063,2.1,2.11,-204,258,0,256,218,-282,484.23849725723267,484.23853826522827,484.2410728931427,484.25305700302124,484.4033055305481,484.4033055305481,484.4033055305481,484.4033055305481,484.4033055305481,484.4033055305481,484.4033055305481,485.27104568481445,3,1.009162425994873,None,,,,,,,,,,,,,,,,,,153,3,2025-02-28_09h53.42.497,comp,2024.2.4,60.08205175219454,2025-02-28 09h57.26.141376 -0500,
119,119,0,filler_square,None,None,None,None,None,None,None,None,None,None,2,1.1915457248687744,None,,,,,0,0,0,0,0,119,119,202,485.2866048812866,,,,,,,,,,,,,,,,,,,,,,,,,,,,,,,,,,,,,,,,,,,,,,,,,,,,,,,,,,,,,,,,,,,,,,,,,,,,,,,,,66.67953608666491,88.62562286819849,101.1422829676015,101.1422829676015,83.11251059586799,94.51331346413755,2.2,2.22,-191,268,0,-258,194,-263,485.2721128463745,485.2721517086029,485.27455496788025,485.2866048812866,485.43645668029785,485.43645668029785,485.43645668029785,485.43645668029785,485.43645668029785,485.43645668029785,485.43645668029785,486.4875588417053,2,1.1915457248687744,None,,,,,,,,,,,,,,,,,,153,3,2025-02-28_09h53.42.497,comp,2024.2.4,60.08205175219454,2025-02-28 09h57.26.141376 -0500,
120,120,0,critical,wdh,35.0,4.0,lower,57.0,133.0,70.0,70.0,133.0,57.0,3,6.99172568321228,None,,,,,0,0,0,0,0,120,120,76,486.5033004283905,,,,,,,,,,,,,,,,,,,,,,,,,,,,,,,,,,,,,,,,,,,,,,,,,,,,,,,,,,,,,,,,,,,,,,,,,,,,,,,,,57.0,133.0,70.0,70.0,133.0,57.0,4.0,4.1,-198,-264,0,12,160,-279,486.4883599281311,486.48839950561523,486.49094319343567,486.5033004283905,486.65319204330444,486.65319204330444,486.65319204330444,486.65319204330444,486.65319204330444,486.65319204330444,486.65319204330444,493.50418734550476,3,6.99172568321228,None,,,,,,,,,,,,,,,,,,153,3,2025-02-28_09h53.42.497,comp,2024.2.4,60.08205175219454,2025-02-28 09h57.26.141376 -0500,
121,121,0,critical,whd,20.0,2.1,upper,125.0,200.0,200.0,125.0,141.0,141.0,3,1.8053479194641113,None,,,,,0,0,0,0,0,121,121,39,493.5198872089386,,,,,,,,,,,,,,,,,,,,,,,,,,,,,,,,,,,,,,,,,,,,,,,,,,,,,,,,,,,,,,,,,,,,,,,,,,,,,,,,,125.0,200.0,200.0,125.0,141.0,141.0,2.1,2.12,-258,-270,0,-258,229,263,493.50498127937317,493.5050210952759,493.5070946216583,493.5198872089386,493.67014265060425,493.67014265060425,493.67014265060425,493.67014265060425,493.67014265060425,493.67014265060425,493.67014265060425,495.33778524398804,3,1.8053479194641113,None,,,,,,,,,,,,,,,,,,153,3,2025-02-28_09h53.42.497,comp,2024.2.4,60.08205175219454,2025-02-28 09h57.26.141376 -0500,
122,122,0,filler_square,None,None,None,None,None,None,None,None,None,None,2,1.085524320602417,None,,,,,0,0,0,0,0,122,122,172,495.3529803752899,,,,,,,,,,,,,,,,,,,,,,,,,,,,,,,,,,,,,,,,,,,,,,,,,,,,,,,,,,,,,,,,,,,,,,,,,,,,,,,,,115.60314413077465,93.20715533285315,197.08303499715717,197.08303499715717,84.43226311342849,190.6689369671349,3.0,3.2,-241,-289,0,-5,290,265,495.338730096817,495.3387682437897,495.3410716056824,495.3529803752899,495.50334310531616,495.50334310531616,495.50334310531616,495.50334310531616,495.50334310531616,495.50334310531616,495.50334310531616,496.45441222190857,2,1.085524320602417,None,,,,,,,,,,,,,,,,,,153,3,2025-02-28_09h53.42.497,comp,2024.2.4,60.08205175219454,2025-02-28 09h57.26.141376 -0500,
123,123,0,filler_square,None,None,None,None,None,None,None,None,None,None,1,0.8082897663116455,None,,,,,0,0,0,0,0,123,123,188,496.46979570388794,,,,,,,,,,,,,,,,,,,,,,,,,,,,,,,,,,,,,,,,,,,,,,,,,,,,,,,,,,,,,,,,,,,,,,,,,,,,,,,,,163.95347538065283,163.95347538065283,84.5936843840501,133.83388069909307,83.55853742174901,77.4219894870227,4.0,4.2,-245,-8,0,-261,202,18,496.4553859233856,496.4554250240326,496.45792269706726,496.46979570388794,496.6200234889984,496.6200234889984,496.6200234889984,496.6200234889984,496.6200234889984,496.6200234889984,496.6200234889984,497.2877471446991,1,0.8082897663116455,None,,,,,,,,,,,,,,,,,,153,3,2025-02-28_09h53.42.497,comp,2024.2.4,60.08205175219454,2025-02-28 09h57.26.141376 -0500,
124,124,0,critical,hwd,20.0,2.1,upper,200.0,125.0,125.0,200.0,141.0,141.0,2,5.7588982582092285,None,,,,,0,0,0,0,0,124,124,43,497.30326414108276,,,,,,,,,,,,,,,,,,,,,,,,,,,,,,,,,,,,,,,,,,,,,,,,,,,,,,,,,,,,,,,,,,,,,,,,,,,,,,,,,200.0,125.0,125.0,200.0,141.0,141.0,2.1,2.11,-258,270,0,283,266,-258,497.2885916233063,497.2886333465576,497.2911956310272,497.30326414108276,497.45344281196594,497.45344281196594,497.45344281196594,497.45344281196594,497.45344281196594,497.45344281196594,497.45344281196594,503.0710542201996,2,5.7588982582092285,None,,,,,,,,,,,,,,,,,,153,3,2025-02-28_09h53.42.497,comp,2024.2.4,60.08205175219454,2025-02-28 09h57.26.141376 -0500,
125,125,0,critical,dwh,35.0,2.1,lower,70.0,70.0,57.0,133.0,133.0,57.0,3,2.6001875400543213,None,,,,,0,0,0,0,0,125,125,28,503.08651638031006,,,,,,,,,,,,,,,,,,,,,,,,,,,,,,,,,,,,,,,,,,,,,,,,,,,,,,,,,,,,,,,,,,,,,,,,,,,,,,,,,70.0,70.0,57.0,133.0,133.0,57.0,2.1,2.12,-198,-265,0,-283,191,250,503.0718195438385,503.07185983657837,503.07387948036194,503.08651638031006,503.2364387512207,503.2364387512207,503.2364387512207,503.2364387512207,503.2364387512207,503.2364387512207,503.2364387512207,505.7042622566223,3,2.6001875400543213,None,,,,,,,,,,,,,,,,,,153,3,2025-02-28_09h53.42.497,comp,2024.2.4,60.08205175219454,2025-02-28 09h57.26.141376 -0500,
126,126,0,critical,hwd,20.0,1.0,upper,200.0,125.0,125.0,200.0,141.0,141.0,2,2.405477523803711,None,,,,,0,0,0,0,0,126,126,103,505.7196626663208,,,,,,,,,,,,,,,,,,,,,,,,,,,,,,,,,,,,,,,,,,,,,,,,,,,,,,,,,,,,,,,,,,,,,,,,,,,,,,,,,200.0,125.0,125.0,200.0,141.0,141.0,1.0,1.3,222,-273,480,-258,746,-285,505.70506715774536,505.70510721206665,505.7075502872467,505.7196626663208,505.86998414993286,505.86998414993286,505.86998414993286,505.86998414993286,505.86998414993286,505.86998414993286,505.86998414993286,508.1376938819885,2,2.405477523803711,None,,,,,,,,,,,,,,,,,,153,3,2025-02-28_09h53.42.497,comp,2024.2.4,60.08205175219454,2025-02-28 09h57.26.141376 -0500,
127,127,0,filler_random,None,None,None,None,None,None,None,None,None,None,3,1.1558208465576172,None,,,,,0,0,0,0,0,127,127,165,508.15327501296997,,,,,,,,,,,,,,,,,,,,,,,,,,,,,,,,,,,,,,,,,,,,,,,,,,,,,,,,,,,,,,,,,,,,,,,,,,,,,,,,,62.027768869171304,63.8598872674313,62.60784729297674,162.98271146746544,155.28117792860104,166.63706031243706,3.0,3.1,-209,258,0,-17,261,-256,508.13858938217163,508.1386296749115,508.1422381401062,508.15327501296997,508.3030948638916,508.3030948638916,508.3030948638916,508.3030948638916,508.3030948638916,508.3030948638916,508.3030948638916,509.32095861434937,3,1.1558208465576172,None,,,,,,,,,,,,,,,,,,153,3,2025-02-28_09h53.42.497,comp,2024.2.4,60.08205175219454,2025-02-28 09h57.26.141376 -0500,
128,128,0,filler_square,None,None,None,None,None,None,None,None,None,None,3,1.509737491607666,None,,,,,0,0,0,0,0,128,128,189,509.3362617492676,,,,,,,,,,,,,,,,,,,,,,,,,,,,,,,,,,,,,,,,,,,,,,,,,,,,,,,,,,,,,,,,,,,,,,,,,,,,,,,,,69.29063973867358,73.33864403440559,57.022872360727874,65.25478498921012,81.3429358107835,81.3429358107835,2.1,2.12,-165,-269,0,-289,169,267,509.3219244480133,509.3219635486603,509.32430124282837,509.3362617492676,509.4864032268524,509.4864032268524,509.4864032268524,509.4864032268524,509.4864032268524,509.4864032268524,509.4864032268524,510.85407423973083,3,1.509737491607666,None,,,,,,,,,,,,,,,,,,153,3,2025-02-28_09h53.42.497,comp,2024.2.4,60.08205175219454,2025-02-28 09h57.26.141376 -0500,
129,129,0,critical,wdh,35.0,2.1,lower,57.0,133.0,70.0,70.0,133.0,57.0,3,2.7034342288970947,None,,,,,0,0,0,0,0,129,129,32,510.86986660957336,,,,,,,,,,,,,,,,,,,,,,,,,,,,,,,,,,,,,,,,,,,,,,,,,,,,,,,,,,,,,,,,,,,,,,,,,,,,,,,,,57.0,133.0,70.0,70.0,133.0,57.0,2.1,2.11,-198,256,0,272,160,-256,510.85487508773804,510.85491466522217,510.85724449157715,510.86986660957336,511.01966094970703,511.01966094970703,511.01966094970703,511.01966094970703,511.01966094970703,511.01966094970703,511.01966094970703,513.5873646736145,3,2.7034342288970947,None,,,,,,,,,,,,,,,,,,153,3,2025-02-28_09h53.42.497,comp,2024.2.4,60.08205175219454,2025-02-28 09h57.26.141376 -0500,
130,130,0,critical,hwd,35.0,1.0,lower,133.0,57.0,57.0,133.0,70.0,70.0,2,2.5704925060272217,None,,,,,0,0,0,0,0,130,130,96,513.6027989387512,,,,,,,,,,,,,,,,,,,,,,,,,,,,,,,,,,,,,,,,,,,,,,,,,,,,,,,,,,,,,,,,,,,,,,,,,,,,,,,,,133.0,57.0,57.0,133.0,70.0,70.0,1.0,1.2,-191,-10,0,-3,198,-20,513.5881531238556,513.588193655014,513.5906791687012,513.6027989387512,513.7529022693634,513.7529022693634,513.7529022693634,513.7529022693634,513.7529022693634,513.7529022693634,513.7529022693634,516.1874134540558,2,2.5704925060272217,None,,,,,,,,,,,,,,,,,,153,3,2025-02-28_09h53.42.497,comp,2024.2.4,60.08205175219454,2025-02-28 09h57.26.141376 -0500,
131,131,0,critical,whd,35.0,1.0,lower,57.0,133.0,133.0,57.0,70.0,70.0,2,4.611274480819702,None,,,,,0,0,0,0,0,131,131,84,516.2026944160461,,,,,,,,,,,,,,,,,,,,,,,,,,,,,,,,,,,,,,,,,,,,,,,,,,,,,,,,,,,,,,,,,,,,,,,,,,,,,,,,,57.0,133.0,133.0,57.0,70.0,70.0,1.0,1.1,-671,277,-480,280,-320,264,516.1882176399231,516.1882576942444,516.1907000541687,516.2026944160461,516.3529167175293,516.3529167175293,516.3529167175293,516.3529167175293,516.3529167175293,516.3529167175293,516.3529167175293,520.820638179779,2,4.611274480819702,None,,,,,,,,,,,,,,,,,,153,3,2025-02-28_09h53.42.497,comp,2024.2.4,60.08205175219454,2025-02-28 09h57.26.141376 -0500,
132,132,0,filler_random,None,None,None,None,None,None,None,None,None,None,1,1.04152512550354,None,,,,,0,0,0,0,0,132,132,159,520.8364155292511,,,,,,,,,,,,,,,,,,,,,,,,,,,,,,,,,,,,,,,,,,,,,,,,,,,,,,,,,,,,,,,,,,,,,,,,,,,,,,,,,119.07457046114412,198.75902170027834,109.35990001073368,167.95406672737454,69.83700596917011,60.94985338643002,1.0,1.1,-759,251,-480,274,-270,288,520.8215589523315,520.8215999603271,520.8241062164307,520.8364155292511,520.9864680767059,520.9864680767059,520.9864680767059,520.9864680767059,520.9864680767059,520.9864680767059,520.9864680767059,521.8874754905701,1,1.04152512550354,None,,,,,,,,,,,,,,,,,,153,3,2025-02-28_09h53.42.497,comp,2024.2.4,60.08205175219454,2025-02-28 09h57.26.141376 -0500,
133,133,0,filler_random,None,None,None,None,None,None,None,None,None,None,3,2.8165743350982666,None,,,,,0,0,0,0,0,133,133,130,521.9030900001526,,,,,,,,,,,,,,,,,,,,,,,,,,,,,,,,,,,,,,,,,,,,,,,,,,,,,,,,,,,,,,,,,,,,,,,,,,,,,,,,,90.34060225142548,113.87017276812222,172.04128874585234,65.71000613833438,111.05647279477398,159.85876194942944,2.1,2.12,-186,-251,0,-277,209,275,521.8883817195892,521.8884220123291,521.8909685611725,521.9030900001526,522.052996635437,522.052996635437,522.052996635437,522.052996635437,522.052996635437,522.052996635437,522.052996635437,524.7375247478485,3,2.8165743350982666,None,,,,,,,,,,,,,,,,,,153,3,2025-02-28_09h53.42.497,comp,2024.2.4,60.08205175219454,2025-02-28 09h57.26.141376 -0500,
134,134,0,critical,wdh,20.0,2.1,upper,125.0,200.0,141.0,141.0,200.0,125.0,1,4.767070293426514,None,,,,,0,0,0,0,0,134,134,11,524.7529077529907,,,,,,,,,,,,,,,,,,,,,,,,,,,,,,,,,,,,,,,,,,,,,,,,,,,,,,,,,,,,,,,,,,,,,,,,,,,,,,,,,125.0,200.0,141.0,141.0,200.0,125.0,2.1,2.12,-266,-288,0,-285,229,277,524.7383272647858,524.7383670806885,524.7408213615417,524.7529077529907,524.9032981395721,524.9032981395721,524.9032981395721,524.9032981395721,524.9032981395721,524.9032981395721,524.9032981395721,529.5374693870544,1,4.767070293426514,None,,,,,,,,,,,,,,,,,,153,3,2025-02-28_09h53.42.497,comp,2024.2.4,60.08205175219454,2025-02-28 09h57.26.141376 -0500,
135,135,0,filler_random,None,None,None,None,None,None,None,None,None,None,3,1.950042963027954,None,,,,,0,0,0,0,0,135,135,151,529.5694370269775,,,,,,,,,,,,,,,,,,,,,,,,,,,,,,,,,,,,,,,,,,,,,,,,,,,,,,,,,,,,,,,,,,,,,,,,,,,,,,,,,163.57950440502452,142.70500592242612,86.06359653547467,183.62498642989863,172.0357930629131,138.46799661169865,2.2,2.21,-259,-259,0,254,257,275,529.5383765697479,529.5384168624878,529.5409250259399,529.5694370269775,529.7033402919769,529.7033402919769,529.7033402919769,529.7033402919769,529.7033402919769,529.7033402919769,529.7033402919769,531.5211262702942,3,1.950042963027954,None,,,,,,,,,,,,,,,,,,153,3,2025-02-28_09h53.42.497,comp,2024.2.4,60.08205175219454,2025-02-28 09h57.26.141376 -0500,
136,136,0,critical,hwd,20.0,3.0,lower,133.0,57.0,57.0,133.0,78.0,78.0,2,3.517146110534668,None,,,,,0,0,0,0,0,136,136,104,531.5362596511841,,,,,,,,,,,,,,,,,,,,,,,,,,,,,,,,,,,,,,,,,,,,,,,,,,,,,,,,,,,,,,,,,,,,,,,,,,,,,,,,,133.0,57.0,57.0,133.0,78.0,78.0,3.0,3.1,-191,257,0,-11,202,-262,531.5219540596008,531.5219931602478,531.5242357254028,531.5362596511841,531.6864500045776,531.6864500045776,531.6864500045776,531.6864500045776,531.6864500045776,531.6864500045776,531.6864500045776,535.0706539154053,2,3.517146110534668,None,,,,,,,,,,,,,,,,,,153,3,2025-02-28_09h53.42.497,comp,2024.2.4,60.08205175219454,2025-02-28 09h57.26.141376 -0500,
137,137,0,catch,None,None,None,None,None,None,None,None,None,None,3,0.9759395122528076,None,,,,,0,0,0,0,0,137,137,123,535.0859999656677,,,,,,,,,,,,,,,,,,,,,,,,,,,,,,,,,,,,,,,,,,,,,,,,,,,,,,,,,,,,,,,,,,,,,,,,,,,,,,,,,81,109,121,69,183,142,3.0,3.1,-185,258,0,18,202,-255,535.0717096328735,535.0717515945435,535.0743327140808,535.0859999656677,535.2362654209137,535.2362654209137,535.2362654209137,535.2362654209137,535.2362654209137,535.2362654209137,535.2362654209137,536.0706868171692,3,0.9759395122528076,None,,,,,,,,,,,,,,,,,,153,3,2025-02-28_09h53.42.497,comp,2024.2.4,60.08205175219454,2025-02-28 09h57.26.141376 -0500,
138,138,0,critical,hdw,20.0,1.0,lower,133.0,57.0,78.0,78.0,57.0,133.0,3,4.080538988113403,None,,,,,0,0,0,0,0,138,138,114,536.0862655639648,,,,,,,,,,,,,,,,,,,,,,,,,,,,,,,,,,,,,,,,,,,,,,,,,,,,,,,,,,,,,,,,,,,,,,,,,,,,,,,,,133.0,57.0,78.0,78.0,57.0,133.0,1.0,1.1,-644,251,-480,287,-278,287,536.0716865062714,536.0717267990112,536.0739645957947,536.0862655639648,536.2362349033356,536.2362349033356,536.2362349033356,536.2362349033356,536.2362349033356,536.2362349033356,536.2362349033356,540.1707143783569,3,4.080538988113403,None,,,,,,,,,,,,,,,,,,153,3,2025-02-28_09h53.42.497,comp,2024.2.4,60.08205175219454,2025-02-28 09h57.26.141376 -0500,
139,139,0,critical,hwd,35.0,3.0,lower,133.0,57.0,57.0,133.0,70.0,70.0,1,3.4508402347564697,None,,,,,0,0,0,0,0,139,139,98,540.1862280368805,,,,,,,,,,,,,,,,,,,,,,,,,,,,,,,,,,,,,,,,,,,,,,,,,,,,,,,,,,,,,,,,,,,,,,,,,,,,,,,,,133.0,57.0,57.0,133.0,70.0,70.0,3.0,3.2,-191,-275,0,-10,198,252,540.1714904308319,540.1715292930603,540.1737599372864,540.1862280368805,540.3362302780151,540.3362302780151,540.3362302780151,540.3362302780151,540.3362302780151,540.3362302780151,540.3362302780151,543.6539549827576,1,3.4508402347564697,None,,,,,,,,,,,,,,,,,,153,3,2025-02-28_09h53.42.497,comp,2024.2.4,60.08205175219454,2025-02-28 09h57.26.141376 -0500,
