thisN,thisTrialN,thisRepN,effect,order,distance,config,diag,h_1,w_1,h_2,w_2,h_3,w_3,rect_choice.keys,rect_choice.rt,rect_choice.duration,instructions_loop.thisRepN,instructions_loop.thisTrialN,instructions_loop.thisN,instructions_loop.thisIndex,blocks.thisRepN,blocks.thisTrialN,blocks.thisN,blocks.thisIndex,trials.thisRepN,trials.thisTrialN,trials.thisN,trials.thisIndex,thisRow.t,notes,consent.started,agree_button.started,decline_button.started,consent_img.started,mouse.started,consent.stopped,agree_button.numClicks,agree_button.timesOn,agree_button.timesOff,decline_button.numClicks,decline_button.timesOn,decline_button.timesOff,mouse.x,mouse.y,mouse.leftButton,mouse.midButton,mouse.rightButton,mouse.time,mouse.clicked_name,exp_params.started,exp_params.stopped,welcome.started,welcome_text.started,welcome.stopped,instructions_1.started,instructions_1_text_1.started,instructions_1_text_2.started,key_resp.started,instructions_1.stopped,instructions_loop.key_resp.keys,instructions_loop.key_resp.rt,instructions_loop.key_resp.duration,instructions_2.started,instructions_2_text_1.started,instructions_2_text_2.started,key_resp_2.started,instructions_2.stopped,instructions_loop.key_resp_2.keys,instructions_loop.key_resp_2.rt,instructions_loop.key_resp_2.duration,instructions_3.started,instructions_3_text_1.started,r1_instr3.started,r2_instr3.started,r3_instr3.started,r1_instr3_label.started,r2_instr3_label.started,r3_instr3_label.started,instructions_3_text_3.started,instructions_3_text_4.started,key_resp_3.started,instructions_3.stopped,instructions_loop.key_resp_3.keys,instructions_loop.key_resp_3.rt,instructions_loop.key_resp_3.duration,instructions_4.started,instructions_4_text_1.started,instructions_4_text_3.started,instructions_4_text_2.started,key_resp_4.started,instructions_4.stopped,instructions_loop.key_resp_4.keys,instructions_loop.key_resp_4.rt,instructions_loop.key_resp_4.duration,instructions_5.started,instructions_5_text_1.started,instructions_5_text_2.started,key_resp_5.started,instructions_5.stopped,instructions_loop.key_resp_5.keys,instructions_loop.key_resp_5.rt,instructions_loop.key_resp_5.duration,start_exp.started,start_exp_text.started,key_resp_6.started,start_exp.stopped,key_resp_6.keys,key_resp_6.rt,key_resp_6.duration,h_1_tmp,w_1_tmp,h_2_tmp,w_2_tmp,h_3_tmp,w_3_tmp,config_tmp,config_tmp_1,r_1_x,r_1_y,r_2_x,r_2_y,r_3_x,r_3_y,pre_trial.started,pre_trial.stopped,choice_trial.started,rect_choice.started,r_1.started,r_2.started,r_3.started,r_1_label.started,r_2_label.started,r_3_label.started,prompt.started,choice_trial.stopped,trials.rect_choice.keys,trials.rect_choice.rt,trials.rect_choice.duration,end_block.started,end_block_text.started,end_block.stopped,end.started,end_text.started,key_resp_7.started,end.stopped,key_resp_7.keys,key_resp_7.rt,key_resp_7.duration,debriefing.started,debrief_form.started,end_debrief.started,debriefing.stopped,end_debrief.keys,end_debrief.rt,end_debrief.duration,participant,computer,date,expName,psychopyVersion,frameRate,expStart,
,,,,,,,,,,,,,,,,,,,,,,,,,,,,,,,0.014988422393798828,0.09839773178100586,0.09839773178100586,0.09839773178100586,0.014800786972045898,17.451189041137695,1,[17.350146532058716],[17.35016965866089],0,,,[-79.0],[-507.0],[1],[0],[0],[17.42207431793213],['agree_button'],,,,,,,,,,,,,,,,,,,,,,,,,,,,,,,,,,,,,,,,,,,,,,,,,,,,,,,,,,,,,,,,,,,,,,,,,,,,,,,,,,,,,,,,,,,,,,,,,,,,,,,,,,,154,4,2025-02-28_09h55.10.790,comp,2024.2.4,54.160654632698844,2025-02-28 09h58.22.768219 -0500,
,,,,,,,,,,,,,,,,,,,,,,,,,,,,,,,,,,,,,,,,,,,,,,,,,,17.451709508895874,17.451778173446655,,,,,,,,,,,,,,,,,,,,,,,,,,,,,,,,,,,,,,,,,,,,,,,,,,,,,,,,,,,,,,,,,,,,,,,,,,,,,,,,,,,,,,,,,,,,,,,,,,,,,,,,,154,4,2025-02-28_09h55.10.790,comp,2024.2.4,54.160654632698844,2025-02-28 09h58.22.768219 -0500,
,,,,,,,,,,,,,,,,,,,,,,,,,,,,,,,,,,,,,,,,,,,,,,,,,,,,17.451822519302368,17.465874671936035,19.465040683746338,,,,,,,,,,,,,,,,,,,,,,,,,,,,,,,,,,,,,,,,,,,,,,,,,,,,,,,,,,,,,,,,,,,,,,,,,,,,,,,,,,,,,,,,,,,,,,,,,,,,,,154,4,2025-02-28_09h55.10.790,comp,2024.2.4,54.160654632698844,2025-02-28 09h58.22.768219 -0500,
0,0,0,,,,,,,,,,,,,,,0,0,0,0,,,,,,,,,19.483777284622192,,,,,,,,,,,,,,,,,,,,,,,,,,19.465952396392822,19.483777284622192,19.483777284622192,20.963366746902466,23.481754541397095,space,2.508641481399536,None,23.481906175613403,23.49612784385681,23.49612784385681,24.99744939804077,32.00163650512695,space,6.9854817390441895,None,32.00179171562195,32.031010389328,32.031010389328,32.031010389328,32.031010389328,32.031010389328,32.031010389328,32.031010389328,32.031010389328,32.031010389328,33.5167019367218,41.3468804359436,space,7.826565980911255,None,41.34705400466919,41.36894369125366,41.36894369125366,41.36894369125366,42.85315537452698,49.70661377906799,space,6.8426902294158936,None,49.7067711353302,49.72210478782654,49.72210478782654,51.22055220603943,52.40714693069458,space,1.1703972816467285,None,52.407374143600464,52.422871351242065,52.422871351242065,53.99085330963135,space,1.5519993305206299,None,,,,,,,,,,,,,,,,,,,,,,,,,,,,,,,,,,,,,,,,,,,,,,,154,4,2025-02-28_09h55.10.790,comp,2024.2.4,54.160654632698844,2025-02-28 09h58.22.768219 -0500,
0,0,0,filler_square,None,None,None,None,None,None,None,None,None,None,2,4.545775413513184,None,,,,,0,0,0,0,0,0,0,206,54.2054226398468,,,,,,,,,,,,,,,,,,,,,,,,,,,,,,,,,,,,,,,,,,,,,,,,,,,,,,,,,,,,,,,,,,,,,,,,,,,,,,,,,104.47928035887082,95.73583920175473,107.44062701101333,107.44062701101333,82.65234644676639,97.46945155179466,2.2,2.22,-198,261,0,-289,198,-274,54.186485290527344,54.18658900260925,54.18977999687195,54.2054226398468,54.34988713264465,54.34988713264465,54.34988713264465,54.34988713264465,54.34988713264465,54.34988713264465,54.34988713264465,58.75959753990173,2,4.545775413513184,None,,,,,,,,,,,,,,,,,,154,4,2025-02-28_09h55.10.790,comp,2024.2.4,54.160654632698844,2025-02-28 09h58.22.768219 -0500,
1,1,0,catch,None,None,None,None,None,None,None,None,None,None,2,1.8633458614349365,None,,,,,0,0,0,0,0,1,1,123,58.77612853050232,,,,,,,,,,,,,,,,,,,,,,,,,,,,,,,,,,,,,,,,,,,,,,,,,,,,,,,,,,,,,,,,,,,,,,,,,,,,,,,,,118,72,158,167,90,100,1.0,1.2,-216,-4,0,-1,230,-8,58.761635541915894,58.76171612739563,58.765228033065796,58.77612853050232,58.92640399932861,58.92640399932861,58.92640399932861,58.92640399932861,58.92640399932861,58.92640399932861,58.92640399932861,60.642549991607666,2,1.8633458614349365,None,,,,,,,,,,,,,,,,,,154,4,2025-02-28_09h55.10.790,comp,2024.2.4,54.160654632698844,2025-02-28 09h58.22.768219 -0500,
2,2,0,filler_random,None,None,None,None,None,None,None,None,None,None,2,3.5396788120269775,None,,,,,0,0,0,0,0,2,2,138,60.659199237823486,,,,,,,,,,,,,,,,,,,,,,,,,,,,,,,,,,,,,,,,,,,,,,,,,,,,,,,,,,,,,,,,,,,,,,,,,,,,,,,,,109.36096571198269,188.26013475588417,194.3853457228081,162.03375131035818,199.41694311530557,67.55282923579828,4.0,4.2,-271,-5,0,-269,211,-11,60.64424753189087,60.64435291290283,60.64743709564209,60.659199237823486,60.81044387817383,60.81044387817383,60.81044387817383,60.81044387817383,60.81044387817383,60.81044387817383,60.81044387817383,64.21495747566223,2,3.5396788120269775,None,,,,,,,,,,,,,,,,,,154,4,2025-02-28_09h55.10.790,comp,2024.2.4,54.160654632698844,2025-02-28 09h58.22.768219 -0500,
3,3,0,filler_random,None,None,None,None,None,None,None,None,None,None,1,7.072258472442627,None,,,,,0,0,0,0,0,3,3,144,64.2311692237854,,,,,,,,,,,,,,,,,,,,,,,,,,,,,,,,,,,,,,,,,,,,,,,,,,,,,,,,,,,,,,,,,,,,,,,,,,,,,,,,,181.443723706144,147.38820895411416,126.11482420956793,188.6608398647229,172.1556000155917,146.19831532146048,4.0,4.1,-264,-289,0,-7,263,-267,64.21674132347107,64.21684122085571,64.22026324272156,64.2311692237854,64.38494205474854,64.38494205474854,64.38494205474854,64.38494205474854,64.38494205474854,64.38494205474854,64.38494205474854,71.30655550956726,1,7.072258472442627,None,,,,,,,,,,,,,,,,,,154,4,2025-02-28_09h55.10.790,comp,2024.2.4,54.160654632698844,2025-02-28 09h58.22.768219 -0500,
4,4,0,critical,hdw,20.0,1.0,upper,200.0,125.0,141.0,141.0,125.0,200.0,1,9.938967227935791,None,,,,,0,0,0,0,0,4,4,115,71.32453751564026,,,,,,,,,,,,,,,,,,,,,,,,,,,,,,,,,,,,,,,,,,,,,,,,,,,,,,,,,,,,,,,,,,,,,,,,,,,,,,,,,200.0,125.0,141.0,141.0,125.0,200.0,1.0,1.3,251,-281,480,-254,746,-282,71.30818176269531,71.30832815170288,71.31166815757751,71.32453751564026,71.46344900131226,71.46344900131226,71.46344900131226,71.46344900131226,71.46344900131226,71.46344900131226,71.46344900131226,81.28207063674927,1,9.938967227935791,None,,,,,,,,,,,,,,,,,,154,4,2025-02-28_09h55.10.790,comp,2024.2.4,54.160654632698844,2025-02-28 09h58.22.768219 -0500,
5,5,0,filler_square,None,None,None,None,None,None,None,None,None,None,1,4.340215682983398,None,,,,,0,0,0,0,0,5,5,195,81.29872369766235,,,,,,,,,,,,,,,,,,,,,,,,,,,,,,,,,,,,,,,,,,,,,,,,,,,,,,,,,,,,,,,,,,,,,,,,,,,,,,,,,91.29726470124194,91.29726470124194,67.41931019135811,63.51093287518431,89.76231331242337,67.24367533935302,2.1,2.12,-173,-262,0,-269,161,288,81.28394770622253,81.28402590751648,81.28727650642395,81.29872369766235,81.44579672813416,81.44579672813416,81.44579672813416,81.44579672813416,81.44579672813416,81.44579672813416,81.44579672813416,85.65035462379456,1,4.340215682983398,None,,,,,,,,,,,,,,,,,,154,4,2025-02-28_09h55.10.790,comp,2024.2.4,54.160654632698844,2025-02-28 09h58.22.768219 -0500,
6,6,0,critical,whd,35.0,2.1,lower,57.0,133.0,133.0,57.0,70.0,70.0,2,3.121788501739502,None,,,,,0,0,0,0,0,6,6,36,85.66906499862671,,,,,,,,,,,,,,,,,,,,,,,,,,,,,,,,,,,,,,,,,,,,,,,,,,,,,,,,,,,,,,,,,,,,,,,,,,,,,,,,,57.0,133.0,133.0,57.0,70.0,70.0,2.1,2.11,-191,271,0,275,160,-283,85.65200614929199,85.65209078788757,85.65583920478821,85.66906499862671,85.81874680519104,85.81874680519104,85.81874680519104,85.81874680519104,85.81874680519104,85.81874680519104,85.81874680519104,88.80976343154907,2,3.121788501739502,None,,,,,,,,,,,,,,,,,,154,4,2025-02-28_09h55.10.790,comp,2024.2.4,54.160654632698844,2025-02-28 09h58.22.768219 -0500,
7,7,0,critical,hwd,20.0,4.0,lower,133.0,57.0,57.0,133.0,78.0,78.0,1,2.587348222732544,None,,,,,0,0,0,0,0,7,7,106,88.82794952392578,,,,,,,,,,,,,,,,,,,,,,,,,,,,,,,,,,,,,,,,,,,,,,,,,,,,,,,,,,,,,,,,,,,,,,,,,,,,,,,,,133.0,57.0,57.0,133.0,78.0,78.0,4.0,4.1,-191,-263,0,-8,202,-283,88.8113603591919,88.81143712997437,88.81473231315613,88.82794952392578,88.96885895729065,88.96885895729065,88.96885895729065,88.96885895729065,88.96885895729065,88.96885895729065,88.96885895729065,91.4195327758789,1,2.587348222732544,None,,,,,,,,,,,,,,,,,,154,4,2025-02-28_09h55.10.790,comp,2024.2.4,54.160654632698844,2025-02-28 09h58.22.768219 -0500,
8,8,0,critical,dhw,35.0,4.0,upper,127.0,127.0,200.0,125.0,125.0,200.0,2,2.275303840637207,None,,,,,0,0,0,0,0,8,8,53,91.43575978279114,,,,,,,,,,,,,,,,,,,,,,,,,,,,,,,,,,,,,,,,,,,,,,,,,,,,,,,,,,,,,,,,,,,,,,,,,,,,,,,,,127.0,127.0,200.0,125.0,125.0,200.0,4.0,4.2,-222,0,0,-257,258,4,91.42097854614258,91.42105555534363,91.42428541183472,91.43575978279114,91.59153389930725,91.59153389930725,91.59153389930725,91.59153389930725,91.59153389930725,91.59153389930725,91.59153389930725,93.7282223701477,2,2.275303840637207,None,,,,,,,,,,,,,,,,,,154,4,2025-02-28_09h55.10.790,comp,2024.2.4,54.160654632698844,2025-02-28 09h58.22.768219 -0500,
9,9,0,catch,None,None,None,None,None,None,None,None,None,None,3,1.8924164772033691,None,,,,,0,0,0,0,0,9,9,122,93.74651503562927,,,,,,,,,,,,,,,,,,,,,,,,,,,,,,,,,,,,,,,,,,,,,,,,,,,,,,,,,,,,,,,,,,,,,,,,,,,,,,,,,93,97,63,127,176,149,2.2,2.21,-208,-259,0,263,234,257,93.73035621643066,93.73043751716614,93.73376250267029,93.74651503562927,93.88522338867188,93.88522338867188,93.88522338867188,93.88522338867188,93.88522338867188,93.88522338867188,93.88522338867188,95.65507197380066,3,1.8924164772033691,None,,,,,,,,,,,,,,,,,,154,4,2025-02-28_09h55.10.790,comp,2024.2.4,54.160654632698844,2025-02-28 09h58.22.768219 -0500,
10,10,0,catch,None,None,None,None,None,None,None,None,None,None,1,1.5835890769958496,None,,,,,0,0,0,0,0,10,10,120,95.6714358329773,,,,,,,,,,,,,,,,,,,,,,,,,,,,,,,,,,,,,,,,,,,,,,,,,,,,,,,,,,,,,,,,,,,,,,,,,,,,,,,,,130,195,84,106,123,67,4.0,4.2,-246,15,0,-258,182,15,95.6572265625,95.65733289718628,95.66089582443237,95.6714358329773,95.82798075675964,95.82798075675964,95.82798075675964,95.82798075675964,95.82798075675964,95.82798075675964,95.82798075675964,97.27068066596985,1,1.5835890769958496,None,,,,,,,,,,,,,,,,,,154,4,2025-02-28_09h55.10.790,comp,2024.2.4,54.160654632698844,2025-02-28 09h58.22.768219 -0500,
11,11,0,filler_random,None,None,None,None,None,None,None,None,None,None,2,9.060529470443726,None,,,,,0,0,0,0,0,11,11,150,97.29097485542297,,,,,,,,,,,,,,,,,,,,,,,,,,,,,,,,,,,,,,,,,,,,,,,,,,,,,,,,,,,,,,,,,,,,,,,,,,,,,,,,,67.71548351286208,149.5221641552385,169.90367619760687,57.64257777346101,67.25326958608825,138.53192918868223,2.2,2.22,-200,286,0,-269,194,-259,97.27238702774048,97.27246451377869,97.27573299407959,97.29097485542297,97.43873834609985,97.43873834609985,97.43873834609985,97.43873834609985,97.43873834609985,97.43873834609985,97.43873834609985,106.35953712463379,2,9.060529470443726,None,,,,,,,,,,,,,,,,,,154,4,2025-02-28_09h55.10.790,comp,2024.2.4,54.160654632698844,2025-02-28 09h58.22.768219 -0500,
12,12,0,critical,dwh,35.0,2.1,upper,127.0,127.0,125.0,200.0,200.0,125.0,3,13.759975671768188,None,,,,,0,0,0,0,0,12,12,29,106.3755476474762,,,,,,,,,,,,,,,,,,,,,,,,,,,,,,,,,,,,,,,,,,,,,,,,,,,,,,,,,,,,,,,,,,,,,,,,,,,,,,,,,127.0,127.0,125.0,200.0,200.0,125.0,2.1,2.11,-260,255,0,259,258,-281,106.36118769645691,106.36126780509949,106.3647289276123,106.3755476474762,106.52441453933716,106.52441453933716,106.52441453933716,106.52441453933716,106.52441453933716,106.52441453933716,106.52441453933716,120.14602947235107,3,13.759975671768188,None,,,,,,,,,,,,,,,,,,154,4,2025-02-28_09h55.10.790,comp,2024.2.4,54.160654632698844,2025-02-28 09h58.22.768219 -0500,
13,13,0,critical,dwh,20.0,2.1,upper,141.0,141.0,125.0,200.0,200.0,125.0,3,12.413242101669312,None,,,,,0,0,0,0,0,13,13,7,120.16213202476501,,,,,,,,,,,,,,,,,,,,,,,,,,,,,,,,,,,,,,,,,,,,,,,,,,,,,,,,,,,,,,,,,,,,,,,,,,,,,,,,,141.0,141.0,125.0,200.0,200.0,125.0,2.1,2.12,-266,-282,0,-274,258,258,120.1476731300354,120.14775252342224,120.15128135681152,120.16213202476501,120.3109860420227,120.3109860420227,120.3109860420227,120.3109860420227,120.3109860420227,120.3109860420227,120.3109860420227,132.5837049484253,3,12.413242101669312,None,,,,,,,,,,,,,,,,,,154,4,2025-02-28_09h55.10.790,comp,2024.2.4,54.160654632698844,2025-02-28 09h58.22.768219 -0500,
14,14,0,critical,hwd,20.0,2.1,upper,200.0,125.0,125.0,200.0,141.0,141.0,1,10.783353567123413,None,,,,,0,0,0,0,0,14,14,19,132.59996461868286,,,,,,,,,,,,,,,,,,,,,,,,,,,,,,,,,,,,,,,,,,,,,,,,,,,,,,,,,,,,,,,,,,,,,,,,,,,,,,,,,200.0,125.0,125.0,200.0,141.0,141.0,2.1,2.12,-258,-275,0,-262,266,268,132.58517909049988,132.5852530002594,132.58927869796753,132.59996461868286,132.74812722206116,132.74812722206116,132.74812722206116,132.74812722206116,132.74812722206116,132.74812722206116,132.74812722206116,143.38520574569702,1,10.783353567123413,None,,,,,,,,,,,,,,,,,,154,4,2025-02-28_09h55.10.790,comp,2024.2.4,54.160654632698844,2025-02-28 09h58.22.768219 -0500,
15,15,0,critical,dwh,20.0,1.0,lower,78.0,78.0,57.0,133.0,133.0,57.0,3,4.501771688461304,None,,,,,0,0,0,0,0,15,15,66,143.4011812210083,,,,,,,,,,,,,,,,,,,,,,,,,,,,,,,,,,,,,,,,,,,,,,,,,,,,,,,,,,,,,,,,,,,,,,,,,,,,,,,,,78.0,78.0,57.0,133.0,133.0,57.0,1.0,1.1,-682,256,-480,256,-289,290,143.38675785064697,143.38683652877808,143.38991832733154,143.4011812210083,143.55742621421814,143.55742621421814,143.55742621421814,143.55742621421814,143.55742621421814,143.55742621421814,143.55742621421814,147.91893410682678,3,4.501771688461304,None,,,,,,,,,,,,,,,,,,154,4,2025-02-28_09h55.10.790,comp,2024.2.4,54.160654632698844,2025-02-28 09h58.22.768219 -0500,
16,16,0,critical,hdw,20.0,4.0,lower,133.0,57.0,78.0,78.0,57.0,133.0,1,2.080564022064209,None,,,,,0,0,0,0,0,16,16,118,147.93482613563538,,,,,,,,,,,,,,,,,,,,,,,,,,,,,,,,,,,,,,,,,,,,,,,,,,,,,,,,,,,,,,,,,,,,,,,,,,,,,,,,,133.0,57.0,78.0,78.0,57.0,133.0,4.0,4.2,-164,-20,0,-271,202,11,147.92044615745544,147.92052292823792,147.92357993125916,147.93482613563538,148.08820343017578,148.08820343017578,148.08820343017578,148.08820343017578,148.08820343017578,148.08820343017578,148.08820343017578,150.02252459526062,1,2.080564022064209,None,,,,,,,,,,,,,,,,,,154,4,2025-02-28_09h55.10.790,comp,2024.2.4,54.160654632698844,2025-02-28 09h58.22.768219 -0500,
17,17,0,critical,dhw,35.0,1.0,upper,127.0,127.0,200.0,125.0,125.0,200.0,2,1.8807117938995361,None,,,,,0,0,0,0,0,17,17,49,150.0390055179596,,,,,,,,,,,,,,,,,,,,,,,,,,,,,,,,,,,,,,,,,,,,,,,,,,,,,,,,,,,,,,,,,,,,,,,,,,,,,,,,,127.0,127.0,200.0,125.0,125.0,200.0,1.0,1.1,-702,284,-480,274,-222,273,150.02410984039307,150.02418780326843,150.02824306488037,150.0390055179596,150.1868748664856,150.1868748664856,150.1868748664856,150.1868748664856,150.1868748664856,150.1868748664856,150.1868748664856,151.92752838134766,2,1.8807117938995361,None,,,,,,,,,,,,,,,,,,154,4,2025-02-28_09h55.10.790,comp,2024.2.4,54.160654632698844,2025-02-28 09h58.22.768219 -0500,
18,18,0,critical,whd,35.0,3.0,lower,57.0,133.0,133.0,57.0,70.0,70.0,2,4.044740915298462,None,,,,,0,0,0,0,0,18,18,86,151.94654536247253,,,,,,,,,,,,,,,,,,,,,,,,,,,,,,,,,,,,,,,,,,,,,,,,,,,,,,,,,,,,,,,,,,,,,,,,,,,,,,,,,57.0,133.0,133.0,57.0,70.0,70.0,3.0,3.2,-191,-251,0,-12,160,276,151.9290337562561,151.9291136264801,151.9320478439331,151.94654536247253,152.0887393951416,152.0887393951416,152.0887393951416,152.0887393951416,152.0887393951416,152.0887393951416,152.0887393951416,155.99327301979065,2,4.044740915298462,None,,,,,,,,,,,,,,,,,,154,4,2025-02-28_09h55.10.790,comp,2024.2.4,54.160654632698844,2025-02-28 09h58.22.768219 -0500,
19,19,0,filler_random,None,None,None,None,None,None,None,None,None,None,1,1.2055847644805908,None,,,,,0,0,0,0,0,19,19,153,156.00984025001526,,,,,,,,,,,,,,,,,,,,,,,,,,,,,,,,,,,,,,,,,,,,,,,,,,,,,,,,,,,,,,,,,,,,,,,,,,,,,,,,,139.96481832820308,152.22391513843522,151.82352712773763,80.35901044583888,78.99274758201304,93.76284665961589,3.0,3.2,-212,-253,0,-19,183,267,155.99537324905396,155.9954583644867,155.99901819229126,156.00984025001526,156.1620750427246,156.1620750427246,156.1620750427246,156.1620750427246,156.1620750427246,156.1620750427246,156.1620750427246,157.2260925769806,1,1.2055847644805908,None,,,,,,,,,,,,,,,,,,154,4,2025-02-28_09h55.10.790,comp,2024.2.4,54.160654632698844,2025-02-28 09h58.22.768219 -0500,
20,20,0,critical,dwh,20.0,4.0,upper,141.0,141.0,125.0,200.0,200.0,125.0,3,2.3132941722869873,None,,,,,0,0,0,0,0,20,20,71,157.2456817626953,,,,,,,,,,,,,,,,,,,,,,,,,,,,,,,,,,,,,,,,,,,,,,,,,,,,,,,,,,,,,,,,,,,,,,,,,,,,,,,,,141.0,141.0,125.0,200.0,200.0,125.0,4.0,4.1,-266,-282,0,-3,258,-263,157.22767639160156,157.22775650024414,157.2310791015625,157.2456817626953,157.39058303833008,157.39058303833008,157.39058303833008,157.39058303833008,157.39058303833008,157.39058303833008,157.39058303833008,159.5752673149109,3,2.3132941722869873,None,,,,,,,,,,,,,,,,,,154,4,2025-02-28_09h55.10.790,comp,2024.2.4,54.160654632698844,2025-02-28 09h58.22.768219 -0500,
21,21,0,critical,hdw,20.0,3.0,lower,133.0,57.0,78.0,78.0,57.0,133.0,1,2.6978745460510254,None,,,,,0,0,0,0,0,21,21,116,159.58970952033997,,,,,,,,,,,,,,,,,,,,,,,,,,,,,,,,,,,,,,,,,,,,,,,,,,,,,,,,,,,,,,,,,,,,,,,,,,,,,,,,,133.0,57.0,78.0,78.0,57.0,133.0,3.0,3.2,-164,-268,0,-5,202,261,159.57681822776794,159.57689571380615,159.58027267456055,159.58970952033997,159.74020838737488,159.74020838737488,159.74020838737488,159.74020838737488,159.74020838737488,159.74020838737488,159.74020838737488,162.29287791252136,1,2.6978745460510254,None,,,,,,,,,,,,,,,,,,154,4,2025-02-28_09h55.10.790,comp,2024.2.4,54.160654632698844,2025-02-28 09h58.22.768219 -0500,
22,22,0,filler_random,None,None,None,None,None,None,None,None,None,None,2,1.3692643642425537,None,,,,,0,0,0,0,0,22,22,152,162.30949354171753,,,,,,,,,,,,,,,,,,,,,,,,,,,,,,,,,,,,,,,,,,,,,,,,,,,,,,,,,,,,,,,,,,,,,,,,,,,,,,,,,101.64831544571936,85.36399211589075,178.37356245204205,156.75761845320272,188.71251634754316,76.68794299774842,2.1,2.12,-217,-264,0,-267,213,279,162.2948977947235,162.2949903011322,162.29857301712036,162.30949354171753,162.45471572875977,162.45471572875977,162.45471572875977,162.45471572875977,162.45471572875977,162.45471572875977,162.45471572875977,163.69091510772705,2,1.3692643642425537,None,,,,,,,,,,,,,,,,,,154,4,2025-02-28_09h55.10.790,comp,2024.2.4,54.160654632698844,2025-02-28 09h58.22.768219 -0500,
23,23,0,filler_random,None,None,None,None,None,None,None,None,None,None,3,6.394134283065796,None,,,,,0,0,0,0,0,23,23,146,163.7096552848816,,,,,,,,,,,,,,,,,,,,,,,,,,,,,,,,,,,,,,,,,,,,,,,,,,,,,,,,,,,,,,,,,,,,,,,,,,,,,,,,,167.0503257686638,125.22920653421303,126.56818918560505,127.09076063095758,187.9455179421377,112.7564200283776,3.0,3.1,-222,251,0,-19,216,-289,163.6922788619995,163.69237303733826,163.69473123550415,163.7096552848816,163.8562035560608,163.8562035560608,163.8562035560608,163.8562035560608,163.8562035560608,163.8562035560608,163.8562035560608,170.11123704910278,3,6.394134283065796,None,,,,,,,,,,,,,,,,,,154,4,2025-02-28_09h55.10.790,comp,2024.2.4,54.160654632698844,2025-02-28 09h58.22.768219 -0500,
24,24,0,critical,hwd,35.0,3.0,upper,200.0,125.0,125.0,200.0,127.0,127.0,1,6.226488828659058,None,,,,,0,0,0,0,0,24,24,99,170.12553071975708,,,,,,,,,,,,,,,,,,,,,,,,,,,,,,,,,,,,,,,,,,,,,,,,,,,,,,,,,,,,,,,,,,,,,,,,,,,,,,,,,200.0,125.0,125.0,200.0,127.0,127.0,3.0,3.2,-258,-251,0,-15,260,268,170.11284065246582,170.11292338371277,170.1162040233612,170.12553071975708,170.28402543067932,170.28402543067932,170.28402543067932,170.28402543067932,170.28402543067932,170.28402543067932,170.28402543067932,176.3596634864807,1,6.226488828659058,None,,,,,,,,,,,,,,,,,,154,4,2025-02-28_09h55.10.790,comp,2024.2.4,54.160654632698844,2025-02-28 09h58.22.768219 -0500,
25,25,0,filler_random,None,None,None,None,None,None,None,None,None,None,2,1.135169506072998,None,,,,,0,0,0,0,0,25,25,166,176.37577056884766,,,,,,,,,,,,,,,,,,,,,,,,,,,,,,,,,,,,,,,,,,,,,,,,,,,,,,,,,,,,,,,,,,,,,,,,,,,,,,,,,75.36217161773327,114.12239146161457,151.10151114289383,191.24287901801324,125.9348145117336,135.88307860374812,2.1,2.12,-249,-252,0,-280,260,282,176.36151218414307,176.3616509437561,176.3649823665619,176.37577056884766,176.5132191181183,176.5132191181183,176.5132191181183,176.5132191181183,176.5132191181183,176.5132191181183,176.5132191181183,177.51524686813354,2,1.135169506072998,None,,,,,,,,,,,,,,,,,,154,4,2025-02-28_09h55.10.790,comp,2024.2.4,54.160654632698844,2025-02-28 09h58.22.768219 -0500,
26,26,0,critical,dhw,20.0,2.1,upper,141.0,141.0,200.0,125.0,125.0,200.0,3,3.6219027042388916,None,,,,,0,0,0,0,0,26,26,27,177.52913427352905,,,,,,,,,,,,,,,,,,,,,,,,,,,,,,,,,,,,,,,,,,,,,,,,,,,,,,,,,,,,,,,,,,,,,,,,,,,,,,,,,141.0,141.0,200.0,125.0,125.0,200.0,2.1,2.12,-229,-272,0,-279,258,255,177.51585698127747,177.51588559150696,177.51707530021667,177.52913427352905,177.67997360229492,177.67997360229492,177.67997360229492,177.67997360229492,177.67997360229492,177.67997360229492,177.67997360229492,181.16653728485107,3,3.6219027042388916,None,,,,,,,,,,,,,,,,,,154,4,2025-02-28_09h55.10.790,comp,2024.2.4,54.160654632698844,2025-02-28 09h58.22.768219 -0500,
27,27,0,critical,dwh,35.0,2.1,lower,70.0,70.0,57.0,133.0,133.0,57.0,3,1.912714958190918,None,,,,,0,0,0,0,0,27,27,28,181.1823275089264,,,,,,,,,,,,,,,,,,,,,,,,,,,,,,,,,,,,,,,,,,,,,,,,,,,,,,,,,,,,,,,,,,,,,,,,,,,,,,,,,70.0,70.0,57.0,133.0,133.0,57.0,2.1,2.12,-198,-262,0,-289,191,268,181.168231010437,181.16838335990906,181.17196917533875,181.1823275089264,181.3316090106964,181.3316090106964,181.3316090106964,181.3316090106964,181.3316090106964,181.3316090106964,181.3316090106964,183.09988260269165,3,1.912714958190918,None,,,,,,,,,,,,,,,,,,154,4,2025-02-28_09h55.10.790,comp,2024.2.4,54.160654632698844,2025-02-28 09h58.22.768219 -0500,
28,28,0,critical,whd,20.0,3.0,lower,57.0,133.0,133.0,57.0,78.0,78.0,2,4.746656894683838,None,,,,,0,0,0,0,0,28,28,92,183.11638259887695,,,,,,,,,,,,,,,,,,,,,,,,,,,,,,,,,,,,,,,,,,,,,,,,,,,,,,,,,,,,,,,,,,,,,,,,,,,,,,,,,57.0,133.0,133.0,57.0,78.0,78.0,3.0,3.2,-191,-282,0,-13,164,283,183.10155034065247,183.10168719291687,183.1056616306305,183.11638259887695,183.26474499702454,183.26474499702454,183.26474499702454,183.26474499702454,183.26474499702454,183.26474499702454,183.26474499702454,187.87862873077393,2,4.746656894683838,None,,,,,,,,,,,,,,,,,,154,4,2025-02-28_09h55.10.790,comp,2024.2.4,54.160654632698844,2025-02-28 09h58.22.768219 -0500,
29,29,0,critical,hwd,35.0,4.0,upper,200.0,125.0,125.0,200.0,127.0,127.0,2,7.218399524688721,None,,,,,0,0,0,0,0,29,29,101,187.8936266899109,,,,,,,,,,,,,,,,,,,,,,,,,,,,,,,,,,,,,,,,,,,,,,,,,,,,,,,,,,,,,,,,,,,,,,,,,,,,,,,,,200.0,125.0,125.0,200.0,127.0,127.0,4.0,4.2,-258,-15,0,-288,260,10,187.88014769554138,187.88022661209106,187.88320016860962,187.8936266899109,188.03437113761902,188.03437113761902,188.03437113761902,188.03437113761902,188.03437113761902,188.03437113761902,188.03437113761902,195.11714100837708,2,7.218399524688721,None,,,,,,,,,,,,,,,,,,154,4,2025-02-28_09h55.10.790,comp,2024.2.4,54.160654632698844,2025-02-28 09h58.22.768219 -0500,
30,30,0,filler_square,None,None,None,None,None,None,None,None,None,None,2,1.3213701248168945,None,,,,,0,0,0,0,0,30,30,197,195.13366222381592,,,,,,,,,,,,,,,,,,,,,,,,,,,,,,,,,,,,,,,,,,,,,,,,,,,,,,,,,,,,,,,,,,,,,,,,,,,,,,,,,74.82412731673429,66.92461269782382,89.62870254976954,89.62870254976954,66.04471143108684,89.13462119126639,4.0,4.2,-174,-6,0,-283,185,-15,195.1192078590393,195.1192889213562,195.1226897239685,195.13366222381592,195.2724208831787,195.2724208831787,195.2724208831787,195.2724208831787,195.2724208831787,195.2724208831787,195.2724208831787,196.47001576423645,2,1.3213701248168945,None,,,,,,,,,,,,,,,,,,154,4,2025-02-28_09h55.10.790,comp,2024.2.4,54.160654632698844,2025-02-28 09h58.22.768219 -0500,
31,31,0,critical,dhw,35.0,3.0,lower,70.0,70.0,133.0,57.0,57.0,133.0,2,1.969062089920044,None,,,,,0,0,0,0,0,31,31,50,196.4861090183258,,,,,,,,,,,,,,,,,,,,,,,,,,,,,,,,,,,,,,,,,,,,,,,,,,,,,,,,,,,,,,,,,,,,,,,,,,,,,,,,,70.0,70.0,133.0,57.0,57.0,133.0,3.0,3.1,-160,261,0,-5,191,-278,196.4715666770935,196.47164702415466,196.47490119934082,196.4861090183258,196.63966059684753,196.63966059684753,196.63966059684753,196.63966059684753,196.63966059684753,196.63966059684753,196.63966059684753,198.47184777259827,2,1.969062089920044,None,,,,,,,,,,,,,,,,,,154,4,2025-02-28_09h55.10.790,comp,2024.2.4,54.160654632698844,2025-02-28 09h58.22.768219 -0500,
32,32,0,critical,wdh,20.0,3.0,upper,125.0,200.0,141.0,141.0,200.0,125.0,3,2.9722790718078613,None,,,,,0,0,0,0,0,32,32,81,198.49253940582275,,,,,,,,,,,,,,,,,,,,,,,,,,,,,,,,,,,,,,,,,,,,,,,,,,,,,,,,,,,,,,,,,,,,,,,,,,,,,,,,,125.0,200.0,141.0,141.0,200.0,125.0,3.0,3.1,-266,260,0,17,229,-271,198.47352981567383,198.47367000579834,198.47715067863464,198.49253940582275,198.63629531860352,198.63629531860352,198.63629531860352,198.63629531860352,198.63629531860352,198.63629531860352,198.63629531860352,201.4676604270935,3,2.9722790718078613,None,,,,,,,,,,,,,,,,,,154,4,2025-02-28_09h55.10.790,comp,2024.2.4,54.160654632698844,2025-02-28 09h58.22.768219 -0500,
33,33,0,critical,hwd,20.0,4.0,upper,200.0,125.0,125.0,200.0,141.0,141.0,1,1.5945749282836914,None,,,,,0,0,0,0,0,33,33,107,201.48540902137756,,,,,,,,,,,,,,,,,,,,,,,,,,,,,,,,,,,,,,,,,,,,,,,,,,,,,,,,,,,,,,,,,,,,,,,,,,,,,,,,,200.0,125.0,125.0,200.0,141.0,141.0,4.0,4.1,-258,-256,0,2,266,-270,201.46914529800415,201.46922326087952,201.47214317321777,201.48540902137756,201.6220519542694,201.6220519542694,201.6220519542694,201.6220519542694,201.6220519542694,201.6220519542694,201.6220519542694,203.0850338935852,1,1.5945749282836914,None,,,,,,,,,,,,,,,,,,154,4,2025-02-28_09h55.10.790,comp,2024.2.4,54.160654632698844,2025-02-28 09h58.22.768219 -0500,
34,34,0,critical,wdh,20.0,2.1,lower,57.0,133.0,78.0,78.0,133.0,57.0,1,4.562271356582642,None,,,,,0,0,0,0,0,34,34,10,203.10144329071045,,,,,,,,,,,,,,,,,,,,,,,,,,,,,,,,,,,,,,,,,,,,,,,,,,,,,,,,,,,,,,,,,,,,,,,,,,,,,,,,,57.0,133.0,78.0,78.0,133.0,57.0,2.1,2.11,-202,286,0,254,164,-271,203.08668422698975,203.08678770065308,203.09020328521729,203.10144329071045,203.24254488945007,203.24254488945007,203.24254488945007,203.24254488945007,203.24254488945007,203.24254488945007,203.24254488945007,207.6737356185913,1,4.562271356582642,None,,,,,,,,,,,,,,,,,,154,4,2025-02-28_09h55.10.790,comp,2024.2.4,54.160654632698844,2025-02-28 09h58.22.768219 -0500,
35,35,0,critical,wdh,20.0,4.0,lower,57.0,133.0,78.0,78.0,133.0,57.0,3,1.741260290145874,None,,,,,0,0,0,0,0,35,35,82,207.69031953811646,,,,,,,,,,,,,,,,,,,,,,,,,,,,,,,,,,,,,,,,,,,,,,,,,,,,,,,,,,,,,,,,,,,,,,,,,,,,,,,,,57.0,133.0,78.0,78.0,133.0,57.0,4.0,4.1,-202,-284,0,-18,164,-279,207.67538189888,207.6754629611969,207.6795699596405,207.69031953811646,207.83806610107422,207.83806610107422,207.83806610107422,207.83806610107422,207.83806610107422,207.83806610107422,207.83806610107422,209.44036149978638,3,1.741260290145874,None,,,,,,,,,,,,,,,,,,154,4,2025-02-28_09h55.10.790,comp,2024.2.4,54.160654632698844,2025-02-28 09h58.22.768219 -0500,
36,36,0,catch,None,None,None,None,None,None,None,None,None,None,2,1.2808387279510498,None,,,,,0,0,0,0,0,36,36,124,209.4547872543335,,,,,,,,,,,,,,,,,,,,,,,,,,,,,,,,,,,,,,,,,,,,,,,,,,,,,,,,,,,,,,,,,,,,,,,,,,,,,,,,,132,58,129,196,118,72,2.2,2.22,-223,260,0,-251,230,-290,209.44104170799255,209.44106769561768,209.44204950332642,209.4547872543335,209.6101222038269,209.6101222038269,209.6101222038269,209.6101222038269,209.6101222038269,209.6101222038269,209.6101222038269,210.74151992797852,2,1.2808387279510498,None,,,,,,,,,,,,,,,,,,154,4,2025-02-28_09h55.10.790,comp,2024.2.4,54.160654632698844,2025-02-28 09h58.22.768219 -0500,
37,37,0,critical,dhw,20.0,3.0,lower,78.0,78.0,133.0,57.0,57.0,133.0,2,2.816448211669922,None,,,,,0,0,0,0,0,37,37,56,210.75869131088257,,,,,,,,,,,,,,,,,,,,,,,,,,,,,,,,,,,,,,,,,,,,,,,,,,,,,,,,,,,,,,,,,,,,,,,,,,,,,,,,,78.0,78.0,133.0,57.0,57.0,133.0,3.0,3.2,-164,-277,0,-9,191,281,210.7430784702301,210.74315571784973,210.74721312522888,210.75869131088257,210.90328407287598,210.90328407287598,210.90328407287598,210.90328407287598,210.90328407287598,210.90328407287598,210.90328407287598,213.5786747932434,2,2.816448211669922,None,,,,,,,,,,,,,,,,,,154,4,2025-02-28_09h55.10.790,comp,2024.2.4,54.160654632698844,2025-02-28 09h58.22.768219 -0500,
38,38,0,filler_random,None,None,None,None,None,None,None,None,None,None,3,1.4760801792144775,None,,,,,0,0,0,0,0,38,38,167,213.59514331817627,,,,,,,,,,,,,,,,,,,,,,,,,,,,,,,,,,,,,,,,,,,,,,,,,,,,,,,,,,,,,,,,,,,,,,,,,,,,,,,,,111.24383199850882,86.29885956905622,149.2732221237831,85.92385345317858,153.07094790633067,153.25606381740545,2.1,2.11,-182,281,0,258,216,-250,213.58029341697693,213.58037400245667,213.58243656158447,213.59514331817627,213.74183797836304,213.74183797836304,213.74183797836304,213.74183797836304,213.74183797836304,213.74183797836304,213.74183797836304,215.0754005908966,3,1.4760801792144775,None,,,,,,,,,,,,,,,,,,154,4,2025-02-28_09h55.10.790,comp,2024.2.4,54.160654632698844,2025-02-28 09h58.22.768219 -0500,
39,39,0,filler_square,None,None,None,None,None,None,None,None,None,None,2,1.5218307971954346,None,,,,,0,0,0,0,0,39,39,175,215.0934603214264,,,,,,,,,,,,,,,,,,,,,,,,,,,,,,,,,,,,,,,,,,,,,,,,,,,,,,,,,,,,,,,,,,,,,,,,,,,,,,,,,103.2747956320074,100.24060939530342,115.07331494202266,115.07331494202266,94.03950818385437,100.95568820331943,4.0,4.1,-204,-280,0,11,204,-275,215.07714772224426,215.07722854614258,215.08041334152222,215.0934603214264,215.24238085746765,215.24238085746765,215.24238085746765,215.24238085746765,215.24238085746765,215.24238085746765,215.24238085746765,216.6246395111084,2,1.5218307971954346,None,,,,,,,,,,,,,,,,,,154,4,2025-02-28_09h55.10.790,comp,2024.2.4,54.160654632698844,2025-02-28 09h58.22.768219 -0500,
40,40,0,filler_square,None,None,None,None,None,None,None,None,None,None,3,2.1115126609802246,None,,,,,0,0,0,0,0,40,40,198,216.64033579826355,,,,,,,,,,,,,,,,,,,,,,,,,,,,,,,,,,,,,,,,,,,,,,,,,,,,,,,,,,,,,,,,,,,,,,,,,,,,,,,,,120.84046375710079,168.59972224094972,158.718683120492,88.39215226349474,172.20378626075578,172.20378626075578,2.1,2.12,-224,-289,0,-257,226,287,216.62643361091614,216.6265115737915,216.6296489238739,216.64033579826355,216.78167629241943,216.78167629241943,216.78167629241943,216.78167629241943,216.78167629241943,216.78167629241943,216.78167629241943,218.75992703437805,3,2.1115126609802246,None,,,,,,,,,,,,,,,,,,154,4,2025-02-28_09h55.10.790,comp,2024.2.4,54.160654632698844,2025-02-28 09h58.22.768219 -0500,
41,41,0,critical,dhw,20.0,2.1,lower,78.0,78.0,133.0,57.0,57.0,133.0,2,2.0952560901641846,None,,,,,0,0,0,0,0,41,41,26,218.7764983177185,,,,,,,,,,,,,,,,,,,,,,,,,,,,,,,,,,,,,,,,,,,,,,,,,,,,,,,,,,,,,,,,,,,,,,,,,,,,,,,,,78.0,78.0,133.0,57.0,57.0,133.0,2.1,2.11,-164,277,0,257,191,-286,218.76145553588867,218.7615556716919,218.7656774520874,218.7764983177185,218.93233561515808,218.93233561515808,218.93233561515808,218.93233561515808,218.93233561515808,218.93233561515808,218.93233561515808,220.87680840492249,2,2.0952560901641846,None,,,,,,,,,,,,,,,,,,154,4,2025-02-28_09h55.10.790,comp,2024.2.4,54.160654632698844,2025-02-28 09h58.22.768219 -0500,
42,42,0,filler_random,None,None,None,None,None,None,None,None,None,None,3,4.0182623863220215,None,,,,,0,0,0,0,0,42,42,157,220.89276456832886,,,,,,,,,,,,,,,,,,,,,,,,,,,,,,,,,,,,,,,,,,,,,,,,,,,,,,,,,,,,,,,,,,,,,,,,,,,,,,,,,127.01224423019384,183.13284728912612,176.60995874124853,85.9017565923445,139.32169865698864,189.6054497889546,3.0,3.2,-231,-263,0,9,234,288,220.87853837013245,220.87862014770508,220.88204312324524,220.89276456832886,221.049471616745,221.049471616745,221.049471616745,221.049471616745,221.049471616745,221.049471616745,221.049471616745,224.92777156829834,3,4.0182623863220215,None,,,,,,,,,,,,,,,,,,154,4,2025-02-28_09h55.10.790,comp,2024.2.4,54.160654632698844,2025-02-28 09h58.22.768219 -0500,
43,43,0,filler_square,None,None,None,None,None,None,None,None,None,None,3,1.2394747734069824,None,,,,,0,0,0,0,0,43,43,190,224.9438705444336,,,,,,,,,,,,,,,,,,,,,,,,,,,,,,,,,,,,,,,,,,,,,,,,,,,,,,,,,,,,,,,,,,,,,,,,,,,,,,,,,92.57920310731058,76.16753236825816,85.79311830730103,124.37680291438211,137.01563348222896,137.01563348222896,4.0,4.2,-196,-4,0,-275,227,-13,224.9295642375946,224.92964482307434,224.93291640281677,224.9438705444336,225.10097408294678,225.10097408294678,225.10097408294678,225.10097408294678,225.10097408294678,225.10097408294678,225.10097408294678,226.18801832199097,3,1.2394747734069824,None,,,,,,,,,,,,,,,,,,154,4,2025-02-28_09h55.10.790,comp,2024.2.4,54.160654632698844,2025-02-28 09h58.22.768219 -0500,
44,44,0,filler_random,None,None,None,None,None,None,None,None,None,None,3,1.0787391662597656,None,,,,,0,0,0,0,0,44,44,165,226.2090356349945,,,,,,,,,,,,,,,,,,,,,,,,,,,,,,,,,,,,,,,,,,,,,,,,,,,,,,,,,,,,,,,,,,,,,,,,,,,,,,,,,85.1945043558541,181.60943756174004,150.96496658051836,113.85882977114753,185.38492973815423,167.48733029844095,4.0,4.2,-244,-10,0,-289,237,-17,226.18975949287415,226.18989777565002,226.1932668685913,226.2090356349945,226.3475377559662,226.3475377559662,226.3475377559662,226.3475377559662,226.3475377559662,226.3475377559662,226.3475377559662,227.29676628112793,3,1.0787391662597656,None,,,,,,,,,,,,,,,,,,154,4,2025-02-28_09h55.10.790,comp,2024.2.4,54.160654632698844,2025-02-28 09h58.22.768219 -0500,
45,45,0,filler_square,None,None,None,None,None,None,None,None,None,None,2,1.2217261791229248,None,,,,,0,0,0,0,0,45,45,191,227.31338810920715,,,,,,,,,,,,,,,,,,,,,,,,,,,,,,,,,,,,,,,,,,,,,,,,,,,,,,,,,,,,,,,,,,,,,,,,,,,,,,,,,112.93007769661696,63.04554634992799,115.99836196420836,115.99836196420836,60.43451191049727,98.05460655227135,3.0,3.1,-186,274,0,-7,203,-265,227.29887461662292,227.29900240898132,227.30276083946228,227.31338810920715,227.46491527557373,227.46491527557373,227.46491527557373,227.46491527557373,227.46491527557373,227.46491527557373,227.46491527557373,228.5455756187439,2,1.2217261791229248,None,,,,,,,,,,,,,,,,,,154,4,2025-02-28_09h55.10.790,comp,2024.2.4,54.160654632698844,2025-02-28 09h58.22.768219 -0500,
46,46,0,catch,None,None,None,None,None,None,None,None,None,None,1,1.2358148097991943,None,,,,,0,0,0,0,0,46,46,129,228.5637412071228,,,,,,,,,,,,,,,,,,,,,,,,,,,,,,,,,,,,,,,,,,,,,,,,,,,,,,,,,,,,,,,,,,,,,,,,,,,,,,,,,129,196,80,110,69,121,4.0,4.1,-249,-261,0,2,212,-266,228.54744958877563,228.54753351211548,228.55070972442627,228.5637412071228,228.7118010520935,228.7118010520935,228.7118010520935,228.7118010520935,228.7118010520935,228.7118010520935,228.7118010520935,229.80222272872925,1,1.2358148097991943,None,,,,,,,,,,,,,,,,,,154,4,2025-02-28_09h55.10.790,comp,2024.2.4,54.160654632698844,2025-02-28 09h58.22.768219 -0500,
47,47,0,critical,hwd,20.0,2.1,lower,133.0,57.0,57.0,133.0,78.0,78.0,1,2.4285175800323486,None,,,,,0,0,0,0,0,47,47,18,229.81850624084473,,,,,,,,,,,,,,,,,,,,,,,,,,,,,,,,,,,,,,,,,,,,,,,,,,,,,,,,,,,,,,,,,,,,,,,,,,,,,,,,,133.0,57.0,57.0,133.0,78.0,78.0,2.1,2.12,-191,-273,0,-263,202,282,229.8038444519043,229.80392503738403,229.80691146850586,229.81850624084473,229.9719557762146,229.9719557762146,229.9719557762146,229.9719557762146,229.9719557762146,229.9719557762146,229.9719557762146,232.262375831604,1,2.4285175800323486,None,,,,,,,,,,,,,,,,,,154,4,2025-02-28_09h55.10.790,comp,2024.2.4,54.160654632698844,2025-02-28 09h58.22.768219 -0500,
48,48,0,critical,hwd,35.0,2.1,lower,133.0,57.0,57.0,133.0,70.0,70.0,1,1.856917142868042,None,,,,,0,0,0,0,0,48,48,16,232.278959274292,,,,,,,,,,,,,,,,,,,,,,,,,,,,,,,,,,,,,,,,,,,,,,,,,,,,,,,,,,,,,,,,,,,,,,,,,,,,,,,,,133.0,57.0,57.0,133.0,70.0,70.0,2.1,2.12,-191,-287,0,-287,198,287,232.2639684677124,232.26404333114624,232.26769399642944,232.278959274292,232.42965841293335,232.42965841293335,232.42965841293335,232.42965841293335,232.42965841293335,232.42965841293335,232.42965841293335,234.13911771774292,1,1.856917142868042,None,,,,,,,,,,,,,,,,,,154,4,2025-02-28_09h55.10.790,comp,2024.2.4,54.160654632698844,2025-02-28 09h58.22.768219 -0500,
49,49,0,critical,dhw,35.0,2.1,lower,70.0,70.0,133.0,57.0,57.0,133.0,3,3.7226805686950684,None,,,,,0,0,0,0,0,49,49,24,234.15673756599426,,,,,,,,,,,,,,,,,,,,,,,,,,,,,,,,,,,,,,,,,,,,,,,,,,,,,,,,,,,,,,,,,,,,,,,,,,,,,,,,,70.0,70.0,133.0,57.0,57.0,133.0,2.1,2.11,-160,276,0,256,191,-283,234.14065408706665,234.14073133468628,234.1436471939087,234.15673756599426,234.29844856262207,234.29844856262207,234.29844856262207,234.29844856262207,234.29844856262207,234.29844856262207,234.29844856262207,237.89942932128906,3,3.7226805686950684,None,,,,,,,,,,,,,,,,,,154,4,2025-02-28_09h55.10.790,comp,2024.2.4,54.160654632698844,2025-02-28 09h58.22.768219 -0500,
50,50,0,filler_random,None,None,None,None,None,None,None,None,None,None,1,2.628197431564331,None,,,,,0,0,0,0,0,50,50,158,237.91485214233398,,,,,,,,,,,,,,,,,,,,,,,,,,,,,,,,,,,,,,,,,,,,,,,,,,,,,,,,,,,,,,,,,,,,,,,,,,,,,,,,,187.1748151676653,172.28040730738164,87.45614377354008,109.33541531208009,66.19889437067984,176.5655321593794,1.0,1.2,-237,-18,0,17,239,20,237.90107893943787,237.9011549949646,237.90462827682495,237.91485214233398,238.06870675086975,238.06870675086975,238.06870675086975,238.06870675086975,238.06870675086975,238.06870675086975,238.06870675086975,240.55489945411682,1,2.628197431564331,None,,,,,,,,,,,,,,,,,,154,4,2025-02-28_09h55.10.790,comp,2024.2.4,54.160654632698844,2025-02-28 09h58.22.768219 -0500,
51,51,0,critical,whd,20.0,2.1,lower,57.0,133.0,133.0,57.0,78.0,78.0,2,2.5206613540649414,None,,,,,0,0,0,0,0,51,51,14,240.57519149780273,,,,,,,,,,,,,,,,,,,,,,,,,,,,,,,,,,,,,,,,,,,,,,,,,,,,,,,,,,,,,,,,,,,,,,,,,,,,,,,,,57.0,133.0,133.0,57.0,78.0,78.0,2.1,2.12,-191,-282,0,-261,164,257,240.55644845962524,240.55652976036072,240.55951642990112,240.57519149780273,240.71676898002625,240.71676898002625,240.71676898002625,240.71676898002625,240.71676898002625,240.71676898002625,240.71676898002625,243.1039683818817,2,2.5206613540649414,None,,,,,,,,,,,,,,,,,,154,4,2025-02-28_09h55.10.790,comp,2024.2.4,54.160654632698844,2025-02-28 09h58.22.768219 -0500,
52,52,0,critical,hwd,35.0,2.1,upper,200.0,125.0,125.0,200.0,127.0,127.0,1,2.760099411010742,None,,,,,0,0,0,0,0,52,52,17,243.11965131759644,,,,,,,,,,,,,,,,,,,,,,,,,,,,,,,,,,,,,,,,,,,,,,,,,,,,,,,,,,,,,,,,,,,,,,,,,,,,,,,,,200.0,125.0,125.0,200.0,127.0,127.0,2.1,2.12,-258,-276,0,-264,260,272,243.10572338104248,243.10580778121948,243.10891318321228,243.11965131759644,243.27064967155457,243.27064967155457,243.27064967155457,243.27064967155457,243.27064967155457,243.27064967155457,243.27064967155457,245.88514518737793,1,2.760099411010742,None,,,,,,,,,,,,,,,,,,154,4,2025-02-28_09h55.10.790,comp,2024.2.4,54.160654632698844,2025-02-28 09h58.22.768219 -0500,
53,53,0,critical,wdh,20.0,4.0,upper,125.0,200.0,141.0,141.0,200.0,125.0,2,9.562141180038452,None,,,,,0,0,0,0,0,53,53,83,245.90186643600464,,,,,,,,,,,,,,,,,,,,,,,,,,,,,,,,,,,,,,,,,,,,,,,,,,,,,,,,,,,,,,,,,,,,,,,,,,,,,,,,,125.0,200.0,141.0,141.0,200.0,125.0,4.0,4.1,-266,-284,0,17,229,-289,245.8868772983551,245.8869767189026,245.89114999771118,245.90186643600464,246.0529625415802,246.0529625415802,246.0529625415802,246.0529625415802,246.0529625415802,246.0529625415802,246.0529625415802,255.47242736816406,2,9.562141180038452,None,,,,,,,,,,,,,,,,,,154,4,2025-02-28_09h55.10.790,comp,2024.2.4,54.160654632698844,2025-02-28 09h58.22.768219 -0500,
54,54,0,filler_random,None,None,None,None,None,None,None,None,None,None,2,1.1894657611846924,None,,,,,0,0,0,0,0,54,54,159,255.4895899295807,,,,,,,,,,,,,,,,,,,,,,,,,,,,,,,,,,,,,,,,,,,,,,,,,,,,,,,,,,,,,,,,,,,,,,,,,,,,,,,,,126.00000122514993,64.4809396195415,68.03254844759,71.06180416859756,65.06331444960776,178.63557896503272,2.1,2.12,-164,-253,0,-280,221,289,255.47463393211365,255.47471594810486,255.47863292694092,255.4895899295807,255.6394453048706,255.6394453048706,255.6394453048706,255.6394453048706,255.6394453048706,255.6394453048706,255.6394453048706,256.6890652179718,2,1.1894657611846924,None,,,,,,,,,,,,,,,,,,154,4,2025-02-28_09h55.10.790,comp,2024.2.4,54.160654632698844,2025-02-28 09h58.22.768219 -0500,
55,55,0,critical,wdh,20.0,1.0,lower,57.0,133.0,78.0,78.0,133.0,57.0,3,4.949122428894043,None,,,,,0,0,0,0,0,55,55,78,256.70598435401917,,,,,,,,,,,,,,,,,,,,,,,,,,,,,,,,,,,,,,,,,,,,,,,,,,,,,,,,,,,,,,,,,,,,,,,,,,,,,,,,,57.0,133.0,78.0,78.0,133.0,57.0,1.0,1.3,278,-255,480,-260,644,-267,256.6907274723053,256.69080901145935,256.6945412158966,256.70598435401917,256.8553524017334,256.8553524017334,256.8553524017334,256.8553524017334,256.8553524017334,256.8553524017334,256.8553524017334,261.6582942008972,3,4.949122428894043,None,,,,,,,,,,,,,,,,,,154,4,2025-02-28_09h55.10.790,comp,2024.2.4,54.160654632698844,2025-02-28 09h58.22.768219 -0500,
56,56,0,critical,dwh,35.0,4.0,upper,127.0,127.0,125.0,200.0,200.0,125.0,3,1.7571496963500977,None,,,,,0,0,0,0,0,56,56,65,261.67395853996277,,,,,,,,,,,,,,,,,,,,,,,,,,,,,,,,,,,,,,,,,,,,,,,,,,,,,,,,,,,,,,,,,,,,,,,,,,,,,,,,,127.0,127.0,125.0,200.0,200.0,125.0,4.0,4.1,-260,-254,0,15,258,-255,261.6598746776581,261.65995717048645,261.66320633888245,261.67395853996277,261.8226206302643,261.8226206302643,261.8226206302643,261.8226206302643,261.8226206302643,261.8226206302643,261.8226206302643,263.4401683807373,3,1.7571496963500977,None,,,,,,,,,,,,,,,,,,154,4,2025-02-28_09h55.10.790,comp,2024.2.4,54.160654632698844,2025-02-28 09h58.22.768219 -0500,
57,57,0,critical,dwh,35.0,2.1,upper,127.0,127.0,125.0,200.0,200.0,125.0,3,1.5666885375976562,None,,,,,0,0,0,0,0,57,57,5,263.45644307136536,,,,,,,,,,,,,,,,,,,,,,,,,,,,,,,,,,,,,,,,,,,,,,,,,,,,,,,,,,,,,,,,,,,,,,,,,,,,,,,,,127.0,127.0,125.0,200.0,200.0,125.0,2.1,2.11,-260,254,0,253,258,-263,263.44177293777466,263.44185400009155,263.4453489780426,263.45644307136536,263.61055970191956,263.61055970191956,263.61055970191956,263.61055970191956,263.61055970191956,263.61055970191956,263.61055970191956,265.0433657169342,3,1.5666885375976562,None,,,,,,,,,,,,,,,,,,154,4,2025-02-28_09h55.10.790,comp,2024.2.4,54.160654632698844,2025-02-28 09h58.22.768219 -0500,
58,58,0,critical,dwh,35.0,4.0,lower,70.0,70.0,57.0,133.0,133.0,57.0,3,1.2218525409698486,None,,,,,0,0,0,0,0,58,58,64,265.05900025367737,,,,,,,,,,,,,,,,,,,,,,,,,,,,,,,,,,,,,,,,,,,,,,,,,,,,,,,,,,,,,,,,,,,,,,,,,,,,,,,,,70.0,70.0,57.0,133.0,133.0,57.0,4.0,4.1,-198,-283,0,2,191,-252,265.0449392795563,265.04501509666443,265.0484185218811,265.05900025367737,265.2101607322693,265.2101607322693,265.2101607322693,265.2101607322693,265.2101607322693,265.2101607322693,265.2101607322693,266.2913544178009,3,1.2218525409698486,None,,,,,,,,,,,,,,,,,,154,4,2025-02-28_09h55.10.790,comp,2024.2.4,54.160654632698844,2025-02-28 09h58.22.768219 -0500,
59,59,0,filler_random,None,None,None,None,None,None,None,None,None,None,2,1.420501708984375,None,,,,,0,0,0,0,0,59,59,155,266.3071479797363,,,,,,,,,,,,,,,,,,,,,,,,,,,,,,,,,,,,,,,,,,,,,,,,,,,,,,,,,,,,,,,,,,,,,,,,,,,,,,,,,123.83425733319127,161.399244212148,198.22620726282798,132.89679690730702,72.35266725368753,168.49071608847564,1.0,1.3,237,-268,480,-271,727,-254,266.2930450439453,266.2931270599365,266.296587228775,266.3071479797363,266.45664525032043,266.45664525032043,266.45664525032043,266.45664525032043,266.45664525032043,266.45664525032043,266.45664525032043,267.7371530532837,2,1.420501708984375,None,,,,,,,,,,,,,,,,,,154,4,2025-02-28_09h55.10.790,comp,2024.2.4,54.160654632698844,2025-02-28 09h58.22.768219 -0500,
60,60,0,filler_square,None,None,None,None,None,None,None,None,None,None,2,1.1695740222930908,None,,,,,0,0,0,0,0,60,60,192,267.75789189338684,,,,,,,,,,,,,,,,,,,,,,,,,,,,,,,,,,,,,,,,,,,,,,,,,,,,,,,,,,,,,,,,,,,,,,,,,,,,,,,,,114.36737593422649,164.47515349616998,178.88115241540567,178.88115241540567,138.90568562059065,144.38368596777786,2.2,2.21,-268,-255,0,263,258,276,267.7391619682312,267.7392454147339,267.7421853542328,267.75789189338684,267.9094009399414,267.9094009399414,267.9094009399414,267.9094009399414,267.9094009399414,267.9094009399414,267.9094009399414,268.9417471885681,2,1.1695740222930908,None,,,,,,,,,,,,,,,,,,154,4,2025-02-28_09h55.10.790,comp,2024.2.4,54.160654632698844,2025-02-28 09h58.22.768219 -0500,
61,61,0,critical,hdw,20.0,1.0,lower,133.0,57.0,78.0,78.0,57.0,133.0,1,3.9626975059509277,None,,,,,0,0,0,0,0,61,61,114,268.95702862739563,,,,,,,,,,,,,,,,,,,,,,,,,,,,,,,,,,,,,,,,,,,,,,,,,,,,,,,,,,,,,,,,,,,,,,,,,,,,,,,,,133.0,57.0,78.0,78.0,57.0,133.0,1.0,1.3,316,-252,480,-252,682,-270,268.9433424472809,268.9434714317322,268.9467854499817,268.95702862739563,269.1069338321686,269.1069338321686,269.1069338321686,269.1069338321686,269.1069338321686,269.1069338321686,269.1069338321686,272.92744541168213,1,3.9626975059509277,None,,,,,,,,,,,,,,,,,,154,4,2025-02-28_09h55.10.790,comp,2024.2.4,54.160654632698844,2025-02-28 09h58.22.768219 -0500,
62,62,0,critical,hwd,20.0,3.0,upper,200.0,125.0,125.0,200.0,141.0,141.0,1,8.719736814498901,None,,,,,0,0,0,0,0,62,62,105,272.943332195282,,,,,,,,,,,,,,,,,,,,,,,,,,,,,,,,,,,,,,,,,,,,,,,,,,,,,,,,,,,,,,,,,,,,,,,,,,,,,,,,,200.0,125.0,125.0,200.0,141.0,141.0,3.0,3.1,-258,273,0,11,266,-286,272.92902302742004,272.929105758667,272.932639837265,272.943332195282,273.0931725502014,273.0931725502014,273.0931725502014,273.0931725502014,273.0931725502014,273.0931725502014,273.0931725502014,281.67908668518066,1,8.719736814498901,None,,,,,,,,,,,,,,,,,,154,4,2025-02-28_09h55.10.790,comp,2024.2.4,54.160654632698844,2025-02-28 09h58.22.768219 -0500,
63,63,0,filler_square,None,None,None,None,None,None,None,None,None,None,3,1.3695895671844482,None,,,,,0,0,0,0,0,63,63,203,281.6934883594513,,,,,,,,,,,,,,,,,,,,,,,,,,,,,,,,,,,,,,,,,,,,,,,,,,,,,,,,,,,,,,,,,,,,,,,,,,,,,,,,,89.469919468637,57.81711219003011,80.75031489055641,64.08054469978296,94.2909023439234,94.2909023439234,2.1,2.12,-157,-255,0,-283,175,260,281.68113231658936,281.68121552467346,281.684508562088,281.6934883594513,281.84527254104614,281.84527254104614,281.84527254104614,281.84527254104614,281.84527254104614,281.84527254104614,281.84527254104614,283.0796597003937,3,1.3695895671844482,None,,,,,,,,,,,,,,,,,,154,4,2025-02-28_09h55.10.790,comp,2024.2.4,54.160654632698844,2025-02-28 09h58.22.768219 -0500,
64,64,0,filler_random,None,None,None,None,None,None,None,None,None,None,1,1.4079389572143555,None,,,,,0,0,0,0,0,64,64,163,283.09507870674133,,,,,,,,,,,,,,,,,,,,,,,,,,,,,,,,,,,,,,,,,,,,,,,,,,,,,,,,,,,,,,,,,,,,,,,,,,,,,,,,,139.71798706978927,173.6348746198093,115.39316005034368,87.44364728622,96.65349967417077,117.95155845932723,1.0,1.2,-227,-12,0,-5,199,-16,283.0813858509064,283.0814642906189,283.0848650932312,283.09507870674133,283.24878549575806,283.24878549575806,283.24878549575806,283.24878549575806,283.24878549575806,283.24878549575806,283.24878549575806,284.516560792923,1,1.4079389572143555,None,,,,,,,,,,,,,,,,,,154,4,2025-02-28_09h55.10.790,comp,2024.2.4,54.160654632698844,2025-02-28 09h58.22.768219 -0500,
65,65,0,filler_square,None,None,None,None,None,None,None,None,None,None,3,1.2618472576141357,None,,,,,0,0,0,0,0,65,65,186,284.53752517700195,,,,,,,,,,,,,,,,,,,,,,,,,,,,,,,,,,,,,,,,,,,,,,,,,,,,,,,,,,,,,,,,,,,,,,,,,,,,,,,,,80.44862535125904,78.84534218293531,76.33702545713737,58.49361275872988,109.6185367710153,109.6185367710153,4.0,4.2,-165,12,0,-259,180,20,284.51853227615356,284.5186176300049,284.52182054519653,284.53752517700195,284.6808063983917,284.6808063983917,284.6808063983917,284.6808063983917,284.6808063983917,284.6808063983917,284.6808063983917,285.80164790153503,3,1.2618472576141357,None,,,,,,,,,,,,,,,,,,154,4,2025-02-28_09h55.10.790,comp,2024.2.4,54.160654632698844,2025-02-28 09h58.22.768219 -0500,
66,66,0,critical,wdh,35.0,2.1,upper,125.0,200.0,127.0,127.0,200.0,125.0,1,2.68891978263855,None,,,,,0,0,0,0,0,66,66,33,285.82260608673096,,,,,,,,,,,,,,,,,,,,,,,,,,,,,,,,,,,,,,,,,,,,,,,,,,,,,,,,,,,,,,,,,,,,,,,,,,,,,,,,,125.0,200.0,127.0,127.0,200.0,125.0,2.1,2.12,-260,-255,0,-289,222,265,285.8034806251526,285.8036165237427,285.80698108673096,285.82260608673096,285.9657680988312,285.9657680988312,285.9657680988312,285.9657680988312,285.9657680988312,285.9657680988312,285.9657680988312,288.51759696006775,1,2.68891978263855,None,,,,,,,,,,,,,,,,,,154,4,2025-02-28_09h55.10.790,comp,2024.2.4,54.160654632698844,2025-02-28 09h58.22.768219 -0500,
67,67,0,catch,None,None,None,None,None,None,None,None,None,None,2,0.890162467956543,None,,,,,0,0,0,0,0,67,67,128,288.53342461586,,,,,,,,,,,,,,,,,,,,,,,,,,,,,,,,,,,,,,,,,,,,,,,,,,,,,,,,,,,,,,,,,,,,,,,,,,,,,,,,,113,77,170,155,70,120,2.2,2.21,-212,-282,0,259,234,285,288.5196135044098,288.51969838142395,288.5227560997009,288.53342461586,288.682519197464,288.682519197464,288.682519197464,288.682519197464,288.682519197464,288.682519197464,288.682519197464,289.4316508769989,2,0.890162467956543,None,,,,,,,,,,,,,,,,,,154,4,2025-02-28_09h55.10.790,comp,2024.2.4,54.160654632698844,2025-02-28 09h58.22.768219 -0500,
68,68,0,filler_random,None,None,None,None,None,None,None,None,None,None,1,2.471776247024536,None,,,,,0,0,0,0,0,68,68,154,289.44768023490906,,,,,,,,,,,,,,,,,,,,,,,,,,,,,,,,,,,,,,,,,,,,,,,,,,,,,,,,,,,,,,,,,,,,,,,,,,,,,,,,,149.58897234906354,125.76106746007326,167.4500628612317,78.2718085339628,119.22525179227682,145.3276621722448,2.2,2.21,-198,-282,0,290,208,270,289.43344616889954,289.4335880279541,289.4369966983795,289.44768023490906,289.6018843650818,289.6018843650818,289.6018843650818,289.6018843650818,289.6018843650818,289.6018843650818,289.6018843650818,291.9327540397644,1,2.471776247024536,None,,,,,,,,,,,,,,,,,,154,4,2025-02-28_09h55.10.790,comp,2024.2.4,54.160654632698844,2025-02-28 09h58.22.768219 -0500,
69,69,0,critical,whd,20.0,2.1,lower,57.0,133.0,133.0,57.0,78.0,78.0,2,2.881894588470459,None,,,,,0,0,0,0,0,69,69,38,291.9493978023529,,,,,,,,,,,,,,,,,,,,,,,,,,,,,,,,,,,,,,,,,,,,,,,,,,,,,,,,,,,,,,,,,,,,,,,,,,,,,,,,,57.0,133.0,133.0,57.0,78.0,78.0,2.1,2.11,-191,270,0,290,164,-280,291.9343421459198,291.93442583084106,291.9377748966217,291.9493978023529,292.0987558364868,292.0987558364868,292.0987558364868,292.0987558364868,292.0987558364868,292.0987558364868,292.0987558364868,294.833322763443,2,2.881894588470459,None,,,,,,,,,,,,,,,,,,154,4,2025-02-28_09h55.10.790,comp,2024.2.4,54.160654632698844,2025-02-28 09h58.22.768219 -0500,
70,70,0,filler_random,None,None,None,None,None,None,None,None,None,None,1,2.9175615310668945,None,,,,,0,0,0,0,0,70,70,132,294.8496675491333,,,,,,,,,,,,,,,,,,,,,,,,,,,,,,,,,,,,,,,,,,,,,,,,,,,,,,,,,,,,,,,,,,,,,,,,,,,,,,,,,161.61721316027388,185.09364104577017,181.53252608182908,114.00842298985538,184.73268970627075,102.75511251929731,2.1,2.11,-246,263,0,278,204,-260,294.8350532054901,294.8351340293884,294.83811235427856,294.8496675491333,294.999507188797,294.999507188797,294.999507188797,294.999507188797,294.999507188797,294.999507188797,294.999507188797,297.7841794490814,1,2.9175615310668945,None,,,,,,,,,,,,,,,,,,154,4,2025-02-28_09h55.10.790,comp,2024.2.4,54.160654632698844,2025-02-28 09h58.22.768219 -0500,
71,71,0,critical,whd,35.0,4.0,lower,57.0,133.0,133.0,57.0,70.0,70.0,2,2.8802616596221924,None,,,,,0,0,0,0,0,71,71,88,297.79980635643005,,,,,,,,,,,,,,,,,,,,,,,,,,,,,,,,,,,,,,,,,,,,,,,,,,,,,,,,,,,,,,,,,,,,,,,,,,,,,,,,,57.0,133.0,133.0,57.0,70.0,70.0,4.0,4.2,-191,-2,0,-251,160,6,297.78585982322693,297.78597927093506,297.7894992828369,297.79980635643005,297.9573380947113,297.9573380947113,297.9573380947113,297.9573380947113,297.9573380947113,297.9573380947113,297.9573380947113,300.6859655380249,2,2.8802616596221924,None,,,,,,,,,,,,,,,,,,154,4,2025-02-28_09h55.10.790,comp,2024.2.4,54.160654632698844,2025-02-28 09h58.22.768219 -0500,
72,72,0,filler_square,None,None,None,None,None,None,None,None,None,None,2,1.7932589054107666,None,,,,,0,0,0,0,0,72,72,174,300.7025902271271,,,,,,,,,,,,,,,,,,,,,,,,,,,,,,,,,,,,,,,,,,,,,,,,,,,,,,,,,,,,,,,,,,,,,,,,,,,,,,,,,104.66963472855764,65.36526101022557,187.20430744431238,187.20430744431238,137.74992608537002,111.85999572048105,4.0,4.1,-222,-277,0,7,246,-276,300.6877417564392,300.68781900405884,300.6918442249298,300.7025902271271,300.8521099090576,300.8521099090576,300.8521099090576,300.8521099090576,300.8521099090576,300.8521099090576,300.8521099090576,302.5017683506012,2,1.7932589054107666,None,,,,,,,,,,,,,,,,,,154,4,2025-02-28_09h55.10.790,comp,2024.2.4,54.160654632698844,2025-02-28 09h58.22.768219 -0500,
73,73,0,critical,dhw,35.0,2.1,upper,127.0,127.0,200.0,125.0,125.0,200.0,3,1.9290215969085693,None,,,,,0,0,0,0,0,73,73,1,302.5186517238617,,,,,,,,,,,,,,,,,,,,,,,,,,,,,,,,,,,,,,,,,,,,,,,,,,,,,,,,,,,,,,,,,,,,,,,,,,,,,,,,,127.0,127.0,200.0,125.0,125.0,200.0,2.1,2.11,-222,281,0,287,258,-283,302.5033977031708,302.5035014152527,302.50713443756104,302.5186517238617,302.6654336452484,302.6654336452484,302.6654336452484,302.6654336452484,302.6654336452484,302.6654336452484,302.6654336452484,304.45438718795776,3,1.9290215969085693,None,,,,,,,,,,,,,,,,,,154,4,2025-02-28_09h55.10.790,comp,2024.2.4,54.160654632698844,2025-02-28 09h58.22.768219 -0500,
74,74,0,critical,hwd,35.0,2.1,upper,200.0,125.0,125.0,200.0,127.0,127.0,1,2.8408002853393555,None,,,,,0,0,0,0,0,74,74,41,304.47035908699036,,,,,,,,,,,,,,,,,,,,,,,,,,,,,,,,,,,,,,,,,,,,,,,,,,,,,,,,,,,,,,,,,,,,,,,,,,,,,,,,,200.0,125.0,125.0,200.0,127.0,127.0,2.1,2.12,-258,-283,0,-283,260,270,304.45587134361267,304.4559700489044,304.45952677726746,304.47035908699036,304.62211537361145,304.62211537361145,304.62211537361145,304.62211537361145,304.62211537361145,304.62211537361145,304.62211537361145,307.3145909309387,1,2.8408002853393555,None,,,,,,,,,,,,,,,,,,154,4,2025-02-28_09h55.10.790,comp,2024.2.4,54.160654632698844,2025-02-28 09h58.22.768219 -0500,
75,75,0,critical,dwh,35.0,1.0,upper,127.0,127.0,125.0,200.0,200.0,125.0,2,2.7201693058013916,None,,,,,0,0,0,0,0,75,75,61,307.3349347114563,,,,,,,,,,,,,,,,,,,,,,,,,,,,,,,,,,,,,,,,,,,,,,,,,,,,,,,,,,,,,,,,,,,,,,,,,,,,,,,,,127.0,127.0,125.0,200.0,200.0,125.0,1.0,1.3,220,-282,480,-270,738,-275,307.31617069244385,307.31625151634216,307.3192181587219,307.3349347114563,307.4709451198578,307.4709451198578,307.4709451198578,307.4709451198578,307.4709451198578,307.4709451198578,307.4709451198578,310.07125306129456,2,2.7201693058013916,None,,,,,,,,,,,,,,,,,,154,4,2025-02-28_09h55.10.790,comp,2024.2.4,54.160654632698844,2025-02-28 09h58.22.768219 -0500,
76,76,0,filler_random,None,None,None,None,None,None,None,None,None,None,2,1.4091205596923828,None,,,,,0,0,0,0,0,76,76,164,310.08723163604736,,,,,,,,,,,,,,,,,,,,,,,,,,,,,,,,,,,,,,,,,,,,,,,,,,,,,,,,,,,,,,,,,,,,,,,,,,,,,,,,,138.7399210496843,198.37807347423632,175.32435220379801,189.43378385169277,177.76199946607778,112.30833366729034,1.0,1.1,-770,255,-480,278,-233,278,310.0731611251831,310.0732522010803,310.0769500732422,310.08723163604736,310.2385530471802,310.2385530471802,310.2385530471802,310.2385530471802,310.2385530471802,310.2385530471802,310.2385530471802,311.5021667480469,2,1.4091205596923828,None,,,,,,,,,,,,,,,,,,154,4,2025-02-28_09h55.10.790,comp,2024.2.4,54.160654632698844,2025-02-28 09h58.22.768219 -0500,
77,77,0,filler_random,None,None,None,None,None,None,None,None,None,None,3,1.351484775543213,None,,,,,0,0,0,0,0,77,77,139,311.5198292732239,,,,,,,,,,,,,,,,,,,,,,,,,,,,,,,,,,,,,,,,,,,,,,,,,,,,,,,,,,,,,,,,,,,,,,,,,,,,,,,,,147.41115013227733,113.81823039860673,178.86950926435944,107.32618333354208,192.85160698986184,138.09216623329485,4.0,4.2,-207,-10,0,-277,219,12,311.5038878917694,311.5039687156677,311.506911277771,311.5198292732239,311.6601493358612,311.6601493358612,311.6601493358612,311.6601493358612,311.6601493358612,311.6601493358612,311.6601493358612,312.8746027946472,3,1.351484775543213,None,,,,,,,,,,,,,,,,,,154,4,2025-02-28_09h55.10.790,comp,2024.2.4,54.160654632698844,2025-02-28 09h58.22.768219 -0500,
78,78,0,critical,dhw,20.0,1.0,upper,141.0,141.0,200.0,125.0,125.0,200.0,2,16.53281831741333,None,,,,,0,0,0,0,0,78,78,55,312.8907196521759,,,,,,,,,,,,,,,,,,,,,,,,,,,,,,,,,,,,,,,,,,,,,,,,,,,,,,,,,,,,,,,,,,,,,,,,,,,,,,,,,141.0,141.0,200.0,125.0,125.0,200.0,1.0,1.2,-229,1,0,11,258,2,312.8761088848114,312.8761878013611,312.87952494621277,312.8907196521759,313.0436222553253,313.0436222553253,313.0436222553253,313.0436222553253,313.0436222553253,313.0436222553253,313.0436222553253,329.4264073371887,2,16.53281831741333,None,,,,,,,,,,,,,,,,,,154,4,2025-02-28_09h55.10.790,comp,2024.2.4,54.160654632698844,2025-02-28 09h58.22.768219 -0500,
79,79,0,critical,whd,20.0,1.0,upper,125.0,200.0,200.0,125.0,141.0,141.0,2,5.69248104095459,None,,,,,0,0,0,0,0,79,79,91,329.443017244339,,,,,,,,,,,,,,,,,,,,,,,,,,,,,,,,,,,,,,,,,,,,,,,,,,,,,,,,,,,,,,,,,,,,,,,,,,,,,,,,,125.0,200.0,200.0,125.0,141.0,141.0,1.0,1.3,222,-284,480,-290,709,-274,329.4279580116272,329.428035736084,329.43132185935974,329.443017244339,329.5966031551361,329.5966031551361,329.5966031551361,329.5966031551361,329.5966031551361,329.5966031551361,329.5966031551361,335.1444602012634,2,5.69248104095459,None,,,,,,,,,,,,,,,,,,154,4,2025-02-28_09h55.10.790,comp,2024.2.4,54.160654632698844,2025-02-28 09h58.22.768219 -0500,
80,80,0,filler_square,None,None,None,None,None,None,None,None,None,None,3,1.0216648578643799,None,,,,,0,0,0,0,0,80,80,179,335.1615512371063,,,,,,,,,,,,,,,,,,,,,,,,,,,,,,,,,,,,,,,,,,,,,,,,,,,,,,,,,,,,,,,,,,,,,,,,,,,,,,,,,177.60409741277795,89.15636804630643,89.8701980290162,145.19358384717668,191.26739831060098,191.26739831060098,1.0,1.1,-693,289,-480,284,-216,262,335.1464262008667,335.14652037620544,335.1498520374298,335.1615512371063,335.29693579673767,335.29693579673767,335.29693579673767,335.29693579673767,335.29693579673767,335.29693579673767,335.29693579673767,336.19851326942444,3,1.0216648578643799,None,,,,,,,,,,,,,,,,,,154,4,2025-02-28_09h55.10.790,comp,2024.2.4,54.160654632698844,2025-02-28 09h58.22.768219 -0500,
81,81,0,filler_square,None,None,None,None,None,None,None,None,None,None,2,0.9228646755218506,None,,,,,0,0,0,0,0,81,81,177,336.21408772468567,,,,,,,,,,,,,,,,,,,,,,,,,,,,,,,,,,,,,,,,,,,,,,,,,,,,,,,,,,,,,,,,,,,,,,,,,,,,,,,,,112.87616731558978,101.90935993810857,180.772239536543,180.772239536543,121.21040986275987,134.0597825006803,4.0,4.1,-237,-267,0,-3,253,-290,336.20043444633484,336.200514793396,336.2038390636444,336.21408772468567,336.36628317832947,336.36628317832947,336.36628317832947,336.36628317832947,336.36628317832947,336.36628317832947,336.36628317832947,337.1477427482605,2,0.9228646755218506,None,,,,,,,,,,,,,,,,,,154,4,2025-02-28_09h55.10.790,comp,2024.2.4,54.160654632698844,2025-02-28 09h58.22.768219 -0500,
82,82,0,critical,dwh,20.0,2.1,upper,141.0,141.0,125.0,200.0,200.0,125.0,2,3.1242752075195312,None,,,,,0,0,0,0,0,82,82,31,337.1641218662262,,,,,,,,,,,,,,,,,,,,,,,,,,,,,,,,,,,,,,,,,,,,,,,,,,,,,,,,,,,,,,,,,,,,,,,,,,,,,,,,,141.0,141.0,125.0,200.0,200.0,125.0,2.1,2.12,-266,-275,0,-267,258,290,337.14955973625183,337.14970207214355,337.1533513069153,337.1641218662262,337.3133964538574,337.3133964538574,337.3133964538574,337.3133964538574,337.3133964538574,337.3133964538574,337.3133964538574,340.2989728450775,2,3.1242752075195312,None,,,,,,,,,,,,,,,,,,154,4,2025-02-28_09h55.10.790,comp,2024.2.4,54.160654632698844,2025-02-28 09h58.22.768219 -0500,
83,83,0,critical,hwd,35.0,3.0,lower,133.0,57.0,57.0,133.0,70.0,70.0,1,1.5486295223236084,None,,,,,0,0,0,0,0,83,83,98,340.3146460056305,,,,,,,,,,,,,,,,,,,,,,,,,,,,,,,,,,,,,,,,,,,,,,,,,,,,,,,,,,,,,,,,,,,,,,,,,,,,,,,,,133.0,57.0,57.0,133.0,70.0,70.0,3.0,3.2,-191,-279,0,10,198,279,340.3004457950592,340.30054330825806,340.30378437042236,340.3146460056305,340.45118021965027,340.45118021965027,340.45118021965027,340.45118021965027,340.45118021965027,340.45118021965027,340.45118021965027,341.867374420166,1,1.5486295223236084,None,,,,,,,,,,,,,,,,,,154,4,2025-02-28_09h55.10.790,comp,2024.2.4,54.160654632698844,2025-02-28 09h58.22.768219 -0500,
84,84,0,critical,dwh,20.0,3.0,upper,141.0,141.0,125.0,200.0,200.0,125.0,2,3.089679479598999,None,,,,,0,0,0,0,0,84,84,69,341.88621258735657,,,,,,,,,,,,,,,,,,,,,,,,,,,,,,,,,,,,,,,,,,,,,,,,,,,,,,,,,,,,,,,,,,,,,,,,,,,,,,,,,141.0,141.0,125.0,200.0,200.0,125.0,3.0,3.2,-266,-277,0,-9,258,267,341.8690667152405,341.8691875934601,341.87307119369507,341.88621258735657,342.03617000579834,342.03617000579834,342.03617000579834,342.03617000579834,342.03617000579834,342.03617000579834,342.03617000579834,344.9838228225708,2,3.089679479598999,None,,,,,,,,,,,,,,,,,,154,4,2025-02-28_09h55.10.790,comp,2024.2.4,54.160654632698844,2025-02-28 09h58.22.768219 -0500,
85,85,0,filler_random,None,None,None,None,None,None,None,None,None,None,1,1.4467735290527344,None,,,,,0,0,0,0,0,85,85,168,345.0003538131714,,,,,,,,,,,,,,,,,,,,,,,,,,,,,,,,,,,,,,,,,,,,,,,,,,,,,,,,,,,,,,,,,,,,,,,,,,,,,,,,,182.48676360592975,125.52248234774775,119.235806380938,115.22997944761573,163.80682168163435,108.68176969109513,3.0,3.1,-216,288,0,-14,208,-281,344.98574113845825,344.98588585853577,344.989515542984,345.0003538131714,345.1476082801819,345.1476082801819,345.1476082801819,345.1476082801819,345.1476082801819,345.1476082801819,345.1476082801819,346.4503242969513,1,1.4467735290527344,None,,,,,,,,,,,,,,,,,,154,4,2025-02-28_09h55.10.790,comp,2024.2.4,54.160654632698844,2025-02-28 09h58.22.768219 -0500,
86,86,0,filler_square,None,None,None,None,None,None,None,None,None,None,1,1.3008005619049072,None,,,,,0,0,0,0,0,86,86,176,346.4663734436035,,,,,,,,,,,,,,,,,,,,,,,,,,,,,,,,,,,,,,,,,,,,,,,,,,,,,,,,,,,,,,,,,,,,,,,,,,,,,,,,,112.0915454874193,112.0915454874193,84.46861457300854,108.49281336076274,67.8206367818047,90.38855175347226,4.0,4.2,-206,-17,0,-266,195,-9,346.45227551460266,346.4523787498474,346.45565843582153,346.4663734436035,346.61562418937683,346.61562418937683,346.61562418937683,346.61562418937683,346.61562418937683,346.61562418937683,346.61562418937683,347.7833309173584,1,1.3008005619049072,None,,,,,,,,,,,,,,,,,,154,4,2025-02-28_09h55.10.790,comp,2024.2.4,54.160654632698844,2025-02-28 09h58.22.768219 -0500,
87,87,0,critical,hwd,20.0,2.1,upper,200.0,125.0,125.0,200.0,141.0,141.0,1,2.5306038856506348,None,,,,,0,0,0,0,0,87,87,43,347.79740023612976,,,,,,,,,,,,,,,,,,,,,,,,,,,,,,,,,,,,,,,,,,,,,,,,,,,,,,,,,,,,,,,,,,,,,,,,,,,,,,,,,200.0,125.0,125.0,200.0,141.0,141.0,2.1,2.12,-258,-258,0,-265,266,275,347.78491711616516,347.78500056266785,347.7883560657501,347.79740023612976,347.9524049758911,347.9524049758911,347.9524049758911,347.9524049758911,347.9524049758911,347.9524049758911,347.9524049758911,350.33429050445557,1,2.5306038856506348,None,,,,,,,,,,,,,,,,,,154,4,2025-02-28_09h55.10.790,comp,2024.2.4,54.160654632698844,2025-02-28 09h58.22.768219 -0500,
88,88,0,critical,whd,35.0,4.0,upper,125.0,200.0,200.0,125.0,127.0,127.0,1,1.9927716255187988,None,,,,,0,0,0,0,0,88,88,89,350.350506067276,,,,,,,,,,,,,,,,,,,,,,,,,,,,,,,,,,,,,,,,,,,,,,,,,,,,,,,,,,,,,,,,,,,,,,,,,,,,,,,,,125.0,200.0,200.0,125.0,127.0,127.0,4.0,4.2,-258,-8,0,-287,222,-13,350.3359751701355,350.33610916137695,350.33978271484375,350.350506067276,350.5011284351349,350.5011284351349,350.5011284351349,350.5011284351349,350.5011284351349,350.5011284351349,350.5011284351349,352.3632159233093,1,1.9927716255187988,None,,,,,,,,,,,,,,,,,,154,4,2025-02-28_09h55.10.790,comp,2024.2.4,54.160654632698844,2025-02-28 09h58.22.768219 -0500,
89,89,0,filler_square,None,None,None,None,None,None,None,None,None,None,2,1.1384825706481934,None,,,,,0,0,0,0,0,89,89,189,352.38110089302063,,,,,,,,,,,,,,,,,,,,,,,,,,,,,,,,,,,,,,,,,,,,,,,,,,,,,,,,,,,,,,,,,,,,,,,,,,,,,,,,,89.13152753666515,89.38245924787483,100.27008502346644,100.27008502346644,77.86015612803274,90.22196566490285,3.0,3.1,-191,257,0,-6,191,-270,352.36508774757385,352.3651819229126,352.3684332370758,352.38110089302063,352.52361035346985,352.52361035346985,352.52361035346985,352.52361035346985,352.52361035346985,352.52361035346985,352.52361035346985,353.5220410823822,2,1.1384825706481934,None,,,,,,,,,,,,,,,,,,154,4,2025-02-28_09h55.10.790,comp,2024.2.4,54.160654632698844,2025-02-28 09h58.22.768219 -0500,
90,90,0,filler_square,None,None,None,None,None,None,None,None,None,None,2,7.348785400390625,None,,,,,0,0,0,0,0,90,90,178,353.5389983654022,,,,,,,,,,,,,,,,,,,,,,,,,,,,,,,,,,,,,,,,,,,,,,,,,,,,,,,,,,,,,,,,,,,,,,,,,,,,,,,,,58.478883495692536,58.441589130575004,59.00647072121027,59.00647072121027,57.77316806288037,58.322841812495234,1.0,1.1,-635,279,-480,266,-325,274,353.5243752002716,353.52445816993713,353.52745151519775,353.5389983654022,353.68599224090576,353.68599224090576,353.68599224090576,353.68599224090576,353.68599224090576,353.68599224090576,353.68599224090576,360.88993859291077,2,7.348785400390625,None,,,,,,,,,,,,,,,,,,154,4,2025-02-28_09h55.10.790,comp,2024.2.4,54.160654632698844,2025-02-28 09h58.22.768219 -0500,
91,91,0,filler_square,None,None,None,None,None,None,None,None,None,None,3,1.5319430828094482,None,,,,,0,0,0,0,0,91,91,188,360.907185792923,,,,,,,,,,,,,,,,,,,,,,,,,,,,,,,,,,,,,,,,,,,,,,,,,,,,,,,,,,,,,,,,,,,,,,,,,,,,,,,,,63.07475926732708,67.27977105326653,90.13087764733483,59.380951278291185,146.2500373506271,146.2500373506271,1.0,1.3,321,-260,480,-287,679,-272,360.8919656276703,360.8920478820801,360.89596581459045,360.907185792923,361.04469656944275,361.04469656944275,361.04469656944275,361.04469656944275,361.04469656944275,361.04469656944275,361.04469656944275,362.4543535709381,3,1.5319430828094482,None,,,,,,,,,,,,,,,,,,154,4,2025-02-28_09h55.10.790,comp,2024.2.4,54.160654632698844,2025-02-28 09h58.22.768219 -0500,
92,92,0,filler_random,None,None,None,None,None,None,None,None,None,None,1,1.0492615699768066,None,,,,,0,0,0,0,0,92,92,134,362.4701416492462,,,,,,,,,,,,,,,,,,,,,,,,,,,,,,,,,,,,,,,,,,,,,,,,,,,,,,,,,,,,,,,,,,,,,,,,,,,,,,,,,190.57851845282426,164.30454185748948,128.32696913755353,92.03413908196158,177.59024280601096,106.87895364160124,2.2,2.22,-224,254,0,-269,195,-256,362.4561171531677,362.4561948776245,362.4598124027252,362.4701416492462,362.62011528015137,362.62011528015137,362.62011528015137,362.62011528015137,362.62011528015137,362.62011528015137,362.62011528015137,363.52216720581055,1,1.0492615699768066,None,,,,,,,,,,,,,,,,,,154,4,2025-02-28_09h55.10.790,comp,2024.2.4,54.160654632698844,2025-02-28 09h58.22.768219 -0500,
93,93,0,filler_square,None,None,None,None,None,None,None,None,None,None,3,1.2913408279418945,None,,,,,0,0,0,0,0,93,93,194,363.5477955341339,,,,,,,,,,,,,,,,,,,,,,,,,,,,,,,,,,,,,,,,,,,,,,,,,,,,,,,,,,,,,,,,,,,,,,,,,,,,,,,,,121.16520708595722,124.02326730989165,75.05173171602226,90.29049139511746,128.43113691345928,128.43113691345928,1.0,1.1,-683,279,-480,278,-275,267,363.5242576599121,363.52442169189453,363.5279018878937,363.5477955341339,363.6890969276428,363.6890969276428,363.6890969276428,363.6890969276428,363.6890969276428,363.6890969276428,363.6890969276428,364.8634719848633,3,1.2913408279418945,None,,,,,,,,,,,,,,,,,,154,4,2025-02-28_09h55.10.790,comp,2024.2.4,54.160654632698844,2025-02-28 09h58.22.768219 -0500,
94,94,0,critical,whd,20.0,4.0,lower,57.0,133.0,133.0,57.0,78.0,78.0,2,9.390697479248047,None,,,,,0,0,0,0,0,94,94,94,364.88126254081726,,,,,,,,,,,,,,,,,,,,,,,,,,,,,,,,,,,,,,,,,,,,,,,,,,,,,,,,,,,,,,,,,,,,,,,,,,,,,,,,,57.0,133.0,133.0,57.0,78.0,78.0,4.0,4.1,-191,-286,0,3,164,-284,364.8650288581848,364.8651044368744,364.86851167678833,364.88126254081726,365.0230939388275,365.0230939388275,365.0230939388275,365.0230939388275,365.0230939388275,365.0230939388275,365.0230939388275,374.27834391593933,2,9.390697479248047,None,,,,,,,,,,,,,,,,,,154,4,2025-02-28_09h55.10.790,comp,2024.2.4,54.160654632698844,2025-02-28 09h58.22.768219 -0500,
95,95,0,filler_square,None,None,None,None,None,None,None,None,None,None,1,1.128976821899414,None,,,,,0,0,0,0,0,95,95,184,374.2943937778473,,,,,,,,,,,,,,,,,,,,,,,,,,,,,,,,,,,,,,,,,,,,,,,,,,,,,,,,,,,,,,,,,,,,,,,,,,,,,,,,,186.5391141528723,186.5391141528723,116.00819391704863,64.3921886353932,60.95790750557947,138.152996976979,1.0,1.3,259,-280,480,-267,677,-287,374.2805824279785,374.28066301345825,374.2836399078369,374.2943937778473,374.4421775341034,374.4421775341034,374.4421775341034,374.4421775341034,374.4421775341034,374.4421775341034,374.4421775341034,375.4298007488251,1,1.128976821899414,None,,,,,,,,,,,,,,,,,,154,4,2025-02-28_09h55.10.790,comp,2024.2.4,54.160654632698844,2025-02-28 09h58.22.768219 -0500,
96,96,0,critical,dhw,35.0,2.1,lower,70.0,70.0,133.0,57.0,57.0,133.0,2,1.2612762451171875,None,,,,,0,0,0,0,0,96,96,0,375.449951171875,,,,,,,,,,,,,,,,,,,,,,,,,,,,,,,,,,,,,,,,,,,,,,,,,,,,,,,,,,,,,,,,,,,,,,,,,,,,,,,,,70.0,70.0,133.0,57.0,57.0,133.0,2.1,2.12,-160,-278,0,-260,191,264,375.43135690689087,375.4314389228821,375.43443846702576,375.449951171875,375.5944893360138,375.5944893360138,375.5944893360138,375.5944893360138,375.5944893360138,375.5944893360138,375.5944893360138,376.7274582386017,2,1.2612762451171875,None,,,,,,,,,,,,,,,,,,154,4,2025-02-28_09h55.10.790,comp,2024.2.4,54.160654632698844,2025-02-28 09h58.22.768219 -0500,
97,97,0,critical,whd,35.0,2.1,lower,57.0,133.0,133.0,57.0,70.0,70.0,1,1.8636329174041748,None,,,,,0,0,0,0,0,97,97,12,376.7439787387848,,,,,,,,,,,,,,,,,,,,,,,,,,,,,,,,,,,,,,,,,,,,,,,,,,,,,,,,,,,,,,,,,,,,,,,,,,,,,,,,,57.0,133.0,133.0,57.0,70.0,70.0,2.1,2.11,-191,274,0,269,160,-260,376.7290976047516,376.72918152809143,376.7327585220337,376.7439787387848,376.8794734477997,376.8794734477997,376.8794734477997,376.8794734477997,376.8794734477997,376.8794734477997,376.8794734477997,378.6167883872986,1,1.8636329174041748,None,,,,,,,,,,,,,,,,,,154,4,2025-02-28_09h55.10.790,comp,2024.2.4,54.160654632698844,2025-02-28 09h58.22.768219 -0500,
98,98,0,filler_random,None,None,None,None,None,None,None,None,None,None,3,1.4270100593566895,None,,,,,0,0,0,0,0,98,98,145,378.63634729385376,,,,,,,,,,,,,,,,,,,,,,,,,,,,,,,,,,,,,,,,,,,,,,,,,,,,,,,,,,,,,,,,,,,,,,,,,,,,,,,,,170.53088435188056,149.06302463364761,66.62996843914605,154.92567780494198,179.0720612058339,182.4291780871924,2.2,2.22,-248,286,0,-286,265,-280,378.6185178756714,378.6186480522156,378.6219336986542,378.63634729385376,378.7721164226532,378.7721164226532,378.7721164226532,378.7721164226532,378.7721164226532,378.7721164226532,378.7721164226532,380.0775079727173,3,1.4270100593566895,None,,,,,,,,,,,,,,,,,,154,4,2025-02-28_09h55.10.790,comp,2024.2.4,54.160654632698844,2025-02-28 09h58.22.768219 -0500,
99,99,0,filler_random,None,None,None,None,None,None,None,None,None,None,1,1.9695346355438232,None,,,,,0,0,0,0,0,99,99,135,380.0936949253082,,,,,,,,,,,,,,,,,,,,,,,,,,,,,,,,,,,,,,,,,,,,,,,,,,,,,,,,,,,,,,,,,,,,,,,,,,,,,,,,,126.3586454702728,110.96541230143873,84.10890332911109,143.91012875398155,146.3132350933528,78.24864913292404,2.1,2.12,-223,-265,0,-283,207,274,380.07927942276,380.0793948173523,380.08347964286804,380.0936949253082,380.24108052253723,380.24108052253723,380.24108052253723,380.24108052253723,380.24108052253723,380.24108052253723,380.24108052253723,382.0767180919647,1,1.9695346355438232,None,,,,,,,,,,,,,,,,,,154,4,2025-02-28_09h55.10.790,comp,2024.2.4,54.160654632698844,2025-02-28 09h58.22.768219 -0500,
100,100,0,filler_random,None,None,None,None,None,None,None,None,None,None,2,2.4111640453338623,None,,,,,0,0,0,0,0,100,100,141,382.0934329032898,,,,,,,,,,,,,,,,,,,,,,,,,,,,,,,,,,,,,,,,,,,,,,,,,,,,,,,,,,,,,,,,,,,,,,,,,,,,,,,,,165.89794359642298,125.81486415832985,130.76558454312192,159.8587635693159,116.82499060256703,70.78759450732913,4.0,4.2,-239,-3,0,-290,211,-6,382.07842326164246,382.0785038471222,382.0818293094635,382.0934329032898,382.22981214523315,382.22981214523315,382.22981214523315,382.22981214523315,382.22981214523315,382.22981214523315,382.22981214523315,384.5119369029999,2,2.4111640453338623,None,,,,,,,,,,,,,,,,,,154,4,2025-02-28_09h55.10.790,comp,2024.2.4,54.160654632698844,2025-02-28 09h58.22.768219 -0500,
101,101,0,critical,wdh,35.0,2.1,lower,57.0,133.0,70.0,70.0,133.0,57.0,3,1.9158246517181396,None,,,,,0,0,0,0,0,101,101,8,384.53150629997253,,,,,,,,,,,,,,,,,,,,,,,,,,,,,,,,,,,,,,,,,,,,,,,,,,,,,,,,,,,,,,,,,,,,,,,,,,,,,,,,,57.0,133.0,70.0,70.0,133.0,57.0,2.1,2.12,-198,-279,0,-256,160,267,384.5134332180023,384.51351141929626,384.5165877342224,384.53150629997253,384.6789073944092,384.6789073944092,384.6789073944092,384.6789073944092,384.6789073944092,384.6789073944092,384.6789073944092,386.46681928634644,3,1.9158246517181396,None,,,,,,,,,,,,,,,,,,154,4,2025-02-28_09h55.10.790,comp,2024.2.4,54.160654632698844,2025-02-28 09h58.22.768219 -0500,
102,102,0,critical,wdh,35.0,4.0,lower,57.0,133.0,70.0,70.0,133.0,57.0,3,2.2680952548980713,None,,,,,0,0,0,0,0,102,102,76,386.484023809433,,,,,,,,,,,,,,,,,,,,,,,,,,,,,,,,,,,,,,,,,,,,,,,,,,,,,,,,,,,,,,,,,,,,,,,,,,,,,,,,,57.0,133.0,70.0,70.0,133.0,57.0,4.0,4.2,-198,15,0,-283,160,-5,386.46828842163086,386.46839237213135,386.47134280204773,386.484023809433,386.62964487075806,386.62964487075806,386.62964487075806,386.62964487075806,386.62964487075806,386.62964487075806,386.62964487075806,388.7616322040558,3,2.2680952548980713,None,,,,,,,,,,,,,,,,,,154,4,2025-02-28_09h55.10.790,comp,2024.2.4,54.160654632698844,2025-02-28 09h58.22.768219 -0500,
103,103,0,critical,hdw,35.0,3.0,upper,200.0,125.0,127.0,127.0,125.0,200.0,3,2.868943691253662,None,,,,,0,0,0,0,0,103,103,111,388.7783682346344,,,,,,,,,,,,,,,,,,,,,,,,,,,,,,,,,,,,,,,,,,,,,,,,,,,,,,,,,,,,,,,,,,,,,,,,,,,,,,,,,200.0,125.0,127.0,127.0,125.0,200.0,3.0,3.1,-222,288,0,12,260,-283,388.7631833553314,388.7632613182068,388.7665374279022,388.7783682346344,388.93003010749817,388.93003010749817,388.93003010749817,388.93003010749817,388.93003010749817,388.93003010749817,388.93003010749817,391.66380405426025,3,2.868943691253662,None,,,,,,,,,,,,,,,,,,154,4,2025-02-28_09h55.10.790,comp,2024.2.4,54.160654632698844,2025-02-28 09h58.22.768219 -0500,
104,104,0,filler_random,None,None,None,None,None,None,None,None,None,None,2,1.403853178024292,None,,,,,0,0,0,0,0,104,104,140,391.6835787296295,,,,,,,,,,,,,,,,,,,,,,,,,,,,,,,,,,,,,,,,,,,,,,,,,,,,,,,,,,,,,,,,,,,,,,,,,,,,,,,,,69.8950051058403,152.2700120179018,123.00109216137861,95.90201741561532,176.91902341638283,72.65881879455553,3.0,3.2,-220,-269,0,6,180,288,391.6654770374298,391.66555666923523,391.6687767505646,391.6835787296295,391.83033323287964,391.83033323287964,391.83033323287964,391.83033323287964,391.83033323287964,391.83033323287964,391.83033323287964,393.0975477695465,2,1.403853178024292,None,,,,,,,,,,,,,,,,,,154,4,2025-02-28_09h55.10.790,comp,2024.2.4,54.160654632698844,2025-02-28 09h58.22.768219 -0500,
105,105,0,filler_random,None,None,None,None,None,None,None,None,None,None,1,2.388948917388916,None,,,,,0,0,0,0,0,105,105,149,393.1142416000366,,,,,,,,,,,,,,,,,,,,,,,,,,,,,,,,,,,,,,,,,,,,,,,,,,,,,,,,,,,,,,,,,,,,,,,,,,,,,,,,,94.08456599932644,199.90802719382935,143.66914894000288,87.40946534586354,147.00633684841398,85.62996597272661,2.2,2.21,-240,-259,0,264,183,264,393.09932112693787,393.09940576553345,393.10351943969727,393.1142416000366,393.26287055015564,393.26287055015564,393.26287055015564,393.26287055015564,393.26287055015564,393.26287055015564,393.26287055015564,395.5155041217804,1,2.388948917388916,None,,,,,,,,,,,,,,,,,,154,4,2025-02-28_09h55.10.790,comp,2024.2.4,54.160654632698844,2025-02-28 09h58.22.768219 -0500,
106,106,0,critical,wdh,20.0,2.1,upper,125.0,200.0,141.0,141.0,200.0,125.0,3,13.67969036102295,None,,,,,0,0,0,0,0,106,106,35,395.5358362197876,,,,,,,,,,,,,,,,,,,,,,,,,,,,,,,,,,,,,,,,,,,,,,,,,,,,,,,,,,,,,,,,,,,,,,,,,,,,,,,,,125.0,200.0,141.0,141.0,200.0,125.0,2.1,2.11,-266,260,0,268,229,-266,395.5170192718506,395.51709842681885,395.5203649997711,395.5358362197876,395.6774320602417,395.6774320602417,395.6774320602417,395.6774320602417,395.6774320602417,395.6774320602417,395.6774320602417,409.22527170181274,3,13.67969036102295,None,,,,,,,,,,,,,,,,,,154,4,2025-02-28_09h55.10.790,comp,2024.2.4,54.160654632698844,2025-02-28 09h58.22.768219 -0500,
107,107,0,critical,hdw,20.0,2.1,upper,200.0,125.0,141.0,141.0,125.0,200.0,1,2.0148866176605225,None,,,,,0,0,0,0,0,107,107,23,409.2408094406128,,,,,,,,,,,,,,,,,,,,,,,,,,,,,,,,,,,,,,,,,,,,,,,,,,,,,,,,,,,,,,,,,,,,,,,,,,,,,,,,,200.0,125.0,141.0,141.0,125.0,200.0,2.1,2.12,-229,-279,0,-280,266,268,409.22683787345886,409.2269196510315,409.22988510131836,409.2408094406128,409.3862133026123,409.3862133026123,409.3862133026123,409.3862133026123,409.3862133026123,409.3862133026123,409.3862133026123,411.2616751194,1,2.0148866176605225,None,,,,,,,,,,,,,,,,,,154,4,2025-02-28_09h55.10.790,comp,2024.2.4,54.160654632698844,2025-02-28 09h58.22.768219 -0500,
108,108,0,critical,hdw,35.0,2.1,lower,133.0,57.0,70.0,70.0,57.0,133.0,1,1.5920345783233643,None,,,,,0,0,0,0,0,108,108,44,411.2793791294098,,,,,,,,,,,,,,,,,,,,,,,,,,,,,,,,,,,,,,,,,,,,,,,,,,,,,,,,,,,,,,,,,,,,,,,,,,,,,,,,,133.0,57.0,70.0,70.0,57.0,133.0,2.1,2.12,-160,-260,0,-278,198,253,411.26315450668335,411.26323437690735,411.2661769390106,411.2793791294098,411.41925024986267,411.41925024986267,411.41925024986267,411.41925024986267,411.41925024986267,411.41925024986267,411.41925024986267,412.8898787498474,1,1.5920345783233643,None,,,,,,,,,,,,,,,,,,154,4,2025-02-28_09h55.10.790,comp,2024.2.4,54.160654632698844,2025-02-28 09h58.22.768219 -0500,
109,109,0,filler_square,None,None,None,None,None,None,None,None,None,None,2,2.0104546546936035,None,,,,,0,0,0,0,0,109,109,172,412.9094955921173,,,,,,,,,,,,,,,,,,,,,,,,,,,,,,,,,,,,,,,,,,,,,,,,,,,,,,,,,,,,,,,,,,,,,,,,,,,,,,,,,66.70794619166739,66.70794619166739,64.20831520317802,65.08539125925144,64.96409461558989,60.59046913005084,4.0,4.2,-162,-18,0,-266,159,-2,412.8918435573578,412.8919241428375,412.8950824737549,412.9094955921173,413.05710339546204,413.05710339546204,413.05710339546204,413.05710339546204,413.05710339546204,413.05710339546204,413.05710339546204,414.92840337753296,2,2.0104546546936035,None,,,,,,,,,,,,,,,,,,154,4,2025-02-28_09h55.10.790,comp,2024.2.4,54.160654632698844,2025-02-28 09h58.22.768219 -0500,
110,110,0,filler_random,None,None,None,None,None,None,None,None,None,None,2,5.43875789642334,None,,,,,0,0,0,0,0,110,110,133,414.9444670677185,,,,,,,,,,,,,,,,,,,,,,,,,,,,,,,,,,,,,,,,,,,,,,,,,,,,,,,,,,,,,,,,,,,,,,,,,,,,,,,,,146.69591517970713,94.74077907365461,108.66558069079792,149.54114709191174,134.25899961473849,77.39398379537916,1.0,1.3,262,-272,480,-258,689,-290,414.93014216423035,414.93023324012756,414.93356800079346,414.9444670677185,415.0874707698822,415.0874707698822,415.0874707698822,415.0874707698822,415.0874707698822,415.0874707698822,415.0874707698822,420.40079498291016,2,5.43875789642334,None,,,,,,,,,,,,,,,,,,154,4,2025-02-28_09h55.10.790,comp,2024.2.4,54.160654632698844,2025-02-28 09h58.22.768219 -0500,
111,111,0,critical,whd,35.0,2.1,upper,125.0,200.0,200.0,125.0,127.0,127.0,2,1.6051933765411377,None,,,,,0,0,0,0,0,111,111,13,420.4181683063507,,,,,,,,,,,,,,,,,,,,,,,,,,,,,,,,,,,,,,,,,,,,,,,,,,,,,,,,,,,,,,,,,,,,,,,,,,,,,,,,,125.0,200.0,200.0,125.0,127.0,127.0,2.1,2.11,-258,289,0,271,222,-285,420.40234184265137,420.4024214744568,420.4053509235382,420.4181683063507,420.5589745044708,420.5589745044708,420.5589745044708,420.5589745044708,420.5589745044708,420.5589745044708,420.5589745044708,422.02746295928955,2,1.6051933765411377,None,,,,,,,,,,,,,,,,,,154,4,2025-02-28_09h55.10.790,comp,2024.2.4,54.160654632698844,2025-02-28 09h58.22.768219 -0500,
112,112,0,critical,wdh,20.0,2.1,upper,125.0,200.0,141.0,141.0,200.0,125.0,1,6.922079801559448,None,,,,,0,0,0,0,0,112,112,11,422.0452308654785,,,,,,,,,,,,,,,,,,,,,,,,,,,,,,,,,,,,,,,,,,,,,,,,,,,,,,,,,,,,,,,,,,,,,,,,,,,,,,,,,125.0,200.0,141.0,141.0,200.0,125.0,2.1,2.12,-266,-269,0,-258,229,250,422.02906942367554,422.02914595603943,422.0321047306061,422.0452308654785,422.1907365322113,422.1907365322113,422.1907365322113,422.1907365322113,422.1907365322113,422.1907365322113,422.1907365322113,428.9822254180908,1,6.922079801559448,None,,,,,,,,,,,,,,,,,,154,4,2025-02-28_09h55.10.790,comp,2024.2.4,54.160654632698844,2025-02-28 09h58.22.768219 -0500,
113,113,0,critical,hwd,20.0,1.0,upper,200.0,125.0,125.0,200.0,141.0,141.0,1,5.7736194133758545,None,,,,,0,0,0,0,0,113,113,103,429.0020081996918,,,,,,,,,,,,,,,,,,,,,,,,,,,,,,,,,,,,,,,,,,,,,,,,,,,,,,,,,,,,,,,,,,,,,,,,,,,,,,,,,200.0,125.0,125.0,200.0,141.0,141.0,1.0,1.1,-738,258,-480,276,-214,250,428.98378920555115,428.98387145996094,428.986811876297,429.0020081996918,429.14304780960083,429.14304780960083,429.14304780960083,429.14304780960083,429.14304780960083,429.14304780960083,429.14304780960083,434.7935972213745,1,5.7736194133758545,None,,,,,,,,,,,,,,,,,,154,4,2025-02-28_09h55.10.790,comp,2024.2.4,54.160654632698844,2025-02-28 09h58.22.768219 -0500,
114,114,0,critical,hdw,35.0,4.0,upper,200.0,125.0,127.0,127.0,125.0,200.0,2,5.21292781829834,None,,,,,0,0,0,0,0,114,114,113,434.8105516433716,,,,,,,,,,,,,,,,,,,,,,,,,,,,,,,,,,,,,,,,,,,,,,,,,,,,,,,,,,,,,,,,,,,,,,,,,,,,,,,,,200.0,125.0,127.0,127.0,125.0,200.0,4.0,4.2,-222,18,0,-282,260,-6,434.79519391059875,434.79528045654297,434.79866099357605,434.8105516433716,434.9623601436615,434.9623601436615,434.9623601436615,434.9623601436615,434.9623601436615,434.9623601436615,434.9623601436615,440.03549790382385,2,5.21292781829834,None,,,,,,,,,,,,,,,,,,154,4,2025-02-28_09h55.10.790,comp,2024.2.4,54.160654632698844,2025-02-28 09h58.22.768219 -0500,
115,115,0,critical,wdh,20.0,3.0,lower,57.0,133.0,78.0,78.0,133.0,57.0,3,8.008385181427002,None,,,,,0,0,0,0,0,115,115,80,440.05579352378845,,,,,,,,,,,,,,,,,,,,,,,,,,,,,,,,,,,,,,,,,,,,,,,,,,,,,,,,,,,,,,,,,,,,,,,,,,,,,,,,,57.0,133.0,78.0,78.0,133.0,57.0,3.0,3.1,-202,278,0,19,164,-289,440.037024974823,440.03710532188416,440.0401072502136,440.05579352378845,440.19735765457153,440.19735765457153,440.19735765457153,440.19735765457153,440.19735765457153,440.19735765457153,440.19735765457153,448.0678153038025,3,8.008385181427002,None,,,,,,,,,,,,,,,,,,154,4,2025-02-28_09h55.10.790,comp,2024.2.4,54.160654632698844,2025-02-28 09h58.22.768219 -0500,
116,116,0,critical,dhw,35.0,4.0,lower,70.0,70.0,133.0,57.0,57.0,133.0,2,2.3798747062683105,None,,,,,0,0,0,0,0,116,116,52,448.08346009254456,,,,,,,,,,,,,,,,,,,,,,,,,,,,,,,,,,,,,,,,,,,,,,,,,,,,,,,,,,,,,,,,,,,,,,,,,,,,,,,,,70.0,70.0,133.0,57.0,57.0,133.0,4.0,4.2,-160,9,0,-257,191,-16,448.06934809684753,448.0694296360016,448.07275676727295,448.08346009254456,448.23007369041443,448.23007369041443,448.23007369041443,448.23007369041443,448.23007369041443,448.23007369041443,448.23007369041443,450.46658730506897,2,2.3798747062683105,None,,,,,,,,,,,,,,,,,,154,4,2025-02-28_09h55.10.790,comp,2024.2.4,54.160654632698844,2025-02-28 09h58.22.768219 -0500,
117,117,0,catch,None,None,None,None,None,None,None,None,None,None,1,1.260901927947998,None,,,,,0,0,0,0,0,117,117,127,450.4828863143921,,,,,,,,,,,,,,,,,,,,,,,,,,,,,,,,,,,,,,,,,,,,,,,,,,,,,,,,,,,,,,,,,,,,,,,,,,,,,,,,,132,193,97,93,72,118,2.1,2.12,-239,-261,0,-265,202,255,450.4685595035553,450.46863985061646,450.4719285964966,450.4828863143921,450.6325566768646,450.6325566768646,450.6325566768646,450.6325566768646,450.6325566768646,450.6325566768646,450.6325566768646,451.7518787384033,1,1.260901927947998,None,,,,,,,,,,,,,,,,,,154,4,2025-02-28_09h55.10.790,comp,2024.2.4,54.160654632698844,2025-02-28 09h58.22.768219 -0500,
118,118,0,critical,wdh,20.0,1.0,upper,125.0,200.0,141.0,141.0,200.0,125.0,3,7.623873472213745,None,,,,,0,0,0,0,0,118,118,79,451.76817417144775,,,,,,,,,,,,,,,,,,,,,,,,,,,,,,,,,,,,,,,,,,,,,,,,,,,,,,,,,,,,,,,,,,,,,,,,,,,,,,,,,125.0,200.0,141.0,141.0,200.0,125.0,1.0,1.3,214,-261,480,-256,709,-267,451.75345039367676,451.75354957580566,451.75698709487915,451.76817417144775,451.91827034950256,451.91827034950256,451.91827034950256,451.91827034950256,451.91827034950256,451.91827034950256,451.91827034950256,459.4036853313446,3,7.623873472213745,None,,,,,,,,,,,,,,,,,,154,4,2025-02-28_09h55.10.790,comp,2024.2.4,54.160654632698844,2025-02-28 09h58.22.768219 -0500,
119,119,0,filler_square,None,None,None,None,None,None,None,None,None,None,2,1.1791744232177734,None,,,,,0,0,0,0,0,119,119,180,459.4202513694763,,,,,,,,,,,,,,,,,,,,,,,,,,,,,,,,,,,,,,,,,,,,,,,,,,,,,,,,,,,,,,,,,,,,,,,,,,,,,,,,,104.7196517649116,113.11905776682143,155.33021003182438,155.33021003182438,155.26220184836632,86.08364935156979,3.0,3.1,-230,255,0,13,217,-259,459.4055542945862,459.4056353569031,459.4086902141571,459.4202513694763,459.5679063796997,459.5679063796997,459.5679063796997,459.5679063796997,459.5679063796997,459.5679063796997,459.5679063796997,460.6180577278137,2,1.1791744232177734,None,,,,,,,,,,,,,,,,,,154,4,2025-02-28_09h55.10.790,comp,2024.2.4,54.160654632698844,2025-02-28 09h58.22.768219 -0500,
120,120,0,filler_square,None,None,None,None,None,None,None,None,None,None,2,1.6458649635314941,None,,,,,0,0,0,0,0,120,120,202,460.63441133499146,,,,,,,,,,,,,,,,,,,,,,,,,,,,,,,,,,,,,,,,,,,,,,,,,,,,,,,,,,,,,,,,,,,,,,,,,,,,,,,,,60.4207134485281,59.09021444274613,62.47346738890426,62.47346738890426,59.349815478593726,57.59530013153305,2.1,2.11,-157,263,0,273,156,-262,460.6200497150421,460.6201264858246,460.6233489513397,460.63441133499146,460.7887122631073,460.7887122631073,460.7887122631073,460.7887122631073,460.7887122631073,460.7887122631073,460.7887122631073,462.28674578666687,2,1.6458649635314941,None,,,,,,,,,,,,,,,,,,154,4,2025-02-28_09h55.10.790,comp,2024.2.4,54.160654632698844,2025-02-28 09h58.22.768219 -0500,
121,121,0,critical,dwh,20.0,4.0,lower,78.0,78.0,57.0,133.0,133.0,57.0,3,3.7294845581054688,None,,,,,0,0,0,0,0,121,121,70,462.30238246917725,,,,,,,,,,,,,,,,,,,,,,,,,,,,,,,,,,,,,,,,,,,,,,,,,,,,,,,,,,,,,,,,,,,,,,,,,,,,,,,,,78.0,78.0,57.0,133.0,133.0,57.0,4.0,4.1,-202,-287,0,3,191,-260,462.28823709487915,462.28834676742554,462.29147386550903,462.30238246917725,462.4554376602173,462.4554376602173,462.4554376602173,462.4554376602173,462.4554376602173,462.4554376602173,462.4554376602173,466.03882455825806,3,3.7294845581054688,None,,,,,,,,,,,,,,,,,,154,4,2025-02-28_09h55.10.790,comp,2024.2.4,54.160654632698844,2025-02-28 09h58.22.768219 -0500,
122,122,0,critical,wdh,35.0,2.1,upper,125.0,200.0,127.0,127.0,200.0,125.0,3,2.7841734886169434,None,,,,,0,0,0,0,0,122,122,9,466.0552384853363,,,,,,,,,,,,,,,,,,,,,,,,,,,,,,,,,,,,,,,,,,,,,,,,,,,,,,,,,,,,,,,,,,,,,,,,,,,,,,,,,125.0,200.0,127.0,127.0,200.0,125.0,2.1,2.11,-260,288,0,251,222,-289,466.0405879020691,466.0407283306122,466.0443274974823,466.0552384853363,466.2063658237457,466.2063658237457,466.2063658237457,466.2063658237457,466.2063658237457,466.2063658237457,466.2063658237457,468.8557357788086,3,2.7841734886169434,None,,,,,,,,,,,,,,,,,,154,4,2025-02-28_09h55.10.790,comp,2024.2.4,54.160654632698844,2025-02-28 09h58.22.768219 -0500,
123,123,0,filler_random,None,None,None,None,None,None,None,None,None,None,1,1.8805170059204102,None,,,,,0,0,0,0,0,123,123,161,468.87118554115295,,,,,,,,,,,,,,,,,,,,,,,,,,,,,,,,,,,,,,,,,,,,,,,,,,,,,,,,,,,,,,,,,,,,,,,,,,,,,,,,,198.15735507750932,152.19958578219587,154.55759917391512,184.1551541666043,120.78281347949482,144.61790391690158,3.0,3.2,-264,-271,0,-15,260,257,468.85765838623047,468.8577401638031,468.860965013504,468.87118554115295,469.02019596099854,469.02019596099854,469.02019596099854,469.02019596099854,469.02019596099854,469.02019596099854,469.02019596099854,470.75688219070435,1,1.8805170059204102,None,,,,,,,,,,,,,,,,,,154,4,2025-02-28_09h55.10.790,comp,2024.2.4,54.160654632698844,2025-02-28 09h58.22.768219 -0500,
124,124,0,critical,dhw,35.0,1.0,lower,70.0,70.0,133.0,57.0,57.0,133.0,2,1.513350009918213,None,,,,,0,0,0,0,0,124,124,48,470.7744755744934,,,,,,,,,,,,,,,,,,,,,,,,,,,,,,,,,,,,,,,,,,,,,,,,,,,,,,,,,,,,,,,,,,,,,,,,,,,,,,,,,70.0,70.0,133.0,57.0,57.0,133.0,1.0,1.2,-160,17,0,-13,191,-19,470.758394241333,470.7584750652313,470.76152777671814,470.7744755744934,470.9218304157257,470.9218304157257,470.9218304157257,470.9218304157257,470.9218304157257,470.9218304157257,470.9218304157257,472.30651807785034,2,1.513350009918213,None,,,,,,,,,,,,,,,,,,154,4,2025-02-28_09h55.10.790,comp,2024.2.4,54.160654632698844,2025-02-28 09h58.22.768219 -0500,
125,125,0,critical,wdh,35.0,1.0,lower,57.0,133.0,70.0,70.0,133.0,57.0,3,2.1140036582946777,None,,,,,0,0,0,0,0,125,125,72,472.32557225227356,,,,,,,,,,,,,,,,,,,,,,,,,,,,,,,,,,,,,,,,,,,,,,,,,,,,,,,,,,,,,,,,,,,,,,,,,,,,,,,,,57.0,133.0,70.0,70.0,133.0,57.0,1.0,1.3,282,-286,480,-259,640,-274,472.30813455581665,472.30823826789856,472.3117744922638,472.32557225227356,472.47376108169556,472.47376108169556,472.47376108169556,472.47376108169556,472.47376108169556,472.47376108169556,472.47376108169556,474.45636916160583,3,2.1140036582946777,None,,,,,,,,,,,,,,,,,,154,4,2025-02-28_09h55.10.790,comp,2024.2.4,54.160654632698844,2025-02-28 09h58.22.768219 -0500,
126,126,0,critical,hdw,35.0,2.1,lower,133.0,57.0,70.0,70.0,57.0,133.0,1,1.4470012187957764,None,,,,,0,0,0,0,0,126,126,20,474.4722807407379,,,,,,,,,,,,,,,,,,,,,,,,,,,,,,,,,,,,,,,,,,,,,,,,,,,,,,,,,,,,,,,,,,,,,,,,,,,,,,,,,133.0,57.0,70.0,70.0,57.0,133.0,2.1,2.11,-160,270,0,290,198,-250,474.45781445503235,474.45789217948914,474.4619541168213,474.4722807407379,474.6278564929962,474.6278564929962,474.6278564929962,474.6278564929962,474.6278564929962,474.6278564929962,474.6278564929962,475.9238567352295,1,1.4470012187957764,None,,,,,,,,,,,,,,,,,,154,4,2025-02-28_09h55.10.790,comp,2024.2.4,54.160654632698844,2025-02-28 09h58.22.768219 -0500,
127,127,0,catch,None,None,None,None,None,None,None,None,None,None,3,1.0175020694732666,None,,,,,0,0,0,0,0,127,127,126,475.9419295787811,,,,,,,,,,,,,,,,,,,,,,,,,,,,,,,,,,,,,,,,,,,,,,,,,,,,,,,,,,,,,,,,,,,,,,,,,,,,,,,,,90,100,102,88,193,132,1.0,1.1,-670,286,-480,286,-274,284,475.9257264137268,475.9258060455322,475.92901968955994,475.9419295787811,476.0918593406677,476.0918593406677,476.0918593406677,476.0918593406677,476.0918593406677,476.0918593406677,476.0918593406677,476.9739203453064,3,1.0175020694732666,None,,,,,,,,,,,,,,,,,,154,4,2025-02-28_09h55.10.790,comp,2024.2.4,54.160654632698844,2025-02-28 09h58.22.768219 -0500,
128,128,0,filler_square,None,None,None,None,None,None,None,None,None,None,3,2.169340133666992,None,,,,,0,0,0,0,0,128,128,171,476.9901132583618,,,,,,,,,,,,,,,,,,,,,,,,,,,,,,,,,,,,,,,,,,,,,,,,,,,,,,,,,,,,,,,,,,,,,,,,,,,,,,,,,58.05184435541892,62.84232044325511,59.980077743402504,61.58765279503843,63.23330626432193,63.23330626432193,1.0,1.2,-158,-13,0,17,158,3,476.9756712913513,476.9757504463196,476.97982954978943,476.9901132583618,477.14104294776917,477.14104294776917,477.14104294776917,477.14104294776917,477.14104294776917,477.14104294776917,477.14104294776917,479.1745834350586,3,2.169340133666992,None,,,,,,,,,,,,,,,,,,154,4,2025-02-28_09h55.10.790,comp,2024.2.4,54.160654632698844,2025-02-28 09h58.22.768219 -0500,
129,129,0,critical,wdh,35.0,3.0,lower,57.0,133.0,70.0,70.0,133.0,57.0,3,6.104921817779541,None,,,,,0,0,0,0,0,129,129,74,479.1904830932617,,,,,,,,,,,,,,,,,,,,,,,,,,,,,,,,,,,,,,,,,,,,,,,,,,,,,,,,,,,,,,,,,,,,,,,,,,,,,,,,,57.0,133.0,70.0,70.0,133.0,57.0,3.0,3.1,-198,276,0,14,160,-275,479.17610454559326,479.1761808395386,479.180228471756,479.1904830932617,479.3394606113434,479.3394606113434,479.3394606113434,479.3394606113434,479.3394606113434,479.3394606113434,479.3394606113434,485.30951952934265,3,6.104921817779541,None,,,,,,,,,,,,,,,,,,154,4,2025-02-28_09h55.10.790,comp,2024.2.4,54.160654632698844,2025-02-28 09h58.22.768219 -0500,
130,130,0,critical,dwh,20.0,1.0,upper,141.0,141.0,125.0,200.0,200.0,125.0,3,1.442749261856079,None,,,,,0,0,0,0,0,130,130,67,485.3251242637634,,,,,,,,,,,,,,,,,,,,,,,,,,,,,,,,,,,,,,,,,,,,,,,,,,,,,,,,,,,,,,,,,,,,,,,,,,,,,,,,,141.0,141.0,125.0,200.0,200.0,125.0,1.0,1.2,-266,19,0,6,258,-14,485.311083316803,485.3111650943756,485.3147954940796,485.3251242637634,485.48117995262146,485.48117995262146,485.48117995262146,485.48117995262146,485.48117995262146,485.48117995262146,485.48117995262146,486.78150367736816,3,1.442749261856079,None,,,,,,,,,,,,,,,,,,154,4,2025-02-28_09h55.10.790,comp,2024.2.4,54.160654632698844,2025-02-28 09h58.22.768219 -0500,
131,131,0,critical,wdh,35.0,1.0,upper,125.0,200.0,127.0,127.0,200.0,125.0,3,2.1701996326446533,None,,,,,0,0,0,0,0,131,131,73,486.79739141464233,,,,,,,,,,,,,,,,,,,,,,,,,,,,,,,,,,,,,,,,,,,,,,,,,,,,,,,,,,,,,,,,,,,,,,,,,,,,,,,,,125.0,200.0,127.0,127.0,200.0,125.0,1.0,1.2,-260,5,0,7,222,8,486.78329062461853,486.78347516059875,486.7866473197937,486.79739141464233,486.94462609291077,486.94462609291077,486.94462609291077,486.94462609291077,486.94462609291077,486.94462609291077,486.94462609291077,488.97149085998535,3,2.1701996326446533,None,,,,,,,,,,,,,,,,,,154,4,2025-02-28_09h55.10.790,comp,2024.2.4,54.160654632698844,2025-02-28 09h58.22.768219 -0500,
132,132,0,critical,wdh,35.0,3.0,upper,125.0,200.0,127.0,127.0,200.0,125.0,3,1.4018266201019287,None,,,,,0,0,0,0,0,132,132,75,488.98940682411194,,,,,,,,,,,,,,,,,,,,,,,,,,,,,,,,,,,,,,,,,,,,,,,,,,,,,,,,,,,,,,,,,,,,,,,,,,,,,,,,,125.0,200.0,127.0,127.0,200.0,125.0,3.0,3.1,-260,278,0,-18,222,-275,488.9730086326599,488.97308802604675,488.9760653972626,488.98940682411194,489.12811636924744,489.12811636924744,489.12811636924744,489.12811636924744,489.12811636924744,489.12811636924744,489.12811636924744,490.40100741386414,3,1.4018266201019287,None,,,,,,,,,,,,,,,,,,154,4,2025-02-28_09h55.10.790,comp,2024.2.4,54.160654632698844,2025-02-28 09h58.22.768219 -0500,
133,133,0,filler_random,None,None,None,None,None,None,None,None,None,None,3,0.9737570285797119,None,,,,,0,0,0,0,0,133,133,131,490.4175717830658,,,,,,,,,,,,,,,,,,,,,,,,,,,,,,,,,,,,,,,,,,,,,,,,,,,,,,,,,,,,,,,,,,,,,,,,,,,,,,,,,97.0187075454437,60.00339154529601,140.3843251886429,100.46104309628058,184.7353425762284,142.15464028382053,4.0,4.1,-176,-277,0,0,217,-261,490.40303921699524,490.40312147140503,490.40610003471375,490.4175717830658,490.561491727829,490.561491727829,490.561491727829,490.561491727829,490.561491727829,490.561491727829,490.561491727829,491.3949899673462,3,0.9737570285797119,None,,,,,,,,,,,,,,,,,,154,4,2025-02-28_09h55.10.790,comp,2024.2.4,54.160654632698844,2025-02-28 09h58.22.768219 -0500,
134,134,0,critical,hdw,35.0,1.0,upper,200.0,125.0,127.0,127.0,125.0,200.0,1,2.060824155807495,None,,,,,0,0,0,0,0,134,134,109,491.4109151363373,,,,,,,,,,,,,,,,,,,,,,,,,,,,,,,,,,,,,,,,,,,,,,,,,,,,,,,,,,,,,,,,,,,,,,,,,,,,,,,,,200.0,125.0,127.0,127.0,125.0,200.0,1.0,1.3,258,-262,480,-251,740,-289,491.3965675830841,491.3966484069824,491.4002046585083,491.4109151363373,491.5599014759064,491.5599014759064,491.5599014759064,491.5599014759064,491.5599014759064,491.5599014759064,491.5599014759064,493.4802551269531,1,2.060824155807495,None,,,,,,,,,,,,,,,,,,154,4,2025-02-28_09h55.10.790,comp,2024.2.4,54.160654632698844,2025-02-28 09h58.22.768219 -0500,
135,135,0,critical,hdw,20.0,2.1,lower,133.0,57.0,78.0,78.0,57.0,133.0,1,1.3344674110412598,None,,,,,0,0,0,0,0,135,135,46,493.4970943927765,,,,,,,,,,,,,,,,,,,,,,,,,,,,,,,,,,,,,,,,,,,,,,,,,,,,,,,,,,,,,,,,,,,,,,,,,,,,,,,,,133.0,57.0,78.0,78.0,57.0,133.0,2.1,2.12,-164,-262,0,-260,202,271,493.4818959236145,493.4819748401642,493.4854440689087,493.4970943927765,493.64476585388184,493.64476585388184,493.64476585388184,493.64476585388184,493.64476585388184,493.64476585388184,493.64476585388184,494.83780813217163,1,1.3344674110412598,None,,,,,,,,,,,,,,,,,,154,4,2025-02-28_09h55.10.790,comp,2024.2.4,54.160654632698844,2025-02-28 09h58.22.768219 -0500,
136,136,0,critical,dhw,20.0,3.0,upper,141.0,141.0,200.0,125.0,125.0,200.0,3,2.1598703861236572,None,,,,,0,0,0,0,0,136,136,57,494.85546016693115,,,,,,,,,,,,,,,,,,,,,,,,,,,,,,,,,,,,,,,,,,,,,,,,,,,,,,,,,,,,,,,,,,,,,,,,,,,,,,,,,141.0,141.0,200.0,125.0,125.0,200.0,3.0,3.1,-229,261,0,15,258,-285,494.8393406867981,494.839426279068,494.84246611595154,494.85546016693115,494.99602603912354,494.99602603912354,494.99602603912354,494.99602603912354,494.99602603912354,494.99602603912354,494.99602603912354,497.03313636779785,3,2.1598703861236572,None,,,,,,,,,,,,,,,,,,154,4,2025-02-28_09h55.10.790,comp,2024.2.4,54.160654632698844,2025-02-28 09h58.22.768219 -0500,
137,137,0,critical,dwh,35.0,2.1,lower,70.0,70.0,57.0,133.0,133.0,57.0,3,1.2950270175933838,None,,,,,0,0,0,0,0,137,137,4,497.0489242076874,,,,,,,,,,,,,,,,,,,,,,,,,,,,,,,,,,,,,,,,,,,,,,,,,,,,,,,,,,,,,,,,,,,,,,,,,,,,,,,,,70.0,70.0,57.0,133.0,133.0,57.0,2.1,2.11,-198,273,0,288,191,-286,497.0351939201355,497.0354449748993,497.0385057926178,497.0489242076874,497.19685339927673,497.19685339927673,497.19685339927673,497.19685339927673,497.19685339927673,497.19685339927673,497.19685339927673,498.36448073387146,3,1.2950270175933838,None,,,,,,,,,,,,,,,,,,154,4,2025-02-28_09h55.10.790,comp,2024.2.4,54.160654632698844,2025-02-28 09h58.22.768219 -0500,
138,138,0,critical,hwd,20.0,2.1,lower,133.0,57.0,57.0,133.0,78.0,78.0,1,1.255143642425537,None,,,,,0,0,0,0,0,138,138,42,498.3844428062439,,,,,,,,,,,,,,,,,,,,,,,,,,,,,,,,,,,,,,,,,,,,,,,,,,,,,,,,,,,,,,,,,,,,,,,,,,,,,,,,,133.0,57.0,57.0,133.0,78.0,78.0,2.1,2.12,-191,-270,0,-259,202,279,498.36603569984436,498.36611580848694,498.3691864013672,498.3844428062439,498.5308711528778,498.5308711528778,498.5308711528778,498.5308711528778,498.5308711528778,498.5308711528778,498.5308711528778,499.6438491344452,1,1.255143642425537,None,,,,,,,,,,,,,,,,,,154,4,2025-02-28_09h55.10.790,comp,2024.2.4,54.160654632698844,2025-02-28 09h58.22.768219 -0500,
139,139,0,filler_random,None,None,None,None,None,None,None,None,None,None,3,1.135453462600708,None,,,,,0,0,0,0,0,139,139,143,499.66398000717163,,,,,,,,,,,,,,,,,,,,,,,,,,,,,,,,,,,,,,,,,,,,,,,,,,,,,,,,,,,,,,,,,,,,,,,,,,,,,,,,,60.20923002348148,58.5497688176069,60.28279852699945,117.09838866999488,171.2307612955122,98.97160702123149,1.0,1.3,296,-282,480,-269,684,-278,499.6455888748169,499.6456699371338,499.6486268043518,499.66398000717163,499.8173952102661,499.8173952102661,499.8173952102661,499.8173952102661,499.8173952102661,499.8173952102661,499.8173952102661,500.81494784355164,3,1.135453462600708,None,,,,,,,,,,,,,,,,,,154,4,2025-02-28_09h55.10.790,comp,2024.2.4,54.160654632698844,2025-02-28 09h58.22.768219 -0500,
