thisN,thisTrialN,thisRepN,effect,order,distance,config,diag,h_1,w_1,h_2,w_2,h_3,w_3,rect_choice.keys,rect_choice.rt,rect_choice.duration,instructions_loop.thisRepN,instructions_loop.thisTrialN,instructions_loop.thisN,instructions_loop.thisIndex,blocks.thisRepN,blocks.thisTrialN,blocks.thisN,blocks.thisIndex,trials.thisRepN,trials.thisTrialN,trials.thisN,trials.thisIndex,thisRow.t,notes,consent.started,agree_button.started,decline_button.started,consent_img.started,mouse.started,consent.stopped,agree_button.numClicks,agree_button.timesOn,agree_button.timesOff,decline_button.numClicks,decline_button.timesOn,decline_button.timesOff,mouse.x,mouse.y,mouse.leftButton,mouse.midButton,mouse.rightButton,mouse.time,mouse.clicked_name,exp_params.started,exp_params.stopped,welcome.started,welcome_text.started,welcome.stopped,instructions_1.started,instructions_1_text_1.started,instructions_1_text_2.started,key_resp.started,instructions_1.stopped,instructions_loop.key_resp.keys,instructions_loop.key_resp.rt,instructions_loop.key_resp.duration,instructions_2.started,instructions_2_text_1.started,instructions_2_text_2.started,key_resp_2.started,instructions_2.stopped,instructions_loop.key_resp_2.keys,instructions_loop.key_resp_2.rt,instructions_loop.key_resp_2.duration,instructions_3.started,instructions_3_text_1.started,r1_instr3.started,r2_instr3.started,r3_instr3.started,r1_instr3_label.started,r2_instr3_label.started,r3_instr3_label.started,instructions_3_text_3.started,instructions_3_text_4.started,key_resp_3.started,instructions_3.stopped,instructions_loop.key_resp_3.keys,instructions_loop.key_resp_3.rt,instructions_loop.key_resp_3.duration,instructions_4.started,instructions_4_text_1.started,instructions_4_text_3.started,instructions_4_text_2.started,key_resp_4.started,instructions_4.stopped,instructions_loop.key_resp_4.keys,instructions_loop.key_resp_4.rt,instructions_loop.key_resp_4.duration,instructions_5.started,instructions_5_text_1.started,instructions_5_text_2.started,key_resp_5.started,instructions_5.stopped,instructions_loop.key_resp_5.keys,instructions_loop.key_resp_5.rt,instructions_loop.key_resp_5.duration,start_exp.started,start_exp_text.started,key_resp_6.started,start_exp.stopped,key_resp_6.keys,key_resp_6.rt,key_resp_6.duration,h_1_tmp,w_1_tmp,h_2_tmp,w_2_tmp,h_3_tmp,w_3_tmp,config_tmp,config_tmp_1,r_1_x,r_1_y,r_2_x,r_2_y,r_3_x,r_3_y,pre_trial.started,pre_trial.stopped,choice_trial.started,rect_choice.started,r_1.started,r_2.started,r_3.started,r_1_label.started,r_2_label.started,r_3_label.started,prompt.started,choice_trial.stopped,trials.rect_choice.keys,trials.rect_choice.rt,trials.rect_choice.duration,end_block.started,end_block_text.started,end_block.stopped,end.started,end_text.started,key_resp_7.started,end.stopped,key_resp_7.keys,key_resp_7.rt,key_resp_7.duration,debriefing.started,debrief_form.started,end_debrief.started,debriefing.stopped,end_debrief.keys,end_debrief.rt,end_debrief.duration,participant,computer,date,expName,psychopyVersion,frameRate,expStart,
,,,,,,,,,,,,,,,,,,,,,,,,,,,,,,,0.04179215431213379,0.13348984718322754,0.13348984718322754,0.13348984718322754,0.041225433349609375,7.03152322769165,1,[6.896770238876343],[6.896782159805298],0,,,[-68.0],[-493.0],[1],[0],[0],[6.978023052215576],['agree_button'],,,,,,,,,,,,,,,,,,,,,,,,,,,,,,,,,,,,,,,,,,,,,,,,,,,,,,,,,,,,,,,,,,,,,,,,,,,,,,,,,,,,,,,,,,,,,,,,,,,,,,,,,,,155,5,2025-02-28_09h54.01.515,comp,2024.2.4,61.13726902092714,2025-02-28 09h57.50.189861 -0500,
,,,,,,,,,,,,,,,,,,,,,,,,,,,,,,,,,,,,,,,,,,,,,,,,,,7.031786680221558,7.031821250915527,,,,,,,,,,,,,,,,,,,,,,,,,,,,,,,,,,,,,,,,,,,,,,,,,,,,,,,,,,,,,,,,,,,,,,,,,,,,,,,,,,,,,,,,,,,,,,,,,,,,,,,,,155,5,2025-02-28_09h54.01.515,comp,2024.2.4,61.13726902092714,2025-02-28 09h57.50.189861 -0500,
,,,,,,,,,,,,,,,,,,,,,,,,,,,,,,,,,,,,,,,,,,,,,,,,,,,,7.031844854354858,7.057875156402588,9.04053521156311,,,,,,,,,,,,,,,,,,,,,,,,,,,,,,,,,,,,,,,,,,,,,,,,,,,,,,,,,,,,,,,,,,,,,,,,,,,,,,,,,,,,,,,,,,,,,,,,,,,,,,155,5,2025-02-28_09h54.01.515,comp,2024.2.4,61.13726902092714,2025-02-28 09h57.50.189861 -0500,
0,0,0,,,,,,,,,,,,,,,0,0,0,0,,,,,,,,,9.05724573135376,,,,,,,,,,,,,,,,,,,,,,,,,,9.04106616973877,9.05724573135376,9.05724573135376,10.540509462356567,13.042009353637695,space,2.483980417251587,None,13.04209280014038,13.05733871459961,13.05733871459961,14.5572509765625,24.424793243408203,space,9.856199979782104,None,24.424872636795044,24.447248935699463,24.447248935699463,24.447248935699463,24.447248935699463,24.447248935699463,24.447248935699463,24.447248935699463,24.447248935699463,24.447248935699463,25.924163818359375,40.15860104560852,space,14.217405796051025,None,40.15868425369263,40.17403507232666,40.17403507232666,40.17403507232666,41.673744678497314,52.14152526855469,space,10.460563659667969,None,52.14160704612732,52.15728306770325,52.15728306770325,53.6569139957428,55.37475037574768,space,1.7095088958740234,None,55.374863386154175,55.390467405319214,55.390467405319214,56.541186571121216,space,1.1349012851715088,None,,,,,,,,,,,,,,,,,,,,,,,,,,,,,,,,,,,,,,,,,,,,,,,155,5,2025-02-28_09h54.01.515,comp,2024.2.4,61.13726902092714,2025-02-28 09h57.50.189861 -0500,
0,0,0,critical,dwh,20.0,2.1,upper,141.0,141.0,125.0,200.0,200.0,125.0,2,24.51548933982849,None,,,,,0,0,0,0,0,0,0,31,56.713610887527466,,,,,,,,,,,,,,,,,,,,,,,,,,,,,,,,,,,,,,,,,,,,,,,,,,,,,,,,,,,,,,,,,,,,,,,,,,,,,,,,,141.0,141.0,125.0,200.0,200.0,125.0,2.1,2.11,-266,280,0,288,258,-250,56.70012044906616,56.70018196105957,56.70218515396118,56.713610887527466,56.859591007232666,56.859591007232666,56.859591007232666,56.859591007232666,56.859591007232666,56.859591007232666,56.859591007232666,81.24154090881348,2,24.51548933982849,None,,,,,,,,,,,,,,,,,,155,5,2025-02-28_09h54.01.515,comp,2024.2.4,61.13726902092714,2025-02-28 09h57.50.189861 -0500,
1,1,0,critical,hdw,35.0,2.1,lower,133.0,57.0,70.0,70.0,57.0,133.0,3,23.06852674484253,None,,,,,0,0,0,0,0,1,1,20,81.25669503211975,,,,,,,,,,,,,,,,,,,,,,,,,,,,,,,,,,,,,,,,,,,,,,,,,,,,,,,,,,,,,,,,,,,,,,,,,,,,,,,,,133.0,57.0,70.0,70.0,57.0,133.0,2.1,2.12,-160,-284,0,-277,198,280,81.24236726760864,81.24240565299988,81.24475359916687,81.25669503211975,81.40676760673523,81.40676760673523,81.40676760673523,81.40676760673523,81.40676760673523,81.40676760673523,81.40676760673523,104.341055393219,3,23.06852674484253,None,,,,,,,,,,,,,,,,,,155,5,2025-02-28_09h54.01.515,comp,2024.2.4,61.13726902092714,2025-02-28 09h57.50.189861 -0500,
2,2,0,critical,whd,20.0,1.0,lower,57.0,133.0,133.0,57.0,78.0,78.0,3,22.78421664237976,None,,,,,0,0,0,0,0,2,2,90,104.35664558410645,,,,,,,,,,,,,,,,,,,,,,,,,,,,,,,,,,,,,,,,,,,,,,,,,,,,,,,,,,,,,,,,,,,,,,,,,,,,,,,,,57.0,133.0,133.0,57.0,78.0,78.0,1.0,1.3,289,-278,480,-271,644,-281,104.34185242652893,104.34189057350159,104.34442400932312,104.35664558410645,104.50671935081482,104.50671935081482,104.50671935081482,104.50671935081482,104.50671935081482,104.50671935081482,104.50671935081482,127.15805053710938,3,22.78421664237976,None,,,,,,,,,,,,,,,,,,155,5,2025-02-28_09h54.01.515,comp,2024.2.4,61.13726902092714,2025-02-28 09h57.50.189861 -0500,
3,3,0,filler_square,None,None,None,None,None,None,None,None,None,None,3,1.5838913917541504,None,,,,,0,0,0,0,0,3,3,171,127.17315912246704,,,,,,,,,,,,,,,,,,,,,,,,,,,,,,,,,,,,,,,,,,,,,,,,,,,,,,,,,,,,,,,,,,,,,,,,,,,,,,,,,66.49625681602117,95.18552547302966,111.09392181594797,99.57126224920381,157.938685798222,157.938685798222,3.0,3.1,-193,277,0,-8,225,-284,127.15910959243774,127.15915107727051,127.16107201576233,127.17315912246704,127.32391428947449,127.32391428947449,127.32391428947449,127.32391428947449,127.32391428947449,127.32391428947449,127.32391428947449,128.77445769309998,3,1.5838913917541504,None,,,,,,,,,,,,,,,,,,155,5,2025-02-28_09h54.01.515,comp,2024.2.4,61.13726902092714,2025-02-28 09h57.50.189861 -0500,
4,4,0,filler_random,None,None,None,None,None,None,None,None,None,None,2,2.033466100692749,None,,,,,0,0,0,0,0,4,4,133,128.7897732257843,,,,,,,,,,,,,,,,,,,,,,,,,,,,,,,,,,,,,,,,,,,,,,,,,,,,,,,,,,,,,,,,,,,,,,,,,,,,,,,,,126.87512296975795,84.53252841091347,169.7212742785714,108.94579679506936,67.43985655322196,148.74596209371032,4.0,4.1,-193,-263,0,7,225,-283,128.77536392211914,128.7754044532776,128.77775955200195,128.7897732257843,128.9399538040161,128.9399538040161,128.9399538040161,128.9399538040161,128.9399538040161,128.9399538040161,128.9399538040161,130.82453560829163,2,2.033466100692749,None,,,,,,,,,,,,,,,,,,155,5,2025-02-28_09h54.01.515,comp,2024.2.4,61.13726902092714,2025-02-28 09h57.50.189861 -0500,
5,5,0,critical,dhw,20.0,3.0,upper,141.0,141.0,200.0,125.0,125.0,200.0,1,4.325823068618774,None,,,,,0,0,0,0,0,5,5,57,130.8398802280426,,,,,,,,,,,,,,,,,,,,,,,,,,,,,,,,,,,,,,,,,,,,,,,,,,,,,,,,,,,,,,,,,,,,,,,,,,,,,,,,,141.0,141.0,200.0,125.0,125.0,200.0,3.0,3.2,-229,-269,0,-12,258,257,130.82532238960266,130.8253619670868,130.82744908332825,130.8398802280426,130.98998069763184,130.98998069763184,130.98998069763184,130.98998069763184,130.98998069763184,130.98998069763184,130.98998069763184,135.1744532585144,1,4.325823068618774,None,,,,,,,,,,,,,,,,,,155,5,2025-02-28_09h54.01.515,comp,2024.2.4,61.13726902092714,2025-02-28 09h57.50.189861 -0500,
6,6,0,catch,None,None,None,None,None,None,None,None,None,None,2,1.816741943359375,None,,,,,0,0,0,0,0,6,6,120,135.18991565704346,,,,,,,,,,,,,,,,,,,,,,,,,,,,,,,,,,,,,,,,,,,,,,,,,,,,,,,,,,,,,,,,,,,,,,,,,,,,,,,,,85,105,139,186,107,83,2.1,2.11,-242,274,0,276,230,-269,135.17548966407776,135.1755313873291,135.17766571044922,135.18991565704346,135.33981919288635,135.33981919288635,135.33981919288635,135.33981919288635,135.33981919288635,135.33981919288635,135.33981919288635,137.02429008483887,2,1.816741943359375,None,,,,,,,,,,,,,,,,,,155,5,2025-02-28_09h54.01.515,comp,2024.2.4,61.13726902092714,2025-02-28 09h57.50.189861 -0500,
7,7,0,critical,hdw,20.0,3.0,upper,200.0,125.0,141.0,141.0,125.0,200.0,1,3.4051690101623535,None,,,,,0,0,0,0,0,7,7,117,137.0394983291626,,,,,,,,,,,,,,,,,,,,,,,,,,,,,,,,,,,,,,,,,,,,,,,,,,,,,,,,,,,,,,,,,,,,,,,,,,,,,,,,,200.0,125.0,141.0,141.0,125.0,200.0,3.0,3.1,-229,285,0,8,266,-254,137.0250723361969,137.0251109600067,137.0274143218994,137.0394983291626,137.1900417804718,137.1900417804718,137.1900417804718,137.1900417804718,137.1900417804718,137.1900417804718,137.1900417804718,140.4577920436859,1,3.4051690101623535,None,,,,,,,,,,,,,,,,,,155,5,2025-02-28_09h54.01.515,comp,2024.2.4,61.13726902092714,2025-02-28 09h57.50.189861 -0500,
8,8,0,critical,whd,20.0,1.0,upper,125.0,200.0,200.0,125.0,141.0,141.0,1,1.3172130584716797,None,,,,,0,0,0,0,0,8,8,91,140.4729700088501,,,,,,,,,,,,,,,,,,,,,,,,,,,,,,,,,,,,,,,,,,,,,,,,,,,,,,,,,,,,,,,,,,,,,,,,,,,,,,,,,125.0,200.0,200.0,125.0,141.0,141.0,1.0,1.3,222,-260,480,-260,709,-283,140.45855712890625,140.45859456062317,140.46093463897705,140.4729700088501,140.62331867218018,140.62331867218018,140.62331867218018,140.62331867218018,140.62331867218018,140.62331867218018,140.62331867218018,141.79139804840088,1,1.3172130584716797,None,,,,,,,,,,,,,,,,,,155,5,2025-02-28_09h54.01.515,comp,2024.2.4,61.13726902092714,2025-02-28 09h57.50.189861 -0500,
9,9,0,critical,wdh,20.0,2.1,upper,125.0,200.0,141.0,141.0,200.0,125.0,1,3.583641290664673,None,,,,,0,0,0,0,0,9,9,35,141.80646300315857,,,,,,,,,,,,,,,,,,,,,,,,,,,,,,,,,,,,,,,,,,,,,,,,,,,,,,,,,,,,,,,,,,,,,,,,,,,,,,,,,125.0,200.0,141.0,141.0,200.0,125.0,2.1,2.11,-266,272,0,289,229,-264,141.79223155975342,141.7922761440277,141.79447555541992,141.80646300315857,141.95698404312134,141.95698404312134,141.95698404312134,141.95698404312134,141.95698404312134,141.95698404312134,141.95698404312134,145.40776252746582,1,3.583641290664673,None,,,,,,,,,,,,,,,,,,155,5,2025-02-28_09h54.01.515,comp,2024.2.4,61.13726902092714,2025-02-28 09h57.50.189861 -0500,
10,10,0,filler_random,None,None,None,None,None,None,None,None,None,None,3,4.8056066036224365,None,,,,,0,0,0,0,0,10,10,134,145.42303133010864,,,,,,,,,,,,,,,,,,,,,,,,,,,,,,,,,,,,,,,,,,,,,,,,,,,,,,,,,,,,,,,,,,,,,,,,,,,,,,,,,145.5253283395317,75.43332869302046,83.64068824676102,103.06433211756685,63.804778854277515,73.68365433911785,1.0,1.1,-665,274,-480,278,-296,270,145.40868496894836,145.40872478485107,145.41112065315247,145.42303133010864,145.57309412956238,145.57309412956238,145.57309412956238,145.57309412956238,145.57309412956238,145.57309412956238,145.57309412956238,150.24101185798645,3,4.8056066036224365,None,,,,,,,,,,,,,,,,,,155,5,2025-02-28_09h54.01.515,comp,2024.2.4,61.13726902092714,2025-02-28 09h57.50.189861 -0500,
11,11,0,critical,hdw,35.0,2.1,lower,133.0,57.0,70.0,70.0,57.0,133.0,1,3.725281238555908,None,,,,,0,0,0,0,0,11,11,44,150.25621366500854,,,,,,,,,,,,,,,,,,,,,,,,,,,,,,,,,,,,,,,,,,,,,,,,,,,,,,,,,,,,,,,,,,,,,,,,,,,,,,,,,133.0,57.0,70.0,70.0,57.0,133.0,2.1,2.12,-160,-254,0,-261,198,266,150.2418234348297,150.24186277389526,150.24438881874084,150.25621366500854,150.40637183189392,150.40637183189392,150.40637183189392,150.40637183189392,150.40637183189392,150.40637183189392,150.40637183189392,153.99069237709045,1,3.725281238555908,None,,,,,,,,,,,,,,,,,,155,5,2025-02-28_09h54.01.515,comp,2024.2.4,61.13726902092714,2025-02-28 09h57.50.189861 -0500,
12,12,0,critical,whd,20.0,4.0,lower,57.0,133.0,133.0,57.0,78.0,78.0,2,2.0220437049865723,None,,,,,0,0,0,0,0,12,12,94,154.00651669502258,,,,,,,,,,,,,,,,,,,,,,,,,,,,,,,,,,,,,,,,,,,,,,,,,,,,,,,,,,,,,,,,,,,,,,,,,,,,,,,,,57.0,133.0,133.0,57.0,78.0,78.0,4.0,4.1,-191,-276,0,-6,164,-273,153.9914984703064,153.99153852462769,153.9935200214386,154.00651669502258,154.15626502037048,154.15626502037048,154.15626502037048,154.15626502037048,154.15626502037048,154.15626502037048,154.15626502037048,156.0409562587738,2,2.0220437049865723,None,,,,,,,,,,,,,,,,,,155,5,2025-02-28_09h54.01.515,comp,2024.2.4,61.13726902092714,2025-02-28 09h57.50.189861 -0500,
13,13,0,critical,dwh,35.0,1.0,lower,70.0,70.0,57.0,133.0,133.0,57.0,2,15.156344890594482,None,,,,,0,0,0,0,0,13,13,60,156.05611896514893,,,,,,,,,,,,,,,,,,,,,,,,,,,,,,,,,,,,,,,,,,,,,,,,,,,,,,,,,,,,,,,,,,,,,,,,,,,,,,,,,70.0,70.0,57.0,133.0,133.0,57.0,1.0,1.1,-678,255,-480,280,-289,285,156.0417354106903,156.0417742729187,156.04429817199707,156.05611896514893,156.20631670951843,156.20631670951843,156.20631670951843,156.20631670951843,156.20631670951843,156.20631670951843,156.20631670951843,171.22381782531738,2,15.156344890594482,None,,,,,,,,,,,,,,,,,,155,5,2025-02-28_09h54.01.515,comp,2024.2.4,61.13726902092714,2025-02-28 09h57.50.189861 -0500,
14,14,0,filler_random,None,None,None,None,None,None,None,None,None,None,1,2.3168015480041504,None,,,,,0,0,0,0,0,14,14,136,171.23984217643738,,,,,,,,,,,,,,,,,,,,,,,,,,,,,,,,,,,,,,,,,,,,,,,,,,,,,,,,,,,,,,,,,,,,,,,,,,,,,,,,,139.1977211945791,89.73329131787051,196.9599654485431,85.4786557696601,186.3125677762442,57.529776921568,4.0,4.2,-184,-8,0,-257,168,8,171.22470355033875,171.22474360466003,171.22726941108704,171.23984217643738,171.38954210281372,171.38954210281372,171.38954210281372,171.38954210281372,171.38954210281372,171.38954210281372,171.38954210281372,173.55775094032288,1,2.3168015480041504,None,,,,,,,,,,,,,,,,,,155,5,2025-02-28_09h54.01.515,comp,2024.2.4,61.13726902092714,2025-02-28 09h57.50.189861 -0500,
15,15,0,catch,None,None,None,None,None,None,None,None,None,None,2,1.6714363098144531,None,,,,,0,0,0,0,0,15,15,128,173.5729284286499,,,,,,,,,,,,,,,,,,,,,,,,,,,,,,,,,,,,,,,,,,,,,,,,,,,,,,,,,,,,,,,,,,,,,,,,,,,,,,,,,103,87,158,167,65,125,1.0,1.2,-223,-3,0,7,242,16,173.5587763786316,173.55881929397583,173.5608949661255,173.5729284286499,173.72302389144897,173.72302389144897,173.72302389144897,173.72302389144897,173.72302389144897,173.72302389144897,173.72302389144897,175.257319688797,2,1.6714363098144531,None,,,,,,,,,,,,,,,,,,155,5,2025-02-28_09h54.01.515,comp,2024.2.4,61.13726902092714,2025-02-28 09h57.50.189861 -0500,
16,16,0,critical,dwh,35.0,4.0,upper,127.0,127.0,125.0,200.0,200.0,125.0,2,13.484063148498535,None,,,,,0,0,0,0,0,16,16,65,175.27266907691956,,,,,,,,,,,,,,,,,,,,,,,,,,,,,,,,,,,,,,,,,,,,,,,,,,,,,,,,,,,,,,,,,,,,,,,,,,,,,,,,,127.0,127.0,125.0,200.0,200.0,125.0,4.0,4.2,-260,19,0,-277,258,13,175.25810623168945,175.2581446170807,175.26043558120728,175.27266907691956,175.42302870750427,175.42302870750427,175.42302870750427,175.42302870750427,175.42302870750427,175.42302870750427,175.42302870750427,188.77400541305542,2,13.484063148498535,None,,,,,,,,,,,,,,,,,,155,5,2025-02-28_09h54.01.515,comp,2024.2.4,61.13726902092714,2025-02-28 09h57.50.189861 -0500,
17,17,0,critical,hwd,35.0,1.0,lower,133.0,57.0,57.0,133.0,70.0,70.0,1,2.9673068523406982,None,,,,,0,0,0,0,0,17,17,96,188.78915643692017,,,,,,,,,,,,,,,,,,,,,,,,,,,,,,,,,,,,,,,,,,,,,,,,,,,,,,,,,,,,,,,,,,,,,,,,,,,,,,,,,133.0,57.0,57.0,133.0,70.0,70.0,1.0,1.2,-191,3,0,17,198,14,188.7747881412506,188.77482867240906,188.7773780822754,188.78915643692017,188.93929934501648,188.93929934501648,188.93929934501648,188.93929934501648,188.93929934501648,188.93929934501648,188.93929934501648,191.7739553451538,1,2.9673068523406982,None,,,,,,,,,,,,,,,,,,155,5,2025-02-28_09h54.01.515,comp,2024.2.4,61.13726902092714,2025-02-28 09h57.50.189861 -0500,
18,18,0,critical,dwh,20.0,1.0,lower,78.0,78.0,57.0,133.0,133.0,57.0,2,21.638882875442505,None,,,,,0,0,0,0,0,18,18,66,191.78928232192993,,,,,,,,,,,,,,,,,,,,,,,,,,,,,,,,,,,,,,,,,,,,,,,,,,,,,,,,,,,,,,,,,,,,,,,,,,,,,,,,,78.0,78.0,57.0,133.0,133.0,57.0,1.0,1.1,-682,250,-480,290,-289,261,191.77475595474243,191.7747974395752,191.7772936820984,191.78928232192993,191.93938493728638,191.93938493728638,191.93938493728638,191.93938493728638,191.93938493728638,191.93938493728638,191.93938493728638,213.44059252738953,2,21.638882875442505,None,,,,,,,,,,,,,,,,,,155,5,2025-02-28_09h54.01.515,comp,2024.2.4,61.13726902092714,2025-02-28 09h57.50.189861 -0500,
19,19,0,critical,hdw,35.0,2.1,upper,200.0,125.0,127.0,127.0,125.0,200.0,1,1.8523261547088623,None,,,,,0,0,0,0,0,19,19,45,213.4558711051941,,,,,,,,,,,,,,,,,,,,,,,,,,,,,,,,,,,,,,,,,,,,,,,,,,,,,,,,,,,,,,,,,,,,,,,,,,,,,,,,,200.0,125.0,127.0,127.0,125.0,200.0,2.1,2.11,-222,254,0,259,260,-256,213.44140529632568,213.44144535064697,213.44400238990784,213.4558711051941,213.60599088668823,213.60599088668823,213.60599088668823,213.60599088668823,213.60599088668823,213.60599088668823,213.60599088668823,215.3237771987915,1,1.8523261547088623,None,,,,,,,,,,,,,,,,,,155,5,2025-02-28_09h54.01.515,comp,2024.2.4,61.13726902092714,2025-02-28 09h57.50.189861 -0500,
20,20,0,filler_random,None,None,None,None,None,None,None,None,None,None,3,3.3691933155059814,None,,,,,0,0,0,0,0,20,20,142,215.3391559123993,,,,,,,,,,,,,,,,,,,,,,,,,,,,,,,,,,,,,,,,,,,,,,,,,,,,,,,,,,,,,,,,,,,,,,,,,,,,,,,,,175.0469851092315,90.24593369147412,199.14118600069855,58.59009411197684,175.1170230104794,191.4530347138007,2.2,2.21,-170,-285,0,287,221,288,215.32473731040955,215.3247790336609,215.3273012638092,215.3391559123993,215.48935794830322,215.48935794830322,215.48935794830322,215.48935794830322,215.48935794830322,215.48935794830322,215.48935794830322,218.72395515441895,3,3.3691933155059814,None,,,,,,,,,,,,,,,,,,155,5,2025-02-28_09h54.01.515,comp,2024.2.4,61.13726902092714,2025-02-28 09h57.50.189861 -0500,
21,21,0,filler_square,None,None,None,None,None,None,None,None,None,None,3,1.8583645820617676,None,,,,,0,0,0,0,0,21,21,174,218.73916506767273,,,,,,,,,,,,,,,,,,,,,,,,,,,,,,,,,,,,,,,,,,,,,,,,,,,,,,,,,,,,,,,,,,,,,,,,,,,,,,,,,147.8651391351057,87.81479383106668,97.82131837654487,99.12528293471655,152.06258071495415,152.06258071495415,4.0,4.2,-189,-14,0,-273,222,-18,218.72487711906433,218.7249162197113,218.72750115394592,218.73916506767273,218.88944363594055,218.88944363594055,218.88944363594055,218.88944363594055,218.88944363594055,218.88944363594055,218.88944363594055,220.60712552070618,3,1.8583645820617676,None,,,,,,,,,,,,,,,,,,155,5,2025-02-28_09h54.01.515,comp,2024.2.4,61.13726902092714,2025-02-28 09h57.50.189861 -0500,
22,22,0,critical,whd,35.0,4.0,lower,57.0,133.0,133.0,57.0,70.0,70.0,1,27.805248260498047,None,,,,,0,0,0,0,0,22,22,88,220.62265849113464,,,,,,,,,,,,,,,,,,,,,,,,,,,,,,,,,,,,,,,,,,,,,,,,,,,,,,,,,,,,,,,,,,,,,,,,,,,,,,,,,57.0,133.0,133.0,57.0,70.0,70.0,4.0,4.1,-191,-290,0,-3,160,-286,220.607923746109,220.6079626083374,220.61020159721375,220.62265849113464,220.77246713638306,220.77246713638306,220.77246713638306,220.77246713638306,220.77246713638306,220.77246713638306,220.77246713638306,248.44032549858093,1,27.805248260498047,None,,,,,,,,,,,,,,,,,,155,5,2025-02-28_09h54.01.515,comp,2024.2.4,61.13726902092714,2025-02-28 09h57.50.189861 -0500,
23,23,0,critical,whd,20.0,4.0,upper,125.0,200.0,200.0,125.0,141.0,141.0,1,5.183170795440674,None,,,,,0,0,0,0,0,23,23,95,248.4555459022522,,,,,,,,,,,,,,,,,,,,,,,,,,,,,,,,,,,,,,,,,,,,,,,,,,,,,,,,,,,,,,,,,,,,,,,,,,,,,,,,,125.0,200.0,200.0,125.0,141.0,141.0,4.0,4.1,-258,-262,0,2,229,-271,248.4411153793335,248.44115447998047,248.44350790977478,248.4555459022522,248.60590839385986,248.60590839385986,248.60590839385986,248.60590839385986,248.60590839385986,248.60590839385986,248.60590839385986,253.64032530784607,1,5.183170795440674,None,,,,,,,,,,,,,,,,,,155,5,2025-02-28_09h54.01.515,comp,2024.2.4,61.13726902092714,2025-02-28 09h57.50.189861 -0500,
24,24,0,critical,dhw,35.0,3.0,lower,70.0,70.0,133.0,57.0,57.0,133.0,2,3.3827271461486816,None,,,,,0,0,0,0,0,24,24,50,253.65574884414673,,,,,,,,,,,,,,,,,,,,,,,,,,,,,,,,,,,,,,,,,,,,,,,,,,,,,,,,,,,,,,,,,,,,,,,,,,,,,,,,,70.0,70.0,133.0,57.0,57.0,133.0,3.0,3.2,-160,-278,0,3,191,273,253.64113330841064,253.6411874294281,253.64325976371765,253.65574884414673,253.80569338798523,253.80569338798523,253.80569338798523,253.80569338798523,253.80569338798523,253.80569338798523,253.80569338798523,257.0566523075104,2,3.3827271461486816,None,,,,,,,,,,,,,,,,,,155,5,2025-02-28_09h54.01.515,comp,2024.2.4,61.13726902092714,2025-02-28 09h57.50.189861 -0500,
25,25,0,filler_random,None,None,None,None,None,None,None,None,None,None,1,2.782299518585205,None,,,,,0,0,0,0,0,25,25,132,257.0720884799957,,,,,,,,,,,,,,,,,,,,,,,,,,,,,,,,,,,,,,,,,,,,,,,,,,,,,,,,,,,,,,,,,,,,,,,,,,,,,,,,,125.18131905248985,160.3018847250042,89.1316559887922,193.47051586337744,63.95236940310312,141.4540472056117,2.1,2.12,-273,-282,0,-275,263,268,257.0576636791229,257.0577042102814,257.06022095680237,257.0720884799957,257.22227001190186,257.22227001190186,257.22227001190186,257.22227001190186,257.22227001190186,257.22227001190186,257.22227001190186,259.85687160491943,1,2.782299518585205,None,,,,,,,,,,,,,,,,,,155,5,2025-02-28_09h54.01.515,comp,2024.2.4,61.13726902092714,2025-02-28 09h57.50.189861 -0500,
26,26,0,filler_square,None,None,None,None,None,None,None,None,None,None,1,1.500389575958252,None,,,,,0,0,0,0,0,26,26,192,259.8723204135895,,,,,,,,,,,,,,,,,,,,,,,,,,,,,,,,,,,,,,,,,,,,,,,,,,,,,,,,,,,,,,,,,,,,,,,,,,,,,,,,,182.99022663157828,182.99022663157828,125.08568925776065,113.91343022997165,125.0203753993204,116.50743254547172,3.0,3.1,-244,289,0,-2,211,-276,259.8577983379364,259.85783791542053,259.8603482246399,259.8723204135895,260.02252292633057,260.02252292633057,260.02252292633057,260.02252292633057,260.02252292633057,260.02252292633057,260.02252292633057,261.39001631736755,1,1.500389575958252,None,,,,,,,,,,,,,,,,,,155,5,2025-02-28_09h54.01.515,comp,2024.2.4,61.13726902092714,2025-02-28 09h57.50.189861 -0500,
27,27,0,critical,dwh,20.0,4.0,upper,141.0,141.0,125.0,200.0,200.0,125.0,3,2.1184704303741455,None,,,,,0,0,0,0,0,27,27,71,261.4053695201874,,,,,,,,,,,,,,,,,,,,,,,,,,,,,,,,,,,,,,,,,,,,,,,,,,,,,,,,,,,,,,,,,,,,,,,,,,,,,,,,,141.0,141.0,125.0,200.0,200.0,125.0,4.0,4.1,-266,-260,0,11,258,-269,261.39080357551575,261.3908438682556,261.39341378211975,261.4053695201874,261.5558261871338,261.5558261871338,261.5558261871338,261.5558261871338,261.5558261871338,261.5558261871338,261.5558261871338,263.5401589870453,3,2.1184704303741455,None,,,,,,,,,,,,,,,,,,155,5,2025-02-28_09h54.01.515,comp,2024.2.4,61.13726902092714,2025-02-28 09h57.50.189861 -0500,
28,28,0,critical,dwh,20.0,3.0,upper,141.0,141.0,125.0,200.0,200.0,125.0,2,3.8563432693481445,None,,,,,0,0,0,0,0,28,28,69,263.555388212204,,,,,,,,,,,,,,,,,,,,,,,,,,,,,,,,,,,,,,,,,,,,,,,,,,,,,,,,,,,,,,,,,,,,,,,,,,,,,,,,,141.0,141.0,125.0,200.0,200.0,125.0,3.0,3.2,-266,-287,0,-20,258,289,263.54096031188965,263.5410006046295,263.5430324077606,263.555388212204,263.70593905448914,263.70593905448914,263.70593905448914,263.70593905448914,263.70593905448914,263.70593905448914,263.70593905448914,267.4236886501312,2,3.8563432693481445,None,,,,,,,,,,,,,,,,,,155,5,2025-02-28_09h54.01.515,comp,2024.2.4,61.13726902092714,2025-02-28 09h57.50.189861 -0500,
29,29,0,filler_square,None,None,None,None,None,None,None,None,None,None,1,1.0850496292114258,None,,,,,0,0,0,0,0,29,29,183,267.43875670433044,,,,,,,,,,,,,,,,,,,,,,,,,,,,,,,,,,,,,,,,,,,,,,,,,,,,,,,,,,,,,,,,,,,,,,,,,,,,,,,,,193.49840491209267,193.49840491209267,129.0342566163257,191.8438012812114,137.314567461389,68.21148032778792,4.0,4.2,-289,-11,0,-288,226,-16,267.4246573448181,267.42469811439514,267.42710542678833,267.43875670433044,267.58898401260376,267.58898401260376,267.58898401260376,267.58898401260376,267.58898401260376,267.58898401260376,267.58898401260376,268.54008507728577,1,1.0850496292114258,None,,,,,,,,,,,,,,,,,,155,5,2025-02-28_09h54.01.515,comp,2024.2.4,61.13726902092714,2025-02-28 09h57.50.189861 -0500,
30,30,0,critical,hwd,35.0,2.1,lower,133.0,57.0,57.0,133.0,70.0,70.0,1,4.961264133453369,None,,,,,0,0,0,0,0,30,30,40,268.55537939071655,,,,,,,,,,,,,,,,,,,,,,,,,,,,,,,,,,,,,,,,,,,,,,,,,,,,,,,,,,,,,,,,,,,,,,,,,,,,,,,,,133.0,57.0,57.0,133.0,70.0,70.0,2.1,2.11,-191,269,0,275,198,-253,268.540904045105,268.5409426689148,268.5441393852234,268.55537939071655,268.70558071136475,268.70558071136475,268.70558071136475,268.70558071136475,268.70558071136475,268.70558071136475,268.70558071136475,273.5232493877411,1,4.961264133453369,None,,,,,,,,,,,,,,,,,,155,5,2025-02-28_09h54.01.515,comp,2024.2.4,61.13726902092714,2025-02-28 09h57.50.189861 -0500,
31,31,0,critical,hwd,35.0,2.1,lower,133.0,57.0,57.0,133.0,70.0,70.0,1,1.8500597476959229,None,,,,,0,0,0,0,0,31,31,16,273.53893518447876,,,,,,,,,,,,,,,,,,,,,,,,,,,,,,,,,,,,,,,,,,,,,,,,,,,,,,,,,,,,,,,,,,,,,,,,,,,,,,,,,133.0,57.0,57.0,133.0,70.0,70.0,2.1,2.11,-191,265,0,264,198,-275,273.524049282074,273.524090051651,273.5260863304138,273.53893518447876,273.68878388404846,273.68878388404846,273.68878388404846,273.68878388404846,273.68878388404846,273.68878388404846,273.68878388404846,275.4065351486206,1,1.8500597476959229,None,,,,,,,,,,,,,,,,,,155,5,2025-02-28_09h54.01.515,comp,2024.2.4,61.13726902092714,2025-02-28 09h57.50.189861 -0500,
32,32,0,critical,hwd,20.0,3.0,lower,133.0,57.0,57.0,133.0,78.0,78.0,2,10.958549976348877,None,,,,,0,0,0,0,0,32,32,104,275.4220461845398,,,,,,,,,,,,,,,,,,,,,,,,,,,,,,,,,,,,,,,,,,,,,,,,,,,,,,,,,,,,,,,,,,,,,,,,,,,,,,,,,133.0,57.0,57.0,133.0,78.0,78.0,3.0,3.2,-191,-288,0,-20,202,260,275.40732765197754,275.4073679447174,275.4097638130188,275.4220461845398,275.5724539756775,275.5724539756775,275.5724539756775,275.5724539756775,275.5724539756775,275.5724539756775,275.5724539756775,286.3896732330322,2,10.958549976348877,None,,,,,,,,,,,,,,,,,,155,5,2025-02-28_09h54.01.515,comp,2024.2.4,61.13726902092714,2025-02-28 09h57.50.189861 -0500,
33,33,0,critical,whd,20.0,2.1,lower,57.0,133.0,133.0,57.0,78.0,78.0,1,3.375059127807617,None,,,,,0,0,0,0,0,33,33,38,286.4055452346802,,,,,,,,,,,,,,,,,,,,,,,,,,,,,,,,,,,,,,,,,,,,,,,,,,,,,,,,,,,,,,,,,,,,,,,,,,,,,,,,,57.0,133.0,133.0,57.0,78.0,78.0,2.1,2.12,-191,-279,0,-272,164,255,286.3904378414154,286.39047718048096,286.39240407943726,286.4055452346802,286.55526518821716,286.55526518821716,286.55526518821716,286.55526518821716,286.55526518821716,286.55526518821716,286.55526518821716,289.7898414134979,1,3.375059127807617,None,,,,,,,,,,,,,,,,,,155,5,2025-02-28_09h54.01.515,comp,2024.2.4,61.13726902092714,2025-02-28 09h57.50.189861 -0500,
34,34,0,catch,None,None,None,None,None,None,None,None,None,None,1,1.1917681694030762,None,,,,,0,0,0,0,0,34,34,123,289.8055417537689,,,,,,,,,,,,,,,,,,,,,,,,,,,,,,,,,,,,,,,,,,,,,,,,,,,,,,,,,,,,,,,,,,,,,,,,,,,,,,,,,142,183,59,131,132,58,1.0,1.2,-253,7,0,11,190,11,289.7908937931061,289.79093527793884,289.7935631275177,289.8055417537689,289.95547318458557,289.95547318458557,289.95547318458557,289.95547318458557,289.95547318458557,289.95547318458557,289.95547318458557,291.0066077709198,1,1.1917681694030762,None,,,,,,,,,,,,,,,,,,155,5,2025-02-28_09h54.01.515,comp,2024.2.4,61.13726902092714,2025-02-28 09h57.50.189861 -0500,
35,35,0,critical,hdw,20.0,2.1,upper,200.0,125.0,141.0,141.0,125.0,200.0,1,43.36667799949646,None,,,,,0,0,0,0,0,35,35,47,291.0222179889679,,,,,,,,,,,,,,,,,,,,,,,,,,,,,,,,,,,,,,,,,,,,,,,,,,,,,,,,,,,,,,,,,,,,,,,,,,,,,,,,,200.0,125.0,141.0,141.0,125.0,200.0,2.1,2.12,-229,-273,0,-276,266,276,291.00739431381226,291.0074338912964,291.00972843170166,291.0222179889679,291.1722707748413,291.1722707748413,291.1722707748413,291.1722707748413,291.1722707748413,291.1722707748413,291.1722707748413,334.4063880443573,1,43.36667799949646,None,,,,,,,,,,,,,,,,,,155,5,2025-02-28_09h54.01.515,comp,2024.2.4,61.13726902092714,2025-02-28 09h57.50.189861 -0500,
36,36,0,critical,dhw,20.0,2.1,lower,78.0,78.0,133.0,57.0,57.0,133.0,2,3.2858457565307617,None,,,,,0,0,0,0,0,36,36,2,334.4216504096985,,,,,,,,,,,,,,,,,,,,,,,,,,,,,,,,,,,,,,,,,,,,,,,,,,,,,,,,,,,,,,,,,,,,,,,,,,,,,,,,,78.0,78.0,133.0,57.0,57.0,133.0,2.1,2.12,-164,-282,0,-288,191,253,334.40719175338745,334.4072334766388,334.4105098247528,334.4216504096985,334.5717442035675,334.5717442035675,334.5717442035675,334.5717442035675,334.5717442035675,334.5717442035675,334.5717442035675,337.72284746170044,2,3.2858457565307617,None,,,,,,,,,,,,,,,,,,155,5,2025-02-28_09h54.01.515,comp,2024.2.4,61.13726902092714,2025-02-28 09h57.50.189861 -0500,
37,37,0,critical,dhw,35.0,3.0,upper,127.0,127.0,200.0,125.0,125.0,200.0,3,13.08889102935791,None,,,,,0,0,0,0,0,37,37,51,337.7382957935333,,,,,,,,,,,,,,,,,,,,,,,,,,,,,,,,,,,,,,,,,,,,,,,,,,,,,,,,,,,,,,,,,,,,,,,,,,,,,,,,,127.0,127.0,200.0,125.0,125.0,200.0,3.0,3.1,-222,274,0,10,258,-273,337.7236771583557,337.72371792793274,337.72620391845703,337.7382957935333,337.8889605998993,337.8889605998993,337.8889605998993,337.8889605998993,337.8889605998993,337.8889605998993,337.8889605998993,350.83981347084045,3,13.08889102935791,None,,,,,,,,,,,,,,,,,,155,5,2025-02-28_09h54.01.515,comp,2024.2.4,61.13726902092714,2025-02-28 09h57.50.189861 -0500,
38,38,0,filler_square,None,None,None,None,None,None,None,None,None,None,1,1.6294615268707275,None,,,,,0,0,0,0,0,38,38,200,350.85490345954895,,,,,,,,,,,,,,,,,,,,,,,,,,,,,,,,,,,,,,,,,,,,,,,,,,,,,,,,,,,,,,,,,,,,,,,,,,,,,,,,,100.86683075559307,100.86683075559307,62.26137573426615,69.51966847945577,90.4033791551427,79.58669724006091,2.2,2.22,-181,272,0,-261,171,-267,350.840797662735,350.84083819389343,350.8434331417084,350.85490345954895,351.00484585762024,351.00484585762024,351.00484585762024,351.00484585762024,351.00484585762024,351.00484585762024,351.00484585762024,352.4893820285797,1,1.6294615268707275,None,,,,,,,,,,,,,,,,,,155,5,2025-02-28_09h54.01.515,comp,2024.2.4,61.13726902092714,2025-02-28 09h57.50.189861 -0500,
39,39,0,critical,dwh,20.0,2.1,lower,78.0,78.0,57.0,133.0,133.0,57.0,2,2.522174835205078,None,,,,,0,0,0,0,0,39,39,6,352.5049686431885,,,,,,,,,,,,,,,,,,,,,,,,,,,,,,,,,,,,,,,,,,,,,,,,,,,,,,,,,,,,,,,,,,,,,,,,,,,,,,,,,78.0,78.0,57.0,133.0,133.0,57.0,2.1,2.12,-202,-255,0,-268,191,263,352.4901533126831,352.49020552635193,352.49250507354736,352.5049686431885,352.6548662185669,352.6548662185669,352.6548662185669,352.6548662185669,352.6548662185669,352.6548662185669,352.6548662185669,355.0394446849823,2,2.522174835205078,None,,,,,,,,,,,,,,,,,,155,5,2025-02-28_09h54.01.515,comp,2024.2.4,61.13726902092714,2025-02-28 09h57.50.189861 -0500,
40,40,0,filler_random,None,None,None,None,None,None,None,None,None,None,2,1.5883779525756836,None,,,,,0,0,0,0,0,40,40,164,355.05473828315735,,,,,,,,,,,,,,,,,,,,,,,,,,,,,,,,,,,,,,,,,,,,,,,,,,,,,,,,,,,,,,,,,,,,,,,,,,,,,,,,,63.44082216133644,139.22646596531607,153.13915357034898,120.54712838546862,65.70809643245907,122.89118564659348,3.0,3.1,-226,255,0,0,218,-255,355.0403470993042,355.0403869152069,355.0427186489105,355.05473828315735,355.2050189971924,355.2050189971924,355.2050189971924,355.2050189971924,355.2050189971924,355.2050189971924,355.2050189971924,356.6559875011444,2,1.5883779525756836,None,,,,,,,,,,,,,,,,,,155,5,2025-02-28_09h54.01.515,comp,2024.2.4,61.13726902092714,2025-02-28 09h57.50.189861 -0500,
41,41,0,filler_square,None,None,None,None,None,None,None,None,None,None,1,2.060607671737671,None,,,,,0,0,0,0,0,41,41,202,356.6713993549347,,,,,,,,,,,,,,,,,,,,,,,,,,,,,,,,,,,,,,,,,,,,,,,,,,,,,,,,,,,,,,,,,,,,,,,,,,,,,,,,,66.45058412696899,66.45058412696899,58.76208271681188,60.68500588152588,61.927704212511514,58.62745147105969,2.2,2.22,-160,287,0,-256,156,-272,356.6569662094116,356.65700912475586,356.65902757644653,356.6713993549347,356.8215608596802,356.8215608596802,356.8215608596802,356.8215608596802,356.8215608596802,356.8215608596802,356.8215608596802,358.73921370506287,1,2.060607671737671,None,,,,,,,,,,,,,,,,,,155,5,2025-02-28_09h54.01.515,comp,2024.2.4,61.13726902092714,2025-02-28 09h57.50.189861 -0500,
42,42,0,filler_random,None,None,None,None,None,None,None,None,None,None,3,4.704648017883301,None,,,,,0,0,0,0,0,42,42,163,358.7549502849579,,,,,,,,,,,,,,,,,,,,,,,,,,,,,,,,,,,,,,,,,,,,,,,,,,,,,,,,,,,,,,,,,,,,,,,,,,,,,,,,,88.89100736863904,185.9730195138357,72.99053406130525,81.89046931220297,188.67475267682826,121.32328912891806,2.2,2.21,-230,-283,0,284,198,264,358.7401077747345,358.7401490211487,358.74244713783264,358.7549502849579,358.90498781204224,358.90498781204224,358.90498781204224,358.90498781204224,358.90498781204224,358.90498781204224,358.90498781204224,363.4727985858917,3,4.704648017883301,None,,,,,,,,,,,,,,,,,,155,5,2025-02-28_09h54.01.515,comp,2024.2.4,61.13726902092714,2025-02-28 09h57.50.189861 -0500,
43,43,0,filler_square,None,None,None,None,None,None,None,None,None,None,1,6.717183589935303,None,,,,,0,0,0,0,0,43,43,172,363.48809027671814,,,,,,,,,,,,,,,,,,,,,,,,,,,,,,,,,,,,,,,,,,,,,,,,,,,,,,,,,,,,,,,,,,,,,,,,,,,,,,,,,67.46525868667071,67.46525868667071,64.27017830311809,57.69497971473424,57.49094012737526,58.99042432349956,4.0,4.2,-159,-13,0,-260,154,2,363.47374296188354,363.47378396987915,363.4761462211609,363.48809027671814,363.63811111450195,363.63811111450195,363.63811111450195,363.63811111450195,363.63811111450195,363.63811111450195,363.63811111450195,370.22251772880554,1,6.717183589935303,None,,,,,,,,,,,,,,,,,,155,5,2025-02-28_09h54.01.515,comp,2024.2.4,61.13726902092714,2025-02-28 09h57.50.189861 -0500,
44,44,0,critical,wdh,35.0,4.0,lower,57.0,133.0,70.0,70.0,133.0,57.0,2,1.583486557006836,None,,,,,0,0,0,0,0,44,44,76,370.23803782463074,,,,,,,,,,,,,,,,,,,,,,,,,,,,,,,,,,,,,,,,,,,,,,,,,,,,,,,,,,,,,,,,,,,,,,,,,,,,,,,,,57.0,133.0,70.0,70.0,133.0,57.0,4.0,4.1,-198,-265,0,12,160,-282,370.22335386276245,370.2233941555023,370.2258222103119,370.23803782463074,370.38808012008667,370.38808012008667,370.38808012008667,370.38808012008667,370.38808012008667,370.38808012008667,370.38808012008667,371.8229560852051,2,1.583486557006836,None,,,,,,,,,,,,,,,,,,155,5,2025-02-28_09h54.01.515,comp,2024.2.4,61.13726902092714,2025-02-28 09h57.50.189861 -0500,
45,45,0,filler_random,None,None,None,None,None,None,None,None,None,None,1,2.701050043106079,None,,,,,0,0,0,0,0,45,45,169,371.8381154537201,,,,,,,,,,,,,,,,,,,,,,,,,,,,,,,,,,,,,,,,,,,,,,,,,,,,,,,,,,,,,,,,,,,,,,,,,,,,,,,,,141.69866737901694,130.54015727201792,97.6876322619579,73.66014590556357,110.91120284761757,74.48341864404273,3.0,3.2,-198,-274,0,-16,170,258,371.8238060474396,371.82384490966797,371.8258979320526,371.8381154537201,371.98835706710815,371.98835706710815,371.98835706710815,371.98835706710815,371.98835706710815,371.98835706710815,371.98835706710815,374.5558693408966,1,2.701050043106079,None,,,,,,,,,,,,,,,,,,155,5,2025-02-28_09h54.01.515,comp,2024.2.4,61.13726902092714,2025-02-28 09h57.50.189861 -0500,
46,46,0,critical,dhw,20.0,1.0,lower,78.0,78.0,133.0,57.0,57.0,133.0,2,9.344639301300049,None,,,,,0,0,0,0,0,46,46,54,374.5712950229645,,,,,,,,,,,,,,,,,,,,,,,,,,,,,,,,,,,,,,,,,,,,,,,,,,,,,,,,,,,,,,,,,,,,,,,,,,,,,,,,,78.0,78.0,133.0,57.0,57.0,133.0,1.0,1.3,316,-273,480,-275,671,-260,374.55665588378906,374.5566956996918,374.55914545059204,374.5712950229645,374.72145557403564,374.72145557403564,374.72145557403564,374.72145557403564,374.72145557403564,374.72145557403564,374.72145557403564,383.92256593704224,2,9.344639301300049,None,,,,,,,,,,,,,,,,,,155,5,2025-02-28_09h54.01.515,comp,2024.2.4,61.13726902092714,2025-02-28 09h57.50.189861 -0500,
47,47,0,critical,dwh,20.0,2.1,upper,141.0,141.0,125.0,200.0,200.0,125.0,3,2.4416446685791016,None,,,,,0,0,0,0,0,47,47,7,383.93822288513184,,,,,,,,,,,,,,,,,,,,,,,,,,,,,,,,,,,,,,,,,,,,,,,,,,,,,,,,,,,,,,,,,,,,,,,,,,,,,,,,,141.0,141.0,125.0,200.0,200.0,125.0,2.1,2.11,-266,252,0,262,258,-261,383.923367023468,383.92340874671936,383.9257583618164,383.93822288513184,384.088267326355,384.088267326355,384.088267326355,384.088267326355,384.088267326355,384.088267326355,384.088267326355,386.38925409317017,3,2.4416446685791016,None,,,,,,,,,,,,,,,,,,155,5,2025-02-28_09h54.01.515,comp,2024.2.4,61.13726902092714,2025-02-28 09h57.50.189861 -0500,
48,48,0,critical,wdh,35.0,1.0,upper,125.0,200.0,127.0,127.0,200.0,125.0,1,1.7836272716522217,None,,,,,0,0,0,0,0,48,48,73,386.4047875404358,,,,,,,,,,,,,,,,,,,,,,,,,,,,,,,,,,,,,,,,,,,,,,,,,,,,,,,,,,,,,,,,,,,,,,,,,,,,,,,,,125.0,200.0,127.0,127.0,200.0,125.0,1.0,1.1,-740,267,-480,281,-258,252,386.39004731178284,386.39008808135986,386.3923885822296,386.4047875404358,386.55485463142395,386.55485463142395,386.55485463142395,386.55485463142395,386.55485463142395,386.55485463142395,386.55485463142395,388.1895682811737,1,1.7836272716522217,None,,,,,,,,,,,,,,,,,,155,5,2025-02-28_09h54.01.515,comp,2024.2.4,61.13726902092714,2025-02-28 09h57.50.189861 -0500,
49,49,0,critical,hdw,20.0,1.0,lower,133.0,57.0,78.0,78.0,57.0,133.0,1,4.894958257675171,None,,,,,0,0,0,0,0,49,49,114,388.20480275154114,,,,,,,,,,,,,,,,,,,,,,,,,,,,,,,,,,,,,,,,,,,,,,,,,,,,,,,,,,,,,,,,,,,,,,,,,,,,,,,,,133.0,57.0,78.0,78.0,57.0,133.0,1.0,1.3,316,-250,480,-267,682,-279,388.19032430648804,388.19036316871643,388.1923406124115,388.20480275154114,388.3546316623688,388.3546316623688,388.3546316623688,388.3546316623688,388.3546316623688,388.3546316623688,388.3546316623688,393.1057391166687,1,4.894958257675171,None,,,,,,,,,,,,,,,,,,155,5,2025-02-28_09h54.01.515,comp,2024.2.4,61.13726902092714,2025-02-28 09h57.50.189861 -0500,
50,50,0,critical,whd,35.0,2.1,upper,125.0,200.0,200.0,125.0,127.0,127.0,1,2.8503482341766357,None,,,,,0,0,0,0,0,50,50,13,393.12147855758667,,,,,,,,,,,,,,,,,,,,,,,,,,,,,,,,,,,,,,,,,,,,,,,,,,,,,,,,,,,,,,,,,,,,,,,,,,,,,,,,,125.0,200.0,200.0,125.0,127.0,127.0,2.1,2.12,-258,-288,0,-276,222,287,393.1065435409546,393.1065855026245,393.1089255809784,393.12147855758667,393.27146792411804,393.27146792411804,393.27146792411804,393.27146792411804,393.27146792411804,393.27146792411804,393.27146792411804,395.98914098739624,1,2.8503482341766357,None,,,,,,,,,,,,,,,,,,155,5,2025-02-28_09h54.01.515,comp,2024.2.4,61.13726902092714,2025-02-28 09h57.50.189861 -0500,
51,51,0,critical,wdh,20.0,1.0,upper,125.0,200.0,141.0,141.0,200.0,125.0,1,3.4384562969207764,None,,,,,0,0,0,0,0,51,51,79,396.00443148612976,,,,,,,,,,,,,,,,,,,,,,,,,,,,,,,,,,,,,,,,,,,,,,,,,,,,,,,,,,,,,,,,,,,,,,,,,,,,,,,,,125.0,200.0,141.0,141.0,200.0,125.0,1.0,1.3,214,-286,480,-279,709,-266,395.9899251461029,395.98996567726135,395.9919435977936,396.00443148612976,396.1549744606018,396.1549744606018,396.1549744606018,396.1549744606018,396.1549744606018,396.1549744606018,396.1549744606018,399.4560966491699,1,3.4384562969207764,None,,,,,,,,,,,,,,,,,,155,5,2025-02-28_09h54.01.515,comp,2024.2.4,61.13726902092714,2025-02-28 09h57.50.189861 -0500,
52,52,0,critical,whd,35.0,1.0,lower,57.0,133.0,133.0,57.0,70.0,70.0,2,5.444553375244141,None,,,,,0,0,0,0,0,52,52,84,399.47114968299866,,,,,,,,,,,,,,,,,,,,,,,,,,,,,,,,,,,,,,,,,,,,,,,,,,,,,,,,,,,,,,,,,,,,,,,,,,,,,,,,,57.0,133.0,133.0,57.0,70.0,70.0,1.0,1.2,-191,13,0,-17,160,3,399.45688223838806,399.4569215774536,399.45909786224365,399.47114968299866,399.6212592124939,399.6212592124939,399.6212592124939,399.6212592124939,399.6212592124939,399.6212592124939,399.6212592124939,404.922297000885,2,5.444553375244141,None,,,,,,,,,,,,,,,,,,155,5,2025-02-28_09h54.01.515,comp,2024.2.4,61.13726902092714,2025-02-28 09h57.50.189861 -0500,
53,53,0,critical,wdh,35.0,3.0,lower,57.0,133.0,70.0,70.0,133.0,57.0,1,8.577808141708374,None,,,,,0,0,0,0,0,53,53,74,404.93797183036804,,,,,,,,,,,,,,,,,,,,,,,,,,,,,,,,,,,,,,,,,,,,,,,,,,,,,,,,,,,,,,,,,,,,,,,,,,,,,,,,,57.0,133.0,70.0,70.0,133.0,57.0,3.0,3.1,-198,279,0,-16,160,-265,404.92308354377747,404.92312479019165,404.9251883029938,404.93797183036804,405.087849855423,405.087849855423,405.087849855423,405.087849855423,405.087849855423,405.087849855423,405.087849855423,413.522212266922,1,8.577808141708374,None,,,,,,,,,,,,,,,,,,155,5,2025-02-28_09h54.01.515,comp,2024.2.4,61.13726902092714,2025-02-28 09h57.50.189861 -0500,
54,54,0,filler_random,None,None,None,None,None,None,None,None,None,None,3,2.1689279079437256,None,,,,,0,0,0,0,0,54,54,139,413.53790950775146,,,,,,,,,,,,,,,,,,,,,,,,,,,,,,,,,,,,,,,,,,,,,,,,,,,,,,,,,,,,,,,,,,,,,,,,,,,,,,,,,61.81281483532935,62.48990571312001,66.0333533698298,144.72829629031753,132.29241809121748,107.21166137129333,4.0,4.1,-200,-273,0,-20,222,-266,413.52311849594116,413.52315878868103,413.5254361629486,413.53790950775146,413.68779611587524,413.68779611587524,413.68779611587524,413.68779611587524,413.68779611587524,413.68779611587524,413.68779611587524,415.7222981452942,3,2.1689279079437256,None,,,,,,,,,,,,,,,,,,155,5,2025-02-28_09h54.01.515,comp,2024.2.4,61.13726902092714,2025-02-28 09h57.50.189861 -0500,
55,55,0,filler_square,None,None,None,None,None,None,None,None,None,None,1,2.889169692993164,None,,,,,0,0,0,0,0,55,55,189,415.73761510849,,,,,,,,,,,,,,,,,,,,,,,,,,,,,,,,,,,,,,,,,,,,,,,,,,,,,,,,,,,,,,,,,,,,,,,,,,,,,,,,,127.957228762128,127.957228762128,66.22404233154236,88.84825167484189,69.62266960505754,111.27325278935936,3.0,3.2,-204,-261,0,6,196,263,415.72337555885315,415.7234137058258,415.7257173061371,415.73761510849,415.8878960609436,415.8878960609436,415.8878960609436,415.8878960609436,415.8878960609436,415.8878960609436,415.8878960609436,418.63913202285767,1,2.889169692993164,None,,,,,,,,,,,,,,,,,,155,5,2025-02-28_09h54.01.515,comp,2024.2.4,61.13726902092714,2025-02-28 09h57.50.189861 -0500,
56,56,0,critical,wdh,35.0,4.0,upper,125.0,200.0,127.0,127.0,200.0,125.0,1,3.6368610858917236,None,,,,,0,0,0,0,0,56,56,77,418.6543745994568,,,,,,,,,,,,,,,,,,,,,,,,,,,,,,,,,,,,,,,,,,,,,,,,,,,,,,,,,,,,,,,,,,,,,,,,,,,,,,,,,125.0,200.0,127.0,127.0,200.0,125.0,4.0,4.1,-260,-253,0,-14,222,-266,418.63993096351624,418.63997077941895,418.641978263855,418.6543745994568,418.8046615123749,418.8046615123749,418.8046615123749,418.8046615123749,418.8046615123749,418.8046615123749,418.8046615123749,422.3058168888092,1,3.6368610858917236,None,,,,,,,,,,,,,,,,,,155,5,2025-02-28_09h54.01.515,comp,2024.2.4,61.13726902092714,2025-02-28 09h57.50.189861 -0500,
57,57,0,critical,wdh,35.0,2.1,upper,125.0,200.0,127.0,127.0,200.0,125.0,3,6.321656703948975,None,,,,,0,0,0,0,0,57,57,33,422.3209934234619,,,,,,,,,,,,,,,,,,,,,,,,,,,,,,,,,,,,,,,,,,,,,,,,,,,,,,,,,,,,,,,,,,,,,,,,,,,,,,,,,125.0,200.0,127.0,127.0,200.0,125.0,2.1,2.12,-260,-258,0,-281,222,258,422.3066232204437,422.3066620826721,422.3090465068817,422.3209934234619,422.47135162353516,422.47135162353516,422.47135162353516,422.47135162353516,422.47135162353516,422.47135162353516,422.47135162353516,428.6555881500244,3,6.321656703948975,None,,,,,,,,,,,,,,,,,,155,5,2025-02-28_09h54.01.515,comp,2024.2.4,61.13726902092714,2025-02-28 09h57.50.189861 -0500,
58,58,0,critical,dhw,20.0,2.1,upper,141.0,141.0,200.0,125.0,125.0,200.0,3,5.717177867889404,None,,,,,0,0,0,0,0,58,58,3,428.6709358692169,,,,,,,,,,,,,,,,,,,,,,,,,,,,,,,,,,,,,,,,,,,,,,,,,,,,,,,,,,,,,,,,,,,,,,,,,,,,,,,,,141.0,141.0,200.0,125.0,125.0,200.0,2.1,2.11,-229,274,0,276,258,-255,428.6564111709595,428.6564517021179,428.6588554382324,428.6709358692169,428.8212673664093,428.8212673664093,428.8212673664093,428.8212673664093,428.8212673664093,428.8212673664093,428.8212673664093,434.3893315792084,3,5.717177867889404,None,,,,,,,,,,,,,,,,,,155,5,2025-02-28_09h54.01.515,comp,2024.2.4,61.13726902092714,2025-02-28 09h57.50.189861 -0500,
59,59,0,critical,dwh,35.0,2.1,upper,127.0,127.0,125.0,200.0,200.0,125.0,2,2.967247247695923,None,,,,,0,0,0,0,0,59,59,5,434.4044578075409,,,,,,,,,,,,,,,,,,,,,,,,,,,,,,,,,,,,,,,,,,,,,,,,,,,,,,,,,,,,,,,,,,,,,,,,,,,,,,,,,127.0,127.0,125.0,200.0,200.0,125.0,2.1,2.12,-260,-266,0,-251,258,267,434.39012360572815,434.3901653289795,434.392457485199,434.4044578075409,434.5545971393585,434.5545971393585,434.5545971393585,434.5545971393585,434.5545971393585,434.5545971393585,434.5545971393585,437.3888564109802,2,2.967247247695923,None,,,,,,,,,,,,,,,,,,155,5,2025-02-28_09h54.01.515,comp,2024.2.4,61.13726902092714,2025-02-28 09h57.50.189861 -0500,
60,60,0,critical,dhw,20.0,2.1,lower,78.0,78.0,133.0,57.0,57.0,133.0,3,5.7506043910980225,None,,,,,0,0,0,0,0,60,60,26,437.40414786338806,,,,,,,,,,,,,,,,,,,,,,,,,,,,,,,,,,,,,,,,,,,,,,,,,,,,,,,,,,,,,,,,,,,,,,,,,,,,,,,,,78.0,78.0,133.0,57.0,57.0,133.0,2.1,2.12,-164,-256,0,-261,191,257,437.3896236419678,437.389662027359,437.392080783844,437.40414786338806,437.55429100990295,437.55429100990295,437.55429100990295,437.55429100990295,437.55429100990295,437.55429100990295,437.55429100990295,443.1719603538513,3,5.7506043910980225,None,,,,,,,,,,,,,,,,,,155,5,2025-02-28_09h54.01.515,comp,2024.2.4,61.13726902092714,2025-02-28 09h57.50.189861 -0500,
61,61,0,filler_square,None,None,None,None,None,None,None,None,None,None,3,1.9599263668060303,None,,,,,0,0,0,0,0,61,61,186,443.18750047683716,,,,,,,,,,,,,,,,,,,,,,,,,,,,,,,,,,,,,,,,,,,,,,,,,,,,,,,,,,,,,,,,,,,,,,,,,,,,,,,,,62.024620828369976,62.90484470892701,57.38517331194153,61.56574765285282,63.40873133185018,63.40873133185018,2.1,2.12,-158,-274,0,-262,158,264,443.1729061603546,443.17294549942017,443.17547059059143,443.18750047683716,443.3375062942505,443.3375062942505,443.3375062942505,443.3375062942505,443.3375062942505,443.3375062942505,443.3375062942505,445.15532088279724,3,1.9599263668060303,None,,,,,,,,,,,,,,,,,,155,5,2025-02-28_09h54.01.515,comp,2024.2.4,61.13726902092714,2025-02-28 09h57.50.189861 -0500,
62,62,0,critical,whd,35.0,3.0,lower,57.0,133.0,133.0,57.0,70.0,70.0,1,2.840806484222412,None,,,,,0,0,0,0,0,62,62,86,445.17103362083435,,,,,,,,,,,,,,,,,,,,,,,,,,,,,,,,,,,,,,,,,,,,,,,,,,,,,,,,,,,,,,,,,,,,,,,,,,,,,,,,,57.0,133.0,133.0,57.0,70.0,70.0,3.0,3.1,-191,277,0,-17,160,-269,445.1560709476471,445.1561098098755,445.1582748889923,445.17103362083435,445.32090973854065,445.32090973854065,445.32090973854065,445.32090973854065,445.32090973854065,445.32090973854065,445.32090973854065,448.02196860313416,1,2.840806484222412,None,,,,,,,,,,,,,,,,,,155,5,2025-02-28_09h54.01.515,comp,2024.2.4,61.13726902092714,2025-02-28 09h57.50.189861 -0500,
63,63,0,filler_random,None,None,None,None,None,None,None,None,None,None,2,1.7888941764831543,None,,,,,0,0,0,0,0,63,63,154,448.0376958847046,,,,,,,,,,,,,,,,,,,,,,,,,,,,,,,,,,,,,,,,,,,,,,,,,,,,,,,,,,,,,,,,,,,,,,,,,,,,,,,,,196.72423886282192,74.8162539456317,191.7085998708691,94.49153422703407,194.99228721339827,78.64067177145158,2.2,2.22,-181,258,0,-282,183,-256,448.02288246154785,448.02292370796204,448.0255136489868,448.0376958847046,448.18766736984253,448.18766736984253,448.18766736984253,448.18766736984253,448.18766736984253,448.18766736984253,448.18766736984253,449.83911180496216,2,1.7888941764831543,None,,,,,,,,,,,,,,,,,,155,5,2025-02-28_09h54.01.515,comp,2024.2.4,61.13726902092714,2025-02-28 09h57.50.189861 -0500,
64,64,0,critical,dhw,35.0,2.1,lower,70.0,70.0,133.0,57.0,57.0,133.0,2,4.517351388931274,None,,,,,0,0,0,0,0,64,64,24,449.8540551662445,,,,,,,,,,,,,,,,,,,,,,,,,,,,,,,,,,,,,,,,,,,,,,,,,,,,,,,,,,,,,,,,,,,,,,,,,,,,,,,,,70.0,70.0,133.0,57.0,57.0,133.0,2.1,2.12,-160,-262,0,-253,191,260,449.8399064540863,449.83994698524475,449.84252095222473,449.8540551662445,450.00421667099,450.00421667099,450.00421667099,450.00421667099,450.00421667099,450.00421667099,450.00421667099,454.37252855300903,2,4.517351388931274,None,,,,,,,,,,,,,,,,,,155,5,2025-02-28_09h54.01.515,comp,2024.2.4,61.13726902092714,2025-02-28 09h57.50.189861 -0500,
65,65,0,critical,dwh,20.0,1.0,upper,141.0,141.0,125.0,200.0,200.0,125.0,3,10.750923871994019,None,,,,,0,0,0,0,0,65,65,67,454.3876111507416,,,,,,,,,,,,,,,,,,,,,,,,,,,,,,,,,,,,,,,,,,,,,,,,,,,,,,,,,,,,,,,,,,,,,,,,,,,,,,,,,141.0,141.0,125.0,200.0,200.0,125.0,1.0,1.3,214,-254,480,-267,738,-280,454.3732912540436,454.373330116272,454.3756730556488,454.3876111507416,454.53775238990784,454.53775238990784,454.53775238990784,454.53775238990784,454.53775238990784,454.53775238990784,454.53775238990784,465.15548729896545,3,10.750923871994019,None,,,,,,,,,,,,,,,,,,155,5,2025-02-28_09h54.01.515,comp,2024.2.4,61.13726902092714,2025-02-28 09h57.50.189861 -0500,
66,66,0,filler_random,None,None,None,None,None,None,None,None,None,None,2,2.2248425483703613,None,,,,,0,0,0,0,0,66,66,137,465.1707844734192,,,,,,,,,,,,,,,,,,,,,,,,,,,,,,,,,,,,,,,,,,,,,,,,,,,,,,,,,,,,,,,,,,,,,,,,,,,,,,,,,78.84855421744629,133.16532348885772,121.74881214954452,168.9824350406808,57.60477161019983,128.07871611602437,2.2,2.21,-247,-289,0,279,245,270,465.1563835144043,465.1564235687256,465.15871810913086,465.1707844734192,465.320898771286,465.320898771286,465.320898771286,465.320898771286,465.320898771286,465.320898771286,465.320898771286,467.4055230617523,2,2.2248425483703613,None,,,,,,,,,,,,,,,,,,155,5,2025-02-28_09h54.01.515,comp,2024.2.4,61.13726902092714,2025-02-28 09h57.50.189861 -0500,
67,67,0,critical,wdh,20.0,3.0,lower,57.0,133.0,78.0,78.0,133.0,57.0,3,2.5744919776916504,None,,,,,0,0,0,0,0,67,67,80,467.4210422039032,,,,,,,,,,,,,,,,,,,,,,,,,,,,,,,,,,,,,,,,,,,,,,,,,,,,,,,,,,,,,,,,,,,,,,,,,,,,,,,,,57.0,133.0,78.0,78.0,133.0,57.0,3.0,3.2,-202,-262,0,17,164,283,467.4062349796295,467.40627002716064,467.4081139564514,467.4210422039032,467.5707633495331,467.5707633495331,467.5707633495331,467.5707633495331,467.5707633495331,467.5707633495331,467.5707633495331,470.00532937049866,3,2.5744919776916504,None,,,,,,,,,,,,,,,,,,155,5,2025-02-28_09h54.01.515,comp,2024.2.4,61.13726902092714,2025-02-28 09h57.50.189861 -0500,
68,68,0,filler_random,None,None,None,None,None,None,None,None,None,None,2,1.6852991580963135,None,,,,,0,0,0,0,0,68,68,157,470.02121591567993,,,,,,,,,,,,,,,,,,,,,,,,,,,,,,,,,,,,,,,,,,,,,,,,,,,,,,,,,,,,,,,,,,,,,,,,,,,,,,,,,79.02077380641876,136.52600143029812,184.05921106072486,137.1184874075986,166.44715735830096,58.20231694490078,2.1,2.11,-233,287,0,278,194,-286,470.00626516342163,470.0063064098358,470.0083637237549,470.02121591567993,470.1707923412323,470.1707923412323,470.1707923412323,470.1707923412323,470.1707923412323,470.1707923412323,470.1707923412323,471.7219331264496,2,1.6852991580963135,None,,,,,,,,,,,,,,,,,,155,5,2025-02-28_09h54.01.515,comp,2024.2.4,61.13726902092714,2025-02-28 09h57.50.189861 -0500,
69,69,0,filler_square,None,None,None,None,None,None,None,None,None,None,3,2.6736176013946533,None,,,,,0,0,0,0,0,69,69,204,471.7373104095459,,,,,,,,,,,,,,,,,,,,,,,,,,,,,,,,,,,,,,,,,,,,,,,,,,,,,,,,,,,,,,,,,,,,,,,,,,,,,,,,,127.98539583388082,109.51654857713578,87.06085772038668,68.284965005983,133.55932802744985,133.55932802744985,4.0,4.2,-185,-6,0,-265,197,18,471.7228624820709,471.7229013442993,471.7253668308258,471.7373104095459,471.8875353336334,471.8875353336334,471.8875353336334,471.8875353336334,471.8875353336334,471.8875353336334,471.8875353336334,474.42184567451477,3,2.6736176013946533,None,,,,,,,,,,,,,,,,,,155,5,2025-02-28_09h54.01.515,comp,2024.2.4,61.13726902092714,2025-02-28 09h57.50.189861 -0500,
70,70,0,filler_random,None,None,None,None,None,None,None,None,None,None,2,1.1994414329528809,None,,,,,0,0,0,0,0,70,70,146,474.4375069141388,,,,,,,,,,,,,,,,,,,,,,,,,,,,,,,,,,,,,,,,,,,,,,,,,,,,,,,,,,,,,,,,,,,,,,,,,,,,,,,,,116.1287059055224,103.28268963182907,143.7281967717493,147.17033925446827,112.80624253902639,99.05775648123421,3.0,3.1,-221,254,0,-2,219,-273,474.4227514266968,474.4227912425995,474.4253177642822,474.4375069141388,474.5874285697937,474.5874285697937,474.5874285697937,474.5874285697937,474.5874285697937,474.5874285697937,474.5874285697937,475.65524673461914,2,1.1994414329528809,None,,,,,,,,,,,,,,,,,,155,5,2025-02-28_09h54.01.515,comp,2024.2.4,61.13726902092714,2025-02-28 09h57.50.189861 -0500,
71,71,0,filler_square,None,None,None,None,None,None,None,None,None,None,1,2.835817813873291,None,,,,,0,0,0,0,0,71,71,187,475.67059302330017,,,,,,,,,,,,,,,,,,,,,,,,,,,,,,,,,,,,,,,,,,,,,,,,,,,,,,,,,,,,,,,,,,,,,,,,,,,,,,,,,78.28791316616945,78.28791316616945,63.52630056920282,65.63864627133367,66.74243284596015,70.7373824318216,4.0,4.1,-168,-264,0,-13,164,-267,475.6562204360962,475.6562602519989,475.6585648059845,475.67059302330017,475.82075715065,475.82075715065,475.82075715065,475.82075715065,475.82075715065,475.82075715065,475.82075715065,478.5217139720917,1,2.835817813873291,None,,,,,,,,,,,,,,,,,,155,5,2025-02-28_09h54.01.515,comp,2024.2.4,61.13726902092714,2025-02-28 09h57.50.189861 -0500,
72,72,0,critical,whd,20.0,2.1,upper,125.0,200.0,200.0,125.0,141.0,141.0,2,3.145961046218872,None,,,,,0,0,0,0,0,72,72,39,478.5372385978699,,,,,,,,,,,,,,,,,,,,,,,,,,,,,,,,,,,,,,,,,,,,,,,,,,,,,,,,,,,,,,,,,,,,,,,,,,,,,,,,,125.0,200.0,200.0,125.0,141.0,141.0,2.1,2.12,-258,-261,0,-282,229,259,478.522536277771,478.52257776260376,478.5245785713196,478.5372385978699,478.68763041496277,478.68763041496277,478.68763041496277,478.68763041496277,478.68763041496277,478.68763041496277,478.68763041496277,481.68881249427795,2,3.145961046218872,None,,,,,,,,,,,,,,,,,,155,5,2025-02-28_09h54.01.515,comp,2024.2.4,61.13726902092714,2025-02-28 09h57.50.189861 -0500,
73,73,0,filler_square,None,None,None,None,None,None,None,None,None,None,2,2.0665981769561768,None,,,,,0,0,0,0,0,73,73,190,481.70427083969116,,,,,,,,,,,,,,,,,,,,,,,,,,,,,,,,,,,,,,,,,,,,,,,,,,,,,,,,,,,,,,,,,,,,,,,,,,,,,,,,,65.43241233383753,66.40580389885898,100.96267225700187,100.96267225700187,68.63352732179295,80.57627527528139,2.1,2.11,-180,283,0,263,187,-253,481.68978238105774,481.68982315063477,481.69228410720825,481.70427083969116,481.8539934158325,481.8539934158325,481.8539934158325,481.8539934158325,481.8539934158325,481.8539934158325,481.8539934158325,483.77195930480957,2,2.0665981769561768,None,,,,,,,,,,,,,,,,,,155,5,2025-02-28_09h54.01.515,comp,2024.2.4,61.13726902092714,2025-02-28 09h57.50.189861 -0500,
74,74,0,filler_random,None,None,None,None,None,None,None,None,None,None,2,2.2335708141326904,None,,,,,0,0,0,0,0,74,74,147,483.7874834537506,,,,,,,,,,,,,,,,,,,,,,,,,,,,,,,,,,,,,,,,,,,,,,,,,,,,,,,,,,,,,,,,,,,,,,,,,,,,,,,,,130.59626021405046,114.0473528848184,198.7107320151975,124.21571682196095,153.41646589060446,172.17150738408816,2.1,2.11,-215,282,0,272,244,-280,483.7728772163391,483.77291774749756,483.7757065296173,483.7874834537506,483.93751883506775,483.93751883506775,483.93751883506775,483.93751883506775,483.93751883506775,483.93751883506775,483.93751883506775,486.02231884002686,2,2.2335708141326904,None,,,,,,,,,,,,,,,,,,155,5,2025-02-28_09h54.01.515,comp,2024.2.4,61.13726902092714,2025-02-28 09h57.50.189861 -0500,
75,75,0,critical,hwd,20.0,1.0,lower,133.0,57.0,57.0,133.0,78.0,78.0,1,3.5008089542388916,None,,,,,0,0,0,0,0,75,75,102,486.0375804901123,,,,,,,,,,,,,,,,,,,,,,,,,,,,,,,,,,,,,,,,,,,,,,,,,,,,,,,,,,,,,,,,,,,,,,,,,,,,,,,,,133.0,57.0,57.0,133.0,78.0,78.0,1.0,1.2,-191,9,0,-11,202,0,486.0230801105499,486.02311873435974,486.0255661010742,486.0375804901123,486.1874451637268,486.1874451637268,486.1874451637268,486.1874451637268,486.1874451637268,486.1874451637268,486.1874451637268,489.5551118850708,1,3.5008089542388916,None,,,,,,,,,,,,,,,,,,155,5,2025-02-28_09h54.01.515,comp,2024.2.4,61.13726902092714,2025-02-28 09h57.50.189861 -0500,
76,76,0,critical,dwh,35.0,2.1,upper,127.0,127.0,125.0,200.0,200.0,125.0,2,1.0556631088256836,None,,,,,0,0,0,0,0,76,76,29,489.5705771446228,,,,,,,,,,,,,,,,,,,,,,,,,,,,,,,,,,,,,,,,,,,,,,,,,,,,,,,,,,,,,,,,,,,,,,,,,,,,,,,,,127.0,127.0,125.0,200.0,200.0,125.0,2.1,2.11,-260,284,0,264,258,-278,489.5559227466583,489.55596256256104,489.5585057735443,489.5705771446228,489.72075605392456,489.72075605392456,489.72075605392456,489.72075605392456,489.72075605392456,489.72075605392456,489.72075605392456,490.6387069225311,2,1.0556631088256836,None,,,,,,,,,,,,,,,,,,155,5,2025-02-28_09h54.01.515,comp,2024.2.4,61.13726902092714,2025-02-28 09h57.50.189861 -0500,
77,77,0,filler_random,None,None,None,None,None,None,None,None,None,None,3,1.5254111289978027,None,,,,,0,0,0,0,0,77,77,141,490.65394020080566,,,,,,,,,,,,,,,,,,,,,,,,,,,,,,,,,,,,,,,,,,,,,,,,,,,,,,,,,,,,,,,,,,,,,,,,,,,,,,,,,97.0564822494922,183.94324651871483,88.38456416245077,78.3701079724636,195.54130348990765,166.6822369408293,3.0,3.2,-227,-283,0,-9,219,266,490.63960909843445,490.6396498680115,490.64203095436096,490.65394020080566,490.80428171157837,490.80428171157837,490.80428171157837,490.80428171157837,490.80428171157837,490.80428171157837,490.80428171157837,492.18857526779175,3,1.5254111289978027,None,,,,,,,,,,,,,,,,,,155,5,2025-02-28_09h54.01.515,comp,2024.2.4,61.13726902092714,2025-02-28 09h57.50.189861 -0500,
78,78,0,critical,wdh,20.0,2.1,upper,125.0,200.0,141.0,141.0,200.0,125.0,1,3.3109381198883057,None,,,,,0,0,0,0,0,78,78,11,492.20418524742126,,,,,,,,,,,,,,,,,,,,,,,,,,,,,,,,,,,,,,,,,,,,,,,,,,,,,,,,,,,,,,,,,,,,,,,,,,,,,,,,,125.0,200.0,141.0,141.0,200.0,125.0,2.1,2.12,-266,-254,0,-272,229,287,492.1893837451935,492.1894245147705,492.1918385028839,492.20418524742126,492.35423374176025,492.35423374176025,492.35423374176025,492.35423374176025,492.35423374176025,492.35423374176025,492.35423374176025,495.5218765735626,1,3.3109381198883057,None,,,,,,,,,,,,,,,,,,155,5,2025-02-28_09h54.01.515,comp,2024.2.4,61.13726902092714,2025-02-28 09h57.50.189861 -0500,
79,79,0,critical,hwd,20.0,4.0,upper,200.0,125.0,125.0,200.0,141.0,141.0,2,1.921388864517212,None,,,,,0,0,0,0,0,79,79,107,495.5372791290283,,,,,,,,,,,,,,,,,,,,,,,,,,,,,,,,,,,,,,,,,,,,,,,,,,,,,,,,,,,,,,,,,,,,,,,,,,,,,,,,,200.0,125.0,125.0,200.0,141.0,141.0,4.0,4.2,-258,17,0,-273,266,-7,495.52268862724304,495.52272963523865,495.5247986316681,495.5372791290283,495.687447309494,495.687447309494,495.687447309494,495.687447309494,495.687447309494,495.687447309494,495.687447309494,497.4720969200134,2,1.921388864517212,None,,,,,,,,,,,,,,,,,,155,5,2025-02-28_09h54.01.515,comp,2024.2.4,61.13726902092714,2025-02-28 09h57.50.189861 -0500,
80,80,0,filler_square,None,None,None,None,None,None,None,None,None,None,2,1.8439772129058838,None,,,,,0,0,0,0,0,80,80,201,497.4872155189514,,,,,,,,,,,,,,,,,,,,,,,,,,,,,,,,,,,,,,,,,,,,,,,,,,,,,,,,,,,,,,,,,,,,,,,,,,,,,,,,,64.52694115301966,68.65424118575277,98.55387914146144,98.55387914146144,70.68098695776365,74.7002078737467,2.1,2.11,-180,287,0,256,183,-273,497.4730820655823,497.473121881485,497.475594997406,497.4872155189514,497.63721466064453,497.63721466064453,497.63721466064453,497.63721466064453,497.63721466064453,497.63721466064453,497.63721466064453,499.3384253978729,2,1.8439772129058838,None,,,,,,,,,,,,,,,,,,155,5,2025-02-28_09h54.01.515,comp,2024.2.4,61.13726902092714,2025-02-28 09h57.50.189861 -0500,
81,81,0,critical,whd,35.0,2.1,upper,125.0,200.0,200.0,125.0,127.0,127.0,2,1.0722346305847168,None,,,,,0,0,0,0,0,81,81,37,499.35392022132874,,,,,,,,,,,,,,,,,,,,,,,,,,,,,,,,,,,,,,,,,,,,,,,,,,,,,,,,,,,,,,,,,,,,,,,,,,,,,,,,,125.0,200.0,200.0,125.0,127.0,127.0,2.1,2.11,-258,275,0,256,222,-271,499.3392143249512,499.33925437927246,499.34153985977173,499.35392022132874,499.5044672489166,499.5044672489166,499.5044672489166,499.5044672489166,499.5044672489166,499.5044672489166,499.5044672489166,500.4385492801666,2,1.0722346305847168,None,,,,,,,,,,,,,,,,,,155,5,2025-02-28_09h54.01.515,comp,2024.2.4,61.13726902092714,2025-02-28 09h57.50.189861 -0500,
82,82,0,filler_square,None,None,None,None,None,None,None,None,None,None,1,1.614184856414795,None,,,,,0,0,0,0,0,82,82,175,500.45382714271545,,,,,,,,,,,,,,,,,,,,,,,,,,,,,,,,,,,,,,,,,,,,,,,,,,,,,,,,,,,,,,,,,,,,,,,,,,,,,,,,,68.0807907079389,68.0807907079389,66.03461672061835,63.67719255314296,62.17664319003072,67.45152232504361,1.0,1.3,318,-260,480,-268,642,-273,500.43949031829834,500.4395308494568,500.4418730735779,500.45382714271545,500.6040835380554,500.6040835380554,500.6040835380554,500.6040835380554,500.6040835380554,500.6040835380554,500.6040835380554,502.071711063385,1,1.614184856414795,None,,,,,,,,,,,,,,,,,,155,5,2025-02-28_09h54.01.515,comp,2024.2.4,61.13726902092714,2025-02-28 09h57.50.189861 -0500,
83,83,0,critical,dhw,35.0,1.0,lower,70.0,70.0,133.0,57.0,57.0,133.0,2,5.565411806106567,None,,,,,0,0,0,0,0,83,83,48,502.0872793197632,,,,,,,,,,,,,,,,,,,,,,,,,,,,,,,,,,,,,,,,,,,,,,,,,,,,,,,,,,,,,,,,,,,,,,,,,,,,,,,,,70.0,70.0,133.0,57.0,57.0,133.0,1.0,1.3,320,-264,480,-268,671,-254,502.07248091697693,502.0725214481354,502.0749304294586,502.0872793197632,502.23723697662354,502.23723697662354,502.23723697662354,502.23723697662354,502.23723697662354,502.23723697662354,502.23723697662354,507.6549162864685,2,5.565411806106567,None,,,,,,,,,,,,,,,,,,155,5,2025-02-28_09h54.01.515,comp,2024.2.4,61.13726902092714,2025-02-28 09h57.50.189861 -0500,
84,84,0,catch,None,None,None,None,None,None,None,None,None,None,1,1.1248095035552979,None,,,,,0,0,0,0,0,84,84,121,507.6706476211548,,,,,,,,,,,,,,,,,,,,,,,,,,,,,,,,,,,,,,,,,,,,,,,,,,,,,,,,,,,,,,,,,,,,,,,,,,,,,,,,,132,193,74,116,129,61,1.0,1.2,-250,2,0,-4,184,4,507.65592765808105,507.6559672355652,507.65840101242065,507.6706476211548,507.8205347061157,507.8205347061157,507.8205347061157,507.8205347061157,507.8205347061157,507.8205347061157,507.8205347061157,508.80498147010803,1,1.1248095035552979,None,,,,,,,,,,,,,,,,,,155,5,2025-02-28_09h54.01.515,comp,2024.2.4,61.13726902092714,2025-02-28 09h57.50.189861 -0500,
85,85,0,filler_square,None,None,None,None,None,None,None,None,None,None,2,1.5423855781555176,None,,,,,0,0,0,0,0,85,85,203,508.8206217288971,,,,,,,,,,,,,,,,,,,,,,,,,,,,,,,,,,,,,,,,,,,,,,,,,,,,,,,,,,,,,,,,,,,,,,,,,,,,,,,,,85.74733684969272,143.7563882341854,190.44956323370675,190.44956323370675,158.7393760467538,171.67745142479114,3.0,3.2,-263,-285,0,-9,277,277,508.8059105873108,508.80595207214355,508.80843901634216,508.8206217288971,508.97074151039124,508.97074151039124,508.97074151039124,508.97074151039124,508.97074151039124,508.97074151039124,508.97074151039124,510.37181663513184,2,1.5423855781555176,None,,,,,,,,,,,,,,,,,,155,5,2025-02-28_09h54.01.515,comp,2024.2.4,61.13726902092714,2025-02-28 09h57.50.189861 -0500,
86,86,0,critical,whd,20.0,3.0,upper,125.0,200.0,200.0,125.0,141.0,141.0,2,6.854751110076904,None,,,,,0,0,0,0,0,86,86,93,510.3872699737549,,,,,,,,,,,,,,,,,,,,,,,,,,,,,,,,,,,,,,,,,,,,,,,,,,,,,,,,,,,,,,,,,,,,,,,,,,,,,,,,,125.0,200.0,200.0,125.0,141.0,141.0,3.0,3.2,-258,-279,0,-14,229,288,510.372642993927,510.3726849555969,510.375061750412,510.3872699737549,510.53719902038574,510.53719902038574,510.53719902038574,510.53719902038574,510.53719902038574,510.53719902038574,510.53719902038574,517.2550570964813,2,6.854751110076904,None,,,,,,,,,,,,,,,,,,155,5,2025-02-28_09h54.01.515,comp,2024.2.4,61.13726902092714,2025-02-28 09h57.50.189861 -0500,
87,87,0,filler_square,None,None,None,None,None,None,None,None,None,None,3,3.4128341674804688,None,,,,,0,0,0,0,0,87,87,181,517.2702877521515,,,,,,,,,,,,,,,,,,,,,,,,,,,,,,,,,,,,,,,,,,,,,,,,,,,,,,,,,,,,,,,,,,,,,,,,,,,,,,,,,103.96260138128869,109.68492215217562,94.24533493558545,84.18797454635353,116.54912845918784,116.54912845918784,1.0,1.2,-193,18,0,-4,196,-11,517.2560005187988,517.2560412883759,517.2580785751343,517.2702877521515,517.4204318523407,517.4204318523407,517.4204318523407,517.4204318523407,517.4204318523407,517.4204318523407,517.4204318523407,520.6882405281067,3,3.4128341674804688,None,,,,,,,,,,,,,,,,,,155,5,2025-02-28_09h54.01.515,comp,2024.2.4,61.13726902092714,2025-02-28 09h57.50.189861 -0500,
88,88,0,critical,whd,20.0,2.1,lower,57.0,133.0,133.0,57.0,78.0,78.0,2,3.0021708011627197,None,,,,,0,0,0,0,0,88,88,14,520.7039175033569,,,,,,,,,,,,,,,,,,,,,,,,,,,,,,,,,,,,,,,,,,,,,,,,,,,,,,,,,,,,,,,,,,,,,,,,,,,,,,,,,57.0,133.0,133.0,57.0,78.0,78.0,2.1,2.11,-191,256,0,276,164,-259,520.6890392303467,520.6890790462494,520.6910312175751,520.7039175033569,520.8539485931396,520.8539485931396,520.8539485931396,520.8539485931396,520.8539485931396,520.8539485931396,520.8539485931396,523.7215173244476,2,3.0021708011627197,None,,,,,,,,,,,,,,,,,,155,5,2025-02-28_09h54.01.515,comp,2024.2.4,61.13726902092714,2025-02-28 09h57.50.189861 -0500,
89,89,0,critical,hdw,35.0,3.0,lower,133.0,57.0,70.0,70.0,57.0,133.0,1,2.633821964263916,None,,,,,0,0,0,0,0,89,89,110,523.7369203567505,,,,,,,,,,,,,,,,,,,,,,,,,,,,,,,,,,,,,,,,,,,,,,,,,,,,,,,,,,,,,,,,,,,,,,,,,,,,,,,,,133.0,57.0,70.0,70.0,57.0,133.0,3.0,3.2,-160,-290,0,-4,198,270,523.7222964763641,523.7223362922668,523.7246916294098,523.7369203567505,523.8870959281921,523.8870959281921,523.8870959281921,523.8870959281921,523.8870959281921,523.8870959281921,523.8870959281921,526.3882315158844,1,2.633821964263916,None,,,,,,,,,,,,,,,,,,155,5,2025-02-28_09h54.01.515,comp,2024.2.4,61.13726902092714,2025-02-28 09h57.50.189861 -0500,
90,90,0,critical,dwh,35.0,3.0,upper,127.0,127.0,125.0,200.0,200.0,125.0,2,1.2548739910125732,None,,,,,0,0,0,0,0,90,90,63,526.4035742282867,,,,,,,,,,,,,,,,,,,,,,,,,,,,,,,,,,,,,,,,,,,,,,,,,,,,,,,,,,,,,,,,,,,,,,,,,,,,,,,,,127.0,127.0,125.0,200.0,200.0,125.0,3.0,3.1,-260,265,0,4,258,-266,526.3890111446381,526.3890514373779,526.3913819789886,526.4035742282867,526.5539746284485,526.5539746284485,526.5539746284485,526.5539746284485,526.5539746284485,526.5539746284485,526.5539746284485,527.6715607643127,2,1.2548739910125732,None,,,,,,,,,,,,,,,,,,155,5,2025-02-28_09h54.01.515,comp,2024.2.4,61.13726902092714,2025-02-28 09h57.50.189861 -0500,
91,91,0,critical,hdw,35.0,4.0,lower,133.0,57.0,70.0,70.0,57.0,133.0,3,2.428007125854492,None,,,,,0,0,0,0,0,91,91,112,527.6868498325348,,,,,,,,,,,,,,,,,,,,,,,,,,,,,,,,,,,,,,,,,,,,,,,,,,,,,,,,,,,,,,,,,,,,,,,,,,,,,,,,,133.0,57.0,70.0,70.0,57.0,133.0,4.0,4.1,-160,-277,0,-9,198,-274,527.6723153591156,527.672354221344,527.6746983528137,527.6868498325348,527.8371284008026,527.8371284008026,527.8371284008026,527.8371284008026,527.8371284008026,527.8371284008026,527.8371284008026,530.1213567256927,3,2.428007125854492,None,,,,,,,,,,,,,,,,,,155,5,2025-02-28_09h54.01.515,comp,2024.2.4,61.13726902092714,2025-02-28 09h57.50.189861 -0500,
92,92,0,filler_random,None,None,None,None,None,None,None,None,None,None,2,1.3158273696899414,None,,,,,0,0,0,0,0,92,92,131,530.1370332241058,,,,,,,,,,,,,,,,,,,,,,,,,,,,,,,,,,,,,,,,,,,,,,,,,,,,,,,,,,,,,,,,,,,,,,,,,,,,,,,,,167.67866868682358,69.41591264442329,150.9216716212576,186.19992937340137,126.55503878993369,89.90132673739713,2.2,2.22,-224,252,0,-261,234,-288,530.1222677230835,530.1223080158234,530.1246173381805,530.1370332241058,530.2871930599213,530.2871930599213,530.2871930599213,530.2871930599213,530.2871930599213,530.2871930599213,530.2871930599213,531.4549612998962,2,1.3158273696899414,None,,,,,,,,,,,,,,,,,,155,5,2025-02-28_09h54.01.515,comp,2024.2.4,61.13726902092714,2025-02-28 09h57.50.189861 -0500,
93,93,0,critical,dhw,35.0,4.0,upper,127.0,127.0,200.0,125.0,125.0,200.0,3,1.5665225982666016,None,,,,,0,0,0,0,0,93,93,53,531.4704172611237,,,,,,,,,,,,,,,,,,,,,,,,,,,,,,,,,,,,,,,,,,,,,,,,,,,,,,,,,,,,,,,,,,,,,,,,,,,,,,,,,127.0,127.0,200.0,125.0,125.0,200.0,4.0,4.1,-222,-259,0,13,258,-287,531.4557597637177,531.4557993412018,531.4577436447144,531.4704172611237,531.6206095218658,531.6206095218658,531.6206095218658,531.6206095218658,531.6206095218658,531.6206095218658,531.6206095218658,533.0384488105774,3,1.5665225982666016,None,,,,,,,,,,,,,,,,,,155,5,2025-02-28_09h54.01.515,comp,2024.2.4,61.13726902092714,2025-02-28 09h57.50.189861 -0500,
94,94,0,filler_square,None,None,None,None,None,None,None,None,None,None,3,1.5090563297271729,None,,,,,0,0,0,0,0,94,94,176,533.0537967681885,,,,,,,,,,,,,,,,,,,,,,,,,,,,,,,,,,,,,,,,,,,,,,,,,,,,,,,,,,,,,,,,,,,,,,,,,,,,,,,,,151.02038298056652,108.38264352706359,138.94890066328142,138.3480230624209,183.33801681129606,183.33801681129606,1.0,1.3,261,-263,480,-286,737,-251,533.0394008159637,533.0394425392151,533.0414712429047,533.0537967681885,533.2041351795197,533.2041351795197,533.2041351795197,533.2041351795197,533.2041351795197,533.2041351795197,533.2041351795197,534.5716021060944,3,1.5090563297271729,None,,,,,,,,,,,,,,,,,,155,5,2025-02-28_09h54.01.515,comp,2024.2.4,61.13726902092714,2025-02-28 09h57.50.189861 -0500,
95,95,0,critical,whd,35.0,1.0,upper,125.0,200.0,200.0,125.0,127.0,127.0,2,2.671321153640747,None,,,,,0,0,0,0,0,95,95,85,534.5870053768158,,,,,,,,,,,,,,,,,,,,,,,,,,,,,,,,,,,,,,,,,,,,,,,,,,,,,,,,,,,,,,,,,,,,,,,,,,,,,,,,,125.0,200.0,200.0,125.0,127.0,127.0,1.0,1.2,-258,-19,0,1,222,-12,534.5723724365234,534.5724124908447,534.5747516155243,534.5870053768158,534.7371473312378,534.7371473312378,534.7371473312378,534.7371473312378,534.7371473312378,534.7371473312378,534.7371473312378,537.271598815918,2,2.671321153640747,None,,,,,,,,,,,,,,,,,,155,5,2025-02-28_09h54.01.515,comp,2024.2.4,61.13726902092714,2025-02-28 09h57.50.189861 -0500,
96,96,0,critical,dwh,35.0,3.0,lower,70.0,70.0,57.0,133.0,133.0,57.0,1,1.916935920715332,None,,,,,0,0,0,0,0,96,96,62,537.2867970466614,,,,,,,,,,,,,,,,,,,,,,,,,,,,,,,,,,,,,,,,,,,,,,,,,,,,,,,,,,,,,,,,,,,,,,,,,,,,,,,,,70.0,70.0,57.0,133.0,133.0,57.0,3.0,3.2,-198,-257,0,-11,191,271,537.2723941802979,537.2724339962006,537.2748234272003,537.2867970466614,537.4369530677795,537.4369530677795,537.4369530677795,537.4369530677795,537.4369530677795,537.4369530677795,537.4369530677795,539.2214632034302,1,1.916935920715332,None,,,,,,,,,,,,,,,,,,155,5,2025-02-28_09h54.01.515,comp,2024.2.4,61.13726902092714,2025-02-28 09h57.50.189861 -0500,
97,97,0,critical,dhw,35.0,2.1,upper,127.0,127.0,200.0,125.0,125.0,200.0,2,1.3174419403076172,None,,,,,0,0,0,0,0,97,97,1,539.2368068695068,,,,,,,,,,,,,,,,,,,,,,,,,,,,,,,,,,,,,,,,,,,,,,,,,,,,,,,,,,,,,,,,,,,,,,,,,,,,,,,,,127.0,127.0,200.0,125.0,125.0,200.0,2.1,2.11,-222,255,0,258,258,-271,539.2222728729248,539.2223126888275,539.2246706485748,539.2368068695068,539.3872857093811,539.3872857093811,539.3872857093811,539.3872857093811,539.3872857093811,539.3872857093811,539.3872857093811,540.5714178085327,2,1.3174419403076172,None,,,,,,,,,,,,,,,,,,155,5,2025-02-28_09h54.01.515,comp,2024.2.4,61.13726902092714,2025-02-28 09h57.50.189861 -0500,
98,98,0,filler_square,None,None,None,None,None,None,None,None,None,None,3,1.3279383182525635,None,,,,,0,0,0,0,0,98,98,194,540.586799621582,,,,,,,,,,,,,,,,,,,,,,,,,,,,,,,,,,,,,,,,,,,,,,,,,,,,,,,,,,,,,,,,,,,,,,,,,,,,,,,,,65.2076627207171,78.22988448091846,99.42512377551283,76.06293863856479,111.73016450322658,111.73016450322658,4.0,4.2,-173,-17,0,-254,190,3,540.572359085083,540.5724005699158,540.5747151374817,540.586799621582,540.7370762825012,540.7370762825012,540.7370762825012,540.7370762825012,540.7370762825012,540.7370762825012,540.7370762825012,541.9212508201599,3,1.3279383182525635,None,,,,,,,,,,,,,,,,,,155,5,2025-02-28_09h54.01.515,comp,2024.2.4,61.13726902092714,2025-02-28 09h57.50.189861 -0500,
99,99,0,filler_square,None,None,None,None,None,None,None,None,None,None,2,1.6500389575958252,None,,,,,0,0,0,0,0,99,99,199,541.9370813369751,,,,,,,,,,,,,,,,,,,,,,,,,,,,,,,,,,,,,,,,,,,,,,,,,,,,,,,,,,,,,,,,,,,,,,,,,,,,,,,,,63.31864622663805,63.31864622663805,60.01631692183205,62.11937942466395,61.0014709792987,62.13933177228002,4.0,4.1,-159,-276,0,-2,158,-277,541.92214012146,541.9221942424774,541.925409078598,541.9370813369751,542.0868425369263,542.0868425369263,542.0868425369263,542.0868425369263,542.0868425369263,542.0868425369263,542.0868425369263,543.6046719551086,2,1.6500389575958252,None,,,,,,,,,,,,,,,,,,155,5,2025-02-28_09h54.01.515,comp,2024.2.4,61.13726902092714,2025-02-28 09h57.50.189861 -0500,
100,100,0,critical,whd,20.0,2.1,upper,125.0,200.0,200.0,125.0,141.0,141.0,1,2.094651460647583,None,,,,,0,0,0,0,0,100,100,15,543.6200873851776,,,,,,,,,,,,,,,,,,,,,,,,,,,,,,,,,,,,,,,,,,,,,,,,,,,,,,,,,,,,,,,,,,,,,,,,,,,,,,,,,125.0,200.0,200.0,125.0,141.0,141.0,2.1,2.12,-258,-276,0,-277,229,258,543.6054747104645,543.6055157184601,543.6079239845276,543.6200873851776,543.7705430984497,543.7705430984497,543.7705430984497,543.7705430984497,543.7705430984497,543.7705430984497,543.7705430984497,545.7214894294739,1,2.094651460647583,None,,,,,,,,,,,,,,,,,,155,5,2025-02-28_09h54.01.515,comp,2024.2.4,61.13726902092714,2025-02-28 09h57.50.189861 -0500,
101,101,0,critical,dhw,20.0,3.0,lower,78.0,78.0,133.0,57.0,57.0,133.0,2,2.088771104812622,None,,,,,0,0,0,0,0,101,101,56,545.7370388507843,,,,,,,,,,,,,,,,,,,,,,,,,,,,,,,,,,,,,,,,,,,,,,,,,,,,,,,,,,,,,,,,,,,,,,,,,,,,,,,,,78.0,78.0,133.0,57.0,57.0,133.0,3.0,3.2,-164,-279,0,0,191,262,545.7222964763641,545.7223362922668,545.724383354187,545.7370388507843,545.8871827125549,545.8871827125549,545.8871827125549,545.8871827125549,545.8871827125549,545.8871827125549,545.8871827125549,547.838077545166,2,2.088771104812622,None,,,,,,,,,,,,,,,,,,155,5,2025-02-28_09h54.01.515,comp,2024.2.4,61.13726902092714,2025-02-28 09h57.50.189861 -0500,
102,102,0,filler_random,None,None,None,None,None,None,None,None,None,None,2,1.2683207988739014,None,,,,,0,0,0,0,0,102,102,166,547.8535070419312,,,,,,,,,,,,,,,,,,,,,,,,,,,,,,,,,,,,,,,,,,,,,,,,,,,,,,,,,,,,,,,,,,,,,,,,,,,,,,,,,173.94394397677203,62.657006918969465,183.32243909829566,170.61067846555753,124.96440967261184,170.11677314576804,2.1,2.11,-213,259,0,281,266,-265,547.8389852046967,547.8390264511108,547.8415474891663,547.8535070419312,548.0037095546722,548.0037095546722,548.0037095546722,548.0037095546722,548.0037095546722,548.0037095546722,548.0037095546722,549.1380269527435,2,1.2683207988739014,None,,,,,,,,,,,,,,,,,,155,5,2025-02-28_09h54.01.515,comp,2024.2.4,61.13726902092714,2025-02-28 09h57.50.189861 -0500,
103,103,0,critical,hwd,20.0,4.0,lower,133.0,57.0,57.0,133.0,78.0,78.0,1,1.5933196544647217,None,,,,,0,0,0,0,0,103,103,106,549.1533946990967,,,,,,,,,,,,,,,,,,,,,,,,,,,,,,,,,,,,,,,,,,,,,,,,,,,,,,,,,,,,,,,,,,,,,,,,,,,,,,,,,133.0,57.0,57.0,133.0,78.0,78.0,4.0,4.1,-191,-266,0,1,202,-282,549.1388142108917,549.1388547420502,549.1413795948029,549.1533946990967,549.3035662174225,549.3035662174225,549.3035662174225,549.3035662174225,549.3035662174225,549.3035662174225,549.3035662174225,550.7545511722565,1,1.5933196544647217,None,,,,,,,,,,,,,,,,,,155,5,2025-02-28_09h54.01.515,comp,2024.2.4,61.13726902092714,2025-02-28 09h57.50.189861 -0500,
104,104,0,catch,None,None,None,None,None,None,None,None,None,None,2,1.0711076259613037,None,,,,,0,0,0,0,0,104,104,124,550.7706818580627,,,,,,,,,,,,,,,,,,,,,,,,,,,,,,,,,,,,,,,,,,,,,,,,,,,,,,,,,,,,,,,,,,,,,,,,,,,,,,,,,87,103,143,182,87,103,4.0,4.2,-238,-19,0,-261,238,-12,550.7555720806122,550.7556138038635,550.7576684951782,550.7706818580627,550.9203383922577,550.9203383922577,550.9203383922577,550.9203383922577,550.9203383922577,550.9203383922577,550.9203383922577,551.8547279834747,2,1.0711076259613037,None,,,,,,,,,,,,,,,,,,155,5,2025-02-28_09h54.01.515,comp,2024.2.4,61.13726902092714,2025-02-28 09h57.50.189861 -0500,
105,105,0,critical,wdh,20.0,4.0,lower,57.0,133.0,78.0,78.0,133.0,57.0,3,3.939744472503662,None,,,,,0,0,0,0,0,105,105,82,551.8700084686279,,,,,,,,,,,,,,,,,,,,,,,,,,,,,,,,,,,,,,,,,,,,,,,,,,,,,,,,,,,,,,,,,,,,,,,,,,,,,,,,,57.0,133.0,78.0,78.0,133.0,57.0,4.0,4.1,-202,-256,0,12,164,-257,551.8554983139038,551.8555369377136,551.857931137085,551.8700084686279,552.0202405452728,552.0202405452728,552.0202405452728,552.0202405452728,552.0202405452728,552.0202405452728,552.0202405452728,555.8217144012451,3,3.939744472503662,None,,,,,,,,,,,,,,,,,,155,5,2025-02-28_09h54.01.515,comp,2024.2.4,61.13726902092714,2025-02-28 09h57.50.189861 -0500,
106,106,0,critical,wdh,20.0,1.0,lower,57.0,133.0,78.0,78.0,133.0,57.0,3,1.7337689399719238,None,,,,,0,0,0,0,0,106,106,78,555.8366775512695,,,,,,,,,,,,,,,,,,,,,,,,,,,,,,,,,,,,,,,,,,,,,,,,,,,,,,,,,,,,,,,,,,,,,,,,,,,,,,,,,57.0,133.0,78.0,78.0,133.0,57.0,1.0,1.1,-682,284,-480,269,-316,257,555.8225286006927,555.8225677013397,555.8249740600586,555.8366775512695,555.9868590831757,555.9868590831757,555.9868590831757,555.9868590831757,555.9868590831757,555.9868590831757,555.9868590831757,557.5880422592163,3,1.7337689399719238,None,,,,,,,,,,,,,,,,,,155,5,2025-02-28_09h54.01.515,comp,2024.2.4,61.13726902092714,2025-02-28 09h57.50.189861 -0500,
107,107,0,catch,None,None,None,None,None,None,None,None,None,None,1,1.0794260501861572,None,,,,,0,0,0,0,0,107,107,122,557.603414773941,,,,,,,,,,,,,,,,,,,,,,,,,,,,,,,,,,,,,,,,,,,,,,,,,,,,,,,,,,,,,,,,,,,,,,,,,,,,,,,,,87,103,198,127,133,57,2.2,2.21,-211,-251,0,267,188,276,557.589079618454,557.5891206264496,557.5916881561279,557.603414773941,557.7535197734833,557.7535197734833,557.7535197734833,557.7535197734833,557.7535197734833,557.7535197734833,557.7535197734833,558.6880650520325,1,1.0794260501861572,None,,,,,,,,,,,,,,,,,,155,5,2025-02-28_09h54.01.515,comp,2024.2.4,61.13726902092714,2025-02-28 09h57.50.189861 -0500,
108,108,0,filler_random,None,None,None,None,None,None,None,None,None,None,2,2.386437177658081,None,,,,,0,0,0,0,0,108,108,168,558.7036092281342,,,,,,,,,,,,,,,,,,,,,,,,,,,,,,,,,,,,,,,,,,,,,,,,,,,,,,,,,,,,,,,,,,,,,,,,,,,,,,,,,145.90712356604877,153.8788070139663,146.27479364397647,198.42175524839098,57.26398562368018,102.8775139864847,4.0,4.1,-272,-257,0,8,247,-275,558.6889131069183,558.6889522075653,558.6908538341522,558.7036092281342,558.8536608219147,558.8536608219147,558.8536608219147,558.8536608219147,558.8536608219147,558.8536608219147,558.8536608219147,561.104740858078,2,2.386437177658081,None,,,,,,,,,,,,,,,,,,155,5,2025-02-28_09h54.01.515,comp,2024.2.4,61.13726902092714,2025-02-28 09h57.50.189861 -0500,
109,109,0,critical,hwd,35.0,4.0,upper,200.0,125.0,125.0,200.0,127.0,127.0,1,2.7000298500061035,None,,,,,0,0,0,0,0,109,109,101,561.1199719905853,,,,,,,,,,,,,,,,,,,,,,,,,,,,,,,,,,,,,,,,,,,,,,,,,,,,,,,,,,,,,,,,,,,,,,,,,,,,,,,,,200.0,125.0,125.0,200.0,127.0,127.0,4.0,4.2,-258,5,0,-289,260,7,561.1055271625519,561.1055672168732,561.1076259613037,561.1199719905853,561.2703487873077,561.2703487873077,561.2703487873077,561.2703487873077,561.2703487873077,561.2703487873077,561.2703487873077,563.8215410709381,1,2.7000298500061035,None,,,,,,,,,,,,,,,,,,155,5,2025-02-28_09h54.01.515,comp,2024.2.4,61.13726902092714,2025-02-28 09h57.50.189861 -0500,
110,110,0,filler_random,None,None,None,None,None,None,None,None,None,None,2,1.4379098415374756,None,,,,,0,0,0,0,0,110,110,150,563.8368480205536,,,,,,,,,,,,,,,,,,,,,,,,,,,,,,,,,,,,,,,,,,,,,,,,,,,,,,,,,,,,,,,,,,,,,,,,,,,,,,,,,102.15830479681871,94.23518621789688,157.20895742390377,136.64914708872175,148.79277470789276,166.98603727233547,1.0,1.1,-691,252,-480,277,-232,252,563.822411775589,563.8224518299103,563.824501991272,563.8368480205536,563.9869873523712,563.9869873523712,563.9869873523712,563.9869873523712,563.9869873523712,563.9869873523712,563.9869873523712,565.2879643440247,2,1.4379098415374756,None,,,,,,,,,,,,,,,,,,155,5,2025-02-28_09h54.01.515,comp,2024.2.4,61.13726902092714,2025-02-28 09h57.50.189861 -0500,
111,111,0,critical,dwh,35.0,4.0,lower,70.0,70.0,57.0,133.0,133.0,57.0,2,3.300248384475708,None,,,,,0,0,0,0,0,111,111,64,565.3032479286194,,,,,,,,,,,,,,,,,,,,,,,,,,,,,,,,,,,,,,,,,,,,,,,,,,,,,,,,,,,,,,,,,,,,,,,,,,,,,,,,,70.0,70.0,57.0,133.0,133.0,57.0,4.0,4.2,-198,14,0,-268,191,9,565.2887210845947,565.2887597084045,565.2912471294403,565.3032479286194,565.4534041881561,565.4534041881561,565.4534041881561,565.4534041881561,565.4534041881561,565.4534041881561,565.4534041881561,568.6211206912994,2,3.300248384475708,None,,,,,,,,,,,,,,,,,,155,5,2025-02-28_09h54.01.515,comp,2024.2.4,61.13726902092714,2025-02-28 09h57.50.189861 -0500,
112,112,0,filler_random,None,None,None,None,None,None,None,None,None,None,1,1.2939753532409668,None,,,,,0,0,0,0,0,112,112,167,568.6365623474121,,,,,,,,,,,,,,,,,,,,,,,,,,,,,,,,,,,,,,,,,,,,,,,,,,,,,,,,,,,,,,,,,,,,,,,,,,,,,,,,,117.55447161173868,82.973407115368,63.32806765484021,74.08049577884657,74.50498074446364,67.65104448226202,2.2,2.22,-175,253,0,-287,167,-266,568.6220257282257,568.6220662593842,568.6243648529053,568.6365623474121,568.7866909503937,568.7866909503937,568.7866909503937,568.7866909503937,568.7866909503937,568.7866909503937,568.7866909503937,569.93785405159,1,1.2939753532409668,None,,,,,,,,,,,,,,,,,,155,5,2025-02-28_09h54.01.515,comp,2024.2.4,61.13726902092714,2025-02-28 09h57.50.189861 -0500,
113,113,0,critical,dhw,20.0,4.0,lower,78.0,78.0,133.0,57.0,57.0,133.0,3,2.2335612773895264,None,,,,,0,0,0,0,0,113,113,58,569.9534559249878,,,,,,,,,,,,,,,,,,,,,,,,,,,,,,,,,,,,,,,,,,,,,,,,,,,,,,,,,,,,,,,,,,,,,,,,,,,,,,,,,78.0,78.0,133.0,57.0,57.0,133.0,4.0,4.2,-164,17,0,-271,191,-1,569.9386382102966,569.938679933548,569.9411900043488,569.9534559249878,570.1033742427826,570.1033742427826,570.1033742427826,570.1033742427826,570.1033742427826,570.1033742427826,570.1033742427826,572.2050387859344,3,2.2335612773895264,None,,,,,,,,,,,,,,,,,,155,5,2025-02-28_09h54.01.515,comp,2024.2.4,61.13726902092714,2025-02-28 09h57.50.189861 -0500,
114,114,0,filler_random,None,None,None,None,None,None,None,None,None,None,2,0.8380253314971924,None,,,,,0,0,0,0,0,114,114,143,572.2200350761414,,,,,,,,,,,,,,,,,,,,,,,,,,,,,,,,,,,,,,,,,,,,,,,,,,,,,,,,,,,,,,,,,,,,,,,,,,,,,,,,,109.87342282305329,109.98893980013978,157.23898961732914,170.91655053166716,195.92779328117973,71.96006776222798,4.0,4.1,-236,-278,0,-9,217,-267,572.20596575737,572.2060081958771,572.2081184387207,572.2200350761414,572.3702857494354,572.3702857494354,572.3702857494354,572.3702857494354,572.3702857494354,572.3702857494354,572.3702857494354,573.0712602138519,2,0.8380253314971924,None,,,,,,,,,,,,,,,,,,155,5,2025-02-28_09h54.01.515,comp,2024.2.4,61.13726902092714,2025-02-28 09h57.50.189861 -0500,
115,115,0,critical,wdh,35.0,2.1,lower,57.0,133.0,70.0,70.0,133.0,57.0,1,2.235323667526245,None,,,,,0,0,0,0,0,115,115,32,573.0865757465363,,,,,,,,,,,,,,,,,,,,,,,,,,,,,,,,,,,,,,,,,,,,,,,,,,,,,,,,,,,,,,,,,,,,,,,,,,,,,,,,,57.0,133.0,70.0,70.0,133.0,57.0,2.1,2.11,-198,290,0,259,160,-252,573.0721094608307,573.0721483230591,573.0744962692261,573.0865757465363,573.2367513179779,573.2367513179779,573.2367513179779,573.2367513179779,573.2367513179779,573.2367513179779,573.2367513179779,575.3378491401672,1,2.235323667526245,None,,,,,,,,,,,,,,,,,,155,5,2025-02-28_09h54.01.515,comp,2024.2.4,61.13726902092714,2025-02-28 09h57.50.189861 -0500,
116,116,0,filler_square,None,None,None,None,None,None,None,None,None,None,2,9.833498477935791,None,,,,,0,0,0,0,0,116,116,170,575.3532915115356,,,,,,,,,,,,,,,,,,,,,,,,,,,,,,,,,,,,,,,,,,,,,,,,,,,,,,,,,,,,,,,,,,,,,,,,,,,,,,,,,64.09853659272171,62.255853386991134,65.55132730695072,65.55132730695072,62.088431674871906,61.78377144375946,2.2,2.22,-160,266,0,-251,160,-274,575.3387975692749,575.3388385772705,575.3412888050079,575.3532915115356,575.5033476352692,575.5033476352692,575.5033476352692,575.5033476352692,575.5033476352692,575.5033476352692,575.5033476352692,585.1879677772522,2,9.833498477935791,None,,,,,,,,,,,,,,,,,,155,5,2025-02-28_09h54.01.515,comp,2024.2.4,61.13726902092714,2025-02-28 09h57.50.189861 -0500,
117,117,0,catch,None,None,None,None,None,None,None,None,None,None,1,1.622049331665039,None,,,,,0,0,0,0,0,117,117,129,585.2035293579102,,,,,,,,,,,,,,,,,,,,,,,,,,,,,,,,,,,,,,,,,,,,,,,,,,,,,,,,,,,,,,,,,,,,,,,,,,,,,,,,,197,128,89,101,94,96,1.0,1.1,-690,290,-480,269,-286,264,585.1890103816986,585.18905210495,585.1918215751648,585.2035293579102,585.3533201217651,585.3533201217651,585.3533201217651,585.3533201217651,585.3533201217651,585.3533201217651,585.3533201217651,586.8379294872284,1,1.622049331665039,None,,,,,,,,,,,,,,,,,,155,5,2025-02-28_09h54.01.515,comp,2024.2.4,61.13726902092714,2025-02-28 09h57.50.189861 -0500,
118,118,0,critical,wdh,20.0,3.0,upper,125.0,200.0,141.0,141.0,200.0,125.0,3,4.445378303527832,None,,,,,0,0,0,0,0,118,118,81,586.8530964851379,,,,,,,,,,,,,,,,,,,,,,,,,,,,,,,,,,,,,,,,,,,,,,,,,,,,,,,,,,,,,,,,,,,,,,,,,,,,,,,,,125.0,200.0,141.0,141.0,200.0,125.0,3.0,3.1,-266,251,0,-3,229,-279,586.8387343883514,586.838773727417,586.8412652015686,586.8530964851379,587.0034327507019,587.0034327507019,587.0034327507019,587.0034327507019,587.0034327507019,587.0034327507019,587.0034327507019,591.3045179843903,3,4.445378303527832,None,,,,,,,,,,,,,,,,,,155,5,2025-02-28_09h54.01.515,comp,2024.2.4,61.13726902092714,2025-02-28 09h57.50.189861 -0500,
119,119,0,critical,dwh,35.0,2.1,lower,70.0,70.0,57.0,133.0,133.0,57.0,2,1.8895039558410645,None,,,,,0,0,0,0,0,119,119,28,591.3199751377106,,,,,,,,,,,,,,,,,,,,,,,,,,,,,,,,,,,,,,,,,,,,,,,,,,,,,,,,,,,,,,,,,,,,,,,,,,,,,,,,,70.0,70.0,57.0,133.0,133.0,57.0,2.1,2.12,-198,-266,0,-279,191,290,591.3052728176117,591.3053109645844,591.3072831630707,591.3199751377106,591.4698131084442,591.4698131084442,591.4698131084442,591.4698131084442,591.4698131084442,591.4698131084442,591.4698131084442,593.2212297916412,2,1.8895039558410645,None,,,,,,,,,,,,,,,,,,155,5,2025-02-28_09h54.01.515,comp,2024.2.4,61.13726902092714,2025-02-28 09h57.50.189861 -0500,
120,120,0,critical,whd,35.0,2.1,lower,57.0,133.0,133.0,57.0,70.0,70.0,2,2.6533968448638916,None,,,,,0,0,0,0,0,120,120,12,593.2363529205322,,,,,,,,,,,,,,,,,,,,,,,,,,,,,,,,,,,,,,,,,,,,,,,,,,,,,,,,,,,,,,,,,,,,,,,,,,,,,,,,,57.0,133.0,133.0,57.0,70.0,70.0,2.1,2.11,-191,278,0,286,160,-285,593.2220222949982,593.2220613956451,593.2243573665619,593.2363529205322,593.3868288993835,593.3868288993835,593.3868288993835,593.3868288993835,593.3868288993835,593.3868288993835,593.3868288993835,595.9045865535736,2,2.6533968448638916,None,,,,,,,,,,,,,,,,,,155,5,2025-02-28_09h54.01.515,comp,2024.2.4,61.13726902092714,2025-02-28 09h57.50.189861 -0500,
121,121,0,filler_square,None,None,None,None,None,None,None,None,None,None,3,2.547231674194336,None,,,,,0,0,0,0,0,121,121,178,595.9198622703552,,,,,,,,,,,,,,,,,,,,,,,,,,,,,,,,,,,,,,,,,,,,,,,,,,,,,,,,,,,,,,,,,,,,,,,,,,,,,,,,,155.77615052601692,118.93620925118046,110.67625004202756,71.60993887772362,165.19841302508374,165.19841302508374,2.2,2.22,-191,264,0,-270,214,-257,595.9057283401489,595.9057703018188,595.9077162742615,595.9198622703552,596.0700905323029,596.0700905323029,596.0700905323029,596.0700905323029,596.0700905323029,596.0700905323029,596.0700905323029,598.4713342189789,3,2.547231674194336,None,,,,,,,,,,,,,,,,,,155,5,2025-02-28_09h54.01.515,comp,2024.2.4,61.13726902092714,2025-02-28 09h57.50.189861 -0500,
122,122,0,filler_square,None,None,None,None,None,None,None,None,None,None,1,1.0837838649749756,None,,,,,0,0,0,0,0,122,122,207,598.486734867096,,,,,,,,,,,,,,,,,,,,,,,,,,,,,,,,,,,,,,,,,,,,,,,,,,,,,,,,,,,,,,,,,,,,,,,,,,,,,,,,,197.23370638281182,197.23370638281182,126.5086853918421,96.07924663795681,174.2272167402798,154.11425084775533,2.1,2.11,-243,262,0,290,221,-278,598.4722969532013,598.4723372459412,598.4743926525116,598.486734867096,598.6368038654327,598.6368038654327,598.6368038654327,598.6368038654327,598.6368038654327,598.6368038654327,598.6368038654327,599.5879106521606,1,1.0837838649749756,None,,,,,,,,,,,,,,,,,,155,5,2025-02-28_09h54.01.515,comp,2024.2.4,61.13726902092714,2025-02-28 09h57.50.189861 -0500,
123,123,0,catch,None,None,None,None,None,None,None,None,None,None,1,1.6064717769622803,None,,,,,0,0,0,0,0,123,123,125,599.6030867099762,,,,,,,,,,,,,,,,,,,,,,,,,,,,,,,,,,,,,,,,,,,,,,,,,,,,,,,,,,,,,,,,,,,,,,,,,,,,,,,,,192,133,77,113,121,69,2.2,2.21,-219,-268,0,282,187,274,599.5889444351196,599.5889854431152,599.5914256572723,599.6030867099762,599.7532351016998,599.7532351016998,599.7532351016998,599.7532351016998,599.7532351016998,599.7532351016998,599.7532351016998,601.2208399772644,1,1.6064717769622803,None,,,,,,,,,,,,,,,,,,155,5,2025-02-28_09h54.01.515,comp,2024.2.4,61.13726902092714,2025-02-28 09h57.50.189861 -0500,
124,124,0,filler_square,None,None,None,None,None,None,None,None,None,None,3,1.4307634830474854,None,,,,,0,0,0,0,0,124,124,180,601.2366375923157,,,,,,,,,,,,,,,,,,,,,,,,,,,,,,,,,,,,,,,,,,,,,,,,,,,,,,,,,,,,,,,,,,,,,,,,,,,,,,,,,75.9316215124153,69.0104504199941,73.6776177867606,60.91423577380818,104.42663056267381,104.42663056267381,2.2,2.21,-161,-270,0,264,179,278,601.2218101024628,601.2218525409698,601.2244465351105,601.2366375923157,601.3867359161377,601.3867359161377,601.3867359161377,601.3867359161377,601.3867359161377,601.3867359161377,601.3867359161377,602.6709830760956,3,1.4307634830474854,None,,,,,,,,,,,,,,,,,,155,5,2025-02-28_09h54.01.515,comp,2024.2.4,61.13726902092714,2025-02-28 09h57.50.189861 -0500,
125,125,0,critical,hdw,20.0,4.0,upper,200.0,125.0,141.0,141.0,125.0,200.0,3,5.371186971664429,None,,,,,0,0,0,0,0,125,125,119,602.6866879463196,,,,,,,,,,,,,,,,,,,,,,,,,,,,,,,,,,,,,,,,,,,,,,,,,,,,,,,,,,,,,,,,,,,,,,,,,,,,,,,,,200.0,125.0,141.0,141.0,125.0,200.0,4.0,4.2,-229,-4,0,-268,266,-2,602.6717727184296,602.6718142032623,602.6743974685669,602.6866879463196,602.8367455005646,602.8367455005646,602.8367455005646,602.8367455005646,602.8367455005646,602.8367455005646,602.8367455005646,608.0715398788452,3,5.371186971664429,None,,,,,,,,,,,,,,,,,,155,5,2025-02-28_09h54.01.515,comp,2024.2.4,61.13726902092714,2025-02-28 09h57.50.189861 -0500,
126,126,0,critical,hdw,35.0,2.1,upper,200.0,125.0,127.0,127.0,125.0,200.0,1,3.844074010848999,None,,,,,0,0,0,0,0,126,126,21,608.086323261261,,,,,,,,,,,,,,,,,,,,,,,,,,,,,,,,,,,,,,,,,,,,,,,,,,,,,,,,,,,,,,,,,,,,,,,,,,,,,,,,,200.0,125.0,127.0,127.0,125.0,200.0,2.1,2.11,-222,282,0,265,260,-259,608.0723586082458,608.0723996162415,608.0746488571167,608.086323261261,608.2366178035736,608.2366178035736,608.2366178035736,608.2366178035736,608.2366178035736,608.2366178035736,608.2366178035736,611.9378254413605,1,3.844074010848999,None,,,,,,,,,,,,,,,,,,155,5,2025-02-28_09h54.01.515,comp,2024.2.4,61.13726902092714,2025-02-28 09h57.50.189861 -0500,
127,127,0,filler_square,None,None,None,None,None,None,None,None,None,None,3,1.4412717819213867,None,,,,,0,0,0,0,0,127,127,191,611.9532814025879,,,,,,,,,,,,,,,,,,,,,,,,,,,,,,,,,,,,,,,,,,,,,,,,,,,,,,,,,,,,,,,,,,,,,,,,,,,,,,,,,126.72894260447438,65.2398548361176,62.207844166835024,91.83902704786935,170.79475875820918,170.79475875820918,3.0,3.2,-175,-285,0,18,227,260,611.9387633800507,611.9388055801392,611.941243648529,611.9532814025879,612.1032869815826,612.1032869815826,612.1032869815826,612.1032869815826,612.1032869815826,612.1032869815826,612.1032869815826,613.404278755188,3,1.4412717819213867,None,,,,,,,,,,,,,,,,,,155,5,2025-02-28_09h54.01.515,comp,2024.2.4,61.13726902092714,2025-02-28 09h57.50.189861 -0500,
128,128,0,critical,hwd,35.0,1.0,upper,200.0,125.0,125.0,200.0,127.0,127.0,2,3.44709849357605,None,,,,,0,0,0,0,0,128,128,97,613.419896364212,,,,,,,,,,,,,,,,,,,,,,,,,,,,,,,,,,,,,,,,,,,,,,,,,,,,,,,,,,,,,,,,,,,,,,,,,,,,,,,,,200.0,125.0,125.0,200.0,127.0,127.0,1.0,1.1,-738,272,-480,262,-220,278,613.4050569534302,613.40509724617,613.4073338508606,613.419896364212,613.5699682235718,613.5699682235718,613.5699682235718,613.5699682235718,613.5699682235718,613.5699682235718,613.5699682235718,616.871232509613,2,3.44709849357605,None,,,,,,,,,,,,,,,,,,155,5,2025-02-28_09h54.01.515,comp,2024.2.4,61.13726902092714,2025-02-28 09h57.50.189861 -0500,
129,129,0,catch,None,None,None,None,None,None,None,None,None,None,3,0.9656999111175537,None,,,,,0,0,0,0,0,129,129,127,616.8866376876831,,,,,,,,,,,,,,,,,,,,,,,,,,,,,,,,,,,,,,,,,,,,,,,,,,,,,,,,,,,,,,,,,,,,,,,,,,,,,,,,,93,97,105,85,143,182,1.0,1.1,-667,272,-480,286,-250,290,616.8722689151764,616.872311592102,616.8743796348572,616.8866376876831,617.036616563797,617.036616563797,617.036616563797,617.036616563797,617.036616563797,617.036616563797,617.036616563797,617.8543198108673,3,0.9656999111175537,None,,,,,,,,,,,,,,,,,,155,5,2025-02-28_09h54.01.515,comp,2024.2.4,61.13726902092714,2025-02-28 09h57.50.189861 -0500,
130,130,0,filler_random,None,None,None,None,None,None,None,None,None,None,1,1.9500207901000977,None,,,,,0,0,0,0,0,130,130,130,617.8698501586914,,,,,,,,,,,,,,,,,,,,,,,,,,,,,,,,,,,,,,,,,,,,,,,,,,,,,,,,,,,,,,,,,,,,,,,,,,,,,,,,,103.86945683301823,138.8466701784332,156.26798919919557,60.07427004113392,65.85332086644839,121.21685411280488,1.0,1.2,-195,11,0,10,187,-12,617.8552021980286,617.8552429676056,617.8575661182404,617.8698501586914,618.0199112892151,618.0199112892151,618.0199112892151,618.0199112892151,618.0199112892151,618.0199112892151,618.0199112892151,619.8210108280182,1,1.9500207901000977,None,,,,,,,,,,,,,,,,,,155,5,2025-02-28_09h54.01.515,comp,2024.2.4,61.13726902092714,2025-02-28 09h57.50.189861 -0500,
131,131,0,filler_random,None,None,None,None,None,None,None,None,None,None,1,4.983088254928589,None,,,,,0,0,0,0,0,131,131,138,619.8365132808685,,,,,,,,,,,,,,,,,,,,,,,,,,,,,,,,,,,,,,,,,,,,,,,,,,,,,,,,,,,,,,,,,,,,,,,,,,,,,,,,,74.60997673128897,137.57232941323656,64.91410252353724,95.27267107708843,94.6106861080994,72.36742729719441,4.0,4.2,-212,-7,0,-289,180,-17,619.8218920230865,619.8219323158264,619.8243615627289,619.8365132808685,619.9865214824677,619.9865214824677,619.9865214824677,619.9865214824677,619.9865214824677,619.9865214824677,619.9865214824677,624.8210046291351,1,4.983088254928589,None,,,,,,,,,,,,,,,,,,155,5,2025-02-28_09h54.01.515,comp,2024.2.4,61.13726902092714,2025-02-28 09h57.50.189861 -0500,
132,132,0,critical,dhw,35.0,2.1,upper,127.0,127.0,200.0,125.0,125.0,200.0,3,1.8154337406158447,None,,,,,0,0,0,0,0,132,132,25,624.8364777565002,,,,,,,,,,,,,,,,,,,,,,,,,,,,,,,,,,,,,,,,,,,,,,,,,,,,,,,,,,,,,,,,,,,,,,,,,,,,,,,,,127.0,127.0,200.0,125.0,125.0,200.0,2.1,2.12,-222,-276,0,-280,258,272,624.8217854499817,624.8218247890472,624.8242456912994,624.8364777565002,624.9867765903473,624.9867765903473,624.9867765903473,624.9867765903473,624.9867765903473,624.9867765903473,624.9867765903473,626.6543569564819,3,1.8154337406158447,None,,,,,,,,,,,,,,,,,,155,5,2025-02-28_09h54.01.515,comp,2024.2.4,61.13726902092714,2025-02-28 09h57.50.189861 -0500,
133,133,0,critical,dwh,20.0,3.0,lower,78.0,78.0,57.0,133.0,133.0,57.0,3,2.1168596744537354,None,,,,,0,0,0,0,0,133,133,68,626.6697051525116,,,,,,,,,,,,,,,,,,,,,,,,,,,,,,,,,,,,,,,,,,,,,,,,,,,,,,,,,,,,,,,,,,,,,,,,,,,,,,,,,78.0,78.0,57.0,133.0,133.0,57.0,3.0,3.1,-202,251,0,-14,191,-252,626.6551151275635,626.6551558971405,626.6572024822235,626.6697051525116,626.8196711540222,626.8196711540222,626.8196711540222,626.8196711540222,626.8196711540222,626.8196711540222,626.8196711540222,628.8040237426758,3,2.1168596744537354,None,,,,,,,,,,,,,,,,,,155,5,2025-02-28_09h54.01.515,comp,2024.2.4,61.13726902092714,2025-02-28 09h57.50.189861 -0500,
134,134,0,filler_random,None,None,None,None,None,None,None,None,None,None,1,1.032261848449707,None,,,,,0,0,0,0,0,134,134,162,628.8195114135742,,,,,,,,,,,,,,,,,,,,,,,,,,,,,,,,,,,,,,,,,,,,,,,,,,,,,,,,,,,,,,,,,,,,,,,,,,,,,,,,,180.08274981888144,127.47467414229108,147.203778901429,93.24850631184222,140.8248135066419,140.3299327300639,4.0,4.2,-206,1,0,-287,213,17,628.8048982620239,628.8049373626709,628.8074662685394,628.8195114135742,628.9698297977448,628.9698297977448,628.9698297977448,628.9698297977448,628.9698297977448,628.9698297977448,628.9698297977448,629.8542997837067,1,1.032261848449707,None,,,,,,,,,,,,,,,,,,155,5,2025-02-28_09h54.01.515,comp,2024.2.4,61.13726902092714,2025-02-28 09h57.50.189861 -0500,
135,135,0,critical,wdh,20.0,4.0,upper,125.0,200.0,141.0,141.0,200.0,125.0,3,1.7337710857391357,None,,,,,0,0,0,0,0,135,135,83,629.8696415424347,,,,,,,,,,,,,,,,,,,,,,,,,,,,,,,,,,,,,,,,,,,,,,,,,,,,,,,,,,,,,,,,,,,,,,,,,,,,,,,,,125.0,200.0,141.0,141.0,200.0,125.0,4.0,4.1,-266,-263,0,14,229,-254,629.8550755977631,629.8551168441772,629.8573606014252,629.8696415424347,630.0200262069702,630.0200262069702,630.0200262069702,630.0200262069702,630.0200262069702,630.0200262069702,630.0200262069702,631.6209211349487,3,1.7337710857391357,None,,,,,,,,,,,,,,,,,,155,5,2025-02-28_09h54.01.515,comp,2024.2.4,61.13726902092714,2025-02-28 09h57.50.189861 -0500,
136,136,0,critical,hdw,35.0,4.0,upper,200.0,125.0,127.0,127.0,125.0,200.0,3,3.7101402282714844,None,,,,,0,0,0,0,0,136,136,113,631.6362154483795,,,,,,,,,,,,,,,,,,,,,,,,,,,,,,,,,,,,,,,,,,,,,,,,,,,,,,,,,,,,,,,,,,,,,,,,,,,,,,,,,200.0,125.0,127.0,127.0,125.0,200.0,4.0,4.1,-222,-281,0,1,260,-268,631.6217083930969,631.6217477321625,631.6251392364502,631.6362154483795,631.7864253520966,631.7864253520966,631.7864253520966,631.7864253520966,631.7864253520966,631.7864253520966,631.7864253520966,635.3543689250946,3,3.7101402282714844,None,,,,,,,,,,,,,,,,,,155,5,2025-02-28_09h54.01.515,comp,2024.2.4,61.13726902092714,2025-02-28 09h57.50.189861 -0500,
137,137,0,filler_random,None,None,None,None,None,None,None,None,None,None,3,1.0660390853881836,None,,,,,0,0,0,0,0,137,137,140,635.36985039711,,,,,,,,,,,,,,,,,,,,,,,,,,,,,,,,,,,,,,,,,,,,,,,,,,,,,,,,,,,,,,,,,,,,,,,,,,,,,,,,,144.865170041943,65.26161432525325,172.44563478458159,85.93238283823851,126.03782049388117,185.75730198156435,3.0,3.1,-172,266,0,-5,232,-264,635.3552672863007,635.355307340622,635.357382774353,635.36985039711,635.5197389125824,635.5197389125824,635.5197389125824,635.5197389125824,635.5197389125824,635.5197389125824,635.5197389125824,636.4541137218475,3,1.0660390853881836,None,,,,,,,,,,,,,,,,,,155,5,2025-02-28_09h54.01.515,comp,2024.2.4,61.13726902092714,2025-02-28 09h57.50.189861 -0500,
138,138,0,filler_random,None,None,None,None,None,None,None,None,None,None,2,1.0925543308258057,None,,,,,0,0,0,0,0,138,138,153,636.4694621562958,,,,,,,,,,,,,,,,,,,,,,,,,,,,,,,,,,,,,,,,,,,,,,,,,,,,,,,,,,,,,,,,,,,,,,,,,,,,,,,,,78.14426971636644,92.02245515748614,191.2946803005606,105.85912171027091,194.47558650384505,66.35654468763516,1.0,1.2,-195,-18,0,-12,182,-5,636.454996585846,636.4550366401672,636.457047700882,636.4694621562958,636.6198351383209,636.6198351383209,636.6198351383209,636.6198351383209,636.6198351383209,636.6198351383209,636.6198351383209,637.5707709789276,2,1.0925543308258057,None,,,,,,,,,,,,,,,,,,155,5,2025-02-28_09h54.01.515,comp,2024.2.4,61.13726902092714,2025-02-28 09h57.50.189861 -0500,
139,139,0,filler_random,None,None,None,None,None,None,None,None,None,None,1,4.295570135116577,None,,,,,0,0,0,0,0,139,139,148,637.5864753723145,,,,,,,,,,,,,,,,,,,,,,,,,,,,,,,,,,,,,,,,,,,,,,,,,,,,,,,,,,,,,,,,,,,,,,,,,,,,,,,,,182.6369375261366,182.0735833953217,167.7666651231378,127.35648580363966,152.96893314588243,165.76974499204192,4.0,4.2,-251,6,0,-270,243,11,637.5716464519501,637.5716872215271,637.5740556716919,637.5864753723145,637.7365040779114,637.7365040779114,637.7365040779114,637.7365040779114,637.7365040779114,637.7365040779114,637.7365040779114,641.8876457214355,1,4.295570135116577,None,,,,,,,,,,,,,,,,,,155,5,2025-02-28_09h54.01.515,comp,2024.2.4,61.13726902092714,2025-02-28 09h57.50.189861 -0500,
140,140,0,catch,None,None,None,None,None,None,None,None,None,None,2,0.9326684474945068,None,,,,,0,0,0,0,0,140,140,126,641.9030480384827,,,,,,,,,,,,,,,,,,,,,,,,,,,,,,,,,,,,,,,,,,,,,,,,,,,,,,,,,,,,,,,,,,,,,,,,,,,,,,,,,76,114,155,170,74,116,1.0,1.2,-238,7,0,-2,239,-13,641.8886802196503,641.8887238502502,641.8911328315735,641.9030480384827,642.0533647537231,642.0533647537231,642.0533647537231,642.0533647537231,642.0533647537231,642.0533647537231,642.0533647537231,642.8539483547211,2,0.9326684474945068,None,,,,,,,,,,,,,,,,,,155,5,2025-02-28_09h54.01.515,comp,2024.2.4,61.13726902092714,2025-02-28 09h57.50.189861 -0500,
