thisN,thisTrialN,thisRepN,effect,order,distance,config,diag,h_1,w_1,h_2,w_2,h_3,w_3,rect_choice.keys,rect_choice.rt,rect_choice.duration,instructions_loop.thisRepN,instructions_loop.thisTrialN,instructions_loop.thisN,instructions_loop.thisIndex,blocks.thisRepN,blocks.thisTrialN,blocks.thisN,blocks.thisIndex,trials.thisRepN,trials.thisTrialN,trials.thisN,trials.thisIndex,thisRow.t,notes,consent.started,agree_button.started,decline_button.started,consent_img.started,mouse.started,consent.stopped,agree_button.numClicks,agree_button.timesOn,agree_button.timesOff,decline_button.numClicks,decline_button.timesOn,decline_button.timesOff,mouse.x,mouse.y,mouse.leftButton,mouse.midButton,mouse.rightButton,mouse.time,mouse.clicked_name,exp_params.started,exp_params.stopped,welcome.started,welcome_text.started,welcome.stopped,instructions_1.started,instructions_1_text_1.started,instructions_1_text_2.started,key_resp.started,instructions_1.stopped,instructions_loop.key_resp.keys,instructions_loop.key_resp.rt,instructions_loop.key_resp.duration,instructions_2.started,instructions_2_text_1.started,instructions_2_text_2.started,key_resp_2.started,instructions_2.stopped,instructions_loop.key_resp_2.keys,instructions_loop.key_resp_2.rt,instructions_loop.key_resp_2.duration,instructions_3.started,instructions_3_text_1.started,r1_instr3.started,r2_instr3.started,r3_instr3.started,r1_instr3_label.started,r2_instr3_label.started,r3_instr3_label.started,instructions_3_text_3.started,instructions_3_text_4.started,key_resp_3.started,instructions_3.stopped,instructions_loop.key_resp_3.keys,instructions_loop.key_resp_3.rt,instructions_loop.key_resp_3.duration,instructions_4.started,instructions_4_text_1.started,instructions_4_text_3.started,instructions_4_text_2.started,key_resp_4.started,instructions_4.stopped,instructions_loop.key_resp_4.keys,instructions_loop.key_resp_4.rt,instructions_loop.key_resp_4.duration,instructions_5.started,instructions_5_text_1.started,instructions_5_text_2.started,key_resp_5.started,instructions_5.stopped,instructions_loop.key_resp_5.keys,instructions_loop.key_resp_5.rt,instructions_loop.key_resp_5.duration,start_exp.started,start_exp_text.started,key_resp_6.started,start_exp.stopped,key_resp_6.keys,key_resp_6.rt,key_resp_6.duration,h_1_tmp,w_1_tmp,h_2_tmp,w_2_tmp,h_3_tmp,w_3_tmp,config_tmp,config_tmp_1,r_1_x,r_1_y,r_2_x,r_2_y,r_3_x,r_3_y,pre_trial.started,pre_trial.stopped,choice_trial.started,rect_choice.started,r_1.started,r_2.started,r_3.started,r_1_label.started,r_2_label.started,r_3_label.started,prompt.started,choice_trial.stopped,trials.rect_choice.keys,trials.rect_choice.rt,trials.rect_choice.duration,end_block.started,end_block_text.started,end_block.stopped,end.started,end_text.started,key_resp_7.started,end.stopped,key_resp_7.keys,key_resp_7.rt,key_resp_7.duration,debriefing.started,debrief_form.started,end_debrief.started,debriefing.stopped,end_debrief.keys,end_debrief.rt,end_debrief.duration,participant,computer,date,expName,psychopyVersion,frameRate,expStart,
,,,,,,,,,,,,,,,,,,,,,,,,,,,,,,,0.02106761932373047,0.041933536529541016,0.041933536529541016,0.041933536529541016,0.020869016647338867,39.591527462005615,1,[39.54716992378235],[39.54719424247742],0,,,[-61.0],[-527.0],[1],[0],[0],[39.57005214691162],['agree_button'],,,,,,,,,,,,,,,,,,,,,,,,,,,,,,,,,,,,,,,,,,,,,,,,,,,,,,,,,,,,,,,,,,,,,,,,,,,,,,,,,,,,,,,,,,,,,,,,,,,,,,,,,,,156,1,2025-02-28_10h55.11.200,comp,2024.2.4,55.164692946691154,2025-02-28 10h55.22.216639 -0500,
,,,,,,,,,,,,,,,,,,,,,,,,,,,,,,,,,,,,,,,,,,,,,,,,,,39.592201948165894,39.59227013587952,,,,,,,,,,,,,,,,,,,,,,,,,,,,,,,,,,,,,,,,,,,,,,,,,,,,,,,,,,,,,,,,,,,,,,,,,,,,,,,,,,,,,,,,,,,,,,,,,,,,,,,,,156,1,2025-02-28_10h55.11.200,comp,2024.2.4,55.164692946691154,2025-02-28 10h55.22.216639 -0500,
,,,,,,,,,,,,,,,,,,,,,,,,,,,,,,,,,,,,,,,,,,,,,,,,,,,,39.59231352806091,39.607401847839355,41.60354924201965,,,,,,,,,,,,,,,,,,,,,,,,,,,,,,,,,,,,,,,,,,,,,,,,,,,,,,,,,,,,,,,,,,,,,,,,,,,,,,,,,,,,,,,,,,,,,,,,,,,,,,156,1,2025-02-28_10h55.11.200,comp,2024.2.4,55.164692946691154,2025-02-28 10h55.22.216639 -0500,
0,0,0,,,,,,,,,,,,,,,0,0,0,0,,,,,,,,,41.62409853935242,,,,,,,,,,,,,,,,,,,,,,,,,,41.60450220108032,41.62409853935242,41.62409853935242,43.103062868118286,44.74046039581299,space,1.6326212882995605,None,44.74060821533203,44.75598883628845,44.75598883628845,46.25616979598999,50.44214630126953,space,4.1833062171936035,None,50.44230079650879,50.47070074081421,50.47070074081421,50.47070074081421,50.47070074081421,50.47070074081421,50.47070074081421,50.47070074081421,50.47070074081421,50.47070074081421,51.94974327087402,57.54085993766785,space,5.5860276222229,None,57.541015625,57.56111812591553,57.56111812591553,57.56111812591553,59.041367053985596,63.629385471343994,space,4.57426118850708,None,63.62955069541931,63.64508390426636,63.64508390426636,65.12985229492188,66.21368956565857,space,1.069793701171875,None,66.21391725540161,66.22925114631653,66.22925114631653,67.41609454154968,space,1.178635835647583,None,,,,,,,,,,,,,,,,,,,,,,,,,,,,,,,,,,,,,,,,,,,,,,,156,1,2025-02-28_10h55.11.200,comp,2024.2.4,55.164692946691154,2025-02-28 10h55.22.216639 -0500,
0,0,0,critical,dhw,20.0,1.0,upper,141.0,141.0,200.0,125.0,125.0,200.0,3,4.874342679977417,None,,,,,0,0,0,0,0,0,0,55,67.49347186088562,,,,,,,,,,,,,,,,,,,,,,,,,,,,,,,,,,,,,,,,,,,,,,,,,,,,,,,,,,,,,,,,,,,,,,,,,,,,,,,,,141.0,141.0,200.0,125.0,125.0,200.0,1.0,1.2,-229,18,0,-6,258,-1,67.47595238685608,67.47603797912598,67.47789192199707,67.49347186088562,67.6406819820404,67.6406819820404,67.6406819820404,67.6406819820404,67.6406819820404,67.6406819820404,67.6406819820404,72.37900686264038,3,4.874342679977417,None,,,,,,,,,,,,,,,,,,156,1,2025-02-28_10h55.11.200,comp,2024.2.4,55.164692946691154,2025-02-28 10h55.22.216639 -0500,
1,1,0,filler_random,None,None,None,None,None,None,None,None,None,None,2,4.95638370513916,None,,,,,0,0,0,0,0,1,1,140,72.39547371864319,,,,,,,,,,,,,,,,,,,,,,,,,,,,,,,,,,,,,,,,,,,,,,,,,,,,,,,,,,,,,,,,,,,,,,,,,,,,,,,,,59.65259293091686,151.41178757867317,110.77480436559438,121.1657464582574,93.1938186926138,105.48042659141981,3.0,3.2,-232,-254,0,-2,209,288,72.38049650192261,72.38055801391602,72.38283801078796,72.39547371864319,72.5368914604187,72.5368914604187,72.5368914604187,72.5368914604187,72.5368914604187,72.5368914604187,72.5368914604187,77.3689956665039,2,4.95638370513916,None,,,,,,,,,,,,,,,,,,156,1,2025-02-28_10h55.11.200,comp,2024.2.4,55.164692946691154,2025-02-28 10h55.22.216639 -0500,
2,2,0,filler_random,None,None,None,None,None,None,None,None,None,None,3,6.93451714515686,None,,,,,0,0,0,0,0,2,2,155,77.38499903678894,,,,,,,,,,,,,,,,,,,,,,,,,,,,,,,,,,,,,,,,,,,,,,,,,,,,,,,,,,,,,,,,,,,,,,,,,,,,,,,,,153.2174574483014,144.60788549442907,76.8836523613899,118.67182883011479,152.73770225486814,153.98199672567915,1.0,1.1,-708,262,-480,287,-248,272,77.37102508544922,77.37110805511475,77.3745334148407,77.38499903678894,77.53865551948547,77.53865551948547,77.53865551948547,77.53865551948547,77.53865551948547,77.53865551948547,77.53865551948547,84.33751034736633,3,6.93451714515686,None,,,,,,,,,,,,,,,,,,156,1,2025-02-28_10h55.11.200,comp,2024.2.4,55.164692946691154,2025-02-28 10h55.22.216639 -0500,
3,3,0,catch,None,None,None,None,None,None,None,None,None,None,1,2.1268041133880615,None,,,,,0,0,0,0,0,3,3,128,84.35365676879883,,,,,,,,,,,,,,,,,,,,,,,,,,,,,,,,,,,,,,,,,,,,,,,,,,,,,,,,,,,,,,,,,,,,,,,,,,,,,,,,,160,165,62,128,128,62,1.0,1.1,-722,258,-480,277,-289,271,84.33972764015198,84.33988356590271,84.3432981967926,84.35365676879883,84.50050020217896,84.50050020217896,84.50050020217896,84.50050020217896,84.50050020217896,84.50050020217896,84.50050020217896,86.48707985877991,1,2.1268041133880615,None,,,,,,,,,,,,,,,,,,156,1,2025-02-28_10h55.11.200,comp,2024.2.4,55.164692946691154,2025-02-28 10h55.22.216639 -0500,
4,4,0,critical,wdh,20.0,2.1,upper,125.0,200.0,141.0,141.0,200.0,125.0,1,4.534801721572876,None,,,,,0,0,0,0,0,4,4,35,86.50451731681824,,,,,,,,,,,,,,,,,,,,,,,,,,,,,,,,,,,,,,,,,,,,,,,,,,,,,,,,,,,,,,,,,,,,,,,,,,,,,,,,,125.0,200.0,141.0,141.0,200.0,125.0,2.1,2.11,-266,266,0,263,229,-257,86.48865962028503,86.48873519897461,86.49270606040955,86.50451731681824,86.65372323989868,86.65372323989868,86.65372323989868,86.65372323989868,86.65372323989868,86.65372323989868,86.65372323989868,91.05393028259277,1,4.534801721572876,None,,,,,,,,,,,,,,,,,,156,1,2025-02-28_10h55.11.200,comp,2024.2.4,55.164692946691154,2025-02-28 10h55.22.216639 -0500,
5,5,0,critical,whd,20.0,1.0,upper,125.0,200.0,200.0,125.0,141.0,141.0,1,2.6985678672790527,None,,,,,0,0,0,0,0,5,5,91,91.06893062591553,,,,,,,,,,,,,,,,,,,,,,,,,,,,,,,,,,,,,,,,,,,,,,,,,,,,,,,,,,,,,,,,,,,,,,,,,,,,,,,,,125.0,200.0,200.0,125.0,141.0,141.0,1.0,1.1,-738,271,-480,251,-251,274,91.05516743659973,91.05522894859314,91.05781531333923,91.06893062591553,91.22687101364136,91.22687101364136,91.22687101364136,91.22687101364136,91.22687101364136,91.22687101364136,91.22687101364136,93.77822542190552,1,2.6985678672790527,None,,,,,,,,,,,,,,,,,,156,1,2025-02-28_10h55.11.200,comp,2024.2.4,55.164692946691154,2025-02-28 10h55.22.216639 -0500,
6,6,0,filler_random,None,None,None,None,None,None,None,None,None,None,1,2.1014842987060547,None,,,,,0,0,0,0,0,6,6,157,93.79468703269958,,,,,,,,,,,,,,,,,,,,,,,,,,,,,,,,,,,,,,,,,,,,,,,,,,,,,,,,,,,,,,,,,,,,,,,,,,,,,,,,,171.22405858766973,159.73476741013553,185.60173263360258,140.2559612986221,69.96104696992168,178.87648676903257,4.0,4.1,-246,-280,0,-9,256,-288,93.77995252609253,93.78003478050232,93.78292798995972,93.79468703269958,93.93722343444824,93.93722343444824,93.93722343444824,93.93722343444824,93.93722343444824,93.93722343444824,93.93722343444824,95.90785431861877,1,2.1014842987060547,None,,,,,,,,,,,,,,,,,,156,1,2025-02-28_10h55.11.200,comp,2024.2.4,55.164692946691154,2025-02-28 10h55.22.216639 -0500,
7,7,0,filler_random,None,None,None,None,None,None,None,None,None,None,3,2.266695022583008,None,,,,,0,0,0,0,0,7,7,166,95.9249951839447,,,,,,,,,,,,,,,,,,,,,,,,,,,,,,,,,,,,,,,,,,,,,,,,,,,,,,,,,,,,,,,,,,,,,,,,,,,,,,,,,159.41281144058678,124.27096950857356,60.48650412932709,62.725615625414505,121.94709997337687,195.22339972036485,4.0,4.1,-189,-281,0,3,225,-257,95.90985131263733,95.90993809700012,95.91377902030945,95.9249951839447,96.07485699653625,96.07485699653625,96.07485699653625,96.07485699653625,96.07485699653625,96.07485699653625,96.07485699653625,98.21007704734802,3,2.266695022583008,None,,,,,,,,,,,,,,,,,,156,1,2025-02-28_10h55.11.200,comp,2024.2.4,55.164692946691154,2025-02-28 10h55.22.216639 -0500,
8,8,0,critical,dwh,20.0,4.0,lower,78.0,78.0,57.0,133.0,133.0,57.0,3,3.407575845718384,None,,,,,0,0,0,0,0,8,8,70,98.22558999061584,,,,,,,,,,,,,,,,,,,,,,,,,,,,,,,,,,,,,,,,,,,,,,,,,,,,,,,,,,,,,,,,,,,,,,,,,,,,,,,,,78.0,78.0,57.0,133.0,133.0,57.0,4.0,4.2,-202,9,0,-272,191,2,98.21167707443237,98.21175384521484,98.21517300605774,98.22558999061584,98.37888169288635,98.37888169288635,98.37888169288635,98.37888169288635,98.37888169288635,98.37888169288635,98.37888169288635,101.64188838005066,3,3.407575845718384,None,,,,,,,,,,,,,,,,,,156,1,2025-02-28_10h55.11.200,comp,2024.2.4,55.164692946691154,2025-02-28 10h55.22.216639 -0500,
9,9,0,catch,None,None,None,None,None,None,None,None,None,None,3,3.0996692180633545,None,,,,,0,0,0,0,0,9,9,121,101.65992760658264,,,,,,,,,,,,,,,,,,,,,,,,,,,,,,,,,,,,,,,,,,,,,,,,,,,,,,,,,,,,,,,,,,,,,,,,,,,,,,,,,71,119,84,106,129,196,4.0,4.1,-208,-264,0,-7,247,-254,101.64379811286926,101.64389133453369,101.64689636230469,101.65992760658264,101.80935311317444,101.80935311317444,101.80935311317444,101.80935311317444,101.80935311317444,101.80935311317444,101.80935311317444,104.77205514907837,3,3.0996692180633545,None,,,,,,,,,,,,,,,,,,156,1,2025-02-28_10h55.11.200,comp,2024.2.4,55.164692946691154,2025-02-28 10h55.22.216639 -0500,
10,10,0,filler_square,None,None,None,None,None,None,None,None,None,None,1,3.3675849437713623,None,,,,,0,0,0,0,0,10,10,182,104.79204487800598,,,,,,,,,,,,,,,,,,,,,,,,,,,,,,,,,,,,,,,,,,,,,,,,,,,,,,,,,,,,,,,,,,,,,,,,,,,,,,,,,182.5871156930345,182.5871156930345,90.60193749485494,129.92849352340187,78.43077080718679,174.72726887004166,3.0,3.1,-252,250,0,-1,248,-266,104.77396774291992,104.77405071258545,104.77732419967651,104.79204487800598,104.92585372924805,104.92585372924805,104.92585372924805,104.92585372924805,104.92585372924805,104.92585372924805,104.92585372924805,108.1773042678833,1,3.3675849437713623,None,,,,,,,,,,,,,,,,,,156,1,2025-02-28_10h55.11.200,comp,2024.2.4,55.164692946691154,2025-02-28 10h55.22.216639 -0500,
11,11,0,catch,None,None,None,None,None,None,None,None,None,None,1,2.1902003288269043,None,,,,,0,0,0,0,0,11,11,124,108.19338631629944,,,,,,,,,,,,,,,,,,,,,,,,,,,,,,,,,,,,,,,,,,,,,,,,,,,,,,,,,,,,,,,,,,,,,,,,,,,,,,,,,176,149,91,99,107,83,2.2,2.22,-220,261,0,-271,187,-262,108.1791615486145,108.1792380809784,108.18264675140381,108.19338631629944,108.34763407707214,108.34763407707214,108.34763407707214,108.34763407707214,108.34763407707214,108.34763407707214,108.34763407707214,110.39494609832764,1,2.1902003288269043,None,,,,,,,,,,,,,,,,,,156,1,2025-02-28_10h55.11.200,comp,2024.2.4,55.164692946691154,2025-02-28 10h55.22.216639 -0500,
12,12,0,critical,dwh,35.0,1.0,lower,70.0,70.0,57.0,133.0,133.0,57.0,2,2.4256601333618164,None,,,,,0,0,0,0,0,12,12,60,110.4146089553833,,,,,,,,,,,,,,,,,,,,,,,,,,,,,,,,,,,,,,,,,,,,,,,,,,,,,,,,,,,,,,,,,,,,,,,,,,,,,,,,,70.0,70.0,57.0,133.0,133.0,57.0,1.0,1.1,-678,282,-480,262,-289,251,110.39642691612244,110.39650464057922,110.39952158927917,110.4146089553833,110.55358576774597,110.55358576774597,110.55358576774597,110.55358576774597,110.55358576774597,110.55358576774597,110.55358576774597,112.84436082839966,2,2.4256601333618164,None,,,,,,,,,,,,,,,,,,156,1,2025-02-28_10h55.11.200,comp,2024.2.4,55.164692946691154,2025-02-28 10h55.22.216639 -0500,
13,13,0,critical,whd,20.0,2.1,lower,57.0,133.0,133.0,57.0,78.0,78.0,1,3.9921998977661133,None,,,,,0,0,0,0,0,13,13,14,112.86426830291748,,,,,,,,,,,,,,,,,,,,,,,,,,,,,,,,,,,,,,,,,,,,,,,,,,,,,,,,,,,,,,,,,,,,,,,,,,,,,,,,,57.0,133.0,133.0,57.0,78.0,78.0,2.1,2.12,-191,-259,0,-268,164,286,112.84585499763489,112.8459370136261,112.84911131858826,112.86426830291748,113.0128881931305,113.0128881931305,113.0128881931305,113.0128881931305,113.0128881931305,113.0128881931305,113.0128881931305,116.86380934715271,1,3.9921998977661133,None,,,,,,,,,,,,,,,,,,156,1,2025-02-28_10h55.11.200,comp,2024.2.4,55.164692946691154,2025-02-28 10h55.22.216639 -0500,
14,14,0,filler_random,None,None,None,None,None,None,None,None,None,None,1,10.631577491760254,None,,,,,0,0,0,0,0,14,14,144,116.88051986694336,,,,,,,,,,,,,,,,,,,,,,,,,,,,,,,,,,,,,,,,,,,,,,,,,,,,,,,,,,,,,,,,,,,,,,,,,,,,,,,,,187.23902465481822,114.88302462214202,198.25779168922816,108.25830775524959,86.66031316216389,118.39775121007571,1.0,1.1,-688,278,-480,282,-271,259,116.86548495292664,116.86556673049927,116.86864519119263,116.88051986694336,117.02847266197205,117.02847266197205,117.02847266197205,117.02847266197205,117.02847266197205,117.02847266197205,117.02847266197205,127.51581978797913,1,10.631577491760254,None,,,,,,,,,,,,,,,,,,156,1,2025-02-28_10h55.11.200,comp,2024.2.4,55.164692946691154,2025-02-28 10h55.22.216639 -0500,
15,15,0,critical,whd,35.0,2.1,lower,57.0,133.0,133.0,57.0,70.0,70.0,2,2.7767884731292725,None,,,,,0,0,0,0,0,15,15,12,127.54287981987,,,,,,,,,,,,,,,,,,,,,,,,,,,,,,,,,,,,,,,,,,,,,,,,,,,,,,,,,,,,,,,,,,,,,,,,,,,,,,,,,57.0,133.0,133.0,57.0,70.0,70.0,2.1,2.12,-191,-288,0,-287,160,259,127.51741862297058,127.51751780509949,127.52088332176208,127.54287981987,127.68307042121887,127.68307042121887,127.68307042121887,127.68307042121887,127.68307042121887,127.68307042121887,127.68307042121887,130.33365535736084,2,2.7767884731292725,None,,,,,,,,,,,,,,,,,,156,1,2025-02-28_10h55.11.200,comp,2024.2.4,55.164692946691154,2025-02-28 10h55.22.216639 -0500,
16,16,0,filler_random,None,None,None,None,None,None,None,None,None,None,3,2.6992623805999756,None,,,,,0,0,0,0,0,16,16,169,130.34928369522095,,,,,,,,,,,,,,,,,,,,,,,,,,,,,,,,,,,,,,,,,,,,,,,,,,,,,,,,,,,,,,,,,,,,,,,,,,,,,,,,,88.40884781465219,112.22381580749396,58.062895612293694,81.33665249596018,102.04534902723981,190.11070464279032,4.0,4.2,-193,-3,0,-276,232,-6,130.33556842803955,130.33564710617065,130.3388650417328,130.34928369522095,130.50184059143066,130.50184059143066,130.50184059143066,130.50184059143066,130.50184059143066,130.50184059143066,130.50184059143066,133.0554792881012,3,2.6992623805999756,None,,,,,,,,,,,,,,,,,,156,1,2025-02-28_10h55.11.200,comp,2024.2.4,55.164692946691154,2025-02-28 10h55.22.216639 -0500,
17,17,0,critical,wdh,35.0,3.0,lower,57.0,133.0,70.0,70.0,133.0,57.0,3,2.5430824756622314,None,,,,,0,0,0,0,0,17,17,74,133.07336735725403,,,,,,,,,,,,,,,,,,,,,,,,,,,,,,,,,,,,,,,,,,,,,,,,,,,,,,,,,,,,,,,,,,,,,,,,,,,,,,,,,57.0,133.0,70.0,70.0,133.0,57.0,3.0,3.1,-198,283,0,-17,160,-254,133.05717611312866,133.05725765228271,133.0602388381958,133.07336735725403,133.2185115814209,133.2185115814209,133.2185115814209,133.2185115814209,133.2185115814209,133.2185115814209,133.2185115814209,135.6232168674469,3,2.5430824756622314,None,,,,,,,,,,,,,,,,,,156,1,2025-02-28_10h55.11.200,comp,2024.2.4,55.164692946691154,2025-02-28 10h55.22.216639 -0500,
18,18,0,critical,dwh,35.0,4.0,lower,70.0,70.0,57.0,133.0,133.0,57.0,2,2.6442298889160156,None,,,,,0,0,0,0,0,18,18,64,135.6435945034027,,,,,,,,,,,,,,,,,,,,,,,,,,,,,,,,,,,,,,,,,,,,,,,,,,,,,,,,,,,,,,,,,,,,,,,,,,,,,,,,,70.0,70.0,57.0,133.0,133.0,57.0,4.0,4.1,-198,-257,0,19,191,-260,135.6249804496765,135.62506318092346,135.62801790237427,135.6435945034027,135.78525042533875,135.78525042533875,135.78525042533875,135.78525042533875,135.78525042533875,135.78525042533875,135.78525042533875,138.30551600456238,2,2.6442298889160156,None,,,,,,,,,,,,,,,,,,156,1,2025-02-28_10h55.11.200,comp,2024.2.4,55.164692946691154,2025-02-28 10h55.22.216639 -0500,
19,19,0,critical,hwd,20.0,4.0,lower,133.0,57.0,57.0,133.0,78.0,78.0,2,1.6386263370513916,None,,,,,0,0,0,0,0,19,19,106,138.32104420661926,,,,,,,,,,,,,,,,,,,,,,,,,,,,,,,,,,,,,,,,,,,,,,,,,,,,,,,,,,,,,,,,,,,,,,,,,,,,,,,,,133.0,57.0,57.0,133.0,78.0,78.0,4.0,4.1,-191,-283,0,-1,202,-272,138.30714106559753,138.30721783638,138.3103425502777,138.32104420661926,138.47004079818726,138.47004079818726,138.47004079818726,138.47004079818726,138.47004079818726,138.47004079818726,138.47004079818726,139.97672533988953,2,1.6386263370513916,None,,,,,,,,,,,,,,,,,,156,1,2025-02-28_10h55.11.200,comp,2024.2.4,55.164692946691154,2025-02-28 10h55.22.216639 -0500,
20,20,0,critical,whd,35.0,2.1,lower,57.0,133.0,133.0,57.0,70.0,70.0,2,1.931436538696289,None,,,,,0,0,0,0,0,20,20,36,139.99631667137146,,,,,,,,,,,,,,,,,,,,,,,,,,,,,,,,,,,,,,,,,,,,,,,,,,,,,,,,,,,,,,,,,,,,,,,,,,,,,,,,,57.0,133.0,133.0,57.0,70.0,70.0,2.1,2.12,-191,-285,0,-289,160,271,139.97829389572144,139.9783685207367,139.98166680335999,139.99631667137146,140.1364495754242,140.1364495754242,140.1364495754242,140.1364495754242,140.1364495754242,140.1364495754242,140.1364495754242,141.941392660141,2,1.931436538696289,None,,,,,,,,,,,,,,,,,,156,1,2025-02-28_10h55.11.200,comp,2024.2.4,55.164692946691154,2025-02-28 10h55.22.216639 -0500,
21,21,0,critical,whd,35.0,1.0,lower,57.0,133.0,133.0,57.0,70.0,70.0,2,1.7240493297576904,None,,,,,0,0,0,0,0,21,21,84,141.9579849243164,,,,,,,,,,,,,,,,,,,,,,,,,,,,,,,,,,,,,,,,,,,,,,,,,,,,,,,,,,,,,,,,,,,,,,,,,,,,,,,,,57.0,133.0,133.0,57.0,70.0,70.0,1.0,1.1,-671,275,-480,267,-320,273,141.94308614730835,141.94322156906128,141.94655561447144,141.9579849243164,142.1039490699768,142.1039490699768,142.1039490699768,142.1039490699768,142.1039490699768,142.1039490699768,142.1039490699768,143.6891574859619,2,1.7240493297576904,None,,,,,,,,,,,,,,,,,,156,1,2025-02-28_10h55.11.200,comp,2024.2.4,55.164692946691154,2025-02-28 10h55.22.216639 -0500,
22,22,0,filler_random,None,None,None,None,None,None,None,None,None,None,1,1.7489662170410156,None,,,,,0,0,0,0,0,22,22,165,143.70695686340332,,,,,,,,,,,,,,,,,,,,,,,,,,,,,,,,,,,,,,,,,,,,,,,,,,,,,,,,,,,,,,,,,,,,,,,,,,,,,,,,,191.5159047438529,129.1347519975331,145.68610816898993,112.90741130940968,190.85421788532892,196.4930166164711,2.1,2.11,-217,264,0,280,251,-264,143.69087886810303,143.69095706939697,143.6939377784729,143.70695686340332,143.85508465766907,143.85508465766907,143.85508465766907,143.85508465766907,143.85508465766907,143.85508465766907,143.85508465766907,145.46189785003662,1,1.7489662170410156,None,,,,,,,,,,,,,,,,,,156,1,2025-02-28_10h55.11.200,comp,2024.2.4,55.164692946691154,2025-02-28 10h55.22.216639 -0500,
23,23,0,critical,hwd,20.0,2.1,lower,133.0,57.0,57.0,133.0,78.0,78.0,2,1.9280924797058105,None,,,,,0,0,0,0,0,23,23,18,145.47969722747803,,,,,,,,,,,,,,,,,,,,,,,,,,,,,,,,,,,,,,,,,,,,,,,,,,,,,,,,,,,,,,,,,,,,,,,,,,,,,,,,,133.0,57.0,57.0,133.0,78.0,78.0,2.1,2.11,-191,267,0,264,202,-284,145.46339392662048,145.46346998214722,145.466370344162,145.47969722747803,145.6210629940033,145.6210629940033,145.6210629940033,145.6210629940033,145.6210629940033,145.6210629940033,145.6210629940033,147.42283868789673,2,1.9280924797058105,None,,,,,,,,,,,,,,,,,,156,1,2025-02-28_10h55.11.200,comp,2024.2.4,55.164692946691154,2025-02-28 10h55.22.216639 -0500,
24,24,0,critical,hwd,20.0,2.1,upper,200.0,125.0,125.0,200.0,141.0,141.0,2,2.8489723205566406,None,,,,,0,0,0,0,0,24,24,43,147.43916034698486,,,,,,,,,,,,,,,,,,,,,,,,,,,,,,,,,,,,,,,,,,,,,,,,,,,,,,,,,,,,,,,,,,,,,,,,,,,,,,,,,200.0,125.0,125.0,200.0,141.0,141.0,2.1,2.11,-258,252,0,252,266,-250,147.42444705963135,147.42452931404114,147.4286172389984,147.43916034698486,147.59692001342773,147.59692001342773,147.59692001342773,147.59692001342773,147.59692001342773,147.59692001342773,147.59692001342773,150.30983233451843,2,2.8489723205566406,None,,,,,,,,,,,,,,,,,,156,1,2025-02-28_10h55.11.200,comp,2024.2.4,55.164692946691154,2025-02-28 10h55.22.216639 -0500,
25,25,0,filler_random,None,None,None,None,None,None,None,None,None,None,1,2.4652154445648193,None,,,,,0,0,0,0,0,25,25,143,150.32727360725403,,,,,,,,,,,,,,,,,,,,,,,,,,,,,,,,,,,,,,,,,,,,,,,,,,,,,,,,,,,,,,,,,,,,,,,,,,,,,,,,,148.40120875193134,82.74559572109088,60.1183872539575,160.81279836075907,173.38618126203284,79.26494188113017,2.2,2.21,-218,-261,0,276,216,252,150.31165838241577,150.31174182891846,150.31481003761292,150.32727360725403,150.47480392456055,150.47480392456055,150.47480392456055,150.47480392456055,150.47480392456055,150.47480392456055,150.47480392456055,152.79558801651,1,2.4652154445648193,None,,,,,,,,,,,,,,,,,,156,1,2025-02-28_10h55.11.200,comp,2024.2.4,55.164692946691154,2025-02-28 10h55.22.216639 -0500,
26,26,0,filler_square,None,None,None,None,None,None,None,None,None,None,1,1.6430954933166504,None,,,,,0,0,0,0,0,26,26,177,152.81316447257996,,,,,,,,,,,,,,,,,,,,,,,,,,,,,,,,,,,,,,,,,,,,,,,,,,,,,,,,,,,,,,,,,,,,,,,,,,,,,,,,,80.19292058541959,80.19292058541959,61.19485555317773,72.9948415927162,61.86798922604938,69.8831470401394,4.0,4.2,-173,-14,0,-276,167,-3,152.797349691391,152.7974305152893,152.80142831802368,152.81316447257996,152.95894694328308,152.95894694328308,152.95894694328308,152.95894694328308,152.95894694328308,152.95894694328308,152.95894694328308,154.46245312690735,1,1.6430954933166504,None,,,,,,,,,,,,,,,,,,156,1,2025-02-28_10h55.11.200,comp,2024.2.4,55.164692946691154,2025-02-28 10h55.22.216639 -0500,
27,27,0,critical,hdw,35.0,2.1,upper,200.0,125.0,127.0,127.0,125.0,200.0,1,1.869340181350708,None,,,,,0,0,0,0,0,27,27,45,154.48241138458252,,,,,,,,,,,,,,,,,,,,,,,,,,,,,,,,,,,,,,,,,,,,,,,,,,,,,,,,,,,,,,,,,,,,,,,,,,,,,,,,,200.0,125.0,127.0,127.0,125.0,200.0,2.1,2.12,-222,-271,0,-286,260,259,154.4642071723938,154.46428680419922,154.46727228164673,154.48241138458252,154.6266496181488,154.6266496181488,154.6266496181488,154.6266496181488,154.6266496181488,154.6266496181488,154.6266496181488,156.36484956741333,1,1.869340181350708,None,,,,,,,,,,,,,,,,,,156,1,2025-02-28_10h55.11.200,comp,2024.2.4,55.164692946691154,2025-02-28 10h55.22.216639 -0500,
28,28,0,critical,whd,20.0,3.0,lower,57.0,133.0,133.0,57.0,78.0,78.0,2,2.291872024536133,None,,,,,0,0,0,0,0,28,28,92,156.38063406944275,,,,,,,,,,,,,,,,,,,,,,,,,,,,,,,,,,,,,,,,,,,,,,,,,,,,,,,,,,,,,,,,,,,,,,,,,,,,,,,,,57.0,133.0,133.0,57.0,78.0,78.0,3.0,3.2,-191,-268,0,2,164,255,156.36641001701355,156.36649322509766,156.3694086074829,156.38063406944275,156.52591490745544,156.52591490745544,156.52591490745544,156.52591490745544,156.52591490745544,156.52591490745544,156.52591490745544,158.6763846874237,2,2.291872024536133,None,,,,,,,,,,,,,,,,,,156,1,2025-02-28_10h55.11.200,comp,2024.2.4,55.164692946691154,2025-02-28 10h55.22.216639 -0500,
29,29,0,catch,None,None,None,None,None,None,None,None,None,None,1,1.5785624980926514,None,,,,,0,0,0,0,0,29,29,122,158.69348454475403,,,,,,,,,,,,,,,,,,,,,,,,,,,,,,,,,,,,,,,,,,,,,,,,,,,,,,,,,,,,,,,,,,,,,,,,,,,,,,,,,65,125,72,118,178,147,1.0,1.3,262,-263,480,-264,708,-273,158.67862176895142,158.67870450019836,158.6824209690094,158.69348454475403,158.83985209465027,158.83985209465027,158.83985209465027,158.83985209465027,158.83985209465027,158.83985209465027,158.83985209465027,160.27601099014282,1,1.5785624980926514,None,,,,,,,,,,,,,,,,,,156,1,2025-02-28_10h55.11.200,comp,2024.2.4,55.164692946691154,2025-02-28 10h55.22.216639 -0500,
30,30,0,filler_square,None,None,None,None,None,None,None,None,None,None,1,2.8717339038848877,None,,,,,0,0,0,0,0,30,30,207,160.29612112045288,,,,,,,,,,,,,,,,,,,,,,,,,,,,,,,,,,,,,,,,,,,,,,,,,,,,,,,,,,,,,,,,,,,,,,,,,,,,,,,,,106.22163197047125,106.22163197047125,90.7882105038355,78.37843373646871,95.56365092415655,69.60858776924594,3.0,3.2,-188,-257,0,18,170,264,160.27783870697021,160.27791929244995,160.28106427192688,160.29612112045288,160.44431805610657,160.44431805610657,160.44431805610657,160.44431805610657,160.44431805610657,160.44431805610657,160.44431805610657,163.18652415275574,1,2.8717339038848877,None,,,,,,,,,,,,,,,,,,156,1,2025-02-28_10h55.11.200,comp,2024.2.4,55.164692946691154,2025-02-28 10h55.22.216639 -0500,
31,31,0,critical,whd,20.0,2.1,upper,125.0,200.0,200.0,125.0,141.0,141.0,1,2.1719653606414795,None,,,,,0,0,0,0,0,31,31,39,163.20451283454895,,,,,,,,,,,,,,,,,,,,,,,,,,,,,,,,,,,,,,,,,,,,,,,,,,,,,,,,,,,,,,,,,,,,,,,,,,,,,,,,,125.0,200.0,200.0,125.0,141.0,141.0,2.1,2.12,-258,-284,0,-289,229,273,163.18814182281494,163.188218832016,163.19150304794312,163.20451283454895,163.34599256515503,163.34599256515503,163.34599256515503,163.34599256515503,163.34599256515503,163.34599256515503,163.34599256515503,165.37911128997803,1,2.1719653606414795,None,,,,,,,,,,,,,,,,,,156,1,2025-02-28_10h55.11.200,comp,2024.2.4,55.164692946691154,2025-02-28 10h55.22.216639 -0500,
32,32,0,critical,dhw,20.0,2.1,lower,78.0,78.0,133.0,57.0,57.0,133.0,3,2.7880802154541016,None,,,,,0,0,0,0,0,32,32,26,165.39587426185608,,,,,,,,,,,,,,,,,,,,,,,,,,,,,,,,,,,,,,,,,,,,,,,,,,,,,,,,,,,,,,,,,,,,,,,,,,,,,,,,,78.0,78.0,133.0,57.0,57.0,133.0,2.1,2.11,-164,283,0,286,191,-254,165.38061237335205,165.38069367408752,165.38468384742737,165.39587426185608,165.5485908985138,165.5485908985138,165.5485908985138,165.5485908985138,165.5485908985138,165.5485908985138,165.5485908985138,168.1991102695465,3,2.7880802154541016,None,,,,,,,,,,,,,,,,,,156,1,2025-02-28_10h55.11.200,comp,2024.2.4,55.164692946691154,2025-02-28 10h55.22.216639 -0500,
33,33,0,filler_square,None,None,None,None,None,None,None,None,None,None,1,3.33795166015625,None,,,,,0,0,0,0,0,33,33,171,168.21526861190796,,,,,,,,,,,,,,,,,,,,,,,,,,,,,,,,,,,,,,,,,,,,,,,,,,,,,,,,,,,,,,,,,,,,,,,,,,,,,,,,,69.37597161445176,84.52515710644296,62.18649587736898,90.03596065409411,103.98352137156272,103.98352137156272,3.0,3.2,-183,-269,0,7,193,256,168.2011947631836,168.20127534866333,168.20481038093567,168.21526861190796,168.36167311668396,168.36167311668396,168.36167311668396,168.36167311668396,168.36167311668396,168.36167311668396,168.36167311668396,171.5647292137146,1,3.33795166015625,None,,,,,,,,,,,,,,,,,,156,1,2025-02-28_10h55.11.200,comp,2024.2.4,55.164692946691154,2025-02-28 10h55.22.216639 -0500,
34,34,0,filler_square,None,None,None,None,None,None,None,None,None,None,3,3.7711455821990967,None,,,,,0,0,0,0,0,34,34,202,171.58070373535156,,,,,,,,,,,,,,,,,,,,,,,,,,,,,,,,,,,,,,,,,,,,,,,,,,,,,,,,,,,,,,,,,,,,,,,,,,,,,,,,,97.86866709193181,94.24434637598793,93.86751990801699,74.27863993968984,101.87309983674692,101.87309983674692,2.2,2.22,-180,287,0,-256,184,-265,171.56656074523926,171.5666697025299,171.56988096237183,171.58070373535156,171.73590302467346,171.73590302467346,171.73590302467346,171.73590302467346,171.73590302467346,171.73590302467346,171.73590302467346,175.3663330078125,3,3.7711455821990967,None,,,,,,,,,,,,,,,,,,156,1,2025-02-28_10h55.11.200,comp,2024.2.4,55.164692946691154,2025-02-28 10h55.22.216639 -0500,
35,35,0,critical,wdh,20.0,4.0,lower,57.0,133.0,78.0,78.0,133.0,57.0,1,1.4634230136871338,None,,,,,0,0,0,0,0,35,35,82,175.3851203918457,,,,,,,,,,,,,,,,,,,,,,,,,,,,,,,,,,,,,,,,,,,,,,,,,,,,,,,,,,,,,,,,,,,,,,,,,,,,,,,,,57.0,133.0,78.0,78.0,133.0,57.0,4.0,4.1,-202,-271,0,-15,164,-282,175.36788082122803,175.36796164512634,175.37135004997253,175.3851203918457,175.5318639278412,175.5318639278412,175.5318639278412,175.5318639278412,175.5318639278412,175.5318639278412,175.5318639278412,176.85434699058533,1,1.4634230136871338,None,,,,,,,,,,,,,,,,,,156,1,2025-02-28_10h55.11.200,comp,2024.2.4,55.164692946691154,2025-02-28 10h55.22.216639 -0500,
36,36,0,filler_square,None,None,None,None,None,None,None,None,None,None,2,4.47372841835022,None,,,,,0,0,0,0,0,36,36,186,176.87094497680664,,,,,,,,,,,,,,,,,,,,,,,,,,,,,,,,,,,,,,,,,,,,,,,,,,,,,,,,,,,,,,,,,,,,,,,,,,,,,,,,,152.28141941236453,181.56779837403096,182.10446917982154,182.10446917982154,76.36668701163671,91.3998654965878,1.0,1.3,202,-256,480,-267,713,-289,176.8564372062683,176.85651969909668,176.86008858680725,176.87094497680664,177.01512026786804,177.01512026786804,177.01512026786804,177.01512026786804,177.01512026786804,177.01512026786804,177.01512026786804,181.35191893577576,2,4.47372841835022,None,,,,,,,,,,,,,,,,,,156,1,2025-02-28_10h55.11.200,comp,2024.2.4,55.164692946691154,2025-02-28 10h55.22.216639 -0500,
37,37,0,critical,dwh,35.0,4.0,upper,127.0,127.0,125.0,200.0,200.0,125.0,2,2.9279720783233643,None,,,,,0,0,0,0,0,37,37,65,181.36843943595886,,,,,,,,,,,,,,,,,,,,,,,,,,,,,,,,,,,,,,,,,,,,,,,,,,,,,,,,,,,,,,,,,,,,,,,,,,,,,,,,,127.0,127.0,125.0,200.0,200.0,125.0,4.0,4.2,-260,-3,0,-265,258,-18,181.35361099243164,181.35369443893433,181.35754227638245,181.36843943595886,181.517187833786,181.517187833786,181.517187833786,181.517187833786,181.517187833786,181.517187833786,181.517187833786,184.30471634864807,2,2.9279720783233643,None,,,,,,,,,,,,,,,,,,156,1,2025-02-28_10h55.11.200,comp,2024.2.4,55.164692946691154,2025-02-28 10h55.22.216639 -0500,
38,38,0,critical,whd,20.0,2.1,lower,57.0,133.0,133.0,57.0,78.0,78.0,1,2.059387445449829,None,,,,,0,0,0,0,0,38,38,38,184.32516717910767,,,,,,,,,,,,,,,,,,,,,,,,,,,,,,,,,,,,,,,,,,,,,,,,,,,,,,,,,,,,,,,,,,,,,,,,,,,,,,,,,57.0,133.0,133.0,57.0,78.0,78.0,2.1,2.11,-191,289,0,286,164,-268,184.30644369125366,184.30657958984375,184.3096888065338,184.32516717910767,184.45853686332703,184.45853686332703,184.45853686332703,184.45853686332703,184.45853686332703,184.45853686332703,184.45853686332703,186.3941125869751,1,2.059387445449829,None,,,,,,,,,,,,,,,,,,156,1,2025-02-28_10h55.11.200,comp,2024.2.4,55.164692946691154,2025-02-28 10h55.22.216639 -0500,
39,39,0,catch,None,None,None,None,None,None,None,None,None,None,3,3.107698917388916,None,,,,,0,0,0,0,0,39,39,120,186.41220808029175,,,,,,,,,,,,,,,,,,,,,,,,,,,,,,,,,,,,,,,,,,,,,,,,,,,,,,,,,,,,,,,,,,,,,,,,,,,,,,,,,58,132,165,160,66,124,1.0,1.3,238,-270,480,-276,718,-283,186.39599347114563,186.3960747718811,186.39900708198547,186.41220808029175,186.55716347694397,186.55716347694397,186.55716347694397,186.55716347694397,186.55716347694397,186.55716347694397,186.55716347694397,189.52482986450195,3,3.107698917388916,None,,,,,,,,,,,,,,,,,,156,1,2025-02-28_10h55.11.200,comp,2024.2.4,55.164692946691154,2025-02-28 10h55.22.216639 -0500,
40,40,0,critical,hdw,35.0,3.0,upper,200.0,125.0,127.0,127.0,125.0,200.0,3,2.538594961166382,None,,,,,0,0,0,0,0,40,40,111,189.54126405715942,,,,,,,,,,,,,,,,,,,,,,,,,,,,,,,,,,,,,,,,,,,,,,,,,,,,,,,,,,,,,,,,,,,,,,,,,,,,,,,,,200.0,125.0,127.0,127.0,125.0,200.0,3.0,3.2,-222,-288,0,10,260,272,189.52638912200928,189.5264708995819,189.53033876419067,189.54126405715942,189.68736481666565,189.68736481666565,189.68736481666565,189.68736481666565,189.68736481666565,189.68736481666565,189.68736481666565,192.09313416481018,3,2.538594961166382,None,,,,,,,,,,,,,,,,,,156,1,2025-02-28_10h55.11.200,comp,2024.2.4,55.164692946691154,2025-02-28 10h55.22.216639 -0500,
41,41,0,filler_random,None,None,None,None,None,None,None,None,None,None,1,1.6064534187316895,None,,,,,0,0,0,0,0,41,41,153,192.1086766719818,,,,,,,,,,,,,,,,,,,,,,,,,,,,,,,,,,,,,,,,,,,,,,,,,,,,,,,,,,,,,,,,,,,,,,,,,,,,,,,,,186.32924453975525,106.12247497483365,66.59964508876224,110.36761838495757,127.1971018695862,105.97306806311347,2.1,2.11,-204,250,0,254,204,-256,192.0948383808136,192.0949146747589,192.0977919101715,192.1086766719818,192.2546091079712,192.2546091079712,192.2546091079712,192.2546091079712,192.2546091079712,192.2546091079712,192.2546091079712,193.72007966041565,1,1.6064534187316895,None,,,,,,,,,,,,,,,,,,156,1,2025-02-28_10h55.11.200,comp,2024.2.4,55.164692946691154,2025-02-28 10h55.22.216639 -0500,
42,42,0,filler_random,None,None,None,None,None,None,None,None,None,None,3,1.8067572116851807,None,,,,,0,0,0,0,0,42,42,135,193.73712801933289,,,,,,,,,,,,,,,,,,,,,,,,,,,,,,,,,,,,,,,,,,,,,,,,,,,,,,,,,,,,,,,,,,,,,,,,,,,,,,,,,171.96538248128178,83.06606780408319,100.4081360468227,88.47852703551627,101.39389834231483,172.4908508814215,1.0,1.2,-182,9,0,-17,226,4,193.7219693660736,193.72206139564514,193.72532653808594,193.73712801933289,193.88678240776062,193.88678240776062,193.88678240776062,193.88678240776062,193.88678240776062,193.88678240776062,193.88678240776062,195.54620623588562,3,1.8067572116851807,None,,,,,,,,,,,,,,,,,,156,1,2025-02-28_10h55.11.200,comp,2024.2.4,55.164692946691154,2025-02-28 10h55.22.216639 -0500,
43,43,0,catch,None,None,None,None,None,None,None,None,None,None,1,1.210292100906372,None,,,,,0,0,0,0,0,43,43,123,195.56754660606384,,,,,,,,,,,,,,,,,,,,,,,,,,,,,,,,,,,,,,,,,,,,,,,,,,,,,,,,,,,,,,,,,,,,,,,,,,,,,,,,,146,179,86,104,87,103,2.2,2.22,-238,256,0,-279,200,-271,195.54830384254456,195.54838490486145,195.55160641670227,195.56754660606384,195.7067060470581,195.7067060470581,195.7067060470581,195.7067060470581,195.7067060470581,195.7067060470581,195.7067060470581,196.78603887557983,1,1.210292100906372,None,,,,,,,,,,,,,,,,,,156,1,2025-02-28_10h55.11.200,comp,2024.2.4,55.164692946691154,2025-02-28 10h55.22.216639 -0500,
44,44,0,critical,wdh,20.0,3.0,lower,57.0,133.0,78.0,78.0,133.0,57.0,1,2.5906894207000732,None,,,,,0,0,0,0,0,44,44,80,196.8013997077942,,,,,,,,,,,,,,,,,,,,,,,,,,,,,,,,,,,,,,,,,,,,,,,,,,,,,,,,,,,,,,,,,,,,,,,,,,,,,,,,,57.0,133.0,78.0,78.0,133.0,57.0,3.0,3.2,-202,-270,0,16,164,265,196.7875247001648,196.7876033782959,196.7904770374298,196.8013997077942,196.939692735672,196.939692735672,196.939692735672,196.939692735672,196.939692735672,196.939692735672,196.939692735672,199.39601159095764,1,2.5906894207000732,None,,,,,,,,,,,,,,,,,,156,1,2025-02-28_10h55.11.200,comp,2024.2.4,55.164692946691154,2025-02-28 10h55.22.216639 -0500,
45,45,0,filler_random,None,None,None,None,None,None,None,None,None,None,1,1.3203186988830566,None,,,,,0,0,0,0,0,45,45,134,199.41595339775085,,,,,,,,,,,,,,,,,,,,,,,,,,,,,,,,,,,,,,,,,,,,,,,,,,,,,,,,,,,,,,,,,,,,,,,,,,,,,,,,,167.20171122374452,167.0203336713078,112.91506509229188,80.51696429954002,101.32350311742847,147.17439530990072,2.1,2.12,-220,-279,0,-275,210,263,199.3976650238037,199.39774584770203,199.400643825531,199.41595339775085,199.55280590057373,199.55280590057373,199.55280590057373,199.55280590057373,199.55280590057373,199.55280590057373,199.55280590057373,200.74657201766968,1,1.3203186988830566,None,,,,,,,,,,,,,,,,,,156,1,2025-02-28_10h55.11.200,comp,2024.2.4,55.164692946691154,2025-02-28 10h55.22.216639 -0500,
46,46,0,filler_square,None,None,None,None,None,None,None,None,None,None,2,2.6933164596557617,None,,,,,0,0,0,0,0,46,46,174,200.7625756263733,,,,,,,,,,,,,,,,,,,,,,,,,,,,,,,,,,,,,,,,,,,,,,,,,,,,,,,,,,,,,,,,,,,,,,,,,,,,,,,,,88.57277852376662,121.52070559939483,141.37941999951158,141.37941999951158,70.68709897060208,109.37393126434074,1.0,1.3,253,-275,480,-265,701,-286,200.74863195419312,200.74871397018433,200.7519028186798,200.7625756263733,200.9038121700287,200.9038121700287,200.9038121700287,200.9038121700287,200.9038121700287,200.9038121700287,200.9038121700287,203.45789074897766,2,2.6933164596557617,None,,,,,,,,,,,,,,,,,,156,1,2025-02-28_10h55.11.200,comp,2024.2.4,55.164692946691154,2025-02-28 10h55.22.216639 -0500,
47,47,0,critical,whd,20.0,4.0,upper,125.0,200.0,200.0,125.0,141.0,141.0,1,1.88627028465271,None,,,,,0,0,0,0,0,47,47,95,203.474036693573,,,,,,,,,,,,,,,,,,,,,,,,,,,,,,,,,,,,,,,,,,,,,,,,,,,,,,,,,,,,,,,,,,,,,,,,,,,,,,,,,125.0,200.0,200.0,125.0,141.0,141.0,4.0,4.2,-258,9,0,-279,229,2,203.4593997001648,203.4594783782959,203.46312880516052,203.474036693573,203.6262650489807,203.6262650489807,203.6262650489807,203.6262650489807,203.6262650489807,203.6262650489807,203.6262650489807,205.36388731002808,1,1.88627028465271,None,,,,,,,,,,,,,,,,,,156,1,2025-02-28_10h55.11.200,comp,2024.2.4,55.164692946691154,2025-02-28 10h55.22.216639 -0500,
48,48,0,critical,hdw,20.0,2.1,lower,133.0,57.0,78.0,78.0,57.0,133.0,1,1.3187956809997559,None,,,,,0,0,0,0,0,48,48,22,205.37920594215393,,,,,,,,,,,,,,,,,,,,,,,,,,,,,,,,,,,,,,,,,,,,,,,,,,,,,,,,,,,,,,,,,,,,,,,,,,,,,,,,,133.0,57.0,78.0,78.0,57.0,133.0,2.1,2.11,-164,274,0,252,202,-284,205.36538791656494,205.36546444892883,205.36834025382996,205.37920594215393,205.5278820991516,205.5278820991516,205.5278820991516,205.5278820991516,205.5278820991516,205.5278820991516,205.5278820991516,206.7085931301117,1,1.3187956809997559,None,,,,,,,,,,,,,,,,,,156,1,2025-02-28_10h55.11.200,comp,2024.2.4,55.164692946691154,2025-02-28 10h55.22.216639 -0500,
49,49,0,critical,wdh,20.0,2.1,upper,125.0,200.0,141.0,141.0,200.0,125.0,3,2.7161688804626465,None,,,,,0,0,0,0,0,49,49,11,206.72440648078918,,,,,,,,,,,,,,,,,,,,,,,,,,,,,,,,,,,,,,,,,,,,,,,,,,,,,,,,,,,,,,,,,,,,,,,,,,,,,,,,,125.0,200.0,141.0,141.0,200.0,125.0,2.1,2.11,-266,268,0,269,229,-269,206.71013379096985,206.71021366119385,206.7136607170105,206.72440648078918,206.8725049495697,206.8725049495697,206.8725049495697,206.8725049495697,206.8725049495697,206.8725049495697,206.8725049495697,209.45057249069214,3,2.7161688804626465,None,,,,,,,,,,,,,,,,,,156,1,2025-02-28_10h55.11.200,comp,2024.2.4,55.164692946691154,2025-02-28 10h55.22.216639 -0500,
50,50,0,filler_random,None,None,None,None,None,None,None,None,None,None,3,1.9050207138061523,None,,,,,0,0,0,0,0,50,50,132,209.47101140022278,,,,,,,,,,,,,,,,,,,,,,,,,,,,,,,,,,,,,,,,,,,,,,,,,,,,,,,,,,,,,,,,,,,,,,,,,,,,,,,,,63.98145422983252,188.28687747391993,70.56777890018846,147.4259466621274,191.62886619874723,137.2667219961075,1.0,1.1,-744,282,-480,264,-242,255,209.45230507850647,209.45238637924194,209.4552607536316,209.47101140022278,209.60965061187744,209.60965061187744,209.60965061187744,209.60965061187744,209.60965061187744,209.60965061187744,209.60965061187744,211.39213061332703,3,1.9050207138061523,None,,,,,,,,,,,,,,,,,,156,1,2025-02-28_10h55.11.200,comp,2024.2.4,55.164692946691154,2025-02-28 10h55.22.216639 -0500,
51,51,0,critical,hdw,35.0,2.1,lower,133.0,57.0,70.0,70.0,57.0,133.0,1,1.7358055114746094,None,,,,,0,0,0,0,0,51,51,44,211.40808486938477,,,,,,,,,,,,,,,,,,,,,,,,,,,,,,,,,,,,,,,,,,,,,,,,,,,,,,,,,,,,,,,,,,,,,,,,,,,,,,,,,133.0,57.0,70.0,70.0,57.0,133.0,2.1,2.12,-160,-258,0,-278,198,286,211.39366245269775,211.39374041557312,211.39670491218567,211.40808486938477,211.56183648109436,211.56183648109436,211.56183648109436,211.56183648109436,211.56183648109436,211.56183648109436,211.56183648109436,213.16180992126465,1,1.7358055114746094,None,,,,,,,,,,,,,,,,,,156,1,2025-02-28_10h55.11.200,comp,2024.2.4,55.164692946691154,2025-02-28 10h55.22.216639 -0500,
52,52,0,filler_square,None,None,None,None,None,None,None,None,None,None,2,1.8287088871002197,None,,,,,0,0,0,0,0,52,52,175,213.18004751205444,,,,,,,,,,,,,,,,,,,,,,,,,,,,,,,,,,,,,,,,,,,,,,,,,,,,,,,,,,,,,,,,,,,,,,,,,,,,,,,,,123.94905697085605,153.03505277654276,162.12975796684742,162.12975796684742,138.90627954026735,94.54114548985395,4.0,4.1,-254,-261,0,-18,224,-281,213.16381359100342,213.16389441490173,213.1670994758606,213.18004751205444,213.32571005821228,213.32571005821228,213.32571005821228,213.32571005821228,213.32571005821228,213.32571005821228,213.32571005821228,215.01560735702515,2,1.8287088871002197,None,,,,,,,,,,,,,,,,,,156,1,2025-02-28_10h55.11.200,comp,2024.2.4,55.164692946691154,2025-02-28 10h55.22.216639 -0500,
53,53,0,critical,dwh,35.0,2.1,lower,70.0,70.0,57.0,133.0,133.0,57.0,2,3.511957883834839,None,,,,,0,0,0,0,0,53,53,4,215.03281545639038,,,,,,,,,,,,,,,,,,,,,,,,,,,,,,,,,,,,,,,,,,,,,,,,,,,,,,,,,,,,,,,,,,,,,,,,,,,,,,,,,70.0,70.0,57.0,133.0,133.0,57.0,2.1,2.12,-198,-285,0,-272,191,281,215.0172402858734,215.01733446121216,215.0206425189972,215.03281545639038,215.17794847488403,215.17794847488403,215.17794847488403,215.17794847488403,215.17794847488403,215.17794847488403,215.17794847488403,218.55193901062012,2,3.511957883834839,None,,,,,,,,,,,,,,,,,,156,1,2025-02-28_10h55.11.200,comp,2024.2.4,55.164692946691154,2025-02-28 10h55.22.216639 -0500,
54,54,0,critical,hdw,35.0,4.0,lower,133.0,57.0,70.0,70.0,57.0,133.0,1,1.936650276184082,None,,,,,0,0,0,0,0,54,54,112,218.56822061538696,,,,,,,,,,,,,,,,,,,,,,,,,,,,,,,,,,,,,,,,,,,,,,,,,,,,,,,,,,,,,,,,,,,,,,,,,,,,,,,,,133.0,57.0,70.0,70.0,57.0,133.0,4.0,4.2,-160,-9,0,-271,198,-11,218.5533845424652,218.55346727371216,218.5563666820526,218.56822061538696,218.7101125717163,218.7101125717163,218.7101125717163,218.7101125717163,218.7101125717163,218.7101125717163,218.7101125717163,220.51331567764282,1,1.936650276184082,None,,,,,,,,,,,,,,,,,,156,1,2025-02-28_10h55.11.200,comp,2024.2.4,55.164692946691154,2025-02-28 10h55.22.216639 -0500,
55,55,0,critical,whd,20.0,2.1,upper,125.0,200.0,200.0,125.0,141.0,141.0,1,1.5901093482971191,None,,,,,0,0,0,0,0,55,55,15,220.52973413467407,,,,,,,,,,,,,,,,,,,,,,,,,,,,,,,,,,,,,,,,,,,,,,,,,,,,,,,,,,,,,,,,,,,,,,,,,,,,,,,,,125.0,200.0,200.0,125.0,141.0,141.0,2.1,2.11,-258,275,0,286,229,-286,220.51484060287476,220.5149209499359,220.51869010925293,220.52973413467407,220.68050265312195,220.68050265312195,220.68050265312195,220.68050265312195,220.68050265312195,220.68050265312195,220.68050265312195,222.13080644607544,1,1.5901093482971191,None,,,,,,,,,,,,,,,,,,156,1,2025-02-28_10h55.11.200,comp,2024.2.4,55.164692946691154,2025-02-28 10h55.22.216639 -0500,
56,56,0,filler_random,None,None,None,None,None,None,None,None,None,None,3,2.084784984588623,None,,,,,0,0,0,0,0,56,56,162,222.14719820022583,,,,,,,,,,,,,,,,,,,,,,,,,,,,,,,,,,,,,,,,,,,,,,,,,,,,,,,,,,,,,,,,,,,,,,,,,,,,,,,,,138.51323477640847,74.75180213167084,187.4830241638256,69.78916380262606,139.04387560687775,180.55815678469628,2.2,2.22,-168,263,0,-288,221,-255,222.13246297836304,222.13257455825806,222.13605999946594,222.14719820022583,222.28985571861267,222.28985571861267,222.28985571861267,222.28985571861267,222.28985571861267,222.28985571861267,222.28985571861267,224.24934244155884,3,2.084784984588623,None,,,,,,,,,,,,,,,,,,156,1,2025-02-28_10h55.11.200,comp,2024.2.4,55.164692946691154,2025-02-28 10h55.22.216639 -0500,
57,57,0,critical,hwd,35.0,2.1,lower,133.0,57.0,57.0,133.0,70.0,70.0,2,1.9610140323638916,None,,,,,0,0,0,0,0,57,57,16,224.26557540893555,,,,,,,,,,,,,,,,,,,,,,,,,,,,,,,,,,,,,,,,,,,,,,,,,,,,,,,,,,,,,,,,,,,,,,,,,,,,,,,,,133.0,57.0,57.0,133.0,70.0,70.0,2.1,2.11,-191,290,0,273,198,-281,224.2511100769043,224.2511923313141,224.25509548187256,224.26557540893555,224.4141263961792,224.4141263961792,224.4141263961792,224.4141263961792,224.4141263961792,224.4141263961792,224.4141263961792,226.2322976589203,2,1.9610140323638916,None,,,,,,,,,,,,,,,,,,156,1,2025-02-28_10h55.11.200,comp,2024.2.4,55.164692946691154,2025-02-28 10h55.22.216639 -0500,
58,58,0,critical,dhw,35.0,2.1,lower,70.0,70.0,133.0,57.0,57.0,133.0,3,2.4788920879364014,None,,,,,0,0,0,0,0,58,58,24,226.24906706809998,,,,,,,,,,,,,,,,,,,,,,,,,,,,,,,,,,,,,,,,,,,,,,,,,,,,,,,,,,,,,,,,,,,,,,,,,,,,,,,,,70.0,70.0,133.0,57.0,57.0,133.0,2.1,2.11,-160,269,0,287,191,-256,226.2338285446167,226.23391127586365,226.237242937088,226.24906706809998,226.39753913879395,226.39753913879395,226.39753913879395,226.39753913879395,226.39753913879395,226.39753913879395,226.39753913879395,228.7318251132965,3,2.4788920879364014,None,,,,,,,,,,,,,,,,,,156,1,2025-02-28_10h55.11.200,comp,2024.2.4,55.164692946691154,2025-02-28 10h55.22.216639 -0500,
59,59,0,filler_random,None,None,None,None,None,None,None,None,None,None,1,1.590317726135254,None,,,,,0,0,0,0,0,59,59,154,228.74668192863464,,,,,,,,,,,,,,,,,,,,,,,,,,,,,,,,,,,,,,,,,,,,,,,,,,,,,,,,,,,,,,,,,,,,,,,,,,,,,,,,,167.21842912655893,165.2934353777634,117.0486019558196,165.15164383593952,147.42367405689197,125.18605966737343,2.1,2.11,-261,275,0,261,241,-263,228.73359298706055,228.73367643356323,228.73688864707947,228.74668192863464,228.90056681632996,228.90056681632996,228.90056681632996,228.90056681632996,228.90056681632996,228.90056681632996,228.90056681632996,230.34274888038635,1,1.590317726135254,None,,,,,,,,,,,,,,,,,,156,1,2025-02-28_10h55.11.200,comp,2024.2.4,55.164692946691154,2025-02-28 10h55.22.216639 -0500,
60,60,0,filler_square,None,None,None,None,None,None,None,None,None,None,2,2.03428316116333,None,,,,,0,0,0,0,0,60,60,185,230.35853838920593,,,,,,,,,,,,,,,,,,,,,,,,,,,,,,,,,,,,,,,,,,,,,,,,,,,,,,,,,,,,,,,,,,,,,,,,,,,,,,,,,193.18570221418648,161.0328048980776,194.3733780908547,194.3733780908547,183.94267033124729,76.79729919959773,1.0,1.3,206,-277,480,-274,712,-254,230.34449553489685,230.3445725440979,230.3474316596985,230.35853838920593,230.49915075302124,230.49915075302124,230.49915075302124,230.49915075302124,230.49915075302124,230.49915075302124,230.49915075302124,232.3990797996521,2,2.03428316116333,None,,,,,,,,,,,,,,,,,,156,1,2025-02-28_10h55.11.200,comp,2024.2.4,55.164692946691154,2025-02-28 10h55.22.216639 -0500,
61,61,0,critical,hdw,35.0,4.0,upper,200.0,125.0,127.0,127.0,125.0,200.0,1,1.224782943725586,None,,,,,0,0,0,0,0,61,61,113,232.4153697490692,,,,,,,,,,,,,,,,,,,,,,,,,,,,,,,,,,,,,,,,,,,,,,,,,,,,,,,,,,,,,,,,,,,,,,,,,,,,,,,,,200.0,125.0,127.0,127.0,125.0,200.0,4.0,4.1,-222,-267,0,16,260,-281,232.4005787372589,232.40065789222717,232.4036900997162,232.4153697490692,232.5657410621643,232.5657410621643,232.5657410621643,232.5657410621643,232.5657410621643,232.5657410621643,232.5657410621643,233.64358973503113,1,1.224782943725586,None,,,,,,,,,,,,,,,,,,156,1,2025-02-28_10h55.11.200,comp,2024.2.4,55.164692946691154,2025-02-28 10h55.22.216639 -0500,
62,62,0,filler_square,None,None,None,None,None,None,None,None,None,None,3,1.925152063369751,None,,,,,0,0,0,0,0,62,62,208,233.65924310684204,,,,,,,,,,,,,,,,,,,,,,,,,,,,,,,,,,,,,,,,,,,,,,,,,,,,,,,,,,,,,,,,,,,,,,,,,,,,,,,,,67.36179638958508,63.54242428270069,71.45890651630154,63.14549892165393,82.49635874811804,82.49635874811804,3.0,3.2,-159,-265,0,16,169,257,233.64532351493835,233.64540028572083,233.6482343673706,233.65924310684204,233.8011257648468,233.8011257648468,233.8011257648468,233.8011257648468,233.8011257648468,233.8011257648468,233.8011257648468,235.60029888153076,3,1.925152063369751,None,,,,,,,,,,,,,,,,,,156,1,2025-02-28_10h55.11.200,comp,2024.2.4,55.164692946691154,2025-02-28 10h55.22.216639 -0500,
63,63,0,critical,wdh,35.0,2.1,upper,125.0,200.0,127.0,127.0,200.0,125.0,1,3.361039400100708,None,,,,,0,0,0,0,0,63,63,33,235.61583995819092,,,,,,,,,,,,,,,,,,,,,,,,,,,,,,,,,,,,,,,,,,,,,,,,,,,,,,,,,,,,,,,,,,,,,,,,,,,,,,,,,125.0,200.0,127.0,127.0,200.0,125.0,2.1,2.11,-260,252,0,262,222,-256,235.60190773010254,235.60201740264893,235.60540223121643,235.61583995819092,235.7671356201172,235.7671356201172,235.7671356201172,235.7671356201172,235.7671356201172,235.7671356201172,235.7671356201172,238.98220872879028,1,3.361039400100708,None,,,,,,,,,,,,,,,,,,156,1,2025-02-28_10h55.11.200,comp,2024.2.4,55.164692946691154,2025-02-28 10h55.22.216639 -0500,
64,64,0,critical,dhw,35.0,2.1,upper,127.0,127.0,200.0,125.0,125.0,200.0,2,2.464796543121338,None,,,,,0,0,0,0,0,64,64,25,238.99978804588318,,,,,,,,,,,,,,,,,,,,,,,,,,,,,,,,,,,,,,,,,,,,,,,,,,,,,,,,,,,,,,,,,,,,,,,,,,,,,,,,,127.0,127.0,200.0,125.0,125.0,200.0,2.1,2.12,-222,-275,0,-259,258,272,238.9837248325348,238.983824968338,238.98669052124023,238.99978804588318,239.1514778137207,239.1514778137207,239.1514778137207,239.1514778137207,239.1514778137207,239.1514778137207,239.1514778137207,241.47346186637878,2,2.464796543121338,None,,,,,,,,,,,,,,,,,,156,1,2025-02-28_10h55.11.200,comp,2024.2.4,55.164692946691154,2025-02-28 10h55.22.216639 -0500,
65,65,0,critical,hdw,20.0,4.0,upper,200.0,125.0,141.0,141.0,125.0,200.0,3,2.7537319660186768,None,,,,,0,0,0,0,0,65,65,119,241.49424815177917,,,,,,,,,,,,,,,,,,,,,,,,,,,,,,,,,,,,,,,,,,,,,,,,,,,,,,,,,,,,,,,,,,,,,,,,,,,,,,,,,200.0,125.0,141.0,141.0,125.0,200.0,4.0,4.1,-229,-262,0,-17,266,-273,241.47540092468262,241.47553324699402,241.47869658470154,241.49424815177917,241.6366000175476,241.6366000175476,241.6366000175476,241.6366000175476,241.6366000175476,241.6366000175476,241.6366000175476,244.25801515579224,3,2.7537319660186768,None,,,,,,,,,,,,,,,,,,156,1,2025-02-28_10h55.11.200,comp,2024.2.4,55.164692946691154,2025-02-28 10h55.22.216639 -0500,
66,66,0,critical,dwh,35.0,2.1,upper,127.0,127.0,125.0,200.0,200.0,125.0,2,2.2140893936157227,None,,,,,0,0,0,0,0,66,66,5,244.27384328842163,,,,,,,,,,,,,,,,,,,,,,,,,,,,,,,,,,,,,,,,,,,,,,,,,,,,,,,,,,,,,,,,,,,,,,,,,,,,,,,,,127.0,127.0,125.0,200.0,200.0,125.0,2.1,2.12,-260,-284,0,-288,258,290,244.25995588302612,244.26003527641296,244.26303124427795,244.27384328842163,244.42402911186218,244.42402911186218,244.42402911186218,244.42402911186218,244.42402911186218,244.42402911186218,244.42402911186218,246.49871110916138,2,2.2140893936157227,None,,,,,,,,,,,,,,,,,,156,1,2025-02-28_10h55.11.200,comp,2024.2.4,55.164692946691154,2025-02-28 10h55.22.216639 -0500,
67,67,0,critical,hwd,35.0,3.0,lower,133.0,57.0,57.0,133.0,70.0,70.0,2,1.5568864345550537,None,,,,,0,0,0,0,0,67,67,98,246.51516842842102,,,,,,,,,,,,,,,,,,,,,,,,,,,,,,,,,,,,,,,,,,,,,,,,,,,,,,,,,,,,,,,,,,,,,,,,,,,,,,,,,133.0,57.0,57.0,133.0,70.0,70.0,3.0,3.1,-191,282,0,9,198,-270,246.50020384788513,246.50028109550476,246.50318264961243,246.51516842842102,246.65419816970825,246.65419816970825,246.65419816970825,246.65419816970825,246.65419816970825,246.65419816970825,246.65419816970825,248.08508443832397,2,1.5568864345550537,None,,,,,,,,,,,,,,,,,,156,1,2025-02-28_10h55.11.200,comp,2024.2.4,55.164692946691154,2025-02-28 10h55.22.216639 -0500,
68,68,0,critical,dhw,20.0,4.0,lower,78.0,78.0,133.0,57.0,57.0,133.0,3,2.34814190864563,None,,,,,0,0,0,0,0,68,68,58,248.1007981300354,,,,,,,,,,,,,,,,,,,,,,,,,,,,,,,,,,,,,,,,,,,,,,,,,,,,,,,,,,,,,,,,,,,,,,,,,,,,,,,,,78.0,78.0,133.0,57.0,57.0,133.0,4.0,4.1,-164,-269,0,-17,191,-274,248.0866117477417,248.08669018745422,248.08955097198486,248.1007981300354,248.2408471107483,248.2408471107483,248.2408471107483,248.2408471107483,248.2408471107483,248.2408471107483,248.2408471107483,250.4535403251648,3,2.34814190864563,None,,,,,,,,,,,,,,,,,,156,1,2025-02-28_10h55.11.200,comp,2024.2.4,55.164692946691154,2025-02-28 10h55.22.216639 -0500,
69,69,0,filler_square,None,None,None,None,None,None,None,None,None,None,3,1.873908281326294,None,,,,,0,0,0,0,0,69,69,190,250.47022795677185,,,,,,,,,,,,,,,,,,,,,,,,,,,,,,,,,,,,,,,,,,,,,,,,,,,,,,,,,,,,,,,,,,,,,,,,,,,,,,,,,127.2644693976395,197.32298880683646,111.89042598611101,80.38494992076693,197.43394294422433,197.43394294422433,3.0,3.2,-235,-265,0,19,235,282,250.45557856559753,250.45565962791443,250.4589602947235,250.47022795677185,250.62810277938843,250.62810277938843,250.62810277938843,250.62810277938843,250.62810277938843,250.62810277938843,250.62810277938843,252.36429738998413,3,1.873908281326294,None,,,,,,,,,,,,,,,,,,156,1,2025-02-28_10h55.11.200,comp,2024.2.4,55.164692946691154,2025-02-28 10h55.22.216639 -0500,
70,70,0,critical,dhw,20.0,2.1,upper,141.0,141.0,200.0,125.0,125.0,200.0,3,1.360154628753662,None,,,,,0,0,0,0,0,70,70,3,252.3839671611786,,,,,,,,,,,,,,,,,,,,,,,,,,,,,,,,,,,,,,,,,,,,,,,,,,,,,,,,,,,,,,,,,,,,,,,,,,,,,,,,,141.0,141.0,200.0,125.0,125.0,200.0,2.1,2.12,-229,-260,0,-259,258,269,252.3657853603363,252.3658652305603,252.36864733695984,252.3839671611786,252.5268750190735,252.5268750190735,252.5268750190735,252.5268750190735,252.5268750190735,252.5268750190735,252.5268750190735,253.75783610343933,3,1.360154628753662,None,,,,,,,,,,,,,,,,,,156,1,2025-02-28_10h55.11.200,comp,2024.2.4,55.164692946691154,2025-02-28 10h55.22.216639 -0500,
71,71,0,filler_random,None,None,None,None,None,None,None,None,None,None,3,2.258838653564453,None,,,,,0,0,0,0,0,71,71,142,253.77462697029114,,,,,,,,,,,,,,,,,,,,,,,,,,,,,,,,,,,,,,,,,,,,,,,,,,,,,,,,,,,,,,,,,,,,,,,,,,,,,,,,,133.3437635096882,61.901290650907036,97.73906873261534,75.50884416445558,62.95557326904361,131.41383001210028,4.0,4.2,-165,-8,0,-287,199,-1,253.75982236862183,253.75990557670593,253.7637162208557,253.77462697029114,253.923109292984,253.923109292984,253.923109292984,253.923109292984,253.923109292984,253.923109292984,253.923109292984,256.0437767505646,3,2.258838653564453,None,,,,,,,,,,,,,,,,,,156,1,2025-02-28_10h55.11.200,comp,2024.2.4,55.164692946691154,2025-02-28 10h55.22.216639 -0500,
72,72,0,filler_square,None,None,None,None,None,None,None,None,None,None,3,1.2518107891082764,None,,,,,0,0,0,0,0,72,72,201,256.0602331161499,,,,,,,,,,,,,,,,,,,,,,,,,,,,,,,,,,,,,,,,,,,,,,,,,,,,,,,,,,,,,,,,,,,,,,,,,,,,,,,,,91.7523589348473,76.49275544411609,103.07045429417491,137.69696506114587,164.14233331109318,164.14233331109318,1.0,1.2,-203,10,0,4,247,1,256.0455732345581,256.045654296875,256.0491120815277,256.0602331161499,256.20602655410767,256.20602655410767,256.20602655410767,256.20602655410767,256.20602655410767,256.20602655410767,256.20602655410767,257.3264935016632,3,1.2518107891082764,None,,,,,,,,,,,,,,,,,,156,1,2025-02-28_10h55.11.200,comp,2024.2.4,55.164692946691154,2025-02-28 10h55.22.216639 -0500,
73,73,0,critical,hdw,35.0,2.1,upper,200.0,125.0,127.0,127.0,125.0,200.0,1,3.065444231033325,None,,,,,0,0,0,0,0,73,73,21,257.3426523208618,,,,,,,,,,,,,,,,,,,,,,,,,,,,,,,,,,,,,,,,,,,,,,,,,,,,,,,,,,,,,,,,,,,,,,,,,,,,,,,,,200.0,125.0,127.0,127.0,125.0,200.0,2.1,2.12,-222,-282,0,-254,260,278,257.3282709121704,257.3283545970917,257.33224749565125,257.3426523208618,257.4907810688019,257.4907810688019,257.4907810688019,257.4907810688019,257.4907810688019,257.4907810688019,257.4907810688019,260.4248287677765,1,3.065444231033325,None,,,,,,,,,,,,,,,,,,156,1,2025-02-28_10h55.11.200,comp,2024.2.4,55.164692946691154,2025-02-28 10h55.22.216639 -0500,
74,74,0,filler_square,None,None,None,None,None,None,None,None,None,None,3,1.4631621837615967,None,,,,,0,0,0,0,0,74,74,188,260.4413414001465,,,,,,,,,,,,,,,,,,,,,,,,,,,,,,,,,,,,,,,,,,,,,,,,,,,,,,,,,,,,,,,,,,,,,,,,,,,,,,,,,85.13466602993478,59.96577086428884,83.29641136112701,67.96303661963256,96.88753338623599,96.88753338623599,4.0,4.1,-160,-283,0,13,178,-270,260.4267864227295,260.42689776420593,260.4301257133484,260.4413414001465,260.59120440483093,260.59120440483093,260.59120440483093,260.59120440483093,260.59120440483093,260.59120440483093,260.59120440483093,261.90791606903076,3,1.4631621837615967,None,,,,,,,,,,,,,,,,,,156,1,2025-02-28_10h55.11.200,comp,2024.2.4,55.164692946691154,2025-02-28 10h55.22.216639 -0500,
75,75,0,critical,dwh,20.0,1.0,lower,78.0,78.0,57.0,133.0,133.0,57.0,2,1.5190351009368896,None,,,,,0,0,0,0,0,75,75,66,261.92906165122986,,,,,,,,,,,,,,,,,,,,,,,,,,,,,,,,,,,,,,,,,,,,,,,,,,,,,,,,,,,,,,,,,,,,,,,,,,,,,,,,,78.0,78.0,57.0,133.0,133.0,57.0,1.0,1.1,-682,290,-480,252,-289,268,261.9094920158386,261.9095950126648,261.9130895137787,261.92906165122986,262.07615876197815,262.07615876197815,262.07615876197815,262.07615876197815,262.07615876197815,262.07615876197815,262.07615876197815,263.4624717235565,2,1.5190351009368896,None,,,,,,,,,,,,,,,,,,156,1,2025-02-28_10h55.11.200,comp,2024.2.4,55.164692946691154,2025-02-28 10h55.22.216639 -0500,
76,76,0,filler_square,None,None,None,None,None,None,None,None,None,None,2,1.698326587677002,None,,,,,0,0,0,0,0,76,76,181,263.4785404205322,,,,,,,,,,,,,,,,,,,,,,,,,,,,,,,,,,,,,,,,,,,,,,,,,,,,,,,,,,,,,,,,,,,,,,,,,,,,,,,,,83.21770889958452,92.0376040763756,151.18504510574118,151.18504510574118,91.17617060364232,75.26482692471178,2.2,2.22,-218,282,0,-282,209,-251,263.4642879962921,263.4643657207489,263.4681966304779,263.4785404205322,263.63049721717834,263.63049721717834,263.63049721717834,263.63049721717834,263.63049721717834,263.63049721717834,263.63049721717834,265.18094515800476,2,1.698326587677002,None,,,,,,,,,,,,,,,,,,156,1,2025-02-28_10h55.11.200,comp,2024.2.4,55.164692946691154,2025-02-28 10h55.22.216639 -0500,
77,77,0,critical,dhw,35.0,1.0,upper,127.0,127.0,200.0,125.0,125.0,200.0,3,3.091341018676758,None,,,,,0,0,0,0,0,77,77,49,265.1979293823242,,,,,,,,,,,,,,,,,,,,,,,,,,,,,,,,,,,,,,,,,,,,,,,,,,,,,,,,,,,,,,,,,,,,,,,,,,,,,,,,,127.0,127.0,200.0,125.0,125.0,200.0,1.0,1.3,258,-281,480,-283,738,-276,265.1825039386749,265.1825866699219,265.1856245994568,265.1979293823242,265.3433277606964,265.3433277606964,265.3433277606964,265.3433277606964,265.3433277606964,265.3433277606964,265.3433277606964,268.2943186759949,3,3.091341018676758,None,,,,,,,,,,,,,,,,,,156,1,2025-02-28_10h55.11.200,comp,2024.2.4,55.164692946691154,2025-02-28 10h55.22.216639 -0500,
78,78,0,filler_square,None,None,None,None,None,None,None,None,None,None,2,1.138685703277588,None,,,,,0,0,0,0,0,78,78,196,268.3094787597656,,,,,,,,,,,,,,,,,,,,,,,,,,,,,,,,,,,,,,,,,,,,,,,,,,,,,,,,,,,,,,,,,,,,,,,,,,,,,,,,,102.5673250879391,76.51923259901329,117.04124598955318,117.04124598955318,107.77345275426647,103.42729745146508,3.0,3.1,-193,273,0,8,206,-265,268.29632091522217,268.29639863967896,268.2998044490814,268.3094787597656,268.4593060016632,268.4593060016632,268.4593060016632,268.4593060016632,268.4593060016632,268.4593060016632,268.4593060016632,269.4649875164032,2,1.138685703277588,None,,,,,,,,,,,,,,,,,,156,1,2025-02-28_10h55.11.200,comp,2024.2.4,55.164692946691154,2025-02-28 10h55.22.216639 -0500,
79,79,0,critical,wdh,35.0,2.1,lower,57.0,133.0,70.0,70.0,133.0,57.0,1,1.471503734588623,None,,,,,0,0,0,0,0,79,79,8,269.480584859848,,,,,,,,,,,,,,,,,,,,,,,,,,,,,,,,,,,,,,,,,,,,,,,,,,,,,,,,,,,,,,,,,,,,,,,,,,,,,,,,,57.0,133.0,70.0,70.0,133.0,57.0,2.1,2.11,-198,258,0,281,160,-257,269.4665858745575,269.4666645526886,269.47013807296753,269.480584859848,269.6315567493439,269.6315567493439,269.6315567493439,269.6315567493439,269.6315567493439,269.6315567493439,269.6315567493439,270.9619348049164,1,1.471503734588623,None,,,,,,,,,,,,,,,,,,156,1,2025-02-28_10h55.11.200,comp,2024.2.4,55.164692946691154,2025-02-28 10h55.22.216639 -0500,
80,80,0,critical,hwd,35.0,4.0,lower,133.0,57.0,57.0,133.0,70.0,70.0,1,1.7020025253295898,None,,,,,0,0,0,0,0,80,80,100,270.9781322479248,,,,,,,,,,,,,,,,,,,,,,,,,,,,,,,,,,,,,,,,,,,,,,,,,,,,,,,,,,,,,,,,,,,,,,,,,,,,,,,,,133.0,57.0,57.0,133.0,70.0,70.0,4.0,4.1,-191,-265,0,12,198,-282,270.963666677475,270.9638271331787,270.96730041503906,270.9781322479248,271.1251816749573,271.1251816749573,271.1251816749573,271.1251816749573,271.1251816749573,271.1251816749573,271.1251816749573,272.69570565223694,1,1.7020025253295898,None,,,,,,,,,,,,,,,,,,156,1,2025-02-28_10h55.11.200,comp,2024.2.4,55.164692946691154,2025-02-28 10h55.22.216639 -0500,
81,81,0,critical,hdw,20.0,3.0,lower,133.0,57.0,78.0,78.0,57.0,133.0,1,13.840984344482422,None,,,,,0,0,0,0,0,81,81,116,272.71124291419983,,,,,,,,,,,,,,,,,,,,,,,,,,,,,,,,,,,,,,,,,,,,,,,,,,,,,,,,,,,,,,,,,,,,,,,,,,,,,,,,,133.0,57.0,78.0,78.0,57.0,133.0,3.0,3.2,-164,-258,0,16,202,256,272.6972930431366,272.69736552238464,272.70074009895325,272.71124291419983,272.86550545692444,272.86550545692444,272.86550545692444,272.86550545692444,272.86550545692444,272.86550545692444,272.86550545692444,286.55510807037354,1,13.840984344482422,None,,,,,,,,,,,,,,,,,,156,1,2025-02-28_10h55.11.200,comp,2024.2.4,55.164692946691154,2025-02-28 10h55.22.216639 -0500,
82,82,0,filler_random,None,None,None,None,None,None,None,None,None,None,1,0.9330739974975586,None,,,,,0,0,0,0,0,82,82,139,286.57103204727173,,,,,,,,,,,,,,,,,,,,,,,,,,,,,,,,,,,,,,,,,,,,,,,,,,,,,,,,,,,,,,,,,,,,,,,,,,,,,,,,,158.31941826830064,132.68818952605693,61.979226199154084,94.7212839736789,153.0869892769215,58.148902198173005,4.0,4.1,-210,-258,0,19,172,-281,286.55687379837036,286.5569567680359,286.560165643692,286.57103204727173,286.7175381183624,286.7175381183624,286.7175381183624,286.7175381183624,286.7175381183624,286.7175381183624,286.7175381183624,287.5194454193115,1,0.9330739974975586,None,,,,,,,,,,,,,,,,,,156,1,2025-02-28_10h55.11.200,comp,2024.2.4,55.164692946691154,2025-02-28 10h55.22.216639 -0500,
83,83,0,filler_random,None,None,None,None,None,None,None,None,None,None,1,2.0618536472320557,None,,,,,0,0,0,0,0,83,83,158,287.53835225105286,,,,,,,,,,,,,,,,,,,,,,,,,,,,,,,,,,,,,,,,,,,,,,,,,,,,,,,,,,,,,,,,,,,,,,,,,,,,,,,,,85.43202437096653,180.00322533294622,107.50674356891005,129.3846812082915,95.034454441024,97.63159163532197,2.1,2.12,-251,-257,0,-262,210,266,287.52147459983826,287.52155804634094,287.5249993801117,287.53835225105286,287.6846733093262,287.6846733093262,287.6846733093262,287.6846733093262,287.6846733093262,287.6846733093262,287.6846733093262,289.60241293907166,1,2.0618536472320557,None,,,,,,,,,,,,,,,,,,156,1,2025-02-28_10h55.11.200,comp,2024.2.4,55.164692946691154,2025-02-28 10h55.22.216639 -0500,
84,84,0,filler_square,None,None,None,None,None,None,None,None,None,None,1,1.477470874786377,None,,,,,0,0,0,0,0,84,84,204,289.61868596076965,,,,,,,,,,,,,,,,,,,,,,,,,,,,,,,,,,,,,,,,,,,,,,,,,,,,,,,,,,,,,,,,,,,,,,,,,,,,,,,,,113.22725561270227,113.22725561270227,89.88788529803317,59.76381947444003,91.90276265324745,80.7896342332162,2.2,2.22,-182,267,0,-259,166,-289,289.604469537735,289.604553937912,289.60783076286316,289.61868596076965,289.76696968078613,289.76696968078613,289.76696968078613,289.76696968078613,289.76696968078613,289.76696968078613,289.76696968078613,291.1062240600586,1,1.477470874786377,None,,,,,,,,,,,,,,,,,,156,1,2025-02-28_10h55.11.200,comp,2024.2.4,55.164692946691154,2025-02-28 10h55.22.216639 -0500,
85,85,0,filler_square,None,None,None,None,None,None,None,None,None,None,2,1.6135509014129639,None,,,,,0,0,0,0,0,85,85,198,291.12281703948975,,,,,,,,,,,,,,,,,,,,,,,,,,,,,,,,,,,,,,,,,,,,,,,,,,,,,,,,,,,,,,,,,,,,,,,,,,,,,,,,,112.87317124110548,178.74584149745326,187.25445784742402,187.25445784742402,87.59015216864935,149.49236860268576,1.0,1.1,-759,258,-480,255,-216,257,291.10808515548706,291.1081647872925,291.1110301017761,291.12281703948975,291.26800656318665,291.26800656318665,291.26800656318665,291.26800656318665,291.26800656318665,291.26800656318665,291.26800656318665,292.7544014453888,2,1.6135509014129639,None,,,,,,,,,,,,,,,,,,156,1,2025-02-28_10h55.11.200,comp,2024.2.4,55.164692946691154,2025-02-28 10h55.22.216639 -0500,
86,86,0,filler_square,None,None,None,None,None,None,None,None,None,None,2,1.2922682762145996,None,,,,,0,0,0,0,0,86,86,209,292.7722899913788,,,,,,,,,,,,,,,,,,,,,,,,,,,,,,,,,,,,,,,,,,,,,,,,,,,,,,,,,,,,,,,,,,,,,,,,,,,,,,,,,69.53674055160256,63.01639559183639,94.3848409426964,94.3848409426964,67.6219654682221,73.85568530816124,2.2,2.22,-175,264,0,-284,180,-260,292.7564182281494,292.75649642944336,292.7596561908722,292.7722899913788,292.91843247413635,292.91843247413635,292.91843247413635,292.91843247413635,292.91843247413635,292.91843247413635,292.91843247413635,294.0678551197052,2,1.2922682762145996,None,,,,,,,,,,,,,,,,,,156,1,2025-02-28_10h55.11.200,comp,2024.2.4,55.164692946691154,2025-02-28 10h55.22.216639 -0500,
87,87,0,critical,dwh,35.0,3.0,lower,70.0,70.0,57.0,133.0,133.0,57.0,2,1.5239572525024414,None,,,,,0,0,0,0,0,87,87,62,294.0844531059265,,,,,,,,,,,,,,,,,,,,,,,,,,,,,,,,,,,,,,,,,,,,,,,,,,,,,,,,,,,,,,,,,,,,,,,,,,,,,,,,,70.0,70.0,57.0,133.0,133.0,57.0,3.0,3.1,-198,282,0,3,191,-256,294.06935811042786,294.0694372653961,294.072541475296,294.0844531059265,294.2349760532379,294.2349760532379,294.2349760532379,294.2349760532379,294.2349760532379,294.2349760532379,294.2349760532379,295.62633872032166,2,1.5239572525024414,None,,,,,,,,,,,,,,,,,,156,1,2025-02-28_10h55.11.200,comp,2024.2.4,55.164692946691154,2025-02-28 10h55.22.216639 -0500,
88,88,0,critical,hwd,35.0,2.1,upper,200.0,125.0,125.0,200.0,127.0,127.0,2,2.0066118240356445,None,,,,,0,0,0,0,0,88,88,17,295.6421248912811,,,,,,,,,,,,,,,,,,,,,,,,,,,,,,,,,,,,,,,,,,,,,,,,,,,,,,,,,,,,,,,,,,,,,,,,,,,,,,,,,200.0,125.0,125.0,200.0,127.0,127.0,2.1,2.11,-258,267,0,276,260,-287,295.62788367271423,295.62795782089233,295.63086676597595,295.6421248912811,295.78934240341187,295.78934240341187,295.78934240341187,295.78934240341187,295.78934240341187,295.78934240341187,295.78934240341187,297.65360736846924,2,2.0066118240356445,None,,,,,,,,,,,,,,,,,,156,1,2025-02-28_10h55.11.200,comp,2024.2.4,55.164692946691154,2025-02-28 10h55.22.216639 -0500,
89,89,0,filler_random,None,None,None,None,None,None,None,None,None,None,2,1.4505798816680908,None,,,,,0,0,0,0,0,89,89,168,297.67021012306213,,,,,,,,,,,,,,,,,,,,,,,,,,,,,,,,,,,,,,,,,,,,,,,,,,,,,,,,,,,,,,,,,,,,,,,,,,,,,,,,,70.00548446415108,141.88527864549343,166.14481090693056,174.73123829493318,141.50516187948503,190.9651192693083,2.2,2.22,-254,290,0,-280,279,-262,297.6556718349457,297.65577816963196,297.6592712402344,297.67021012306213,297.81697368621826,297.81697368621826,297.81697368621826,297.81697368621826,297.81697368621826,297.81697368621826,297.81697368621826,299.126451253891,2,1.4505798816680908,None,,,,,,,,,,,,,,,,,,156,1,2025-02-28_10h55.11.200,comp,2024.2.4,55.164692946691154,2025-02-28 10h55.22.216639 -0500,
90,90,0,critical,wdh,20.0,2.1,lower,57.0,133.0,78.0,78.0,133.0,57.0,1,1.5062568187713623,None,,,,,0,0,0,0,0,90,90,34,299.1426508426666,,,,,,,,,,,,,,,,,,,,,,,,,,,,,,,,,,,,,,,,,,,,,,,,,,,,,,,,,,,,,,,,,,,,,,,,,,,,,,,,,57.0,133.0,78.0,78.0,133.0,57.0,2.1,2.11,-202,262,0,264,164,-286,299.12798047065735,299.1280589103699,299.13093972206116,299.1426508426666,299.2877492904663,299.2877492904663,299.2877492904663,299.2877492904663,299.2877492904663,299.2877492904663,299.2877492904663,300.66679072380066,1,1.5062568187713623,None,,,,,,,,,,,,,,,,,,156,1,2025-02-28_10h55.11.200,comp,2024.2.4,55.164692946691154,2025-02-28 10h55.22.216639 -0500,
91,91,0,critical,dhw,35.0,4.0,upper,127.0,127.0,200.0,125.0,125.0,200.0,3,1.861469030380249,None,,,,,0,0,0,0,0,91,91,53,300.68305945396423,,,,,,,,,,,,,,,,,,,,,,,,,,,,,,,,,,,,,,,,,,,,,,,,,,,,,,,,,,,,,,,,,,,,,,,,,,,,,,,,,127.0,127.0,200.0,125.0,125.0,200.0,4.0,4.1,-222,-276,0,19,258,-265,300.6684250831604,300.6685516834259,300.671914100647,300.68305945396423,300.8202917575836,300.8202917575836,300.8202917575836,300.8202917575836,300.8202917575836,300.8202917575836,300.8202917575836,302.54666566848755,3,1.861469030380249,None,,,,,,,,,,,,,,,,,,156,1,2025-02-28_10h55.11.200,comp,2024.2.4,55.164692946691154,2025-02-28 10h55.22.216639 -0500,
92,92,0,filler_random,None,None,None,None,None,None,None,None,None,None,3,1.1683313846588135,None,,,,,0,0,0,0,0,92,92,164,302.5623185634613,,,,,,,,,,,,,,,,,,,,,,,,,,,,,,,,,,,,,,,,,,,,,,,,,,,,,,,,,,,,,,,,,,,,,,,,,,,,,,,,,109.78154954126481,62.17580741026613,155.01742340692334,110.40465080680025,150.69028726025726,191.09781854211369,2.2,2.21,-182,-288,0,266,247,279,302.54838252067566,302.54846262931824,302.55132699012756,302.5623185634613,302.70637559890747,302.70637559890747,302.70637559890747,302.70637559890747,302.70637559890747,302.70637559890747,302.70637559890747,303.74109530448914,3,1.1683313846588135,None,,,,,,,,,,,,,,,,,,156,1,2025-02-28_10h55.11.200,comp,2024.2.4,55.164692946691154,2025-02-28 10h55.22.216639 -0500,
93,93,0,critical,hwd,20.0,4.0,upper,200.0,125.0,125.0,200.0,141.0,141.0,2,1.9151890277862549,None,,,,,0,0,0,0,0,93,93,107,303.7570323944092,,,,,,,,,,,,,,,,,,,,,,,,,,,,,,,,,,,,,,,,,,,,,,,,,,,,,,,,,,,,,,,,,,,,,,,,,,,,,,,,,200.0,125.0,125.0,200.0,141.0,141.0,4.0,4.2,-258,-2,0,-262,266,-3,303.74283957481384,303.7429242134094,303.7461676597595,303.7570323944092,303.9056487083435,303.9056487083435,303.9056487083435,303.9056487083435,303.9056487083435,303.9056487083435,303.9056487083435,305.68796014785767,2,1.9151890277862549,None,,,,,,,,,,,,,,,,,,156,1,2025-02-28_10h55.11.200,comp,2024.2.4,55.164692946691154,2025-02-28 10h55.22.216639 -0500,
94,94,0,filler_random,None,None,None,None,None,None,None,None,None,None,3,1.448688268661499,None,,,,,0,0,0,0,0,94,94,161,305.70436692237854,,,,,,,,,,,,,,,,,,,,,,,,,,,,,,,,,,,,,,,,,,,,,,,,,,,,,,,,,,,,,,,,,,,,,,,,,,,,,,,,,127.1292786924456,151.91366954165633,119.03281543407833,60.63207993060092,183.91662936543733,164.65233360079893,4.0,4.1,-202,-273,0,2,209,-280,305.6896462440491,305.6897237300873,305.6929097175598,305.70436692237854,305.84430718421936,305.84430718421936,305.84430718421936,305.84430718421936,305.84430718421936,305.84430718421936,305.84430718421936,307.16105246543884,3,1.448688268661499,None,,,,,,,,,,,,,,,,,,156,1,2025-02-28_10h55.11.200,comp,2024.2.4,55.164692946691154,2025-02-28 10h55.22.216639 -0500,
95,95,0,critical,whd,35.0,2.1,upper,125.0,200.0,200.0,125.0,127.0,127.0,1,1.8083417415618896,None,,,,,0,0,0,0,0,95,95,37,307.1767876148224,,,,,,,,,,,,,,,,,,,,,,,,,,,,,,,,,,,,,,,,,,,,,,,,,,,,,,,,,,,,,,,,,,,,,,,,,,,,,,,,,125.0,200.0,200.0,125.0,127.0,127.0,2.1,2.12,-258,-283,0,-251,222,272,307.1627788543701,307.16286730766296,307.1663019657135,307.1767876148224,307.323611497879,307.323611497879,307.323611497879,307.323611497879,307.323611497879,307.323611497879,307.323611497879,308.99111223220825,1,1.8083417415618896,None,,,,,,,,,,,,,,,,,,156,1,2025-02-28_10h55.11.200,comp,2024.2.4,55.164692946691154,2025-02-28 10h55.22.216639 -0500,
96,96,0,critical,hdw,35.0,2.1,lower,133.0,57.0,70.0,70.0,57.0,133.0,3,3.184896469116211,None,,,,,0,0,0,0,0,96,96,20,309.0075376033783,,,,,,,,,,,,,,,,,,,,,,,,,,,,,,,,,,,,,,,,,,,,,,,,,,,,,,,,,,,,,,,,,,,,,,,,,,,,,,,,,133.0,57.0,70.0,70.0,57.0,133.0,2.1,2.12,-160,-274,0,-265,198,265,308.9926562309265,308.9927387237549,308.9967448711395,309.0075376033783,309.15705847740173,309.15705847740173,309.15705847740173,309.15705847740173,309.15705847740173,309.15705847740173,309.15705847740173,312.19717621803284,3,3.184896469116211,None,,,,,,,,,,,,,,,,,,156,1,2025-02-28_10h55.11.200,comp,2024.2.4,55.164692946691154,2025-02-28 10h55.22.216639 -0500,
97,97,0,critical,dwh,35.0,3.0,upper,127.0,127.0,125.0,200.0,200.0,125.0,2,2.262683391571045,None,,,,,0,0,0,0,0,97,97,63,312.21754479408264,,,,,,,,,,,,,,,,,,,,,,,,,,,,,,,,,,,,,,,,,,,,,,,,,,,,,,,,,,,,,,,,,,,,,,,,,,,,,,,,,127.0,127.0,125.0,200.0,200.0,125.0,3.0,3.2,-260,-257,0,19,258,259,312.19874691963196,312.19885420799255,312.20206594467163,312.21754479408264,312.35881185531616,312.35881185531616,312.35881185531616,312.35881185531616,312.35881185531616,312.35881185531616,312.35881185531616,314.49059557914734,2,2.262683391571045,None,,,,,,,,,,,,,,,,,,156,1,2025-02-28_10h55.11.200,comp,2024.2.4,55.164692946691154,2025-02-28 10h55.22.216639 -0500,
98,98,0,critical,whd,35.0,4.0,upper,125.0,200.0,200.0,125.0,127.0,127.0,1,1.4697575569152832,None,,,,,0,0,0,0,0,98,98,89,314.50721287727356,,,,,,,,,,,,,,,,,,,,,,,,,,,,,,,,,,,,,,,,,,,,,,,,,,,,,,,,,,,,,,,,,,,,,,,,,,,,,,,,,125.0,200.0,200.0,125.0,127.0,127.0,4.0,4.1,-258,-260,0,6,222,-259,314.4921271800995,314.4922082424164,314.49521827697754,314.50721287727356,314.64685916900635,314.64685916900635,314.64685916900635,314.64685916900635,314.64685916900635,314.64685916900635,314.64685916900635,315.98340702056885,1,1.4697575569152832,None,,,,,,,,,,,,,,,,,,156,1,2025-02-28_10h55.11.200,comp,2024.2.4,55.164692946691154,2025-02-28 10h55.22.216639 -0500,
99,99,0,filler_random,None,None,None,None,None,None,None,None,None,None,2,1.8529307842254639,None,,,,,0,0,0,0,0,99,99,136,316.003381729126,,,,,,,,,,,,,,,,,,,,,,,,,,,,,,,,,,,,,,,,,,,,,,,,,,,,,,,,,,,,,,,,,,,,,,,,,,,,,,,,,105.45244368158401,134.8606600764087,91.75109184164361,186.60854388538905,119.32546361721074,146.14506051205984,2.1,2.11,-257,281,0,287,262,-286,315.9851863384247,315.98532152175903,315.98864221572876,316.003381729126,316.1449580192566,316.1449580192566,316.1449580192566,316.1449580192566,316.1449580192566,316.1449580192566,316.1449580192566,317.8711678981781,2,1.8529307842254639,None,,,,,,,,,,,,,,,,,,156,1,2025-02-28_10h55.11.200,comp,2024.2.4,55.164692946691154,2025-02-28 10h55.22.216639 -0500,
100,100,0,filler_square,None,None,None,None,None,None,None,None,None,None,2,1.6643989086151123,None,,,,,0,0,0,0,0,100,100,203,317.8878917694092,,,,,,,,,,,,,,,,,,,,,,,,,,,,,,,,,,,,,,,,,,,,,,,,,,,,,,,,,,,,,,,,,,,,,,,,,,,,,,,,,152.00862671192118,141.63244024540768,185.96233286840945,185.96233286840945,84.92540655815918,84.94340015907582,4.0,4.2,-260,13,0,-255,231,8,317.87305212020874,317.8731415271759,317.87631344795227,317.8878917694092,318.0272924900055,318.0272924900055,318.0272924900055,318.0272924900055,318.0272924900055,318.0272924900055,318.0272924900055,319.5719473361969,2,1.6643989086151123,None,,,,,,,,,,,,,,,,,,156,1,2025-02-28_10h55.11.200,comp,2024.2.4,55.164692946691154,2025-02-28 10h55.22.216639 -0500,
101,101,0,filler_random,None,None,None,None,None,None,None,None,None,None,2,1.3230221271514893,None,,,,,0,0,0,0,0,101,101,131,319.5892152786255,,,,,,,,,,,,,,,,,,,,,,,,,,,,,,,,,,,,,,,,,,,,,,,,,,,,,,,,,,,,,,,,,,,,,,,,,,,,,,,,,97.13211049205734,101.31051036620394,134.46688832621192,167.29571458960893,64.09508487198786,177.93473462946824,3.0,3.1,-230,253,0,-9,269,-266,319.57359528541565,319.5736753940582,319.57658076286316,319.5892152786255,319.72754645347595,319.72754645347595,319.72754645347595,319.72754645347595,319.72754645347595,319.72754645347595,319.72754645347595,320.92728424072266,2,1.3230221271514893,None,,,,,,,,,,,,,,,,,,156,1,2025-02-28_10h55.11.200,comp,2024.2.4,55.164692946691154,2025-02-28 10h55.22.216639 -0500,
102,102,0,filler_square,None,None,None,None,None,None,None,None,None,None,3,1.1618688106536865,None,,,,,0,0,0,0,0,102,102,180,320.9430549144745,,,,,,,,,,,,,,,,,,,,,,,,,,,,,,,,,,,,,,,,,,,,,,,,,,,,,,,,,,,,,,,,,,,,,,,,,,,,,,,,,116.2332104545197,60.28512745761948,106.01229577031926,122.48675535498818,171.84784504612176,171.84784504612176,3.0,3.1,-187,287,0,-12,243,-254,320.92909574508667,320.9291732311249,320.9326026439667,320.9430549144745,321.0916931629181,321.0916931629181,321.0916931629181,321.0916931629181,321.0916931629181,321.0916931629181,321.0916931629181,322.1113829612732,3,1.1618688106536865,None,,,,,,,,,,,,,,,,,,156,1,2025-02-28_10h55.11.200,comp,2024.2.4,55.164692946691154,2025-02-28 10h55.22.216639 -0500,
103,103,0,critical,wdh,20.0,3.0,upper,125.0,200.0,141.0,141.0,200.0,125.0,1,1.7533247470855713,None,,,,,0,0,0,0,0,103,103,81,322.12715244293213,,,,,,,,,,,,,,,,,,,,,,,,,,,,,,,,,,,,,,,,,,,,,,,,,,,,,,,,,,,,,,,,,,,,,,,,,,,,,,,,,125.0,200.0,141.0,141.0,200.0,125.0,3.0,3.2,-266,-281,0,-10,229,287,322.11286973953247,322.11295104026794,322.116295337677,322.12715244293213,322.2776381969452,322.2776381969452,322.2776381969452,322.2776381969452,322.2776381969452,322.2776381969452,322.2776381969452,323.8949673175812,1,1.7533247470855713,None,,,,,,,,,,,,,,,,,,156,1,2025-02-28_10h55.11.200,comp,2024.2.4,55.164692946691154,2025-02-28 10h55.22.216639 -0500,
104,104,0,critical,whd,35.0,4.0,lower,57.0,133.0,133.0,57.0,70.0,70.0,1,2.8740973472595215,None,,,,,0,0,0,0,0,104,104,88,323.910728931427,,,,,,,,,,,,,,,,,,,,,,,,,,,,,,,,,,,,,,,,,,,,,,,,,,,,,,,,,,,,,,,,,,,,,,,,,,,,,,,,,57.0,133.0,133.0,57.0,70.0,70.0,4.0,4.2,-191,-19,0,-274,160,-16,323.8966016769409,323.8967320919037,323.90026330947876,323.910728931427,324.06632947921753,324.06632947921753,324.06632947921753,324.06632947921753,324.06632947921753,324.06632947921753,324.06632947921753,326.7935769557953,1,2.8740973472595215,None,,,,,,,,,,,,,,,,,,156,1,2025-02-28_10h55.11.200,comp,2024.2.4,55.164692946691154,2025-02-28 10h55.22.216639 -0500,
105,105,0,filler_square,None,None,None,None,None,None,None,None,None,None,3,1.7904384136199951,None,,,,,0,0,0,0,0,105,105,195,326.80993008613586,,,,,,,,,,,,,,,,,,,,,,,,,,,,,,,,,,,,,,,,,,,,,,,,,,,,,,,,,,,,,,,,,,,,,,,,,,,,,,,,,104.00703152165087,96.04185579309714,123.43554289238597,123.39654616681692,174.54435107784673,174.54435107784673,2.1,2.11,-206,256,0,285,245,-250,326.795289516449,326.79536747932434,326.79816365242004,326.80993008613586,326.94589495658875,326.94589495658875,326.94589495658875,326.94589495658875,326.94589495658875,326.94589495658875,326.94589495658875,328.61690163612366,3,1.7904384136199951,None,,,,,,,,,,,,,,,,,,156,1,2025-02-28_10h55.11.200,comp,2024.2.4,55.164692946691154,2025-02-28 10h55.22.216639 -0500,
106,106,0,filler_random,None,None,None,None,None,None,None,None,None,None,2,1.9201998710632324,None,,,,,0,0,0,0,0,106,106,167,328.6329131126404,,,,,,,,,,,,,,,,,,,,,,,,,,,,,,,,,,,,,,,,,,,,,,,,,,,,,,,,,,,,,,,,,,,,,,,,,,,,,,,,,150.74492816835948,110.93014180964006,188.05763597947555,113.09520940013991,180.1036682541892,107.52328735790803,4.0,4.2,-208,19,0,-279,206,-2,328.6186456680298,328.6187229156494,328.62252044677734,328.6329131126404,328.7778537273407,328.7778537273407,328.7778537273407,328.7778537273407,328.7778537273407,328.7778537273407,328.7778537273407,330.5699508190155,2,1.9201998710632324,None,,,,,,,,,,,,,,,,,,156,1,2025-02-28_10h55.11.200,comp,2024.2.4,55.164692946691154,2025-02-28 10h55.22.216639 -0500,
107,107,0,filler_random,None,None,None,None,None,None,None,None,None,None,1,1.4831109046936035,None,,,,,0,0,0,0,0,107,107,130,330.5897877216339,,,,,,,,,,,,,,,,,,,,,,,,,,,,,,,,,,,,,,,,,,,,,,,,,,,,,,,,,,,,,,,,,,,,,,,,,,,,,,,,,177.64070191113098,162.50736830712992,178.4521906972686,73.98261774771342,110.8763994120624,141.15929487494645,2.1,2.12,-214,-268,0,-273,204,279,330.57161259651184,330.5716931819916,330.57456612586975,330.5897877216339,330.7303502559662,330.7303502559662,330.7303502559662,330.7303502559662,330.7303502559662,330.7303502559662,330.7303502559662,332.0779118537903,1,1.4831109046936035,None,,,,,,,,,,,,,,,,,,156,1,2025-02-28_10h55.11.200,comp,2024.2.4,55.164692946691154,2025-02-28 10h55.22.216639 -0500,
108,108,0,filler_random,None,None,None,None,None,None,None,None,None,None,3,2.151250123977661,None,,,,,0,0,0,0,0,108,108,148,332.09724283218384,,,,,,,,,,,,,,,,,,,,,,,,,,,,,,,,,,,,,,,,,,,,,,,,,,,,,,,,,,,,,,,,,,,,,,,,,,,,,,,,,71.15218986160028,186.95060128206177,121.13695837890216,62.43483728081497,64.39327135297476,190.74882386304205,4.0,4.1,-221,-257,0,3,223,-265,332.079594373703,332.07967472076416,332.08253264427185,332.09724283218384,332.2318596839905,332.2318596839905,332.2318596839905,332.2318596839905,332.2318596839905,332.2318596839905,332.2318596839905,334.26480531692505,3,2.151250123977661,None,,,,,,,,,,,,,,,,,,156,1,2025-02-28_10h55.11.200,comp,2024.2.4,55.164692946691154,2025-02-28 10h55.22.216639 -0500,
109,109,0,filler_square,None,None,None,None,None,None,None,None,None,None,2,1.326286792755127,None,,,,,0,0,0,0,0,109,109,205,334.2819802761078,,,,,,,,,,,,,,,,,,,,,,,,,,,,,,,,,,,,,,,,,,,,,,,,,,,,,,,,,,,,,,,,,,,,,,,,,,,,,,,,,61.535120656512944,63.508809636205655,75.74754365641714,75.74754365641714,65.74155127301958,60.45496298651629,4.0,4.1,-166,-265,0,-4,164,-264,334.2669155597687,334.2669954299927,334.2706937789917,334.2819802761078,334.4308626651764,334.4308626651764,334.4308626651764,334.4308626651764,334.4308626651764,334.4308626651764,334.4308626651764,335.618412733078,2,1.326286792755127,None,,,,,,,,,,,,,,,,,,156,1,2025-02-28_10h55.11.200,comp,2024.2.4,55.164692946691154,2025-02-28 10h55.22.216639 -0500,
110,110,0,filler_random,None,None,None,None,None,None,None,None,None,None,1,1.3405125141143799,None,,,,,0,0,0,0,0,110,110,138,335.63572001457214,,,,,,,,,,,,,,,,,,,,,,,,,,,,,,,,,,,,,,,,,,,,,,,,,,,,,,,,,,,,,,,,,,,,,,,,,,,,,,,,,161.12972916056043,172.88995554917875,62.96945719761016,85.54531116936505,143.14563572428983,141.41076242319812,2.2,2.22,-225,276,0,-275,209,-279,335.6204926967621,335.6205778121948,335.62394404411316,335.63572001457214,335.78857922554016,335.78857922554016,335.78857922554016,335.78857922554016,335.78857922554016,335.78857922554016,335.78857922554016,336.99015259742737,1,1.3405125141143799,None,,,,,,,,,,,,,,,,,,156,1,2025-02-28_10h55.11.200,comp,2024.2.4,55.164692946691154,2025-02-28 10h55.22.216639 -0500,
111,111,0,critical,hwd,35.0,1.0,lower,133.0,57.0,57.0,133.0,70.0,70.0,1,2.568117380142212,None,,,,,0,0,0,0,0,111,111,96,337.00903153419495,,,,,,,,,,,,,,,,,,,,,,,,,,,,,,,,,,,,,,,,,,,,,,,,,,,,,,,,,,,,,,,,,,,,,,,,,,,,,,,,,133.0,57.0,57.0,133.0,70.0,70.0,1.0,1.2,-191,-16,0,-1,198,15,336.9915928840637,336.9916732311249,336.9945476055145,337.00903153419495,337.14970231056213,337.14970231056213,337.14970231056213,337.14970231056213,337.14970231056213,337.14970231056213,337.14970231056213,339.58360052108765,1,2.568117380142212,None,,,,,,,,,,,,,,,,,,156,1,2025-02-28_10h55.11.200,comp,2024.2.4,55.164692946691154,2025-02-28 10h55.22.216639 -0500,
112,112,0,critical,hwd,20.0,2.1,lower,133.0,57.0,57.0,133.0,78.0,78.0,1,1.281381607055664,None,,,,,0,0,0,0,0,112,112,42,339.59986639022827,,,,,,,,,,,,,,,,,,,,,,,,,,,,,,,,,,,,,,,,,,,,,,,,,,,,,,,,,,,,,,,,,,,,,,,,,,,,,,,,,133.0,57.0,57.0,133.0,78.0,78.0,2.1,2.12,-191,-273,0,-268,202,290,339.5852029323578,339.58529806137085,339.5889129638672,339.59986639022827,339.7564308643341,339.7564308643341,339.7564308643341,339.7564308643341,339.7564308643341,339.7564308643341,339.7564308643341,340.88493156433105,1,1.281381607055664,None,,,,,,,,,,,,,,,,,,156,1,2025-02-28_10h55.11.200,comp,2024.2.4,55.164692946691154,2025-02-28 10h55.22.216639 -0500,
113,113,0,critical,wdh,35.0,2.1,lower,57.0,133.0,70.0,70.0,133.0,57.0,3,2.2281417846679688,None,,,,,0,0,0,0,0,113,113,32,340.90082454681396,,,,,,,,,,,,,,,,,,,,,,,,,,,,,,,,,,,,,,,,,,,,,,,,,,,,,,,,,,,,,,,,,,,,,,,,,,,,,,,,,57.0,133.0,70.0,70.0,133.0,57.0,2.1,2.11,-198,269,0,290,160,-269,340.8864905834198,340.8865897655487,340.88994002342224,340.90082454681396,341.0425133705139,341.0425133705139,341.0425133705139,341.0425133705139,341.0425133705139,341.0425133705139,341.0425133705139,343.13472723960876,3,2.2281417846679688,None,,,,,,,,,,,,,,,,,,156,1,2025-02-28_10h55.11.200,comp,2024.2.4,55.164692946691154,2025-02-28 10h55.22.216639 -0500,
114,114,0,filler_square,None,None,None,None,None,None,None,None,None,None,1,2.0413193702697754,None,,,,,0,0,0,0,0,114,114,194,343.1509611606598,,,,,,,,,,,,,,,,,,,,,,,,,,,,,,,,,,,,,,,,,,,,,,,,,,,,,,,,,,,,,,,,,,,,,,,,,,,,,,,,,96.43310852393014,96.43310852393014,77.92730225426826,68.82039391568225,66.5521230437461,86.043278723441,2.2,2.21,-179,-265,0,283,173,264,343.13653016090393,343.1366627216339,343.14002776145935,343.1509611606598,343.3023452758789,343.3023452758789,343.3023452758789,343.3023452758789,343.3023452758789,343.3023452758789,343.3023452758789,345.2028319835663,1,2.0413193702697754,None,,,,,,,,,,,,,,,,,,156,1,2025-02-28_10h55.11.200,comp,2024.2.4,55.164692946691154,2025-02-28 10h55.22.216639 -0500,
115,115,0,critical,dwh,20.0,2.1,lower,78.0,78.0,57.0,133.0,133.0,57.0,3,3.109646797180176,None,,,,,0,0,0,0,0,115,115,30,345.2186453342438,,,,,,,,,,,,,,,,,,,,,,,,,,,,,,,,,,,,,,,,,,,,,,,,,,,,,,,,,,,,,,,,,,,,,,,,,,,,,,,,,78.0,78.0,57.0,133.0,133.0,57.0,2.1,2.11,-202,270,0,280,191,-268,345.2043387889862,345.2044200897217,345.20760464668274,345.2186453342438,345.3688223361969,345.3688223361969,345.3688223361969,345.3688223361969,345.3688223361969,345.3688223361969,345.3688223361969,348.33748149871826,3,3.109646797180176,None,,,,,,,,,,,,,,,,,,156,1,2025-02-28_10h55.11.200,comp,2024.2.4,55.164692946691154,2025-02-28 10h55.22.216639 -0500,
116,116,0,critical,dwh,20.0,2.1,lower,78.0,78.0,57.0,133.0,133.0,57.0,3,2.879305362701416,None,,,,,0,0,0,0,0,116,116,6,348.3530740737915,,,,,,,,,,,,,,,,,,,,,,,,,,,,,,,,,,,,,,,,,,,,,,,,,,,,,,,,,,,,,,,,,,,,,,,,,,,,,,,,,78.0,78.0,57.0,133.0,133.0,57.0,2.1,2.12,-202,-257,0,-268,191,286,348.33894658088684,348.3390419483185,348.3422477245331,348.3530740737915,348.49445366859436,348.49445366859436,348.49445366859436,348.49445366859436,348.49445366859436,348.49445366859436,348.49445366859436,351.2429893016815,3,2.879305362701416,None,,,,,,,,,,,,,,,,,,156,1,2025-02-28_10h55.11.200,comp,2024.2.4,55.164692946691154,2025-02-28 10h55.22.216639 -0500,
117,117,0,filler_square,None,None,None,None,None,None,None,None,None,None,3,1.0589790344238281,None,,,,,0,0,0,0,0,117,117,199,351.26130723953247,,,,,,,,,,,,,,,,,,,,,,,,,,,,,,,,,,,,,,,,,,,,,,,,,,,,,,,,,,,,,,,,,,,,,,,,,,,,,,,,,154.69088855440415,73.92925915884801,151.81435385831622,116.0324753660413,177.46744331337206,177.46744331337206,4.0,4.1,-191,-289,0,15,243,-270,351.24483013153076,351.24491262435913,351.2478175163269,351.26130723953247,351.40046548843384,351.40046548843384,351.40046548843384,351.40046548843384,351.40046548843384,351.40046548843384,351.40046548843384,352.33722496032715,3,1.0589790344238281,None,,,,,,,,,,,,,,,,,,156,1,2025-02-28_10h55.11.200,comp,2024.2.4,55.164692946691154,2025-02-28 10h55.22.216639 -0500,
118,118,0,critical,dwh,20.0,2.1,upper,141.0,141.0,125.0,200.0,200.0,125.0,2,1.3757941722869873,None,,,,,0,0,0,0,0,118,118,7,352.3525390625,,,,,,,,,,,,,,,,,,,,,,,,,,,,,,,,,,,,,,,,,,,,,,,,,,,,,,,,,,,,,,,,,,,,,,,,,,,,,,,,,141.0,141.0,125.0,200.0,200.0,125.0,2.1,2.12,-266,-257,0,-288,258,263,352.3387825489044,352.3388674259186,352.3421673774719,352.3525390625,352.50744009017944,352.50744009017944,352.50744009017944,352.50744009017944,352.50744009017944,352.50744009017944,352.50744009017944,353.7428505420685,2,1.3757941722869873,None,,,,,,,,,,,,,,,,,,156,1,2025-02-28_10h55.11.200,comp,2024.2.4,55.164692946691154,2025-02-28 10h55.22.216639 -0500,
119,119,0,critical,dhw,35.0,2.1,upper,127.0,127.0,200.0,125.0,125.0,200.0,3,1.9619286060333252,None,,,,,0,0,0,0,0,119,119,1,353.7584455013275,,,,,,,,,,,,,,,,,,,,,,,,,,,,,,,,,,,,,,,,,,,,,,,,,,,,,,,,,,,,,,,,,,,,,,,,,,,,,,,,,127.0,127.0,200.0,125.0,125.0,200.0,2.1,2.11,-222,280,0,270,258,-269,353.7442948818207,353.7443685531616,353.7472195625305,353.7584455013275,353.90497875213623,353.90497875213623,353.90497875213623,353.90497875213623,353.90497875213623,353.90497875213623,353.90497875213623,355.7380316257477,3,1.9619286060333252,None,,,,,,,,,,,,,,,,,,156,1,2025-02-28_10h55.11.200,comp,2024.2.4,55.164692946691154,2025-02-28 10h55.22.216639 -0500,
120,120,0,critical,hdw,20.0,4.0,lower,133.0,57.0,78.0,78.0,57.0,133.0,1,3.1344006061553955,None,,,,,0,0,0,0,0,120,120,118,355.75384521484375,,,,,,,,,,,,,,,,,,,,,,,,,,,,,,,,,,,,,,,,,,,,,,,,,,,,,,,,,,,,,,,,,,,,,,,,,,,,,,,,,133.0,57.0,78.0,78.0,57.0,133.0,4.0,4.2,-164,15,0,-263,202,-2,355.7394800186157,355.73955512046814,355.74247670173645,355.75384521484375,355.89418601989746,355.89418601989746,355.89418601989746,355.89418601989746,355.89418601989746,355.89418601989746,355.89418601989746,358.904376745224,1,3.1344006061553955,None,,,,,,,,,,,,,,,,,,156,1,2025-02-28_10h55.11.200,comp,2024.2.4,55.164692946691154,2025-02-28 10h55.22.216639 -0500,
121,121,0,catch,None,None,None,None,None,None,None,None,None,None,3,1.530639886856079,None,,,,,0,0,0,0,0,121,121,125,358.9204158782959,,,,,,,,,,,,,,,,,,,,,,,,,,,,,,,,,,,,,,,,,,,,,,,,,,,,,,,,,,,,,,,,,,,,,,,,,,,,,,,,,97,93,80,110,141,184,1.0,1.1,-678,274,-480,268,-237,264,358.90617394447327,358.9062490463257,358.9091522693634,358.9204158782959,359.0738670825958,359.0738670825958,359.0738670825958,359.0738670825958,359.0738670825958,359.0738670825958,359.0738670825958,360.45717549324036,3,1.530639886856079,None,,,,,,,,,,,,,,,,,,156,1,2025-02-28_10h55.11.200,comp,2024.2.4,55.164692946691154,2025-02-28 10h55.22.216639 -0500,
122,122,0,filler_random,None,None,None,None,None,None,None,None,None,None,2,1.5583269596099854,None,,,,,0,0,0,0,0,122,122,159,360.4763424396515,,,,,,,,,,,,,,,,,,,,,,,,,,,,,,,,,,,,,,,,,,,,,,,,,,,,,,,,,,,,,,,,,,,,,,,,,,,,,,,,,136.4107692214075,160.44933979493933,139.53979013842786,192.8819675893191,123.43532625749069,195.0958972052919,1.0,1.1,-753,260,-480,278,-190,284,360.45896458625793,360.45909357070923,360.4625520706177,360.4763424396515,360.62617015838623,360.62617015838623,360.62617015838623,360.62617015838623,360.62617015838623,360.62617015838623,360.62617015838623,362.04120230674744,2,1.5583269596099854,None,,,,,,,,,,,,,,,,,,156,1,2025-02-28_10h55.11.200,comp,2024.2.4,55.164692946691154,2025-02-28 10h55.22.216639 -0500,
123,123,0,filler_square,None,None,None,None,None,None,None,None,None,None,2,1.076138973236084,None,,,,,0,0,0,0,0,123,123,206,362.0608570575714,,,,,,,,,,,,,,,,,,,,,,,,,,,,,,,,,,,,,,,,,,,,,,,,,,,,,,,,,,,,,,,,,,,,,,,,,,,,,,,,,111.79277165241768,69.72854203626946,119.24567772117867,119.24567772117867,67.76040071876412,75.08737675129848,2.1,2.12,-190,-271,0,-285,193,274,362.04294896125793,362.04302954673767,362.0461525917053,362.0608570575714,362.2081437110901,362.2081437110901,362.2081437110901,362.2081437110901,362.2081437110901,362.2081437110901,362.2081437110901,363.1399710178375,2,1.076138973236084,None,,,,,,,,,,,,,,,,,,156,1,2025-02-28_10h55.11.200,comp,2024.2.4,55.164692946691154,2025-02-28 10h55.22.216639 -0500,
124,124,0,critical,hdw,35.0,3.0,lower,133.0,57.0,70.0,70.0,57.0,133.0,1,1.6838641166687012,None,,,,,0,0,0,0,0,124,124,110,363.1571135520935,,,,,,,,,,,,,,,,,,,,,,,,,,,,,,,,,,,,,,,,,,,,,,,,,,,,,,,,,,,,,,,,,,,,,,,,,,,,,,,,,133.0,57.0,70.0,70.0,57.0,133.0,3.0,3.1,-160,257,0,18,198,-287,363.14164185523987,363.1417360305786,363.145361661911,363.1571135520935,363.3138954639435,363.3138954639435,363.3138954639435,363.3138954639435,363.3138954639435,363.3138954639435,363.3138954639435,364.8458731174469,1,1.6838641166687012,None,,,,,,,,,,,,,,,,,,156,1,2025-02-28_10h55.11.200,comp,2024.2.4,55.164692946691154,2025-02-28 10h55.22.216639 -0500,
125,125,0,filler_random,None,None,None,None,None,None,None,None,None,None,2,2.0581047534942627,None,,,,,0,0,0,0,0,125,125,151,364.8622877597809,,,,,,,,,,,,,,,,,,,,,,,,,,,,,,,,,,,,,,,,,,,,,,,,,,,,,,,,,,,,,,,,,,,,,,,,,,,,,,,,,195.09060784129557,87.23077809890958,160.99970088168976,181.05506993257166,86.44380418351058,129.96588970886242,1.0,1.3,250,-252,480,-256,732,-283,364.84759068489075,364.84767293930054,364.8515133857727,364.8622877597809,365.00802969932556,365.00802969932556,365.00802969932556,365.00802969932556,365.00802969932556,365.00802969932556,365.00802969932556,366.93145394325256,2,2.0581047534942627,None,,,,,,,,,,,,,,,,,,156,1,2025-02-28_10h55.11.200,comp,2024.2.4,55.164692946691154,2025-02-28 10h55.22.216639 -0500,
126,126,0,filler_square,None,None,None,None,None,None,None,None,None,None,2,1.19549560546875,None,,,,,0,0,0,0,0,126,126,172,366.94943356513977,,,,,,,,,,,,,,,,,,,,,,,,,,,,,,,,,,,,,,,,,,,,,,,,,,,,,,,,,,,,,,,,,,,,,,,,,,,,,,,,,84.11081803589325,67.09228780173385,92.69209279462703,92.69209279462703,90.32782668887444,79.00279857186922,3.0,3.1,-176,274,0,14,182,-280,366.93322920799255,366.93331146240234,366.9362461566925,366.94943356513977,367.09009313583374,367.09009313583374,367.09009313583374,367.09009313583374,367.09009313583374,367.09009313583374,367.09009313583374,368.15244364738464,2,1.19549560546875,None,,,,,,,,,,,,,,,,,,156,1,2025-02-28_10h55.11.200,comp,2024.2.4,55.164692946691154,2025-02-28 10h55.22.216639 -0500,
127,127,0,critical,dhw,20.0,3.0,lower,78.0,78.0,133.0,57.0,57.0,133.0,2,1.2275607585906982,None,,,,,0,0,0,0,0,127,127,56,368.1727511882782,,,,,,,,,,,,,,,,,,,,,,,,,,,,,,,,,,,,,,,,,,,,,,,,,,,,,,,,,,,,,,,,,,,,,,,,,,,,,,,,,78.0,78.0,133.0,57.0,57.0,133.0,3.0,3.1,-164,277,0,11,191,-272,368.1539809703827,368.1540615558624,368.15696382522583,368.1727511882782,368.30912828445435,368.30912828445435,368.30912828445435,368.30912828445435,368.30912828445435,368.30912828445435,368.30912828445435,369.4114992618561,2,1.2275607585906982,None,,,,,,,,,,,,,,,,,,156,1,2025-02-28_10h55.11.200,comp,2024.2.4,55.164692946691154,2025-02-28 10h55.22.216639 -0500,
128,128,0,filler_random,None,None,None,None,None,None,None,None,None,None,1,1.1575868129730225,None,,,,,0,0,0,0,0,128,128,163,369.42723655700684,,,,,,,,,,,,,,,,,,,,,,,,,,,,,,,,,,,,,,,,,,,,,,,,,,,,,,,,,,,,,,,,,,,,,,,,,,,,,,,,,136.734758514177,184.10546023499802,77.78591796210036,103.46493542039804,84.67445337019153,72.41818710876628,2.1,2.11,-240,263,0,287,184,-251,369.4133586883545,369.41344237327576,369.4165279865265,369.42723655700684,369.57712054252625,369.57712054252625,369.57712054252625,369.57712054252625,369.57712054252625,369.57712054252625,369.57712054252625,370.5870611667633,1,1.1575868129730225,None,,,,,,,,,,,,,,,,,,156,1,2025-02-28_10h55.11.200,comp,2024.2.4,55.164692946691154,2025-02-28 10h55.22.216639 -0500,
129,129,0,critical,hdw,20.0,1.0,upper,200.0,125.0,141.0,141.0,125.0,200.0,1,2.380894422531128,None,,,,,0,0,0,0,0,129,129,115,370.6036114692688,,,,,,,,,,,,,,,,,,,,,,,,,,,,,,,,,,,,,,,,,,,,,,,,,,,,,,,,,,,,,,,,,,,,,,,,,,,,,,,,,200.0,125.0,141.0,141.0,125.0,200.0,1.0,1.3,251,-255,480,-280,746,-253,370.58864665031433,370.5887248516083,370.5920219421387,370.6036114692688,370.7438151836395,370.7438151836395,370.7438151836395,370.7438151836395,370.7438151836395,370.7438151836395,370.7438151836395,372.99628829956055,1,2.380894422531128,None,,,,,,,,,,,,,,,,,,156,1,2025-02-28_10h55.11.200,comp,2024.2.4,55.164692946691154,2025-02-28 10h55.22.216639 -0500,
130,130,0,critical,hdw,20.0,1.0,lower,133.0,57.0,78.0,78.0,57.0,133.0,1,1.2035486698150635,None,,,,,0,0,0,0,0,130,130,114,373.0130078792572,,,,,,,,,,,,,,,,,,,,,,,,,,,,,,,,,,,,,,,,,,,,,,,,,,,,,,,,,,,,,,,,,,,,,,,,,,,,,,,,,133.0,57.0,78.0,78.0,57.0,133.0,1.0,1.2,-164,-17,0,17,202,16,372.99798035621643,372.99806356430054,373.00191164016724,373.0130078792572,373.1616132259369,373.1616132259369,373.1616132259369,373.1616132259369,373.1616132259369,373.1616132259369,373.1616132259369,374.22036695480347,1,1.2035486698150635,None,,,,,,,,,,,,,,,,,,156,1,2025-02-28_10h55.11.200,comp,2024.2.4,55.164692946691154,2025-02-28 10h55.22.216639 -0500,
131,131,0,critical,whd,35.0,2.1,upper,125.0,200.0,200.0,125.0,127.0,127.0,1,1.7646911144256592,None,,,,,0,0,0,0,0,131,131,13,374.2366945743561,,,,,,,,,,,,,,,,,,,,,,,,,,,,,,,,,,,,,,,,,,,,,,,,,,,,,,,,,,,,,,,,,,,,,,,,,,,,,,,,,125.0,200.0,200.0,125.0,127.0,127.0,2.1,2.12,-258,-256,0,-268,222,272,374.22189116477966,374.22197127342224,374.22484850883484,374.2366945743561,374.378053188324,374.378053188324,374.378053188324,374.378053188324,374.378053188324,374.378053188324,374.378053188324,376.01274704933167,1,1.7646911144256592,None,,,,,,,,,,,,,,,,,,156,1,2025-02-28_10h55.11.200,comp,2024.2.4,55.164692946691154,2025-02-28 10h55.22.216639 -0500,
132,132,0,critical,wdh,20.0,1.0,lower,57.0,133.0,78.0,78.0,133.0,57.0,1,1.564000129699707,None,,,,,0,0,0,0,0,132,132,78,376.02898502349854,,,,,,,,,,,,,,,,,,,,,,,,,,,,,,,,,,,,,,,,,,,,,,,,,,,,,,,,,,,,,,,,,,,,,,,,,,,,,,,,,57.0,133.0,78.0,78.0,133.0,57.0,1.0,1.1,-682,276,-480,258,-316,271,376.0143401622772,376.01444697380066,376.01770401000977,376.02898502349854,376.1796598434448,376.1796598434448,376.1796598434448,376.1796598434448,376.1796598434448,376.1796598434448,376.1796598434448,377.59534788131714,1,1.564000129699707,None,,,,,,,,,,,,,,,,,,156,1,2025-02-28_10h55.11.200,comp,2024.2.4,55.164692946691154,2025-02-28 10h55.22.216639 -0500,
133,133,0,filler_square,None,None,None,None,None,None,None,None,None,None,1,1.7323198318481445,None,,,,,0,0,0,0,0,133,133,200,377.61212158203125,,,,,,,,,,,,,,,,,,,,,,,,,,,,,,,,,,,,,,,,,,,,,,,,,,,,,,,,,,,,,,,,,,,,,,,,,,,,,,,,,118.58738938763675,118.58738938763675,111.66953162456247,104.24429472839479,113.94969071508677,67.50323916157785,2.2,2.21,-207,-268,0,284,182,278,377.5971460342407,377.59722805023193,377.6013548374176,377.61212158203125,377.7622857093811,377.7622857093811,377.7622857093811,377.7622857093811,377.7622857093811,377.7622857093811,377.7622857093811,379.3463046550751,1,1.7323198318481445,None,,,,,,,,,,,,,,,,,,156,1,2025-02-28_10h55.11.200,comp,2024.2.4,55.164692946691154,2025-02-28 10h55.22.216639 -0500,
134,134,0,filler_random,None,None,None,None,None,None,None,None,None,None,2,1.5260906219482422,None,,,,,0,0,0,0,0,134,134,145,379.362854719162,,,,,,,,,,,,,,,,,,,,,,,,,,,,,,,,,,,,,,,,,,,,,,,,,,,,,,,,,,,,,,,,,,,,,,,,,,,,,,,,,129.86798358183535,148.54415750768968,148.25706148857978,162.0064282099546,97.89110427019395,146.00837761253155,1.0,1.2,-251,8,0,-8,250,15,379.3479690551758,379.34804677963257,379.3517050743103,379.362854719162,379.5135848522186,379.5135848522186,379.5135848522186,379.5135848522186,379.5135848522186,379.5135848522186,379.5135848522186,380.8982195854187,2,1.5260906219482422,None,,,,,,,,,,,,,,,,,,156,1,2025-02-28_10h55.11.200,comp,2024.2.4,55.164692946691154,2025-02-28 10h55.22.216639 -0500,
135,135,0,critical,wdh,35.0,1.0,lower,57.0,133.0,70.0,70.0,133.0,57.0,1,1.8174068927764893,None,,,,,0,0,0,0,0,135,135,72,380.91900396347046,,,,,,,,,,,,,,,,,,,,,,,,,,,,,,,,,,,,,,,,,,,,,,,,,,,,,,,,,,,,,,,,,,,,,,,,,,,,,,,,,57.0,133.0,70.0,70.0,133.0,57.0,1.0,1.3,282,-281,480,-261,640,-289,380.8998374938965,380.8999490737915,380.90327048301697,380.91900396347046,381.06402564048767,381.06402564048767,381.06402564048767,381.06402564048767,381.06402564048767,381.06402564048767,381.06402564048767,382.7476336956024,1,1.8174068927764893,None,,,,,,,,,,,,,,,,,,156,1,2025-02-28_10h55.11.200,comp,2024.2.4,55.164692946691154,2025-02-28 10h55.22.216639 -0500,
136,136,0,critical,dhw,35.0,3.0,upper,127.0,127.0,200.0,125.0,125.0,200.0,3,1.8774383068084717,None,,,,,0,0,0,0,0,136,136,51,382.76367950439453,,,,,,,,,,,,,,,,,,,,,,,,,,,,,,,,,,,,,,,,,,,,,,,,,,,,,,,,,,,,,,,,,,,,,,,,,,,,,,,,,127.0,127.0,200.0,125.0,125.0,200.0,3.0,3.2,-222,-289,0,8,258,283,382.74922251701355,382.7493007183075,382.75264024734497,382.76367950439453,382.91278409957886,382.91278409957886,382.91278409957886,382.91278409957886,382.91278409957886,382.91278409957886,382.91278409957886,384.6480453014374,3,1.8774383068084717,None,,,,,,,,,,,,,,,,,,156,1,2025-02-28_10h55.11.200,comp,2024.2.4,55.164692946691154,2025-02-28 10h55.22.216639 -0500,
137,137,0,critical,wdh,20.0,2.1,lower,57.0,133.0,78.0,78.0,133.0,57.0,1,1.3915858268737793,None,,,,,0,0,0,0,0,137,137,10,384.6647129058838,,,,,,,,,,,,,,,,,,,,,,,,,,,,,,,,,,,,,,,,,,,,,,,,,,,,,,,,,,,,,,,,,,,,,,,,,,,,,,,,,57.0,133.0,78.0,78.0,133.0,57.0,2.1,2.12,-202,-252,0,-268,164,255,384.6498155593872,384.6498980522156,384.65359139442444,384.6647129058838,384.8125433921814,384.8125433921814,384.8125433921814,384.8125433921814,384.8125433921814,384.8125433921814,384.8125433921814,386.06762742996216,1,1.3915858268737793,None,,,,,,,,,,,,,,,,,,156,1,2025-02-28_10h55.11.200,comp,2024.2.4,55.164692946691154,2025-02-28 10h55.22.216639 -0500,
138,138,0,critical,dhw,35.0,1.0,lower,70.0,70.0,133.0,57.0,57.0,133.0,2,1.452629804611206,None,,,,,0,0,0,0,0,138,138,48,386.0837302207947,,,,,,,,,,,,,,,,,,,,,,,,,,,,,,,,,,,,,,,,,,,,,,,,,,,,,,,,,,,,,,,,,,,,,,,,,,,,,,,,,70.0,70.0,133.0,57.0,57.0,133.0,1.0,1.2,-160,-20,0,6,191,8,386.06921648979187,386.0692982673645,386.07246804237366,386.0837302207947,386.23090505599976,386.23090505599976,386.23090505599976,386.23090505599976,386.23090505599976,386.23090505599976,386.23090505599976,387.5467252731323,2,1.452629804611206,None,,,,,,,,,,,,,,,,,,156,1,2025-02-28_10h55.11.200,comp,2024.2.4,55.164692946691154,2025-02-28 10h55.22.216639 -0500,
139,139,0,filler_square,None,None,None,None,None,None,None,None,None,None,3,1.8287324905395508,None,,,,,0,0,0,0,0,139,139,170,387.563898563385,,,,,,,,,,,,,,,,,,,,,,,,,,,,,,,,,,,,,,,,,,,,,,,,,,,,,,,,,,,,,,,,,,,,,,,,,,,,,,,,,61.88120227098237,59.758733507569126,68.28271730768917,60.26046186767989,81.54451651572717,81.54451651572717,2.1,2.12,-156,-262,0,-283,167,289,387.5487060546875,387.54882311820984,387.5520658493042,387.563898563385,387.7218105792999,387.7218105792999,387.7218105792999,387.7218105792999,387.7218105792999,387.7218105792999,387.7218105792999,389.3954107761383,3,1.8287324905395508,None,,,,,,,,,,,,,,,,,,156,1,2025-02-28_10h55.11.200,comp,2024.2.4,55.164692946691154,2025-02-28 10h55.22.216639 -0500,
