thisN,thisTrialN,thisRepN,effect,order,distance,config,diag,h_1,w_1,h_2,w_2,h_3,w_3,rect_choice.keys,rect_choice.rt,rect_choice.duration,instructions_loop.thisRepN,instructions_loop.thisTrialN,instructions_loop.thisN,instructions_loop.thisIndex,blocks.thisRepN,blocks.thisTrialN,blocks.thisN,blocks.thisIndex,trials.thisRepN,trials.thisTrialN,trials.thisN,trials.thisIndex,thisRow.t,notes,consent.started,agree_button.started,decline_button.started,consent_img.started,mouse.started,consent.stopped,agree_button.numClicks,agree_button.timesOn,agree_button.timesOff,decline_button.numClicks,decline_button.timesOn,decline_button.timesOff,mouse.x,mouse.y,mouse.leftButton,mouse.midButton,mouse.rightButton,mouse.time,mouse.clicked_name,exp_params.started,exp_params.stopped,welcome.started,welcome_text.started,welcome.stopped,instructions_1.started,instructions_1_text_1.started,instructions_1_text_2.started,key_resp.started,instructions_1.stopped,instructions_loop.key_resp.keys,instructions_loop.key_resp.rt,instructions_loop.key_resp.duration,instructions_2.started,instructions_2_text_1.started,instructions_2_text_2.started,key_resp_2.started,instructions_2.stopped,instructions_loop.key_resp_2.keys,instructions_loop.key_resp_2.rt,instructions_loop.key_resp_2.duration,instructions_3.started,instructions_3_text_1.started,r1_instr3.started,r2_instr3.started,r3_instr3.started,r1_instr3_label.started,r2_instr3_label.started,r3_instr3_label.started,instructions_3_text_3.started,instructions_3_text_4.started,key_resp_3.started,instructions_3.stopped,instructions_loop.key_resp_3.keys,instructions_loop.key_resp_3.rt,instructions_loop.key_resp_3.duration,instructions_4.started,instructions_4_text_1.started,instructions_4_text_3.started,instructions_4_text_2.started,key_resp_4.started,instructions_4.stopped,instructions_loop.key_resp_4.keys,instructions_loop.key_resp_4.rt,instructions_loop.key_resp_4.duration,instructions_5.started,instructions_5_text_1.started,instructions_5_text_2.started,key_resp_5.started,instructions_5.stopped,instructions_loop.key_resp_5.keys,instructions_loop.key_resp_5.rt,instructions_loop.key_resp_5.duration,start_exp.started,start_exp_text.started,key_resp_6.started,start_exp.stopped,key_resp_6.keys,key_resp_6.rt,key_resp_6.duration,h_1_tmp,w_1_tmp,h_2_tmp,w_2_tmp,h_3_tmp,w_3_tmp,config_tmp,config_tmp_1,r_1_x,r_1_y,r_2_x,r_2_y,r_3_x,r_3_y,pre_trial.started,pre_trial.stopped,choice_trial.started,rect_choice.started,r_1.started,r_2.started,r_3.started,r_1_label.started,r_2_label.started,r_3_label.started,prompt.started,choice_trial.stopped,trials.rect_choice.keys,trials.rect_choice.rt,trials.rect_choice.duration,end_block.started,end_block_text.started,end_block.stopped,end.started,end_text.started,key_resp_7.started,end.stopped,key_resp_7.keys,key_resp_7.rt,key_resp_7.duration,debriefing.started,debrief_form.started,end_debrief.started,debriefing.stopped,end_debrief.keys,end_debrief.rt,end_debrief.duration,participant,computer,date,expName,psychopyVersion,frameRate,expStart,
,,,,,,,,,,,,,,,,,,,,,,,,,,,,,,,0.014955759048461914,0.03745007514953613,0.03745007514953613,0.03745007514953613,0.01476287841796875,11.673730373382568,1,[11.633896589279175],[11.633947610855103],0,,,"[-186.0, -88.0]","[-501.0, -502.0]","[1, 1]","[0, 0]","[0, 0]","[11.276368379592896, 11.658391237258911]","[None, 'agree_button']",,,,,,,,,,,,,,,,,,,,,,,,,,,,,,,,,,,,,,,,,,,,,,,,,,,,,,,,,,,,,,,,,,,,,,,,,,,,,,,,,,,,,,,,,,,,,,,,,,,,,,,,,,,157,2,2025-02-28_10h58.51.586,comp,2024.2.4,None,2025-02-28 10h58.59.289184 -0500,
,,,,,,,,,,,,,,,,,,,,,,,,,,,,,,,,,,,,,,,,,,,,,,,,,,11.674306392669678,11.674370765686035,,,,,,,,,,,,,,,,,,,,,,,,,,,,,,,,,,,,,,,,,,,,,,,,,,,,,,,,,,,,,,,,,,,,,,,,,,,,,,,,,,,,,,,,,,,,,,,,,,,,,,,,,157,2,2025-02-28_10h58.51.586,comp,2024.2.4,None,2025-02-28 10h58.59.289184 -0500,
,,,,,,,,,,,,,,,,,,,,,,,,,,,,,,,,,,,,,,,,,,,,,,,,,,,,11.67443323135376,11.691796064376831,13.678476810455322,,,,,,,,,,,,,,,,,,,,,,,,,,,,,,,,,,,,,,,,,,,,,,,,,,,,,,,,,,,,,,,,,,,,,,,,,,,,,,,,,,,,,,,,,,,,,,,,,,,,,,157,2,2025-02-28_10h58.51.586,comp,2024.2.4,None,2025-02-28 10h58.59.289184 -0500,
0,0,0,,,,,,,,,,,,,,,0,0,0,0,,,,,,,,,13.69715142250061,,,,,,,,,,,,,,,,,,,,,,,,,,13.679383039474487,13.69715142250061,13.69715142250061,15.177051544189453,18.04405951499939,space,2.8628668785095215,None,18.044202089309692,18.06010603904724,18.06010603904724,19.54482913017273,21.229390382766724,space,1.6708717346191406,None,21.22956919670105,21.25848150253296,21.25848150253296,21.25848150253296,21.25848150253296,21.25848150253296,21.25848150253296,21.25848150253296,21.25848150253296,21.25848150253296,22.730997562408447,24.371134519577026,space,1.6286494731903076,None,24.37129259109497,24.38935160636902,24.38935160636902,24.38935160636902,25.8785617351532,26.26351833343506,space,0.36907100677490234,None,26.26366424560547,26.279281616210938,26.279281616210938,27.777852058410645,28.2656888961792,space,0.4858236312866211,None,28.265883445739746,28.28048300743103,28.28048300743103,29.149302005767822,space,0.8554654121398926,None,,,,,,,,,,,,,,,,,,,,,,,,,,,,,,,,,,,,,,,,,,,,,,,157,2,2025-02-28_10h58.51.586,comp,2024.2.4,None,2025-02-28 10h58.59.289184 -0500,
0,0,0,filler_square,None,None,None,None,None,None,None,None,None,None,2,2.251739263534546,None,,,,,0,0,0,0,0,0,0,187,29.22831416130066,,,,,,,,,,,,,,,,,,,,,,,,,,,,,,,,,,,,,,,,,,,,,,,,,,,,,,,,,,,,,,,,,,,,,,,,,,,,,,,,,105.93261958802864,124.44641446568362,124.6680874178614,124.6680874178614,112.92519505742432,82.44258792867579,3.0,3.2,-221,-261,0,-13,200,261,29.211823225021362,29.211865663528442,29.213497400283813,29.22831416130066,29.36934757232666,29.36934757232666,29.36934757232666,29.36934757232666,29.36934757232666,29.36934757232666,29.36934757232666,31.48493981361389,2,2.251739263534546,None,,,,,,,,,,,,,,,,,,157,2,2025-02-28_10h58.51.586,comp,2024.2.4,None,2025-02-28 10h58.59.289184 -0500,
1,1,0,critical,wdh,20.0,2.1,lower,57.0,133.0,78.0,78.0,133.0,57.0,1,2.3784573078155518,None,,,,,0,0,0,0,0,1,1,34,31.501894235610962,,,,,,,,,,,,,,,,,,,,,,,,,,,,,,,,,,,,,,,,,,,,,,,,,,,,,,,,,,,,,,,,,,,,,,,,,,,,,,,,,57.0,133.0,78.0,78.0,133.0,57.0,2.1,2.12,-202,-290,0,-256,164,258,31.486814737319946,31.486896514892578,31.49014902114868,31.501894235610962,31.64963722229004,31.64963722229004,31.64963722229004,31.64963722229004,31.64963722229004,31.64963722229004,31.64963722229004,33.88777995109558,1,2.3784573078155518,None,,,,,,,,,,,,,,,,,,157,2,2025-02-28_10h58.51.586,comp,2024.2.4,None,2025-02-28 10h58.59.289184 -0500,
2,2,0,filler_random,None,None,None,None,None,None,None,None,None,None,1,1.7154514789581299,None,,,,,0,0,0,0,0,2,2,142,33.90844917297363,,,,,,,,,,,,,,,,,,,,,,,,,,,,,,,,,,,,,,,,,,,,,,,,,,,,,,,,,,,,,,,,,,,,,,,,,,,,,,,,,151.51181711295123,158.45025977447813,178.65616735645756,73.41618368286906,155.96929545095094,81.50604222595265,1.0,1.1,-692,264,-480,256,-307,274,33.889795541763306,33.88989043235779,33.8931360244751,33.90844917297363,34.051032304763794,34.051032304763794,34.051032304763794,34.051032304763794,34.051032304763794,34.051032304763794,34.051032304763794,35.63330292701721,1,1.7154514789581299,None,,,,,,,,,,,,,,,,,,157,2,2025-02-28_10h58.51.586,comp,2024.2.4,None,2025-02-28 10h58.59.289184 -0500,
3,3,0,critical,hwd,35.0,4.0,upper,200.0,125.0,125.0,200.0,127.0,127.0,2,2.6103367805480957,None,,,,,0,0,0,0,0,3,3,101,35.653507471084595,,,,,,,,,,,,,,,,,,,,,,,,,,,,,,,,,,,,,,,,,,,,,,,,,,,,,,,,,,,,,,,,,,,,,,,,,,,,,,,,,200.0,125.0,125.0,200.0,127.0,127.0,4.0,4.2,-258,9,0,-263,260,-3,35.634860038757324,35.63493847846985,35.63780355453491,35.653507471084595,35.80179405212402,35.80179405212402,35.80179405212402,35.80179405212402,35.80179405212402,35.80179405212402,35.80179405212402,38.268845558166504,2,2.6103367805480957,None,,,,,,,,,,,,,,,,,,157,2,2025-02-28_10h58.51.586,comp,2024.2.4,None,2025-02-28 10h58.59.289184 -0500,
4,4,0,critical,dhw,20.0,4.0,upper,141.0,141.0,200.0,125.0,125.0,200.0,3,9.900073289871216,None,,,,,0,0,0,0,0,4,4,59,38.283888816833496,,,,,,,,,,,,,,,,,,,,,,,,,,,,,,,,,,,,,,,,,,,,,,,,,,,,,,,,,,,,,,,,,,,,,,,,,,,,,,,,,141.0,141.0,200.0,125.0,125.0,200.0,4.0,4.2,-229,-18,0,-260,258,14,38.270591735839844,38.27067470550537,38.27423667907715,38.283888816833496,38.43924331665039,38.43924331665039,38.43924331665039,38.43924331665039,38.43924331665039,38.43924331665039,38.43924331665039,48.18588972091675,3,9.900073289871216,None,,,,,,,,,,,,,,,,,,157,2,2025-02-28_10h58.51.586,comp,2024.2.4,None,2025-02-28 10h58.59.289184 -0500,
5,5,0,critical,hwd,20.0,3.0,lower,133.0,57.0,57.0,133.0,78.0,78.0,2,7.0696563720703125,None,,,,,0,0,0,0,0,5,5,104,48.20218586921692,,,,,,,,,,,,,,,,,,,,,,,,,,,,,,,,,,,,,,,,,,,,,,,,,,,,,,,,,,,,,,,,,,,,,,,,,,,,,,,,,133.0,57.0,57.0,133.0,78.0,78.0,3.0,3.2,-191,-269,0,7,202,271,48.18661952018738,48.18665337562561,48.187942028045654,48.20218586921692,48.33847188949585,48.33847188949585,48.33847188949585,48.33847188949585,48.33847188949585,48.33847188949585,48.33847188949585,55.28976535797119,2,7.0696563720703125,None,,,,,,,,,,,,,,,,,,157,2,2025-02-28_10h58.51.586,comp,2024.2.4,None,2025-02-28 10h58.59.289184 -0500,
6,6,0,critical,dhw,35.0,2.1,upper,127.0,127.0,200.0,125.0,125.0,200.0,3,3.3907313346862793,None,,,,,0,0,0,0,0,6,6,1,55.30609202384949,,,,,,,,,,,,,,,,,,,,,,,,,,,,,,,,,,,,,,,,,,,,,,,,,,,,,,,,,,,,,,,,,,,,,,,,,,,,,,,,,127.0,127.0,200.0,125.0,125.0,200.0,2.1,2.12,-222,-270,0,-279,258,268,55.2914137840271,55.29154682159424,55.294918060302734,55.30609202384949,55.456268548965454,55.456268548965454,55.456268548965454,55.456268548965454,55.456268548965454,55.456268548965454,55.456268548965454,58.712823152542114,3,3.3907313346862793,None,,,,,,,,,,,,,,,,,,157,2,2025-02-28_10h58.51.586,comp,2024.2.4,None,2025-02-28 10h58.59.289184 -0500,
7,7,0,filler_square,None,None,None,None,None,None,None,None,None,None,1,1.6708378791809082,None,,,,,0,0,0,0,0,7,7,175,58.72883415222168,,,,,,,,,,,,,,,,,,,,,,,,,,,,,,,,,,,,,,,,,,,,,,,,,,,,,,,,,,,,,,,,,,,,,,,,,,,,,,,,,181.81036257638127,181.81036257638127,61.935262931716224,177.97672410727472,122.44583428660505,98.91703633357041,2.2,2.22,-276,256,0,-261,234,-284,58.71491360664368,58.71499300003052,58.71821331977844,58.72883415222168,58.87620449066162,58.87620449066162,58.87620449066162,58.87620449066162,58.87620449066162,58.87620449066162,58.87620449066162,60.41051936149597,1,1.6708378791809082,None,,,,,,,,,,,,,,,,,,157,2,2025-02-28_10h58.51.586,comp,2024.2.4,None,2025-02-28 10h58.59.289184 -0500,
8,8,0,critical,dwh,35.0,2.1,lower,70.0,70.0,57.0,133.0,133.0,57.0,2,3.116558790206909,None,,,,,0,0,0,0,0,8,8,4,60.427159547805786,,,,,,,,,,,,,,,,,,,,,,,,,,,,,,,,,,,,,,,,,,,,,,,,,,,,,,,,,,,,,,,,,,,,,,,,,,,,,,,,,70.0,70.0,57.0,133.0,133.0,57.0,2.1,2.11,-198,266,0,275,191,-268,60.41224765777588,60.41236710548401,60.41636610031128,60.427159547805786,60.57532215118408,60.57532215118408,60.57532215118408,60.57532215118408,60.57532215118408,60.57532215118408,60.57532215118408,63.559144735336304,2,3.116558790206909,None,,,,,,,,,,,,,,,,,,157,2,2025-02-28_10h58.51.586,comp,2024.2.4,None,2025-02-28 10h58.59.289184 -0500,
9,9,0,critical,hdw,35.0,2.1,upper,200.0,125.0,127.0,127.0,125.0,200.0,3,3.5450170040130615,None,,,,,0,0,0,0,0,9,9,45,63.57550024986267,,,,,,,,,,,,,,,,,,,,,,,,,,,,,,,,,,,,,,,,,,,,,,,,,,,,,,,,,,,,,,,,,,,,,,,,,,,,,,,,,200.0,125.0,127.0,127.0,125.0,200.0,2.1,2.11,-222,278,0,252,260,-257,63.560789585113525,63.56086325645447,63.564082622528076,63.57550024986267,63.72724628448486,63.72724628448486,63.72724628448486,63.72724628448486,63.72724628448486,63.72724628448486,63.72724628448486,67.12785530090332,3,3.5450170040130615,None,,,,,,,,,,,,,,,,,,157,2,2025-02-28_10h58.51.586,comp,2024.2.4,None,2025-02-28 10h58.59.289184 -0500,
10,10,0,critical,wdh,35.0,2.1,upper,125.0,200.0,127.0,127.0,200.0,125.0,1,2.5514752864837646,None,,,,,0,0,0,0,0,10,10,33,67.14454531669617,,,,,,,,,,,,,,,,,,,,,,,,,,,,,,,,,,,,,,,,,,,,,,,,,,,,,,,,,,,,,,,,,,,,,,,,,,,,,,,,,125.0,200.0,127.0,127.0,200.0,125.0,2.1,2.11,-260,282,0,259,222,-266,67.12936735153198,67.12948250770569,67.13354682922363,67.14454531669617,67.29945254325867,67.29945254325867,67.29945254325867,67.29945254325867,67.29945254325867,67.29945254325867,67.29945254325867,69.71644568443298,1,2.5514752864837646,None,,,,,,,,,,,,,,,,,,157,2,2025-02-28_10h58.51.586,comp,2024.2.4,None,2025-02-28 10h58.59.289184 -0500,
11,11,0,critical,whd,35.0,3.0,upper,125.0,200.0,200.0,125.0,127.0,127.0,1,4.882333278656006,None,,,,,0,0,0,0,0,11,11,87,69.73348379135132,,,,,,,,,,,,,,,,,,,,,,,,,,,,,,,,,,,,,,,,,,,,,,,,,,,,,,,,,,,,,,,,,,,,,,,,,,,,,,,,,125.0,200.0,200.0,125.0,127.0,127.0,3.0,3.1,-258,261,0,-2,222,-270,69.71794366836548,69.71801924705505,69.72085785865784,69.73348379135132,69.87835478782654,69.87835478782654,69.87835478782654,69.87835478782654,69.87835478782654,69.87835478782654,69.87835478782654,74.63062191009521,1,4.882333278656006,None,,,,,,,,,,,,,,,,,,157,2,2025-02-28_10h58.51.586,comp,2024.2.4,None,2025-02-28 10h58.59.289184 -0500,
12,12,0,critical,wdh,35.0,2.1,lower,57.0,133.0,70.0,70.0,133.0,57.0,1,3.3606464862823486,None,,,,,0,0,0,0,0,12,12,32,74.6477689743042,,,,,,,,,,,,,,,,,,,,,,,,,,,,,,,,,,,,,,,,,,,,,,,,,,,,,,,,,,,,,,,,,,,,,,,,,,,,,,,,,57.0,133.0,70.0,70.0,133.0,57.0,2.1,2.12,-198,-276,0,-252,160,259,74.63210964202881,74.63218784332275,74.63510179519653,74.6477689743042,74.79702186584473,74.79702186584473,74.79702186584473,74.79702186584473,74.79702186584473,74.79702186584473,74.79702186584473,78.01437377929688,1,3.3606464862823486,None,,,,,,,,,,,,,,,,,,157,2,2025-02-28_10h58.51.586,comp,2024.2.4,None,2025-02-28 10h58.59.289184 -0500,
13,13,0,filler_random,None,None,None,None,None,None,None,None,None,None,2,3.041548252105713,None,,,,,0,0,0,0,0,13,13,132,78.03122591972351,,,,,,,,,,,,,,,,,,,,,,,,,,,,,,,,,,,,,,,,,,,,,,,,,,,,,,,,,,,,,,,,,,,,,,,,,,,,,,,,,60.98129600640394,156.0339780567415,184.3531802083658,179.9729896291181,179.84812914890563,173.82713408673536,4.0,4.2,-264,4,0,-271,273,0,78.01612043380737,78.01620292663574,78.02026224136353,78.03122591972351,78.17955183982849,78.17955183982849,78.17955183982849,78.17955183982849,78.17955183982849,78.17955183982849,78.17955183982849,81.08382081985474,2,3.041548252105713,None,,,,,,,,,,,,,,,,,,157,2,2025-02-28_10h58.51.586,comp,2024.2.4,None,2025-02-28 10h58.59.289184 -0500,
14,14,0,critical,hdw,20.0,1.0,lower,133.0,57.0,78.0,78.0,57.0,133.0,3,2.3719966411590576,None,,,,,0,0,0,0,0,14,14,114,81.1000063419342,,,,,,,,,,,,,,,,,,,,,,,,,,,,,,,,,,,,,,,,,,,,,,,,,,,,,,,,,,,,,,,,,,,,,,,,,,,,,,,,,133.0,57.0,78.0,78.0,57.0,133.0,1.0,1.3,316,-275,480,-269,682,-289,81.08557152748108,81.08565473556519,81.08912491798401,81.1000063419342,81.2491385936737,81.2491385936737,81.2491385936737,81.2491385936737,81.2491385936737,81.2491385936737,81.2491385936737,83.47418475151062,3,2.3719966411590576,None,,,,,,,,,,,,,,,,,,157,2,2025-02-28_10h58.51.586,comp,2024.2.4,None,2025-02-28 10h58.59.289184 -0500,
15,15,0,critical,dwh,20.0,4.0,lower,78.0,78.0,57.0,133.0,133.0,57.0,2,2.411463737487793,None,,,,,0,0,0,0,0,15,15,70,83.4923312664032,,,,,,,,,,,,,,,,,,,,,,,,,,,,,,,,,,,,,,,,,,,,,,,,,,,,,,,,,,,,,,,,,,,,,,,,,,,,,,,,,78.0,78.0,57.0,133.0,133.0,57.0,4.0,4.2,-202,-13,0,-265,191,-19,83.47570538520813,83.4757821559906,83.4786012172699,83.4923312664032,83.63248038291931,83.63248038291931,83.63248038291931,83.63248038291931,83.63248038291931,83.63248038291931,83.63248038291931,85.91680431365967,2,2.411463737487793,None,,,,,,,,,,,,,,,,,,157,2,2025-02-28_10h58.51.586,comp,2024.2.4,None,2025-02-28 10h58.59.289184 -0500,
16,16,0,filler_random,None,None,None,None,None,None,None,None,None,None,2,1.7638192176818848,None,,,,,0,0,0,0,0,16,16,130,85.93264651298523,,,,,,,,,,,,,,,,,,,,,,,,,,,,,,,,,,,,,,,,,,,,,,,,,,,,,,,,,,,,,,,,,,,,,,,,,,,,,,,,,57.52935067068645,119.48636345543312,166.2225414743996,165.06958963877872,188.23739201558303,145.2096603132772,2.2,2.21,-238,-253,0,250,251,285,85.91863489151001,85.91871404647827,85.92213797569275,85.93264651298523,86.09025120735168,86.09025120735168,86.09025120735168,86.09025120735168,86.09025120735168,86.09025120735168,86.09025120735168,87.69901204109192,2,1.7638192176818848,None,,,,,,,,,,,,,,,,,,157,2,2025-02-28_10h58.51.586,comp,2024.2.4,None,2025-02-28 10h58.59.289184 -0500,
17,17,0,critical,dhw,20.0,2.1,upper,141.0,141.0,200.0,125.0,125.0,200.0,3,1.413055658340454,None,,,,,0,0,0,0,0,17,17,27,87.7153902053833,,,,,,,,,,,,,,,,,,,,,,,,,,,,,,,,,,,,,,,,,,,,,,,,,,,,,,,,,,,,,,,,,,,,,,,,,,,,,,,,,141.0,141.0,200.0,125.0,125.0,200.0,2.1,2.11,-229,263,0,269,258,-284,87.70056653022766,87.70064115524292,87.7035002708435,87.7153902053833,87.85231804847717,87.85231804847717,87.85231804847717,87.85231804847717,87.85231804847717,87.85231804847717,87.85231804847717,89.13363432884216,3,1.413055658340454,None,,,,,,,,,,,,,,,,,,157,2,2025-02-28_10h58.51.586,comp,2024.2.4,None,2025-02-28 10h58.59.289184 -0500,
18,18,0,critical,hwd,20.0,3.0,upper,200.0,125.0,125.0,200.0,141.0,141.0,2,2.0188958644866943,None,,,,,0,0,0,0,0,18,18,105,89.14919757843018,,,,,,,,,,,,,,,,,,,,,,,,,,,,,,,,,,,,,,,,,,,,,,,,,,,,,,,,,,,,,,,,,,,,,,,,,,,,,,,,,200.0,125.0,125.0,200.0,141.0,141.0,3.0,3.1,-258,281,0,3,266,-274,89.13510537147522,89.1351809501648,89.1380124092102,89.14919757843018,89.2975926399231,89.2975926399231,89.2975926399231,89.2975926399231,89.2975926399231,89.2975926399231,89.2975926399231,91.17295598983765,2,2.0188958644866943,None,,,,,,,,,,,,,,,,,,157,2,2025-02-28_10h58.51.586,comp,2024.2.4,None,2025-02-28 10h58.59.289184 -0500,
19,19,0,filler_random,None,None,None,None,None,None,None,None,None,None,2,2.191154956817627,None,,,,,0,0,0,0,0,19,19,144,91.19343972206116,,,,,,,,,,,,,,,,,,,,,,,,,,,,,,,,,,,,,,,,,,,,,,,,,,,,,,,,,,,,,,,,,,,,,,,,,,,,,,,,,63.41056295110653,172.55885122322863,185.3072177774585,92.3399618868859,131.890620011299,121.13684181411028,2.2,2.21,-228,-276,0,275,203,276,91.17472505569458,91.17480516433716,91.17772197723389,91.19343972206116,91.33687663078308,91.33687663078308,91.33687663078308,91.33687663078308,91.33687663078308,91.33687663078308,91.33687663078308,93.39006614685059,2,2.191154956817627,None,,,,,,,,,,,,,,,,,,157,2,2025-02-28_10h58.51.586,comp,2024.2.4,None,2025-02-28 10h58.59.289184 -0500,
20,20,0,filler_random,None,None,None,None,None,None,None,None,None,None,3,2.968822479248047,None,,,,,0,0,0,0,0,20,20,151,93.4069709777832,,,,,,,,,,,,,,,,,,,,,,,,,,,,,,,,,,,,,,,,,,,,,,,,,,,,,,,,,,,,,,,,,,,,,,,,,,,,,,,,,125.00523386708882,96.7718484412147,125.69079097766398,79.43648568454095,135.7702668202557,113.17014654106796,4.0,4.1,-184,-280,0,11,192,-262,93.39192175865173,93.3920567035675,93.39526796340942,93.4069709777832,93.5558271408081,93.5558271408081,93.5558271408081,93.5558271408081,93.5558271408081,93.5558271408081,93.5558271408081,96.39097452163696,3,2.968822479248047,None,,,,,,,,,,,,,,,,,,157,2,2025-02-28_10h58.51.586,comp,2024.2.4,None,2025-02-28 10h58.59.289184 -0500,
21,21,0,critical,dwh,35.0,1.0,upper,127.0,127.0,125.0,200.0,200.0,125.0,2,1.814610481262207,None,,,,,0,0,0,0,0,21,21,61,96.40925002098083,,,,,,,,,,,,,,,,,,,,,,,,,,,,,,,,,,,,,,,,,,,,,,,,,,,,,,,,,,,,,,,,,,,,,,,,,,,,,,,,,127.0,127.0,125.0,200.0,200.0,125.0,1.0,1.3,220,-285,480,-262,738,-263,96.39263272285461,96.39271306991577,96.39559769630432,96.40925002098083,96.55910015106201,96.55910015106201,96.55910015106201,96.55910015106201,96.55910015106201,96.55910015106201,96.55910015106201,98.236319065094,2,1.814610481262207,None,,,,,,,,,,,,,,,,,,157,2,2025-02-28_10h58.51.586,comp,2024.2.4,None,2025-02-28 10h58.59.289184 -0500,
22,22,0,filler_square,None,None,None,None,None,None,None,None,None,None,2,1.2032661437988281,None,,,,,0,0,0,0,0,22,22,194,98.25263237953186,,,,,,,,,,,,,,,,,,,,,,,,,,,,,,,,,,,,,,,,,,,,,,,,,,,,,,,,,,,,,,,,,,,,,,,,,,,,,,,,,176.28441643481756,68.8852376818296,180.72109584489016,180.72109584489016,146.51248202751447,163.79018538503283,4.0,4.1,-221,-257,0,-16,268,-268,98.23819756507874,98.23827624320984,98.24135708808899,98.25263237953186,98.38891577720642,98.38891577720642,98.38891577720642,98.38891577720642,98.38891577720642,98.38891577720642,98.38891577720642,99.47608923912048,2,1.2032661437988281,None,,,,,,,,,,,,,,,,,,157,2,2025-02-28_10h58.51.586,comp,2024.2.4,None,2025-02-28 10h58.59.289184 -0500,
23,23,0,critical,whd,20.0,3.0,lower,57.0,133.0,133.0,57.0,78.0,78.0,1,1.5843939781188965,None,,,,,0,0,0,0,0,23,23,92,99.49634718894958,,,,,,,,,,,,,,,,,,,,,,,,,,,,,,,,,,,,,,,,,,,,,,,,,,,,,,,,,,,,,,,,,,,,,,,,,,,,,,,,,57.0,133.0,133.0,57.0,78.0,78.0,3.0,3.1,-191,273,0,-19,164,-254,99.47781896591187,99.47795295715332,99.48122525215149,99.49634718894958,99.63894271850586,99.63894271850586,99.63894271850586,99.63894271850586,99.63894271850586,99.63894271850586,99.63894271850586,101.0883903503418,1,1.5843939781188965,None,,,,,,,,,,,,,,,,,,157,2,2025-02-28_10h58.51.586,comp,2024.2.4,None,2025-02-28 10h58.59.289184 -0500,
24,24,0,catch,None,None,None,None,None,None,None,None,None,None,1,2.1285479068756104,None,,,,,0,0,0,0,0,24,24,123,101.10409021377563,,,,,,,,,,,,,,,,,,,,,,,,,,,,,,,,,,,,,,,,,,,,,,,,,,,,,,,,,,,,,,,,,,,,,,,,,,,,,,,,,129,196,59,131,87,103,4.0,4.2,-260,-19,0,-250,213,3,101.09036350250244,101.09047555923462,101.09350991249084,101.10409021377563,101.2567834854126,101.2567834854126,101.2567834854126,101.2567834854126,101.2567834854126,101.2567834854126,101.2567834854126,103.23704051971436,1,2.1285479068756104,None,,,,,,,,,,,,,,,,,,157,2,2025-02-28_10h58.51.586,comp,2024.2.4,None,2025-02-28 10h58.59.289184 -0500,
25,25,0,critical,hdw,35.0,3.0,upper,200.0,125.0,127.0,127.0,125.0,200.0,1,11.178597927093506,None,,,,,0,0,0,0,0,25,25,111,103.2533073425293,,,,,,,,,,,,,,,,,,,,,,,,,,,,,,,,,,,,,,,,,,,,,,,,,,,,,,,,,,,,,,,,,,,,,,,,,,,,,,,,,200.0,125.0,127.0,127.0,125.0,200.0,3.0,3.2,-222,-250,0,-5,260,264,103.23861718177795,103.23870778083801,103.24163365364075,103.2533073425293,103.40509271621704,103.40509271621704,103.40509271621704,103.40509271621704,103.40509271621704,103.40509271621704,103.40509271621704,114.45003056526184,1,11.178597927093506,None,,,,,,,,,,,,,,,,,,157,2,2025-02-28_10h58.51.586,comp,2024.2.4,None,2025-02-28 10h58.59.289184 -0500,
26,26,0,filler_square,None,None,None,None,None,None,None,None,None,None,1,1.3777079582214355,None,,,,,0,0,0,0,0,26,26,176,114.47012758255005,,,,,,,,,,,,,,,,,,,,,,,,,,,,,,,,,,,,,,,,,,,,,,,,,,,,,,,,,,,,,,,,,,,,,,,,,,,,,,,,,135.81593554091506,135.81593554091506,82.58162994950051,81.00931920709422,123.55685717669738,63.62454274307463,1.0,1.2,-204,18,0,14,168,4,114.45185971260071,114.4519395828247,114.45487427711487,114.47012758255005,114.60972547531128,114.60972547531128,114.60972547531128,114.60972547531128,114.60972547531128,114.60972547531128,114.60972547531128,115.86264610290527,1,1.3777079582214355,None,,,,,,,,,,,,,,,,,,157,2,2025-02-28_10h58.51.586,comp,2024.2.4,None,2025-02-28 10h58.59.289184 -0500,
27,27,0,catch,None,None,None,None,None,None,None,None,None,None,1,1.168320655822754,None,,,,,0,0,0,0,0,27,27,121,115.87949681282043,,,,,,,,,,,,,,,,,,,,,,,,,,,,,,,,,,,,,,,,,,,,,,,,,,,,,,,,,,,,,,,,,,,,,,,,,,,,,,,,,172,153,100,90,105,85,4.0,4.1,-218,-264,0,-13,184,-266,115.8649525642395,115.86503505706787,115.86830520629883,115.87949681282043,116.02730441093445,116.02730441093445,116.02730441093445,116.02730441093445,116.02730441093445,116.02730441093445,116.02730441093445,117.06068706512451,1,1.168320655822754,None,,,,,,,,,,,,,,,,,,157,2,2025-02-28_10h58.51.586,comp,2024.2.4,None,2025-02-28 10h58.59.289184 -0500,
28,28,0,critical,wdh,20.0,4.0,lower,57.0,133.0,78.0,78.0,133.0,57.0,1,3.03298020362854,None,,,,,0,0,0,0,0,28,28,82,117.07885456085205,,,,,,,,,,,,,,,,,,,,,,,,,,,,,,,,,,,,,,,,,,,,,,,,,,,,,,,,,,,,,,,,,,,,,,,,,,,,,,,,,57.0,133.0,78.0,78.0,133.0,57.0,4.0,4.2,-202,-1,0,-251,164,8,117.06229639053345,117.06245517730713,117.06578230857849,117.07885456085205,117.22633337974548,117.22633337974548,117.22633337974548,117.22633337974548,117.22633337974548,117.22633337974548,117.22633337974548,120.11576271057129,1,3.03298020362854,None,,,,,,,,,,,,,,,,,,157,2,2025-02-28_10h58.51.586,comp,2024.2.4,None,2025-02-28 10h58.59.289184 -0500,
29,29,0,filler_square,None,None,None,None,None,None,None,None,None,None,1,2.2036428451538086,None,,,,,0,0,0,0,0,29,29,179,120.13226413726807,,,,,,,,,,,,,,,,,,,,,,,,,,,,,,,,,,,,,,,,,,,,,,,,,,,,,,,,,,,,,,,,,,,,,,,,,,,,,,,,,191.71546468878464,191.71546468878464,183.82997099612697,142.2124118690567,157.79078230474806,88.78624029463478,1.0,1.2,-263,-13,0,9,211,0,120.11772990226746,120.11782670021057,120.12123894691467,120.13226413726807,120.28607249259949,120.28607249259949,120.28607249259949,120.28607249259949,120.28607249259949,120.28607249259949,120.28607249259949,122.35083436965942,1,2.2036428451538086,None,,,,,,,,,,,,,,,,,,157,2,2025-02-28_10h58.51.586,comp,2024.2.4,None,2025-02-28 10h58.59.289184 -0500,
30,30,0,filler_random,None,None,None,None,None,None,None,None,None,None,3,5.425698280334473,None,,,,,0,0,0,0,0,30,30,145,122.36659240722656,,,,,,,,,,,,,,,,,,,,,,,,,,,,,,,,,,,,,,,,,,,,,,,,,,,,,,,,,,,,,,,,,,,,,,,,,,,,,,,,,171.81838582796155,110.2203878740801,109.00840760052927,189.1911868385646,148.55846220173692,170.08117388150842,2.1,2.12,-246,-251,0,-282,276,274,122.35251259803772,122.35259056091309,122.3554527759552,122.36659240722656,122.51136660575867,122.51136660575867,122.51136660575867,122.51136660575867,122.51136660575867,122.51136660575867,122.51136660575867,127.79569840431213,3,5.425698280334473,None,,,,,,,,,,,,,,,,,,157,2,2025-02-28_10h58.51.586,comp,2024.2.4,None,2025-02-28 10h58.59.289184 -0500,
31,31,0,filler_square,None,None,None,None,None,None,None,None,None,None,1,2.683321475982666,None,,,,,0,0,0,0,0,31,31,209,127.81266283988953,,,,,,,,,,,,,,,,,,,,,,,,,,,,,,,,,,,,,,,,,,,,,,,,,,,,,,,,,,,,,,,,,,,,,,,,,,,,,,,,,71.05580674608595,71.05580674608595,63.78791168327738,62.97665460714342,59.16517900794867,65.51062216376877,1.0,1.1,-643,278,-480,279,-320,269,127.79759860038757,127.79767942428589,127.80076026916504,127.81266283988953,127.96457815170288,127.96457815170288,127.96457815170288,127.96457815170288,127.96457815170288,127.96457815170288,127.96457815170288,130.49814200401306,1,2.683321475982666,None,,,,,,,,,,,,,,,,,,157,2,2025-02-28_10h58.51.586,comp,2024.2.4,None,2025-02-28 10h58.59.289184 -0500,
32,32,0,filler_random,None,None,None,None,None,None,None,None,None,None,2,1.614725112915039,None,,,,,0,0,0,0,0,32,32,162,130.5138533115387,,,,,,,,,,,,,,,,,,,,,,,,,,,,,,,,,,,,,,,,,,,,,,,,,,,,,,,,,,,,,,,,,,,,,,,,,,,,,,,,,64.52913663222819,137.45528538581075,87.80749798593749,160.92186326375585,173.5428120826508,74.92391305636035,4.0,4.1,-245,-261,0,-14,214,-285,130.49987626075745,130.49995374679565,130.5029332637787,130.5138533115387,130.66898345947266,130.66898345947266,130.66898345947266,130.66898345947266,130.66898345947266,130.66898345947266,130.66898345947266,132.14734196662903,2,1.614725112915039,None,,,,,,,,,,,,,,,,,,157,2,2025-02-28_10h58.51.586,comp,2024.2.4,None,2025-02-28 10h58.59.289184 -0500,
33,33,0,critical,dwh,35.0,2.1,lower,70.0,70.0,57.0,133.0,133.0,57.0,2,2.0046546459198,None,,,,,0,0,0,0,0,33,33,28,132.1635103225708,,,,,,,,,,,,,,,,,,,,,,,,,,,,,,,,,,,,,,,,,,,,,,,,,,,,,,,,,,,,,,,,,,,,,,,,,,,,,,,,,70.0,70.0,57.0,133.0,133.0,57.0,2.1,2.12,-198,-260,0,-290,191,283,132.14892196655273,132.14900088310242,132.15224313735962,132.1635103225708,132.31407976150513,132.31407976150513,132.31407976150513,132.31407976150513,132.31407976150513,132.31407976150513,132.31407976150513,134.18264746665955,2,2.0046546459198,None,,,,,,,,,,,,,,,,,,157,2,2025-02-28_10h58.51.586,comp,2024.2.4,None,2025-02-28 10h58.59.289184 -0500,
34,34,0,critical,hwd,35.0,2.1,lower,133.0,57.0,57.0,133.0,70.0,70.0,2,3.4684572219848633,None,,,,,0,0,0,0,0,34,34,40,134.19616889953613,,,,,,,,,,,,,,,,,,,,,,,,,,,,,,,,,,,,,,,,,,,,,,,,,,,,,,,,,,,,,,,,,,,,,,,,,,,,,,,,,133.0,57.0,57.0,133.0,70.0,70.0,2.1,2.11,-191,262,0,277,198,-268,134.18419003486633,134.18426823616028,134.1873230934143,134.19616889953613,134.34528732299805,134.34528732299805,134.34528732299805,134.34528732299805,134.34528732299805,134.34528732299805,134.34528732299805,137.68385767936707,2,3.4684572219848633,None,,,,,,,,,,,,,,,,,,157,2,2025-02-28_10h58.51.586,comp,2024.2.4,None,2025-02-28 10h58.59.289184 -0500,
35,35,0,critical,dhw,20.0,1.0,upper,141.0,141.0,200.0,125.0,125.0,200.0,3,3.932921886444092,None,,,,,0,0,0,0,0,35,35,55,137.69915413856506,,,,,,,,,,,,,,,,,,,,,,,,,,,,,,,,,,,,,,,,,,,,,,,,,,,,,,,,,,,,,,,,,,,,,,,,,,,,,,,,,141.0,141.0,200.0,125.0,125.0,200.0,1.0,1.2,-229,15,0,-9,258,17,137.68536353111267,137.68547224998474,137.68893265724182,137.69915413856506,137.8489007949829,137.8489007949829,137.8489007949829,137.8489007949829,137.8489007949829,137.8489007949829,137.8489007949829,141.65029335021973,3,3.932921886444092,None,,,,,,,,,,,,,,,,,,157,2,2025-02-28_10h58.51.586,comp,2024.2.4,None,2025-02-28 10h58.59.289184 -0500,
36,36,0,critical,dwh,20.0,2.1,upper,141.0,141.0,125.0,200.0,200.0,125.0,2,1.8061556816101074,None,,,,,0,0,0,0,0,36,36,7,141.66625714302063,,,,,,,,,,,,,,,,,,,,,,,,,,,,,,,,,,,,,,,,,,,,,,,,,,,,,,,,,,,,,,,,,,,,,,,,,,,,,,,,,141.0,141.0,125.0,200.0,200.0,125.0,2.1,2.12,-266,-271,0,-253,258,287,141.6518268585205,141.65190076828003,141.65505528450012,141.66625714302063,141.82338452339172,141.82338452339172,141.82338452339172,141.82338452339172,141.82338452339172,141.82338452339172,141.82338452339172,143.48665809631348,2,1.8061556816101074,None,,,,,,,,,,,,,,,,,,157,2,2025-02-28_10h58.51.586,comp,2024.2.4,None,2025-02-28 10h58.59.289184 -0500,
37,37,0,critical,dwh,20.0,2.1,lower,78.0,78.0,57.0,133.0,133.0,57.0,2,1.6341915130615234,None,,,,,0,0,0,0,0,37,37,6,143.50176429748535,,,,,,,,,,,,,,,,,,,,,,,,,,,,,,,,,,,,,,,,,,,,,,,,,,,,,,,,,,,,,,,,,,,,,,,,,,,,,,,,,78.0,78.0,57.0,133.0,133.0,57.0,2.1,2.11,-202,271,0,262,191,-259,143.4883167743683,143.4884159564972,143.4912805557251,143.50176429748535,143.655775308609,143.655775308609,143.655775308609,143.655775308609,143.655775308609,143.655775308609,143.655775308609,145.1517767906189,2,1.6341915130615234,None,,,,,,,,,,,,,,,,,,157,2,2025-02-28_10h58.51.586,comp,2024.2.4,None,2025-02-28 10h58.59.289184 -0500,
38,38,0,filler_random,None,None,None,None,None,None,None,None,None,None,3,1.1624469757080078,None,,,,,0,0,0,0,0,38,38,148,145.16708946228027,,,,,,,,,,,,,,,,,,,,,,,,,,,,,,,,,,,,,,,,,,,,,,,,,,,,,,,,,,,,,,,,,,,,,,,,,,,,,,,,,66.67848427685557,92.65869370440352,104.3400944484076,102.42923519823277,191.00561183947613,175.4534073025534,2.1,2.11,-194,281,0,266,235,-264,145.15349292755127,145.15356945991516,145.15686559677124,145.16708946228027,145.3222074508667,145.3222074508667,145.3222074508667,145.3222074508667,145.3222074508667,145.3222074508667,145.3222074508667,146.33497834205627,3,1.1624469757080078,None,,,,,,,,,,,,,,,,,,157,2,2025-02-28_10h58.51.586,comp,2024.2.4,None,2025-02-28 10h58.59.289184 -0500,
39,39,0,filler_square,None,None,None,None,None,None,None,None,None,None,3,1.0726256370544434,None,,,,,0,0,0,0,0,39,39,205,146.3514482975006,,,,,,,,,,,,,,,,,,,,,,,,,,,,,,,,,,,,,,,,,,,,,,,,,,,,,,,,,,,,,,,,,,,,,,,,,,,,,,,,,117.70706384157853,88.2714888481701,132.29741676099803,78.03756596406431,163.36520642325877,163.36520642325877,4.0,4.1,-179,-287,0,-2,217,-254,146.3367350101471,146.336811542511,146.33993530273438,146.3514482975006,146.50121784210205,146.50121784210205,146.50121784210205,146.50121784210205,146.50121784210205,146.50121784210205,146.50121784210205,147.4372115135193,3,1.0726256370544434,None,,,,,,,,,,,,,,,,,,157,2,2025-02-28_10h58.51.586,comp,2024.2.4,None,2025-02-28 10h58.59.289184 -0500,
40,40,0,critical,hwd,20.0,2.1,lower,133.0,57.0,57.0,133.0,78.0,78.0,2,4.83455753326416,None,,,,,0,0,0,0,0,40,40,18,147.45336055755615,,,,,,,,,,,,,,,,,,,,,,,,,,,,,,,,,,,,,,,,,,,,,,,,,,,,,,,,,,,,,,,,,,,,,,,,,,,,,,,,,133.0,57.0,57.0,133.0,78.0,78.0,2.1,2.12,-191,-283,0,-280,202,279,147.43882036209106,147.43889784812927,147.44197869300842,147.45336055755615,147.6026177406311,147.6026177406311,147.6026177406311,147.6026177406311,147.6026177406311,147.6026177406311,147.6026177406311,152.29008197784424,2,4.83455753326416,None,,,,,,,,,,,,,,,,,,157,2,2025-02-28_10h58.51.586,comp,2024.2.4,None,2025-02-28 10h58.59.289184 -0500,
41,41,0,critical,whd,20.0,1.0,upper,125.0,200.0,200.0,125.0,141.0,141.0,1,4.517987012863159,None,,,,,0,0,0,0,0,41,41,91,152.3060176372528,,,,,,,,,,,,,,,,,,,,,,,,,,,,,,,,,,,,,,,,,,,,,,,,,,,,,,,,,,,,,,,,,,,,,,,,,,,,,,,,,125.0,200.0,200.0,125.0,141.0,141.0,1.0,1.1,-738,257,-480,276,-251,264,152.29167866706848,152.2917559146881,152.29521536827087,152.3060176372528,152.4556601047516,152.4556601047516,152.4556601047516,152.4556601047516,152.4556601047516,152.4556601047516,152.4556601047516,156.84019374847412,1,4.517987012863159,None,,,,,,,,,,,,,,,,,,157,2,2025-02-28_10h58.51.586,comp,2024.2.4,None,2025-02-28 10h58.59.289184 -0500,
42,42,0,critical,wdh,35.0,2.1,lower,57.0,133.0,70.0,70.0,133.0,57.0,1,2.231722354888916,None,,,,,0,0,0,0,0,42,42,8,156.85636925697327,,,,,,,,,,,,,,,,,,,,,,,,,,,,,,,,,,,,,,,,,,,,,,,,,,,,,,,,,,,,,,,,,,,,,,,,,,,,,,,,,57.0,133.0,70.0,70.0,133.0,57.0,2.1,2.12,-198,-255,0,-288,160,268,156.8417727947235,156.84185934066772,156.8452353477478,156.85636925697327,157.00609588623047,157.00609588623047,157.00609588623047,157.00609588623047,157.00609588623047,157.00609588623047,157.00609588623047,159.10942125320435,1,2.231722354888916,None,,,,,,,,,,,,,,,,,,157,2,2025-02-28_10h58.51.586,comp,2024.2.4,None,2025-02-28 10h58.59.289184 -0500,
43,43,0,critical,wdh,20.0,1.0,lower,57.0,133.0,78.0,78.0,133.0,57.0,2,1.6327104568481445,None,,,,,0,0,0,0,0,43,43,78,159.12750244140625,,,,,,,,,,,,,,,,,,,,,,,,,,,,,,,,,,,,,,,,,,,,,,,,,,,,,,,,,,,,,,,,,,,,,,,,,,,,,,,,,57.0,133.0,78.0,78.0,133.0,57.0,1.0,1.3,278,-285,480,-281,644,-290,159.1111249923706,159.1112561225891,159.1145589351654,159.12750244140625,159.27292037010193,159.27292037010193,159.27292037010193,159.27292037010193,159.27292037010193,159.27292037010193,159.27292037010193,160.763840675354,2,1.6327104568481445,None,,,,,,,,,,,,,,,,,,157,2,2025-02-28_10h58.51.586,comp,2024.2.4,None,2025-02-28 10h58.59.289184 -0500,
44,44,0,critical,whd,20.0,4.0,upper,125.0,200.0,200.0,125.0,141.0,141.0,1,2.73651123046875,None,,,,,0,0,0,0,0,44,44,95,160.78414344787598,,,,,,,,,,,,,,,,,,,,,,,,,,,,,,,,,,,,,,,,,,,,,,,,,,,,,,,,,,,,,,,,,,,,,,,,,,,,,,,,,125.0,200.0,200.0,125.0,141.0,141.0,4.0,4.1,-258,-286,0,-17,229,-256,160.76536583900452,160.76547694206238,160.76844143867493,160.78414344787598,160.92635893821716,160.92635893821716,160.92635893821716,160.92635893821716,160.92635893821716,160.92635893821716,160.92635893821716,163.5229368209839,1,2.73651123046875,None,,,,,,,,,,,,,,,,,,157,2,2025-02-28_10h58.51.586,comp,2024.2.4,None,2025-02-28 10h58.59.289184 -0500,
45,45,0,filler_random,None,None,None,None,None,None,None,None,None,None,1,3.4133687019348145,None,,,,,0,0,0,0,0,45,45,141,163.53948283195496,,,,,,,,,,,,,,,,,,,,,,,,,,,,,,,,,,,,,,,,,,,,,,,,,,,,,,,,,,,,,,,,,,,,,,,,,,,,,,,,,147.3752812024171,191.64727311711533,58.118231150437296,193.73318150092877,144.2285072600297,181.09615439489073,2.2,2.21,-289,-250,0,285,283,273,163.52465391159058,163.52473402023315,163.52782821655273,163.53948283195496,163.6912715435028,163.6912715435028,163.6912715435028,163.6912715435028,163.6912715435028,163.6912715435028,163.6912715435028,166.9589879512787,1,3.4133687019348145,None,,,,,,,,,,,,,,,,,,157,2,2025-02-28_10h58.51.586,comp,2024.2.4,None,2025-02-28 10h58.59.289184 -0500,
46,46,0,critical,whd,35.0,4.0,lower,57.0,133.0,133.0,57.0,70.0,70.0,1,3.5046586990356445,None,,,,,0,0,0,0,0,46,46,88,166.97544264793396,,,,,,,,,,,,,,,,,,,,,,,,,,,,,,,,,,,,,,,,,,,,,,,,,,,,,,,,,,,,,,,,,,,,,,,,,,,,,,,,,57.0,133.0,133.0,57.0,70.0,70.0,4.0,4.2,-191,-18,0,-251,160,15,166.9604778289795,166.96055507659912,166.96387481689453,166.97544264793396,167.12516260147095,167.12516260147095,167.12516260147095,167.12516260147095,167.12516260147095,167.12516260147095,167.12516260147095,170.49566555023193,1,3.5046586990356445,None,,,,,,,,,,,,,,,,,,157,2,2025-02-28_10h58.51.586,comp,2024.2.4,None,2025-02-28 10h58.59.289184 -0500,
47,47,0,critical,hwd,20.0,2.1,upper,200.0,125.0,125.0,200.0,141.0,141.0,2,8.400540351867676,None,,,,,0,0,0,0,0,47,47,43,170.51153898239136,,,,,,,,,,,,,,,,,,,,,,,,,,,,,,,,,,,,,,,,,,,,,,,,,,,,,,,,,,,,,,,,,,,,,,,,,,,,,,,,,200.0,125.0,125.0,200.0,141.0,141.0,2.1,2.11,-258,254,0,273,266,-251,170.49730038642883,170.49737787246704,170.50129795074463,170.51153898239136,170.6600592136383,170.6600592136383,170.6600592136383,170.6600592136383,170.6600592136383,170.6600592136383,170.6600592136383,178.9286539554596,2,8.400540351867676,None,,,,,,,,,,,,,,,,,,157,2,2025-02-28_10h58.51.586,comp,2024.2.4,None,2025-02-28 10h58.59.289184 -0500,
48,48,0,critical,dhw,20.0,4.0,lower,78.0,78.0,133.0,57.0,57.0,133.0,3,2.0261354446411133,None,,,,,0,0,0,0,0,48,48,58,178.95008730888367,,,,,,,,,,,,,,,,,,,,,,,,,,,,,,,,,,,,,,,,,,,,,,,,,,,,,,,,,,,,,,,,,,,,,,,,,,,,,,,,,78.0,78.0,133.0,57.0,57.0,133.0,4.0,4.1,-164,-268,0,-1,191,-267,178.93019485473633,178.93027329444885,178.93332648277283,178.95008730888367,179.09350037574768,179.09350037574768,179.09350037574768,179.09350037574768,179.09350037574768,179.09350037574768,179.09350037574768,180.98009729385376,3,2.0261354446411133,None,,,,,,,,,,,,,,,,,,157,2,2025-02-28_10h58.51.586,comp,2024.2.4,None,2025-02-28 10h58.59.289184 -0500,
49,49,0,critical,hwd,20.0,4.0,lower,133.0,57.0,57.0,133.0,78.0,78.0,3,3.7478220462799072,None,,,,,0,0,0,0,0,49,49,106,180.99644112586975,,,,,,,,,,,,,,,,,,,,,,,,,,,,,,,,,,,,,,,,,,,,,,,,,,,,,,,,,,,,,,,,,,,,,,,,,,,,,,,,,133.0,57.0,57.0,133.0,78.0,78.0,4.0,4.1,-191,-253,0,-4,202,-281,180.98165655136108,180.98173427581787,180.98569750785828,180.99644112586975,181.1446943283081,181.1446943283081,181.1446943283081,181.1446943283081,181.1446943283081,181.1446943283081,181.1446943283081,184.74905133247375,3,3.7478220462799072,None,,,,,,,,,,,,,,,,,,157,2,2025-02-28_10h58.51.586,comp,2024.2.4,None,2025-02-28 10h58.59.289184 -0500,
50,50,0,filler_square,None,None,None,None,None,None,None,None,None,None,3,2.239025831222534,None,,,,,0,0,0,0,0,50,50,185,184.76987481117249,,,,,,,,,,,,,,,,,,,,,,,,,,,,,,,,,,,,,,,,,,,,,,,,,,,,,,,,,,,,,,,,,,,,,,,,,,,,,,,,,64.03829608951295,77.3402055959426,87.62752952948983,70.0463894379459,88.04949109276569,88.04949109276569,1.0,1.3,310,-282,480,-251,655,-279,184.7507996559143,184.75093626976013,184.75417828559875,184.76987481117249,184.91433548927307,184.91433548927307,184.91433548927307,184.91433548927307,184.91433548927307,184.91433548927307,184.91433548927307,187.01447916030884,3,2.239025831222534,None,,,,,,,,,,,,,,,,,,157,2,2025-02-28_10h58.51.586,comp,2024.2.4,None,2025-02-28 10h58.59.289184 -0500,
51,51,0,filler_random,None,None,None,None,None,None,None,None,None,None,2,4.336804151535034,None,,,,,0,0,0,0,0,51,51,156,187.03123307228088,,,,,,,,,,,,,,,,,,,,,,,,,,,,,,,,,,,,,,,,,,,,,,,,,,,,,,,,,,,,,,,,,,,,,,,,,,,,,,,,,82.6245228476438,86.90324205171835,163.54247713209185,82.999216498801,95.8138585770904,133.05305087815742,3.0,3.2,-181,-272,0,-19,204,269,187.01620745658875,187.01628851890564,187.019704580307,187.03123307228088,187.18480157852173,187.18480157852173,187.18480157852173,187.18480157852173,187.18480157852173,187.18480157852173,187.18480157852173,191.3858425617218,2,4.336804151535034,None,,,,,,,,,,,,,,,,,,157,2,2025-02-28_10h58.51.586,comp,2024.2.4,None,2025-02-28 10h58.59.289184 -0500,
52,52,0,catch,None,None,None,None,None,None,None,None,None,None,3,0.9960103034973145,None,,,,,0,0,0,0,0,52,52,124,191.40426802635193,,,,,,,,,,,,,,,,,,,,,,,,,,,,,,,,,,,,,,,,,,,,,,,,,,,,,,,,,,,,,,,,,,,,,,,,,,,,,,,,,128,62,97,93,150,175,3.0,3.1,-174,251,0,-1,230,-276,191.3879325389862,191.38801050186157,191.39167022705078,191.40426802635193,191.5541226863861,191.5541226863861,191.5541226863861,191.5541226863861,191.5541226863861,191.5541226863861,191.5541226863861,192.4169340133667,3,0.9960103034973145,None,,,,,,,,,,,,,,,,,,157,2,2025-02-28_10h58.51.586,comp,2024.2.4,None,2025-02-28 10h58.59.289184 -0500,
53,53,0,filler_square,None,None,None,None,None,None,None,None,None,None,3,2.5455856323242188,None,,,,,0,0,0,0,0,53,53,199,192.43270421028137,,,,,,,,,,,,,,,,,,,,,,,,,,,,,,,,,,,,,,,,,,,,,,,,,,,,,,,,,,,,,,,,,,,,,,,,,,,,,,,,,67.41008730129018,64.17231992233079,57.59719497436784,60.6249798904257,68.6246552522639,68.6246552522639,4.0,4.2,-158,11,0,-290,161,1,192.4189157485962,192.41899466514587,192.4224338531494,192.43270421028137,192.5872359275818,192.5872359275818,192.5872359275818,192.5872359275818,192.5872359275818,192.5872359275818,192.5872359275818,194.98267555236816,3,2.5455856323242188,None,,,,,,,,,,,,,,,,,,157,2,2025-02-28_10h58.51.586,comp,2024.2.4,None,2025-02-28 10h58.59.289184 -0500,
54,54,0,filler_square,None,None,None,None,None,None,None,None,None,None,2,1.1633107662200928,None,,,,,0,0,0,0,0,54,54,171,194.99865818023682,,,,,,,,,,,,,,,,,,,,,,,,,,,,,,,,,,,,,,,,,,,,,,,,,,,,,,,,,,,,,,,,,,,,,,,,,,,,,,,,,62.40407991642318,103.51516809305588,106.28147051320659,106.28147051320659,67.23982009284828,68.33231450408616,4.0,4.2,-201,8,0,-276,183,10,194.98449516296387,194.9845745563507,194.98769569396973,194.99865818023682,195.1411852836609,195.1411852836609,195.1411852836609,195.1411852836609,195.1411852836609,195.1411852836609,195.1411852836609,196.1682243347168,2,1.1633107662200928,None,,,,,,,,,,,,,,,,,,157,2,2025-02-28_10h58.51.586,comp,2024.2.4,None,2025-02-28 10h58.59.289184 -0500,
55,55,0,critical,hwd,20.0,4.0,upper,200.0,125.0,125.0,200.0,141.0,141.0,2,9.751035928726196,None,,,,,0,0,0,0,0,55,55,107,196.18473958969116,,,,,,,,,,,,,,,,,,,,,,,,,,,,,,,,,,,,,,,,,,,,,,,,,,,,,,,,,,,,,,,,,,,,,,,,,,,,,,,,,200.0,125.0,125.0,200.0,141.0,141.0,4.0,4.1,-258,-261,0,-7,266,-281,196.16976380348206,196.1698408126831,196.1731240749359,196.18473958969116,196.34198784828186,196.34198784828186,196.34198784828186,196.34198784828186,196.34198784828186,196.34198784828186,196.34198784828186,205.95170164108276,2,9.751035928726196,None,,,,,,,,,,,,,,,,,,157,2,2025-02-28_10h58.51.586,comp,2024.2.4,None,2025-02-28 10h58.59.289184 -0500,
56,56,0,filler_square,None,None,None,None,None,None,None,None,None,None,3,0.9522867202758789,None,,,,,0,0,0,0,0,56,56,193,205.96801733970642,,,,,,,,,,,,,,,,,,,,,,,,,,,,,,,,,,,,,,,,,,,,,,,,,,,,,,,,,,,,,,,,,,,,,,,,,,,,,,,,,80.66432620066819,71.71854226606871,85.37251629905938,57.95030076687596,95.79227063858036,95.79227063858036,3.0,3.1,-161,277,0,18,173,-255,205.9526014328003,205.95264053344727,205.95412397384644,205.96801733970642,206.10376119613647,206.10376119613647,206.10376119613647,206.10376119613647,206.10376119613647,206.10376119613647,206.10376119613647,206.9224419593811,3,0.9522867202758789,None,,,,,,,,,,,,,,,,,,157,2,2025-02-28_10h58.51.586,comp,2024.2.4,None,2025-02-28 10h58.59.289184 -0500,
57,57,0,filler_random,None,None,None,None,None,None,None,None,None,None,2,1.1130826473236084,None,,,,,0,0,0,0,0,57,57,158,206.9429907798767,,,,,,,,,,,,,,,,,,,,,,,,,,,,,,,,,,,,,,,,,,,,,,,,,,,,,,,,,,,,,,,,,,,,,,,,,,,,,,,,,183.4407327889203,59.737217883062975,179.88975565141837,144.93270758173605,58.366981886148146,58.92129858741314,3.0,3.2,-198,-274,0,3,198,268,206.92411303520203,206.92419242858887,206.927237033844,206.9429907798767,207.08655500411987,207.08655500411987,207.08655500411987,207.08655500411987,207.08655500411987,207.08655500411987,207.08655500411987,208.07166504859924,2,1.1130826473236084,None,,,,,,,,,,,,,,,,,,157,2,2025-02-28_10h58.51.586,comp,2024.2.4,None,2025-02-28 10h58.59.289184 -0500,
58,58,0,filler_square,None,None,None,None,None,None,None,None,None,None,1,0.9296438694000244,None,,,,,0,0,0,0,0,58,58,182,208.0870361328125,,,,,,,,,,,,,,,,,,,,,,,,,,,,,,,,,,,,,,,,,,,,,,,,,,,,,,,,,,,,,,,,,,,,,,,,,,,,,,,,,196.95296288551717,196.95296288551717,62.76792376232752,136.00286619680116,82.71324887529316,119.36153662102348,3.0,3.1,-262,264,0,6,224,-257,208.07338285446167,208.0734806060791,208.07680940628052,208.0870361328125,208.23760318756104,208.23760318756104,208.23760318756104,208.23760318756104,208.23760318756104,208.23760318756104,208.23760318756104,209.02121019363403,1,0.9296438694000244,None,,,,,,,,,,,,,,,,,,157,2,2025-02-28_10h58.51.586,comp,2024.2.4,None,2025-02-28 10h58.59.289184 -0500,
59,59,0,critical,dhw,20.0,2.1,lower,78.0,78.0,133.0,57.0,57.0,133.0,3,1.450812578201294,None,,,,,0,0,0,0,0,59,59,2,209.03735780715942,,,,,,,,,,,,,,,,,,,,,,,,,,,,,,,,,,,,,,,,,,,,,,,,,,,,,,,,,,,,,,,,,,,,,,,,,,,,,,,,,78.0,78.0,133.0,57.0,57.0,133.0,2.1,2.12,-164,-252,0,-253,191,256,209.02268171310425,209.02275562286377,209.0257649421692,209.03735780715942,209.18865132331848,209.18865132331848,209.18865132331848,209.18865132331848,209.18865132331848,209.18865132331848,209.18865132331848,210.49031376838684,3,1.450812578201294,None,,,,,,,,,,,,,,,,,,157,2,2025-02-28_10h58.51.586,comp,2024.2.4,None,2025-02-28 10h58.59.289184 -0500,
60,60,0,filler_random,None,None,None,None,None,None,None,None,None,None,3,14.885504007339478,None,,,,,0,0,0,0,0,60,60,136,210.5067639350891,,,,,,,,,,,,,,,,,,,,,,,,,,,,,,,,,,,,,,,,,,,,,,,,,,,,,,,,,,,,,,,,,,,,,,,,,,,,,,,,,96.47110706676841,133.69906140663812,73.26635445658307,126.87143400481605,89.40873088877404,134.8653499529225,1.0,1.3,254,-253,480,-259,707,-282,210.4923222064972,210.4924488067627,210.49590015411377,210.5067639350891,210.65802192687988,210.65802192687988,210.65802192687988,210.65802192687988,210.65802192687988,210.65802192687988,210.65802192687988,225.40817713737488,3,14.885504007339478,None,,,,,,,,,,,,,,,,,,157,2,2025-02-28_10h58.51.586,comp,2024.2.4,None,2025-02-28 10h58.59.289184 -0500,
61,61,0,filler_random,None,None,None,None,None,None,None,None,None,None,3,1.2484092712402344,None,,,,,0,0,0,0,0,61,61,161,225.42419409751892,,,,,,,,,,,,,,,,,,,,,,,,,,,,,,,,,,,,,,,,,,,,,,,,,,,,,,,,,,,,,,,,,,,,,,,,,,,,,,,,,113.88494800266929,137.87231130123712,68.18759580303991,165.97982152596384,119.76663876663,182.29898049557625,4.0,4.2,-248,13,0,-259,270,6,225.41008186340332,225.41020321846008,225.41352939605713,225.42419409751892,225.5774164199829,225.5774164199829,225.5774164199829,225.5774164199829,225.5774164199829,225.5774164199829,225.5774164199829,226.6810622215271,3,1.2484092712402344,None,,,,,,,,,,,,,,,,,,157,2,2025-02-28_10h58.51.586,comp,2024.2.4,None,2025-02-28 10h58.59.289184 -0500,
62,62,0,filler_random,None,None,None,None,None,None,None,None,None,None,3,6.606886625289917,None,,,,,0,0,0,0,0,62,62,163,226.69730877876282,,,,,,,,,,,,,,,,,,,,,,,,,,,,,,,,,,,,,,,,,,,,,,,,,,,,,,,,,,,,,,,,,,,,,,,,,,,,,,,,,147.63253003659946,177.3074040709778,142.63299449404744,163.64669778510802,196.9617651619603,162.46185888605004,4.0,4.1,-266,-262,0,13,259,-273,226.68282270431519,226.68290400505066,226.68671536445618,226.69730877876282,226.84872198104858,226.84872198104858,226.84872198104858,226.84872198104858,226.84872198104858,226.84872198104858,226.84872198104858,233.3169355392456,3,6.606886625289917,None,,,,,,,,,,,,,,,,,,157,2,2025-02-28_10h58.51.586,comp,2024.2.4,None,2025-02-28 10h58.59.289184 -0500,
63,63,0,critical,dwh,20.0,2.1,upper,141.0,141.0,125.0,200.0,200.0,125.0,2,4.729583263397217,None,,,,,0,0,0,0,0,63,63,31,233.33458852767944,,,,,,,,,,,,,,,,,,,,,,,,,,,,,,,,,,,,,,,,,,,,,,,,,,,,,,,,,,,,,,,,,,,,,,,,,,,,,,,,,141.0,141.0,125.0,200.0,200.0,125.0,2.1,2.11,-266,281,0,255,258,-266,233.31856560707092,233.3186445236206,233.32154178619385,233.33458852767944,233.4795322418213,233.4795322418213,233.4795322418213,233.4795322418213,233.4795322418213,233.4795322418213,233.4795322418213,238.0803084373474,2,4.729583263397217,None,,,,,,,,,,,,,,,,,,157,2,2025-02-28_10h58.51.586,comp,2024.2.4,None,2025-02-28 10h58.59.289184 -0500,
64,64,0,filler_square,None,None,None,None,None,None,None,None,None,None,2,1.0079941749572754,None,,,,,0,0,0,0,0,64,64,192,238.0970287322998,,,,,,,,,,,,,,,,,,,,,,,,,,,,,,,,,,,,,,,,,,,,,,,,,,,,,,,,,,,,,,,,,,,,,,,,,,,,,,,,,119.5159173940317,135.93900955380485,152.62389296017784,152.62389296017784,69.98154355061155,58.400195562886005,2.2,2.21,-240,-270,0,271,202,269,238.08229780197144,238.08237600326538,238.08577942848206,238.0970287322998,238.2506000995636,238.2506000995636,238.2506000995636,238.2506000995636,238.2506000995636,238.2506000995636,238.2506000995636,239.1154601573944,2,1.0079941749572754,None,,,,,,,,,,,,,,,,,,157,2,2025-02-28_10h58.51.586,comp,2024.2.4,None,2025-02-28 10h58.59.289184 -0500,
65,65,0,critical,hdw,35.0,3.0,lower,133.0,57.0,70.0,70.0,57.0,133.0,3,3.8685433864593506,None,,,,,0,0,0,0,0,65,65,110,239.13176774978638,,,,,,,,,,,,,,,,,,,,,,,,,,,,,,,,,,,,,,,,,,,,,,,,,,,,,,,,,,,,,,,,,,,,,,,,,,,,,,,,,133.0,57.0,70.0,70.0,57.0,133.0,3.0,3.1,-160,270,0,13,198,-270,239.11705327033997,239.11713337898254,239.12116599082947,239.13176774978638,239.28002381324768,239.28002381324768,239.28002381324768,239.28002381324768,239.28002381324768,239.28002381324768,239.28002381324768,243.01678562164307,3,3.8685433864593506,None,,,,,,,,,,,,,,,,,,157,2,2025-02-28_10h58.51.586,comp,2024.2.4,None,2025-02-28 10h58.59.289184 -0500,
66,66,0,critical,hdw,20.0,2.1,lower,133.0,57.0,78.0,78.0,57.0,133.0,3,5.304115056991577,None,,,,,0,0,0,0,0,66,66,22,243.03210401535034,,,,,,,,,,,,,,,,,,,,,,,,,,,,,,,,,,,,,,,,,,,,,,,,,,,,,,,,,,,,,,,,,,,,,,,,,,,,,,,,,133.0,57.0,78.0,78.0,57.0,133.0,2.1,2.12,-164,-287,0,-275,202,270,243.0182921886444,243.01836895942688,243.02183723449707,243.03210401535034,243.188547372818,243.188547372818,243.188547372818,243.188547372818,243.188547372818,243.188547372818,243.188547372818,248.34962844848633,3,5.304115056991577,None,,,,,,,,,,,,,,,,,,157,2,2025-02-28_10h58.51.586,comp,2024.2.4,None,2025-02-28 10h58.59.289184 -0500,
67,67,0,filler_random,None,None,None,None,None,None,None,None,None,None,1,4.850496053695679,None,,,,,0,0,0,0,0,67,67,139,248.3657431602478,,,,,,,,,,,,,,,,,,,,,,,,,,,,,,,,,,,,,,,,,,,,,,,,,,,,,,,,,,,,,,,,,,,,,,,,,,,,,,,,,125.65464403639062,130.30985287483568,112.99308890103539,118.43123150701547,143.20180390383658,64.45715130370448,2.1,2.11,-220,255,0,272,187,-287,248.35136890411377,248.35150957107544,248.35445070266724,248.3657431602478,248.51484894752502,248.51484894752502,248.51484894752502,248.51484894752502,248.51484894752502,248.51484894752502,248.51484894752502,253.2194902896881,1,4.850496053695679,None,,,,,,,,,,,,,,,,,,157,2,2025-02-28_10h58.51.586,comp,2024.2.4,None,2025-02-28 10h58.59.289184 -0500,
68,68,0,catch,None,None,None,None,None,None,None,None,None,None,3,0.9636514186859131,None,,,,,0,0,0,0,0,68,68,127,253.23658895492554,,,,,,,,,,,,,,,,,,,,,,,,,,,,,,,,,,,,,,,,,,,,,,,,,,,,,,,,,,,,,,,,,,,,,,,,,,,,,,,,,122,68,60,130,129,196,4.0,4.1,-195,-262,0,19,259,-258,253.2214651107788,253.2215919494629,253.22566962242126,253.23658895492554,253.39651727676392,253.39651727676392,253.39651727676392,253.39651727676392,253.39651727676392,253.39651727676392,253.39651727676392,254.21925926208496,3,0.9636514186859131,None,,,,,,,,,,,,,,,,,,157,2,2025-02-28_10h58.51.586,comp,2024.2.4,None,2025-02-28 10h58.59.289184 -0500,
69,69,0,critical,dhw,35.0,1.0,lower,70.0,70.0,133.0,57.0,57.0,133.0,3,1.3102431297302246,None,,,,,0,0,0,0,0,69,69,48,254.23487043380737,,,,,,,,,,,,,,,,,,,,,,,,,,,,,,,,,,,,,,,,,,,,,,,,,,,,,,,,,,,,,,,,,,,,,,,,,,,,,,,,,70.0,70.0,133.0,57.0,57.0,133.0,1.0,1.1,-640,269,-480,264,-289,277,254.22082543373108,254.2209038734436,254.22401404380798,254.23487043380737,254.38981676101685,254.38981676101685,254.38981676101685,254.38981676101685,254.38981676101685,254.38981676101685,254.38981676101685,255.55427241325378,3,1.3102431297302246,None,,,,,,,,,,,,,,,,,,157,2,2025-02-28_10h58.51.586,comp,2024.2.4,None,2025-02-28 10h58.59.289184 -0500,
70,70,0,critical,wdh,35.0,3.0,upper,125.0,200.0,127.0,127.0,200.0,125.0,1,2.861684560775757,None,,,,,0,0,0,0,0,70,70,75,255.57121443748474,,,,,,,,,,,,,,,,,,,,,,,,,,,,,,,,,,,,,,,,,,,,,,,,,,,,,,,,,,,,,,,,,,,,,,,,,,,,,,,,,125.0,200.0,127.0,127.0,200.0,125.0,3.0,3.2,-260,-272,0,-4,222,259,255.55578541755676,255.55586433410645,255.55975484848022,255.57121443748474,255.7247016429901,255.7247016429901,255.7247016429901,255.7247016429901,255.7247016429901,255.7247016429901,255.7247016429901,258.43614196777344,1,2.861684560775757,None,,,,,,,,,,,,,,,,,,157,2,2025-02-28_10h58.51.586,comp,2024.2.4,None,2025-02-28 10h58.59.289184 -0500,
71,71,0,critical,hdw,35.0,2.1,lower,133.0,57.0,70.0,70.0,57.0,133.0,3,2.306732177734375,None,,,,,0,0,0,0,0,71,71,44,258.4535970687866,,,,,,,,,,,,,,,,,,,,,,,,,,,,,,,,,,,,,,,,,,,,,,,,,,,,,,,,,,,,,,,,,,,,,,,,,,,,,,,,,133.0,57.0,70.0,70.0,57.0,133.0,2.1,2.12,-160,-278,0,-261,198,264,258.43769097328186,258.43776774406433,258.4405925273895,258.4535970687866,258.60456943511963,258.60456943511963,258.60456943511963,258.60456943511963,258.60456943511963,258.60456943511963,258.60456943511963,260.77334237098694,3,2.306732177734375,None,,,,,,,,,,,,,,,,,,157,2,2025-02-28_10h58.51.586,comp,2024.2.4,None,2025-02-28 10h58.59.289184 -0500,
72,72,0,filler_square,None,None,None,None,None,None,None,None,None,None,3,1.0507009029388428,None,,,,,0,0,0,0,0,72,72,177,260.78955602645874,,,,,,,,,,,,,,,,,,,,,,,,,,,,,,,,,,,,,,,,,,,,,,,,,,,,,,,,,,,,,,,,,,,,,,,,,,,,,,,,,80.0974469207251,78.29568246145975,68.68117051996052,70.13468812839204,99.10965825254323,99.10965825254323,1.0,1.2,-170,-14,0,8,181,-13,260.7752425670624,260.77532267570496,260.7784729003906,260.78955602645874,260.93929171562195,260.93929171562195,260.93929171562195,260.93929171562195,260.93929171562195,260.93929171562195,260.93929171562195,261.8545603752136,3,1.0507009029388428,None,,,,,,,,,,,,,,,,,,157,2,2025-02-28_10h58.51.586,comp,2024.2.4,None,2025-02-28 10h58.59.289184 -0500,
73,73,0,filler_square,None,None,None,None,None,None,None,None,None,None,2,1.6017189025878906,None,,,,,0,0,0,0,0,73,73,183,261.870502948761,,,,,,,,,,,,,,,,,,,,,,,,,,,,,,,,,,,,,,,,,,,,,,,,,,,,,,,,,,,,,,,,,,,,,,,,,,,,,,,,,59.78075828870922,58.1161328618956,66.96399233915943,66.96399233915943,61.508637003074966,66.04932827972358,2.2,2.22,-159,274,0,-284,163,-271,261.8562753200531,261.85634899139404,261.85928750038147,261.870502948761,262.0132818222046,262.0132818222046,262.0132818222046,262.0132818222046,262.0132818222046,262.0132818222046,262.0132818222046,263.48829460144043,2,1.6017189025878906,None,,,,,,,,,,,,,,,,,,157,2,2025-02-28_10h58.51.586,comp,2024.2.4,None,2025-02-28 10h58.59.289184 -0500,
74,74,0,critical,wdh,35.0,1.0,upper,125.0,200.0,127.0,127.0,200.0,125.0,1,3.2491605281829834,None,,,,,0,0,0,0,0,74,74,73,263.5039336681366,,,,,,,,,,,,,,,,,,,,,,,,,,,,,,,,,,,,,,,,,,,,,,,,,,,,,,,,,,,,,,,,,,,,,,,,,,,,,,,,,125.0,200.0,127.0,127.0,200.0,125.0,1.0,1.2,-260,-10,0,-17,222,-9,263.48976397514343,263.48983693122864,263.4928379058838,263.5039336681366,263.6447184085846,263.6447184085846,263.6447184085846,263.6447184085846,263.6447184085846,263.6447184085846,263.6447184085846,266.7570855617523,1,3.2491605281829834,None,,,,,,,,,,,,,,,,,,157,2,2025-02-28_10h58.51.586,comp,2024.2.4,None,2025-02-28 10h58.59.289184 -0500,
75,75,0,filler_square,None,None,None,None,None,None,None,None,None,None,3,1.443511962890625,None,,,,,0,0,0,0,0,75,75,208,266.7735540866852,,,,,,,,,,,,,,,,,,,,,,,,,,,,,,,,,,,,,,,,,,,,,,,,,,,,,,,,,,,,,,,,,,,,,,,,,,,,,,,,,58.86536816039518,63.40051740464112,62.47764071426034,61.56152016958004,64.14594163093567,64.14594163093567,4.0,4.2,-158,-7,0,-280,159,10,266.7590024471283,266.75913667678833,266.7627019882202,266.7735540866852,266.92250895500183,266.92250895500183,266.92250895500183,266.92250895500183,266.92250895500183,266.92250895500183,266.92250895500183,268.22433638572693,3,1.443511962890625,None,,,,,,,,,,,,,,,,,,157,2,2025-02-28_10h58.51.586,comp,2024.2.4,None,2025-02-28 10h58.59.289184 -0500,
76,76,0,critical,dhw,35.0,3.0,upper,127.0,127.0,200.0,125.0,125.0,200.0,3,8.03973650932312,None,,,,,0,0,0,0,0,76,76,51,268.2405421733856,,,,,,,,,,,,,,,,,,,,,,,,,,,,,,,,,,,,,,,,,,,,,,,,,,,,,,,,,,,,,,,,,,,,,,,,,,,,,,,,,127.0,127.0,200.0,125.0,125.0,200.0,3.0,3.1,-222,289,0,11,258,-257,268.22586131095886,268.22594118118286,268.22941613197327,268.2405421733856,268.3904733657837,268.3904733657837,268.3904733657837,268.3904733657837,268.3904733657837,268.3904733657837,268.3904733657837,276.291951417923,3,8.03973650932312,None,,,,,,,,,,,,,,,,,,157,2,2025-02-28_10h58.51.586,comp,2024.2.4,None,2025-02-28 10h58.59.289184 -0500,
77,77,0,filler_square,None,None,None,None,None,None,None,None,None,None,1,1.2356607913970947,None,,,,,0,0,0,0,0,77,77,196,276.3087134361267,,,,,,,,,,,,,,,,,,,,,,,,,,,,,,,,,,,,,,,,,,,,,,,,,,,,,,,,,,,,,,,,,,,,,,,,,,,,,,,,,187.82942737724608,187.82942737724608,67.54481740938354,173.37251957619176,187.23554596579058,159.97725951853488,3.0,3.1,-277,271,0,-1,263,-254,276.29401564598083,276.29409551620483,276.29758882522583,276.3087134361267,276.45147728919983,276.45147728919983,276.45147728919983,276.45147728919983,276.45147728919983,276.45147728919983,276.45147728919983,277.56024527549744,1,1.2356607913970947,None,,,,,,,,,,,,,,,,,,157,2,2025-02-28_10h58.51.586,comp,2024.2.4,None,2025-02-28 10h58.59.289184 -0500,
78,78,0,filler_square,None,None,None,None,None,None,None,None,None,None,2,0.9125609397888184,None,,,,,0,0,0,0,0,78,78,188,277.57651114463806,,,,,,,,,,,,,,,,,,,,,,,,,,,,,,,,,,,,,,,,,,,,,,,,,,,,,,,,,,,,,,,,,,,,,,,,,,,,,,,,,61.087828677871116,59.30003281967008,82.53553200851371,82.53553200851371,64.70450564320326,66.52173659925148,1.0,1.2,-167,12,0,11,171,2,277.56209564208984,277.56217193603516,277.5661804676056,277.57651114463806,277.71648812294006,277.71648812294006,277.71648812294006,277.71648812294006,277.71648812294006,277.71648812294006,277.71648812294006,278.49400901794434,2,0.9125609397888184,None,,,,,,,,,,,,,,,,,,157,2,2025-02-28_10h58.51.586,comp,2024.2.4,None,2025-02-28 10h58.59.289184 -0500,
79,79,0,critical,hdw,20.0,4.0,lower,133.0,57.0,78.0,78.0,57.0,133.0,3,4.028902053833008,None,,,,,0,0,0,0,0,79,79,118,278.5096273422241,,,,,,,,,,,,,,,,,,,,,,,,,,,,,,,,,,,,,,,,,,,,,,,,,,,,,,,,,,,,,,,,,,,,,,,,,,,,,,,,,133.0,57.0,78.0,78.0,57.0,133.0,4.0,4.1,-164,-262,0,5,202,-251,278.4955220222473,278.4955999851227,278.499064207077,278.5096273422241,278.6588475704193,278.6588475704193,278.6588475704193,278.6588475704193,278.6588475704193,278.6588475704193,278.6588475704193,282.54434299468994,3,4.028902053833008,None,,,,,,,,,,,,,,,,,,157,2,2025-02-28_10h58.51.586,comp,2024.2.4,None,2025-02-28 10h58.59.289184 -0500,
80,80,0,critical,hdw,35.0,1.0,lower,133.0,57.0,70.0,70.0,57.0,133.0,3,5.5745649337768555,None,,,,,0,0,0,0,0,80,80,108,282.5617275238037,,,,,,,,,,,,,,,,,,,,,,,,,,,,,,,,,,,,,,,,,,,,,,,,,,,,,,,,,,,,,,,,,,,,,,,,,,,,,,,,,133.0,57.0,70.0,70.0,57.0,133.0,1.0,1.1,-640,262,-480,266,-282,256,282.5458960533142,282.54597568511963,282.54900550842285,282.5617275238037,282.71182584762573,282.71182584762573,282.71182584762573,282.71182584762573,282.71182584762573,282.71182584762573,282.71182584762573,288.1462082862854,3,5.5745649337768555,None,,,,,,,,,,,,,,,,,,157,2,2025-02-28_10h58.51.586,comp,2024.2.4,None,2025-02-28 10h58.59.289184 -0500,
81,81,0,critical,wdh,20.0,3.0,lower,57.0,133.0,78.0,78.0,133.0,57.0,1,7.682353496551514,None,,,,,0,0,0,0,0,81,81,80,288.1667172908783,,,,,,,,,,,,,,,,,,,,,,,,,,,,,,,,,,,,,,,,,,,,,,,,,,,,,,,,,,,,,,,,,,,,,,,,,,,,,,,,,57.0,133.0,78.0,78.0,133.0,57.0,3.0,3.1,-202,252,0,-5,164,-280,288.14774107933044,288.14782190322876,288.1509733200073,288.1667172908783,288.31373143196106,288.31373143196106,288.31373143196106,288.31373143196106,288.31373143196106,288.31373143196106,288.31373143196106,295.86709237098694,1,7.682353496551514,None,,,,,,,,,,,,,,,,,,157,2,2025-02-28_10h58.51.586,comp,2024.2.4,None,2025-02-28 10h58.59.289184 -0500,
82,82,0,filler_square,None,None,None,None,None,None,None,None,None,None,3,1.2464861869812012,None,,,,,0,0,0,0,0,82,82,184,295.88260316848755,,,,,,,,,,,,,,,,,,,,,,,,,,,,,,,,,,,,,,,,,,,,,,,,,,,,,,,,,,,,,,,,,,,,,,,,,,,,,,,,,65.94847809158398,98.40183735098105,63.824964269404575,76.43065865444383,119.35663109671395,119.35663109671395,2.1,2.11,-183,277,0,282,194,-269,295.8690183162689,295.86912727355957,295.8723795413971,295.88260316848755,296.03352546691895,296.03352546691895,296.03352546691895,296.03352546691895,296.03352546691895,296.03352546691895,296.03352546691895,297.13350439071655,3,1.2464861869812012,None,,,,,,,,,,,,,,,,,,157,2,2025-02-28_10h58.51.586,comp,2024.2.4,None,2025-02-28 10h58.59.289184 -0500,
83,83,0,filler_random,None,None,None,None,None,None,None,None,None,None,3,0.9239034652709961,None,,,,,0,0,0,0,0,83,83,143,297.1504247188568,,,,,,,,,,,,,,,,,,,,,,,,,,,,,,,,,,,,,,,,,,,,,,,,,,,,,,,,,,,,,,,,,,,,,,,,,,,,,,,,,82.82252553088115,73.17426831179485,118.4305085702998,79.83400970890487,147.74213894527236,199.9004893446795,2.2,2.22,-173,281,0,-259,236,-288,297.13527846336365,297.1353600025177,297.13883924484253,297.1504247188568,297.29678297042847,297.29678297042847,297.29678297042847,297.29678297042847,297.29678297042847,297.29678297042847,297.29678297042847,298.08453369140625,3,0.9239034652709961,None,,,,,,,,,,,,,,,,,,157,2,2025-02-28_10h58.51.586,comp,2024.2.4,None,2025-02-28 10h58.59.289184 -0500,
84,84,0,critical,wdh,20.0,2.1,upper,125.0,200.0,141.0,141.0,200.0,125.0,1,9.57206106185913,None,,,,,0,0,0,0,0,84,84,35,298.10026693344116,,,,,,,,,,,,,,,,,,,,,,,,,,,,,,,,,,,,,,,,,,,,,,,,,,,,,,,,,,,,,,,,,,,,,,,,,,,,,,,,,125.0,200.0,141.0,141.0,200.0,125.0,2.1,2.12,-266,-258,0,-269,229,254,298.08606028556824,298.08613753318787,298.0895028114319,298.10026693344116,298.24985909461975,298.24985909461975,298.24985909461975,298.24985909461975,298.24985909461975,298.24985909461975,298.24985909461975,307.68602895736694,1,9.57206106185913,None,,,,,,,,,,,,,,,,,,157,2,2025-02-28_10h58.51.586,comp,2024.2.4,None,2025-02-28 10h58.59.289184 -0500,
85,85,0,critical,whd,20.0,1.0,lower,57.0,133.0,133.0,57.0,78.0,78.0,1,3.338144540786743,None,,,,,0,0,0,0,0,85,85,90,307.7022669315338,,,,,,,,,,,,,,,,,,,,,,,,,,,,,,,,,,,,,,,,,,,,,,,,,,,,,,,,,,,,,,,,,,,,,,,,,,,,,,,,,57.0,133.0,133.0,57.0,78.0,78.0,1.0,1.1,-671,282,-480,257,-316,257,307.6876678466797,307.68774676322937,307.69108963012695,307.7022669315338,307.84310817718506,307.84310817718506,307.84310817718506,307.84310817718506,307.84310817718506,307.84310817718506,307.84310817718506,311.0534596443176,1,3.338144540786743,None,,,,,,,,,,,,,,,,,,157,2,2025-02-28_10h58.51.586,comp,2024.2.4,None,2025-02-28 10h58.59.289184 -0500,
86,86,0,critical,dhw,35.0,2.1,lower,70.0,70.0,133.0,57.0,57.0,133.0,3,1.3245837688446045,None,,,,,0,0,0,0,0,86,86,0,311.06948590278625,,,,,,,,,,,,,,,,,,,,,,,,,,,,,,,,,,,,,,,,,,,,,,,,,,,,,,,,,,,,,,,,,,,,,,,,,,,,,,,,,70.0,70.0,133.0,57.0,57.0,133.0,2.1,2.11,-160,265,0,271,191,-260,311.0549623966217,311.05503702163696,311.0581181049347,311.06948590278625,311.2094202041626,311.2094202041626,311.2094202041626,311.2094202041626,311.2094202041626,311.2094202041626,311.2094202041626,312.4058609008789,3,1.3245837688446045,None,,,,,,,,,,,,,,,,,,157,2,2025-02-28_10h58.51.586,comp,2024.2.4,None,2025-02-28 10h58.59.289184 -0500,
87,87,0,filler_random,None,None,None,None,None,None,None,None,None,None,2,1.4506170749664307,None,,,,,0,0,0,0,0,87,87,165,312.4217574596405,,,,,,,,,,,,,,,,,,,,,,,,,,,,,,,,,,,,,,,,,,,,,,,,,,,,,,,,,,,,,,,,,,,,,,,,,,,,,,,,,89.13025655620507,130.08763152980333,169.6330236908638,159.87635074988208,197.65845012400277,77.67472526968945,4.0,4.2,-241,1,0,-255,215,1,312.4075491428375,312.40765404701233,312.41110396385193,312.4217574596405,312.5762023925781,312.5762023925781,312.5762023925781,312.5762023925781,312.5762023925781,312.5762023925781,312.5762023925781,313.88927483558655,2,1.4506170749664307,None,,,,,,,,,,,,,,,,,,157,2,2025-02-28_10h58.51.586,comp,2024.2.4,None,2025-02-28 10h58.59.289184 -0500,
88,88,0,critical,hwd,35.0,2.1,upper,200.0,125.0,125.0,200.0,127.0,127.0,2,4.776654005050659,None,,,,,0,0,0,0,0,88,88,17,313.9058256149292,,,,,,,,,,,,,,,,,,,,,,,,,,,,,,,,,,,,,,,,,,,,,,,,,,,,,,,,,,,,,,,,,,,,,,,,,,,,,,,,,200.0,125.0,125.0,200.0,127.0,127.0,2.1,2.11,-258,260,0,283,260,-259,313.89081025123596,313.89088892936707,313.8940567970276,313.9058256149292,314.0568287372589,314.0568287372589,314.0568287372589,314.0568287372589,314.0568287372589,314.0568287372589,314.0568287372589,318.6937747001648,2,4.776654005050659,None,,,,,,,,,,,,,,,,,,157,2,2025-02-28_10h58.51.586,comp,2024.2.4,None,2025-02-28 10h58.59.289184 -0500,
89,89,0,critical,dhw,20.0,1.0,lower,78.0,78.0,133.0,57.0,57.0,133.0,3,1.819730520248413,None,,,,,0,0,0,0,0,89,89,54,318.70930576324463,,,,,,,,,,,,,,,,,,,,,,,,,,,,,,,,,,,,,,,,,,,,,,,,,,,,,,,,,,,,,,,,,,,,,,,,,,,,,,,,,78.0,78.0,133.0,57.0,57.0,133.0,1.0,1.2,-164,11,0,13,191,11,318.69532775878906,318.695431470871,318.69861483573914,318.70930576324463,318.86019015312195,318.86019015312195,318.86019015312195,318.86019015312195,318.86019015312195,318.86019015312195,318.86019015312195,320.5405240058899,3,1.819730520248413,None,,,,,,,,,,,,,,,,,,157,2,2025-02-28_10h58.51.586,comp,2024.2.4,None,2025-02-28 10h58.59.289184 -0500,
90,90,0,critical,dwh,20.0,1.0,lower,78.0,78.0,57.0,133.0,133.0,57.0,2,1.5399374961853027,None,,,,,0,0,0,0,0,90,90,66,320.5565667152405,,,,,,,,,,,,,,,,,,,,,,,,,,,,,,,,,,,,,,,,,,,,,,,,,,,,,,,,,,,,,,,,,,,,,,,,,,,,,,,,,78.0,78.0,57.0,133.0,133.0,57.0,1.0,1.3,278,-276,480,-256,671,-283,320.5421485900879,320.5422296524048,320.5456507205963,320.5565667152405,320.70812726020813,320.70812726020813,320.70812726020813,320.70812726020813,320.70812726020813,320.70812726020813,320.70812726020813,322.1155867576599,2,1.5399374961853027,None,,,,,,,,,,,,,,,,,,157,2,2025-02-28_10h58.51.586,comp,2024.2.4,None,2025-02-28 10h58.59.289184 -0500,
91,91,0,filler_square,None,None,None,None,None,None,None,None,None,None,3,1.0533130168914795,None,,,,,0,0,0,0,0,91,91,197,322.1316990852356,,,,,,,,,,,,,,,,,,,,,,,,,,,,,,,,,,,,,,,,,,,,,,,,,,,,,,,,,,,,,,,,,,,,,,,,,,,,,,,,,86.47512207127801,102.02745166119803,166.16822932414593,113.22522615116607,172.95261128344828,172.95261128344828,4.0,4.1,-204,-271,0,11,239,-253,322.11767745018005,322.11775612831116,322.1209557056427,322.1316990852356,322.276291847229,322.276291847229,322.276291847229,322.276291847229,322.276291847229,322.276291847229,322.276291847229,323.192275762558,3,1.0533130168914795,None,,,,,,,,,,,,,,,,,,157,2,2025-02-28_10h58.51.586,comp,2024.2.4,None,2025-02-28 10h58.59.289184 -0500,
92,92,0,critical,whd,35.0,1.0,lower,57.0,133.0,133.0,57.0,70.0,70.0,1,2.1307907104492188,None,,,,,0,0,0,0,0,92,92,84,323.2136695384979,,,,,,,,,,,,,,,,,,,,,,,,,,,,,,,,,,,,,,,,,,,,,,,,,,,,,,,,,,,,,,,,,,,,,,,,,,,,,,,,,57.0,133.0,133.0,57.0,70.0,70.0,1.0,1.3,289,-271,480,-274,640,-254,323.1937963962555,323.1938724517822,323.19691491127014,323.2136695384979,323.358610868454,323.358610868454,323.358610868454,323.358610868454,323.358610868454,323.358610868454,323.358610868454,325.35967445373535,1,2.1307907104492188,None,,,,,,,,,,,,,,,,,,157,2,2025-02-28_10h58.51.586,comp,2024.2.4,None,2025-02-28 10h58.59.289184 -0500,
93,93,0,filler_random,None,None,None,None,None,None,None,None,None,None,3,1.4690501689910889,None,,,,,0,0,0,0,0,93,93,166,325.379442691803,,,,,,,,,,,,,,,,,,,,,,,,,,,,,,,,,,,,,,,,,,,,,,,,,,,,,,,,,,,,,,,,,,,,,,,,,,,,,,,,,64.86959087760023,170.6267839128883,108.36641659075816,69.84613699460957,104.09369611979761,185.1290682226633,4.0,4.2,-216,-16,0,-256,223,15,325.3615083694458,325.3616404533386,325.36492824554443,325.379442691803,325.5131182670593,325.5131182670593,325.5131182670593,325.5131182670593,325.5131182670593,325.5131182670593,325.5131182670593,326.8533704280853,3,1.4690501689910889,None,,,,,,,,,,,,,,,,,,157,2,2025-02-28_10h58.51.586,comp,2024.2.4,None,2025-02-28 10h58.59.289184 -0500,
94,94,0,critical,whd,35.0,4.0,upper,125.0,200.0,200.0,125.0,127.0,127.0,1,1.8335213661193848,None,,,,,0,0,0,0,0,94,94,89,326.8713879585266,,,,,,,,,,,,,,,,,,,,,,,,,,,,,,,,,,,,,,,,,,,,,,,,,,,,,,,,,,,,,,,,,,,,,,,,,,,,,,,,,125.0,200.0,200.0,125.0,127.0,127.0,4.0,4.2,-258,7,0,-263,222,17,326.8549745082855,326.8550536632538,326.8583002090454,326.8713879585266,327.00974202156067,327.00974202156067,327.00974202156067,327.00974202156067,327.00974202156067,327.00974202156067,327.00974202156067,328.7087969779968,1,1.8335213661193848,None,,,,,,,,,,,,,,,,,,157,2,2025-02-28_10h58.51.586,comp,2024.2.4,None,2025-02-28 10h58.59.289184 -0500,
95,95,0,filler_square,None,None,None,None,None,None,None,None,None,None,1,2.515838384628296,None,,,,,0,0,0,0,0,95,95,204,328.72524523735046,,,,,,,,,,,,,,,,,,,,,,,,,,,,,,,,,,,,,,,,,,,,,,,,,,,,,,,,,,,,,,,,,,,,,,,,,,,,,,,,,187.16342640438182,187.16342640438182,168.01034257201306,121.02563865509697,98.75914801900993,184.3155767269405,1.0,1.1,-730,257,-480,268,-231,253,328.7105700969696,328.71064805984497,328.71364545822144,328.72524523735046,328.8858983516693,328.8858983516693,328.8858983516693,328.8858983516693,328.8858983516693,328.8858983516693,328.8858983516693,331.2461657524109,1,2.515838384628296,None,,,,,,,,,,,,,,,,,,157,2,2025-02-28_10h58.51.586,comp,2024.2.4,None,2025-02-28 10h58.59.289184 -0500,
96,96,0,critical,dwh,35.0,2.1,upper,127.0,127.0,125.0,200.0,200.0,125.0,2,2.802382230758667,None,,,,,0,0,0,0,0,96,96,29,331.26217007637024,,,,,,,,,,,,,,,,,,,,,,,,,,,,,,,,,,,,,,,,,,,,,,,,,,,,,,,,,,,,,,,,,,,,,,,,,,,,,,,,,127.0,127.0,125.0,200.0,200.0,125.0,2.1,2.11,-260,286,0,252,258,-290,331.24785685539246,331.24793457984924,331.2513198852539,331.26217007637024,331.4109437465668,331.4109437465668,331.4109437465668,331.4109437465668,331.4109437465668,331.4109437465668,331.4109437465668,334.0784258842468,2,2.802382230758667,None,,,,,,,,,,,,,,,,,,157,2,2025-02-28_10h58.51.586,comp,2024.2.4,None,2025-02-28 10h58.59.289184 -0500,
97,97,0,catch,None,None,None,None,None,None,None,None,None,None,3,1.2978079319000244,None,,,,,0,0,0,0,0,97,97,120,334.0946991443634,,,,,,,,,,,,,,,,,,,,,,,,,,,,,,,,,,,,,,,,,,,,,,,,,,,,,,,,,,,,,,,,,,,,,,,,,,,,,,,,,111,79,81,109,176,149,1.0,1.3,290,-260,480,-251,705,-260,334.0807023048401,334.0807819366455,334.08438301086426,334.0946991443634,334.2434980869293,334.2434980869293,334.2434980869293,334.2434980869293,334.2434980869293,334.2434980869293,334.2434980869293,335.3959159851074,3,1.2978079319000244,None,,,,,,,,,,,,,,,,,,157,2,2025-02-28_10h58.51.586,comp,2024.2.4,None,2025-02-28 10h58.59.289184 -0500,
98,98,0,filler_random,None,None,None,None,None,None,None,None,None,None,2,1.3172664642333984,None,,,,,0,0,0,0,0,98,98,154,335.41200041770935,,,,,,,,,,,,,,,,,,,,,,,,,,,,,,,,,,,,,,,,,,,,,,,,,,,,,,,,,,,,,,,,,,,,,,,,,,,,,,,,,156.98873470119736,123.70220207734545,178.61154929731424,199.3123731234685,186.67325694469483,102.0782420083535,2.1,2.12,-258,-288,0,-288,247,275,335.39762330055237,335.39769887924194,335.40126729011536,335.41200041770935,335.5641362667084,335.5641362667084,335.5641362667084,335.5641362667084,335.5641362667084,335.5641362667084,335.5641362667084,336.7356388568878,2,1.3172664642333984,None,,,,,,,,,,,,,,,,,,157,2,2025-02-28_10h58.51.586,comp,2024.2.4,None,2025-02-28 10h58.59.289184 -0500,
99,99,0,filler_random,None,None,None,None,None,None,None,None,None,None,1,1.2165868282318115,None,,,,,0,0,0,0,0,99,99,134,336.75184297561646,,,,,,,,,,,,,,,,,,,,,,,,,,,,,,,,,,,,,,,,,,,,,,,,,,,,,,,,,,,,,,,,,,,,,,,,,,,,,,,,,152.98993843142546,174.69208087777895,105.5672192150047,112.75163992496277,71.44064736320985,152.34686001213524,3.0,3.1,-240,261,0,18,229,-263,336.7373676300049,336.7374761104584,336.74025559425354,336.75184297561646,336.8970048427582,336.8970048427582,336.8970048427582,336.8970048427582,336.8970048427582,336.8970048427582,336.8970048427582,337.97953033447266,1,1.2165868282318115,None,,,,,,,,,,,,,,,,,,157,2,2025-02-28_10h58.51.586,comp,2024.2.4,None,2025-02-28 10h58.59.289184 -0500,
100,100,0,critical,hdw,20.0,4.0,upper,200.0,125.0,141.0,141.0,125.0,200.0,1,1.452324390411377,None,,,,,0,0,0,0,0,100,100,119,337.99613642692566,,,,,,,,,,,,,,,,,,,,,,,,,,,,,,,,,,,,,,,,,,,,,,,,,,,,,,,,,,,,,,,,,,,,,,,,,,,,,,,,,200.0,125.0,141.0,141.0,125.0,200.0,4.0,4.2,-229,-2,0,-254,266,18,337.981080532074,337.98116087913513,337.9851586818695,337.99613642692566,338.1531789302826,338.1531789302826,338.1531789302826,338.1531789302826,338.1531789302826,338.1531789302826,338.1531789302826,339.4626612663269,1,1.452324390411377,None,,,,,,,,,,,,,,,,,,157,2,2025-02-28_10h58.51.586,comp,2024.2.4,None,2025-02-28 10h58.59.289184 -0500,
101,101,0,critical,wdh,20.0,1.0,upper,125.0,200.0,141.0,141.0,200.0,125.0,1,3.745063543319702,None,,,,,0,0,0,0,0,101,101,79,339.4800214767456,,,,,,,,,,,,,,,,,,,,,,,,,,,,,,,,,,,,,,,,,,,,,,,,,,,,,,,,,,,,,,,,,,,,,,,,,,,,,,,,,125.0,200.0,141.0,141.0,200.0,125.0,1.0,1.1,-746,264,-480,284,-251,270,339.46417808532715,339.4642565250397,339.46747756004333,339.4800214767456,339.63822197914124,339.63822197914124,339.63822197914124,339.63822197914124,339.63822197914124,339.63822197914124,339.63822197914124,343.2317955493927,1,3.745063543319702,None,,,,,,,,,,,,,,,,,,157,2,2025-02-28_10h58.51.586,comp,2024.2.4,None,2025-02-28 10h58.59.289184 -0500,
102,102,0,critical,wdh,20.0,2.1,lower,57.0,133.0,78.0,78.0,133.0,57.0,1,8.354466438293457,None,,,,,0,0,0,0,0,102,102,10,343.2467088699341,,,,,,,,,,,,,,,,,,,,,,,,,,,,,,,,,,,,,,,,,,,,,,,,,,,,,,,,,,,,,,,,,,,,,,,,,,,,,,,,,57.0,133.0,78.0,78.0,133.0,57.0,2.1,2.11,-202,269,0,285,164,-252,343.23347425460815,343.23355197906494,343.23709082603455,343.2467088699341,343.402734041214,343.402734041214,343.402734041214,343.402734041214,343.402734041214,343.402734041214,343.402734041214,351.6078288555145,1,8.354466438293457,None,,,,,,,,,,,,,,,,,,157,2,2025-02-28_10h58.51.586,comp,2024.2.4,None,2025-02-28 10h58.59.289184 -0500,
103,103,0,critical,hwd,20.0,1.0,lower,133.0,57.0,57.0,133.0,78.0,78.0,2,4.538600206375122,None,,,,,0,0,0,0,0,103,103,102,351.62265849113464,,,,,,,,,,,,,,,,,,,,,,,,,,,,,,,,,,,,,,,,,,,,,,,,,,,,,,,,,,,,,,,,,,,,,,,,,,,,,,,,,133.0,57.0,57.0,133.0,78.0,78.0,1.0,1.3,289,-270,480,-257,682,-252,351.60945081710815,351.6095304489136,351.61278915405273,351.62265849113464,351.77156496047974,351.77156496047974,351.77156496047974,351.77156496047974,351.77156496047974,351.77156496047974,351.77156496047974,356.1666305065155,2,4.538600206375122,None,,,,,,,,,,,,,,,,,,157,2,2025-02-28_10h58.51.586,comp,2024.2.4,None,2025-02-28 10h58.59.289184 -0500,
104,104,0,critical,wdh,35.0,1.0,lower,57.0,133.0,70.0,70.0,133.0,57.0,1,4.225466251373291,None,,,,,0,0,0,0,0,104,104,72,356.1831455230713,,,,,,,,,,,,,,,,,,,,,,,,,,,,,,,,,,,,,,,,,,,,,,,,,,,,,,,,,,,,,,,,,,,,,,,,,,,,,,,,,57.0,133.0,70.0,70.0,133.0,57.0,1.0,1.1,-678,288,-480,287,-320,252,356.1682291030884,356.1683044433594,356.17155957221985,356.1831455230713,356.3353865146637,356.3353865146637,356.3353865146637,356.3353865146637,356.3353865146637,356.3353865146637,356.3353865146637,360.4105043411255,1,4.225466251373291,None,,,,,,,,,,,,,,,,,,157,2,2025-02-28_10h58.51.586,comp,2024.2.4,None,2025-02-28 10h58.59.289184 -0500,
105,105,0,filler_random,None,None,None,None,None,None,None,None,None,None,1,1.21474027633667,None,,,,,0,0,0,0,0,105,105,167,360.4265470504761,,,,,,,,,,,,,,,,,,,,,,,,,,,,,,,,,,,,,,,,,,,,,,,,,,,,,,,,,,,,,,,,,,,,,,,,,,,,,,,,,133.4475653777357,156.9588084586744,75.19310683506039,98.10578304248678,195.9562882868373,78.7313848683314,4.0,4.1,-224,-279,0,20,184,-281,360.4122941493988,360.4124574661255,360.41568398475647,360.4265470504761,360.57018852233887,360.57018852233887,360.57018852233887,360.57018852233887,360.57018852233887,360.57018852233887,360.57018852233887,361.6440415382385,1,1.21474027633667,None,,,,,,,,,,,,,,,,,,157,2,2025-02-28_10h58.51.586,comp,2024.2.4,None,2025-02-28 10h58.59.289184 -0500,
106,106,0,filler_random,None,None,None,None,None,None,None,None,None,None,3,0.8609120845794678,None,,,,,0,0,0,0,0,106,106,157,361.65980648994446,,,,,,,,,,,,,,,,,,,,,,,,,,,,,,,,,,,,,,,,,,,,,,,,,,,,,,,,,,,,,,,,,,,,,,,,,,,,,,,,,63.625084002465776,160.30319188156102,197.32358208829973,57.23672703426759,168.27740384033427,125.42539678808923,2.1,2.12,-205,-252,0,-270,187,277,361.645849943161,361.6459288597107,361.64921712875366,361.65980648994446,361.8037521839142,361.8037521839142,361.8037521839142,361.8037521839142,361.8037521839142,361.8037521839142,361.8037521839142,362.5226709842682,3,0.8609120845794678,None,,,,,,,,,,,,,,,,,,157,2,2025-02-28_10h58.51.586,comp,2024.2.4,None,2025-02-28 10h58.59.289184 -0500,
107,107,0,critical,hwd,35.0,3.0,lower,133.0,57.0,57.0,133.0,70.0,70.0,2,3.797548294067383,None,,,,,0,0,0,0,0,107,107,98,362.539021730423,,,,,,,,,,,,,,,,,,,,,,,,,,,,,,,,,,,,,,,,,,,,,,,,,,,,,,,,,,,,,,,,,,,,,,,,,,,,,,,,,133.0,57.0,57.0,133.0,70.0,70.0,3.0,3.1,-191,272,0,-12,198,-256,362.52437472343445,362.52450132369995,362.52762961387634,362.539021730423,362.68712067604065,362.68712067604065,362.68712067604065,362.68712067604065,362.68712067604065,362.68712067604065,362.68712067604065,366.3386013507843,2,3.797548294067383,None,,,,,,,,,,,,,,,,,,157,2,2025-02-28_10h58.51.586,comp,2024.2.4,None,2025-02-28 10h58.59.289184 -0500,
108,108,0,filler_square,None,None,None,None,None,None,None,None,None,None,1,3.0075011253356934,None,,,,,0,0,0,0,0,108,108,206,366.3549873828888,,,,,,,,,,,,,,,,,,,,,,,,,,,,,,,,,,,,,,,,,,,,,,,,,,,,,,,,,,,,,,,,,,,,,,,,,,,,,,,,,182.82728365711938,182.82728365711938,68.82868306139007,155.99595248267835,140.77321482579356,173.03372356816192,1.0,1.1,-745,257,-480,274,-219,277,366.3405315876007,366.3406126499176,366.34404397010803,366.3549873828888,366.50461745262146,366.50461745262146,366.50461745262146,366.50461745262146,366.50461745262146,366.50461745262146,366.50461745262146,369.3731846809387,1,3.0075011253356934,None,,,,,,,,,,,,,,,,,,157,2,2025-02-28_10h58.51.586,comp,2024.2.4,None,2025-02-28 10h58.59.289184 -0500,
109,109,0,filler_random,None,None,None,None,None,None,None,None,None,None,3,3.517183303833008,None,,,,,0,0,0,0,0,109,109,159,369.38771891593933,,,,,,,,,,,,,,,,,,,,,,,,,,,,,,,,,,,,,,,,,,,,,,,,,,,,,,,,,,,,,,,,,,,,,,,,,,,,,,,,,156.6835518116286,153.17116377210206,180.31935876151385,161.93872183536547,196.03396516784184,153.7043507870064,3.0,3.1,-254,278,0,8,254,-269,369.37491393089294,369.37499380111694,369.3781623840332,369.38771891593933,369.54030585289,369.54030585289,369.54030585289,369.54030585289,369.54030585289,369.54030585289,369.54030585289,372.923220872879,3,3.517183303833008,None,,,,,,,,,,,,,,,,,,157,2,2025-02-28_10h58.51.586,comp,2024.2.4,None,2025-02-28 10h58.59.289184 -0500,
110,110,0,critical,hdw,20.0,3.0,lower,133.0,57.0,78.0,78.0,57.0,133.0,3,33.532238483428955,None,,,,,0,0,0,0,0,110,110,116,372.94043469429016,,,,,,,,,,,,,,,,,,,,,,,,,,,,,,,,,,,,,,,,,,,,,,,,,,,,,,,,,,,,,,,,,,,,,,,,,,,,,,,,,133.0,57.0,78.0,78.0,57.0,133.0,3.0,3.1,-164,265,0,-9,202,-260,372.9247856140137,372.92486238479614,372.9279234409332,372.94043469429016,373.09145855903625,373.09145855903625,373.09145855903625,373.09145855903625,373.09145855903625,373.09145855903625,373.09145855903625,406.4847025871277,3,33.532238483428955,None,,,,,,,,,,,,,,,,,,157,2,2025-02-28_10h58.51.586,comp,2024.2.4,None,2025-02-28 10h58.59.289184 -0500,
111,111,0,filler_square,None,None,None,None,None,None,None,None,None,None,1,1.7213239669799805,None,,,,,0,0,0,0,0,111,111,170,406.5039439201355,,,,,,,,,,,,,,,,,,,,,,,,,,,,,,,,,,,,,,,,,,,,,,,,,,,,,,,,,,,,,,,,,,,,,,,,,,,,,,,,,86.9317096513646,86.9317096513646,76.1645420008754,61.03811181043967,60.03362736715066,58.579915034794695,4.0,4.1,-170,-283,0,-10,156,-265,406.486469745636,406.48653531074524,406.4893333911896,406.5039439201355,406.6517415046692,406.6517415046692,406.6517415046692,406.6517415046692,406.6517415046692,406.6517415046692,406.6517415046692,408.2349314689636,1,1.7213239669799805,None,,,,,,,,,,,,,,,,,,157,2,2025-02-28_10h58.51.586,comp,2024.2.4,None,2025-02-28 10h58.59.289184 -0500,
112,112,0,critical,hwd,35.0,2.1,lower,133.0,57.0,57.0,133.0,70.0,70.0,2,16.41265630722046,None,,,,,0,0,0,0,0,112,112,16,408.2527847290039,,,,,,,,,,,,,,,,,,,,,,,,,,,,,,,,,,,,,,,,,,,,,,,,,,,,,,,,,,,,,,,,,,,,,,,,,,,,,,,,,133.0,57.0,57.0,133.0,70.0,70.0,2.1,2.12,-191,-251,0,-285,198,286,408.2364375591278,408.23652029037476,408.23971033096313,408.2527847290039,408.39193391799927,408.39193391799927,408.39193391799927,408.39193391799927,408.39193391799927,408.39193391799927,408.39193391799927,424.6736102104187,2,16.41265630722046,None,,,,,,,,,,,,,,,,,,157,2,2025-02-28_10h58.51.586,comp,2024.2.4,None,2025-02-28 10h58.59.289184 -0500,
113,113,0,filler_square,None,None,None,None,None,None,None,None,None,None,3,14.49751353263855,None,,,,,0,0,0,0,0,113,113,195,424.6879532337189,,,,,,,,,,,,,,,,,,,,,,,,,,,,,,,,,,,,,,,,,,,,,,,,,,,,,,,,,,,,,,,,,,,,,,,,,,,,,,,,,102.56571273995874,75.13938342549358,79.550796009865,127.10061607924546,128.37446105449294,128.37446105449294,2.2,2.22,-197,284,0,-280,224,-254,424.6751356124878,424.675176858902,424.6768260002136,424.6879532337189,424.841068983078,424.841068983078,424.841068983078,424.841068983078,424.841068983078,424.841068983078,424.841068983078,439.1915740966797,3,14.49751353263855,None,,,,,,,,,,,,,,,,,,157,2,2025-02-28_10h58.51.586,comp,2024.2.4,None,2025-02-28 10h58.59.289184 -0500,
114,114,0,critical,wdh,20.0,4.0,upper,125.0,200.0,141.0,141.0,200.0,125.0,1,1.2574706077575684,None,,,,,0,0,0,0,0,114,114,83,439.2074565887451,,,,,,,,,,,,,,,,,,,,,,,,,,,,,,,,,,,,,,,,,,,,,,,,,,,,,,,,,,,,,,,,,,,,,,,,,,,,,,,,,125.0,200.0,141.0,141.0,200.0,125.0,4.0,4.1,-266,-274,0,-3,229,-272,439.19285917282104,439.1929032802582,439.1948170661926,439.2074565887451,439.3578186035156,439.3578186035156,439.3578186035156,439.3578186035156,439.3578186035156,439.3578186035156,439.3578186035156,440.48021721839905,1,1.2574706077575684,None,,,,,,,,,,,,,,,,,,157,2,2025-02-28_10h58.51.586,comp,2024.2.4,None,2025-02-28 10h58.59.289184 -0500,
115,115,0,filler_random,None,None,None,None,None,None,None,None,None,None,1,4.600946426391602,None,,,,,0,0,0,0,0,115,115,146,440.4959626197815,,,,,,,,,,,,,,,,,,,,,,,,,,,,,,,,,,,,,,,,,,,,,,,,,,,,,,,,,,,,,,,,,,,,,,,,,,,,,,,,,101.0348148163249,78.71266719595879,61.71136684852504,157.45867573296607,74.14517845695637,61.988142266133046,3.0,3.2,-214,-251,0,-16,206,261,440.48206067085266,440.4821379184723,440.48562002182007,440.4959626197815,440.6440415382385,440.6440415382385,440.6440415382385,440.6440415382385,440.6440415382385,440.6440415382385,440.6440415382385,445.1140208244324,1,4.600946426391602,None,,,,,,,,,,,,,,,,,,157,2,2025-02-28_10h58.51.586,comp,2024.2.4,None,2025-02-28 10h58.59.289184 -0500,
116,116,0,critical,dwh,20.0,1.0,upper,141.0,141.0,125.0,200.0,200.0,125.0,1,2.4378106594085693,None,,,,,0,0,0,0,0,116,116,67,445.1318950653076,,,,,,,,,,,,,,,,,,,,,,,,,,,,,,,,,,,,,,,,,,,,,,,,,,,,,,,,,,,,,,,,,,,,,,,,,,,,,,,,,141.0,141.0,125.0,200.0,200.0,125.0,1.0,1.1,-746,257,-480,266,-222,278,445.1155982017517,445.11567306518555,445.1186001300812,445.1318950653076,445.2805607318878,445.2805607318878,445.2805607318878,445.2805607318878,445.2805607318878,445.2805607318878,445.2805607318878,447.578236579895,1,2.4378106594085693,None,,,,,,,,,,,,,,,,,,157,2,2025-02-28_10h58.51.586,comp,2024.2.4,None,2025-02-28 10h58.59.289184 -0500,
117,117,0,filler_square,None,None,None,None,None,None,None,None,None,None,1,3.5113470554351807,None,,,,,0,0,0,0,0,117,117,186,447.59516763687134,,,,,,,,,,,,,,,,,,,,,,,,,,,,,,,,,,,,,,,,,,,,,,,,,,,,,,,,,,,,,,,,,,,,,,,,,,,,,,,,,103.2276109244927,103.2276109244927,79.33448597733107,60.70739523208119,78.97241279177382,102.95284035741695,3.0,3.2,-178,-259,0,12,178,259,447.57995438575745,447.5800311565399,447.5828504562378,447.59516763687134,447.74728298187256,447.74728298187256,447.74728298187256,447.74728298187256,447.74728298187256,447.74728298187256,447.74728298187256,451.1140115261078,1,3.5113470554351807,None,,,,,,,,,,,,,,,,,,157,2,2025-02-28_10h58.51.586,comp,2024.2.4,None,2025-02-28 10h58.59.289184 -0500,
118,118,0,catch,None,None,None,None,None,None,None,None,None,None,3,1.7022840976715088,None,,,,,0,0,0,0,0,118,118,128,451.1305630207062,,,,,,,,,,,,,,,,,,,,,,,,,,,,,,,,,,,,,,,,,,,,,,,,,,,,,,,,,,,,,,,,,,,,,,,,,,,,,,,,,101,89,99,91,133,192,2.1,2.11,-186,253,0,273,238,-283,451.11587262153625,451.1159496307373,451.11903500556946,451.1305630207062,451.28196811676025,451.28196811676025,451.28196811676025,451.28196811676025,451.28196811676025,451.28196811676025,451.28196811676025,452.8497998714447,3,1.7022840976715088,None,,,,,,,,,,,,,,,,,,157,2,2025-02-28_10h58.51.586,comp,2024.2.4,None,2025-02-28 10h58.59.289184 -0500,
119,119,0,filler_square,None,None,None,None,None,None,None,None,None,None,1,1.3757236003875732,None,,,,,0,0,0,0,0,119,119,181,452.86513471603394,,,,,,,,,,,,,,,,,,,,,,,,,,,,,,,,,,,,,,,,,,,,,,,,,,,,,,,,,,,,,,,,,,,,,,,,,,,,,,,,,97.36253532831287,97.36253532831287,63.73937959236517,70.90947403550719,67.59226268295227,86.05625088846082,1.0,1.2,-180,-10,0,-6,174,-12,452.8514938354492,452.85156750679016,452.8548958301544,452.86513471603394,453.0184531211853,453.0184531211853,453.0184531211853,453.0184531211853,453.0184531211853,453.0184531211853,453.0184531211853,454.25039172172546,1,1.3757236003875732,None,,,,,,,,,,,,,,,,,,157,2,2025-02-28_10h58.51.586,comp,2024.2.4,None,2025-02-28 10h58.59.289184 -0500,
120,120,0,critical,hdw,35.0,4.0,upper,200.0,125.0,127.0,127.0,125.0,200.0,1,20.031079053878784,None,,,,,0,0,0,0,0,120,120,113,454.2663383483887,,,,,,,,,,,,,,,,,,,,,,,,,,,,,,,,,,,,,,,,,,,,,,,,,,,,,,,,,,,,,,,,,,,,,,,,,,,,,,,,,200.0,125.0,127.0,127.0,125.0,200.0,4.0,4.2,-222,17,0,-263,260,4,454.2520332336426,454.25211119651794,454.2555561065674,454.2663383483887,454.4165074825287,454.4165074825287,454.4165074825287,454.4165074825287,454.4165074825287,454.4165074825287,454.4165074825287,474.3025426864624,1,20.031079053878784,None,,,,,,,,,,,,,,,,,,157,2,2025-02-28_10h58.51.586,comp,2024.2.4,None,2025-02-28 10h58.59.289184 -0500,
121,121,0,critical,hwd,35.0,4.0,lower,133.0,57.0,57.0,133.0,70.0,70.0,2,1.6499528884887695,None,,,,,0,0,0,0,0,121,121,100,474.3194410800934,,,,,,,,,,,,,,,,,,,,,,,,,,,,,,,,,,,,,,,,,,,,,,,,,,,,,,,,,,,,,,,,,,,,,,,,,,,,,,,,,133.0,57.0,57.0,133.0,70.0,70.0,4.0,4.2,-191,0,0,-254,198,-10,474.30394220352173,474.3040015697479,474.3066563606262,474.3194410800934,474.4607241153717,474.4607241153717,474.4607241153717,474.4607241153717,474.4607241153717,474.4607241153717,474.4607241153717,475.977902173996,2,1.6499528884887695,None,,,,,,,,,,,,,,,,,,157,2,2025-02-28_10h58.51.586,comp,2024.2.4,None,2025-02-28 10h58.59.289184 -0500,
122,122,0,critical,hwd,20.0,2.1,upper,200.0,125.0,125.0,200.0,141.0,141.0,1,7.709416389465332,None,,,,,0,0,0,0,0,122,122,19,475.9959907531738,,,,,,,,,,,,,,,,,,,,,,,,,,,,,,,,,,,,,,,,,,,,,,,,,,,,,,,,,,,,,,,,,,,,,,,,,,,,,,,,,200.0,125.0,125.0,200.0,141.0,141.0,2.1,2.11,-258,281,0,284,266,-284,475.9794342517853,475.979514837265,475.98232436180115,475.9959907531738,476.1392948627472,476.1392948627472,476.1392948627472,476.1392948627472,476.1392948627472,476.1392948627472,476.1392948627472,483.7121424674988,1,7.709416389465332,None,,,,,,,,,,,,,,,,,,157,2,2025-02-28_10h58.51.586,comp,2024.2.4,None,2025-02-28 10h58.59.289184 -0500,
123,123,0,critical,wdh,35.0,4.0,lower,57.0,133.0,70.0,70.0,133.0,57.0,1,3.825775623321533,None,,,,,0,0,0,0,0,123,123,76,483.72833585739136,,,,,,,,,,,,,,,,,,,,,,,,,,,,,,,,,,,,,,,,,,,,,,,,,,,,,,,,,,,,,,,,,,,,,,,,,,,,,,,,,57.0,133.0,70.0,70.0,133.0,57.0,4.0,4.2,-198,3,0,-259,160,12,483.71370482444763,483.7137825489044,483.71760869026184,483.72833585739136,483.8756728172302,483.8756728172302,483.8756728172302,483.8756728172302,483.8756728172302,483.8756728172302,483.8756728172302,487.55807638168335,1,3.825775623321533,None,,,,,,,,,,,,,,,,,,157,2,2025-02-28_10h58.51.586,comp,2024.2.4,None,2025-02-28 10h58.59.289184 -0500,
124,124,0,critical,whd,35.0,1.0,upper,125.0,200.0,200.0,125.0,127.0,127.0,1,8.418511629104614,None,,,,,0,0,0,0,0,124,124,85,487.574321269989,,,,,,,,,,,,,,,,,,,,,,,,,,,,,,,,,,,,,,,,,,,,,,,,,,,,,,,,,,,,,,,,,,,,,,,,,,,,,,,,,125.0,200.0,200.0,125.0,127.0,127.0,1.0,1.1,-738,279,-480,284,-258,272,487.55974292755127,487.55982303619385,487.5631458759308,487.574321269989,487.72948956489563,487.72948956489563,487.72948956489563,487.72948956489563,487.72948956489563,487.72948956489563,487.72948956489563,496.0048940181732,1,8.418511629104614,None,,,,,,,,,,,,,,,,,,157,2,2025-02-28_10h58.51.586,comp,2024.2.4,None,2025-02-28 10h58.59.289184 -0500,
125,125,0,critical,wdh,35.0,3.0,lower,57.0,133.0,70.0,70.0,133.0,57.0,1,1.6688110828399658,None,,,,,0,0,0,0,0,125,125,74,496.0200717449188,,,,,,,,,,,,,,,,,,,,,,,,,,,,,,,,,,,,,,,,,,,,,,,,,,,,,,,,,,,,,,,,,,,,,,,,,,,,,,,,,57.0,133.0,70.0,70.0,133.0,57.0,3.0,3.1,-198,276,0,17,160,-272,496.00643134117126,496.00651240348816,496.0093603134155,496.0200717449188,496.1653838157654,496.1653838157654,496.1653838157654,496.1653838157654,496.1653838157654,496.1653838157654,496.1653838157654,497.70189237594604,1,1.6688110828399658,None,,,,,,,,,,,,,,,,,,157,2,2025-02-28_10h58.51.586,comp,2024.2.4,None,2025-02-28 10h58.59.289184 -0500,
126,126,0,critical,hwd,20.0,2.1,lower,133.0,57.0,57.0,133.0,78.0,78.0,2,5.521531105041504,None,,,,,0,0,0,0,0,126,126,42,497.7200884819031,,,,,,,,,,,,,,,,,,,,,,,,,,,,,,,,,,,,,,,,,,,,,,,,,,,,,,,,,,,,,,,,,,,,,,,,,,,,,,,,,133.0,57.0,57.0,133.0,78.0,78.0,2.1,2.11,-191,288,0,263,202,-250,497.7035870552063,497.7036669254303,497.70690965652466,497.7200884819031,497.8602178096771,497.8602178096771,497.8602178096771,497.8602178096771,497.8602178096771,497.8602178096771,497.8602178096771,503.2483608722687,2,5.521531105041504,None,,,,,,,,,,,,,,,,,,157,2,2025-02-28_10h58.51.586,comp,2024.2.4,None,2025-02-28 10h58.59.289184 -0500,
127,127,0,critical,hwd,35.0,3.0,upper,200.0,125.0,125.0,200.0,127.0,127.0,2,1.7925331592559814,None,,,,,0,0,0,0,0,127,127,99,503.2643609046936,,,,,,,,,,,,,,,,,,,,,,,,,,,,,,,,,,,,,,,,,,,,,,,,,,,,,,,,,,,,,,,,,,,,,,,,,,,,,,,,,200.0,125.0,125.0,200.0,127.0,127.0,3.0,3.1,-258,253,0,-4,260,-283,503.24993658065796,503.2500174045563,503.25341176986694,503.2643609046936,503.41765832901,503.41765832901,503.41765832901,503.41765832901,503.41765832901,503.41765832901,503.41765832901,505.0670964717865,2,1.7925331592559814,None,,,,,,,,,,,,,,,,,,157,2,2025-02-28_10h58.51.586,comp,2024.2.4,None,2025-02-28 10h58.59.289184 -0500,
128,128,0,critical,dhw,35.0,4.0,upper,127.0,127.0,200.0,125.0,125.0,200.0,3,2.097365379333496,None,,,,,0,0,0,0,0,128,128,53,505.0802264213562,,,,,,,,,,,,,,,,,,,,,,,,,,,,,,,,,,,,,,,,,,,,,,,,,,,,,,,,,,,,,,,,,,,,,,,,,,,,,,,,,127.0,127.0,200.0,125.0,125.0,200.0,4.0,4.1,-222,-252,0,-15,258,-274,505.0685122013092,505.0685613155365,505.0697798728943,505.0802264213562,505.2298655509949,505.2298655509949,505.2298655509949,505.2298655509949,505.2298655509949,505.2298655509949,505.2298655509949,507.18421149253845,3,2.097365379333496,None,,,,,,,,,,,,,,,,,,157,2,2025-02-28_10h58.51.586,comp,2024.2.4,None,2025-02-28 10h58.59.289184 -0500,
129,129,0,filler_square,None,None,None,None,None,None,None,None,None,None,1,2.1480515003204346,None,,,,,0,0,0,0,0,129,129,200,507.2056725025177,,,,,,,,,,,,,,,,,,,,,,,,,,,,,,,,,,,,,,,,,,,,,,,,,,,,,,,,,,,,,,,,,,,,,,,,,,,,,,,,,132.97461005467648,132.97461005467648,58.68094197380062,123.51302635020168,106.9275052014437,129.81701606121476,2.2,2.21,-224,-254,0,251,223,275,507.1863193511963,507.18643522262573,507.1898248195648,507.2056725025177,507.3502769470215,507.3502769470215,507.3502769470215,507.3502769470215,507.3502769470215,507.3502769470215,507.3502769470215,509.3565413951874,1,2.1480515003204346,None,,,,,,,,,,,,,,,,,,157,2,2025-02-28_10h58.51.586,comp,2024.2.4,None,2025-02-28 10h58.59.289184 -0500,
130,130,0,critical,hdw,35.0,1.0,upper,200.0,125.0,127.0,127.0,125.0,200.0,3,4.3968260288238525,None,,,,,0,0,0,0,0,130,130,109,509.37253522872925,,,,,,,,,,,,,,,,,,,,,,,,,,,,,,,,,,,,,,,,,,,,,,,,,,,,,,,,,,,,,,,,,,,,,,,,,,,,,,,,,200.0,125.0,127.0,127.0,125.0,200.0,1.0,1.2,-222,-12,0,19,260,-10,509.35801696777344,509.3580913543701,509.3609664440155,509.37253522872925,509.5176341533661,509.5176341533661,509.5176341533661,509.5176341533661,509.5176341533661,509.5176341533661,509.5176341533661,513.7861318588257,3,4.3968260288238525,None,,,,,,,,,,,,,,,,,,157,2,2025-02-28_10h58.51.586,comp,2024.2.4,None,2025-02-28 10h58.59.289184 -0500,
131,131,0,critical,dwh,20.0,3.0,lower,78.0,78.0,57.0,133.0,133.0,57.0,2,1.4464807510375977,None,,,,,0,0,0,0,0,131,131,68,513.8025798797607,,,,,,,,,,,,,,,,,,,,,,,,,,,,,,,,,,,,,,,,,,,,,,,,,,,,,,,,,,,,,,,,,,,,,,,,,,,,,,,,,78.0,78.0,57.0,133.0,133.0,57.0,3.0,3.1,-202,278,0,7,191,-258,513.7877151966095,513.787841796875,513.7918031215668,513.8025798797607,513.9523756504059,513.9523756504059,513.9523756504059,513.9523756504059,513.9523756504059,513.9523756504059,513.9523756504059,515.2543280124664,2,1.4464807510375977,None,,,,,,,,,,,,,,,,,,157,2,2025-02-28_10h58.51.586,comp,2024.2.4,None,2025-02-28 10h58.59.289184 -0500,
132,132,0,critical,hdw,20.0,2.1,lower,133.0,57.0,78.0,78.0,57.0,133.0,3,3.2801642417907715,None,,,,,0,0,0,0,0,132,132,46,515.2727954387665,,,,,,,,,,,,,,,,,,,,,,,,,,,,,,,,,,,,,,,,,,,,,,,,,,,,,,,,,,,,,,,,,,,,,,,,,,,,,,,,,133.0,57.0,78.0,78.0,57.0,133.0,2.1,2.12,-164,-269,0,-260,202,257,515.2560801506042,515.2561986446381,515.2596302032471,515.2727954387665,515.421671628952,515.421671628952,515.421671628952,515.421671628952,515.421671628952,515.421671628952,515.421671628952,518.5694217681885,3,3.2801642417907715,None,,,,,,,,,,,,,,,,,,157,2,2025-02-28_10h58.51.586,comp,2024.2.4,None,2025-02-28 10h58.59.289184 -0500,
133,133,0,critical,hdw,20.0,2.1,upper,200.0,125.0,141.0,141.0,125.0,200.0,3,5.376320123672485,None,,,,,0,0,0,0,0,133,133,47,518.5849475860596,,,,,,,,,,,,,,,,,,,,,,,,,,,,,,,,,,,,,,,,,,,,,,,,,,,,,,,,,,,,,,,,,,,,,,,,,,,,,,,,,200.0,125.0,141.0,141.0,125.0,200.0,2.1,2.11,-229,287,0,277,266,-275,518.5709805488586,518.5710606575012,518.5744607448578,518.5849475860596,518.7401285171509,518.7401285171509,518.7401285171509,518.7401285171509,518.7401285171509,518.7401285171509,518.7401285171509,523.9706175327301,3,5.376320123672485,None,,,,,,,,,,,,,,,,,,157,2,2025-02-28_10h58.51.586,comp,2024.2.4,None,2025-02-28 10h58.59.289184 -0500,
134,134,0,critical,dwh,35.0,4.0,upper,127.0,127.0,125.0,200.0,200.0,125.0,2,1.4376466274261475,None,,,,,0,0,0,0,0,134,134,65,523.9875204563141,,,,,,,,,,,,,,,,,,,,,,,,,,,,,,,,,,,,,,,,,,,,,,,,,,,,,,,,,,,,,,,,,,,,,,,,,,,,,,,,,127.0,127.0,125.0,200.0,200.0,125.0,4.0,4.1,-260,-263,0,7,258,-261,523.9721806049347,523.97225689888,523.9756543636322,523.9875204563141,524.1361887454987,524.1361887454987,524.1361887454987,524.1361887454987,524.1361887454987,524.1361887454987,524.1361887454987,525.4405131340027,2,1.4376466274261475,None,,,,,,,,,,,,,,,,,,157,2,2025-02-28_10h58.51.586,comp,2024.2.4,None,2025-02-28 10h58.59.289184 -0500,
135,135,0,critical,whd,20.0,2.1,upper,125.0,200.0,200.0,125.0,141.0,141.0,1,18.416800260543823,None,,,,,0,0,0,0,0,135,135,39,525.4570343494415,,,,,,,,,,,,,,,,,,,,,,,,,,,,,,,,,,,,,,,,,,,,,,,,,,,,,,,,,,,,,,,,,,,,,,,,,,,,,,,,,125.0,200.0,200.0,125.0,141.0,141.0,2.1,2.11,-258,272,0,251,229,-254,525.4422950744629,525.4424579143524,525.4465024471283,525.4570343494415,525.6058762073517,525.6058762073517,525.6058762073517,525.6058762073517,525.6058762073517,525.6058762073517,525.6058762073517,543.8776938915253,1,18.416800260543823,None,,,,,,,,,,,,,,,,,,157,2,2025-02-28_10h58.51.586,comp,2024.2.4,None,2025-02-28 10h58.59.289184 -0500,
136,136,0,critical,whd,20.0,3.0,upper,125.0,200.0,200.0,125.0,141.0,141.0,1,2.906134605407715,None,,,,,0,0,0,0,0,136,136,93,543.8948550224304,,,,,,,,,,,,,,,,,,,,,,,,,,,,,,,,,,,,,,,,,,,,,,,,,,,,,,,,,,,,,,,,,,,,,,,,,,,,,,,,,125.0,200.0,200.0,125.0,141.0,141.0,3.0,3.2,-258,-282,0,17,229,276,543.879109621048,543.8791751861572,543.8826949596405,543.8948550224304,544.0303881168365,544.0303881168365,544.0303881168365,544.0303881168365,544.0303881168365,544.0303881168365,544.0303881168365,546.812908411026,1,2.906134605407715,None,,,,,,,,,,,,,,,,,,157,2,2025-02-28_10h58.51.586,comp,2024.2.4,None,2025-02-28 10h58.59.289184 -0500,
137,137,0,critical,whd,20.0,2.1,upper,125.0,200.0,200.0,125.0,141.0,141.0,1,2.284618854522705,None,,,,,0,0,0,0,0,137,137,15,546.8284888267517,,,,,,,,,,,,,,,,,,,,,,,,,,,,,,,,,,,,,,,,,,,,,,,,,,,,,,,,,,,,,,,,,,,,,,,,,,,,,,,,,125.0,200.0,200.0,125.0,141.0,141.0,2.1,2.12,-258,-271,0,-270,229,252,546.8145413398743,546.8146171569824,546.8178942203522,546.8284888267517,546.9826669692993,546.9826669692993,546.9826669692993,546.9826669692993,546.9826669692993,546.9826669692993,546.9826669692993,549.1322965621948,1,2.284618854522705,None,,,,,,,,,,,,,,,,,,157,2,2025-02-28_10h58.51.586,comp,2024.2.4,None,2025-02-28 10h58.59.289184 -0500,
138,138,0,critical,wdh,35.0,4.0,upper,125.0,200.0,127.0,127.0,200.0,125.0,1,1.737713098526001,None,,,,,0,0,0,0,0,138,138,77,549.1520173549652,,,,,,,,,,,,,,,,,,,,,,,,,,,,,,,,,,,,,,,,,,,,,,,,,,,,,,,,,,,,,,,,,,,,,,,,,,,,,,,,,125.0,200.0,127.0,127.0,200.0,125.0,4.0,4.2,-260,6,0,-259,222,-10,549.1337668895721,549.1338627338409,549.1367833614349,549.1520173549652,549.2962186336517,549.2962186336517,549.2962186336517,549.2962186336517,549.2962186336517,549.2962186336517,549.2962186336517,550.8973474502563,1,1.737713098526001,None,,,,,,,,,,,,,,,,,,157,2,2025-02-28_10h58.51.586,comp,2024.2.4,None,2025-02-28 10h58.59.289184 -0500,
139,139,0,critical,dhw,20.0,2.1,upper,141.0,141.0,200.0,125.0,125.0,200.0,1,4.192855596542358,None,,,,,0,0,0,0,0,139,139,3,550.9136822223663,,,,,,,,,,,,,,,,,,,,,,,,,,,,,,,,,,,,,,,,,,,,,,,,,,,,,,,,,,,,,,,,,,,,,,,,,,,,,,,,,141.0,141.0,200.0,125.0,125.0,200.0,2.1,2.11,-229,256,0,262,258,-259,550.8989961147308,550.8991141319275,550.902925491333,550.9136822223663,551.0674886703491,551.0674886703491,551.0674886703491,551.0674886703491,551.0674886703491,551.0674886703491,551.0674886703491,555.112633228302,1,4.192855596542358,None,,,,,,,,,,,,,,,,,,157,2,2025-02-28_10h58.51.586,comp,2024.2.4,None,2025-02-28 10h58.59.289184 -0500,
140,140,0,critical,whd,35.0,2.1,lower,57.0,133.0,133.0,57.0,70.0,70.0,1,17.60118079185486,None,,,,,0,0,0,0,0,140,140,12,555.127932548523,,,,,,,,,,,,,,,,,,,,,,,,,,,,,,,,,,,,,,,,,,,,,,,,,,,,,,,,,,,,,,,,,,,,,,,,,,,,,,,,,57.0,133.0,133.0,57.0,70.0,70.0,2.1,2.12,-191,-267,0,-260,160,265,555.1141395568848,555.1142208576202,555.1170947551727,555.127932548523,555.281759262085,555.281759262085,555.281759262085,555.281759262085,555.281759262085,555.281759262085,555.281759262085,572.7427411079407,1,17.60118079185486,None,,,,,,,,,,,,,,,,,,157,2,2025-02-28_10h58.51.586,comp,2024.2.4,None,2025-02-28 10h58.59.289184 -0500,
141,141,0,catch,None,None,None,None,None,None,None,None,None,None,2,8.71527624130249,None,,,,,0,0,0,0,0,141,141,129,572.7579381465912,,,,,,,,,,,,,,,,,,,,,,,,,,,,,,,,,,,,,,,,,,,,,,,,,,,,,,,,,,,,,,,,,,,,,,,,,,,,,,,,,130,60,180,145,92,98,4.0,4.2,-198,5,0,-259,218,-10,572.7446475028992,572.744726896286,572.7476141452789,572.7579381465912,572.9022023677826,572.9022023677826,572.9022023677826,572.9022023677826,572.9022023677826,572.9022023677826,572.9022023677826,581.4945464134216,2,8.71527624130249,None,,,,,,,,,,,,,,,,,,157,2,2025-02-28_10h58.51.586,comp,2024.2.4,None,2025-02-28 10h58.59.289184 -0500,
142,142,0,filler_square,None,None,None,None,None,None,None,None,None,None,2,2.138672351837158,None,,,,,0,0,0,0,0,142,142,172,581.5103685855865,,,,,,,,,,,,,,,,,,,,,,,,,,,,,,,,,,,,,,,,,,,,,,,,,,,,,,,,,,,,,,,,,,,,,,,,,,,,,,,,,69.61965334840754,59.5723672611273,89.30881083974717,89.30881083974717,74.30577943710004,58.588403509181596,2.1,2.12,-170,-284,0,-262,170,267,581.4966745376587,581.4967336654663,581.4992735385895,581.5103685855865,581.6560521125793,581.6560521125793,581.6560521125793,581.6560521125793,581.6560521125793,581.6560521125793,581.6560521125793,583.6628143787384,2,2.138672351837158,None,,,,,,,,,,,,,,,,,,157,2,2025-02-28_10h58.51.586,comp,2024.2.4,None,2025-02-28 10h58.59.289184 -0500,
143,143,0,critical,wdh,20.0,3.0,upper,125.0,200.0,141.0,141.0,200.0,125.0,1,34.078495264053345,None,,,,,0,0,0,0,0,143,143,81,583.6836411952972,,,,,,,,,,,,,,,,,,,,,,,,,,,,,,,,,,,,,,,,,,,,,,,,,,,,,,,,,,,,,,,,,,,,,,,,,,,,,,,,,125.0,200.0,141.0,141.0,200.0,125.0,3.0,3.1,-266,274,0,6,229,-258,583.6644790172577,583.664559841156,583.6678745746613,583.6836411952972,583.8259823322296,583.8259823322296,583.8259823322296,583.8259823322296,583.8259823322296,583.8259823322296,583.8259823322296,617.7719202041626,1,34.078495264053345,None,,,,,,,,,,,,,,,,,,157,2,2025-02-28_10h58.51.586,comp,2024.2.4,None,2025-02-28 10h58.59.289184 -0500,
