thisN,thisTrialN,thisRepN,effect,order,distance,config,diag,h_1,w_1,h_2,w_2,h_3,w_3,rect_choice.keys,rect_choice.rt,rect_choice.duration,instructions_loop.thisRepN,instructions_loop.thisTrialN,instructions_loop.thisN,instructions_loop.thisIndex,blocks.thisRepN,blocks.thisTrialN,blocks.thisN,blocks.thisIndex,trials.thisRepN,trials.thisTrialN,trials.thisN,trials.thisIndex,thisRow.t,notes,consent.started,agree_button.started,decline_button.started,consent_img.started,mouse.started,consent.stopped,agree_button.numClicks,agree_button.timesOn,agree_button.timesOff,decline_button.numClicks,decline_button.timesOn,decline_button.timesOff,mouse.x,mouse.y,mouse.leftButton,mouse.midButton,mouse.rightButton,mouse.time,mouse.clicked_name,exp_params.started,exp_params.stopped,welcome.started,welcome_text.started,welcome.stopped,instructions_1.started,instructions_1_text_1.started,instructions_1_text_2.started,key_resp.started,instructions_1.stopped,instructions_loop.key_resp.keys,instructions_loop.key_resp.rt,instructions_loop.key_resp.duration,instructions_2.started,instructions_2_text_1.started,instructions_2_text_2.started,key_resp_2.started,instructions_2.stopped,instructions_loop.key_resp_2.keys,instructions_loop.key_resp_2.rt,instructions_loop.key_resp_2.duration,instructions_3.started,instructions_3_text_1.started,r1_instr3.started,r2_instr3.started,r3_instr3.started,r1_instr3_label.started,r2_instr3_label.started,r3_instr3_label.started,instructions_3_text_3.started,instructions_3_text_4.started,key_resp_3.started,instructions_3.stopped,instructions_loop.key_resp_3.keys,instructions_loop.key_resp_3.rt,instructions_loop.key_resp_3.duration,instructions_4.started,instructions_4_text_1.started,instructions_4_text_3.started,instructions_4_text_2.started,key_resp_4.started,instructions_4.stopped,instructions_loop.key_resp_4.keys,instructions_loop.key_resp_4.rt,instructions_loop.key_resp_4.duration,instructions_5.started,instructions_5_text_1.started,instructions_5_text_2.started,key_resp_5.started,instructions_5.stopped,instructions_loop.key_resp_5.keys,instructions_loop.key_resp_5.rt,instructions_loop.key_resp_5.duration,start_exp.started,start_exp_text.started,key_resp_6.started,start_exp.stopped,key_resp_6.keys,key_resp_6.rt,key_resp_6.duration,h_1_tmp,w_1_tmp,h_2_tmp,w_2_tmp,h_3_tmp,w_3_tmp,config_tmp,config_tmp_1,r_1_x,r_1_y,r_2_x,r_2_y,r_3_x,r_3_y,pre_trial.started,pre_trial.stopped,choice_trial.started,rect_choice.started,r_1.started,r_2.started,r_3.started,r_1_label.started,r_2_label.started,r_3_label.started,prompt.started,choice_trial.stopped,trials.rect_choice.keys,trials.rect_choice.rt,trials.rect_choice.duration,end_block.started,end_block_text.started,end_block.stopped,end.started,end_text.started,key_resp_7.started,end.stopped,key_resp_7.keys,key_resp_7.rt,key_resp_7.duration,debriefing.started,debrief_form.started,end_debrief.started,debriefing.stopped,end_debrief.keys,end_debrief.rt,end_debrief.duration,participant,computer,date,expName,psychopyVersion,frameRate,expStart,
,,,,,,,,,,,,,,,,,,,,,,,,,,,,,,,0.01532125473022461,0.04216909408569336,0.04216909408569336,0.04216909408569336,0.015004396438598633,62.555800437927246,1,[62.5124135017395],[62.5124237537384],0,,,[-94.0],[-509.0],[1],[0],[0],[62.53992319107056],['agree_button'],,,,,,,,,,,,,,,,,,,,,,,,,,,,,,,,,,,,,,,,,,,,,,,,,,,,,,,,,,,,,,,,,,,,,,,,,,,,,,,,,,,,,,,,,,,,,,,,,,,,,,,,,,,158,3,2025-02-28_11h02.12.726,comp,2024.2.4,60.08945430581224,2025-02-28 11h02.20.022893 -0500,
,,,,,,,,,,,,,,,,,,,,,,,,,,,,,,,,,,,,,,,,,,,,,,,,,,62.55607271194458,62.556105852127075,,,,,,,,,,,,,,,,,,,,,,,,,,,,,,,,,,,,,,,,,,,,,,,,,,,,,,,,,,,,,,,,,,,,,,,,,,,,,,,,,,,,,,,,,,,,,,,,,,,,,,,,,158,3,2025-02-28_11h02.12.726,comp,2024.2.4,60.08945430581224,2025-02-28 11h02.20.022893 -0500,
,,,,,,,,,,,,,,,,,,,,,,,,,,,,,,,,,,,,,,,,,,,,,,,,,,,,62.55612778663635,62.569294691085815,64.56459283828735,,,,,,,,,,,,,,,,,,,,,,,,,,,,,,,,,,,,,,,,,,,,,,,,,,,,,,,,,,,,,,,,,,,,,,,,,,,,,,,,,,,,,,,,,,,,,,,,,,,,,,158,3,2025-02-28_11h02.12.726,comp,2024.2.4,60.08945430581224,2025-02-28 11h02.20.022893 -0500,
0,0,0,,,,,,,,,,,,,,,0,0,0,0,,,,,,,,,64.58144426345825,,,,,,,,,,,,,,,,,,,,,,,,,,64.56515693664551,64.58144426345825,64.58144426345825,66.06463193893433,70.73269748687744,space,4.652078866958618,None,70.73277759552002,70.74810338020325,70.74810338020325,72.23189330101013,80.76572465896606,space,8.525251150131226,None,80.76580905914307,80.78768348693848,80.78768348693848,80.78768348693848,80.78768348693848,80.78768348693848,80.78768348693848,80.78768348693848,80.78768348693848,80.78768348693848,82.26503729820251,86.3162362575531,space,4.035498857498169,None,86.31632328033447,86.33150506019592,86.33150506019592,86.33150506019592,87.8312258720398,95.83230400085449,space,7.988858461380005,None,95.83238911628723,95.84788823127747,95.84788823127747,97.34782099723816,97.94891357421875,space,0.5934174060821533,None,97.94904613494873,97.96478009223938,97.96478009223938,99.21567106246948,space,1.249690055847168,None,,,,,,,,,,,,,,,,,,,,,,,,,,,,,,,,,,,,,,,,,,,,,,,158,3,2025-02-28_11h02.12.726,comp,2024.2.4,60.08945430581224,2025-02-28 11h02.20.022893 -0500,
0,0,0,filler_random,None,None,None,None,None,None,None,None,None,None,2,11.0420982837677,None,,,,,0,0,0,0,0,0,0,168,99.27396726608276,,,,,,,,,,,,,,,,,,,,,,,,,,,,,,,,,,,,,,,,,,,,,,,,,,,,,,,,,,,,,,,,,,,,,,,,,,,,,,,,,75.68698539988648,62.51408223134176,196.09786755065585,182.9774251331009,158.4681749088482,115.79323996405829,2.2,2.21,-219,-265,0,261,245,271,99.26026749610901,99.26031613349915,99.26233053207397,99.27396726608276,99.41787099838257,99.41787099838257,99.41787099838257,99.41787099838257,99.41787099838257,99.41787099838257,99.41787099838257,110.33229422569275,2,11.0420982837677,None,,,,,,,,,,,,,,,,,,158,3,2025-02-28_11h02.12.726,comp,2024.2.4,60.08945430581224,2025-02-28 11h02.20.022893 -0500,
1,1,0,critical,wdh,35.0,2.1,lower,57.0,133.0,70.0,70.0,133.0,57.0,1,3.5523223876953125,None,,,,,0,0,0,0,0,1,1,8,110.34767246246338,,,,,,,,,,,,,,,,,,,,,,,,,,,,,,,,,,,,,,,,,,,,,,,,,,,,,,,,,,,,,,,,,,,,,,,,,,,,,,,,,57.0,133.0,70.0,70.0,133.0,57.0,2.1,2.11,-198,278,0,270,160,-268,110.33308959007263,110.33312845230103,110.33552265167236,110.34767246246338,110.49805641174316,110.49805641174316,110.49805641174316,110.49805641174316,110.49805641174316,110.49805641174316,110.49805641174316,113.91559386253357,1,3.5523223876953125,None,,,,,,,,,,,,,,,,,,158,3,2025-02-28_11h02.12.726,comp,2024.2.4,60.08945430581224,2025-02-28 11h02.20.022893 -0500,
2,2,0,filler_random,None,None,None,None,None,None,None,None,None,None,2,2.2419991493225098,None,,,,,0,0,0,0,0,2,2,150,113.93109059333801,,,,,,,,,,,,,,,,,,,,,,,,,,,,,,,,,,,,,,,,,,,,,,,,,,,,,,,,,,,,,,,,,,,,,,,,,,,,,,,,,109.70910052105489,93.52282270711152,164.30343459166892,126.38949016382641,133.5961984324181,97.36333280449776,2.1,2.12,-206,-271,0,-270,208,260,113.91655278205872,113.91659283638,113.91919231414795,113.93109059333801,114.08121800422668,114.08121800422668,114.08121800422668,114.08121800422668,114.08121800422668,114.08121800422668,114.08121800422668,116.182363986969,2,2.2419991493225098,None,,,,,,,,,,,,,,,,,,158,3,2025-02-28_11h02.12.726,comp,2024.2.4,60.08945430581224,2025-02-28 11h02.20.022893 -0500,
3,3,0,critical,dwh,20.0,4.0,upper,141.0,141.0,125.0,200.0,200.0,125.0,2,3.726895809173584,None,,,,,0,0,0,0,0,3,3,71,116.19795298576355,,,,,,,,,,,,,,,,,,,,,,,,,,,,,,,,,,,,,,,,,,,,,,,,,,,,,,,,,,,,,,,,,,,,,,,,,,,,,,,,,141.0,141.0,125.0,200.0,200.0,125.0,4.0,4.1,-266,-257,0,8,258,-251,116.18319368362427,116.18323278427124,116.18566393852234,116.19795298576355,116.34791445732117,116.34791445732117,116.34791445732117,116.34791445732117,116.34791445732117,116.34791445732117,116.34791445732117,119.93234419822693,2,3.726895809173584,None,,,,,,,,,,,,,,,,,,158,3,2025-02-28_11h02.12.726,comp,2024.2.4,60.08945430581224,2025-02-28 11h02.20.022893 -0500,
4,4,0,filler_random,None,None,None,None,None,None,None,None,None,None,1,2.4666054248809814,None,,,,,0,0,0,0,0,4,4,154,119.94789004325867,,,,,,,,,,,,,,,,,,,,,,,,,,,,,,,,,,,,,,,,,,,,,,,,,,,,,,,,,,,,,,,,,,,,,,,,,,,,,,,,,170.34123042029114,129.91146655351483,75.55674282519394,176.56801405758603,180.72884813391215,94.896910495307,1.0,1.1,-729,270,-480,266,-248,287,119.93325901031494,119.93329954147339,119.93572735786438,119.94789004325867,120.09809803962708,120.09809803962708,120.09809803962708,120.09809803962708,120.09809803962708,120.09809803962708,120.09809803962708,122.41584014892578,1,2.4666054248809814,None,,,,,,,,,,,,,,,,,,158,3,2025-02-28_11h02.12.726,comp,2024.2.4,60.08945430581224,2025-02-28 11h02.20.022893 -0500,
5,5,0,critical,dhw,20.0,4.0,lower,78.0,78.0,133.0,57.0,57.0,133.0,3,2.445563793182373,None,,,,,0,0,0,0,0,5,5,58,122.43120884895325,,,,,,,,,,,,,,,,,,,,,,,,,,,,,,,,,,,,,,,,,,,,,,,,,,,,,,,,,,,,,,,,,,,,,,,,,,,,,,,,,78.0,78.0,133.0,57.0,57.0,133.0,4.0,4.2,-164,-3,0,-288,191,17,122.41662645339966,122.41666603088379,122.4191300868988,122.43120884895325,122.58104610443115,122.58104610443115,122.58104610443115,122.58104610443115,122.58104610443115,122.58104610443115,122.58104610443115,124.8822283744812,3,2.445563793182373,None,,,,,,,,,,,,,,,,,,158,3,2025-02-28_11h02.12.726,comp,2024.2.4,60.08945430581224,2025-02-28 11h02.20.022893 -0500,
6,6,0,critical,whd,20.0,2.1,upper,125.0,200.0,200.0,125.0,141.0,141.0,2,6.491529941558838,None,,,,,0,0,0,0,0,6,6,39,124.89787650108337,,,,,,,,,,,,,,,,,,,,,,,,,,,,,,,,,,,,,,,,,,,,,,,,,,,,,,,,,,,,,,,,,,,,,,,,,,,,,,,,,125.0,200.0,200.0,125.0,141.0,141.0,2.1,2.11,-258,252,0,257,229,-275,124.88300585746765,124.88305807113647,124.88548421859741,124.89787650108337,125.04803824424744,125.04803824424744,125.04803824424744,125.04803824424744,125.04803824424744,125.04803824424744,125.04803824424744,131.3989236354828,2,6.491529941558838,None,,,,,,,,,,,,,,,,,,158,3,2025-02-28_11h02.12.726,comp,2024.2.4,60.08945430581224,2025-02-28 11h02.20.022893 -0500,
7,7,0,filler_random,None,None,None,None,None,None,None,None,None,None,2,1.9338200092315674,None,,,,,0,0,0,0,0,7,7,163,131.4144332408905,,,,,,,,,,,,,,,,,,,,,,,,,,,,,,,,,,,,,,,,,,,,,,,,,,,,,,,,,,,,,,,,,,,,,,,,,,,,,,,,,125.30140858731774,87.91636829168499,153.44053189018342,134.3216317324408,185.53835493322953,95.89257527144663,1.0,1.3,273,-251,480,-270,691,-273,131.39983081817627,131.3998715877533,131.40219283103943,131.4144332408905,131.56481838226318,131.56481838226318,131.56481838226318,131.56481838226318,131.56481838226318,131.56481838226318,131.56481838226318,133.36567497253418,2,1.9338200092315674,None,,,,,,,,,,,,,,,,,,158,3,2025-02-28_11h02.12.726,comp,2024.2.4,60.08945430581224,2025-02-28 11h02.20.022893 -0500,
8,8,0,critical,hwd,35.0,2.1,lower,133.0,57.0,57.0,133.0,70.0,70.0,2,4.817349195480347,None,,,,,0,0,0,0,0,8,8,40,133.38097476959229,,,,,,,,,,,,,,,,,,,,,,,,,,,,,,,,,,,,,,,,,,,,,,,,,,,,,,,,,,,,,,,,,,,,,,,,,,,,,,,,,133.0,57.0,57.0,133.0,70.0,70.0,2.1,2.11,-191,288,0,261,198,-251,133.36648654937744,133.36652636528015,133.36900687217712,133.38097476959229,133.53128218650818,133.53128218650818,133.53128218650818,133.53128218650818,133.53128218650818,133.53128218650818,133.53128218650818,138.21536493301392,2,4.817349195480347,None,,,,,,,,,,,,,,,,,,158,3,2025-02-28_11h02.12.726,comp,2024.2.4,60.08945430581224,2025-02-28 11h02.20.022893 -0500,
9,9,0,critical,wdh,35.0,4.0,upper,125.0,200.0,127.0,127.0,200.0,125.0,3,10.509798288345337,None,,,,,0,0,0,0,0,9,9,77,138.23083996772766,,,,,,,,,,,,,,,,,,,,,,,,,,,,,,,,,,,,,,,,,,,,,,,,,,,,,,,,,,,,,,,,,,,,,,,,,,,,,,,,,125.0,200.0,127.0,127.0,200.0,125.0,4.0,4.2,-260,-17,0,-259,222,-5,138.21614456176758,138.2161853313446,138.21865892410278,138.23083996772766,138.38117575645447,138.38117575645447,138.38117575645447,138.38117575645447,138.38117575645447,138.38117575645447,138.38117575645447,148.74887824058533,3,10.509798288345337,None,,,,,,,,,,,,,,,,,,158,3,2025-02-28_11h02.12.726,comp,2024.2.4,60.08945430581224,2025-02-28 11h02.20.022893 -0500,
10,10,0,catch,None,None,None,None,None,None,None,None,None,None,2,1.3923094272613525,None,,,,,0,0,0,0,0,10,10,128,148.76448798179626,,,,,,,,,,,,,,,,,,,,,,,,,,,,,,,,,,,,,,,,,,,,,,,,,,,,,,,,,,,,,,,,,,,,,,,,,,,,,,,,,130,60,146,179,126,64,1.0,1.1,-696,278,-480,261,-262,269,148.74993133544922,148.74997305870056,148.75264358520508,148.76448798179626,148.91422605514526,148.91422605514526,148.91422605514526,148.91422605514526,148.91422605514526,148.91422605514526,148.91422605514526,150.16549706459045,2,1.3923094272613525,None,,,,,,,,,,,,,,,,,,158,3,2025-02-28_11h02.12.726,comp,2024.2.4,60.08945430581224,2025-02-28 11h02.20.022893 -0500,
11,11,0,critical,dwh,20.0,4.0,lower,78.0,78.0,57.0,133.0,133.0,57.0,2,3.870940923690796,None,,,,,0,0,0,0,0,11,11,70,150.18127846717834,,,,,,,,,,,,,,,,,,,,,,,,,,,,,,,,,,,,,,,,,,,,,,,,,,,,,,,,,,,,,,,,,,,,,,,,,,,,,,,,,78.0,78.0,57.0,133.0,133.0,57.0,4.0,4.2,-202,8,0,-260,191,10,150.16629076004028,150.16633105278015,150.1684856414795,150.18127846717834,150.3309907913208,150.3309907913208,150.3309907913208,150.3309907913208,150.3309907913208,150.3309907913208,150.3309907913208,154.06524538993835,2,3.870940923690796,None,,,,,,,,,,,,,,,,,,158,3,2025-02-28_11h02.12.726,comp,2024.2.4,60.08945430581224,2025-02-28 11h02.20.022893 -0500,
12,12,0,critical,hdw,35.0,1.0,upper,200.0,125.0,127.0,127.0,125.0,200.0,3,4.749559640884399,None,,,,,0,0,0,0,0,12,12,109,154.08067321777344,,,,,,,,,,,,,,,,,,,,,,,,,,,,,,,,,,,,,,,,,,,,,,,,,,,,,,,,,,,,,,,,,,,,,,,,,,,,,,,,,200.0,125.0,127.0,127.0,125.0,200.0,1.0,1.2,-222,13,0,8,260,3,154.06599974632263,154.06605529785156,154.0684540271759,154.08067321777344,154.2310402393341,154.2310402393341,154.2310402393341,154.2310402393341,154.2310402393341,154.2310402393341,154.2310402393341,158.832275390625,3,4.749559640884399,None,,,,,,,,,,,,,,,,,,158,3,2025-02-28_11h02.12.726,comp,2024.2.4,60.08945430581224,2025-02-28 11h02.20.022893 -0500,
13,13,0,filler_square,None,None,None,None,None,None,None,None,None,None,2,1.5878524780273438,None,,,,,0,0,0,0,0,13,13,205,158.84776377677917,,,,,,,,,,,,,,,,,,,,,,,,,,,,,,,,,,,,,,,,,,,,,,,,,,,,,,,,,,,,,,,,,,,,,,,,,,,,,,,,,107.43978819940413,98.63380592290005,142.92488733125913,142.92488733125913,117.53040179890468,59.67542282951123,1.0,1.1,-697,265,-480,266,-283,280,158.83325242996216,158.8332941532135,158.8356740474701,158.84776377677917,158.99824953079224,158.99824953079224,158.99824953079224,158.99824953079224,158.99824953079224,158.99824953079224,158.99824953079224,160.44859552383423,2,1.5878524780273438,None,,,,,,,,,,,,,,,,,,158,3,2025-02-28_11h02.12.726,comp,2024.2.4,60.08945430581224,2025-02-28 11h02.20.022893 -0500,
14,14,0,critical,whd,20.0,2.1,lower,57.0,133.0,133.0,57.0,78.0,78.0,1,6.603639602661133,None,,,,,0,0,0,0,0,14,14,38,160.46398067474365,,,,,,,,,,,,,,,,,,,,,,,,,,,,,,,,,,,,,,,,,,,,,,,,,,,,,,,,,,,,,,,,,,,,,,,,,,,,,,,,,57.0,133.0,133.0,57.0,78.0,78.0,2.1,2.12,-191,-258,0,-276,164,289,160.44941663742065,160.4494559764862,160.4519727230072,160.46398067474365,160.61421394348145,160.61421394348145,160.61421394348145,160.61421394348145,160.61421394348145,160.61421394348145,160.61421394348145,167.08198404312134,1,6.603639602661133,None,,,,,,,,,,,,,,,,,,158,3,2025-02-28_11h02.12.726,comp,2024.2.4,60.08945430581224,2025-02-28 11h02.20.022893 -0500,
15,15,0,critical,wdh,20.0,1.0,upper,125.0,200.0,141.0,141.0,200.0,125.0,1,2.218273401260376,None,,,,,0,0,0,0,0,15,15,79,167.09733200073242,,,,,,,,,,,,,,,,,,,,,,,,,,,,,,,,,,,,,,,,,,,,,,,,,,,,,,,,,,,,,,,,,,,,,,,,,,,,,,,,,125.0,200.0,141.0,141.0,200.0,125.0,1.0,1.3,214,-261,480,-286,709,-254,167.082759141922,167.0827968120575,167.0863378047943,167.09733200073242,167.2476727962494,167.2476727962494,167.2476727962494,167.2476727962494,167.2476727962494,167.2476727962494,167.2476727962494,169.33207488059998,1,2.218273401260376,None,,,,,,,,,,,,,,,,,,158,3,2025-02-28_11h02.12.726,comp,2024.2.4,60.08945430581224,2025-02-28 11h02.20.022893 -0500,
16,16,0,filler_square,None,None,None,None,None,None,None,None,None,None,1,1.8336820602416992,None,,,,,0,0,0,0,0,16,16,171,169.34735822677612,,,,,,,,,,,,,,,,,,,,,,,,,,,,,,,,,,,,,,,,,,,,,,,,,,,,,,,,,,,,,,,,,,,,,,,,,,,,,,,,,131.3503004504607,131.3503004504607,123.55367490881747,106.20922364062737,95.42056560217692,84.95259368582386,2.2,2.21,-215,-289,0,253,192,264,169.3330044746399,169.33305406570435,169.3354423046112,169.34735822677612,169.49744749069214,169.49744749069214,169.49744749069214,169.49744749069214,169.49744749069214,169.49744749069214,169.49744749069214,171.19866251945496,1,1.8336820602416992,None,,,,,,,,,,,,,,,,,,158,3,2025-02-28_11h02.12.726,comp,2024.2.4,60.08945430581224,2025-02-28 11h02.20.022893 -0500,
17,17,0,critical,dhw,20.0,2.1,upper,141.0,141.0,200.0,125.0,125.0,200.0,3,2.2623424530029297,None,,,,,0,0,0,0,0,17,17,27,171.21397733688354,,,,,,,,,,,,,,,,,,,,,,,,,,,,,,,,,,,,,,,,,,,,,,,,,,,,,,,,,,,,,,,,,,,,,,,,,,,,,,,,,141.0,141.0,200.0,125.0,125.0,200.0,2.1,2.11,-229,267,0,275,258,-275,171.1995759010315,171.1996147632599,171.20221519470215,171.21397733688354,171.36433696746826,171.36433696746826,171.36433696746826,171.36433696746826,171.36433696746826,171.36433696746826,171.36433696746826,173.48206686973572,3,2.2623424530029297,None,,,,,,,,,,,,,,,,,,158,3,2025-02-28_11h02.12.726,comp,2024.2.4,60.08945430581224,2025-02-28 11h02.20.022893 -0500,
18,18,0,filler_square,None,None,None,None,None,None,None,None,None,None,3,1.2834680080413818,None,,,,,0,0,0,0,0,18,18,174,173.49753713607788,,,,,,,,,,,,,,,,,,,,,,,,,,,,,,,,,,,,,,,,,,,,,,,,,,,,,,,,,,,,,,,,,,,,,,,,,,,,,,,,,105.8753442320394,65.76716372094663,88.31895562925263,66.05213086471731,106.81976235401208,106.81976235401208,1.0,1.1,-642,277,-480,285,-298,253,173.482985496521,173.48304057121277,173.48508191108704,173.49753713607788,173.64772510528564,173.64772510528564,173.64772510528564,173.64772510528564,173.64772510528564,173.64772510528564,173.64772510528564,174.79857993125916,3,1.2834680080413818,None,,,,,,,,,,,,,,,,,,158,3,2025-02-28_11h02.12.726,comp,2024.2.4,60.08945430581224,2025-02-28 11h02.20.022893 -0500,
19,19,0,critical,hdw,35.0,2.1,upper,200.0,125.0,127.0,127.0,125.0,200.0,3,2.4784984588623047,None,,,,,0,0,0,0,0,19,19,21,174.8139910697937,,,,,,,,,,,,,,,,,,,,,,,,,,,,,,,,,,,,,,,,,,,,,,,,,,,,,,,,,,,,,,,,,,,,,,,,,,,,,,,,,200.0,125.0,127.0,127.0,125.0,200.0,2.1,2.12,-222,-284,0,-286,260,271,174.7993779182434,174.79941773414612,174.80191230773926,174.8139910697937,174.96440839767456,174.96440839767456,174.96440839767456,174.96440839767456,174.96440839767456,174.96440839767456,174.96440839767456,177.2987368106842,3,2.4784984588623047,None,,,,,,,,,,,,,,,,,,158,3,2025-02-28_11h02.12.726,comp,2024.2.4,60.08945430581224,2025-02-28 11h02.20.022893 -0500,
20,20,0,critical,hdw,20.0,1.0,lower,133.0,57.0,78.0,78.0,57.0,133.0,3,7.716006278991699,None,,,,,0,0,0,0,0,20,20,114,177.31420278549194,,,,,,,,,,,,,,,,,,,,,,,,,,,,,,,,,,,,,,,,,,,,,,,,,,,,,,,,,,,,,,,,,,,,,,,,,,,,,,,,,133.0,57.0,78.0,78.0,57.0,133.0,1.0,1.3,316,-263,480,-271,682,-264,177.2995421886444,177.29958200454712,177.3018045425415,177.31420278549194,177.46410632133484,177.46410632133484,177.46410632133484,177.46410632133484,177.46410632133484,177.46410632133484,177.46410632133484,185.04842376708984,3,7.716006278991699,None,,,,,,,,,,,,,,,,,,158,3,2025-02-28_11h02.12.726,comp,2024.2.4,60.08945430581224,2025-02-28 11h02.20.022893 -0500,
21,21,0,filler_random,None,None,None,None,None,None,None,None,None,None,3,5.092525482177734,None,,,,,0,0,0,0,0,21,21,160,185.06384348869324,,,,,,,,,,,,,,,,,,,,,,,,,,,,,,,,,,,,,,,,,,,,,,,,,,,,,,,,,,,,,,,,,,,,,,,,,,,,,,,,,155.1701893213982,77.14183534529175,113.40672463216774,119.27417110977234,78.5202026226386,157.36132014665532,2.2,2.21,-194,-254,0,251,234,267,185.04929304122925,185.04933214187622,185.0517554283142,185.06384348869324,185.21400356292725,185.21400356292725,185.21400356292725,185.21400356292725,185.21400356292725,185.21400356292725,185.21400356292725,190.16501545906067,3,5.092525482177734,None,,,,,,,,,,,,,,,,,,158,3,2025-02-28_11h02.12.726,comp,2024.2.4,60.08945430581224,2025-02-28 11h02.20.022893 -0500,
22,22,0,filler_random,None,None,None,None,None,None,None,None,None,None,2,3.865532159805298,None,,,,,0,0,0,0,0,22,22,161,190.1806845664978,,,,,,,,,,,,,,,,,,,,,,,,,,,,,,,,,,,,,,,,,,,,,,,,,,,,,,,,,,,,,,,,,,,,,,,,,,,,,,,,,59.42302717722829,95.43992663955719,60.090398138918495,92.8706107373217,62.16438474306257,88.0600711716102,2.2,2.22,-190,268,0,-264,186,-266,190.16591048240662,190.165949344635,190.16798853874207,190.1806845664978,190.33057832717896,190.33057832717896,190.33057832717896,190.33057832717896,190.33057832717896,190.33057832717896,190.33057832717896,194.04834818840027,2,3.865532159805298,None,,,,,,,,,,,,,,,,,,158,3,2025-02-28_11h02.12.726,comp,2024.2.4,60.08945430581224,2025-02-28 11h02.20.022893 -0500,
23,23,0,critical,wdh,35.0,1.0,upper,125.0,200.0,127.0,127.0,200.0,125.0,3,3.0441091060638428,None,,,,,0,0,0,0,0,23,23,73,194.0640730857849,,,,,,,,,,,,,,,,,,,,,,,,,,,,,,,,,,,,,,,,,,,,,,,,,,,,,,,,,,,,,,,,,,,,,,,,,,,,,,,,,125.0,200.0,127.0,127.0,200.0,125.0,1.0,1.1,-740,285,-480,277,-258,256,194.04914498329163,194.04918384552002,194.05120968818665,194.0640730857849,194.21448922157288,194.21448922157288,194.21448922157288,194.21448922157288,194.21448922157288,194.21448922157288,194.21448922157288,197.11513805389404,3,3.0441091060638428,None,,,,,,,,,,,,,,,,,,158,3,2025-02-28_11h02.12.726,comp,2024.2.4,60.08945430581224,2025-02-28 11h02.20.022893 -0500,
24,24,0,critical,dwh,20.0,2.1,lower,78.0,78.0,57.0,133.0,133.0,57.0,3,3.69923996925354,None,,,,,0,0,0,0,0,24,24,6,197.13070821762085,,,,,,,,,,,,,,,,,,,,,,,,,,,,,,,,,,,,,,,,,,,,,,,,,,,,,,,,,,,,,,,,,,,,,,,,,,,,,,,,,78.0,78.0,57.0,133.0,133.0,57.0,2.1,2.11,-202,288,0,271,191,-269,197.11606693267822,197.11610746383667,197.1184525489807,197.13070821762085,197.28077173233032,197.28077173233032,197.28077173233032,197.28077173233032,197.28077173233032,197.28077173233032,197.28077173233032,200.84834384918213,3,3.69923996925354,None,,,,,,,,,,,,,,,,,,158,3,2025-02-28_11h02.12.726,comp,2024.2.4,60.08945430581224,2025-02-28 11h02.20.022893 -0500,
25,25,0,catch,None,None,None,None,None,None,None,None,None,None,2,1.86033296585083,None,,,,,0,0,0,0,0,25,25,123,200.86384439468384,,,,,,,,,,,,,,,,,,,,,,,,,,,,,,,,,,,,,,,,,,,,,,,,,,,,,,,,,,,,,,,,,,,,,,,,,,,,,,,,,93,97,175,150,82,108,2.1,2.12,-220,-282,0,-263,225,252,200.84942841529846,200.84946942329407,200.8519470691681,200.86384439468384,201.01403737068176,201.01403737068176,201.01403737068176,201.01403737068176,201.01403737068176,201.01403737068176,201.01403737068176,202.7317419052124,2,1.86033296585083,None,,,,,,,,,,,,,,,,,,158,3,2025-02-28_11h02.12.726,comp,2024.2.4,60.08945430581224,2025-02-28 11h02.20.022893 -0500,
26,26,0,critical,hwd,20.0,4.0,upper,200.0,125.0,125.0,200.0,141.0,141.0,1,3.6414198875427246,None,,,,,0,0,0,0,0,26,26,107,202.74734592437744,,,,,,,,,,,,,,,,,,,,,,,,,,,,,,,,,,,,,,,,,,,,,,,,,,,,,,,,,,,,,,,,,,,,,,,,,,,,,,,,,200.0,125.0,125.0,200.0,141.0,141.0,4.0,4.2,-258,-7,0,-261,266,-8,202.7325417995453,202.732581615448,202.73512959480286,202.74734592437744,202.89770364761353,202.89770364761353,202.89770364761353,202.89770364761353,202.89770364761353,202.89770364761353,202.89770364761353,206.39847254753113,1,3.6414198875427246,None,,,,,,,,,,,,,,,,,,158,3,2025-02-28_11h02.12.726,comp,2024.2.4,60.08945430581224,2025-02-28 11h02.20.022893 -0500,
27,27,0,critical,hwd,35.0,4.0,lower,133.0,57.0,57.0,133.0,70.0,70.0,2,3.1501541137695312,None,,,,,0,0,0,0,0,27,27,100,206.41394066810608,,,,,,,,,,,,,,,,,,,,,,,,,,,,,,,,,,,,,,,,,,,,,,,,,,,,,,,,,,,,,,,,,,,,,,,,,,,,,,,,,133.0,57.0,57.0,133.0,70.0,70.0,4.0,4.2,-191,-18,0,-281,198,-7,206.39926719665527,206.39930844306946,206.4017198085785,206.41394066810608,206.563880443573,206.563880443573,206.563880443573,206.563880443573,206.563880443573,206.563880443573,206.563880443573,209.58161997795105,2,3.1501541137695312,None,,,,,,,,,,,,,,,,,,158,3,2025-02-28_11h02.12.726,comp,2024.2.4,60.08945430581224,2025-02-28 11h02.20.022893 -0500,
28,28,0,critical,whd,20.0,4.0,lower,57.0,133.0,133.0,57.0,78.0,78.0,1,4.3750388622283936,None,,,,,0,0,0,0,0,28,28,94,209.59708881378174,,,,,,,,,,,,,,,,,,,,,,,,,,,,,,,,,,,,,,,,,,,,,,,,,,,,,,,,,,,,,,,,,,,,,,,,,,,,,,,,,57.0,133.0,133.0,57.0,78.0,78.0,4.0,4.2,-191,13,0,-281,164,17,209.5824179649353,209.5824580192566,209.58499336242676,209.59708881378174,209.74708604812622,209.74708604812622,209.74708604812622,209.74708604812622,209.74708604812622,209.74708604812622,209.74708604812622,213.98155450820923,1,4.3750388622283936,None,,,,,,,,,,,,,,,,,,158,3,2025-02-28_11h02.12.726,comp,2024.2.4,60.08945430581224,2025-02-28 11h02.20.022893 -0500,
29,29,0,critical,wdh,35.0,2.1,upper,125.0,200.0,127.0,127.0,200.0,125.0,1,3.718160629272461,None,,,,,0,0,0,0,0,29,29,33,213.9971718788147,,,,,,,,,,,,,,,,,,,,,,,,,,,,,,,,,,,,,,,,,,,,,,,,,,,,,,,,,,,,,,,,,,,,,,,,,,,,,,,,,125.0,200.0,127.0,127.0,200.0,125.0,2.1,2.11,-260,289,0,274,222,-252,213.98235988616943,213.9823989868164,213.984858751297,213.9971718788147,214.14733028411865,214.14733028411865,214.14733028411865,214.14733028411865,214.14733028411865,214.14733028411865,214.14733028411865,217.73175621032715,1,3.718160629272461,None,,,,,,,,,,,,,,,,,,158,3,2025-02-28_11h02.12.726,comp,2024.2.4,60.08945430581224,2025-02-28 11h02.20.022893 -0500,
30,30,0,critical,wdh,20.0,2.1,upper,125.0,200.0,141.0,141.0,200.0,125.0,1,3.2667431831359863,None,,,,,0,0,0,0,0,30,30,11,217.74700498580933,,,,,,,,,,,,,,,,,,,,,,,,,,,,,,,,,,,,,,,,,,,,,,,,,,,,,,,,,,,,,,,,,,,,,,,,,,,,,,,,,125.0,200.0,141.0,141.0,200.0,125.0,2.1,2.11,-266,254,0,289,229,-273,217.73255395889282,217.7325942516327,217.73508834838867,217.74700498580933,217.89734506607056,217.89734506607056,217.89734506607056,217.89734506607056,217.89734506607056,217.89734506607056,217.89734506607056,221.01547622680664,1,3.2667431831359863,None,,,,,,,,,,,,,,,,,,158,3,2025-02-28_11h02.12.726,comp,2024.2.4,60.08945430581224,2025-02-28 11h02.20.022893 -0500,
31,31,0,critical,dhw,20.0,2.1,lower,78.0,78.0,133.0,57.0,57.0,133.0,3,11.358263492584229,None,,,,,0,0,0,0,0,31,31,2,221.03055047988892,,,,,,,,,,,,,,,,,,,,,,,,,,,,,,,,,,,,,,,,,,,,,,,,,,,,,,,,,,,,,,,,,,,,,,,,,,,,,,,,,78.0,78.0,133.0,57.0,57.0,133.0,2.1,2.12,-164,-287,0,-269,191,265,221.01628351211548,221.0163233280182,221.0184690952301,221.03055047988892,221.1803436279297,221.1803436279297,221.1803436279297,221.1803436279297,221.1803436279297,221.1803436279297,221.1803436279297,232.39817237854004,3,11.358263492584229,None,,,,,,,,,,,,,,,,,,158,3,2025-02-28_11h02.12.726,comp,2024.2.4,60.08945430581224,2025-02-28 11h02.20.022893 -0500,
32,32,0,critical,dhw,35.0,2.1,upper,127.0,127.0,200.0,125.0,125.0,200.0,3,1.958178997039795,None,,,,,0,0,0,0,0,32,32,25,232.4140911102295,,,,,,,,,,,,,,,,,,,,,,,,,,,,,,,,,,,,,,,,,,,,,,,,,,,,,,,,,,,,,,,,,,,,,,,,,,,,,,,,,127.0,127.0,200.0,125.0,125.0,200.0,2.1,2.11,-222,281,0,272,258,-252,232.3989453315735,232.3989851474762,232.40099906921387,232.4140911102295,232.56384825706482,232.56384825706482,232.56384825706482,232.56384825706482,232.56384825706482,232.56384825706482,232.56384825706482,234.38171672821045,3,1.958178997039795,None,,,,,,,,,,,,,,,,,,158,3,2025-02-28_11h02.12.726,comp,2024.2.4,60.08945430581224,2025-02-28 11h02.20.022893 -0500,
33,33,0,critical,dwh,20.0,1.0,lower,78.0,78.0,57.0,133.0,133.0,57.0,2,2.3500988483428955,None,,,,,0,0,0,0,0,33,33,66,234.39724373817444,,,,,,,,,,,,,,,,,,,,,,,,,,,,,,,,,,,,,,,,,,,,,,,,,,,,,,,,,,,,,,,,,,,,,,,,,,,,,,,,,78.0,78.0,57.0,133.0,133.0,57.0,1.0,1.3,278,-267,480,-254,671,-264,234.38255381584167,234.38259363174438,234.38528394699097,234.39724373817444,234.54735922813416,234.54735922813416,234.54735922813416,234.54735922813416,234.54735922813416,234.54735922813416,234.54735922813416,236.76476883888245,2,2.3500988483428955,None,,,,,,,,,,,,,,,,,,158,3,2025-02-28_11h02.12.726,comp,2024.2.4,60.08945430581224,2025-02-28 11h02.20.022893 -0500,
34,34,0,critical,hwd,20.0,2.1,upper,200.0,125.0,125.0,200.0,141.0,141.0,2,2.127734899520874,None,,,,,0,0,0,0,0,34,34,43,236.7801868915558,,,,,,,,,,,,,,,,,,,,,,,,,,,,,,,,,,,,,,,,,,,,,,,,,,,,,,,,,,,,,,,,,,,,,,,,,,,,,,,,,200.0,125.0,125.0,200.0,141.0,141.0,2.1,2.12,-258,-274,0,-257,266,260,236.76557993888855,236.7656192779541,236.76770567893982,236.7801868915558,236.93050360679626,236.93050360679626,236.93050360679626,236.93050360679626,236.93050360679626,236.93050360679626,236.93050360679626,238.91492676734924,2,2.127734899520874,None,,,,,,,,,,,,,,,,,,158,3,2025-02-28_11h02.12.726,comp,2024.2.4,60.08945430581224,2025-02-28 11h02.20.022893 -0500,
35,35,0,filler_square,None,None,None,None,None,None,None,None,None,None,3,3.1687018871307373,None,,,,,0,0,0,0,0,35,35,202,238.9303903579712,,,,,,,,,,,,,,,,,,,,,,,,,,,,,,,,,,,,,,,,,,,,,,,,,,,,,,,,,,,,,,,,,,,,,,,,,,,,,,,,,60.17088458938772,57.177363908482135,59.131510609420026,60.28332161454825,60.778962985620915,60.778962985620915,2.2,2.22,-155,275,0,-262,157,-278,238.91588711738586,238.91592836380005,238.91808891296387,238.9303903579712,239.0802903175354,239.0802903175354,239.0802903175354,239.0802903175354,239.0802903175354,239.0802903175354,239.0802903175354,242.11471462249756,3,3.1687018871307373,None,,,,,,,,,,,,,,,,,,158,3,2025-02-28_11h02.12.726,comp,2024.2.4,60.08945430581224,2025-02-28 11h02.20.022893 -0500,
36,36,0,filler_square,None,None,None,None,None,None,None,None,None,None,3,1.7530536651611328,None,,,,,0,0,0,0,0,36,36,191,242.13012290000916,,,,,,,,,,,,,,,,,,,,,,,,,,,,,,,,,,,,,,,,,,,,,,,,,,,,,,,,,,,,,,,,,,,,,,,,,,,,,,,,,69.80548729645932,93.58238711586051,76.1286698225296,75.69153087846811,107.27890681402619,107.27890681402619,2.2,2.22,-181,253,0,-266,187,-271,242.11591625213623,242.11595559120178,242.11858296394348,242.13012290000916,242.28018355369568,242.28018355369568,242.28018355369568,242.28018355369568,242.28018355369568,242.28018355369568,242.28018355369568,243.89790987968445,3,1.7530536651611328,None,,,,,,,,,,,,,,,,,,158,3,2025-02-28_11h02.12.726,comp,2024.2.4,60.08945430581224,2025-02-28 11h02.20.022893 -0500,
37,37,0,filler_square,None,None,None,None,None,None,None,None,None,None,3,1.7163736820220947,None,,,,,0,0,0,0,0,37,37,182,243.91344571113586,,,,,,,,,,,,,,,,,,,,,,,,,,,,,,,,,,,,,,,,,,,,,,,,,,,,,,,,,,,,,,,,,,,,,,,,,,,,,,,,,127.98595670376953,99.18603373266835,61.41277781526409,86.80774591812329,138.9618354448342,138.9618354448342,3.0,3.2,-189,-266,0,10,209,280,243.89890003204346,243.89894127845764,243.90130376815796,243.91344571113586,244.06360530853271,244.06360530853271,244.06360530853271,244.06360530853271,244.06360530853271,244.06360530853271,244.06360530853271,245.64814949035645,3,1.7163736820220947,None,,,,,,,,,,,,,,,,,,158,3,2025-02-28_11h02.12.726,comp,2024.2.4,60.08945430581224,2025-02-28 11h02.20.022893 -0500,
38,38,0,critical,hdw,35.0,2.1,lower,133.0,57.0,70.0,70.0,57.0,133.0,3,2.867563247680664,None,,,,,0,0,0,0,0,38,38,44,245.66352081298828,,,,,,,,,,,,,,,,,,,,,,,,,,,,,,,,,,,,,,,,,,,,,,,,,,,,,,,,,,,,,,,,,,,,,,,,,,,,,,,,,133.0,57.0,70.0,70.0,57.0,133.0,2.1,2.12,-160,-255,0,-266,198,262,245.64894318580627,245.6489851474762,245.65110802650452,245.66352081298828,245.81351613998413,245.81351613998413,245.81351613998413,245.81351613998413,245.81351613998413,245.81351613998413,245.81351613998413,248.5479700565338,3,2.867563247680664,None,,,,,,,,,,,,,,,,,,158,3,2025-02-28_11h02.12.726,comp,2024.2.4,60.08945430581224,2025-02-28 11h02.20.022893 -0500,
39,39,0,critical,dwh,35.0,4.0,lower,70.0,70.0,57.0,133.0,133.0,57.0,2,7.976422071456909,None,,,,,0,0,0,0,0,39,39,64,248.563472032547,,,,,,,,,,,,,,,,,,,,,,,,,,,,,,,,,,,,,,,,,,,,,,,,,,,,,,,,,,,,,,,,,,,,,,,,,,,,,,,,,70.0,70.0,57.0,133.0,133.0,57.0,4.0,4.2,-198,-9,0,-275,191,-17,248.54877138137817,248.54881048202515,248.55091667175293,248.563472032547,248.7136058807373,248.7136058807373,248.7136058807373,248.7136058807373,248.7136058807373,248.7136058807373,248.7136058807373,256.5478639602661,2,7.976422071456909,None,,,,,,,,,,,,,,,,,,158,3,2025-02-28_11h02.12.726,comp,2024.2.4,60.08945430581224,2025-02-28 11h02.20.022893 -0500,
40,40,0,critical,dwh,20.0,2.1,upper,141.0,141.0,125.0,200.0,200.0,125.0,2,2.1354305744171143,None,,,,,0,0,0,0,0,40,40,31,256.5635406970978,,,,,,,,,,,,,,,,,,,,,,,,,,,,,,,,,,,,,,,,,,,,,,,,,,,,,,,,,,,,,,,,,,,,,,,,,,,,,,,,,141.0,141.0,125.0,200.0,200.0,125.0,2.1,2.11,-266,274,0,262,258,-275,256.5486559867859,256.5486972332001,256.55090737342834,256.5635406970978,256.7136859893799,256.7136859893799,256.7136859893799,256.7136859893799,256.7136859893799,256.7136859893799,256.7136859893799,258.7148630619049,2,2.1354305744171143,None,,,,,,,,,,,,,,,,,,158,3,2025-02-28_11h02.12.726,comp,2024.2.4,60.08945430581224,2025-02-28 11h02.20.022893 -0500,
41,41,0,filler_random,None,None,None,None,None,None,None,None,None,None,1,2.5214602947235107,None,,,,,0,0,0,0,0,41,41,157,258.7300455570221,,,,,,,,,,,,,,,,,,,,,,,,,,,,,,,,,,,,,,,,,,,,,,,,,,,,,,,,,,,,,,,,,,,,,,,,,,,,,,,,,111.49403736479712,177.377079059739,193.94523467600345,76.36954710237119,179.68452019578987,92.2922008049359,1.0,1.2,-223,3,0,-17,180,11,258.71575689315796,258.71579599380493,258.71805930137634,258.7300455570221,258.88031339645386,258.88031339645386,258.88031339645386,258.88031339645386,258.88031339645386,258.88031339645386,258.88031339645386,261.2648665904999,1,2.5214602947235107,None,,,,,,,,,,,,,,,,,,158,3,2025-02-28_11h02.12.726,comp,2024.2.4,60.08945430581224,2025-02-28 11h02.20.022893 -0500,
42,42,0,critical,dhw,20.0,1.0,lower,78.0,78.0,133.0,57.0,57.0,133.0,3,2.035100221633911,None,,,,,0,0,0,0,0,42,42,54,261.2799241542816,,,,,,,,,,,,,,,,,,,,,,,,,,,,,,,,,,,,,,,,,,,,,,,,,,,,,,,,,,,,,,,,,,,,,,,,,,,,,,,,,78.0,78.0,133.0,57.0,57.0,133.0,1.0,1.2,-164,-4,0,2,191,-5,261.26563358306885,261.2656726837158,261.2682058811188,261.2799241542816,261.4300012588501,261.4300012588501,261.4300012588501,261.4300012588501,261.4300012588501,261.4300012588501,261.4300012588501,263.3311870098114,3,2.035100221633911,None,,,,,,,,,,,,,,,,,,158,3,2025-02-28_11h02.12.726,comp,2024.2.4,60.08945430581224,2025-02-28 11h02.20.022893 -0500,
43,43,0,critical,whd,35.0,1.0,lower,57.0,133.0,133.0,57.0,70.0,70.0,2,4.250232934951782,None,,,,,0,0,0,0,0,43,43,84,263.3466286659241,,,,,,,,,,,,,,,,,,,,,,,,,,,,,,,,,,,,,,,,,,,,,,,,,,,,,,,,,,,,,,,,,,,,,,,,,,,,,,,,,57.0,133.0,133.0,57.0,70.0,70.0,1.0,1.2,-191,-5,0,1,160,13,263.3319399356842,263.3319787979126,263.33429312705994,263.3466286659241,263.49676394462585,263.49676394462585,263.49676394462585,263.49676394462585,263.49676394462585,263.49676394462585,263.49676394462585,267.6148066520691,2,4.250232934951782,None,,,,,,,,,,,,,,,,,,158,3,2025-02-28_11h02.12.726,comp,2024.2.4,60.08945430581224,2025-02-28 11h02.20.022893 -0500,
44,44,0,critical,whd,35.0,4.0,lower,57.0,133.0,133.0,57.0,70.0,70.0,1,6.684997797012329,None,,,,,0,0,0,0,0,44,44,88,267.6299216747284,,,,,,,,,,,,,,,,,,,,,,,,,,,,,,,,,,,,,,,,,,,,,,,,,,,,,,,,,,,,,,,,,,,,,,,,,,,,,,,,,57.0,133.0,133.0,57.0,70.0,70.0,4.0,4.2,-191,19,0,-252,160,-18,267.6155891418457,267.61562728881836,267.6181437969208,267.6299216747284,267.78012919425964,267.78012919425964,267.78012919425964,267.78012919425964,267.78012919425964,267.78012919425964,267.78012919425964,274.3311665058136,1,6.684997797012329,None,,,,,,,,,,,,,,,,,,158,3,2025-02-28_11h02.12.726,comp,2024.2.4,60.08945430581224,2025-02-28 11h02.20.022893 -0500,
45,45,0,critical,hdw,20.0,4.0,upper,200.0,125.0,141.0,141.0,125.0,200.0,3,2.6882266998291016,None,,,,,0,0,0,0,0,45,45,119,274.34655714035034,,,,,,,,,,,,,,,,,,,,,,,,,,,,,,,,,,,,,,,,,,,,,,,,,,,,,,,,,,,,,,,,,,,,,,,,,,,,,,,,,200.0,125.0,141.0,141.0,125.0,200.0,4.0,4.1,-229,-285,0,12,266,-273,274.331924200058,274.331964969635,274.33403754234314,274.34655714035034,274.49696350097656,274.49696350097656,274.49696350097656,274.49696350097656,274.49696350097656,274.49696350097656,274.49696350097656,277.0480008125305,3,2.6882266998291016,None,,,,,,,,,,,,,,,,,,158,3,2025-02-28_11h02.12.726,comp,2024.2.4,60.08945430581224,2025-02-28 11h02.20.022893 -0500,
46,46,0,catch,None,None,None,None,None,None,None,None,None,None,1,1.3169994354248047,None,,,,,0,0,0,0,0,46,46,121,277.06332778930664,,,,,,,,,,,,,,,,,,,,,,,,,,,,,,,,,,,,,,,,,,,,,,,,,,,,,,,,,,,,,,,,,,,,,,,,,,,,,,,,,133,192,70,120,106,84,2.1,2.11,-252,287,0,279,198,-264,277.0490367412567,277.0490770339966,277.05233788490295,277.06332778930664,277.2136299610138,277.2136299610138,277.2136299610138,277.2136299610138,277.2136299610138,277.2136299610138,277.2136299610138,278.3979170322418,1,1.3169994354248047,None,,,,,,,,,,,,,,,,,,158,3,2025-02-28_11h02.12.726,comp,2024.2.4,60.08945430581224,2025-02-28 11h02.20.022893 -0500,
47,47,0,catch,None,None,None,None,None,None,None,None,None,None,3,1.7582933902740479,None,,,,,0,0,0,0,0,47,47,129,278.4136207103729,,,,,,,,,,,,,,,,,,,,,,,,,,,,,,,,,,,,,,,,,,,,,,,,,,,,,,,,,,,,,,,,,,,,,,,,,,,,,,,,,101,89,77,113,139,186,4.0,4.1,-197,-267,0,11,246,-252,278.3989768028259,278.3990180492401,278.4026229381561,278.4136207103729,278.56392073631287,278.56392073631287,278.56392073631287,278.56392073631287,278.56392073631287,278.56392073631287,278.56392073631287,280.18126678466797,3,1.7582933902740479,None,,,,,,,,,,,,,,,,,,158,3,2025-02-28_11h02.12.726,comp,2024.2.4,60.08945430581224,2025-02-28 11h02.20.022893 -0500,
48,48,0,critical,whd,35.0,3.0,lower,57.0,133.0,133.0,57.0,70.0,70.0,2,2.9268157482147217,None,,,,,0,0,0,0,0,48,48,86,280.1968820095062,,,,,,,,,,,,,,,,,,,,,,,,,,,,,,,,,,,,,,,,,,,,,,,,,,,,,,,,,,,,,,,,,,,,,,,,,,,,,,,,,57.0,133.0,133.0,57.0,70.0,70.0,3.0,3.2,-191,-267,0,7,160,285,280.182053565979,280.182092666626,280.1845293045044,280.1968820095062,280.34657859802246,280.34657859802246,280.34657859802246,280.34657859802246,280.34657859802246,280.34657859802246,280.34657859802246,283.13117957115173,2,2.9268157482147217,None,,,,,,,,,,,,,,,,,,158,3,2025-02-28_11h02.12.726,comp,2024.2.4,60.08945430581224,2025-02-28 11h02.20.022893 -0500,
49,49,0,critical,whd,20.0,2.1,upper,125.0,200.0,200.0,125.0,141.0,141.0,2,3.728743076324463,None,,,,,0,0,0,0,0,49,49,15,283.1468062400818,,,,,,,,,,,,,,,,,,,,,,,,,,,,,,,,,,,,,,,,,,,,,,,,,,,,,,,,,,,,,,,,,,,,,,,,,,,,,,,,,125.0,200.0,200.0,125.0,141.0,141.0,2.1,2.12,-258,-259,0,-250,229,254,283.1319742202759,283.13201355934143,283.13416624069214,283.1468062400818,283.2968764305115,283.2968764305115,283.2968764305115,283.2968764305115,283.2968764305115,283.2968764305115,283.2968764305115,286.8813021183014,2,3.728743076324463,None,,,,,,,,,,,,,,,,,,158,3,2025-02-28_11h02.12.726,comp,2024.2.4,60.08945430581224,2025-02-28 11h02.20.022893 -0500,
50,50,0,filler_random,None,None,None,None,None,None,None,None,None,None,3,2.4498836994171143,None,,,,,0,0,0,0,0,50,50,136,286.89713954925537,,,,,,,,,,,,,,,,,,,,,,,,,,,,,,,,,,,,,,,,,,,,,,,,,,,,,,,,,,,,,,,,,,,,,,,,,,,,,,,,,121.3716143563487,86.33848648126141,110.71542325803826,62.021542096965135,145.37424677402296,97.73764712788403,2.1,2.11,-170,260,0,256,176,-283,286.88222455978394,286.88226556777954,286.88438391685486,286.89713954925537,287.0467267036438,287.0467267036438,287.0467267036438,287.0467267036438,287.0467267036438,287.0467267036438,287.0467267036438,289.3643972873688,3,2.4498836994171143,None,,,,,,,,,,,,,,,,,,158,3,2025-02-28_11h02.12.726,comp,2024.2.4,60.08945430581224,2025-02-28 11h02.20.022893 -0500,
51,51,0,critical,wdh,35.0,4.0,lower,57.0,133.0,70.0,70.0,133.0,57.0,3,13.111899375915527,None,,,,,0,0,0,0,0,51,51,76,289.37980818748474,,,,,,,,,,,,,,,,,,,,,,,,,,,,,,,,,,,,,,,,,,,,,,,,,,,,,,,,,,,,,,,,,,,,,,,,,,,,,,,,,57.0,133.0,70.0,70.0,133.0,57.0,4.0,4.1,-198,-271,0,-3,160,-258,289.3651909828186,289.3652300834656,289.3676838874817,289.37980818748474,289.53000235557556,289.53000235557556,289.53000235557556,289.53000235557556,289.53000235557556,289.53000235557556,289.53000235557556,302.4976849555969,3,13.111899375915527,None,,,,,,,,,,,,,,,,,,158,3,2025-02-28_11h02.12.726,comp,2024.2.4,60.08945430581224,2025-02-28 11h02.20.022893 -0500,
52,52,0,critical,dhw,20.0,4.0,upper,141.0,141.0,200.0,125.0,125.0,200.0,3,3.2998085021972656,None,,,,,0,0,0,0,0,52,52,59,302.5133476257324,,,,,,,,,,,,,,,,,,,,,,,,,,,,,,,,,,,,,,,,,,,,,,,,,,,,,,,,,,,,,,,,,,,,,,,,,,,,,,,,,141.0,141.0,200.0,125.0,125.0,200.0,4.0,4.2,-229,14,0,-276,258,1,302.4984402656555,302.4984781742096,302.50097584724426,302.5133476257324,302.66333746910095,302.66333746910095,302.66333746910095,302.66333746910095,302.66333746910095,302.66333746910095,302.66333746910095,305.8145990371704,3,3.2998085021972656,None,,,,,,,,,,,,,,,,,,158,3,2025-02-28_11h02.12.726,comp,2024.2.4,60.08945430581224,2025-02-28 11h02.20.022893 -0500,
53,53,0,critical,wdh,20.0,3.0,lower,57.0,133.0,78.0,78.0,133.0,57.0,3,3.916846752166748,None,,,,,0,0,0,0,0,53,53,80,305.82995080947876,,,,,,,,,,,,,,,,,,,,,,,,,,,,,,,,,,,,,,,,,,,,,,,,,,,,,,,,,,,,,,,,,,,,,,,,,,,,,,,,,57.0,133.0,78.0,78.0,133.0,57.0,3.0,3.2,-202,-257,0,-2,164,282,305.81541109085083,305.81544971466064,305.8176546096802,305.82995080947876,305.97982954978943,305.97982954978943,305.97982954978943,305.97982954978943,305.97982954978943,305.97982954978943,305.97982954978943,309.74791955947876,3,3.916846752166748,None,,,,,,,,,,,,,,,,,,158,3,2025-02-28_11h02.12.726,comp,2024.2.4,60.08945430581224,2025-02-28 11h02.20.022893 -0500,
54,54,0,critical,dwh,20.0,1.0,upper,141.0,141.0,125.0,200.0,200.0,125.0,2,2.7600748538970947,None,,,,,0,0,0,0,0,54,54,67,309.7633671760559,,,,,,,,,,,,,,,,,,,,,,,,,,,,,,,,,,,,,,,,,,,,,,,,,,,,,,,,,,,,,,,,,,,,,,,,,,,,,,,,,141.0,141.0,125.0,200.0,200.0,125.0,1.0,1.1,-746,256,-480,263,-222,263,309.74872517585754,309.74876499176025,309.75131821632385,309.7633671760559,309.91332030296326,309.91332030296326,309.91332030296326,309.91332030296326,309.91332030296326,309.91332030296326,309.91332030296326,312.53109431266785,2,2.7600748538970947,None,,,,,,,,,,,,,,,,,,158,3,2025-02-28_11h02.12.726,comp,2024.2.4,60.08945430581224,2025-02-28 11h02.20.022893 -0500,
55,55,0,critical,whd,20.0,3.0,upper,125.0,200.0,200.0,125.0,141.0,141.0,1,4.200464487075806,None,,,,,0,0,0,0,0,55,55,93,312.5465660095215,,,,,,,,,,,,,,,,,,,,,,,,,,,,,,,,,,,,,,,,,,,,,,,,,,,,,,,,,,,,,,,,,,,,,,,,,,,,,,,,,125.0,200.0,200.0,125.0,141.0,141.0,3.0,3.2,-258,-282,0,18,229,263,312.53187465667725,312.5319154262543,312.5340144634247,312.5465660095215,312.69670248031616,312.69670248031616,312.69670248031616,312.69670248031616,312.69670248031616,312.69670248031616,312.69670248031616,316.7643096446991,1,4.200464487075806,None,,,,,,,,,,,,,,,,,,158,3,2025-02-28_11h02.12.726,comp,2024.2.4,60.08945430581224,2025-02-28 11h02.20.022893 -0500,
56,56,0,filler_square,None,None,None,None,None,None,None,None,None,None,2,2.4959568977355957,None,,,,,0,0,0,0,0,56,56,175,316.7796106338501,,,,,,,,,,,,,,,,,,,,,,,,,,,,,,,,,,,,,,,,,,,,,,,,,,,,,,,,,,,,,,,,,,,,,,,,,,,,,,,,,60.37232259693118,61.75265651892711,77.88076307118223,77.88076307118223,72.96211001141,57.952228601901105,3.0,3.2,-166,-267,0,-5,164,268,316.76522517204285,316.765261888504,316.7672791481018,316.7796106338501,316.9299349784851,316.9299349784851,316.9299349784851,316.9299349784851,316.9299349784851,316.9299349784851,316.9299349784851,319.28088188171387,2,2.4959568977355957,None,,,,,,,,,,,,,,,,,,158,3,2025-02-28_11h02.12.726,comp,2024.2.4,60.08945430581224,2025-02-28 11h02.20.022893 -0500,
57,57,0,filler_random,None,None,None,None,None,None,None,None,None,None,2,1.705925703048706,None,,,,,0,0,0,0,0,57,57,166,319.2965672016144,,,,,,,,,,,,,,,,,,,,,,,,,,,,,,,,,,,,,,,,,,,,,,,,,,,,,,,,,,,,,,,,,,,,,,,,,,,,,,,,,138.0782776538696,103.56626248928481,180.80918716544983,156.4893098718159,145.71768394792707,122.7967905522913,4.0,4.2,-226,6,0,-276,236,-14,319.2817630767822,319.28180480003357,319.28389286994934,319.2965672016144,319.4467465877533,319.4467465877533,319.4467465877533,319.4467465877533,319.4467465877533,319.4467465877533,319.4467465877533,321.0142455101013,2,1.705925703048706,None,,,,,,,,,,,,,,,,,,158,3,2025-02-28_11h02.12.726,comp,2024.2.4,60.08945430581224,2025-02-28 11h02.20.022893 -0500,
58,58,0,critical,wdh,35.0,3.0,upper,125.0,200.0,127.0,127.0,200.0,125.0,1,2.2935564517974854,None,,,,,0,0,0,0,0,58,58,75,321.0299024581909,,,,,,,,,,,,,,,,,,,,,,,,,,,,,,,,,,,,,,,,,,,,,,,,,,,,,,,,,,,,,,,,,,,,,,,,,,,,,,,,,125.0,200.0,127.0,127.0,200.0,125.0,3.0,3.1,-260,273,0,-5,222,-272,321.01500415802,321.0150566101074,321.0174181461334,321.0299024581909,321.18009543418884,321.18009543418884,321.18009543418884,321.18009543418884,321.18009543418884,321.18009543418884,321.18009543418884,323.3310635089874,1,2.2935564517974854,None,,,,,,,,,,,,,,,,,,158,3,2025-02-28_11h02.12.726,comp,2024.2.4,60.08945430581224,2025-02-28 11h02.20.022893 -0500,
59,59,0,filler_square,None,None,None,None,None,None,None,None,None,None,3,2.2557332515716553,None,,,,,0,0,0,0,0,59,59,195,323.34668016433716,,,,,,,,,,,,,,,,,,,,,,,,,,,,,,,,,,,,,,,,,,,,,,,,,,,,,,,,,,,,,,,,,,,,,,,,,,,,,,,,,179.74996337190538,88.81675293716424,104.72486270517675,77.79202032834036,181.49276330935328,181.49276330935328,2.1,2.11,-179,284,0,274,226,-253,323.33201360702515,323.33206844329834,323.3342053890228,323.34668016433716,323.496621131897,323.496621131897,323.496621131897,323.496621131897,323.496621131897,323.496621131897,323.496621131897,325.61438632011414,3,2.2557332515716553,None,,,,,,,,,,,,,,,,,,158,3,2025-02-28_11h02.12.726,comp,2024.2.4,60.08945430581224,2025-02-28 11h02.20.022893 -0500,
60,60,0,filler_random,None,None,None,None,None,None,None,None,None,None,1,2.4369752407073975,None,,,,,0,0,0,0,0,60,60,155,325.629585981369,,,,,,,,,,,,,,,,,,,,,,,,,,,,,,,,,,,,,,,,,,,,,,,,,,,,,,,,,,,,,,,,,,,,,,,,,,,,,,,,,138.96141791408886,170.12824473900145,150.4073654196459,134.07992345522413,158.95967843384128,78.25850674053159,4.0,4.2,-248,-16,0,-259,202,-6,325.6152894496918,325.61532831192017,325.61773705482483,325.629585981369,325.77985405921936,325.77985405921936,325.77985405921936,325.77985405921936,325.77985405921936,325.77985405921936,325.77985405921936,328.0809371471405,1,2.4369752407073975,None,,,,,,,,,,,,,,,,,,158,3,2025-02-28_11h02.12.726,comp,2024.2.4,60.08945430581224,2025-02-28 11h02.20.022893 -0500,
61,61,0,critical,whd,35.0,3.0,upper,125.0,200.0,200.0,125.0,127.0,127.0,1,1.7951068878173828,None,,,,,0,0,0,0,0,61,61,87,328.09620928764343,,,,,,,,,,,,,,,,,,,,,,,,,,,,,,,,,,,,,,,,,,,,,,,,,,,,,,,,,,,,,,,,,,,,,,,,,,,,,,,,,125.0,200.0,200.0,125.0,127.0,127.0,3.0,3.1,-258,269,0,-17,222,-287,328.0817358493805,328.08177423477173,328.08388924598694,328.09620928764343,328.24660301208496,328.24660301208496,328.24660301208496,328.24660301208496,328.24660301208496,328.24660301208496,328.24660301208496,329.89779686927795,1,1.7951068878173828,None,,,,,,,,,,,,,,,,,,158,3,2025-02-28_11h02.12.726,comp,2024.2.4,60.08945430581224,2025-02-28 11h02.20.022893 -0500,
62,62,0,filler_square,None,None,None,None,None,None,None,None,None,None,1,5.610111713409424,None,,,,,0,0,0,0,0,62,62,173,329.91321539878845,,,,,,,,,,,,,,,,,,,,,,,,,,,,,,,,,,,,,,,,,,,,,,,,,,,,,,,,,,,,,,,,,,,,,,,,,,,,,,,,,101.39562186281543,101.39562186281543,98.75561134278868,85.18472723283824,77.72901988843044,94.35399124556982,2.2,2.22,-189,264,0,-272,186,-257,329.89877247810364,329.898814201355,329.901389837265,329.91321539878845,330.0631763935089,330.0631763935089,330.0631763935089,330.0631763935089,330.0631763935089,330.0631763935089,330.0631763935089,335.530730009079,1,5.610111713409424,None,,,,,,,,,,,,,,,,,,158,3,2025-02-28_11h02.12.726,comp,2024.2.4,60.08945430581224,2025-02-28 11h02.20.022893 -0500,
63,63,0,critical,wdh,35.0,2.1,upper,125.0,200.0,127.0,127.0,200.0,125.0,1,1.7520537376403809,None,,,,,0,0,0,0,0,63,63,9,335.5464515686035,,,,,,,,,,,,,,,,,,,,,,,,,,,,,,,,,,,,,,,,,,,,,,,,,,,,,,,,,,,,,,,,,,,,,,,,,,,,,,,,,125.0,200.0,127.0,127.0,200.0,125.0,2.1,2.12,-260,-263,0,-272,222,273,335.53152227401733,335.53156208992004,335.5341341495514,335.5464515686035,335.6967751979828,335.6967751979828,335.6967751979828,335.6967751979828,335.6967751979828,335.6967751979828,335.6967751979828,337.3142204284668,1,1.7520537376403809,None,,,,,,,,,,,,,,,,,,158,3,2025-02-28_11h02.12.726,comp,2024.2.4,60.08945430581224,2025-02-28 11h02.20.022893 -0500,
64,64,0,critical,dwh,35.0,4.0,upper,127.0,127.0,125.0,200.0,200.0,125.0,2,2.361687183380127,None,,,,,0,0,0,0,0,64,64,65,337.32952880859375,,,,,,,,,,,,,,,,,,,,,,,,,,,,,,,,,,,,,,,,,,,,,,,,,,,,,,,,,,,,,,,,,,,,,,,,,,,,,,,,,127.0,127.0,125.0,200.0,200.0,125.0,4.0,4.2,-260,-12,0,-276,258,18,337.3149962425232,337.31504678726196,337.3183228969574,337.32952880859375,337.4797914028168,337.4797914028168,337.4797914028168,337.4797914028168,337.4797914028168,337.4797914028168,337.4797914028168,339.6976001262665,2,2.361687183380127,None,,,,,,,,,,,,,,,,,,158,3,2025-02-28_11h02.12.726,comp,2024.2.4,60.08945430581224,2025-02-28 11h02.20.022893 -0500,
65,65,0,critical,hdw,35.0,1.0,lower,133.0,57.0,70.0,70.0,57.0,133.0,3,2.9318013191223145,None,,,,,0,0,0,0,0,65,65,108,339.7130937576294,,,,,,,,,,,,,,,,,,,,,,,,,,,,,,,,,,,,,,,,,,,,,,,,,,,,,,,,,,,,,,,,,,,,,,,,,,,,,,,,,133.0,57.0,70.0,70.0,57.0,133.0,1.0,1.3,320,-250,480,-277,678,-288,339.69840455055237,339.69844460487366,339.7011432647705,339.7130937576294,339.8634114265442,339.8634114265442,339.8634114265442,339.8634114265442,339.8634114265442,339.8634114265442,339.8634114265442,342.6476550102234,3,2.9318013191223145,None,,,,,,,,,,,,,,,,,,158,3,2025-02-28_11h02.12.726,comp,2024.2.4,60.08945430581224,2025-02-28 11h02.20.022893 -0500,
66,66,0,filler_square,None,None,None,None,None,None,None,None,None,None,1,1.7391674518585205,None,,,,,0,0,0,0,0,66,66,201,342.66312193870544,,,,,,,,,,,,,,,,,,,,,,,,,,,,,,,,,,,,,,,,,,,,,,,,,,,,,,,,,,,,,,,,,,,,,,,,,,,,,,,,,192.0013350468998,192.0013350468998,174.3371811961311,124.7906046629958,170.4600542556612,119.45084085780803,2.1,2.12,-254,-271,0,-276,218,251,342.6485984325409,342.64863634109497,342.6512053012848,342.66312193870544,342.8132438659668,342.8132438659668,342.8132438659668,342.8132438659668,342.8132438659668,342.8132438659668,342.8132438659668,344.4146640300751,1,1.7391674518585205,None,,,,,,,,,,,,,,,,,,158,3,2025-02-28_11h02.12.726,comp,2024.2.4,60.08945430581224,2025-02-28 11h02.20.022893 -0500,
67,67,0,filler_square,None,None,None,None,None,None,None,None,None,None,1,1.558457851409912,None,,,,,0,0,0,0,0,67,67,183,344.4294581413269,,,,,,,,,,,,,,,,,,,,,,,,,,,,,,,,,,,,,,,,,,,,,,,,,,,,,,,,,,,,,,,,,,,,,,,,,,,,,,,,,165.10909795454828,165.10909795454828,85.7507260578359,99.00888945221092,116.5112100257852,65.01277074768412,3.0,3.1,-228,289,0,-12,178,-266,344.4156274795532,344.4156663417816,344.418151140213,344.4294581413269,344.57968735694885,344.57968735694885,344.57968735694885,344.57968735694885,344.57968735694885,344.57968735694885,344.57968735694885,345.99765372276306,1,1.558457851409912,None,,,,,,,,,,,,,,,,,,158,3,2025-02-28_11h02.12.726,comp,2024.2.4,60.08945430581224,2025-02-28 11h02.20.022893 -0500,
68,68,0,critical,wdh,35.0,2.1,lower,57.0,133.0,70.0,70.0,133.0,57.0,1,2.421107530593872,None,,,,,0,0,0,0,0,68,68,32,346.01318740844727,,,,,,,,,,,,,,,,,,,,,,,,,,,,,,,,,,,,,,,,,,,,,,,,,,,,,,,,,,,,,,,,,,,,,,,,,,,,,,,,,57.0,133.0,70.0,70.0,133.0,57.0,2.1,2.12,-198,-272,0,-275,160,289,345.9984509944916,345.99849224090576,346.0009663105011,346.01318740844727,346.1629796028137,346.1629796028137,346.1629796028137,346.1629796028137,346.1629796028137,346.1629796028137,346.1629796028137,348.447306394577,1,2.421107530593872,None,,,,,,,,,,,,,,,,,,158,3,2025-02-28_11h02.12.726,comp,2024.2.4,60.08945430581224,2025-02-28 11h02.20.022893 -0500,
69,69,0,critical,wdh,20.0,4.0,lower,57.0,133.0,78.0,78.0,133.0,57.0,3,3.1336963176727295,None,,,,,0,0,0,0,0,69,69,82,348.462685585022,,,,,,,,,,,,,,,,,,,,,,,,,,,,,,,,,,,,,,,,,,,,,,,,,,,,,,,,,,,,,,,,,,,,,,,,,,,,,,,,,57.0,133.0,78.0,78.0,133.0,57.0,4.0,4.1,-202,-259,0,12,164,-283,348.4480996131897,348.4481394290924,348.45057678222656,348.462685585022,348.6130781173706,348.6130781173706,348.6130781173706,348.6130781173706,348.6130781173706,348.6130781173706,348.6130781173706,351.61400175094604,3,3.1336963176727295,None,,,,,,,,,,,,,,,,,,158,3,2025-02-28_11h02.12.726,comp,2024.2.4,60.08945430581224,2025-02-28 11h02.20.022893 -0500,
70,70,0,critical,wdh,20.0,4.0,upper,125.0,200.0,141.0,141.0,200.0,125.0,1,4.684819221496582,None,,,,,0,0,0,0,0,70,70,83,351.629497051239,,,,,,,,,,,,,,,,,,,,,,,,,,,,,,,,,,,,,,,,,,,,,,,,,,,,,,,,,,,,,,,,,,,,,,,,,,,,,,,,,125.0,200.0,141.0,141.0,200.0,125.0,4.0,4.2,-266,11,0,-277,229,12,351.61480236053467,351.6148421764374,351.618145942688,351.629497051239,351.78015518188477,351.78015518188477,351.78015518188477,351.78015518188477,351.78015518188477,351.78015518188477,351.78015518188477,356.33085441589355,1,4.684819221496582,None,,,,,,,,,,,,,,,,,,158,3,2025-02-28_11h02.12.726,comp,2024.2.4,60.08945430581224,2025-02-28 11h02.20.022893 -0500,
71,71,0,critical,dhw,35.0,3.0,lower,70.0,70.0,133.0,57.0,57.0,133.0,2,2.4175033569335938,None,,,,,0,0,0,0,0,71,71,50,356.3460121154785,,,,,,,,,,,,,,,,,,,,,,,,,,,,,,,,,,,,,,,,,,,,,,,,,,,,,,,,,,,,,,,,,,,,,,,,,,,,,,,,,70.0,70.0,133.0,57.0,57.0,133.0,3.0,3.1,-160,263,0,-10,191,-263,356.3316843509674,356.33172512054443,356.33404994010925,356.3460121154785,356.49618434906006,356.49618434906006,356.49618434906006,356.49618434906006,356.49618434906006,356.49618434906006,356.49618434906006,358.7806022167206,2,2.4175033569335938,None,,,,,,,,,,,,,,,,,,158,3,2025-02-28_11h02.12.726,comp,2024.2.4,60.08945430581224,2025-02-28 11h02.20.022893 -0500,
72,72,0,critical,dhw,35.0,3.0,upper,127.0,127.0,200.0,125.0,125.0,200.0,2,2.2547216415405273,None,,,,,0,0,0,0,0,72,72,51,358.7960522174835,,,,,,,,,,,,,,,,,,,,,,,,,,,,,,,,,,,,,,,,,,,,,,,,,,,,,,,,,,,,,,,,,,,,,,,,,,,,,,,,,127.0,127.0,200.0,125.0,125.0,200.0,3.0,3.2,-222,-268,0,6,258,283,358.7814028263092,358.7814419269562,358.78355503082275,358.7960522174835,358.9463367462158,358.9463367462158,358.9463367462158,358.9463367462158,358.9463367462158,358.9463367462158,358.9463367462158,361.0640571117401,2,2.2547216415405273,None,,,,,,,,,,,,,,,,,,158,3,2025-02-28_11h02.12.726,comp,2024.2.4,60.08945430581224,2025-02-28 11h02.20.022893 -0500,
73,73,0,critical,dhw,20.0,3.0,lower,78.0,78.0,133.0,57.0,57.0,133.0,3,5.450830698013306,None,,,,,0,0,0,0,0,73,73,56,361.0795192718506,,,,,,,,,,,,,,,,,,,,,,,,,,,,,,,,,,,,,,,,,,,,,,,,,,,,,,,,,,,,,,,,,,,,,,,,,,,,,,,,,78.0,78.0,133.0,57.0,57.0,133.0,3.0,3.1,-164,289,0,15,191,-282,361.06489753723145,361.0649428367615,361.06728649139404,361.0795192718506,361.23300194740295,361.23300194740295,361.23300194740295,361.23300194740295,361.23300194740295,361.23300194740295,361.23300194740295,366.54725670814514,3,5.450830698013306,None,,,,,,,,,,,,,,,,,,158,3,2025-02-28_11h02.12.726,comp,2024.2.4,60.08945430581224,2025-02-28 11h02.20.022893 -0500,
74,74,0,filler_square,None,None,None,None,None,None,None,None,None,None,3,1.6554112434387207,None,,,,,0,0,0,0,0,74,74,194,366.56272864341736,,,,,,,,,,,,,,,,,,,,,,,,,,,,,,,,,,,,,,,,,,,,,,,,,,,,,,,,,,,,,,,,,,,,,,,,,,,,,,,,,74.0935259086886,88.85959533365336,57.729319248904964,99.91678925966184,118.64809158881553,118.64809158881553,2.2,2.22,-190,275,0,-253,205,-271,366.54825019836426,366.54829025268555,366.55068922042847,366.56272864341736,366.7126479148865,366.7126479148865,366.7126479148865,366.7126479148865,366.7126479148865,366.7126479148865,366.7126479148865,368.230676651001,3,1.6554112434387207,None,,,,,,,,,,,,,,,,,,158,3,2025-02-28_11h02.12.726,comp,2024.2.4,60.08945430581224,2025-02-28 11h02.20.022893 -0500,
75,75,0,critical,hdw,20.0,2.1,upper,200.0,125.0,141.0,141.0,125.0,200.0,3,2.7005345821380615,None,,,,,0,0,0,0,0,75,75,47,368.2460386753082,,,,,,,,,,,,,,,,,,,,,,,,,,,,,,,,,,,,,,,,,,,,,,,,,,,,,,,,,,,,,,,,,,,,,,,,,,,,,,,,,200.0,125.0,141.0,141.0,125.0,200.0,2.1,2.11,-229,266,0,262,266,-266,368.231481552124,368.2315208911896,368.23361444473267,368.2460386753082,368.3963429927826,368.3963429927826,368.3963429927826,368.3963429927826,368.3963429927826,368.3963429927826,368.3963429927826,370.9640474319458,3,2.7005345821380615,None,,,,,,,,,,,,,,,,,,158,3,2025-02-28_11h02.12.726,comp,2024.2.4,60.08945430581224,2025-02-28 11h02.20.022893 -0500,
76,76,0,filler_square,None,None,None,None,None,None,None,None,None,None,1,2.5438785552978516,None,,,,,0,0,0,0,0,76,76,189,370.9792802333832,,,,,,,,,,,,,,,,,,,,,,,,,,,,,,,,,,,,,,,,,,,,,,,,,,,,,,,,,,,,,,,,,,,,,,,,,,,,,,,,,126.39199823993332,126.39199823993332,114.11769058968073,125.5223754702199,60.265762902697325,89.39864138758767,2.1,2.11,-222,268,0,268,203,-285,370.96501874923706,370.965069770813,370.9672510623932,370.9792802333832,371.1294119358063,371.1294119358063,371.1294119358063,371.1294119358063,371.1294119358063,371.1294119358063,371.1294119358063,373.53066062927246,1,2.5438785552978516,None,,,,,,,,,,,,,,,,,,158,3,2025-02-28_11h02.12.726,comp,2024.2.4,60.08945430581224,2025-02-28 11h02.20.022893 -0500,
77,77,0,critical,hwd,35.0,2.1,lower,133.0,57.0,57.0,133.0,70.0,70.0,2,3.583676815032959,None,,,,,0,0,0,0,0,77,77,16,373.56286120414734,,,,,,,,,,,,,,,,,,,,,,,,,,,,,,,,,,,,,,,,,,,,,,,,,,,,,,,,,,,,,,,,,,,,,,,,,,,,,,,,,133.0,57.0,57.0,133.0,70.0,70.0,2.1,2.12,-191,-275,0,-263,198,281,373.53148794174194,373.53152775764465,373.5335330963135,373.56286120414734,373.6960515975952,373.6960515975952,373.6960515975952,373.6960515975952,373.6960515975952,373.6960515975952,373.6960515975952,377.16378021240234,2,3.583676815032959,None,,,,,,,,,,,,,,,,,,158,3,2025-02-28_11h02.12.726,comp,2024.2.4,60.08945430581224,2025-02-28 11h02.20.022893 -0500,
78,78,0,filler_random,None,None,None,None,None,None,None,None,None,None,2,1.8868529796600342,None,,,,,0,0,0,0,0,78,78,162,377.17936635017395,,,,,,,,,,,,,,,,,,,,,,,,,,,,,,,,,,,,,,,,,,,,,,,,,,,,,,,,,,,,,,,,,,,,,,,,,,,,,,,,,112.68631551518965,104.53048292677614,176.65679445925656,158.3193257697352,88.1070428031323,98.41919105916784,4.0,4.1,-227,-266,0,-2,224,-251,377.1647160053253,377.16475558280945,377.16691160202026,377.17936635017395,377.3295431137085,377.3295431137085,377.3295431137085,377.3295431137085,377.3295431137085,377.3295431137085,377.3295431137085,379.08062267303467,2,1.8868529796600342,None,,,,,,,,,,,,,,,,,,158,3,2025-02-28_11h02.12.726,comp,2024.2.4,60.08945430581224,2025-02-28 11h02.20.022893 -0500,
79,79,0,filler_square,None,None,None,None,None,None,None,None,None,None,1,1.7703537940979004,None,,,,,0,0,0,0,0,79,79,188,379.0959370136261,,,,,,,,,,,,,,,,,,,,,,,,,,,,,,,,,,,,,,,,,,,,,,,,,,,,,,,,,,,,,,,,,,,,,,,,,,,,,,,,,112.06765551093902,112.06765551093902,57.74221151259884,57.11634399384279,79.56412320100823,91.6793432844911,4.0,4.1,-181,-286,0,-19,170,-281,379.0815727710724,379.08161330223083,379.084130525589,379.0959370136261,379.24597549438477,379.24597549438477,379.24597549438477,379.24597549438477,379.24597549438477,379.24597549438477,379.24597549438477,380.8803913593292,1,1.7703537940979004,None,,,,,,,,,,,,,,,,,,158,3,2025-02-28_11h02.12.726,comp,2024.2.4,60.08945430581224,2025-02-28 11h02.20.022893 -0500,
80,80,0,filler_random,None,None,None,None,None,None,None,None,None,None,2,1.818399429321289,None,,,,,0,0,0,0,0,80,80,135,380.89584612846375,,,,,,,,,,,,,,,,,,,,,,,,,,,,,,,,,,,,,,,,,,,,,,,,,,,,,,,,,,,,,,,,,,,,,,,,,,,,,,,,,170.1795350226713,79.01731975452388,184.78018962678564,89.29182302537848,71.6668378327843,121.29139383131499,3.0,3.2,-180,-273,0,9,201,280,380.88130164146423,380.88134241104126,380.88381457328796,380.89584612846375,381.0465507507324,381.0465507507324,381.0465507507324,381.0465507507324,381.0465507507324,381.0465507507324,381.0465507507324,382.7305099964142,2,1.818399429321289,None,,,,,,,,,,,,,,,,,,158,3,2025-02-28_11h02.12.726,comp,2024.2.4,60.08945430581224,2025-02-28 11h02.20.022893 -0500,
81,81,0,filler_square,None,None,None,None,None,None,None,None,None,None,3,2.200605630874634,None,,,,,0,0,0,0,0,81,81,206,382.74589800834656,,,,,,,,,,,,,,,,,,,,,,,,,,,,,,,,,,,,,,,,,,,,,,,,,,,,,,,,,,,,,,,,,,,,,,,,,,,,,,,,,63.46984763082659,62.64024384904087,76.44519701161472,86.6600269601671,87.26776165654618,87.26776165654618,3.0,3.2,-171,-273,0,-6,183,273,382.7314646244049,382.73150515556335,382.7339584827423,382.74589800834656,382.8959593772888,382.8959593772888,382.8959593772888,382.8959593772888,382.8959593772888,382.8959593772888,382.8959593772888,384.9637305736542,3,2.200605630874634,None,,,,,,,,,,,,,,,,,,158,3,2025-02-28_11h02.12.726,comp,2024.2.4,60.08945430581224,2025-02-28 11h02.20.022893 -0500,
82,82,0,critical,whd,35.0,2.1,upper,125.0,200.0,200.0,125.0,127.0,127.0,2,4.00048828125,None,,,,,0,0,0,0,0,82,82,37,384.97918152809143,,,,,,,,,,,,,,,,,,,,,,,,,,,,,,,,,,,,,,,,,,,,,,,,,,,,,,,,,,,,,,,,,,,,,,,,,,,,,,,,,125.0,200.0,200.0,125.0,127.0,127.0,2.1,2.11,-258,279,0,259,222,-286,384.9645392894745,384.9645781517029,384.9671287536621,384.97918152809143,385.12968397140503,385.12968397140503,385.12968397140503,385.12968397140503,385.12968397140503,385.12968397140503,385.12968397140503,388.99726271629333,2,4.00048828125,None,,,,,,,,,,,,,,,,,,158,3,2025-02-28_11h02.12.726,comp,2024.2.4,60.08945430581224,2025-02-28 11h02.20.022893 -0500,
83,83,0,filler_square,None,None,None,None,None,None,None,None,None,None,1,1.3753561973571777,None,,,,,0,0,0,0,0,83,83,176,389.0126519203186,,,,,,,,,,,,,,,,,,,,,,,,,,,,,,,,,,,,,,,,,,,,,,,,,,,,,,,,,,,,,,,,,,,,,,,,,,,,,,,,,191.65466761585566,191.65466761585566,149.57161084965662,81.40543799725461,74.06780651719903,145.52085739682127,2.1,2.12,-233,-289,0,-269,209,262,388.9982223510742,388.99826288223267,389.000625371933,389.0126519203186,389.16275811195374,389.16275811195374,389.16275811195374,389.16275811195374,389.16275811195374,389.16275811195374,389.16275811195374,390.3972578048706,1,1.3753561973571777,None,,,,,,,,,,,,,,,,,,158,3,2025-02-28_11h02.12.726,comp,2024.2.4,60.08945430581224,2025-02-28 11h02.20.022893 -0500,
84,84,0,critical,hwd,20.0,3.0,upper,200.0,125.0,125.0,200.0,141.0,141.0,2,1.3835945129394531,None,,,,,0,0,0,0,0,84,84,105,390.412743806839,,,,,,,,,,,,,,,,,,,,,,,,,,,,,,,,,,,,,,,,,,,,,,,,,,,,,,,,,,,,,,,,,,,,,,,,,,,,,,,,,200.0,125.0,125.0,200.0,141.0,141.0,3.0,3.1,-258,255,0,16,266,-290,390.3981685638428,390.39820885658264,390.4006519317627,390.412743806839,390.5627112388611,390.5627112388611,390.5627112388611,390.5627112388611,390.5627112388611,390.5627112388611,390.5627112388611,391.7974798679352,2,1.3835945129394531,None,,,,,,,,,,,,,,,,,,158,3,2025-02-28_11h02.12.726,comp,2024.2.4,60.08945430581224,2025-02-28 11h02.20.022893 -0500,
85,85,0,filler_square,None,None,None,None,None,None,None,None,None,None,2,1.5174314975738525,None,,,,,0,0,0,0,0,85,85,196,391.81271505355835,,,,,,,,,,,,,,,,,,,,,,,,,,,,,,,,,,,,,,,,,,,,,,,,,,,,,,,,,,,,,,,,,,,,,,,,,,,,,,,,,75.46311041849486,97.20020815822721,137.043627986787,137.043627986787,107.02539921044402,115.50308476149831,3.0,3.2,-213,-283,0,-5,222,289,391.79839611053467,391.7984354496002,391.80048155784607,391.81271505355835,391.9627203941345,391.9627203941345,391.9627203941345,391.9627203941345,391.9627203941345,391.9627203941345,391.9627203941345,393.3470902442932,2,1.5174314975738525,None,,,,,,,,,,,,,,,,,,158,3,2025-02-28_11h02.12.726,comp,2024.2.4,60.08945430581224,2025-02-28 11h02.20.022893 -0500,
86,86,0,critical,hdw,35.0,4.0,lower,133.0,57.0,70.0,70.0,57.0,133.0,3,2.36049747467041,None,,,,,0,0,0,0,0,86,86,112,393.36252903938293,,,,,,,,,,,,,,,,,,,,,,,,,,,,,,,,,,,,,,,,,,,,,,,,,,,,,,,,,,,,,,,,,,,,,,,,,,,,,,,,,133.0,57.0,70.0,70.0,57.0,133.0,4.0,4.1,-160,-281,0,-5,198,-254,393.34792041778564,393.3479588031769,393.3500735759735,393.36252903938293,393.51260566711426,393.51260566711426,393.51260566711426,393.51260566711426,393.51260566711426,393.51260566711426,393.51260566711426,395.73032784461975,3,2.36049747467041,None,,,,,,,,,,,,,,,,,,158,3,2025-02-28_11h02.12.726,comp,2024.2.4,60.08945430581224,2025-02-28 11h02.20.022893 -0500,
87,87,0,filler_random,None,None,None,None,None,None,None,None,None,None,1,1.4879276752471924,None,,,,,0,0,0,0,0,87,87,147,395.7460889816284,,,,,,,,,,,,,,,,,,,,,,,,,,,,,,,,,,,,,,,,,,,,,,,,,,,,,,,,,,,,,,,,,,,,,,,,,,,,,,,,,186.4456305175423,180.7652804781328,165.05530508575612,107.65801077606315,91.27761844283131,150.21350720763607,2.1,2.12,-240,-257,0,-255,225,276,395.73124527931213,395.7312867641449,395.73383045196533,395.7460889816284,395.8960990905762,395.8960990905762,395.8960990905762,395.8960990905762,395.8960990905762,395.8960990905762,395.8960990905762,397.2472903728485,1,1.4879276752471924,None,,,,,,,,,,,,,,,,,,158,3,2025-02-28_11h02.12.726,comp,2024.2.4,60.08945430581224,2025-02-28 11h02.20.022893 -0500,
88,88,0,critical,dhw,35.0,2.1,lower,70.0,70.0,133.0,57.0,57.0,133.0,3,1.916792392730713,None,,,,,0,0,0,0,0,88,88,0,397.2625367641449,,,,,,,,,,,,,,,,,,,,,,,,,,,,,,,,,,,,,,,,,,,,,,,,,,,,,,,,,,,,,,,,,,,,,,,,,,,,,,,,,70.0,70.0,133.0,57.0,57.0,133.0,2.1,2.11,-160,279,0,267,191,-267,397.24808835983276,397.2481281757355,397.2502815723419,397.2625367641449,397.41251707077026,397.41251707077026,397.41251707077026,397.41251707077026,397.41251707077026,397.41251707077026,397.41251707077026,399.1971893310547,3,1.916792392730713,None,,,,,,,,,,,,,,,,,,158,3,2025-02-28_11h02.12.726,comp,2024.2.4,60.08945430581224,2025-02-28 11h02.20.022893 -0500,
89,89,0,critical,whd,35.0,2.1,lower,57.0,133.0,133.0,57.0,70.0,70.0,2,4.726349353790283,None,,,,,0,0,0,0,0,89,89,36,399.2124605178833,,,,,,,,,,,,,,,,,,,,,,,,,,,,,,,,,,,,,,,,,,,,,,,,,,,,,,,,,,,,,,,,,,,,,,,,,,,,,,,,,57.0,133.0,133.0,57.0,70.0,70.0,2.1,2.11,-191,289,0,279,160,-255,399.19797682762146,399.1980171203613,399.20020389556885,399.2124605178833,399.3624770641327,399.3624770641327,399.3624770641327,399.3624770641327,399.3624770641327,399.3624770641327,399.3624770641327,403.946875333786,2,4.726349353790283,None,,,,,,,,,,,,,,,,,,158,3,2025-02-28_11h02.12.726,comp,2024.2.4,60.08945430581224,2025-02-28 11h02.20.022893 -0500,
90,90,0,critical,hwd,35.0,2.1,upper,200.0,125.0,125.0,200.0,127.0,127.0,2,2.2250335216522217,None,,,,,0,0,0,0,0,90,90,17,403.96264362335205,,,,,,,,,,,,,,,,,,,,,,,,,,,,,,,,,,,,,,,,,,,,,,,,,,,,,,,,,,,,,,,,,,,,,,,,,,,,,,,,,200.0,125.0,125.0,200.0,127.0,127.0,2.1,2.12,-258,-267,0,-276,260,273,403.9476909637451,403.9477319717407,403.9500079154968,403.96264362335205,404.1127550601959,404.1127550601959,404.1127550601959,404.1127550601959,404.1127550601959,404.1127550601959,404.1127550601959,406.19711422920227,2,2.2250335216522217,None,,,,,,,,,,,,,,,,,,158,3,2025-02-28_11h02.12.726,comp,2024.2.4,60.08945430581224,2025-02-28 11h02.20.022893 -0500,
91,91,0,critical,dwh,20.0,2.1,lower,78.0,78.0,57.0,133.0,133.0,57.0,2,3.0627052783966064,None,,,,,0,0,0,0,0,91,91,30,406.21267080307007,,,,,,,,,,,,,,,,,,,,,,,,,,,,,,,,,,,,,,,,,,,,,,,,,,,,,,,,,,,,,,,,,,,,,,,,,,,,,,,,,78.0,78.0,57.0,133.0,133.0,57.0,2.1,2.12,-202,-254,0,-275,191,262,406.1978952884674,406.1979353427887,406.20028162002563,406.21267080307007,406.3624858856201,406.3624858856201,406.3624858856201,406.3624858856201,406.3624858856201,406.3624858856201,406.3624858856201,409.28033804893494,2,3.0627052783966064,None,,,,,,,,,,,,,,,,,,158,3,2025-02-28_11h02.12.726,comp,2024.2.4,60.08945430581224,2025-02-28 11h02.20.022893 -0500,
92,92,0,filler_square,None,None,None,None,None,None,None,None,None,None,2,1.9545743465423584,None,,,,,0,0,0,0,0,92,92,178,409.29587960243225,,,,,,,,,,,,,,,,,,,,,,,,,,,,,,,,,,,,,,,,,,,,,,,,,,,,,,,,,,,,,,,,,,,,,,,,,,,,,,,,,61.01585131989548,66.97490284833785,85.92865639026918,85.92865639026918,85.43828011103801,69.7958756422253,2.1,2.12,-172,-256,0,-279,174,281,409.2812614440918,409.2813000679016,409.2836673259735,409.29587960243225,409.44579577445984,409.44579577445984,409.44579577445984,409.44579577445984,409.44579577445984,409.44579577445984,409.44579577445984,411.2635579109192,2,1.9545743465423584,None,,,,,,,,,,,,,,,,,,158,3,2025-02-28_11h02.12.726,comp,2024.2.4,60.08945430581224,2025-02-28 11h02.20.022893 -0500,
93,93,0,catch,None,None,None,None,None,None,None,None,None,None,3,1.1081867218017578,None,,,,,0,0,0,0,0,93,93,124,411.2789270877838,,,,,,,,,,,,,,,,,,,,,,,,,,,,,,,,,,,,,,,,,,,,,,,,,,,,,,,,,,,,,,,,,,,,,,,,,,,,,,,,,69,121,94,96,185,140,4.0,4.1,-204,-268,0,19,214,-282,411.2646367549896,411.26467752456665,411.2672095298767,411.2789270877838,411.42916798591614,411.42916798591614,411.42916798591614,411.42916798591614,411.42916798591614,411.42916798591614,411.42916798591614,412.39698600769043,3,1.1081867218017578,None,,,,,,,,,,,,,,,,,,158,3,2025-02-28_11h02.12.726,comp,2024.2.4,60.08945430581224,2025-02-28 11h02.20.022893 -0500,
94,94,0,critical,dhw,35.0,2.1,lower,70.0,70.0,133.0,57.0,57.0,133.0,3,2.4696834087371826,None,,,,,0,0,0,0,0,94,94,24,412.41262650489807,,,,,,,,,,,,,,,,,,,,,,,,,,,,,,,,,,,,,,,,,,,,,,,,,,,,,,,,,,,,,,,,,,,,,,,,,,,,,,,,,70.0,70.0,133.0,57.0,57.0,133.0,2.1,2.12,-160,-253,0,-267,191,253,412.39778995513916,412.39782881736755,412.4000551700592,412.41262650489807,412.5624032020569,412.5624032020569,412.5624032020569,412.5624032020569,412.5624032020569,412.5624032020569,412.5624032020569,414.8968873023987,3,2.4696834087371826,None,,,,,,,,,,,,,,,,,,158,3,2025-02-28_11h02.12.726,comp,2024.2.4,60.08945430581224,2025-02-28 11h02.20.022893 -0500,
95,95,0,filler_square,None,None,None,None,None,None,None,None,None,None,3,1.985569953918457,None,,,,,0,0,0,0,0,95,95,208,414.91236877441406,,,,,,,,,,,,,,,,,,,,,,,,,,,,,,,,,,,,,,,,,,,,,,,,,,,,,,,,,,,,,,,,,,,,,,,,,,,,,,,,,105.3865842349073,71.45388953965416,96.51751374054136,111.49419169638591,113.60750249158639,113.60750249158639,4.0,4.2,-187,18,0,-257,209,-3,414.8978383541107,414.8978805541992,414.90007400512695,414.91236877441406,415.0625057220459,415.0625057220459,415.0625057220459,415.0625057220459,415.0625057220459,415.0625057220459,415.0625057220459,416.9136028289795,3,1.985569953918457,None,,,,,,,,,,,,,,,,,,158,3,2025-02-28_11h02.12.726,comp,2024.2.4,60.08945430581224,2025-02-28 11h02.20.022893 -0500,
96,96,0,critical,hdw,35.0,3.0,lower,133.0,57.0,70.0,70.0,57.0,133.0,3,3.8174593448638916,None,,,,,0,0,0,0,0,96,96,110,416.92897939682007,,,,,,,,,,,,,,,,,,,,,,,,,,,,,,,,,,,,,,,,,,,,,,,,,,,,,,,,,,,,,,,,,,,,,,,,,,,,,,,,,133.0,57.0,70.0,70.0,57.0,133.0,3.0,3.2,-160,-274,0,-15,198,277,416.91440296173096,416.91444420814514,416.91692781448364,416.92897939682007,417.0791311264038,417.0791311264038,417.0791311264038,417.0791311264038,417.0791311264038,417.0791311264038,417.0791311264038,420.7636799812317,3,3.8174593448638916,None,,,,,,,,,,,,,,,,,,158,3,2025-02-28_11h02.12.726,comp,2024.2.4,60.08945430581224,2025-02-28 11h02.20.022893 -0500,
97,97,0,critical,whd,20.0,3.0,lower,57.0,133.0,133.0,57.0,78.0,78.0,2,1.8003864288330078,None,,,,,0,0,0,0,0,97,97,92,420.7789258956909,,,,,,,,,,,,,,,,,,,,,,,,,,,,,,,,,,,,,,,,,,,,,,,,,,,,,,,,,,,,,,,,,,,,,,,,,,,,,,,,,57.0,133.0,133.0,57.0,78.0,78.0,3.0,3.2,-191,-255,0,-4,164,268,420.7644968032837,420.7645375728607,420.76701402664185,420.7789258956909,420.92909145355225,420.92909145355225,420.92909145355225,420.92909145355225,420.92909145355225,420.92909145355225,420.92909145355225,422.5968368053436,2,1.8003864288330078,None,,,,,,,,,,,,,,,,,,158,3,2025-02-28_11h02.12.726,comp,2024.2.4,60.08945430581224,2025-02-28 11h02.20.022893 -0500,
98,98,0,filler_random,None,None,None,None,None,None,None,None,None,None,3,2.7584285736083984,None,,,,,0,0,0,0,0,98,98,148,422.61230993270874,,,,,,,,,,,,,,,,,,,,,,,,,,,,,,,,,,,,,,,,,,,,,,,,,,,,,,,,,,,,,,,,,,,,,,,,,,,,,,,,,153.88888509883492,151.4358320550303,134.7226046404179,116.46784656096385,127.73896672876542,173.91619765292185,3.0,3.1,-230,280,0,-8,241,-282,422.59774112701416,422.5977826118469,422.60036611557007,422.61230993270874,422.7626554965973,422.7626554965973,422.7626554965973,422.7626554965973,422.7626554965973,422.7626554965973,422.7626554965973,425.38029384613037,3,2.7584285736083984,None,,,,,,,,,,,,,,,,,,158,3,2025-02-28_11h02.12.726,comp,2024.2.4,60.08945430581224,2025-02-28 11h02.20.022893 -0500,
99,99,0,catch,None,None,None,None,None,None,None,None,None,None,3,1.0058996677398682,None,,,,,0,0,0,0,0,99,99,127,425.395916223526,,,,,,,,,,,,,,,,,,,,,,,,,,,,,,,,,,,,,,,,,,,,,,,,,,,,,,,,,,,,,,,,,,,,,,,,,,,,,,,,,106,84,126,64,188,137,2.1,2.12,-170,-268,0,-290,196,276,425.3813498020172,425.3813910484314,425.38380336761475,425.395916223526,425.5458161830902,425.5458161830902,425.5458161830902,425.5458161830902,425.5458161830902,425.5458161830902,425.5458161830902,426.4135375022888,3,1.0058996677398682,None,,,,,,,,,,,,,,,,,,158,3,2025-02-28_11h02.12.726,comp,2024.2.4,60.08945430581224,2025-02-28 11h02.20.022893 -0500,
100,100,0,filler_random,None,None,None,None,None,None,None,None,None,None,1,2.325594425201416,None,,,,,0,0,0,0,0,100,100,153,426.42920303344727,,,,,,,,,,,,,,,,,,,,,,,,,,,,,,,,,,,,,,,,,,,,,,,,,,,,,,,,,,,,,,,,,,,,,,,,,,,,,,,,,100.85164497080737,185.7722320195233,92.86035872850275,173.19810194393466,101.78719700327781,135.74642646905752,2.1,2.12,-275,-272,0,-285,250,251,426.41444396972656,426.4144833087921,426.4169909954071,426.42920303344727,426.579181432724,426.579181432724,426.579181432724,426.579181432724,426.579181432724,426.579181432724,426.579181432724,428.7637107372284,1,2.325594425201416,None,,,,,,,,,,,,,,,,,,158,3,2025-02-28_11h02.12.726,comp,2024.2.4,60.08945430581224,2025-02-28 11h02.20.022893 -0500,
101,101,0,catch,None,None,None,None,None,None,None,None,None,None,1,1.4805564880371094,None,,,,,0,0,0,0,0,101,101,126,428.7792019844055,,,,,,,,,,,,,,,,,,,,,,,,,,,,,,,,,,,,,,,,,,,,,,,,,,,,,,,,,,,,,,,,,,,,,,,,,,,,,,,,,151,174,123,67,121,69,4.0,4.1,-216,-286,0,10,164,-283,428.76477551460266,428.7648141384125,428.767272233963,428.7792019844055,428.929083108902,428.929083108902,428.929083108902,428.929083108902,428.929083108902,428.929083108902,428.929083108902,430.2636671066284,1,1.4805564880371094,None,,,,,,,,,,,,,,,,,,158,3,2025-02-28_11h02.12.726,comp,2024.2.4,60.08945430581224,2025-02-28 11h02.20.022893 -0500,
102,102,0,filler_square,None,None,None,None,None,None,None,None,None,None,1,1.4274790287017822,None,,,,,0,0,0,0,0,102,102,186,430.2790906429291,,,,,,,,,,,,,,,,,,,,,,,,,,,,,,,,,,,,,,,,,,,,,,,,,,,,,,,,,,,,,,,,,,,,,,,,,,,,,,,,,160.3466319054786,160.3466319054786,127.90632766442597,129.71373366218552,115.5019644443735,57.75471319902854,1.0,1.1,-721,254,-480,266,-290,279,430.2646117210388,430.2646517753601,430.26717162132263,430.2790906429291,430.4291708469391,430.4291708469391,430.4291708469391,430.4291708469391,430.4291708469391,430.4291708469391,430.4291708469391,431.7135534286499,1,1.4274790287017822,None,,,,,,,,,,,,,,,,,,158,3,2025-02-28_11h02.12.726,comp,2024.2.4,60.08945430581224,2025-02-28 11h02.20.022893 -0500,
103,103,0,filler_square,None,None,None,None,None,None,None,None,None,None,3,2.384758472442627,None,,,,,0,0,0,0,0,103,103,199,431.72917437553406,,,,,,,,,,,,,,,,,,,,,,,,,,,,,,,,,,,,,,,,,,,,,,,,,,,,,,,,,,,,,,,,,,,,,,,,,,,,,,,,,59.76556380483084,58.150282089714224,59.47070178800413,57.82610175644091,61.517003904784644,61.517003904784644,3.0,3.1,-154,270,0,-9,156,-272,431.7145199775696,431.7145595550537,431.7169587612152,431.72917437553406,431.87889432907104,431.87889432907104,431.87889432907104,431.87889432907104,431.87889432907104,431.87889432907104,431.87889432907104,434.12995409965515,3,2.384758472442627,None,,,,,,,,,,,,,,,,,,158,3,2025-02-28_11h02.12.726,comp,2024.2.4,60.08945430581224,2025-02-28 11h02.20.022893 -0500,
104,104,0,filler_square,None,None,None,None,None,None,None,None,None,None,1,1.6986405849456787,None,,,,,0,0,0,0,0,104,104,177,434.1455588340759,,,,,,,,,,,,,,,,,,,,,,,,,,,,,,,,,,,,,,,,,,,,,,,,,,,,,,,,,,,,,,,,,,,,,,,,,,,,,,,,,197.63972512163653,197.63972512163653,188.38293799908863,87.83247938758201,169.7467274374148,83.27611250762955,3.0,3.1,-239,283,0,-8,182,-265,434.13087010383606,434.1309087276459,434.1332583427429,434.1455588340759,434.29582691192627,434.29582691192627,434.29582691192627,434.29582691192627,434.29582691192627,434.29582691192627,434.29582691192627,435.8472263813019,1,1.6986405849456787,None,,,,,,,,,,,,,,,,,,158,3,2025-02-28_11h02.12.726,comp,2024.2.4,60.08945430581224,2025-02-28 11h02.20.022893 -0500,
105,105,0,critical,hdw,20.0,4.0,lower,133.0,57.0,78.0,78.0,57.0,133.0,3,6.108173370361328,None,,,,,0,0,0,0,0,105,105,118,435.86241722106934,,,,,,,,,,,,,,,,,,,,,,,,,,,,,,,,,,,,,,,,,,,,,,,,,,,,,,,,,,,,,,,,,,,,,,,,,,,,,,,,,133.0,57.0,78.0,78.0,57.0,133.0,4.0,4.2,-164,-5,0,-285,202,-14,435.847980260849,435.84802055358887,435.8501350879669,435.86241722106934,436.0123960971832,436.0123960971832,436.0123960971832,436.0123960971832,436.0123960971832,436.0123960971832,436.0123960971832,441.9799704551697,3,6.108173370361328,None,,,,,,,,,,,,,,,,,,158,3,2025-02-28_11h02.12.726,comp,2024.2.4,60.08945430581224,2025-02-28 11h02.20.022893 -0500,
106,106,0,filler_random,None,None,None,None,None,None,None,None,None,None,2,1.0795419216156006,None,,,,,0,0,0,0,0,106,106,169,441.995801448822,,,,,,,,,,,,,,,,,,,,,,,,,,,,,,,,,,,,,,,,,,,,,,,,,,,,,,,,,,,,,,,,,,,,,,,,,,,,,,,,,66.68602541629676,58.11404495330571,164.09595217184443,171.51024889767146,147.87497329190882,72.56222562035103,2.1,2.12,-211,-271,0,-256,218,252,441.9808943271637,441.98093605041504,441.9830505847931,441.995801448822,442.1456973552704,442.1456973552704,442.1456973552704,442.1456973552704,442.1456973552704,442.1456973552704,442.1456973552704,443.08021807670593,2,1.0795419216156006,None,,,,,,,,,,,,,,,,,,158,3,2025-02-28_11h02.12.726,comp,2024.2.4,60.08945430581224,2025-02-28 11h02.20.022893 -0500,
107,107,0,critical,dhw,35.0,4.0,lower,70.0,70.0,133.0,57.0,57.0,133.0,3,1.8020398616790771,None,,,,,0,0,0,0,0,107,107,52,443.0957145690918,,,,,,,,,,,,,,,,,,,,,,,,,,,,,,,,,,,,,,,,,,,,,,,,,,,,,,,,,,,,,,,,,,,,,,,,,,,,,,,,,70.0,70.0,133.0,57.0,57.0,133.0,4.0,4.1,-160,-278,0,5,191,-266,443.0809826850891,443.0810339450836,443.0831980705261,443.0957145690918,443.2456200122833,443.2456200122833,443.2456200122833,443.2456200122833,443.2456200122833,443.2456200122833,443.2456200122833,444.9132971763611,3,1.8020398616790771,None,,,,,,,,,,,,,,,,,,158,3,2025-02-28_11h02.12.726,comp,2024.2.4,60.08945430581224,2025-02-28 11h02.20.022893 -0500,
108,108,0,filler_random,None,None,None,None,None,None,None,None,None,None,1,2.3156092166900635,None,,,,,0,0,0,0,0,108,108,139,444.92882680892944,,,,,,,,,,,,,,,,,,,,,,,,,,,,,,,,,,,,,,,,,,,,,,,,,,,,,,,,,,,,,,,,,,,,,,,,,,,,,,,,,66.04588326521808,180.47665756367263,62.30282553098225,144.02830106771154,153.07890248787504,58.866467360472,1.0,1.2,-258,-3,0,3,197,-18,444.91422605514526,444.91426634788513,444.9166934490204,444.92882680892944,445.07907485961914,445.07907485961914,445.07907485961914,445.07907485961914,445.07907485961914,445.07907485961914,445.07907485961914,447.24675941467285,1,2.3156092166900635,None,,,,,,,,,,,,,,,,,,158,3,2025-02-28_11h02.12.726,comp,2024.2.4,60.08945430581224,2025-02-28 11h02.20.022893 -0500,
109,109,0,critical,hdw,20.0,3.0,upper,200.0,125.0,141.0,141.0,125.0,200.0,3,1.427957534790039,None,,,,,0,0,0,0,0,109,109,117,447.2625889778137,,,,,,,,,,,,,,,,,,,,,,,,,,,,,,,,,,,,,,,,,,,,,,,,,,,,,,,,,,,,,,,,,,,,,,,,,,,,,,,,,200.0,125.0,141.0,141.0,125.0,200.0,3.0,3.2,-229,-281,0,-11,266,253,447.2475850582123,447.2476255893707,447.249871969223,447.2625889778137,447.4124412536621,447.4124412536621,447.4124412536621,447.4124412536621,447.4124412536621,447.4124412536621,447.4124412536621,448.6969783306122,3,1.427957534790039,None,,,,,,,,,,,,,,,,,,158,3,2025-02-28_11h02.12.726,comp,2024.2.4,60.08945430581224,2025-02-28 11h02.20.022893 -0500,
110,110,0,critical,whd,35.0,4.0,upper,125.0,200.0,200.0,125.0,127.0,127.0,1,2.475233554840088,None,,,,,0,0,0,0,0,110,110,89,448.71234130859375,,,,,,,,,,,,,,,,,,,,,,,,,,,,,,,,,,,,,,,,,,,,,,,,,,,,,,,,,,,,,,,,,,,,,,,,,,,,,,,,,125.0,200.0,200.0,125.0,127.0,127.0,4.0,4.1,-258,-267,0,-16,222,-288,448.69779229164124,448.69783115386963,448.6999077796936,448.71234130859375,448.8624334335327,448.8624334335327,448.8624334335327,448.8624334335327,448.8624334335327,448.8624334335327,448.8624334335327,451.19684982299805,1,2.475233554840088,None,,,,,,,,,,,,,,,,,,158,3,2025-02-28_11h02.12.726,comp,2024.2.4,60.08945430581224,2025-02-28 11h02.20.022893 -0500,
111,111,0,filler_square,None,None,None,None,None,None,None,None,None,None,3,1.3503034114837646,None,,,,,0,0,0,0,0,111,111,207,451.2124571800232,,,,,,,,,,,,,,,,,,,,,,,,,,,,,,,,,,,,,,,,,,,,,,,,,,,,,,,,,,,,,,,,,,,,,,,,,,,,,,,,,67.94003394355815,81.44993922163972,97.48726794992682,71.43430424676212,102.17458703251828,102.17458703251828,3.0,3.1,-172,273,0,9,183,-284,451.19780445098877,451.1978440284729,451.20037865638733,451.2124571800232,451.36222982406616,451.36222982406616,451.36222982406616,451.36222982406616,451.36222982406616,451.36222982406616,451.36222982406616,452.5798189640045,3,1.3503034114837646,None,,,,,,,,,,,,,,,,,,158,3,2025-02-28_11h02.12.726,comp,2024.2.4,60.08945430581224,2025-02-28 11h02.20.022893 -0500,
112,112,0,filler_square,None,None,None,None,None,None,None,None,None,None,2,1.3836212158203125,None,,,,,0,0,0,0,0,112,112,204,452.59539580345154,,,,,,,,,,,,,,,,,,,,,,,,,,,,,,,,,,,,,,,,,,,,,,,,,,,,,,,,,,,,,,,,,,,,,,,,,,,,,,,,,69.37459339106445,79.20624554166463,118.24326666454299,118.24326666454299,116.12693743626971,61.92418371807915,1.0,1.1,-675,285,-480,269,-294,273,452.58076643943787,452.58080554008484,452.58287715911865,452.59539580345154,452.74551010131836,452.74551010131836,452.74551010131836,452.74551010131836,452.74551010131836,452.74551010131836,452.74551010131836,453.9966630935669,2,1.3836212158203125,None,,,,,,,,,,,,,,,,,,158,3,2025-02-28_11h02.12.726,comp,2024.2.4,60.08945430581224,2025-02-28 11h02.20.022893 -0500,
113,113,0,filler_random,None,None,None,None,None,None,None,None,None,None,2,1.9014387130737305,None,,,,,0,0,0,0,0,113,113,130,454.01225090026855,,,,,,,,,,,,,,,,,,,,,,,,,,,,,,,,,,,,,,,,,,,,,,,,,,,,,,,,,,,,,,,,,,,,,,,,,,,,,,,,,66.63559627518902,171.28762316158856,148.22277358748846,179.03144033378467,135.70726687932813,93.53513006367778,4.0,4.2,-271,9,0,-270,232,-19,453.99760723114014,453.9976477622986,454.00028944015503,454.01225090026855,454.16219544410706,454.16219544410706,454.16219544410706,454.16219544410706,454.16219544410706,454.16219544410706,454.16219544410706,455.9300694465637,2,1.9014387130737305,None,,,,,,,,,,,,,,,,,,158,3,2025-02-28_11h02.12.726,comp,2024.2.4,60.08945430581224,2025-02-28 11h02.20.022893 -0500,
114,114,0,critical,hdw,35.0,2.1,upper,200.0,125.0,127.0,127.0,125.0,200.0,3,1.3521323204040527,None,,,,,0,0,0,0,0,114,114,45,455.9454607963562,,,,,,,,,,,,,,,,,,,,,,,,,,,,,,,,,,,,,,,,,,,,,,,,,,,,,,,,,,,,,,,,,,,,,,,,,,,,,,,,,200.0,125.0,127.0,127.0,125.0,200.0,2.1,2.12,-222,-283,0,-283,260,257,455.9308981895447,455.93093824386597,455.93306732177734,455.9454607963562,456.09574341773987,456.09574341773987,456.09574341773987,456.09574341773987,456.09574341773987,456.09574341773987,456.09574341773987,457.31339836120605,3,1.3521323204040527,None,,,,,,,,,,,,,,,,,,158,3,2025-02-28_11h02.12.726,comp,2024.2.4,60.08945430581224,2025-02-28 11h02.20.022893 -0500,
115,115,0,critical,dhw,20.0,2.1,lower,78.0,78.0,133.0,57.0,57.0,133.0,3,2.2503767013549805,None,,,,,0,0,0,0,0,115,115,26,457.32865738868713,,,,,,,,,,,,,,,,,,,,,,,,,,,,,,,,,,,,,,,,,,,,,,,,,,,,,,,,,,,,,,,,,,,,,,,,,,,,,,,,,78.0,78.0,133.0,57.0,57.0,133.0,2.1,2.12,-164,-261,0,-286,191,287,457.3141920566559,457.31423020362854,457.31665802001953,457.32865738868713,457.4788007736206,457.4788007736206,457.4788007736206,457.4788007736206,457.4788007736206,457.4788007736206,457.4788007736206,459.5968852043152,3,2.2503767013549805,None,,,,,,,,,,,,,,,,,,158,3,2025-02-28_11h02.12.726,comp,2024.2.4,60.08945430581224,2025-02-28 11h02.20.022893 -0500,
116,116,0,critical,dhw,35.0,1.0,lower,70.0,70.0,133.0,57.0,57.0,133.0,3,3.685577154159546,None,,,,,0,0,0,0,0,116,116,48,459.6120533943176,,,,,,,,,,,,,,,,,,,,,,,,,,,,,,,,,,,,,,,,,,,,,,,,,,,,,,,,,,,,,,,,,,,,,,,,,,,,,,,,,70.0,70.0,133.0,57.0,57.0,133.0,1.0,1.3,320,-269,480,-277,671,-251,459.5976939201355,459.5977327823639,459.6002781391144,459.6120533943176,459.7621850967407,459.7621850967407,459.7621850967407,459.7621850967407,459.7621850967407,459.7621850967407,459.7621850967407,463.3132255077362,3,3.685577154159546,None,,,,,,,,,,,,,,,,,,158,3,2025-02-28_11h02.12.726,comp,2024.2.4,60.08945430581224,2025-02-28 11h02.20.022893 -0500,
117,117,0,critical,hwd,35.0,3.0,upper,200.0,125.0,125.0,200.0,127.0,127.0,2,3.2338764667510986,None,,,,,0,0,0,0,0,117,117,99,463.32863879203796,,,,,,,,,,,,,,,,,,,,,,,,,,,,,,,,,,,,,,,,,,,,,,,,,,,,,,,,,,,,,,,,,,,,,,,,,,,,,,,,,200.0,125.0,125.0,200.0,127.0,127.0,3.0,3.1,-258,268,0,-15,260,-263,463.3140027523041,463.31405758857727,463.31651425361633,463.32863879203796,463.47899651527405,463.47899651527405,463.47899651527405,463.47899651527405,463.47899651527405,463.47899651527405,463.47899651527405,466.563592672348,2,3.2338764667510986,None,,,,,,,,,,,,,,,,,,158,3,2025-02-28_11h02.12.726,comp,2024.2.4,60.08945430581224,2025-02-28 11h02.20.022893 -0500,
118,118,0,critical,dwh,20.0,3.0,lower,78.0,78.0,57.0,133.0,133.0,57.0,2,3.7842700481414795,None,,,,,0,0,0,0,0,118,118,68,466.5788605213165,,,,,,,,,,,,,,,,,,,,,,,,,,,,,,,,,,,,,,,,,,,,,,,,,,,,,,,,,,,,,,,,,,,,,,,,,,,,,,,,,78.0,78.0,57.0,133.0,133.0,57.0,3.0,3.2,-202,-258,0,-8,191,256,466.56440901756287,466.56445026397705,466.5665738582611,466.5788605213165,466.72869420051575,466.72869420051575,466.72869420051575,466.72869420051575,466.72869420051575,466.72869420051575,466.72869420051575,470.381285905838,2,3.7842700481414795,None,,,,,,,,,,,,,,,,,,158,3,2025-02-28_11h02.12.726,comp,2024.2.4,60.08945430581224,2025-02-28 11h02.20.022893 -0500,
119,119,0,critical,hwd,20.0,2.1,lower,133.0,57.0,57.0,133.0,78.0,78.0,2,2.38189697265625,None,,,,,0,0,0,0,0,119,119,18,470.3970708847046,,,,,,,,,,,,,,,,,,,,,,,,,,,,,,,,,,,,,,,,,,,,,,,,,,,,,,,,,,,,,,,,,,,,,,,,,,,,,,,,,133.0,57.0,57.0,133.0,78.0,78.0,2.1,2.11,-191,276,0,279,202,-274,470.3823142051697,470.38236784935,470.38519310951233,470.3970708847046,470.54592967033386,470.54592967033386,470.54592967033386,470.54592967033386,470.54592967033386,470.54592967033386,470.54592967033386,472.7965922355652,2,2.38189697265625,None,,,,,,,,,,,,,,,,,,158,3,2025-02-28_11h02.12.726,comp,2024.2.4,60.08945430581224,2025-02-28 11h02.20.022893 -0500,
120,120,0,catch,None,None,None,None,None,None,None,None,None,None,1,1.167043685913086,None,,,,,0,0,0,0,0,120,120,125,472.811949968338,,,,,,,,,,,,,,,,,,,,,,,,,,,,,,,,,,,,,,,,,,,,,,,,,,,,,,,,,,,,,,,,,,,,,,,,,,,,,,,,,137,188,94,96,63,127,3.0,3.1,-238,258,0,18,208,-277,472.79763865470886,472.7976801395416,472.79981422424316,472.811949968338,472.96219515800476,472.96219515800476,472.96219515800476,472.96219515800476,472.96219515800476,472.96219515800476,472.96219515800476,473.9965343475342,1,1.167043685913086,None,,,,,,,,,,,,,,,,,,158,3,2025-02-28_11h02.12.726,comp,2024.2.4,60.08945430581224,2025-02-28 11h02.20.022893 -0500,
121,121,0,critical,hwd,35.0,1.0,upper,200.0,125.0,125.0,200.0,127.0,127.0,2,2.0941410064697266,None,,,,,0,0,0,0,0,121,121,97,474.01210165023804,,,,,,,,,,,,,,,,,,,,,,,,,,,,,,,,,,,,,,,,,,,,,,,,,,,,,,,,,,,,,,,,,,,,,,,,,,,,,,,,,200.0,125.0,125.0,200.0,127.0,127.0,1.0,1.3,222,-264,480,-285,740,-272,473.99730467796326,473.99734234809875,473.99976348876953,474.01210165023804,474.16230368614197,474.16230368614197,474.16230368614197,474.16230368614197,474.16230368614197,474.16230368614197,474.16230368614197,476.11332750320435,2,2.0941410064697266,None,,,,,,,,,,,,,,,,,,158,3,2025-02-28_11h02.12.726,comp,2024.2.4,60.08945430581224,2025-02-28 11h02.20.022893 -0500,
122,122,0,filler_random,None,None,None,None,None,None,None,None,None,None,2,1.2097294330596924,None,,,,,0,0,0,0,0,122,122,164,476.1287224292755,,,,,,,,,,,,,,,,,,,,,,,,,,,,,,,,,,,,,,,,,,,,,,,,,,,,,,,,,,,,,,,,,,,,,,,,,,,,,,,,,102.86318581422887,99.6866570852064,182.8613363902969,174.9002149334628,124.01871803920555,156.4261964786001,4.0,4.2,-233,9,0,-258,262,0,476.11426734924316,476.11430859565735,476.1164243221283,476.1287224292755,476.27886414527893,476.27886414527893,476.27886414527893,476.27886414527893,476.27886414527893,476.27886414527893,476.27886414527893,477.3466594219208,2,1.2097294330596924,None,,,,,,,,,,,,,,,,,,158,3,2025-02-28_11h02.12.726,comp,2024.2.4,60.08945430581224,2025-02-28 11h02.20.022893 -0500,
123,123,0,critical,wdh,20.0,2.1,lower,57.0,133.0,78.0,78.0,133.0,57.0,1,3.8393287658691406,None,,,,,0,0,0,0,0,123,123,10,477.3620448112488,,,,,,,,,,,,,,,,,,,,,,,,,,,,,,,,,,,,,,,,,,,,,,,,,,,,,,,,,,,,,,,,,,,,,,,,,,,,,,,,,57.0,133.0,78.0,78.0,133.0,57.0,2.1,2.12,-202,-273,0,-278,164,266,477.34745240211487,477.3474929332733,477.35007977485657,477.3620448112488,477.51213574409485,477.51213574409485,477.51213574409485,477.51213574409485,477.51213574409485,477.51213574409485,477.51213574409485,481.21367835998535,1,3.8393287658691406,None,,,,,,,,,,,,,,,,,,158,3,2025-02-28_11h02.12.726,comp,2024.2.4,60.08945430581224,2025-02-28 11h02.20.022893 -0500,
124,124,0,critical,hwd,35.0,3.0,lower,133.0,57.0,57.0,133.0,70.0,70.0,2,1.3834800720214844,None,,,,,0,0,0,0,0,124,124,98,481.22863817214966,,,,,,,,,,,,,,,,,,,,,,,,,,,,,,,,,,,,,,,,,,,,,,,,,,,,,,,,,,,,,,,,,,,,,,,,,,,,,,,,,133.0,57.0,57.0,133.0,70.0,70.0,3.0,3.1,-191,281,0,12,198,-253,481.2144796848297,481.21452260017395,481.21697187423706,481.22863817214966,481.3787314891815,481.3787314891815,481.3787314891815,481.3787314891815,481.3787314891815,481.3787314891815,481.3787314891815,482.61339116096497,2,1.3834800720214844,None,,,,,,,,,,,,,,,,,,158,3,2025-02-28_11h02.12.726,comp,2024.2.4,60.08945430581224,2025-02-28 11h02.20.022893 -0500,
125,125,0,filler_random,None,None,None,None,None,None,None,None,None,None,1,1.541546106338501,None,,,,,0,0,0,0,0,125,125,151,482.6287636756897,,,,,,,,,,,,,,,,,,,,,,,,,,,,,,,,,,,,,,,,,,,,,,,,,,,,,,,,,,,,,,,,,,,,,,,,,,,,,,,,,105.37366968565748,186.09808494454825,165.40343113144536,62.90489505465689,96.62260664078869,123.14960585327148,2.1,2.11,-221,271,0,268,189,-277,482.61430072784424,482.61434149742126,482.61645221710205,482.6287636756897,482.7787160873413,482.7787160873413,482.7787160873413,482.7787160873413,482.7787160873413,482.7787160873413,482.7787160873413,484.179869890213,1,1.541546106338501,None,,,,,,,,,,,,,,,,,,158,3,2025-02-28_11h02.12.726,comp,2024.2.4,60.08945430581224,2025-02-28 11h02.20.022893 -0500,
126,126,0,filler_random,None,None,None,None,None,None,None,None,None,None,2,1.078859806060791,None,,,,,0,0,0,0,0,126,126,165,484.1953670978546,,,,,,,,,,,,,,,,,,,,,,,,,,,,,,,,,,,,,,,,,,,,,,,,,,,,,,,,,,,,,,,,,,,,,,,,,,,,,,,,,158.70398444953986,103.88376918889722,178.81562079125894,178.02473678346868,117.97341726472553,95.48735053928831,2.1,2.12,-237,-274,0,-278,233,256,484.1807794570923,484.1808211803436,484.18293356895447,484.1953670978546,484.3456015586853,484.3456015586853,484.3456015586853,484.3456015586853,484.3456015586853,484.3456015586853,484.3456015586853,485.27992272377014,2,1.078859806060791,None,,,,,,,,,,,,,,,,,,158,3,2025-02-28_11h02.12.726,comp,2024.2.4,60.08945430581224,2025-02-28 11h02.20.022893 -0500,
127,127,0,filler_random,None,None,None,None,None,None,None,None,None,None,3,0.9058983325958252,None,,,,,0,0,0,0,0,127,127,159,485.2954275608063,,,,,,,,,,,,,,,,,,,,,,,,,,,,,,,,,,,,,,,,,,,,,,,,,,,,,,,,,,,,,,,,,,,,,,,,,,,,,,,,,115.08025523575668,107.64739750695409,126.96183861239986,67.97873103307886,189.46023055523048,158.29088706779208,4.0,4.1,-184,-282,0,-13,209,-279,485.28082728385925,485.28086709976196,485.28312253952026,485.2954275608063,485.4453728199005,485.4453728199005,485.4453728199005,485.4453728199005,485.4453728199005,485.4453728199005,485.4453728199005,486.21361804008484,3,0.9058983325958252,None,,,,,,,,,,,,,,,,,,158,3,2025-02-28_11h02.12.726,comp,2024.2.4,60.08945430581224,2025-02-28 11h02.20.022893 -0500,
128,128,0,filler_square,None,None,None,None,None,None,None,None,None,None,2,1.215318202972412,None,,,,,0,0,0,0,0,128,128,187,486.22855949401855,,,,,,,,,,,,,,,,,,,,,,,,,,,,,,,,,,,,,,,,,,,,,,,,,,,,,,,,,,,,,,,,,,,,,,,,,,,,,,,,,78.27513363171805,83.82938506389792,117.26675922660434,117.26675922660434,117.10453515254832,68.27649821429672,3.0,3.2,-197,-259,0,13,189,262,486.21459126472473,486.2146315574646,486.21714973449707,486.22855949401855,486.37877225875854,486.37877225875854,486.37877225875854,486.37877225875854,486.37877225875854,486.37877225875854,486.37877225875854,487.44662070274353,2,1.215318202972412,None,,,,,,,,,,,,,,,,,,158,3,2025-02-28_11h02.12.726,comp,2024.2.4,60.08945430581224,2025-02-28 11h02.20.022893 -0500,
129,129,0,filler_random,None,None,None,None,None,None,None,None,None,None,1,4.508228302001953,None,,,,,0,0,0,0,0,129,129,141,487.4620785713196,,,,,,,,,,,,,,,,,,,,,,,,,,,,,,,,,,,,,,,,,,,,,,,,,,,,,,,,,,,,,,,,,,,,,,,,,,,,,,,,,138.66176548936062,181.91987602073135,88.50656928400306,90.25940358982379,96.19031884361753,185.0616138343697,3.0,3.2,-232,-286,0,-4,234,258,487.4475214481354,487.4475612640381,487.45007276535034,487.4620785713196,487.6123650074005,487.6123650074005,487.6123650074005,487.6123650074005,487.6123650074005,487.6123650074005,487.6123650074005,491.9797713756561,1,4.508228302001953,None,,,,,,,,,,,,,,,,,,158,3,2025-02-28_11h02.12.726,comp,2024.2.4,60.08945430581224,2025-02-28 11h02.20.022893 -0500,
130,130,0,filler_random,None,None,None,None,None,None,None,None,None,None,3,1.110919713973999,None,,,,,0,0,0,0,0,130,130,143,491.99540066719055,,,,,,,,,,,,,,,,,,,,,,,,,,,,,,,,,,,,,,,,,,,,,,,,,,,,,,,,,,,,,,,,,,,,,,,,,,,,,,,,,59.55344149378493,183.4724909065392,67.9082160005642,121.05440571421843,82.2131770773362,175.53032814388433,3.0,3.1,-248,261,0,-17,244,-290,491.98064398765564,491.9806833267212,491.98320627212524,491.99540066719055,492.14536595344543,492.14536595344543,492.14536595344543,492.14536595344543,492.14536595344543,492.14536595344543,492.14536595344543,493.11318612098694,3,1.110919713973999,None,,,,,,,,,,,,,,,,,,158,3,2025-02-28_11h02.12.726,comp,2024.2.4,60.08945430581224,2025-02-28 11h02.20.022893 -0500,
131,131,0,filler_square,None,None,None,None,None,None,None,None,None,None,2,0.968390941619873,None,,,,,0,0,0,0,0,131,131,192,493.1291244029999,,,,,,,,,,,,,,,,,,,,,,,,,,,,,,,,,,,,,,,,,,,,,,,,,,,,,,,,,,,,,,,,,,,,,,,,,,,,,,,,,98.65529596299722,58.44023784504484,137.57580202484334,137.57580202484334,64.31449789260134,130.49499897617557,4.0,4.2,-194,-4,0,-286,230,10,493.1141629219055,493.1142044067383,493.1164469718933,493.1291244029999,493.2786979675293,493.2786979675293,493.2786979675293,493.2786979675293,493.2786979675293,493.2786979675293,493.2786979675293,494.1130678653717,2,0.968390941619873,None,,,,,,,,,,,,,,,,,,158,3,2025-02-28_11h02.12.726,comp,2024.2.4,60.08945430581224,2025-02-28 11h02.20.022893 -0500,
132,132,0,filler_random,None,None,None,None,None,None,None,None,None,None,3,1.1370165348052979,None,,,,,0,0,0,0,0,132,132,149,494.1285390853882,,,,,,,,,,,,,,,,,,,,,,,,,,,,,,,,,,,,,,,,,,,,,,,,,,,,,,,,,,,,,,,,,,,,,,,,,,,,,,,,,194.064743829721,91.70868641419764,80.86159507775791,71.64057266290908,164.64274344733906,135.42069613121447,2.1,2.12,-178,-256,0,-265,200,269,494.11396956443787,494.114009141922,494.1173803806305,494.1285390853882,494.27858424186707,494.27858424186707,494.27858424186707,494.27858424186707,494.27858424186707,494.27858424186707,494.27858424186707,495.27978515625,3,1.1370165348052979,None,,,,,,,,,,,,,,,,,,158,3,2025-02-28_11h02.12.726,comp,2024.2.4,60.08945430581224,2025-02-28 11h02.20.022893 -0500,
133,133,0,critical,dhw,20.0,1.0,upper,141.0,141.0,200.0,125.0,125.0,200.0,3,3.8915562629699707,None,,,,,0,0,0,0,0,133,133,55,495.29509258270264,,,,,,,,,,,,,,,,,,,,,,,,,,,,,,,,,,,,,,,,,,,,,,,,,,,,,,,,,,,,,,,,,,,,,,,,,,,,,,,,,141.0,141.0,200.0,125.0,125.0,200.0,1.0,1.1,-709,252,-480,255,-222,283,495.2805759906769,495.28061628341675,495.2832100391388,495.29509258270264,495.44543719291687,495.44543719291687,495.44543719291687,495.44543719291687,495.44543719291687,495.44543719291687,495.44543719291687,499.19665145874023,3,3.8915562629699707,None,,,,,,,,,,,,,,,,,,158,3,2025-02-28_11h02.12.726,comp,2024.2.4,60.08945430581224,2025-02-28 11h02.20.022893 -0500,
134,134,0,critical,hwd,35.0,2.1,upper,200.0,125.0,125.0,200.0,127.0,127.0,2,2.831696033477783,None,,,,,0,0,0,0,0,134,134,41,499.2124228477478,,,,,,,,,,,,,,,,,,,,,,,,,,,,,,,,,,,,,,,,,,,,,,,,,,,,,,,,,,,,,,,,,,,,,,,,,,,,,,,,,200.0,125.0,125.0,200.0,127.0,127.0,2.1,2.11,-258,290,0,267,260,-252,499.1974673271179,499.19750714302063,499.19992423057556,499.2124228477478,499.3619689941406,499.3619689941406,499.3619689941406,499.3619689941406,499.3619689941406,499.3619689941406,499.3619689941406,502.04662132263184,2,2.831696033477783,None,,,,,,,,,,,,,,,,,,158,3,2025-02-28_11h02.12.726,comp,2024.2.4,60.08945430581224,2025-02-28 11h02.20.022893 -0500,
135,135,0,filler_square,None,None,None,None,None,None,None,None,None,None,2,1.483900547027588,None,,,,,0,0,0,0,0,135,135,198,502.06195282936096,,,,,,,,,,,,,,,,,,,,,,,,,,,,,,,,,,,,,,,,,,,,,,,,,,,,,,,,,,,,,,,,,,,,,,,,,,,,,,,,,119.57809032324352,85.9315441626467,191.97352570900023,191.97352570900023,133.84961186129112,153.8217386001306,4.0,4.2,-235,7,0,-282,269,-7,502.0476129055023,502.0476543903351,502.05035042762756,502.06195282936096,502.2120695114136,502.2120695114136,502.2120695114136,502.2120695114136,502.2120695114136,502.2120695114136,502.2120695114136,503.56311535835266,2,1.483900547027588,None,,,,,,,,,,,,,,,,,,158,3,2025-02-28_11h02.12.726,comp,2024.2.4,60.08945430581224,2025-02-28 11h02.20.022893 -0500,
136,136,0,filler_random,None,None,None,None,None,None,None,None,None,None,2,1.0810458660125732,None,,,,,0,0,0,0,0,136,136,133,503.5784070491791,,,,,,,,,,,,,,,,,,,,,,,,,,,,,,,,,,,,,,,,,,,,,,,,,,,,,,,,,,,,,,,,,,,,,,,,,,,,,,,,,149.46150495669968,113.70744011374512,158.17112970850533,199.1025149563399,185.20190201784052,127.84391920175105,4.0,4.1,-252,-283,0,-4,259,-287,503.56397008895874,503.56401014328003,503.5661118030548,503.5784070491791,503.72909116744995,503.72909116744995,503.72909116744995,503.72909116744995,503.72909116744995,503.72909116744995,503.72909116744995,504.6633367538452,2,1.0810458660125732,None,,,,,,,,,,,,,,,,,,158,3,2025-02-28_11h02.12.726,comp,2024.2.4,60.08945430581224,2025-02-28 11h02.20.022893 -0500,
137,137,0,critical,wdh,20.0,1.0,lower,57.0,133.0,78.0,78.0,133.0,57.0,1,4.018707990646362,None,,,,,0,0,0,0,0,137,137,78,504.67864632606506,,,,,,,,,,,,,,,,,,,,,,,,,,,,,,,,,,,,,,,,,,,,,,,,,,,,,,,,,,,,,,,,,,,,,,,,,,,,,,,,,57.0,133.0,78.0,78.0,133.0,57.0,1.0,1.1,-682,251,-480,277,-316,253,504.66412711143494,504.66416692733765,504.6663188934326,504.67864632606506,504.8285057544708,504.8285057544708,504.8285057544708,504.8285057544708,504.8285057544708,504.8285057544708,504.8285057544708,508.7128789424896,1,4.018707990646362,None,,,,,,,,,,,,,,,,,,158,3,2025-02-28_11h02.12.726,comp,2024.2.4,60.08945430581224,2025-02-28 11h02.20.022893 -0500,
138,138,0,filler_square,None,None,None,None,None,None,None,None,None,None,1,2.4172041416168213,None,,,,,0,0,0,0,0,138,138,190,508.72838139533997,,,,,,,,,,,,,,,,,,,,,,,,,,,,,,,,,,,,,,,,,,,,,,,,,,,,,,,,,,,,,,,,,,,,,,,,,,,,,,,,,126.38886266061091,126.38886266061091,94.69587880839828,121.106938763221,117.17153773274623,75.4091953177768,1.0,1.1,-700,277,-480,267,-286,282,508.7138514518738,508.7138922214508,508.71646523475647,508.72838139533997,508.87849831581116,508.87849831581116,508.87849831581116,508.87849831581116,508.87849831581116,508.87849831581116,508.87849831581116,511.1631004810333,1,2.4172041416168213,None,,,,,,,,,,,,,,,,,,158,3,2025-02-28_11h02.12.726,comp,2024.2.4,60.08945430581224,2025-02-28 11h02.20.022893 -0500,
139,139,0,critical,whd,20.0,4.0,upper,125.0,200.0,200.0,125.0,141.0,141.0,1,2.287006378173828,None,,,,,0,0,0,0,0,139,139,95,511.1784338951111,,,,,,,,,,,,,,,,,,,,,,,,,,,,,,,,,,,,,,,,,,,,,,,,,,,,,,,,,,,,,,,,,,,,,,,,,,,,,,,,,125.0,200.0,200.0,125.0,141.0,141.0,4.0,4.1,-258,-265,0,19,229,-262,511.1638903617859,511.1639311313629,511.16606545448303,511.1784338951111,511.3287196159363,511.3287196159363,511.3287196159363,511.3287196159363,511.3287196159363,511.3287196159363,511.3287196159363,513.4798014163971,1,2.287006378173828,None,,,,,,,,,,,,,,,,,,158,3,2025-02-28_11h02.12.726,comp,2024.2.4,60.08945430581224,2025-02-28 11h02.20.022893 -0500,
