thisN,thisTrialN,thisRepN,effect,order,distance,config,diag,h_1,w_1,h_2,w_2,h_3,w_3,rect_choice.keys,rect_choice.rt,rect_choice.duration,instructions_loop.thisRepN,instructions_loop.thisTrialN,instructions_loop.thisN,instructions_loop.thisIndex,blocks.thisRepN,blocks.thisTrialN,blocks.thisN,blocks.thisIndex,trials.thisRepN,trials.thisTrialN,trials.thisN,trials.thisIndex,thisRow.t,notes,consent.started,agree_button.started,decline_button.started,consent_img.started,mouse.started,consent.stopped,agree_button.numClicks,agree_button.timesOn,agree_button.timesOff,decline_button.numClicks,decline_button.timesOn,decline_button.timesOff,mouse.x,mouse.y,mouse.leftButton,mouse.midButton,mouse.rightButton,mouse.time,mouse.clicked_name,exp_params.started,exp_params.stopped,welcome.started,welcome_text.started,welcome.stopped,instructions_1.started,instructions_1_text_1.started,instructions_1_text_2.started,key_resp.started,instructions_1.stopped,instructions_loop.key_resp.keys,instructions_loop.key_resp.rt,instructions_loop.key_resp.duration,instructions_2.started,instructions_2_text_1.started,instructions_2_text_2.started,key_resp_2.started,instructions_2.stopped,instructions_loop.key_resp_2.keys,instructions_loop.key_resp_2.rt,instructions_loop.key_resp_2.duration,instructions_3.started,instructions_3_text_1.started,r1_instr3.started,r2_instr3.started,r3_instr3.started,r1_instr3_label.started,r2_instr3_label.started,r3_instr3_label.started,instructions_3_text_3.started,instructions_3_text_4.started,key_resp_3.started,instructions_3.stopped,instructions_loop.key_resp_3.keys,instructions_loop.key_resp_3.rt,instructions_loop.key_resp_3.duration,instructions_4.started,instructions_4_text_1.started,instructions_4_text_3.started,instructions_4_text_2.started,key_resp_4.started,instructions_4.stopped,instructions_loop.key_resp_4.keys,instructions_loop.key_resp_4.rt,instructions_loop.key_resp_4.duration,instructions_5.started,instructions_5_text_1.started,instructions_5_text_2.started,key_resp_5.started,instructions_5.stopped,instructions_loop.key_resp_5.keys,instructions_loop.key_resp_5.rt,instructions_loop.key_resp_5.duration,start_exp.started,start_exp_text.started,key_resp_6.started,start_exp.stopped,key_resp_6.keys,key_resp_6.rt,key_resp_6.duration,h_1_tmp,w_1_tmp,h_2_tmp,w_2_tmp,h_3_tmp,w_3_tmp,config_tmp,config_tmp_1,r_1_x,r_1_y,r_2_x,r_2_y,r_3_x,r_3_y,pre_trial.started,pre_trial.stopped,choice_trial.started,rect_choice.started,r_1.started,r_2.started,r_3.started,r_1_label.started,r_2_label.started,r_3_label.started,prompt.started,choice_trial.stopped,trials.rect_choice.keys,trials.rect_choice.rt,trials.rect_choice.duration,end_block.started,end_block_text.started,end_block.stopped,end.started,end_text.started,key_resp_7.started,end.stopped,key_resp_7.keys,key_resp_7.rt,key_resp_7.duration,debriefing.started,debrief_form.started,end_debrief.started,debriefing.stopped,end_debrief.keys,end_debrief.rt,end_debrief.duration,participant,computer,date,expName,psychopyVersion,frameRate,expStart,
,,,,,,,,,,,,,,,,,,,,,,,,,,,,,,,0.014873981475830078,0.038518667221069336,0.038518667221069336,0.038518667221069336,0.01466512680053711,4.869280576705933,1,[4.828248023986816],[4.828272104263306],0,,,[-60.0],[-512.0],[1],[0],[0],[4.85401725769043],['agree_button'],,,,,,,,,,,,,,,,,,,,,,,,,,,,,,,,,,,,,,,,,,,,,,,,,,,,,,,,,,,,,,,,,,,,,,,,,,,,,,,,,,,,,,,,,,,,,,,,,,,,,,,,,,,15,4,2025-02-18_14h04.48.522,comp,2024.2.4,None,2025-02-18 14h05.02.161074 -0500,
,,,,,,,,,,,,,,,,,,,,,,,,,,,,,,,,,,,,,,,,,,,,,,,,,,4.869807958602905,4.869877815246582,,,,,,,,,,,,,,,,,,,,,,,,,,,,,,,,,,,,,,,,,,,,,,,,,,,,,,,,,,,,,,,,,,,,,,,,,,,,,,,,,,,,,,,,,,,,,,,,,,,,,,,,,15,4,2025-02-18_14h04.48.522,comp,2024.2.4,None,2025-02-18 14h05.02.161074 -0500,
,,,,,,,,,,,,,,,,,,,,,,,,,,,,,,,,,,,,,,,,,,,,,,,,,,,,4.869922399520874,4.887938737869263,6.88639497756958,,,,,,,,,,,,,,,,,,,,,,,,,,,,,,,,,,,,,,,,,,,,,,,,,,,,,,,,,,,,,,,,,,,,,,,,,,,,,,,,,,,,,,,,,,,,,,,,,,,,,,15,4,2025-02-18_14h04.48.522,comp,2024.2.4,None,2025-02-18 14h05.02.161074 -0500,
0,0,0,,,,,,,,,,,,,,,0,0,0,0,,,,,,,,,6.906948089599609,,,,,,,,,,,,,,,,,,,,,,,,,,6.886704683303833,6.906948089599609,6.906948089599609,8.370396614074707,10.756134510040283,space,2.365635395050049,None,10.75627589225769,10.771569728851318,10.771569728851318,12.271301746368408,17.77538514137268,space,5.488355398178101,None,17.775570392608643,17.805423498153687,17.805423498153687,17.805423498153687,17.805423498153687,17.805423498153687,17.805423498153687,17.805423498153687,17.805423498153687,17.805423498153687,19.289578676223755,25.38059663772583,space,6.087052822113037,None,25.380751609802246,25.39860725402832,25.39860725402832,25.39860725402832,26.892549753189087,32.014100790023804,space,5.115622043609619,None,32.01425528526306,32.029101848602295,32.029101848602295,33.51244378089905,34.681747913360596,space,1.1599597930908203,None,34.68194556236267,34.69707179069519,34.69707179069519,36.081143856048584,space,1.3750810623168945,None,,,,,,,,,,,,,,,,,,,,,,,,,,,,,,,,,,,,,,,,,,,,,,,15,4,2025-02-18_14h04.48.522,comp,2024.2.4,None,2025-02-18 14h05.02.161074 -0500,
0,0,0,filler_random,None,None,None,None,None,None,None,None,None,None,2,4.246289968490601,None,,,,,0,0,0,0,0,0,0,147,36.1537504196167,,,,,,,,,,,,,,,,,,,,,,,,,,,,,,,,,,,,,,,,,,,,,,,,,,,,,,,,,,,,,,,,,,,,,,,,,,,,,,,,,91.8263124927476,98.65008131698349,175.16564332994818,92.46062459718954,149.08112898997456,81.78667750041691,3.0,3.1,-192,257,0,-5,183,-282,36.13682270050049,36.13687348365784,36.13858461380005,36.1537504196167,36.30485773086548,36.30485773086548,36.30485773086548,36.30485773086548,36.30485773086548,36.30485773086548,36.30485773086548,40.41532850265503,2,4.246289968490601,None,,,,,,,,,,,,,,,,,,15,4,2025-02-18_14h04.48.522,comp,2024.2.4,None,2025-02-18 14h05.02.161074 -0500,
1,1,0,filler_random,None,None,None,None,None,None,None,None,None,None,1,2.221344470977783,None,,,,,0,0,0,0,0,1,1,161,40.43431568145752,,,,,,,,,,,,,,,,,,,,,,,,,,,,,,,,,,,,,,,,,,,,,,,,,,,,,,,,,,,,,,,,,,,,,,,,,,,,,,,,,100.86751729582619,159.86417003884992,173.29651477107691,87.98723052676313,189.75883233853398,69.1533017284813,1.0,1.2,-220,17,0,11,175,-7,40.41700601577759,40.417083501815796,40.42005014419556,40.43431568145752,40.58262801170349,40.58262801170349,40.58262801170349,40.58262801170349,40.58262801170349,40.58262801170349,40.58262801170349,42.66879677772522,1,2.221344470977783,None,,,,,,,,,,,,,,,,,,15,4,2025-02-18_14h04.48.522,comp,2024.2.4,None,2025-02-18 14h05.02.161074 -0500,
2,2,0,critical,dhw,35.0,2.1,upper,127.0,127.0,200.0,125.0,125.0,200.0,3,2.3713808059692383,None,,,,,0,0,0,0,0,2,2,25,42.68489193916321,,,,,,,,,,,,,,,,,,,,,,,,,,,,,,,,,,,,,,,,,,,,,,,,,,,,,,,,,,,,,,,,,,,,,,,,,,,,,,,,,127.0,127.0,200.0,125.0,125.0,200.0,2.1,2.11,-222,266,0,284,258,-278,42.670551776885986,42.67071604728699,42.674036264419556,42.68489193916321,42.833417654037476,42.833417654037476,42.833417654037476,42.833417654037476,42.833417654037476,42.833417654037476,42.833417654037476,45.0732843875885,3,2.3713808059692383,None,,,,,,,,,,,,,,,,,,15,4,2025-02-18_14h04.48.522,comp,2024.2.4,None,2025-02-18 14h05.02.161074 -0500,
3,3,0,critical,dhw,35.0,1.0,lower,70.0,70.0,133.0,57.0,57.0,133.0,2,2.266718864440918,None,,,,,0,0,0,0,0,3,3,48,45.093446016311646,,,,,,,,,,,,,,,,,,,,,,,,,,,,,,,,,,,,,,,,,,,,,,,,,,,,,,,,,,,,,,,,,,,,,,,,,,,,,,,,,70.0,70.0,133.0,57.0,57.0,133.0,1.0,1.2,-160,6,0,-10,191,9,45.0748291015625,45.07491850852966,45.07815718650818,45.093446016311646,45.234867334365845,45.234867334365845,45.234867334365845,45.234867334365845,45.234867334365845,45.234867334365845,45.234867334365845,47.36683464050293,2,2.266718864440918,None,,,,,,,,,,,,,,,,,,15,4,2025-02-18_14h04.48.522,comp,2024.2.4,None,2025-02-18 14h05.02.161074 -0500,
4,4,0,filler_random,None,None,None,None,None,None,None,None,None,None,1,2.1198813915252686,None,,,,,0,0,0,0,0,4,4,141,47.383774757385254,,,,,,,,,,,,,,,,,,,,,,,,,,,,,,,,,,,,,,,,,,,,,,,,,,,,,,,,,,,,,,,,,,,,,,,,,,,,,,,,,111.59638642582965,177.45074455380174,66.22887921485282,119.30682342769595,97.15110132370415,189.50118144949636,3.0,3.2,-244,-260,0,1,250,289,47.368613481521606,47.36874794960022,47.37212133407593,47.383774757385254,47.53396916389465,47.53396916389465,47.53396916389465,47.53396916389465,47.53396916389465,47.53396916389465,47.53396916389465,49.52091956138611,1,2.1198813915252686,None,,,,,,,,,,,,,,,,,,15,4,2025-02-18_14h04.48.522,comp,2024.2.4,None,2025-02-18 14h05.02.161074 -0500,
5,5,0,filler_square,None,None,None,None,None,None,None,None,None,None,1,2.005915641784668,None,,,,,0,0,0,0,0,5,5,178,49.53833508491516,,,,,,,,,,,,,,,,,,,,,,,,,,,,,,,,,,,,,,,,,,,,,,,,,,,,,,,,,,,,,,,,,,,,,,,,,,,,,,,,,148.77767213129854,148.77767213129854,97.41861399794665,119.3625945499172,130.58460130178568,140.20891331834588,1.0,1.3,250,-257,480,-264,706,-279,49.523146629333496,49.52322459220886,49.527084827423096,49.53833508491516,49.68802618980408,49.68802618980408,49.68802618980408,49.68802618980408,49.68802618980408,49.68802618980408,49.68802618980408,51.55301380157471,1,2.005915641784668,None,,,,,,,,,,,,,,,,,,15,4,2025-02-18_14h04.48.522,comp,2024.2.4,None,2025-02-18 14h05.02.161074 -0500,
6,6,0,critical,hdw,20.0,3.0,upper,200.0,125.0,141.0,141.0,125.0,200.0,3,1.831031322479248,None,,,,,0,0,0,0,0,6,6,117,51.568947076797485,,,,,,,,,,,,,,,,,,,,,,,,,,,,,,,,,,,,,,,,,,,,,,,,,,,,,,,,,,,,,,,,,,,,,,,,,,,,,,,,,200.0,125.0,141.0,141.0,125.0,200.0,3.0,3.2,-229,-271,0,17,266,256,51.55452370643616,51.55461144447327,51.558050870895386,51.568947076797485,51.721171855926514,51.721171855926514,51.721171855926514,51.721171855926514,51.721171855926514,51.721171855926514,51.721171855926514,53.40227818489075,3,1.831031322479248,None,,,,,,,,,,,,,,,,,,15,4,2025-02-18_14h04.48.522,comp,2024.2.4,None,2025-02-18 14h05.02.161074 -0500,
7,7,0,critical,dwh,20.0,3.0,lower,78.0,78.0,57.0,133.0,133.0,57.0,3,2.348743200302124,None,,,,,0,0,0,0,0,7,7,68,53.418856143951416,,,,,,,,,,,,,,,,,,,,,,,,,,,,,,,,,,,,,,,,,,,,,,,,,,,,,,,,,,,,,,,,,,,,,,,,,,,,,,,,,78.0,78.0,57.0,133.0,133.0,57.0,3.0,3.1,-202,265,0,-1,191,-263,53.403793811798096,53.40386962890625,53.4070143699646,53.418856143951416,53.557384967803955,53.557384967803955,53.557384967803955,53.557384967803955,53.557384967803955,53.557384967803955,53.557384967803955,55.7786169052124,3,2.348743200302124,None,,,,,,,,,,,,,,,,,,15,4,2025-02-18_14h04.48.522,comp,2024.2.4,None,2025-02-18 14h05.02.161074 -0500,
8,8,0,critical,dhw,20.0,4.0,lower,78.0,78.0,133.0,57.0,57.0,133.0,2,1.446422815322876,None,,,,,0,0,0,0,0,8,8,58,55.793824195861816,,,,,,,,,,,,,,,,,,,,,,,,,,,,,,,,,,,,,,,,,,,,,,,,,,,,,,,,,,,,,,,,,,,,,,,,,,,,,,,,,78.0,78.0,133.0,57.0,57.0,133.0,4.0,4.2,-164,-15,0,-263,191,14,55.780157804489136,55.78023338317871,55.78309988975525,55.793824195861816,55.93706941604614,55.93706941604614,55.93706941604614,55.93706941604614,55.93706941604614,55.93706941604614,55.93706941604614,57.25587844848633,2,1.446422815322876,None,,,,,,,,,,,,,,,,,,15,4,2025-02-18_14h04.48.522,comp,2024.2.4,None,2025-02-18 14h05.02.161074 -0500,
9,9,0,critical,hdw,20.0,1.0,lower,133.0,57.0,78.0,78.0,57.0,133.0,1,1.92889404296875,None,,,,,0,0,0,0,0,9,9,114,57.271037578582764,,,,,,,,,,,,,,,,,,,,,,,,,,,,,,,,,,,,,,,,,,,,,,,,,,,,,,,,,,,,,,,,,,,,,,,,,,,,,,,,,133.0,57.0,78.0,78.0,57.0,133.0,1.0,1.1,-644,265,-480,286,-278,275,57.25742793083191,57.25756525993347,57.260807275772095,57.271037578582764,57.422359466552734,57.422359466552734,57.422359466552734,57.422359466552734,57.422359466552734,57.422359466552734,57.422359466552734,59.20411419868469,1,1.92889404296875,None,,,,,,,,,,,,,,,,,,15,4,2025-02-18_14h04.48.522,comp,2024.2.4,None,2025-02-18 14h05.02.161074 -0500,
10,10,0,filler_random,None,None,None,None,None,None,None,None,None,None,3,3.2404448986053467,None,,,,,0,0,0,0,0,10,10,132,59.223132610321045,,,,,,,,,,,,,,,,,,,,,,,,,,,,,,,,,,,,,,,,,,,,,,,,,,,,,,,,,,,,,,,,,,,,,,,,,,,,,,,,,82.65899495673908,90.0109039669855,160.37978203955657,96.32180435083134,112.83905390176531,189.7036490512795,2.2,2.21,-189,-288,0,267,239,256,59.205689668655396,59.20576572418213,59.20882964134216,59.223132610321045,59.3592050075531,59.3592050075531,59.3592050075531,59.3592050075531,59.3592050075531,59.3592050075531,59.3592050075531,62.47795033454895,3,3.2404448986053467,None,,,,,,,,,,,,,,,,,,15,4,2025-02-18_14h04.48.522,comp,2024.2.4,None,2025-02-18 14h05.02.161074 -0500,
11,11,0,filler_square,None,None,None,None,None,None,None,None,None,None,3,1.674790859222412,None,,,,,0,0,0,0,0,11,11,193,62.49353218078613,,,,,,,,,,,,,,,,,,,,,,,,,,,,,,,,,,,,,,,,,,,,,,,,,,,,,,,,,,,,,,,,,,,,,,,,,,,,,,,,,81.37361150567874,111.18997410017148,116.45275004979575,69.06262640913877,123.49272751280608,123.49272751280608,2.2,2.21,-186,-281,0,257,192,257,62.47983980178833,62.479920387268066,62.482898235321045,62.49353218078613,62.6395902633667,62.6395902633667,62.6395902633667,62.6395902633667,62.6395902633667,62.6395902633667,62.6395902633667,64.17336010932922,3,1.674790859222412,None,,,,,,,,,,,,,,,,,,15,4,2025-02-18_14h04.48.522,comp,2024.2.4,None,2025-02-18 14h05.02.161074 -0500,
12,12,0,critical,dhw,20.0,2.1,upper,141.0,141.0,200.0,125.0,125.0,200.0,3,1.850801706314087,None,,,,,0,0,0,0,0,12,12,27,64.18899750709534,,,,,,,,,,,,,,,,,,,,,,,,,,,,,,,,,,,,,,,,,,,,,,,,,,,,,,,,,,,,,,,,,,,,,,,,,,,,,,,,,141.0,141.0,200.0,125.0,125.0,200.0,2.1,2.11,-229,272,0,269,258,-289,64.174875497818,64.17495083808899,64.17843699455261,64.18899750709534,64.3379316329956,64.3379316329956,64.3379316329956,64.3379316329956,64.3379316329956,64.3379316329956,64.3379316329956,66.0596091747284,3,1.850801706314087,None,,,,,,,,,,,,,,,,,,15,4,2025-02-18_14h04.48.522,comp,2024.2.4,None,2025-02-18 14h05.02.161074 -0500,
13,13,0,critical,wdh,35.0,3.0,lower,57.0,133.0,70.0,70.0,133.0,57.0,3,3.93027663230896,None,,,,,0,0,0,0,0,13,13,74,66.07739043235779,,,,,,,,,,,,,,,,,,,,,,,,,,,,,,,,,,,,,,,,,,,,,,,,,,,,,,,,,,,,,,,,,,,,,,,,,,,,,,,,,57.0,133.0,70.0,70.0,133.0,57.0,3.0,3.1,-198,265,0,-9,160,-251,66.06133198738098,66.06147289276123,66.06487965583801,66.07739043235779,66.22454237937927,66.22454237937927,66.22454237937927,66.22454237937927,66.22454237937927,66.22454237937927,66.22454237937927,70.02504682540894,3,3.93027663230896,None,,,,,,,,,,,,,,,,,,15,4,2025-02-18_14h04.48.522,comp,2024.2.4,None,2025-02-18 14h05.02.161074 -0500,
14,14,0,critical,dhw,20.0,3.0,lower,78.0,78.0,133.0,57.0,57.0,133.0,3,1.8477039337158203,None,,,,,0,0,0,0,0,14,14,56,70.04047322273254,,,,,,,,,,,,,,,,,,,,,,,,,,,,,,,,,,,,,,,,,,,,,,,,,,,,,,,,,,,,,,,,,,,,,,,,,,,,,,,,,78.0,78.0,133.0,57.0,57.0,133.0,3.0,3.2,-164,-287,0,-6,191,268,70.02652192115784,70.02659916877747,70.02995133399963,70.04047322273254,70.19336414337158,70.19336414337158,70.19336414337158,70.19336414337158,70.19336414337158,70.19336414337158,70.19336414337158,71.89157390594482,3,1.8477039337158203,None,,,,,,,,,,,,,,,,,,15,4,2025-02-18_14h04.48.522,comp,2024.2.4,None,2025-02-18 14h05.02.161074 -0500,
15,15,0,critical,dhw,35.0,4.0,lower,70.0,70.0,133.0,57.0,57.0,133.0,2,1.5127649307250977,None,,,,,0,0,0,0,0,15,15,52,71.91086888313293,,,,,,,,,,,,,,,,,,,,,,,,,,,,,,,,,,,,,,,,,,,,,,,,,,,,,,,,,,,,,,,,,,,,,,,,,,,,,,,,,70.0,70.0,133.0,57.0,57.0,133.0,4.0,4.1,-160,-260,0,1,191,-271,71.89306473731995,71.89314007759094,71.89629554748535,71.91086888313293,72.05910992622375,72.05910992622375,72.05910992622375,72.05910992622375,72.05910992622375,72.05910992622375,72.05910992622375,73.42623901367188,2,1.5127649307250977,None,,,,,,,,,,,,,,,,,,15,4,2025-02-18_14h04.48.522,comp,2024.2.4,None,2025-02-18 14h05.02.161074 -0500,
16,16,0,critical,dwh,35.0,3.0,lower,70.0,70.0,57.0,133.0,133.0,57.0,2,2.413294553756714,None,,,,,0,0,0,0,0,16,16,62,73.44227051734924,,,,,,,,,,,,,,,,,,,,,,,,,,,,,,,,,,,,,,,,,,,,,,,,,,,,,,,,,,,,,,,,,,,,,,,,,,,,,,,,,70.0,70.0,57.0,133.0,133.0,57.0,3.0,3.1,-198,257,0,12,191,-271,73.42787718772888,73.42795443534851,73.43136668205261,73.44227051734924,73.59359645843506,73.59359645843506,73.59359645843506,73.59359645843506,73.59359645843506,73.59359645843506,73.59359645843506,75.86844420433044,2,2.413294553756714,None,,,,,,,,,,,,,,,,,,15,4,2025-02-18_14h04.48.522,comp,2024.2.4,None,2025-02-18 14h05.02.161074 -0500,
17,17,0,critical,whd,35.0,3.0,upper,125.0,200.0,200.0,125.0,127.0,127.0,1,3.785392999649048,None,,,,,0,0,0,0,0,17,17,87,75.88691997528076,,,,,,,,,,,,,,,,,,,,,,,,,,,,,,,,,,,,,,,,,,,,,,,,,,,,,,,,,,,,,,,,,,,,,,,,,,,,,,,,,125.0,200.0,200.0,125.0,127.0,127.0,3.0,3.1,-258,285,0,-3,222,-251,75.87000131607056,75.8700749874115,75.87297177314758,75.88691997528076,76.03248381614685,76.03248381614685,76.03248381614685,76.03248381614685,76.03248381614685,76.03248381614685,76.03248381614685,79.67862296104431,1,3.785392999649048,None,,,,,,,,,,,,,,,,,,15,4,2025-02-18_14h04.48.522,comp,2024.2.4,None,2025-02-18 14h05.02.161074 -0500,
18,18,0,critical,whd,20.0,3.0,upper,125.0,200.0,200.0,125.0,141.0,141.0,2,1.727379560470581,None,,,,,0,0,0,0,0,18,18,93,79.6962263584137,,,,,,,,,,,,,,,,,,,,,,,,,,,,,,,,,,,,,,,,,,,,,,,,,,,,,,,,,,,,,,,,,,,,,,,,,,,,,,,,,125.0,200.0,200.0,125.0,141.0,141.0,3.0,3.2,-258,-263,0,-13,229,266,79.68010091781616,79.68017721176147,79.68312621116638,79.6962263584137,79.84514665603638,79.84514665603638,79.84514665603638,79.84514665603638,79.84514665603638,79.84514665603638,79.84514665603638,81.4356894493103,2,1.727379560470581,None,,,,,,,,,,,,,,,,,,15,4,2025-02-18_14h04.48.522,comp,2024.2.4,None,2025-02-18 14h05.02.161074 -0500,
19,19,0,critical,hwd,20.0,2.1,upper,200.0,125.0,125.0,200.0,141.0,141.0,2,1.772770643234253,None,,,,,0,0,0,0,0,19,19,19,81.45172476768494,,,,,,,,,,,,,,,,,,,,,,,,,,,,,,,,,,,,,,,,,,,,,,,,,,,,,,,,,,,,,,,,,,,,,,,,,,,,,,,,,200.0,125.0,125.0,200.0,141.0,141.0,2.1,2.12,-258,-283,0,-262,266,262,81.43713474273682,81.43720984458923,81.44016647338867,81.45172476768494,81.59582352638245,81.59582352638245,81.59582352638245,81.59582352638245,81.59582352638245,81.59582352638245,81.59582352638245,83.22940397262573,2,1.772770643234253,None,,,,,,,,,,,,,,,,,,15,4,2025-02-18_14h04.48.522,comp,2024.2.4,None,2025-02-18 14h05.02.161074 -0500,
20,20,0,filler_square,None,None,None,None,None,None,None,None,None,None,3,2.3555314540863037,None,,,,,0,0,0,0,0,20,20,175,83.24413776397705,,,,,,,,,,,,,,,,,,,,,,,,,,,,,,,,,,,,,,,,,,,,,,,,,,,,,,,,,,,,,,,,,,,,,,,,,,,,,,,,,150.96667566803848,175.48057531725834,87.44632732914768,160.43211290397505,193.19539165735077,193.19539165735077,2.2,2.22,-264,263,0,-283,273,-270,83.23121786117554,83.23129463195801,83.23447179794312,83.24413776397705,83.3947958946228,83.3947958946228,83.3947958946228,83.3947958946228,83.3947958946228,83.3947958946228,83.3947958946228,85.61356139183044,3,2.3555314540863037,None,,,,,,,,,,,,,,,,,,15,4,2025-02-18_14h04.48.522,comp,2024.2.4,None,2025-02-18 14h05.02.161074 -0500,
21,21,0,critical,wdh,35.0,2.1,upper,125.0,200.0,127.0,127.0,200.0,125.0,3,4.622251272201538,None,,,,,0,0,0,0,0,21,21,9,85.63340878486633,,,,,,,,,,,,,,,,,,,,,,,,,,,,,,,,,,,,,,,,,,,,,,,,,,,,,,,,,,,,,,,,,,,,,,,,,,,,,,,,,125.0,200.0,127.0,127.0,200.0,125.0,2.1,2.12,-260,-269,0,-283,222,253,85.61508846282959,85.61516284942627,85.61854910850525,85.63340878486633,85.78037810325623,85.78037810325623,85.78037810325623,85.78037810325623,85.78037810325623,85.78037810325623,85.78037810325623,90.26493239402771,3,4.622251272201538,None,,,,,,,,,,,,,,,,,,15,4,2025-02-18_14h04.48.522,comp,2024.2.4,None,2025-02-18 14h05.02.161074 -0500,
22,22,0,filler_random,None,None,None,None,None,None,None,None,None,None,3,1.0008387565612793,None,,,,,0,0,0,0,0,22,22,156,90.27964520454407,,,,,,,,,,,,,,,,,,,,,,,,,,,,,,,,,,,,,,,,,,,,,,,,,,,,,,,,,,,,,,,,,,,,,,,,,,,,,,,,,86.65576660676862,126.39092047221784,163.7315349171659,189.72970586789629,115.13330307196368,196.7493802437434,3.0,3.2,-254,-283,0,-5,289,268,90.26656317710876,90.2666392326355,90.26978850364685,90.27964520454407,90.43156361579895,90.43156361579895,90.43156361579895,90.43156361579895,90.43156361579895,90.43156361579895,90.43156361579895,91.28295731544495,3,1.0008387565612793,None,,,,,,,,,,,,,,,,,,15,4,2025-02-18_14h04.48.522,comp,2024.2.4,None,2025-02-18 14h05.02.161074 -0500,
23,23,0,filler_square,None,None,None,None,None,None,None,None,None,None,2,2.7641592025756836,None,,,,,0,0,0,0,0,23,23,206,91.29943943023682,,,,,,,,,,,,,,,,,,,,,,,,,,,,,,,,,,,,,,,,,,,,,,,,,,,,,,,,,,,,,,,,,,,,,,,,,,,,,,,,,60.92099406451815,69.1801664959544,109.57569449055049,109.57569449055049,99.48963308430072,86.7231245309466,3.0,3.2,-185,-274,0,12,194,272,91.28484082221985,91.28497576713562,91.28887248039246,91.29943943023682,91.44663095474243,91.44663095474243,91.44663095474243,91.44663095474243,91.44663095474243,91.44663095474243,91.44663095474243,94.07715153694153,2,2.7641592025756836,None,,,,,,,,,,,,,,,,,,15,4,2025-02-18_14h04.48.522,comp,2024.2.4,None,2025-02-18 14h05.02.161074 -0500,
24,24,0,filler_random,None,None,None,None,None,None,None,None,None,None,2,1.3678677082061768,None,,,,,0,0,0,0,0,24,24,151,94.09599423408508,,,,,,,,,,,,,,,,,,,,,,,,,,,,,,,,,,,,,,,,,,,,,,,,,,,,,,,,,,,,,,,,,,,,,,,,,,,,,,,,,86.70792271882095,92.92034975698552,133.2130947028627,110.32219770017721,63.772178313657044,166.88839471540456,2.1,2.11,-198,283,0,269,235,-257,94.0789384841919,94.07907128334045,94.08238887786865,94.09599423408508,94.23349285125732,94.23349285125732,94.23349285125732,94.23349285125732,94.23349285125732,94.23349285125732,94.23349285125732,95.46725225448608,2,1.3678677082061768,None,,,,,,,,,,,,,,,,,,15,4,2025-02-18_14h04.48.522,comp,2024.2.4,None,2025-02-18 14h05.02.161074 -0500,
25,25,0,critical,hwd,35.0,3.0,upper,200.0,125.0,125.0,200.0,127.0,127.0,2,1.8088045120239258,None,,,,,0,0,0,0,0,25,25,99,95.48760509490967,,,,,,,,,,,,,,,,,,,,,,,,,,,,,,,,,,,,,,,,,,,,,,,,,,,,,,,,,,,,,,,,,,,,,,,,,,,,,,,,,200.0,125.0,125.0,200.0,127.0,127.0,3.0,3.2,-258,-267,0,9,260,265,95.46879482269287,95.46887350082397,95.47209644317627,95.48760509490967,95.62901592254639,95.62901592254639,95.62901592254639,95.62901592254639,95.62901592254639,95.62901592254639,95.62901592254639,97.300537109375,2,1.8088045120239258,None,,,,,,,,,,,,,,,,,,15,4,2025-02-18_14h04.48.522,comp,2024.2.4,None,2025-02-18 14h05.02.161074 -0500,
26,26,0,filler_square,None,None,None,None,None,None,None,None,None,None,1,1.7381181716918945,None,,,,,0,0,0,0,0,26,26,192,97.31745743751526,,,,,,,,,,,,,,,,,,,,,,,,,,,,,,,,,,,,,,,,,,,,,,,,,,,,,,,,,,,,,,,,,,,,,,,,,,,,,,,,,193.178949042359,193.178949042359,165.60845829590437,147.76327319638108,144.10801619818642,159.11204099943924,2.2,2.21,-266,-259,0,272,249,282,97.30237221717834,97.30245041847229,97.30591106414795,97.31745743751526,97.46606492996216,97.46606492996216,97.46606492996216,97.46606492996216,97.46606492996216,97.46606492996216,97.46606492996216,99.07104206085205,1,1.7381181716918945,None,,,,,,,,,,,,,,,,,,15,4,2025-02-18_14h04.48.522,comp,2024.2.4,None,2025-02-18 14h05.02.161074 -0500,
27,27,0,critical,hwd,20.0,2.1,lower,133.0,57.0,57.0,133.0,78.0,78.0,1,2.0412774085998535,None,,,,,0,0,0,0,0,27,27,18,99.08673429489136,,,,,,,,,,,,,,,,,,,,,,,,,,,,,,,,,,,,,,,,,,,,,,,,,,,,,,,,,,,,,,,,,,,,,,,,,,,,,,,,,133.0,57.0,57.0,133.0,78.0,78.0,2.1,2.11,-191,274,0,266,202,-265,99.07257676124573,99.07265067100525,99.07652473449707,99.08673429489136,99.23359060287476,99.23359060287476,99.23359060287476,99.23359060287476,99.23359060287476,99.23359060287476,99.23359060287476,101.14064240455627,1,2.0412774085998535,None,,,,,,,,,,,,,,,,,,15,4,2025-02-18_14h04.48.522,comp,2024.2.4,None,2025-02-18 14h05.02.161074 -0500,
28,28,0,filler_square,None,None,None,None,None,None,None,None,None,None,3,5.980075120925903,None,,,,,0,0,0,0,0,28,28,197,101.1555871963501,,,,,,,,,,,,,,,,,,,,,,,,,,,,,,,,,,,,,,,,,,,,,,,,,,,,,,,,,,,,,,,,,,,,,,,,,,,,,,,,,60.744940401478644,60.744940401478644,59.79662536020729,59.95041013238511,57.3330892193597,57.699283670245464,3.0,3.2,-156,-259,0,-3,155,265,101.14240574836731,101.14248085021973,101.14531683921814,101.1555871963501,101.30459117889404,101.30459117889404,101.30459117889404,101.30459117889404,101.30459117889404,101.30459117889404,101.30459117889404,107.15623474121094,3,5.980075120925903,None,,,,,,,,,,,,,,,,,,15,4,2025-02-18_14h04.48.522,comp,2024.2.4,None,2025-02-18 14h05.02.161074 -0500,
29,29,0,filler_random,None,None,None,None,None,None,None,None,None,None,2,1.6637873649597168,None,,,,,0,0,0,0,0,29,29,142,107.17609596252441,,,,,,,,,,,,,,,,,,,,,,,,,,,,,,,,,,,,,,,,,,,,,,,,,,,,,,,,,,,,,,,,,,,,,,,,,,,,,,,,,90.22817746587833,125.89602166773203,145.4277847985813,147.53064926426322,107.86011737554284,97.49760283704592,2.2,2.22,-233,250,0,-290,219,-254,107.15804648399353,107.15817475318909,107.16156363487244,107.17609596252441,107.32028388977051,107.32028388977051,107.32028388977051,107.32028388977051,107.32028388977051,107.32028388977051,107.32028388977051,108.85526585578918,2,1.6637873649597168,None,,,,,,,,,,,,,,,,,,15,4,2025-02-18_14h04.48.522,comp,2024.2.4,None,2025-02-18 14h05.02.161074 -0500,
30,30,0,critical,whd,20.0,3.0,lower,57.0,133.0,133.0,57.0,78.0,78.0,2,2.1210689544677734,None,,,,,0,0,0,0,0,30,30,92,108.8708848953247,,,,,,,,,,,,,,,,,,,,,,,,,,,,,,,,,,,,,,,,,,,,,,,,,,,,,,,,,,,,,,,,,,,,,,,,,,,,,,,,,57.0,133.0,133.0,57.0,78.0,78.0,3.0,3.2,-191,-281,0,-10,164,264,108.85677766799927,108.85685276985168,108.86037731170654,108.8708848953247,109.02323937416077,109.02323937416077,109.02323937416077,109.02323937416077,109.02323937416077,109.02323937416077,109.02323937416077,111.00479674339294,2,2.1210689544677734,None,,,,,,,,,,,,,,,,,,15,4,2025-02-18_14h04.48.522,comp,2024.2.4,None,2025-02-18 14h05.02.161074 -0500,
31,31,0,critical,wdh,20.0,3.0,upper,125.0,200.0,141.0,141.0,200.0,125.0,3,1.634706974029541,None,,,,,0,0,0,0,0,31,31,81,111.02092432975769,,,,,,,,,,,,,,,,,,,,,,,,,,,,,,,,,,,,,,,,,,,,,,,,,,,,,,,,,,,,,,,,,,,,,,,,,,,,,,,,,125.0,200.0,141.0,141.0,200.0,125.0,3.0,3.2,-266,-285,0,0,229,260,111.00646257400513,111.00662851333618,111.0102469921112,111.02092432975769,111.16434264183044,111.16434264183044,111.16434264183044,111.16434264183044,111.16434264183044,111.16434264183044,111.16434264183044,112.67287755012512,3,1.634706974029541,None,,,,,,,,,,,,,,,,,,15,4,2025-02-18_14h04.48.522,comp,2024.2.4,None,2025-02-18 14h05.02.161074 -0500,
32,32,0,critical,hwd,20.0,4.0,lower,133.0,57.0,57.0,133.0,78.0,78.0,1,1.9282927513122559,None,,,,,0,0,0,0,0,32,32,106,112.68828177452087,,,,,,,,,,,,,,,,,,,,,,,,,,,,,,,,,,,,,,,,,,,,,,,,,,,,,,,,,,,,,,,,,,,,,,,,,,,,,,,,,133.0,57.0,57.0,133.0,78.0,78.0,4.0,4.2,-191,15,0,-276,202,6,112.67438125610352,112.67445588111877,112.67796349525452,112.68828177452087,112.83975672721863,112.83975672721863,112.83975672721863,112.83975672721863,112.83975672721863,112.83975672721863,112.83975672721863,114.62281703948975,1,1.9282927513122559,None,,,,,,,,,,,,,,,,,,15,4,2025-02-18_14h04.48.522,comp,2024.2.4,None,2025-02-18 14h05.02.161074 -0500,
33,33,0,filler_random,None,None,None,None,None,None,None,None,None,None,1,1.8112163543701172,None,,,,,0,0,0,0,0,33,33,150,114.63895988464355,,,,,,,,,,,,,,,,,,,,,,,,,,,,,,,,,,,,,,,,,,,,,,,,,,,,,,,,,,,,,,,,,,,,,,,,,,,,,,,,,190.81293446162275,193.40870111457198,186.96808477476367,159.63008169721888,73.65285436336623,112.50172709922971,2.1,2.11,-273,285,0,274,232,-266,114.624591588974,114.62466931343079,114.6281988620758,114.63895988464355,114.78876376152039,114.78876376152039,114.78876376152039,114.78876376152039,114.78876376152039,114.78876376152039,114.78876376152039,116.45506024360657,1,1.8112163543701172,None,,,,,,,,,,,,,,,,,,15,4,2025-02-18_14h04.48.522,comp,2024.2.4,None,2025-02-18 14h05.02.161074 -0500,
34,34,0,filler_square,None,None,None,None,None,None,None,None,None,None,3,2.104055881500244,None,,,,,0,0,0,0,0,34,34,176,116.4715690612793,,,,,,,,,,,,,,,,,,,,,,,,,,,,,,,,,,,,,,,,,,,,,,,,,,,,,,,,,,,,,,,,,,,,,,,,,,,,,,,,,90.66863789745351,64.60663257012531,78.57952305601626,63.971398864048936,99.64083695760588,99.64083695760588,2.2,2.21,-160,-267,0,256,178,254,116.45680665969849,116.45688438415527,116.46005320549011,116.4715690612793,116.61053657531738,116.61053657531738,116.61053657531738,116.61053657531738,116.61053657531738,116.61053657531738,116.61053657531738,118.58969759941101,3,2.104055881500244,None,,,,,,,,,,,,,,,,,,15,4,2025-02-18_14h04.48.522,comp,2024.2.4,None,2025-02-18 14h05.02.161074 -0500,
35,35,0,critical,dwh,20.0,4.0,upper,141.0,141.0,125.0,200.0,200.0,125.0,2,2.984851121902466,None,,,,,0,0,0,0,0,35,35,71,118.607417345047,,,,,,,,,,,,,,,,,,,,,,,,,,,,,,,,,,,,,,,,,,,,,,,,,,,,,,,,,,,,,,,,,,,,,,,,,,,,,,,,,141.0,141.0,125.0,200.0,200.0,125.0,4.0,4.2,-266,5,0,-268,258,0,118.59126615524292,118.59133982658386,118.59435844421387,118.607417345047,118.75800657272339,118.75800657272339,118.75800657272339,118.75800657272339,118.75800657272339,118.75800657272339,118.75800657272339,121.598308801651,2,2.984851121902466,None,,,,,,,,,,,,,,,,,,15,4,2025-02-18_14h04.48.522,comp,2024.2.4,None,2025-02-18 14h05.02.161074 -0500,
36,36,0,filler_square,None,None,None,None,None,None,None,None,None,None,1,0.9860241413116455,None,,,,,0,0,0,0,0,36,36,204,121.61373686790466,,,,,,,,,,,,,,,,,,,,,,,,,,,,,,,,,,,,,,,,,,,,,,,,,,,,,,,,,,,,,,,,,,,,,,,,,,,,,,,,,150.83125131049064,150.83125131049064,107.12314777267619,146.90767652782068,143.25129671225184,94.28418472575709,1.0,1.3,235,-284,480,-252,697,-266,121.60008811950684,121.60016536712646,121.60301518440247,121.61373686790466,121.75839853286743,121.75839853286743,121.75839853286743,121.75839853286743,121.75839853286743,121.75839853286743,121.75839853286743,122.61308288574219,1,0.9860241413116455,None,,,,,,,,,,,,,,,,,,15,4,2025-02-18_14h04.48.522,comp,2024.2.4,None,2025-02-18 14h05.02.161074 -0500,
37,37,0,filler_random,None,None,None,None,None,None,None,None,None,None,2,1.1270451545715332,None,,,,,0,0,0,0,0,37,37,136,122.63265752792358,,,,,,,,,,,,,,,,,,,,,,,,,,,,,,,,,,,,,,,,,,,,,,,,,,,,,,,,,,,,,,,,,,,,,,,,,,,,,,,,,196.47997449997604,103.50658072072359,192.19896301558236,178.7709336639508,160.83134604126468,65.56099859582577,1.0,1.3,243,-282,480,-269,698,-264,122.61479425430298,122.61486911773682,122.61786460876465,122.63265752792358,122.7746353149414,122.7746353149414,122.7746353149414,122.7746353149414,122.7746353149414,122.7746353149414,122.7746353149414,123.77523827552795,2,1.1270451545715332,None,,,,,,,,,,,,,,,,,,15,4,2025-02-18_14h04.48.522,comp,2024.2.4,None,2025-02-18 14h05.02.161074 -0500,
38,38,0,filler_random,None,None,None,None,None,None,None,None,None,None,1,1.2703070640563965,None,,,,,0,0,0,0,0,38,38,131,123.7936897277832,,,,,,,,,,,,,,,,,,,,,,,,,,,,,,,,,,,,,,,,,,,,,,,,,,,,,,,,,,,,,,,,,,,,,,,,,,,,,,,,,162.2044051113363,197.3216615720139,176.71117031230614,130.40715179907033,85.82833319544278,67.90311400109776,2.1,2.11,-260,250,0,275,195,-265,123.77698802947998,123.77706551551819,123.78092622756958,123.7936897277832,123.94270706176758,123.94270706176758,123.94270706176758,123.94270706176758,123.94270706176758,123.94270706176758,123.94270706176758,125.06712770462036,1,1.2703070640563965,None,,,,,,,,,,,,,,,,,,15,4,2025-02-18_14h04.48.522,comp,2024.2.4,None,2025-02-18 14h05.02.161074 -0500,
39,39,0,critical,dhw,20.0,2.1,upper,141.0,141.0,200.0,125.0,125.0,200.0,2,1.0695829391479492,None,,,,,0,0,0,0,0,39,39,3,125.08355808258057,,,,,,,,,,,,,,,,,,,,,,,,,,,,,,,,,,,,,,,,,,,,,,,,,,,,,,,,,,,,,,,,,,,,,,,,,,,,,,,,,141.0,141.0,200.0,125.0,125.0,200.0,2.1,2.11,-229,283,0,281,258,-256,125.06911325454712,125.06919598579407,125.07214283943176,125.08355808258057,125.22955060005188,125.22955060005188,125.22955060005188,125.22955060005188,125.22955060005188,125.22955060005188,125.22955060005188,126.15836834907532,2,1.0695829391479492,None,,,,,,,,,,,,,,,,,,15,4,2025-02-18_14h04.48.522,comp,2024.2.4,None,2025-02-18 14h05.02.161074 -0500,
40,40,0,critical,dwh,35.0,2.1,lower,70.0,70.0,57.0,133.0,133.0,57.0,2,1.3691980838775635,None,,,,,0,0,0,0,0,40,40,28,126.1746768951416,,,,,,,,,,,,,,,,,,,,,,,,,,,,,,,,,,,,,,,,,,,,,,,,,,,,,,,,,,,,,,,,,,,,,,,,,,,,,,,,,70.0,70.0,57.0,133.0,133.0,57.0,2.1,2.12,-198,-289,0,-265,191,275,126.15986633300781,126.15994167327881,126.16301035881042,126.1746768951416,126.3289303779602,126.3289303779602,126.3289303779602,126.3289303779602,126.3289303779602,126.3289303779602,126.3289303779602,127.54618430137634,2,1.3691980838775635,None,,,,,,,,,,,,,,,,,,15,4,2025-02-18_14h04.48.522,comp,2024.2.4,None,2025-02-18 14h05.02.161074 -0500,
41,41,0,filler_random,None,None,None,None,None,None,None,None,None,None,3,1.8744583129882812,None,,,,,0,0,0,0,0,41,41,139,127.565838098526,,,,,,,,,,,,,,,,,,,,,,,,,,,,,,,,,,,,,,,,,,,,,,,,,,,,,,,,,,,,,,,,,,,,,,,,,,,,,,,,,147.96919661179697,152.16172747110056,138.42796551204208,107.316097892649,153.77825937141645,184.8084676538893,1.0,1.1,-706,260,-480,283,-238,285,127.54853057861328,127.54862785339355,127.55203557014465,127.565838098526,127.71048760414124,127.71048760414124,127.71048760414124,127.71048760414124,127.71048760414124,127.71048760414124,127.71048760414124,129.44415593147278,3,1.8744583129882812,None,,,,,,,,,,,,,,,,,,15,4,2025-02-18_14h04.48.522,comp,2024.2.4,None,2025-02-18 14h05.02.161074 -0500,
42,42,0,filler_random,None,None,None,None,None,None,None,None,None,None,3,1.0997605323791504,None,,,,,0,0,0,0,0,42,42,148,129.460284948349,,,,,,,,,,,,,,,,,,,,,,,,,,,,,,,,,,,,,,,,,,,,,,,,,,,,,,,,,,,,,,,,,,,,,,,,,,,,,,,,,85.29628112817771,109.68227345070031,73.7593171871449,78.18026487545166,77.29240549372209,185.74007209582638,4.0,4.2,-190,-12,0,-263,228,-17,129.44574165344238,129.445818901062,129.4492950439453,129.460284948349,129.60934925079346,129.60934925079346,129.60934925079346,129.60934925079346,129.60934925079346,129.60934925079346,129.60934925079346,130.57806158065796,3,1.0997605323791504,None,,,,,,,,,,,,,,,,,,15,4,2025-02-18_14h04.48.522,comp,2024.2.4,None,2025-02-18 14h05.02.161074 -0500,
43,43,0,critical,wdh,20.0,2.1,upper,125.0,200.0,141.0,141.0,200.0,125.0,3,1.8340020179748535,None,,,,,0,0,0,0,0,43,43,11,130.5978720188141,,,,,,,,,,,,,,,,,,,,,,,,,,,,,,,,,,,,,,,,,,,,,,,,,,,,,,,,,,,,,,,,,,,,,,,,,,,,,,,,,125.0,200.0,141.0,141.0,200.0,125.0,2.1,2.12,-266,-254,0,-259,229,250,130.5794951915741,130.5795931816101,130.58262538909912,130.5978720188141,130.74471974372864,130.74471974372864,130.74471974372864,130.74471974372864,130.74471974372864,130.74471974372864,130.74471974372864,132.44499564170837,3,1.8340020179748535,None,,,,,,,,,,,,,,,,,,15,4,2025-02-18_14h04.48.522,comp,2024.2.4,None,2025-02-18 14h05.02.161074 -0500,
44,44,0,filler_random,None,None,None,None,None,None,None,None,None,None,2,0.9576623439788818,None,,,,,0,0,0,0,0,44,44,158,132.45907306671143,,,,,,,,,,,,,,,,,,,,,,,,,,,,,,,,,,,,,,,,,,,,,,,,,,,,,,,,,,,,,,,,,,,,,,,,,,,,,,,,,61.80749743402893,192.8057624607321,192.8248797295851,162.82692533581024,107.41457749822155,173.28337367997335,3.0,3.2,-274,-258,0,-11,264,270,132.44674110412598,132.44682264328003,132.45009326934814,132.45907306671143,132.6112129688263,132.6112129688263,132.6112129688263,132.6112129688263,132.6112129688263,132.6112129688263,132.6112129688263,133.42832231521606,2,0.9576623439788818,None,,,,,,,,,,,,,,,,,,15,4,2025-02-18_14h04.48.522,comp,2024.2.4,None,2025-02-18 14h05.02.161074 -0500,
45,45,0,critical,hwd,20.0,2.1,lower,133.0,57.0,57.0,133.0,78.0,78.0,2,1.7164928913116455,None,,,,,0,0,0,0,0,45,45,42,133.44316411018372,,,,,,,,,,,,,,,,,,,,,,,,,,,,,,,,,,,,,,,,,,,,,,,,,,,,,,,,,,,,,,,,,,,,,,,,,,,,,,,,,133.0,57.0,57.0,133.0,78.0,78.0,2.1,2.12,-191,-262,0,-281,202,269,133.42996740341187,133.43004870414734,133.43352580070496,133.44316411018372,133.58461022377014,133.58461022377014,133.58461022377014,133.58461022377014,133.58461022377014,133.58461022377014,133.58461022377014,135.16232705116272,2,1.7164928913116455,None,,,,,,,,,,,,,,,,,,15,4,2025-02-18_14h04.48.522,comp,2024.2.4,None,2025-02-18 14h05.02.161074 -0500,
46,46,0,filler_square,None,None,None,None,None,None,None,None,None,None,2,1.358764886856079,None,,,,,0,0,0,0,0,46,46,209,135.17697310447693,,,,,,,,,,,,,,,,,,,,,,,,,,,,,,,,,,,,,,,,,,,,,,,,,,,,,,,,,,,,,,,,,,,,,,,,,,,,,,,,,80.77336787749209,102.7541552487706,104.8652718470963,104.8652718470963,82.61070938415537,76.56134995800258,2.2,2.21,-200,-260,0,279,187,255,135.16376495361328,135.1638045310974,135.1653356552124,135.17697310447693,135.32648420333862,135.32648420333862,135.32648420333862,135.32648420333862,135.32648420333862,135.32648420333862,135.32648420333862,136.55181622505188,2,1.358764886856079,None,,,,,,,,,,,,,,,,,,15,4,2025-02-18_14h04.48.522,comp,2024.2.4,None,2025-02-18 14h05.02.161074 -0500,
47,47,0,critical,dhw,20.0,4.0,upper,141.0,141.0,200.0,125.0,125.0,200.0,2,0.9881973266601562,None,,,,,0,0,0,0,0,47,47,59,136.57160758972168,,,,,,,,,,,,,,,,,,,,,,,,,,,,,,,,,,,,,,,,,,,,,,,,,,,,,,,,,,,,,,,,,,,,,,,,,,,,,,,,,141.0,141.0,200.0,125.0,125.0,200.0,4.0,4.1,-229,-273,0,-15,258,-288,136.55333471298218,136.5534110069275,136.55631065368652,136.57160758972168,136.70975017547607,136.70975017547607,136.70975017547607,136.70975017547607,136.70975017547607,136.70975017547607,136.70975017547607,137.5639946460724,2,0.9881973266601562,None,,,,,,,,,,,,,,,,,,15,4,2025-02-18_14h04.48.522,comp,2024.2.4,None,2025-02-18 14h05.02.161074 -0500,
48,48,0,filler_random,None,None,None,None,None,None,None,None,None,None,2,1.3875033855438232,None,,,,,0,0,0,0,0,48,48,162,137.58015847206116,,,,,,,,,,,,,,,,,,,,,,,,,,,,,,,,,,,,,,,,,,,,,,,,,,,,,,,,,,,,,,,,,,,,,,,,,,,,,,,,,103.66409372779299,155.4225810392382,115.86644761279562,195.63203211302704,169.32605978772557,60.626990679981915,2.2,2.22,-272,279,0,-275,224,-268,137.56587100028992,137.56600308418274,137.5694522857666,137.58015847206116,137.73304963111877,137.73304963111877,137.73304963111877,137.73304963111877,137.73304963111877,137.73304963111877,137.73304963111877,138.9792025089264,2,1.3875033855438232,None,,,,,,,,,,,,,,,,,,15,4,2025-02-18_14h04.48.522,comp,2024.2.4,None,2025-02-18 14h05.02.161074 -0500,
49,49,0,critical,hwd,20.0,1.0,lower,133.0,57.0,57.0,133.0,78.0,78.0,1,2.035832166671753,None,,,,,0,0,0,0,0,49,49,102,138.99581480026245,,,,,,,,,,,,,,,,,,,,,,,,,,,,,,,,,,,,,,,,,,,,,,,,,,,,,,,,,,,,,,,,,,,,,,,,,,,,,,,,,133.0,57.0,57.0,133.0,78.0,78.0,1.0,1.1,-671,283,-480,255,-278,281,138.98083996772766,138.9809148311615,138.9842872619629,138.99581480026245,139.14668726921082,139.14668726921082,139.14668726921082,139.14668726921082,139.14668726921082,139.14668726921082,139.14668726921082,141.04667925834656,1,2.035832166671753,None,,,,,,,,,,,,,,,,,,15,4,2025-02-18_14h04.48.522,comp,2024.2.4,None,2025-02-18 14h05.02.161074 -0500,
50,50,0,critical,hdw,35.0,2.1,upper,200.0,125.0,127.0,127.0,125.0,200.0,3,1.8381073474884033,None,,,,,0,0,0,0,0,50,50,45,141.0665943622589,,,,,,,,,,,,,,,,,,,,,,,,,,,,,,,,,,,,,,,,,,,,,,,,,,,,,,,,,,,,,,,,,,,,,,,,,,,,,,,,,200.0,125.0,127.0,127.0,125.0,200.0,2.1,2.11,-222,287,0,260,260,-264,141.048180103302,141.0482587814331,141.05132603645325,141.0665943622589,141.21447277069092,141.21447277069092,141.21447277069092,141.21447277069092,141.21447277069092,141.21447277069092,141.21447277069092,142.91502022743225,3,1.8381073474884033,None,,,,,,,,,,,,,,,,,,15,4,2025-02-18_14h04.48.522,comp,2024.2.4,None,2025-02-18 14h05.02.161074 -0500,
51,51,0,filler_random,None,None,None,None,None,None,None,None,None,None,1,1.2204537391662598,None,,,,,0,0,0,0,0,51,51,167,142.93140053749084,,,,,,,,,,,,,,,,,,,,,,,,,,,,,,,,,,,,,,,,,,,,,,,,,,,,,,,,,,,,,,,,,,,,,,,,,,,,,,,,,140.29114897187577,196.6496783984061,185.60226570871725,65.53702562406173,113.1727156998196,184.90341797639178,4.0,4.1,-227,-285,0,-7,221,-278,142.91679906845093,142.91693329811096,142.92055749893188,142.93140053749084,143.08159112930298,143.08159112930298,143.08159112930298,143.08159112930298,143.08159112930298,143.08159112930298,143.08159112930298,144.16500425338745,1,1.2204537391662598,None,,,,,,,,,,,,,,,,,,15,4,2025-02-18_14h04.48.522,comp,2024.2.4,None,2025-02-18 14h05.02.161074 -0500,
52,52,0,catch,None,None,None,None,None,None,None,None,None,None,2,1.043492317199707,None,,,,,0,0,0,0,0,52,52,122,144.18104076385498,,,,,,,,,,,,,,,,,,,,,,,,,,,,,,,,,,,,,,,,,,,,,,,,,,,,,,,,,,,,,,,,,,,,,,,,,,,,,,,,,129,61,154,171,130,60,2.2,2.22,-212,253,0,-251,212,-252,144.1670732498169,144.1671483516693,144.17070364952087,144.18104076385498,144.3317334651947,144.3317334651947,144.3317334651947,144.3317334651947,144.3317334651947,144.3317334651947,144.3317334651947,145.232816696167,2,1.043492317199707,None,,,,,,,,,,,,,,,,,,15,4,2025-02-18_14h04.48.522,comp,2024.2.4,None,2025-02-18 14h05.02.161074 -0500,
53,53,0,critical,hwd,35.0,4.0,lower,133.0,57.0,57.0,133.0,70.0,70.0,1,2.0477733612060547,None,,,,,0,0,0,0,0,53,53,100,145.24846959114075,,,,,,,,,,,,,,,,,,,,,,,,,,,,,,,,,,,,,,,,,,,,,,,,,,,,,,,,,,,,,,,,,,,,,,,,,,,,,,,,,133.0,57.0,57.0,133.0,70.0,70.0,4.0,4.1,-191,-272,0,-15,198,-261,145.23440504074097,145.23448276519775,145.2379343509674,145.24846959114075,145.4011824131012,145.4011824131012,145.4011824131012,145.4011824131012,145.4011824131012,145.4011824131012,145.4011824131012,147.30260229110718,1,2.0477733612060547,None,,,,,,,,,,,,,,,,,,15,4,2025-02-18_14h04.48.522,comp,2024.2.4,None,2025-02-18 14h05.02.161074 -0500,
54,54,0,catch,None,None,None,None,None,None,None,None,None,None,1,0.9569993019104004,None,,,,,0,0,0,0,0,54,54,120,147.32260489463806,,,,,,,,,,,,,,,,,,,,,,,,,,,,,,,,,,,,,,,,,,,,,,,,,,,,,,,,,,,,,,,,,,,,,,,,,,,,,,,,,142,183,59,131,95,95,1.0,1.2,-253,15,0,-14,209,19,147.30511236190796,147.30519556999207,147.30818462371826,147.32260489463806,147.4668927192688,147.4668927192688,147.4668927192688,147.4668927192688,147.4668927192688,147.4668927192688,147.4668927192688,148.29916071891785,1,0.9569993019104004,None,,,,,,,,,,,,,,,,,,15,4,2025-02-18_14h04.48.522,comp,2024.2.4,None,2025-02-18 14h05.02.161074 -0500,
55,55,0,filler_square,None,None,None,None,None,None,None,None,None,None,1,1.0048003196716309,None,,,,,0,0,0,0,0,55,55,202,148.3149778842926,,,,,,,,,,,,,,,,,,,,,,,,,,,,,,,,,,,,,,,,,,,,,,,,,,,,,,,,,,,,,,,,,,,,,,,,,,,,,,,,,171.8763403087038,171.8763403087038,75.41520993102408,135.6300922078743,124.03805152724793,95.98323460595869,4.0,4.2,-250,-7,0,-265,212,5,148.30099248886108,148.30107021331787,148.30414199829102,148.3149778842926,148.46924924850464,148.46924924850464,148.46924924850464,148.46924924850464,148.46924924850464,148.46924924850464,148.46924924850464,149.33255863189697,1,1.0048003196716309,None,,,,,,,,,,,,,,,,,,15,4,2025-02-18_14h04.48.522,comp,2024.2.4,None,2025-02-18 14h05.02.161074 -0500,
56,56,0,critical,hdw,20.0,2.1,lower,133.0,57.0,78.0,78.0,57.0,133.0,1,1.6038792133331299,None,,,,,0,0,0,0,0,56,56,22,149.34845685958862,,,,,,,,,,,,,,,,,,,,,,,,,,,,,,,,,,,,,,,,,,,,,,,,,,,,,,,,,,,,,,,,,,,,,,,,,,,,,,,,,133.0,57.0,78.0,78.0,57.0,133.0,2.1,2.11,-164,278,0,286,202,-262,149.33408451080322,149.33415722846985,149.33723139762878,149.34845685958862,149.4970772266388,149.4970772266388,149.4970772266388,149.4970772266388,149.4970772266388,149.4970772266388,149.4970772266388,150.95873427391052,1,1.6038792133331299,None,,,,,,,,,,,,,,,,,,15,4,2025-02-18_14h04.48.522,comp,2024.2.4,None,2025-02-18 14h05.02.161074 -0500,
57,57,0,filler_random,None,None,None,None,None,None,None,None,None,None,2,1.0980801582336426,None,,,,,0,0,0,0,0,57,57,143,150.97423839569092,,,,,,,,,,,,,,,,,,,,,,,,,,,,,,,,,,,,,,,,,,,,,,,,,,,,,,,,,,,,,,,,,,,,,,,,,,,,,,,,,102.006471926871,65.90749169318318,127.40425159440923,84.70249512164474,60.0734006931773,57.533825736902195,2.2,2.22,-171,264,0,-262,167,-288,150.96042895317078,150.96054005622864,150.9634394645691,150.97423839569092,151.11787152290344,151.11787152290344,151.11787152290344,151.11787152290344,151.11787152290344,151.11787152290344,151.11787152290344,152.0888295173645,2,1.0980801582336426,None,,,,,,,,,,,,,,,,,,15,4,2025-02-18_14h04.48.522,comp,2024.2.4,None,2025-02-18 14h05.02.161074 -0500,
58,58,0,critical,hdw,20.0,2.1,upper,200.0,125.0,141.0,141.0,125.0,200.0,3,2.09314227104187,None,,,,,0,0,0,0,0,58,58,47,152.10706114768982,,,,,,,,,,,,,,,,,,,,,,,,,,,,,,,,,,,,,,,,,,,,,,,,,,,,,,,,,,,,,,,,,,,,,,,,,,,,,,,,,200.0,125.0,141.0,141.0,125.0,200.0,2.1,2.11,-229,251,0,271,266,-275,152.09032583236694,152.0904037952423,152.09336590766907,152.10706114768982,152.25103974342346,152.25103974342346,152.25103974342346,152.25103974342346,152.25103974342346,152.25103974342346,152.25103974342346,154.21841073036194,3,2.09314227104187,None,,,,,,,,,,,,,,,,,,15,4,2025-02-18_14h04.48.522,comp,2024.2.4,None,2025-02-18 14h05.02.161074 -0500,
59,59,0,critical,hdw,35.0,4.0,upper,200.0,125.0,127.0,127.0,125.0,200.0,3,1.1734299659729004,None,,,,,0,0,0,0,0,59,59,113,154.23438715934753,,,,,,,,,,,,,,,,,,,,,,,,,,,,,,,,,,,,,,,,,,,,,,,,,,,,,,,,,,,,,,,,,,,,,,,,,,,,,,,,,200.0,125.0,127.0,127.0,125.0,200.0,4.0,4.1,-222,-283,0,7,260,-286,154.21989941596985,154.2199740409851,154.22414994239807,154.23438715934753,154.38616156578064,154.38616156578064,154.38616156578064,154.38616156578064,154.38616156578064,154.38616156578064,154.38616156578064,155.41857194900513,3,1.1734299659729004,None,,,,,,,,,,,,,,,,,,15,4,2025-02-18_14h04.48.522,comp,2024.2.4,None,2025-02-18 14h05.02.161074 -0500,
60,60,0,filler_random,None,None,None,None,None,None,None,None,None,None,2,1.4767463207244873,None,,,,,0,0,0,0,0,60,60,166,155.43493843078613,,,,,,,,,,,,,,,,,,,,,,,,,,,,,,,,,,,,,,,,,,,,,,,,,,,,,,,,,,,,,,,,,,,,,,,,,,,,,,,,,155.26834720563772,108.11767402376401,167.4190354253071,140.25364431707237,176.21062680513984,61.184879087313675,2.1,2.11,-220,290,0,263,197,-282,155.4202618598938,155.42033886909485,155.4234218597412,155.43493843078613,155.5878245830536,155.5878245830536,155.5878245830536,155.5878245830536,155.5878245830536,155.5878245830536,155.5878245830536,156.92360925674438,2,1.4767463207244873,None,,,,,,,,,,,,,,,,,,15,4,2025-02-18_14h04.48.522,comp,2024.2.4,None,2025-02-18 14h05.02.161074 -0500,
61,61,0,critical,hdw,35.0,2.1,lower,133.0,57.0,70.0,70.0,57.0,133.0,3,1.9524471759796143,None,,,,,0,0,0,0,0,61,61,44,156.94376277923584,,,,,,,,,,,,,,,,,,,,,,,,,,,,,,,,,,,,,,,,,,,,,,,,,,,,,,,,,,,,,,,,,,,,,,,,,,,,,,,,,133.0,57.0,70.0,70.0,57.0,133.0,2.1,2.12,-160,-252,0,-273,198,255,156.9251570701599,156.92523407936096,156.92809200286865,156.94376277923584,157.08762526512146,157.08762526512146,157.08762526512146,157.08762526512146,157.08762526512146,157.08762526512146,157.08762526512146,158.90492177009583,3,1.9524471759796143,None,,,,,,,,,,,,,,,,,,15,4,2025-02-18_14h04.48.522,comp,2024.2.4,None,2025-02-18 14h05.02.161074 -0500,
62,62,0,filler_square,None,None,None,None,None,None,None,None,None,None,3,1.042813777923584,None,,,,,0,0,0,0,0,62,62,194,158.92544651031494,,,,,,,,,,,,,,,,,,,,,,,,,,,,,,,,,,,,,,,,,,,,,,,,,,,,,,,,,,,,,,,,,,,,,,,,,,,,,,,,,64.63568691725197,89.40460372433037,58.472062002545776,70.61876706812372,120.23284391334323,120.23284391334323,3.0,3.2,-176,-253,0,2,191,251,158.90667724609375,158.906756401062,158.9097397327423,158.92544651031494,159.06868433952332,159.06868433952332,159.06868433952332,159.06868433952332,159.06868433952332,159.06868433952332,159.06868433952332,159.977388381958,3,1.042813777923584,None,,,,,,,,,,,,,,,,,,15,4,2025-02-18_14h04.48.522,comp,2024.2.4,None,2025-02-18 14h05.02.161074 -0500,
63,63,0,filler_random,None,None,None,None,None,None,None,None,None,None,3,0.7647373676300049,None,,,,,0,0,0,0,0,63,63,153,159.99560379981995,,,,,,,,,,,,,,,,,,,,,,,,,,,,,,,,,,,,,,,,,,,,,,,,,,,,,,,,,,,,,,,,,,,,,,,,,,,,,,,,,143.43349154029366,161.68699764084107,136.66885534283006,71.56331532505129,183.05473000153358,177.63667562956286,3.0,3.2,-213,-253,0,-14,221,250,159.9791476726532,159.97924423217773,159.9825291633606,159.99560379981995,160.13743662834167,160.13743662834167,160.13743662834167,160.13743662834167,160.13743662834167,160.13743662834167,160.13743662834167,160.7708842754364,3,0.7647373676300049,None,,,,,,,,,,,,,,,,,,15,4,2025-02-18_14h04.48.522,comp,2024.2.4,None,2025-02-18 14h05.02.161074 -0500,
64,64,0,critical,dhw,35.0,3.0,upper,127.0,127.0,200.0,125.0,125.0,200.0,3,1.276841163635254,None,,,,,0,0,0,0,0,64,64,51,160.78724670410156,,,,,,,,,,,,,,,,,,,,,,,,,,,,,,,,,,,,,,,,,,,,,,,,,,,,,,,,,,,,,,,,,,,,,,,,,,,,,,,,,127.0,127.0,200.0,125.0,125.0,200.0,3.0,3.1,-222,265,0,2,258,-265,160.77239871025085,160.77247428894043,160.77652740478516,160.78724670410156,160.9376039505005,160.9376039505005,160.9376039505005,160.9376039505005,160.9376039505005,160.9376039505005,160.9376039505005,162.0732398033142,3,1.276841163635254,None,,,,,,,,,,,,,,,,,,15,4,2025-02-18_14h04.48.522,comp,2024.2.4,None,2025-02-18 14h05.02.161074 -0500,
65,65,0,critical,hdw,35.0,4.0,lower,133.0,57.0,70.0,70.0,57.0,133.0,2,1.0053586959838867,None,,,,,0,0,0,0,0,65,65,112,162.09128880500793,,,,,,,,,,,,,,,,,,,,,,,,,,,,,,,,,,,,,,,,,,,,,,,,,,,,,,,,,,,,,,,,,,,,,,,,,,,,,,,,,133.0,57.0,70.0,70.0,57.0,133.0,4.0,4.2,-160,-13,0,-280,198,16,162.0747992992401,162.0748770236969,162.07794737815857,162.09128880500793,162.2370195388794,162.2370195388794,162.2370195388794,162.2370195388794,162.2370195388794,162.2370195388794,162.2370195388794,163.10420417785645,2,1.0053586959838867,None,,,,,,,,,,,,,,,,,,15,4,2025-02-18_14h04.48.522,comp,2024.2.4,None,2025-02-18 14h05.02.161074 -0500,
66,66,0,critical,wdh,35.0,1.0,lower,57.0,133.0,70.0,70.0,133.0,57.0,3,1.871570110321045,None,,,,,0,0,0,0,0,66,66,72,163.1201310157776,,,,,,,,,,,,,,,,,,,,,,,,,,,,,,,,,,,,,,,,,,,,,,,,,,,,,,,,,,,,,,,,,,,,,,,,,,,,,,,,,57.0,133.0,70.0,70.0,133.0,57.0,1.0,1.1,-678,256,-480,281,-320,278,163.10577273368835,163.1058497428894,163.10925602912903,163.1201310157776,163.27304482460022,163.27304482460022,163.27304482460022,163.27304482460022,163.27304482460022,163.27304482460022,163.27304482460022,165.00476908683777,3,1.871570110321045,None,,,,,,,,,,,,,,,,,,15,4,2025-02-18_14h04.48.522,comp,2024.2.4,None,2025-02-18 14h05.02.161074 -0500,
67,67,0,filler_square,None,None,None,None,None,None,None,None,None,None,1,1.2073745727539062,None,,,,,0,0,0,0,0,67,67,173,165.0243000984192,,,,,,,,,,,,,,,,,,,,,,,,,,,,,,,,,,,,,,,,,,,,,,,,,,,,,,,,,,,,,,,,,,,,,,,,,,,,,,,,,79.44554559847136,79.44554559847136,67.54947118509509,58.44454457156533,64.46316764999351,58.66684798894015,1.0,1.1,-645,263,-480,257,-325,280,165.0066318511963,165.0067105293274,165.00970435142517,165.0243000984192,165.17130398750305,165.17130398750305,165.17130398750305,165.17130398750305,165.17130398750305,165.17130398750305,165.17130398750305,166.2493495941162,1,1.2073745727539062,None,,,,,,,,,,,,,,,,,,15,4,2025-02-18_14h04.48.522,comp,2024.2.4,None,2025-02-18 14h05.02.161074 -0500,
68,68,0,filler_random,None,None,None,None,None,None,None,None,None,None,3,1.0926909446716309,None,,,,,0,0,0,0,0,68,68,169,166.2670121192932,,,,,,,,,,,,,,,,,,,,,,,,,,,,,,,,,,,,,,,,,,,,,,,,,,,,,,,,,,,,,,,,,,,,,,,,,,,,,,,,,85.78840124831939,69.67242681609804,65.38666317898036,73.9986642295459,188.87145889865658,115.50834755518841,4.0,4.2,-168,18,0,-287,191,-16,166.2509913444519,166.25106716156006,166.25397491455078,166.2670121192932,166.40558576583862,166.40558576583862,166.40558576583862,166.40558576583862,166.40558576583862,166.40558576583862,166.40558576583862,167.37131571769714,3,1.0926909446716309,None,,,,,,,,,,,,,,,,,,15,4,2025-02-18_14h04.48.522,comp,2024.2.4,None,2025-02-18 14h05.02.161074 -0500,
69,69,0,critical,dwh,35.0,3.0,upper,127.0,127.0,125.0,200.0,200.0,125.0,2,1.5318894386291504,None,,,,,0,0,0,0,0,69,69,63,167.38793778419495,,,,,,,,,,,,,,,,,,,,,,,,,,,,,,,,,,,,,,,,,,,,,,,,,,,,,,,,,,,,,,,,,,,,,,,,,,,,,,,,,127.0,127.0,125.0,200.0,200.0,125.0,3.0,3.1,-260,255,0,8,258,-276,167.3728837966919,167.37296104431152,167.37617778778076,167.38793778419495,167.53958654403687,167.53958654403687,167.53958654403687,167.53958654403687,167.53958654403687,167.53958654403687,167.53958654403687,168.92304873466492,2,1.5318894386291504,None,,,,,,,,,,,,,,,,,,15,4,2025-02-18_14h04.48.522,comp,2024.2.4,None,2025-02-18 14h05.02.161074 -0500,
70,70,0,critical,hdw,35.0,1.0,lower,133.0,57.0,70.0,70.0,57.0,133.0,3,1.1890385150909424,None,,,,,0,0,0,0,0,70,70,108,168.94038891792297,,,,,,,,,,,,,,,,,,,,,,,,,,,,,,,,,,,,,,,,,,,,,,,,,,,,,,,,,,,,,,,,,,,,,,,,,,,,,,,,,133.0,57.0,70.0,70.0,57.0,133.0,1.0,1.1,-640,269,-480,272,-282,275,168.9247260093689,168.92480492591858,168.9290211200714,168.94038891792297,169.08555364608765,169.08555364608765,169.08555364608765,169.08555364608765,169.08555364608765,169.08555364608765,169.08555364608765,170.14021182060242,3,1.1890385150909424,None,,,,,,,,,,,,,,,,,,15,4,2025-02-18_14h04.48.522,comp,2024.2.4,None,2025-02-18 14h05.02.161074 -0500,
71,71,0,critical,whd,35.0,3.0,lower,57.0,133.0,133.0,57.0,70.0,70.0,2,1.2283477783203125,None,,,,,0,0,0,0,0,71,71,86,170.15663647651672,,,,,,,,,,,,,,,,,,,,,,,,,,,,,,,,,,,,,,,,,,,,,,,,,,,,,,,,,,,,,,,,,,,,,,,,,,,,,,,,,57.0,133.0,133.0,57.0,70.0,70.0,3.0,3.2,-191,-262,0,-3,160,289,170.14182782173157,170.14190459251404,170.14567065238953,170.15663647651672,170.30994629859924,170.30994629859924,170.30994629859924,170.30994629859924,170.30994629859924,170.30994629859924,170.30994629859924,171.39085626602173,2,1.2283477783203125,None,,,,,,,,,,,,,,,,,,15,4,2025-02-18_14h04.48.522,comp,2024.2.4,None,2025-02-18 14h05.02.161074 -0500,
72,72,0,critical,wdh,20.0,2.1,lower,57.0,133.0,78.0,78.0,133.0,57.0,3,1.0793907642364502,None,,,,,0,0,0,0,0,72,72,34,171.40921902656555,,,,,,,,,,,,,,,,,,,,,,,,,,,,,,,,,,,,,,,,,,,,,,,,,,,,,,,,,,,,,,,,,,,,,,,,,,,,,,,,,57.0,133.0,78.0,78.0,133.0,57.0,2.1,2.11,-202,266,0,287,164,-286,171.39229822158813,171.39237236976624,171.39522528648376,171.40921902656555,171.5571792125702,171.5571792125702,171.5571792125702,171.5571792125702,171.5571792125702,171.5571792125702,171.5571792125702,172.4938521385193,3,1.0793907642364502,None,,,,,,,,,,,,,,,,,,15,4,2025-02-18_14h04.48.522,comp,2024.2.4,None,2025-02-18 14h05.02.161074 -0500,
73,73,0,filler_random,None,None,None,None,None,None,None,None,None,None,2,1.074070692062378,None,,,,,0,0,0,0,0,73,73,163,172.5102825164795,,,,,,,,,,,,,,,,,,,,,,,,,,,,,,,,,,,,,,,,,,,,,,,,,,,,,,,,,,,,,,,,,,,,,,,,,,,,,,,,,188.05344255216679,93.21059552060947,170.56970034361396,189.44172184591423,150.9134775318339,102.8233003862014,2.1,2.11,-237,271,0,262,242,-268,172.49590754508972,172.49599409103394,172.49945998191833,172.5102825164795,172.66312909126282,172.66312909126282,172.66312909126282,172.66312909126282,172.66312909126282,172.66312909126282,172.66312909126282,173.59011888504028,2,1.074070692062378,None,,,,,,,,,,,,,,,,,,15,4,2025-02-18_14h04.48.522,comp,2024.2.4,None,2025-02-18 14h05.02.161074 -0500,
74,74,0,critical,hdw,20.0,4.0,lower,133.0,57.0,78.0,78.0,57.0,133.0,1,2.1694939136505127,None,,,,,0,0,0,0,0,74,74,118,173.60623455047607,,,,,,,,,,,,,,,,,,,,,,,,,,,,,,,,,,,,,,,,,,,,,,,,,,,,,,,,,,,,,,,,,,,,,,,,,,,,,,,,,133.0,57.0,78.0,78.0,57.0,133.0,4.0,4.1,-164,-287,0,-18,202,-254,173.59157633781433,173.5916531085968,173.5946569442749,173.60623455047607,173.74376797676086,173.74376797676086,173.74376797676086,173.74376797676086,173.74376797676086,173.74376797676086,173.74376797676086,175.79234528541565,1,2.1694939136505127,None,,,,,,,,,,,,,,,,,,15,4,2025-02-18_14h04.48.522,comp,2024.2.4,None,2025-02-18 14h05.02.161074 -0500,
75,75,0,critical,dwh,35.0,2.1,lower,70.0,70.0,57.0,133.0,133.0,57.0,3,1.2720305919647217,None,,,,,0,0,0,0,0,75,75,4,175.8085596561432,,,,,,,,,,,,,,,,,,,,,,,,,,,,,,,,,,,,,,,,,,,,,,,,,,,,,,,,,,,,,,,,,,,,,,,,,,,,,,,,,70.0,70.0,57.0,133.0,133.0,57.0,2.1,2.12,-198,-264,0,-271,191,258,175.79384994506836,175.79392647743225,175.79693293571472,175.8085596561432,175.96146845817566,175.96146845817566,175.96146845817566,175.96146845817566,175.96146845817566,175.96146845817566,175.96146845817566,177.08369493484497,3,1.2720305919647217,None,,,,,,,,,,,,,,,,,,15,4,2025-02-18_14h04.48.522,comp,2024.2.4,None,2025-02-18 14h05.02.161074 -0500,
76,76,0,critical,dhw,35.0,2.1,upper,127.0,127.0,200.0,125.0,125.0,200.0,3,1.403477430343628,None,,,,,0,0,0,0,0,76,76,1,177.10022711753845,,,,,,,,,,,,,,,,,,,,,,,,,,,,,,,,,,,,,,,,,,,,,,,,,,,,,,,,,,,,,,,,,,,,,,,,,,,,,,,,,127.0,127.0,200.0,125.0,125.0,200.0,2.1,2.11,-222,270,0,251,258,-288,177.0852291584015,177.08530735969543,177.08865118026733,177.10022711753845,177.2487759590149,177.2487759590149,177.2487759590149,177.2487759590149,177.2487759590149,177.2487759590149,177.2487759590149,178.51673483848572,3,1.403477430343628,None,,,,,,,,,,,,,,,,,,15,4,2025-02-18_14h04.48.522,comp,2024.2.4,None,2025-02-18 14h05.02.161074 -0500,
77,77,0,critical,hwd,35.0,1.0,upper,200.0,125.0,125.0,200.0,127.0,127.0,3,2.3399126529693604,None,,,,,0,0,0,0,0,77,77,97,178.53206610679626,,,,,,,,,,,,,,,,,,,,,,,,,,,,,,,,,,,,,,,,,,,,,,,,,,,,,,,,,,,,,,,,,,,,,,,,,,,,,,,,,200.0,125.0,125.0,200.0,127.0,127.0,1.0,1.1,-738,284,-480,251,-220,277,178.51834964752197,178.51842498779297,178.5217535495758,178.53206610679626,178.6744680404663,178.6744680404663,178.6744680404663,178.6744680404663,178.6744680404663,178.6744680404663,178.6744680404663,180.876620054245,3,2.3399126529693604,None,,,,,,,,,,,,,,,,,,15,4,2025-02-18_14h04.48.522,comp,2024.2.4,None,2025-02-18 14h05.02.161074 -0500,
78,78,0,filler_square,None,None,None,None,None,None,None,None,None,None,2,1.3313970565795898,None,,,,,0,0,0,0,0,78,78,200,180.89267659187317,,,,,,,,,,,,,,,,,,,,,,,,,,,,,,,,,,,,,,,,,,,,,,,,,,,,,,,,,,,,,,,,,,,,,,,,,,,,,,,,,57.36042283968302,131.39643054140666,132.25036558467335,132.25036558467335,116.4623652502417,121.12429459872544,1.0,1.3,252,-260,480,-251,703,-263,180.87839221954346,180.87847113609314,180.88183522224426,180.89267659187317,181.04296255111694,181.04296255111694,181.04296255111694,181.04296255111694,181.04296255111694,181.04296255111694,181.04296255111694,182.2430772781372,2,1.3313970565795898,None,,,,,,,,,,,,,,,,,,15,4,2025-02-18_14h04.48.522,comp,2024.2.4,None,2025-02-18 14h05.02.161074 -0500,
79,79,0,catch,None,None,None,None,None,None,None,None,None,None,2,1.0372135639190674,None,,,,,0,0,0,0,0,79,79,128,182.2588393688202,,,,,,,,,,,,,,,,,,,,,,,,,,,,,,,,,,,,,,,,,,,,,,,,,,,,,,,,,,,,,,,,,,,,,,,,,,,,,,,,,86,104,149,176,74,116,2.1,2.11,-236,257,0,255,242,-274,182.24516034126282,182.2452335357666,182.24847054481506,182.2588393688202,182.4090437889099,182.4090437889099,182.4090437889099,182.4090437889099,182.4090437889099,182.4090437889099,182.4090437889099,183.29980564117432,2,1.0372135639190674,None,,,,,,,,,,,,,,,,,,15,4,2025-02-18_14h04.48.522,comp,2024.2.4,None,2025-02-18 14h05.02.161074 -0500,
80,80,0,filler_square,None,None,None,None,None,None,None,None,None,None,1,1.3968651294708252,None,,,,,0,0,0,0,0,80,80,170,183.3151330947876,,,,,,,,,,,,,,,,,,,,,,,,,,,,,,,,,,,,,,,,,,,,,,,,,,,,,,,,,,,,,,,,,,,,,,,,,,,,,,,,,176.47320201463538,176.47320201463538,130.12300511878982,69.01279538402346,143.89741584670523,108.23824618296031,2.2,2.22,-219,259,0,-262,185,-279,183.30157041549683,183.3016459941864,183.30448961257935,183.3151330947876,183.4637644290924,183.4637644290924,183.4637644290924,183.4637644290924,183.4637644290924,183.4637644290924,183.4637644290924,184.72969484329224,1,1.3968651294708252,None,,,,,,,,,,,,,,,,,,15,4,2025-02-18_14h04.48.522,comp,2024.2.4,None,2025-02-18 14h05.02.161074 -0500,
81,81,0,critical,hdw,35.0,1.0,upper,200.0,125.0,127.0,127.0,125.0,200.0,1,1.3830111026763916,None,,,,,0,0,0,0,0,81,81,109,184.74471163749695,,,,,,,,,,,,,,,,,,,,,,,,,,,,,,,,,,,,,,,,,,,,,,,,,,,,,,,,,,,,,,,,,,,,,,,,,,,,,,,,,200.0,125.0,127.0,127.0,125.0,200.0,1.0,1.3,258,-256,480,-285,740,-286,184.7312376499176,184.73131275177002,184.7344377040863,184.74471163749695,184.88227319717407,184.88227319717407,184.88227319717407,184.88227319717407,184.88227319717407,184.88227319717407,184.88227319717407,186.1449635028839,1,1.3830111026763916,None,,,,,,,,,,,,,,,,,,15,4,2025-02-18_14h04.48.522,comp,2024.2.4,None,2025-02-18 14h05.02.161074 -0500,
82,82,0,filler_random,None,None,None,None,None,None,None,None,None,None,3,1.0711770057678223,None,,,,,0,0,0,0,0,82,82,168,186.16062998771667,,,,,,,,,,,,,,,,,,,,,,,,,,,,,,,,,,,,,,,,,,,,,,,,,,,,,,,,,,,,,,,,,,,,,,,,,,,,,,,,,109.92714102528012,98.86551284006141,60.2133371819628,75.25828607362972,127.35678187318621,180.45172814645161,2.2,2.21,-183,-285,0,264,224,254,186.14682531356812,186.14695835113525,186.15033507347107,186.16062998771667,186.3118031024933,186.3118031024933,186.3118031024933,186.3118031024933,186.3118031024933,186.3118031024933,186.3118031024933,187.24560165405273,3,1.0711770057678223,None,,,,,,,,,,,,,,,,,,15,4,2025-02-18_14h04.48.522,comp,2024.2.4,None,2025-02-18 14h05.02.161074 -0500,
83,83,0,critical,dhw,20.0,2.1,lower,78.0,78.0,133.0,57.0,57.0,133.0,2,1.186112642288208,None,,,,,0,0,0,0,0,83,83,2,187.26158022880554,,,,,,,,,,,,,,,,,,,,,,,,,,,,,,,,,,,,,,,,,,,,,,,,,,,,,,,,,,,,,,,,,,,,,,,,,,,,,,,,,78.0,78.0,133.0,57.0,57.0,133.0,2.1,2.11,-164,275,0,261,191,-285,187.24708342552185,187.24715614318848,187.2512993812561,187.26158022880554,187.41156721115112,187.41156721115112,187.41156721115112,187.41156721115112,187.41156721115112,187.41156721115112,187.41156721115112,188.4621205329895,2,1.186112642288208,None,,,,,,,,,,,,,,,,,,15,4,2025-02-18_14h04.48.522,comp,2024.2.4,None,2025-02-18 14h05.02.161074 -0500,
84,84,0,filler_square,None,None,None,None,None,None,None,None,None,None,2,1.9623923301696777,None,,,,,0,0,0,0,0,84,84,172,188.4778609275818,,,,,,,,,,,,,,,,,,,,,,,,,,,,,,,,,,,,,,,,,,,,,,,,,,,,,,,,,,,,,,,,,,,,,,,,,,,,,,,,,78.91474254119053,62.504389984284025,90.16100591377531,90.16100591377531,72.76188929839249,85.97266706681559,2.1,2.12,-172,-251,0,-281,184,266,188.46404218673706,188.46411609649658,188.46747732162476,188.4778609275818,188.6337811946869,188.6337811946869,188.6337811946869,188.6337811946869,188.6337811946869,188.6337811946869,188.6337811946869,190.4452781677246,2,1.9623923301696777,None,,,,,,,,,,,,,,,,,,15,4,2025-02-18_14h04.48.522,comp,2024.2.4,None,2025-02-18 14h05.02.161074 -0500,
85,85,0,critical,wdh,20.0,3.0,lower,57.0,133.0,78.0,78.0,133.0,57.0,3,1.937781810760498,None,,,,,0,0,0,0,0,85,85,80,190.4621455669403,,,,,,,,,,,,,,,,,,,,,,,,,,,,,,,,,,,,,,,,,,,,,,,,,,,,,,,,,,,,,,,,,,,,,,,,,,,,,,,,,57.0,133.0,78.0,78.0,133.0,57.0,3.0,3.2,-202,-263,0,7,164,275,190.44689393043518,190.44697952270508,190.45038104057312,190.4621455669403,190.6184139251709,190.6184139251709,190.6184139251709,190.6184139251709,190.6184139251709,190.6184139251709,190.6184139251709,192.4022753238678,3,1.937781810760498,None,,,,,,,,,,,,,,,,,,15,4,2025-02-18_14h04.48.522,comp,2024.2.4,None,2025-02-18 14h05.02.161074 -0500,
86,86,0,critical,dhw,20.0,1.0,upper,141.0,141.0,200.0,125.0,125.0,200.0,3,2.064927816390991,None,,,,,0,0,0,0,0,86,86,55,192.4228925704956,,,,,,,,,,,,,,,,,,,,,,,,,,,,,,,,,,,,,,,,,,,,,,,,,,,,,,,,,,,,,,,,,,,,,,,,,,,,,,,,,141.0,141.0,200.0,125.0,125.0,200.0,1.0,1.3,251,-286,480,-275,738,-285,192.40390753746033,192.40398406982422,192.40727877616882,192.4228925704956,192.56454515457153,192.56454515457153,192.56454515457153,192.56454515457153,192.56454515457153,192.56454515457153,192.56454515457153,194.48988461494446,3,2.064927816390991,None,,,,,,,,,,,,,,,,,,15,4,2025-02-18_14h04.48.522,comp,2024.2.4,None,2025-02-18 14h05.02.161074 -0500,
87,87,0,filler_random,None,None,None,None,None,None,None,None,None,None,1,1.4778552055358887,None,,,,,0,0,0,0,0,87,87,154,194.50588870048523,,,,,,,,,,,,,,,,,,,,,,,,,,,,,,,,,,,,,,,,,,,,,,,,,,,,,,,,,,,,,,,,,,,,,,,,,,,,,,,,,83.54848254114759,152.33124402698448,77.152051834079,73.57647318460579,118.33335677635066,103.78459514660089,1.0,1.3,271,-257,480,-273,665,-272,194.4915862083435,194.49166321754456,194.494487285614,194.50588870048523,194.6479208469391,194.6479208469391,194.6479208469391,194.6479208469391,194.6479208469391,194.6479208469391,194.6479208469391,195.99723315238953,1,1.4778552055358887,None,,,,,,,,,,,,,,,,,,15,4,2025-02-18_14h04.48.522,comp,2024.2.4,None,2025-02-18 14h05.02.161074 -0500,
88,88,0,critical,dwh,35.0,1.0,lower,70.0,70.0,57.0,133.0,133.0,57.0,3,1.915454387664795,None,,,,,0,0,0,0,0,88,88,60,196.01312947273254,,,,,,,,,,,,,,,,,,,,,,,,,,,,,,,,,,,,,,,,,,,,,,,,,,,,,,,,,,,,,,,,,,,,,,,,,,,,,,,,,70.0,70.0,57.0,133.0,133.0,57.0,1.0,1.1,-678,289,-480,287,-289,271,195.99886274337769,195.99896717071533,196.0023729801178,196.01312947273254,196.1699242591858,196.1699242591858,196.1699242591858,196.1699242591858,196.1699242591858,196.1699242591858,196.1699242591858,197.93814706802368,3,1.915454387664795,None,,,,,,,,,,,,,,,,,,15,4,2025-02-18_14h04.48.522,comp,2024.2.4,None,2025-02-18 14h05.02.161074 -0500,
89,89,0,filler_square,None,None,None,None,None,None,None,None,None,None,2,1.5581002235412598,None,,,,,0,0,0,0,0,89,89,185,197.95348501205444,,,,,,,,,,,,,,,,,,,,,,,,,,,,,,,,,,,,,,,,,,,,,,,,,,,,,,,,,,,,,,,,,,,,,,,,,,,,,,,,,64.71012661883063,73.63110050468269,121.54463282681007,121.54463282681007,117.40339460777686,91.5062007455622,3.0,3.2,-194,-255,0,-19,203,280,197.9399392604828,197.9400155544281,197.94286441802979,197.95348501205444,198.09910249710083,198.09910249710083,198.09910249710083,198.09910249710083,198.09910249710083,198.09910249710083,198.09910249710083,199.51633739471436,2,1.5581002235412598,None,,,,,,,,,,,,,,,,,,15,4,2025-02-18_14h04.48.522,comp,2024.2.4,None,2025-02-18 14h05.02.161074 -0500,
90,90,0,filler_random,None,None,None,None,None,None,None,None,None,None,1,1.0193665027618408,None,,,,,0,0,0,0,0,90,90,160,199.53241562843323,,,,,,,,,,,,,,,,,,,,,,,,,,,,,,,,,,,,,,,,,,,,,,,,,,,,,,,,,,,,,,,,,,,,,,,,,,,,,,,,,104.98726784093013,118.23799035977808,76.17626299071087,78.99101383421602,163.6074972347466,58.619328073848344,1.0,1.2,-195,16,0,-13,165,13,199.51801085472107,199.51808762550354,199.52176904678345,199.53241562843323,199.68544721603394,199.68544721603394,199.68544721603394,199.68544721603394,199.68544721603394,199.68544721603394,199.68544721603394,200.56757354736328,1,1.0193665027618408,None,,,,,,,,,,,,,,,,,,15,4,2025-02-18_14h04.48.522,comp,2024.2.4,None,2025-02-18 14h05.02.161074 -0500,
91,91,0,filler_square,None,None,None,None,None,None,None,None,None,None,3,1.2801580429077148,None,,,,,0,0,0,0,0,91,91,195,200.58392524719238,,,,,,,,,,,,,,,,,,,,,,,,,,,,,,,,,,,,,,,,,,,,,,,,,,,,,,,,,,,,,,,,,,,,,,,,,,,,,,,,,67.86328715341217,97.14248712268275,59.90037775820144,109.27240342800587,151.39967034727786,151.39967034727786,2.1,2.11,-199,266,0,264,226,-257,200.56960535049438,200.56972575187683,200.57349133491516,200.58392524719238,200.73960399627686,200.73960399627686,200.73960399627686,200.73960399627686,200.73960399627686,200.73960399627686,200.73960399627686,201.88268566131592,3,1.2801580429077148,None,,,,,,,,,,,,,,,,,,15,4,2025-02-18_14h04.48.522,comp,2024.2.4,None,2025-02-18 14h05.02.161074 -0500,
92,92,0,critical,hwd,35.0,3.0,lower,133.0,57.0,57.0,133.0,70.0,70.0,2,1.010310173034668,None,,,,,0,0,0,0,0,92,92,98,201.9018862247467,,,,,,,,,,,,,,,,,,,,,,,,,,,,,,,,,,,,,,,,,,,,,,,,,,,,,,,,,,,,,,,,,,,,,,,,,,,,,,,,,133.0,57.0,57.0,133.0,70.0,70.0,3.0,3.1,-191,264,0,-12,198,-267,201.88406467437744,201.88413834571838,201.88732242584229,201.9018862247467,202.0499725341797,202.0499725341797,202.0499725341797,202.0499725341797,202.0499725341797,202.0499725341797,202.0499725341797,202.91737842559814,2,1.010310173034668,None,,,,,,,,,,,,,,,,,,15,4,2025-02-18_14h04.48.522,comp,2024.2.4,None,2025-02-18 14h05.02.161074 -0500,
93,93,0,critical,hwd,35.0,4.0,upper,200.0,125.0,125.0,200.0,127.0,127.0,2,1.123288869857788,None,,,,,0,0,0,0,0,93,93,101,202.93337035179138,,,,,,,,,,,,,,,,,,,,,,,,,,,,,,,,,,,,,,,,,,,,,,,,,,,,,,,,,,,,,,,,,,,,,,,,,,,,,,,,,200.0,125.0,125.0,200.0,127.0,127.0,4.0,4.1,-258,-285,0,-3,260,-253,202.9188506603241,202.9189257621765,202.9225776195526,202.93337035179138,203.08540773391724,203.08540773391724,203.08540773391724,203.08540773391724,203.08540773391724,203.08540773391724,203.08540773391724,204.06743931770325,2,1.123288869857788,None,,,,,,,,,,,,,,,,,,15,4,2025-02-18_14h04.48.522,comp,2024.2.4,None,2025-02-18 14h05.02.161074 -0500,
94,94,0,critical,dwh,35.0,2.1,upper,127.0,127.0,125.0,200.0,200.0,125.0,2,1.1318309307098389,None,,,,,0,0,0,0,0,94,94,5,204.0839114189148,,,,,,,,,,,,,,,,,,,,,,,,,,,,,,,,,,,,,,,,,,,,,,,,,,,,,,,,,,,,,,,,,,,,,,,,,,,,,,,,,127.0,127.0,125.0,200.0,200.0,125.0,2.1,2.11,-260,252,0,261,258,-266,204.06902837753296,204.06910300254822,204.0733025074005,204.0839114189148,204.2309226989746,204.2309226989746,204.2309226989746,204.2309226989746,204.2309226989746,204.2309226989746,204.2309226989746,205.2180073261261,2,1.1318309307098389,None,,,,,,,,,,,,,,,,,,15,4,2025-02-18_14h04.48.522,comp,2024.2.4,None,2025-02-18 14h05.02.161074 -0500,
95,95,0,critical,hwd,35.0,1.0,lower,133.0,57.0,57.0,133.0,70.0,70.0,2,0.9933657646179199,None,,,,,0,0,0,0,0,95,95,96,205.23835468292236,,,,,,,,,,,,,,,,,,,,,,,,,,,,,,,,,,,,,,,,,,,,,,,,,,,,,,,,,,,,,,,,,,,,,,,,,,,,,,,,,133.0,57.0,57.0,133.0,70.0,70.0,1.0,1.2,-191,-15,0,3,198,6,205.21943473815918,205.21954822540283,205.2227120399475,205.23835468292236,205.38415813446045,205.38415813446045,205.38415813446045,205.38415813446045,205.38415813446045,205.38415813446045,205.38415813446045,206.25012469291687,2,0.9933657646179199,None,,,,,,,,,,,,,,,,,,15,4,2025-02-18_14h04.48.522,comp,2024.2.4,None,2025-02-18 14h05.02.161074 -0500,
96,96,0,catch,None,None,None,None,None,None,None,None,None,None,2,0.9966912269592285,None,,,,,0,0,0,0,0,96,96,125,206.2678792476654,,,,,,,,,,,,,,,,,,,,,,,,,,,,,,,,,,,,,,,,,,,,,,,,,,,,,,,,,,,,,,,,,,,,,,,,,,,,,,,,,113,77,130,195,60,130,1.0,1.3,248,-275,480,-271,738,-277,206.25197291374207,206.25204873085022,206.25517988204956,206.2678792476654,206.41875052452087,206.41875052452087,206.41875052452087,206.41875052452087,206.41875052452087,206.41875052452087,206.41875052452087,207.27045583724976,2,0.9966912269592285,None,,,,,,,,,,,,,,,,,,15,4,2025-02-18_14h04.48.522,comp,2024.2.4,None,2025-02-18 14h05.02.161074 -0500,
97,97,0,filler_random,None,None,None,None,None,None,None,None,None,None,2,0.9991555213928223,None,,,,,0,0,0,0,0,97,97,149,207.2890374660492,,,,,,,,,,,,,,,,,,,,,,,,,,,,,,,,,,,,,,,,,,,,,,,,,,,,,,,,,,,,,,,,,,,,,,,,,,,,,,,,,114.65711990917615,62.62068055413106,158.7812812103624,112.73880817616822,181.63130127986784,65.96815987840225,3.0,3.2,-184,-265,0,-15,185,269,207.2721974849701,207.27232360839844,207.27590680122375,207.2890374660492,207.43318271636963,207.43318271636963,207.43318271636963,207.43318271636963,207.43318271636963,207.43318271636963,207.43318271636963,208.30608916282654,2,0.9991555213928223,None,,,,,,,,,,,,,,,,,,15,4,2025-02-18_14h04.48.522,comp,2024.2.4,None,2025-02-18 14h05.02.161074 -0500,
98,98,0,critical,hdw,20.0,3.0,lower,133.0,57.0,78.0,78.0,57.0,133.0,3,1.0902132987976074,None,,,,,0,0,0,0,0,98,98,116,208.32553553581238,,,,,,,,,,,,,,,,,,,,,,,,,,,,,,,,,,,,,,,,,,,,,,,,,,,,,,,,,,,,,,,,,,,,,,,,,,,,,,,,,133.0,57.0,78.0,78.0,57.0,133.0,3.0,3.2,-164,-271,0,11,202,265,208.30765175819397,208.30773091316223,208.3107669353485,208.32553553581238,208.46819806098938,208.46819806098938,208.46819806098938,208.46819806098938,208.46819806098938,208.46819806098938,208.46819806098938,209.4211461544037,3,1.0902132987976074,None,,,,,,,,,,,,,,,,,,15,4,2025-02-18_14h04.48.522,comp,2024.2.4,None,2025-02-18 14h05.02.161074 -0500,
99,99,0,filler_square,None,None,None,None,None,None,None,None,None,None,2,0.8703391551971436,None,,,,,0,0,0,0,0,99,99,186,209.44120931625366,,,,,,,,,,,,,,,,,,,,,,,,,,,,,,,,,,,,,,,,,,,,,,,,,,,,,,,,,,,,,,,,,,,,,,,,,,,,,,,,,117.2784070764121,111.71488125222957,124.75051923672503,124.75051923672503,59.347390850330896,72.15915690619093,2.1,2.12,-214,-288,0,-265,194,258,209.42315769195557,209.42326045036316,209.4264760017395,209.44120931625366,209.58587908744812,209.58587908744812,209.58587908744812,209.58587908744812,209.58587908744812,209.58587908744812,209.58587908744812,210.32570004463196,2,0.8703391551971436,None,,,,,,,,,,,,,,,,,,15,4,2025-02-18_14h04.48.522,comp,2024.2.4,None,2025-02-18 14h05.02.161074 -0500,
100,100,0,filler_random,None,None,None,None,None,None,None,None,None,None,2,0.8216884136199951,None,,,,,0,0,0,0,0,100,100,130,210.34636044502258,,,,,,,,,,,,,,,,,,,,,,,,,,,,,,,,,,,,,,,,,,,,,,,,,,,,,,,,,,,,,,,,,,,,,,,,,,,,,,,,,66.73801599675451,122.10987800835932,198.43978276852482,122.50216842724872,140.63173567157006,65.70730244914976,3.0,3.2,-218,-279,0,15,190,281,210.32736229896545,210.32743787765503,210.33072137832642,210.34636044502258,210.48695492744446,210.48695492744446,210.48695492744446,210.48695492744446,210.48695492744446,210.48695492744446,210.48695492744446,211.1888403892517,2,0.8216884136199951,None,,,,,,,,,,,,,,,,,,15,4,2025-02-18_14h04.48.522,comp,2024.2.4,None,2025-02-18 14h05.02.161074 -0500,
101,101,0,filler_square,None,None,None,None,None,None,None,None,None,None,1,1.319838285446167,None,,,,,0,0,0,0,0,101,101,190,211.2087001800537,,,,,,,,,,,,,,,,,,,,,,,,,,,,,,,,,,,,,,,,,,,,,,,,,,,,,,,,,,,,,,,,,,,,,,,,,,,,,,,,,173.52191306891729,173.52191306891729,123.50262089034565,74.95125021021057,69.74496975920492,160.93185300553847,2.1,2.12,-220,-276,0,-285,214,264,211.1909694671631,211.19108653068542,211.19442558288574,211.2087001800537,211.35361742973328,211.35361742973328,211.35361742973328,211.35361742973328,211.35361742973328,211.35361742973328,211.35361742973328,212.53662180900574,1,1.319838285446167,None,,,,,,,,,,,,,,,,,,15,4,2025-02-18_14h04.48.522,comp,2024.2.4,None,2025-02-18 14h05.02.161074 -0500,
102,102,0,filler_random,None,None,None,None,None,None,None,None,None,None,1,1.1199898719787598,None,,,,,0,0,0,0,0,102,102,145,212.5516800880432,,,,,,,,,,,,,,,,,,,,,,,,,,,,,,,,,,,,,,,,,,,,,,,,,,,,,,,,,,,,,,,,,,,,,,,,,,,,,,,,,177.34144764447052,91.45060722228189,128.31344755089987,94.32726231327152,101.22701717102898,60.549625714827364,2.1,2.12,-189,-276,0,-257,173,268,212.5383117198944,212.53838992118835,212.5415599346161,212.5516800880432,212.6906876564026,212.6906876564026,212.6906876564026,212.6906876564026,212.6906876564026,212.6906876564026,212.6906876564026,213.68591356277466,1,1.1199898719787598,None,,,,,,,,,,,,,,,,,,15,4,2025-02-18_14h04.48.522,comp,2024.2.4,None,2025-02-18 14h05.02.161074 -0500,
103,103,0,filler_random,None,None,None,None,None,None,None,None,None,None,2,1.4659905433654785,None,,,,,0,0,0,0,0,103,103,133,213.70226454734802,,,,,,,,,,,,,,,,,,,,,,,,,,,,,,,,,,,,,,,,,,,,,,,,,,,,,,,,,,,,,,,,,,,,,,,,,,,,,,,,,111.24499088016964,146.35350236435045,179.68299262168023,118.99586604843037,106.70555085724968,193.2796302951147,2.2,2.22,-229,261,0,-258,252,-281,213.68763756752014,213.6877646446228,213.69101858139038,213.70226454734802,213.85606169700623,213.85606169700623,213.85606169700623,213.85606169700623,213.85606169700623,213.85606169700623,213.85606169700623,215.1765501499176,2,1.4659905433654785,None,,,,,,,,,,,,,,,,,,15,4,2025-02-18_14h04.48.522,comp,2024.2.4,None,2025-02-18 14h05.02.161074 -0500,
104,104,0,catch,None,None,None,None,None,None,None,None,None,None,3,1.0305140018463135,None,,,,,0,0,0,0,0,104,104,127,215.1931664943695,,,,,,,,,,,,,,,,,,,,,,,,,,,,,,,,,,,,,,,,,,,,,,,,,,,,,,,,,,,,,,,,,,,,,,,,,,,,,,,,,110,80,77,113,137,188,2.2,2.22,-192,260,0,-253,246,-260,215.17847967147827,215.1786036491394,215.181494474411,215.1931664943695,215.33783292770386,215.33783292770386,215.33783292770386,215.33783292770386,215.33783292770386,215.33783292770386,215.33783292770386,216.23691844940186,3,1.0305140018463135,None,,,,,,,,,,,,,,,,,,15,4,2025-02-18_14h04.48.522,comp,2024.2.4,None,2025-02-18 14h05.02.161074 -0500,
105,105,0,critical,dwh,20.0,3.0,upper,141.0,141.0,125.0,200.0,200.0,125.0,2,0.782569408416748,None,,,,,0,0,0,0,0,105,105,69,216.2572319507599,,,,,,,,,,,,,,,,,,,,,,,,,,,,,,,,,,,,,,,,,,,,,,,,,,,,,,,,,,,,,,,,,,,,,,,,,,,,,,,,,141.0,141.0,125.0,200.0,200.0,125.0,3.0,3.2,-266,-258,0,-13,258,265,216.23843812942505,216.23854994773865,216.24190950393677,216.2572319507599,216.40508365631104,216.40508365631104,216.40508365631104,216.40508365631104,216.40508365631104,216.40508365631104,216.40508365631104,217.05352091789246,2,0.782569408416748,None,,,,,,,,,,,,,,,,,,15,4,2025-02-18_14h04.48.522,comp,2024.2.4,None,2025-02-18 14h05.02.161074 -0500,
106,106,0,filler_random,None,None,None,None,None,None,None,None,None,None,1,1.4107670783996582,None,,,,,0,0,0,0,0,106,106,146,217.0696210861206,,,,,,,,,,,,,,,,,,,,,,,,,,,,,,,,,,,,,,,,,,,,,,,,,,,,,,,,,,,,,,,,,,,,,,,,,,,,,,,,,146.5328763257458,194.6172934978635,72.39820497481631,98.29566689076839,141.10919658467787,178.01061882518982,3.0,3.1,-242,262,0,11,234,-285,217.05512285232544,217.05519771575928,217.0582504272461,217.0696210861206,217.2183473110199,217.2183473110199,217.2183473110199,217.2183473110199,217.2183473110199,217.2183473110199,217.2183473110199,218.48888754844666,1,1.4107670783996582,None,,,,,,,,,,,,,,,,,,15,4,2025-02-18_14h04.48.522,comp,2024.2.4,None,2025-02-18 14h05.02.161074 -0500,
107,107,0,critical,hwd,20.0,1.0,upper,200.0,125.0,125.0,200.0,141.0,141.0,2,1.710982084274292,None,,,,,0,0,0,0,0,107,107,103,218.5053014755249,,,,,,,,,,,,,,,,,,,,,,,,,,,,,,,,,,,,,,,,,,,,,,,,,,,,,,,,,,,,,,,,,,,,,,,,,,,,,,,,,200.0,125.0,125.0,200.0,141.0,141.0,1.0,1.2,-258,-19,0,-14,266,-9,218.49044370651245,218.4905731678009,218.49464654922485,218.5053014755249,218.65516805648804,218.65516805648804,218.65516805648804,218.65516805648804,218.65516805648804,218.65516805648804,218.65516805648804,220.22088479995728,2,1.710982084274292,None,,,,,,,,,,,,,,,,,,15,4,2025-02-18_14h04.48.522,comp,2024.2.4,None,2025-02-18 14h05.02.161074 -0500,
108,108,0,critical,dwh,35.0,4.0,upper,127.0,127.0,125.0,200.0,200.0,125.0,3,1.0732474327087402,None,,,,,0,0,0,0,0,108,108,65,220.240629196167,,,,,,,,,,,,,,,,,,,,,,,,,,,,,,,,,,,,,,,,,,,,,,,,,,,,,,,,,,,,,,,,,,,,,,,,,,,,,,,,,127.0,127.0,125.0,200.0,200.0,125.0,4.0,4.2,-260,9,0,-260,258,5,220.2223436832428,220.2224199771881,220.225590467453,220.240629196167,220.39704060554504,220.39704060554504,220.39704060554504,220.39704060554504,220.39704060554504,220.39704060554504,220.39704060554504,221.31967449188232,3,1.0732474327087402,None,,,,,,,,,,,,,,,,,,15,4,2025-02-18_14h04.48.522,comp,2024.2.4,None,2025-02-18 14h05.02.161074 -0500,
109,109,0,critical,whd,20.0,2.1,lower,57.0,133.0,133.0,57.0,78.0,78.0,1,1.2066991329193115,None,,,,,0,0,0,0,0,109,109,14,221.33696007728577,,,,,,,,,,,,,,,,,,,,,,,,,,,,,,,,,,,,,,,,,,,,,,,,,,,,,,,,,,,,,,,,,,,,,,,,,,,,,,,,,57.0,133.0,133.0,57.0,78.0,78.0,2.1,2.11,-191,259,0,256,164,-266,221.32115936279297,221.32123470306396,221.32413005828857,221.33696007728577,221.47362780570984,221.47362780570984,221.47362780570984,221.47362780570984,221.47362780570984,221.47362780570984,221.47362780570984,222.5552339553833,1,1.2066991329193115,None,,,,,,,,,,,,,,,,,,15,4,2025-02-18_14h04.48.522,comp,2024.2.4,None,2025-02-18 14h05.02.161074 -0500,
110,110,0,filler_square,None,None,None,None,None,None,None,None,None,None,1,1.0622296333312988,None,,,,,0,0,0,0,0,110,110,207,222.57129454612732,,,,,,,,,,,,,,,,,,,,,,,,,,,,,,,,,,,,,,,,,,,,,,,,,,,,,,,,,,,,,,,,,,,,,,,,,,,,,,,,,120.21295713543907,120.21295713543907,110.51811851515002,61.006255724721605,92.15515679752899,65.27999609118902,3.0,3.1,-187,286,0,-12,159,-274,222.5570878982544,222.55721807479858,222.56039953231812,222.57129454612732,222.72416758537292,222.72416758537292,222.72416758537292,222.72416758537292,222.72416758537292,222.72416758537292,222.72416758537292,223.64196515083313,1,1.0622296333312988,None,,,,,,,,,,,,,,,,,,15,4,2025-02-18_14h04.48.522,comp,2024.2.4,None,2025-02-18 14h05.02.161074 -0500,
111,111,0,critical,whd,20.0,4.0,upper,125.0,200.0,200.0,125.0,141.0,141.0,1,1.0270977020263672,None,,,,,0,0,0,0,0,111,111,95,223.6606171131134,,,,,,,,,,,,,,,,,,,,,,,,,,,,,,,,,,,,,,,,,,,,,,,,,,,,,,,,,,,,,,,,,,,,,,,,,,,,,,,,,125.0,200.0,200.0,125.0,141.0,141.0,4.0,4.2,-258,-2,0,-263,229,0,223.6436574459076,223.643737077713,223.64748072624207,223.6606171131134,223.80616760253906,223.80616760253906,223.80616760253906,223.80616760253906,223.80616760253906,223.80616760253906,223.80616760253906,224.7008593082428,1,1.0270977020263672,None,,,,,,,,,,,,,,,,,,15,4,2025-02-18_14h04.48.522,comp,2024.2.4,None,2025-02-18 14h05.02.161074 -0500,
112,112,0,filler_square,None,None,None,None,None,None,None,None,None,None,3,0.9105935096740723,None,,,,,0,0,0,0,0,112,112,181,224.72120642662048,,,,,,,,,,,,,,,,,,,,,,,,,,,,,,,,,,,,,,,,,,,,,,,,,,,,,,,,,,,,,,,,,,,,,,,,,,,,,,,,,129.1302853897797,171.6239399168008,113.34550002126991,153.63956057496853,182.31861784533203,182.31861784533203,1.0,1.1,-739,272,-480,251,-216,287,224.7026436328888,224.7027244567871,224.7056851387024,224.72120642662048,224.86096286773682,224.86096286773682,224.86096286773682,224.86096286773682,224.86096286773682,224.86096286773682,224.86096286773682,225.643737077713,3,0.9105935096740723,None,,,,,,,,,,,,,,,,,,15,4,2025-02-18_14h04.48.522,comp,2024.2.4,None,2025-02-18 14h05.02.161074 -0500,
113,113,0,critical,wdh,35.0,2.1,lower,57.0,133.0,70.0,70.0,133.0,57.0,1,1.2294819355010986,None,,,,,0,0,0,0,0,113,113,32,225.6592242717743,,,,,,,,,,,,,,,,,,,,,,,,,,,,,,,,,,,,,,,,,,,,,,,,,,,,,,,,,,,,,,,,,,,,,,,,,,,,,,,,,57.0,133.0,70.0,70.0,133.0,57.0,2.1,2.12,-198,-273,0,-284,160,268,225.6452875137329,225.64536333084106,225.6485185623169,225.6592242717743,225.80985021591187,225.80985021591187,225.80985021591187,225.80985021591187,225.80985021591187,225.80985021591187,225.80985021591187,226.89615035057068,1,1.2294819355010986,None,,,,,,,,,,,,,,,,,,15,4,2025-02-18_14h04.48.522,comp,2024.2.4,None,2025-02-18 14h05.02.161074 -0500,
114,114,0,critical,whd,20.0,1.0,upper,125.0,200.0,200.0,125.0,141.0,141.0,2,1.5972509384155273,None,,,,,0,0,0,0,0,114,114,91,226.91454315185547,,,,,,,,,,,,,,,,,,,,,,,,,,,,,,,,,,,,,,,,,,,,,,,,,,,,,,,,,,,,,,,,,,,,,,,,,,,,,,,,,125.0,200.0,200.0,125.0,141.0,141.0,1.0,1.1,-738,253,-480,274,-251,260,226.89772939682007,226.8978111743927,226.90080523490906,226.91454315185547,227.05874490737915,227.05874490737915,227.05874490737915,227.05874490737915,227.05874490737915,227.05874490737915,227.05874490737915,228.5264618396759,2,1.5972509384155273,None,,,,,,,,,,,,,,,,,,15,4,2025-02-18_14h04.48.522,comp,2024.2.4,None,2025-02-18 14h05.02.161074 -0500,
115,115,0,critical,dwh,20.0,2.1,lower,78.0,78.0,57.0,133.0,133.0,57.0,3,1.5055739879608154,None,,,,,0,0,0,0,0,115,115,6,228.54235410690308,,,,,,,,,,,,,,,,,,,,,,,,,,,,,,,,,,,,,,,,,,,,,,,,,,,,,,,,,,,,,,,,,,,,,,,,,,,,,,,,,78.0,78.0,57.0,133.0,133.0,57.0,2.1,2.12,-202,-255,0,-274,191,254,228.52811312675476,228.52819728851318,228.53213667869568,228.54235410690308,228.69159746170044,228.69159746170044,228.69159746170044,228.69159746170044,228.69159746170044,228.69159746170044,228.69159746170044,230.06639432907104,3,1.5055739879608154,None,,,,,,,,,,,,,,,,,,15,4,2025-02-18_14h04.48.522,comp,2024.2.4,None,2025-02-18 14h05.02.161074 -0500,
116,116,0,catch,None,None,None,None,None,None,None,None,None,None,1,1.8870296478271484,None,,,,,0,0,0,0,0,116,116,124,230.08157420158386,,,,,,,,,,,,,,,,,,,,,,,,,,,,,,,,,,,,,,,,,,,,,,,,,,,,,,,,,,,,,,,,,,,,,,,,,,,,,,,,,144,181,124,66,64,126,2.2,2.21,-220,-270,0,257,192,258,230.06828022003174,230.06835341453552,230.07122802734375,230.08157420158386,230.22473073005676,230.22473073005676,230.22473073005676,230.22473073005676,230.22473073005676,230.22473073005676,230.22473073005676,231.97489738464355,1,1.8870296478271484,None,,,,,,,,,,,,,,,,,,15,4,2025-02-18_14h04.48.522,comp,2024.2.4,None,2025-02-18 14h05.02.161074 -0500,
117,117,0,critical,dhw,20.0,3.0,upper,141.0,141.0,200.0,125.0,125.0,200.0,2,1.1879429817199707,None,,,,,0,0,0,0,0,117,117,57,231.99568033218384,,,,,,,,,,,,,,,,,,,,,,,,,,,,,,,,,,,,,,,,,,,,,,,,,,,,,,,,,,,,,,,,,,,,,,,,,,,,,,,,,141.0,141.0,200.0,125.0,125.0,200.0,3.0,3.1,-229,251,0,15,258,-282,231.97648668289185,231.97664093971252,231.97994685173035,231.99568033218384,232.14368748664856,232.14368748664856,232.14368748664856,232.14368748664856,232.14368748664856,232.14368748664856,232.14368748664856,233.19705438613892,2,1.1879429817199707,None,,,,,,,,,,,,,,,,,,15,4,2025-02-18_14h04.48.522,comp,2024.2.4,None,2025-02-18 14h05.02.161074 -0500,
118,118,0,critical,dwh,35.0,1.0,upper,127.0,127.0,125.0,200.0,200.0,125.0,3,1.330458402633667,None,,,,,0,0,0,0,0,118,118,61,233.21321725845337,,,,,,,,,,,,,,,,,,,,,,,,,,,,,,,,,,,,,,,,,,,,,,,,,,,,,,,,,,,,,,,,,,,,,,,,,,,,,,,,,127.0,127.0,125.0,200.0,200.0,125.0,1.0,1.3,220,-252,480,-268,738,-285,233.19903588294983,233.19911885261536,233.20210909843445,233.21321725845337,233.35975766181946,233.35975766181946,233.35975766181946,233.35975766181946,233.35975766181946,233.35975766181946,233.35975766181946,234.55582785606384,3,1.330458402633667,None,,,,,,,,,,,,,,,,,,15,4,2025-02-18_14h04.48.522,comp,2024.2.4,None,2025-02-18 14h05.02.161074 -0500,
119,119,0,filler_square,None,None,None,None,None,None,None,None,None,None,3,1.857370376586914,None,,,,,0,0,0,0,0,119,119,198,234.57437348365784,,,,,,,,,,,,,,,,,,,,,,,,,,,,,,,,,,,,,,,,,,,,,,,,,,,,,,,,,,,,,,,,,,,,,,,,,,,,,,,,,63.67301805556797,70.57300300046425,59.67818903595344,72.34640538255127,74.58717580640528,74.58717580640528,4.0,4.1,-167,-264,0,18,169,-255,234.55790042877197,234.5579810142517,234.56120228767395,234.57437348365784,234.71103858947754,234.71103858947754,234.71103858947754,234.71103858947754,234.71103858947754,234.71103858947754,234.71103858947754,236.4419412612915,3,1.857370376586914,None,,,,,,,,,,,,,,,,,,15,4,2025-02-18_14h04.48.522,comp,2024.2.4,None,2025-02-18 14h05.02.161074 -0500,
120,120,0,filler_square,None,None,None,None,None,None,None,None,None,None,2,1.526681900024414,None,,,,,0,0,0,0,0,120,120,183,236.4598205089569,,,,,,,,,,,,,,,,,,,,,,,,,,,,,,,,,,,,,,,,,,,,,,,,,,,,,,,,,,,,,,,,,,,,,,,,,,,,,,,,,61.05376112924914,57.002001620360794,62.29537297130585,62.29537297130585,62.02077261887858,61.96255478345807,2.1,2.12,-156,-276,0,-258,158,281,236.4437870979309,236.44386315345764,236.44673919677734,236.4598205089569,236.59858584403992,236.59858584403992,236.59858584403992,236.59858584403992,236.59858584403992,236.59858584403992,236.59858584403992,237.9971764087677,2,1.526681900024414,None,,,,,,,,,,,,,,,,,,15,4,2025-02-18_14h04.48.522,comp,2024.2.4,None,2025-02-18 14h05.02.161074 -0500,
121,121,0,critical,dhw,20.0,1.0,lower,78.0,78.0,133.0,57.0,57.0,133.0,3,1.2826640605926514,None,,,,,0,0,0,0,0,121,121,54,238.0129771232605,,,,,,,,,,,,,,,,,,,,,,,,,,,,,,,,,,,,,,,,,,,,,,,,,,,,,,,,,,,,,,,,,,,,,,,,,,,,,,,,,78.0,78.0,133.0,57.0,57.0,133.0,1.0,1.2,-164,15,0,-14,191,-14,237.9987895488739,237.99887037277222,238.0021617412567,238.0129771232605,238.16064524650574,238.16064524650574,238.16064524650574,238.16064524650574,238.16064524650574,238.16064524650574,238.16064524650574,239.31551694869995,3,1.2826640605926514,None,,,,,,,,,,,,,,,,,,15,4,2025-02-18_14h04.48.522,comp,2024.2.4,None,2025-02-18 14h05.02.161074 -0500,
122,122,0,critical,dhw,20.0,2.1,lower,78.0,78.0,133.0,57.0,57.0,133.0,2,1.0236091613769531,None,,,,,0,0,0,0,0,122,122,26,239.33604788780212,,,,,,,,,,,,,,,,,,,,,,,,,,,,,,,,,,,,,,,,,,,,,,,,,,,,,,,,,,,,,,,,,,,,,,,,,,,,,,,,,78.0,78.0,133.0,57.0,57.0,133.0,2.1,2.12,-164,-254,0,-271,191,259,239.31710052490234,239.31717896461487,239.32064700126648,239.33604788780212,239.47824263572693,239.47824263572693,239.47824263572693,239.47824263572693,239.47824263572693,239.47824263572693,239.47824263572693,240.3620002269745,2,1.0236091613769531,None,,,,,,,,,,,,,,,,,,15,4,2025-02-18_14h04.48.522,comp,2024.2.4,None,2025-02-18 14h05.02.161074 -0500,
123,123,0,catch,None,None,None,None,None,None,None,None,None,None,1,1.1492819786071777,None,,,,,0,0,0,0,0,123,123,129,240.3788526058197,,,,,,,,,,,,,,,,,,,,,,,,,,,,,,,,,,,,,,,,,,,,,,,,,,,,,,,,,,,,,,,,,,,,,,,,,,,,,,,,,167,158,62,128,87,103,4.0,4.2,-239,-10,0,-252,212,-1,240.36401104927063,240.36408829689026,240.36814093589783,240.3788526058197,240.52915835380554,240.52915835380554,240.52915835380554,240.52915835380554,240.52915835380554,240.52915835380554,240.52915835380554,241.53062677383423,1,1.1492819786071777,None,,,,,,,,,,,,,,,,,,15,4,2025-02-18_14h04.48.522,comp,2024.2.4,None,2025-02-18 14h05.02.161074 -0500,
124,124,0,critical,whd,20.0,1.0,lower,57.0,133.0,133.0,57.0,78.0,78.0,1,0.9887616634368896,None,,,,,0,0,0,0,0,124,124,90,241.5479485988617,,,,,,,,,,,,,,,,,,,,,,,,,,,,,,,,,,,,,,,,,,,,,,,,,,,,,,,,,,,,,,,,,,,,,,,,,,,,,,,,,57.0,133.0,133.0,57.0,78.0,78.0,1.0,1.1,-671,261,-480,281,-316,278,241.53220009803772,241.53227710723877,241.53513598442078,241.5479485988617,241.6949062347412,241.6949062347412,241.6949062347412,241.6949062347412,241.6949062347412,241.6949062347412,241.6949062347412,242.54611349105835,1,0.9887616634368896,None,,,,,,,,,,,,,,,,,,15,4,2025-02-18_14h04.48.522,comp,2024.2.4,None,2025-02-18 14h05.02.161074 -0500,
125,125,0,filler_random,None,None,None,None,None,None,None,None,None,None,3,1.733666181564331,None,,,,,0,0,0,0,0,125,125,155,242.56205129623413,,,,,,,,,,,,,,,,,,,,,,,,,,,,,,,,,,,,,,,,,,,,,,,,,,,,,,,,,,,,,,,,,,,,,,,,,,,,,,,,,117.96416674672551,176.93559028299825,118.02592487260816,99.17485123423278,197.77669858303403,88.3350331544312,3.0,3.2,-234,-287,0,-9,190,264,242.54790568351746,242.54798293113708,242.55135321617126,242.56205129623413,242.71280574798584,242.71280574798584,242.71280574798584,242.71280574798584,242.71280574798584,242.71280574798584,242.71280574798584,244.29776048660278,3,1.733666181564331,None,,,,,,,,,,,,,,,,,,15,4,2025-02-18_14h04.48.522,comp,2024.2.4,None,2025-02-18 14h05.02.161074 -0500,
126,126,0,critical,wdh,35.0,3.0,upper,125.0,200.0,127.0,127.0,200.0,125.0,1,1.7584059238433838,None,,,,,0,0,0,0,0,126,126,75,244.31385827064514,,,,,,,,,,,,,,,,,,,,,,,,,,,,,,,,,,,,,,,,,,,,,,,,,,,,,,,,,,,,,,,,,,,,,,,,,,,,,,,,,125.0,200.0,127.0,127.0,200.0,125.0,3.0,3.2,-260,-265,0,2,222,277,244.2993597984314,244.2994508743286,244.30297350883484,244.31385827064514,244.4607388973236,244.4607388973236,244.4607388973236,244.4607388973236,244.4607388973236,244.4607388973236,244.4607388973236,246.0869426727295,1,1.7584059238433838,None,,,,,,,,,,,,,,,,,,15,4,2025-02-18_14h04.48.522,comp,2024.2.4,None,2025-02-18 14h05.02.161074 -0500,
127,127,0,filler_square,None,None,None,None,None,None,None,None,None,None,2,2.018704414367676,None,,,,,0,0,0,0,0,127,127,203,246.1021444797516,,,,,,,,,,,,,,,,,,,,,,,,,,,,,,,,,,,,,,,,,,,,,,,,,,,,,,,,,,,,,,,,,,,,,,,,,,,,,,,,,62.74933430074918,60.13288916280169,64.56628810764357,61.65595210374691,65.84321845716568,65.84321845716568,4.0,4.1,-157,-269,0,15,160,-264,246.08876824378967,246.08889865875244,246.09217143058777,246.1021444797516,246.24761295318604,246.24761295318604,246.24761295318604,246.24761295318604,246.24761295318604,246.24761295318604,246.24761295318604,248.13612365722656,2,2.018704414367676,None,,,,,,,,,,,,,,,,,,15,4,2025-02-18_14h04.48.522,comp,2024.2.4,None,2025-02-18 14h05.02.161074 -0500,
128,128,0,critical,whd,35.0,2.1,lower,57.0,133.0,133.0,57.0,70.0,70.0,1,2.1475582122802734,None,,,,,0,0,0,0,0,128,128,12,248.1481339931488,,,,,,,,,,,,,,,,,,,,,,,,,,,,,,,,,,,,,,,,,,,,,,,,,,,,,,,,,,,,,,,,,,,,,,,,,,,,,,,,,57.0,133.0,133.0,57.0,70.0,70.0,2.1,2.11,-191,278,0,281,160,-262,248.13666653633118,248.13668990135193,248.1376461982727,248.1481339931488,248.29824924468994,248.29824924468994,248.29824924468994,248.29824924468994,248.29824924468994,248.29824924468994,248.29824924468994,250.29994368553162,1,2.1475582122802734,None,,,,,,,,,,,,,,,,,,15,4,2025-02-18_14h04.48.522,comp,2024.2.4,None,2025-02-18 14h05.02.161074 -0500,
129,129,0,critical,wdh,35.0,4.0,upper,125.0,200.0,127.0,127.0,200.0,125.0,1,1.9264085292816162,None,,,,,0,0,0,0,0,129,129,77,250.31553316116333,,,,,,,,,,,,,,,,,,,,,,,,,,,,,,,,,,,,,,,,,,,,,,,,,,,,,,,,,,,,,,,,,,,,,,,,,,,,,,,,,125.0,200.0,127.0,127.0,200.0,125.0,4.0,4.2,-260,-7,0,-286,222,17,250.3014178276062,250.30156660079956,250.30472111701965,250.31553316116333,250.46446013450623,250.46446013450623,250.46446013450623,250.46446013450623,250.46446013450623,250.46446013450623,250.46446013450623,252.2483012676239,1,1.9264085292816162,None,,,,,,,,,,,,,,,,,,15,4,2025-02-18_14h04.48.522,comp,2024.2.4,None,2025-02-18 14h05.02.161074 -0500,
130,130,0,critical,dwh,20.0,4.0,lower,78.0,78.0,57.0,133.0,133.0,57.0,3,0.9019119739532471,None,,,,,0,0,0,0,0,130,130,70,252.2658658027649,,,,,,,,,,,,,,,,,,,,,,,,,,,,,,,,,,,,,,,,,,,,,,,,,,,,,,,,,,,,,,,,,,,,,,,,,,,,,,,,,78.0,78.0,57.0,133.0,133.0,57.0,4.0,4.2,-202,-7,0,-276,191,3,252.24980092048645,252.24988102912903,252.2529320716858,252.2658658027649,252.40576076507568,252.40576076507568,252.40576076507568,252.40576076507568,252.40576076507568,252.40576076507568,252.40576076507568,253.1825978755951,3,0.9019119739532471,None,,,,,,,,,,,,,,,,,,15,4,2025-02-18_14h04.48.522,comp,2024.2.4,None,2025-02-18 14h05.02.161074 -0500,
131,131,0,filler_square,None,None,None,None,None,None,None,None,None,None,2,1.372330665588379,None,,,,,0,0,0,0,0,131,131,177,253.20372462272644,,,,,,,,,,,,,,,,,,,,,,,,,,,,,,,,,,,,,,,,,,,,,,,,,,,,,,,,,,,,,,,,,,,,,,,,,,,,,,,,,103.145645637108,79.55887061655642,133.97102351233917,133.97102351233917,92.69982289157616,71.75144102014521,2.1,2.11,-203,284,0,269,199,-268,253.18434047698975,253.18441605567932,253.18744921684265,253.20372462272644,253.35029935836792,253.35029935836792,253.35029935836792,253.35029935836792,253.35029935836792,253.35029935836792,253.35029935836792,254.58482813835144,2,1.372330665588379,None,,,,,,,,,,,,,,,,,,15,4,2025-02-18_14h04.48.522,comp,2024.2.4,None,2025-02-18 14h05.02.161074 -0500,
132,132,0,critical,dwh,20.0,2.1,lower,78.0,78.0,57.0,133.0,133.0,57.0,2,1.39884352684021,None,,,,,0,0,0,0,0,132,132,30,254.60107707977295,,,,,,,,,,,,,,,,,,,,,,,,,,,,,,,,,,,,,,,,,,,,,,,,,,,,,,,,,,,,,,,,,,,,,,,,,,,,,,,,,78.0,78.0,57.0,133.0,133.0,57.0,2.1,2.12,-202,-278,0,-254,191,282,254.58641862869263,254.58652114868164,254.5894889831543,254.60107707977295,254.74960255622864,254.74960255622864,254.74960255622864,254.74960255622864,254.74960255622864,254.74960255622864,254.74960255622864,256.002347946167,2,1.39884352684021,None,,,,,,,,,,,,,,,,,,15,4,2025-02-18_14h04.48.522,comp,2024.2.4,None,2025-02-18 14h05.02.161074 -0500,
133,133,0,critical,hwd,35.0,2.1,upper,200.0,125.0,125.0,200.0,127.0,127.0,2,1.3180420398712158,None,,,,,0,0,0,0,0,133,133,17,256.0177311897278,,,,,,,,,,,,,,,,,,,,,,,,,,,,,,,,,,,,,,,,,,,,,,,,,,,,,,,,,,,,,,,,,,,,,,,,,,,,,,,,,200.0,125.0,125.0,200.0,127.0,127.0,2.1,2.11,-258,285,0,257,260,-264,256.00402069091797,256.0041048526764,256.00714564323425,256.0177311897278,256.1672146320343,256.1672146320343,256.1672146320343,256.1672146320343,256.1672146320343,256.1672146320343,256.1672146320343,257.34972620010376,2,1.3180420398712158,None,,,,,,,,,,,,,,,,,,15,4,2025-02-18_14h04.48.522,comp,2024.2.4,None,2025-02-18 14h05.02.161074 -0500,
134,134,0,critical,dhw,35.0,2.1,lower,70.0,70.0,133.0,57.0,57.0,133.0,2,2.3136672973632812,None,,,,,0,0,0,0,0,134,134,0,257.37417340278625,,,,,,,,,,,,,,,,,,,,,,,,,,,,,,,,,,,,,,,,,,,,,,,,,,,,,,,,,,,,,,,,,,,,,,,,,,,,,,,,,70.0,70.0,133.0,57.0,57.0,133.0,2.1,2.11,-160,278,0,280,191,-253,257.3512051105499,257.35127806663513,257.35441613197327,257.37417340278625,257.51719856262207,257.51719856262207,257.51719856262207,257.51719856262207,257.51719856262207,257.51719856262207,257.51719856262207,259.70235419273376,2,2.3136672973632812,None,,,,,,,,,,,,,,,,,,15,4,2025-02-18_14h04.48.522,comp,2024.2.4,None,2025-02-18 14h05.02.161074 -0500,
135,135,0,critical,hdw,35.0,3.0,upper,200.0,125.0,127.0,127.0,125.0,200.0,3,1.3460216522216797,None,,,,,0,0,0,0,0,135,135,111,259.71799659729004,,,,,,,,,,,,,,,,,,,,,,,,,,,,,,,,,,,,,,,,,,,,,,,,,,,,,,,,,,,,,,,,,,,,,,,,,,,,,,,,,200.0,125.0,127.0,127.0,125.0,200.0,3.0,3.1,-222,272,0,4,260,-274,259.70401191711426,259.70409393310547,259.70763897895813,259.71799659729004,259.8714323043823,259.8714323043823,259.8714323043823,259.8714323043823,259.8714323043823,259.8714323043823,259.8714323043823,261.06899666786194,3,1.3460216522216797,None,,,,,,,,,,,,,,,,,,15,4,2025-02-18_14h04.48.522,comp,2024.2.4,None,2025-02-18 14h05.02.161074 -0500,
136,136,0,filler_random,None,None,None,None,None,None,None,None,None,None,3,1.118262767791748,None,,,,,0,0,0,0,0,136,136,144,261.0899317264557,,,,,,,,,,,,,,,,,,,,,,,,,,,,,,,,,,,,,,,,,,,,,,,,,,,,,,,,,,,,,,,,,,,,,,,,,,,,,,,,,102.88801238896835,63.89646375122186,60.07448569284041,190.47563197477913,173.4705951189707,185.05283484804664,2.1,2.11,-223,279,0,282,284,-273,261.0709068775177,261.0710241794586,261.0745689868927,261.0899317264557,261.2389085292816,261.2389085292816,261.2389085292816,261.2389085292816,261.2389085292816,261.2389085292816,261.2389085292816,262.2187888622284,3,1.118262767791748,None,,,,,,,,,,,,,,,,,,15,4,2025-02-18_14h04.48.522,comp,2024.2.4,None,2025-02-18 14h05.02.161074 -0500,
137,137,0,critical,dwh,35.0,4.0,lower,70.0,70.0,57.0,133.0,133.0,57.0,2,1.1333978176116943,None,,,,,0,0,0,0,0,137,137,64,262.2343075275421,,,,,,,,,,,,,,,,,,,,,,,,,,,,,,,,,,,,,,,,,,,,,,,,,,,,,,,,,,,,,,,,,,,,,,,,,,,,,,,,,70.0,70.0,57.0,133.0,133.0,57.0,4.0,4.2,-198,9,0,-283,191,-5,262.2203450202942,262.22042298316956,262.22376251220703,262.2343075275421,262.38712334632874,262.38712334632874,262.38712334632874,262.38712334632874,262.38712334632874,262.38712334632874,262.38712334632874,263.36983489990234,2,1.1333978176116943,None,,,,,,,,,,,,,,,,,,15,4,2025-02-18_14h04.48.522,comp,2024.2.4,None,2025-02-18 14h05.02.161074 -0500,
138,138,0,filler_square,None,None,None,None,None,None,None,None,None,None,2,1.085453748703003,None,,,,,0,0,0,0,0,138,138,191,263.38636207580566,,,,,,,,,,,,,,,,,,,,,,,,,,,,,,,,,,,,,,,,,,,,,,,,,,,,,,,,,,,,,,,,,,,,,,,,,,,,,,,,,71.9019509183416,93.88807103398445,135.91901312780374,135.91901312780374,106.8564813126626,120.13998153714385,1.0,1.3,269,-266,480,-262,704,-252,263.37175154685974,263.37183141708374,263.375367641449,263.38636207580566,263.53558325767517,263.53558325767517,263.53558325767517,263.53558325767517,263.53558325767517,263.53558325767517,263.53558325767517,264.4864459037781,2,1.085453748703003,None,,,,,,,,,,,,,,,,,,15,4,2025-02-18_14h04.48.522,comp,2024.2.4,None,2025-02-18 14h05.02.161074 -0500,
139,139,0,critical,hdw,20.0,2.1,upper,200.0,125.0,141.0,141.0,125.0,200.0,3,0.9374806880950928,None,,,,,0,0,0,0,0,139,139,23,264.5023956298828,,,,,,,,,,,,,,,,,,,,,,,,,,,,,,,,,,,,,,,,,,,,,,,,,,,,,,,,,,,,,,,,,,,,,,,,,,,,,,,,,200.0,125.0,141.0,141.0,125.0,200.0,2.1,2.12,-229,-269,0,-289,266,278,264.4879469871521,264.4880213737488,264.49216079711914,264.5023956298828,264.65238785743713,264.65238785743713,264.65238785743713,264.65238785743713,264.65238785743713,264.65238785743713,264.65238785743713,265.4534091949463,3,0.9374806880950928,None,,,,,,,,,,,,,,,,,,15,4,2025-02-18_14h04.48.522,comp,2024.2.4,None,2025-02-18 14h05.02.161074 -0500,
140,140,0,filler_random,None,None,None,None,None,None,None,None,None,None,2,1.0991923809051514,None,,,,,0,0,0,0,0,140,140,164,265.46921730041504,,,,,,,,,,,,,,,,,,,,,,,,,,,,,,,,,,,,,,,,,,,,,,,,,,,,,,,,,,,,,,,,,,,,,,,,,,,,,,,,,129.871610130632,60.18960673464141,69.16774547248454,183.46976662894573,90.70528029953937,118.42912976598141,1.0,1.1,-698,258,-480,285,-233,253,265.4552974700928,265.45542788505554,265.45886421203613,265.46921730041504,265.6235704421997,265.6235704421997,265.6235704421997,265.6235704421997,265.6235704421997,265.6235704421997,265.6235704421997,266.57176327705383,2,1.0991923809051514,None,,,,,,,,,,,,,,,,,,15,4,2025-02-18_14h04.48.522,comp,2024.2.4,None,2025-02-18 14h05.02.161074 -0500,
141,141,0,critical,hwd,20.0,3.0,upper,200.0,125.0,125.0,200.0,141.0,141.0,2,0.7401328086853027,None,,,,,0,0,0,0,0,141,141,105,266.58775758743286,,,,,,,,,,,,,,,,,,,,,,,,,,,,,,,,,,,,,,,,,,,,,,,,,,,,,,,,,,,,,,,,,,,,,,,,,,,,,,,,,200.0,125.0,125.0,200.0,141.0,141.0,3.0,3.1,-258,284,0,17,266,-265,266.57355999946594,266.5736927986145,266.57719254493713,266.58775758743286,266.73654079437256,266.73654079437256,266.73654079437256,266.73654079437256,266.73654079437256,266.73654079437256,266.73654079437256,267.3405718803406,2,0.7401328086853027,None,,,,,,,,,,,,,,,,,,15,4,2025-02-18_14h04.48.522,comp,2024.2.4,None,2025-02-18 14h05.02.161074 -0500,
142,142,0,critical,dhw,35.0,4.0,upper,127.0,127.0,200.0,125.0,125.0,200.0,2,1.4121837615966797,None,,,,,0,0,0,0,0,142,142,53,267.3555655479431,,,,,,,,,,,,,,,,,,,,,,,,,,,,,,,,,,,,,,,,,,,,,,,,,,,,,,,,,,,,,,,,,,,,,,,,,,,,,,,,,127.0,127.0,200.0,125.0,125.0,200.0,4.0,4.2,-222,-20,0,-274,258,8,267.3421664237976,267.3422431945801,267.34533071517944,267.3555655479431,267.50891304016113,267.50891304016113,267.50891304016113,267.50891304016113,267.50891304016113,267.50891304016113,267.50891304016113,268.770632982254,2,1.4121837615966797,None,,,,,,,,,,,,,,,,,,15,4,2025-02-18_14h04.48.522,comp,2024.2.4,None,2025-02-18 14h05.02.161074 -0500,
