thisN,thisTrialN,thisRepN,effect,order,distance,config,diag,h_1,w_1,h_2,w_2,h_3,w_3,rect_choice.keys,rect_choice.rt,rect_choice.duration,instructions_loop.thisRepN,instructions_loop.thisTrialN,instructions_loop.thisN,instructions_loop.thisIndex,blocks.thisRepN,blocks.thisTrialN,blocks.thisN,blocks.thisIndex,trials.thisRepN,trials.thisTrialN,trials.thisN,trials.thisIndex,thisRow.t,notes,consent.started,agree_button.started,decline_button.started,consent_img.started,mouse.started,consent.stopped,agree_button.numClicks,agree_button.timesOn,agree_button.timesOff,decline_button.numClicks,decline_button.timesOn,decline_button.timesOff,mouse.x,mouse.y,mouse.leftButton,mouse.midButton,mouse.rightButton,mouse.time,mouse.clicked_name,exp_params.started,exp_params.stopped,welcome.started,welcome_text.started,welcome.stopped,instructions_1.started,instructions_1_text_1.started,instructions_1_text_2.started,key_resp.started,instructions_1.stopped,instructions_loop.key_resp.keys,instructions_loop.key_resp.rt,instructions_loop.key_resp.duration,instructions_2.started,instructions_2_text_1.started,instructions_2_text_2.started,key_resp_2.started,instructions_2.stopped,instructions_loop.key_resp_2.keys,instructions_loop.key_resp_2.rt,instructions_loop.key_resp_2.duration,instructions_3.started,instructions_3_text_1.started,r1_instr3.started,r2_instr3.started,r3_instr3.started,r1_instr3_label.started,r2_instr3_label.started,r3_instr3_label.started,instructions_3_text_3.started,instructions_3_text_4.started,key_resp_3.started,instructions_3.stopped,instructions_loop.key_resp_3.keys,instructions_loop.key_resp_3.rt,instructions_loop.key_resp_3.duration,instructions_4.started,instructions_4_text_1.started,instructions_4_text_3.started,instructions_4_text_2.started,key_resp_4.started,instructions_4.stopped,instructions_loop.key_resp_4.keys,instructions_loop.key_resp_4.rt,instructions_loop.key_resp_4.duration,instructions_5.started,instructions_5_text_1.started,instructions_5_text_2.started,key_resp_5.started,instructions_5.stopped,instructions_loop.key_resp_5.keys,instructions_loop.key_resp_5.rt,instructions_loop.key_resp_5.duration,start_exp.started,start_exp_text.started,key_resp_6.started,start_exp.stopped,key_resp_6.keys,key_resp_6.rt,key_resp_6.duration,h_1_tmp,w_1_tmp,h_2_tmp,w_2_tmp,h_3_tmp,w_3_tmp,config_tmp,config_tmp_1,r_1_x,r_1_y,r_2_x,r_2_y,r_3_x,r_3_y,pre_trial.started,pre_trial.stopped,choice_trial.started,rect_choice.started,r_1.started,r_2.started,r_3.started,r_1_label.started,r_2_label.started,r_3_label.started,prompt.started,choice_trial.stopped,trials.rect_choice.keys,trials.rect_choice.rt,trials.rect_choice.duration,end_block.started,end_block_text.started,end_block.stopped,end.started,end_text.started,key_resp_7.started,end.stopped,key_resp_7.keys,key_resp_7.rt,key_resp_7.duration,debriefing.started,debrief_form.started,end_debrief.started,debriefing.stopped,end_debrief.keys,end_debrief.rt,end_debrief.duration,participant,computer,date,expName,psychopyVersion,frameRate,expStart,
,,,,,,,,,,,,,,,,,,,,,,,,,,,,,,,0.01502084732055664,0.03513145446777344,0.03513145446777344,0.03513145446777344,0.014789581298828125,81.17499876022339,1,[81.13677048683167],[81.136794090271],0,,,[-61.0],[-510.0],[1],[0],[0],[81.15954446792603],['agree_button'],,,,,,,,,,,,,,,,,,,,,,,,,,,,,,,,,,,,,,,,,,,,,,,,,,,,,,,,,,,,,,,,,,,,,,,,,,,,,,,,,,,,,,,,,,,,,,,,,,,,,,,,,,,160,1,2025-02-28_13h16.37.866,comp,2024.2.4,53.75162755410656,2025-02-28 13h16.48.891229 -0500,
,,,,,,,,,,,,,,,,,,,,,,,,,,,,,,,,,,,,,,,,,,,,,,,,,,81.17551755905151,81.1755850315094,,,,,,,,,,,,,,,,,,,,,,,,,,,,,,,,,,,,,,,,,,,,,,,,,,,,,,,,,,,,,,,,,,,,,,,,,,,,,,,,,,,,,,,,,,,,,,,,,,,,,,,,,160,1,2025-02-28_13h16.37.866,comp,2024.2.4,53.75162755410656,2025-02-28 13h16.48.891229 -0500,
,,,,,,,,,,,,,,,,,,,,,,,,,,,,,,,,,,,,,,,,,,,,,,,,,,,,81.1756284236908,81.19364786148071,83.17816209793091,,,,,,,,,,,,,,,,,,,,,,,,,,,,,,,,,,,,,,,,,,,,,,,,,,,,,,,,,,,,,,,,,,,,,,,,,,,,,,,,,,,,,,,,,,,,,,,,,,,,,,160,1,2025-02-28_13h16.37.866,comp,2024.2.4,53.75162755410656,2025-02-28 13h16.48.891229 -0500,
0,0,0,,,,,,,,,,,,,,,0,0,0,0,,,,,,,,,83.19526410102844,,,,,,,,,,,,,,,,,,,,,,,,,,83.1791090965271,83.19526410102844,83.19526410102844,84.67635321617126,88.74798917770386,space,4.066179037094116,None,88.74813532829285,88.7641429901123,88.7641429901123,90.26214647293091,95.20848035812378,space,4.9439778327941895,None,95.2086386680603,95.23776149749756,95.23776149749756,95.23776149749756,95.23776149749756,95.23776149749756,95.23776149749756,95.23776149749756,95.23776149749756,95.23776149749756,96.71607899665833,101.5022702217102,space,4.778706789016724,None,101.50244212150574,101.51998257637024,101.51998257637024,101.51998257637024,103.02019739151001,107.07014918327332,space,4.042309284210205,None,107.07032370567322,107.08544039726257,107.08544039726257,108.58596634864807,109.58448362350464,space,0.9964034557342529,None,109.58468055725098,109.60226225852966,109.60226225852966,110.6547040939331,space,1.0355854034423828,None,,,,,,,,,,,,,,,,,,,,,,,,,,,,,,,,,,,,,,,,,,,,,,,160,1,2025-02-28_13h16.37.866,comp,2024.2.4,53.75162755410656,2025-02-28 13h16.48.891229 -0500,
0,0,0,critical,whd,35.0,3.0,lower,57.0,133.0,133.0,57.0,70.0,70.0,1,3.708411455154419,None,,,,,0,0,0,0,0,0,0,86,110.7295150756836,,,,,,,,,,,,,,,,,,,,,,,,,,,,,,,,,,,,,,,,,,,,,,,,,,,,,,,,,,,,,,,,,,,,,,,,,,,,,,,,,57.0,133.0,133.0,57.0,70.0,70.0,3.0,3.2,-191,-261,0,-1,160,279,110.71386933326721,110.71390390396118,110.71508932113647,110.7295150756836,110.8794469833374,110.8794469833374,110.8794469833374,110.8794469833374,110.8794469833374,110.8794469833374,110.8794469833374,114.45541453361511,1,3.708411455154419,None,,,,,,,,,,,,,,,,,,160,1,2025-02-28_13h16.37.866,comp,2024.2.4,53.75162755410656,2025-02-28 13h16.48.891229 -0500,
1,1,0,filler_square,None,None,None,None,None,None,None,None,None,None,1,2.3028066158294678,None,,,,,0,0,0,0,0,1,1,180,114.47167611122131,,,,,,,,,,,,,,,,,,,,,,,,,,,,,,,,,,,,,,,,,,,,,,,,,,,,,,,,,,,,,,,,,,,,,,,,,,,,,,,,,138.89847604969418,138.89847604969418,62.912040733382796,88.33276682508847,122.76308856375641,119.13609891313334,2.2,2.22,-210,280,0,-253,200,-272,114.45725178718567,114.45732879638672,114.46051692962646,114.47167611122131,114.62286615371704,114.62286615371704,114.62286615371704,114.62286615371704,114.62286615371704,114.62286615371704,114.62286615371704,116.7790060043335,1,2.3028066158294678,None,,,,,,,,,,,,,,,,,,160,1,2025-02-28_13h16.37.866,comp,2024.2.4,53.75162755410656,2025-02-28 13h16.48.891229 -0500,
2,2,0,critical,dwh,35.0,2.1,lower,70.0,70.0,57.0,133.0,133.0,57.0,2,4.526522874832153,None,,,,,0,0,0,0,0,2,2,28,116.79963517189026,,,,,,,,,,,,,,,,,,,,,,,,,,,,,,,,,,,,,,,,,,,,,,,,,,,,,,,,,,,,,,,,,,,,,,,,,,,,,,,,,70.0,70.0,57.0,133.0,133.0,57.0,2.1,2.11,-198,276,0,283,191,-257,116.78092527389526,116.78106045722961,116.78445291519165,116.79963517189026,116.94532203674316,116.94532203674316,116.94532203674316,116.94532203674316,116.94532203674316,116.94532203674316,116.94532203674316,121.33240079879761,2,4.526522874832153,None,,,,,,,,,,,,,,,,,,160,1,2025-02-28_13h16.37.866,comp,2024.2.4,53.75162755410656,2025-02-28 13h16.48.891229 -0500,
3,3,0,critical,hwd,20.0,2.1,upper,200.0,125.0,125.0,200.0,141.0,141.0,2,2.7885661125183105,None,,,,,0,0,0,0,0,3,3,19,121.35333108901978,,,,,,,,,,,,,,,,,,,,,,,,,,,,,,,,,,,,,,,,,,,,,,,,,,,,,,,,,,,,,,,,,,,,,,,,,,,,,,,,,200.0,125.0,125.0,200.0,141.0,141.0,2.1,2.12,-258,-255,0,-289,266,274,121.33406233787537,121.33422231674194,121.33750033378601,121.35333108901978,121.49225091934204,121.49225091934204,121.49225091934204,121.49225091934204,121.49225091934204,121.49225091934204,121.49225091934204,124.15884351730347,2,2.7885661125183105,None,,,,,,,,,,,,,,,,,,160,1,2025-02-28_13h16.37.866,comp,2024.2.4,53.75162755410656,2025-02-28 13h16.48.891229 -0500,
4,4,0,filler_square,None,None,None,None,None,None,None,None,None,None,1,1.1599395275115967,None,,,,,0,0,0,0,0,4,4,206,124.17477464675903,,,,,,,,,,,,,,,,,,,,,,,,,,,,,,,,,,,,,,,,,,,,,,,,,,,,,,,,,,,,,,,,,,,,,,,,,,,,,,,,,158.81320737842634,158.81320737842634,87.78980213790528,103.1822247007253,139.29143536404243,104.76767330706704,3.0,3.1,-227,259,0,2,200,-286,124.16074466705322,124.16082501411438,124.16424012184143,124.17477464675903,124.32457399368286,124.32457399368286,124.32457399368286,124.32457399368286,124.32457399368286,124.32457399368286,124.32457399368286,125.34302353858948,1,1.1599395275115967,None,,,,,,,,,,,,,,,,,,160,1,2025-02-28_13h16.37.866,comp,2024.2.4,53.75162755410656,2025-02-28 13h16.48.891229 -0500,
5,5,0,critical,dwh,35.0,1.0,upper,127.0,127.0,125.0,200.0,200.0,125.0,2,2.295299768447876,None,,,,,0,0,0,0,0,5,5,61,125.35958790779114,,,,,,,,,,,,,,,,,,,,,,,,,,,,,,,,,,,,,,,,,,,,,,,,,,,,,,,,,,,,,,,,,,,,,,,,,,,,,,,,,127.0,127.0,125.0,200.0,200.0,125.0,1.0,1.2,-260,-10,0,-20,258,8,125.34460520744324,125.34468841552734,125.3487560749054,125.35958790779114,125.51061034202576,125.51061034202576,125.51061034202576,125.51061034202576,125.51061034202576,125.51061034202576,125.51061034202576,127.66169738769531,2,2.295299768447876,None,,,,,,,,,,,,,,,,,,160,1,2025-02-28_13h16.37.866,comp,2024.2.4,53.75162755410656,2025-02-28 13h16.48.891229 -0500,
6,6,0,critical,hdw,35.0,1.0,upper,200.0,125.0,127.0,127.0,125.0,200.0,3,2.3354341983795166,None,,,,,0,0,0,0,0,6,6,109,127.67853093147278,,,,,,,,,,,,,,,,,,,,,,,,,,,,,,,,,,,,,,,,,,,,,,,,,,,,,,,,,,,,,,,,,,,,,,,,,,,,,,,,,200.0,125.0,127.0,127.0,125.0,200.0,1.0,1.2,-222,18,0,-6,260,-19,127.66338658332825,127.66347146034241,127.6673583984375,127.67853093147278,127.83004522323608,127.83004522323608,127.83004522323608,127.83004522323608,127.83004522323608,127.83004522323608,127.83004522323608,130.02677702903748,3,2.3354341983795166,None,,,,,,,,,,,,,,,,,,160,1,2025-02-28_13h16.37.866,comp,2024.2.4,53.75162755410656,2025-02-28 13h16.48.891229 -0500,
7,7,0,critical,dhw,35.0,2.1,lower,70.0,70.0,133.0,57.0,57.0,133.0,3,2.0752220153808594,None,,,,,0,0,0,0,0,7,7,0,130.04350519180298,,,,,,,,,,,,,,,,,,,,,,,,,,,,,,,,,,,,,,,,,,,,,,,,,,,,,,,,,,,,,,,,,,,,,,,,,,,,,,,,,70.0,70.0,133.0,57.0,57.0,133.0,2.1,2.11,-160,285,0,264,191,-272,130.02851247787476,130.02859020233154,130.03203058242798,130.04350519180298,130.1983678340912,130.1983678340912,130.1983678340912,130.1983678340912,130.1983678340912,130.1983678340912,130.1983678340912,132.12749552726746,3,2.0752220153808594,None,,,,,,,,,,,,,,,,,,160,1,2025-02-28_13h16.37.866,comp,2024.2.4,53.75162755410656,2025-02-28 13h16.48.891229 -0500,
8,8,0,critical,whd,20.0,2.1,lower,57.0,133.0,133.0,57.0,78.0,78.0,1,5.298888444900513,None,,,,,0,0,0,0,0,8,8,38,132.14728593826294,,,,,,,,,,,,,,,,,,,,,,,,,,,,,,,,,,,,,,,,,,,,,,,,,,,,,,,,,,,,,,,,,,,,,,,,,,,,,,,,,57.0,133.0,133.0,57.0,78.0,78.0,2.1,2.12,-191,-279,0,-284,164,264,132.12912917137146,132.12928986549377,132.13259434700012,132.14728593826294,132.28338193893433,132.28338193893433,132.28338193893433,132.28338193893433,132.28338193893433,132.28338193893433,132.28338193893433,137.46368646621704,1,5.298888444900513,None,,,,,,,,,,,,,,,,,,160,1,2025-02-28_13h16.37.866,comp,2024.2.4,53.75162755410656,2025-02-28 13h16.48.891229 -0500,
9,9,0,critical,dhw,35.0,2.1,upper,127.0,127.0,200.0,125.0,125.0,200.0,3,3.0781617164611816,None,,,,,0,0,0,0,0,9,9,1,137.48064160346985,,,,,,,,,,,,,,,,,,,,,,,,,,,,,,,,,,,,,,,,,,,,,,,,,,,,,,,,,,,,,,,,,,,,,,,,,,,,,,,,,127.0,127.0,200.0,125.0,125.0,200.0,2.1,2.12,-222,-278,0,-260,258,285,137.46527671813965,137.4653720855713,137.46941900253296,137.48064160346985,137.63226008415222,137.63226008415222,137.63226008415222,137.63226008415222,137.63226008415222,137.63226008415222,137.63226008415222,140.5652632713318,3,3.0781617164611816,None,,,,,,,,,,,,,,,,,,160,1,2025-02-28_13h16.37.866,comp,2024.2.4,53.75162755410656,2025-02-28 13h16.48.891229 -0500,
10,10,0,critical,hwd,20.0,1.0,upper,200.0,125.0,125.0,200.0,141.0,141.0,2,3.177067279815674,None,,,,,0,0,0,0,0,10,10,103,140.5816798210144,,,,,,,,,,,,,,,,,,,,,,,,,,,,,,,,,,,,,,,,,,,,,,,,,,,,,,,,,,,,,,,,,,,,,,,,,,,,,,,,,200.0,125.0,125.0,200.0,141.0,141.0,1.0,1.1,-738,277,-480,287,-214,280,140.56699061393738,140.56712532043457,140.5707004070282,140.5816798210144,140.7393093109131,140.7393093109131,140.7393093109131,140.7393093109131,140.7393093109131,140.7393093109131,140.7393093109131,143.7653992176056,2,3.177067279815674,None,,,,,,,,,,,,,,,,,,160,1,2025-02-28_13h16.37.866,comp,2024.2.4,53.75162755410656,2025-02-28 13h16.48.891229 -0500,
11,11,0,critical,whd,35.0,2.1,lower,57.0,133.0,133.0,57.0,70.0,70.0,2,2.752619981765747,None,,,,,0,0,0,0,0,11,11,12,143.78135204315186,,,,,,,,,,,,,,,,,,,,,,,,,,,,,,,,,,,,,,,,,,,,,,,,,,,,,,,,,,,,,,,,,,,,,,,,,,,,,,,,,57.0,133.0,133.0,57.0,70.0,70.0,2.1,2.12,-191,-260,0,-277,160,289,143.7669539451599,143.7670338153839,143.77060079574585,143.78135204315186,143.93726706504822,143.93726706504822,143.93726706504822,143.93726706504822,143.93726706504822,143.93726706504822,143.93726706504822,146.5479326248169,2,2.752619981765747,None,,,,,,,,,,,,,,,,,,160,1,2025-02-28_13h16.37.866,comp,2024.2.4,53.75162755410656,2025-02-28 13h16.48.891229 -0500,
12,12,0,filler_square,None,None,None,None,None,None,None,None,None,None,3,1.8745007514953613,None,,,,,0,0,0,0,0,12,12,179,146.56379675865173,,,,,,,,,,,,,,,,,,,,,,,,,,,,,,,,,,,,,,,,,,,,,,,,,,,,,,,,,,,,,,,,,,,,,,,,,,,,,,,,,64.8703215438147,91.41965174561967,93.80711938543408,119.44745123017105,181.30375507306502,181.30375507306502,1.0,1.2,-201,-8,0,-6,246,-19,146.549663066864,146.5497386455536,146.5528929233551,146.56379675865173,146.7207314968109,146.7207314968109,146.7207314968109,146.7207314968109,146.7207314968109,146.7207314968109,146.7207314968109,148.45489883422852,3,1.8745007514953613,None,,,,,,,,,,,,,,,,,,160,1,2025-02-28_13h16.37.866,comp,2024.2.4,53.75162755410656,2025-02-28 13h16.48.891229 -0500,
13,13,0,critical,dhw,35.0,1.0,upper,127.0,127.0,200.0,125.0,125.0,200.0,3,2.165578842163086,None,,,,,0,0,0,0,0,13,13,49,148.47248125076294,,,,,,,,,,,,,,,,,,,,,,,,,,,,,,,,,,,,,,,,,,,,,,,,,,,,,,,,,,,,,,,,,,,,,,,,,,,,,,,,,127.0,127.0,200.0,125.0,125.0,200.0,1.0,1.1,-702,265,-480,269,-222,282,148.45680975914001,148.45688915252686,148.45981431007385,148.47248125076294,148.61969876289368,148.61969876289368,148.61969876289368,148.61969876289368,148.61969876289368,148.61969876289368,148.61969876289368,150.64753699302673,3,2.165578842163086,None,,,,,,,,,,,,,,,,,,160,1,2025-02-28_13h16.37.866,comp,2024.2.4,53.75162755410656,2025-02-28 13h16.48.891229 -0500,
14,14,0,critical,dwh,35.0,4.0,upper,127.0,127.0,125.0,200.0,200.0,125.0,2,1.2937066555023193,None,,,,,0,0,0,0,0,14,14,65,150.66425561904907,,,,,,,,,,,,,,,,,,,,,,,,,,,,,,,,,,,,,,,,,,,,,,,,,,,,,,,,,,,,,,,,,,,,,,,,,,,,,,,,,127.0,127.0,125.0,200.0,200.0,125.0,4.0,4.1,-260,-270,0,8,258,-281,150.6492247581482,150.64936542510986,150.65273904800415,150.66425561904907,150.80469942092896,150.80469942092896,150.80469942092896,150.80469942092896,150.80469942092896,150.80469942092896,150.80469942092896,151.97331023216248,2,1.2937066555023193,None,,,,,,,,,,,,,,,,,,160,1,2025-02-28_13h16.37.866,comp,2024.2.4,53.75162755410656,2025-02-28 13h16.48.891229 -0500,
15,15,0,filler_random,None,None,None,None,None,None,None,None,None,None,2,1.1031737327575684,None,,,,,0,0,0,0,0,15,15,152,151.99264335632324,,,,,,,,,,,,,,,,,,,,,,,,,,,,,,,,,,,,,,,,,,,,,,,,,,,,,,,,,,,,,,,,,,,,,,,,,,,,,,,,,140.90140070705132,69.2421001399688,143.05289998640274,184.9708208197416,94.91575911514369,178.4739276038491,1.0,1.3,257,-290,480,-257,758,-280,151.97509050369263,151.97519659996033,151.97858810424805,151.99264335632324,152.13466715812683,152.13466715812683,152.13466715812683,152.13466715812683,152.13466715812683,152.13466715812683,152.13466715812683,153.10059642791748,2,1.1031737327575684,None,,,,,,,,,,,,,,,,,,160,1,2025-02-28_13h16.37.866,comp,2024.2.4,53.75162755410656,2025-02-28 13h16.48.891229 -0500,
16,16,0,filler_square,None,None,None,None,None,None,None,None,None,None,2,1.7954423427581787,None,,,,,0,0,0,0,0,16,16,178,153.1169753074646,,,,,,,,,,,,,,,,,,,,,,,,,,,,,,,,,,,,,,,,,,,,,,,,,,,,,,,,,,,,,,,,,,,,,,,,,,,,,,,,,85.05637759486221,85.6781067356522,155.27114319193146,155.27114319193146,84.83624114636478,97.96996526997683,2.2,2.21,-216,-277,0,265,223,279,153.10245633125305,153.10253643989563,153.1056227684021,153.1169753074646,153.2731432914734,153.2731432914734,153.2731432914734,153.2731432914734,153.2731432914734,153.2731432914734,153.2731432914734,154.91743230819702,2,1.7954423427581787,None,,,,,,,,,,,,,,,,,,160,1,2025-02-28_13h16.37.866,comp,2024.2.4,53.75162755410656,2025-02-28 13h16.48.891229 -0500,
17,17,0,critical,hdw,20.0,2.1,lower,133.0,57.0,78.0,78.0,57.0,133.0,3,1.832831859588623,None,,,,,0,0,0,0,0,17,17,46,154.93393659591675,,,,,,,,,,,,,,,,,,,,,,,,,,,,,,,,,,,,,,,,,,,,,,,,,,,,,,,,,,,,,,,,,,,,,,,,,,,,,,,,,133.0,57.0,78.0,78.0,57.0,133.0,2.1,2.11,-164,263,0,257,202,-274,154.91897678375244,154.91905689239502,154.92216277122498,154.93393659591675,155.08510828018188,155.08510828018188,155.08510828018188,155.08510828018188,155.08510828018188,155.08510828018188,155.08510828018188,156.77320075035095,3,1.832831859588623,None,,,,,,,,,,,,,,,,,,160,1,2025-02-28_13h16.37.866,comp,2024.2.4,53.75162755410656,2025-02-28 13h16.48.891229 -0500,
18,18,0,catch,None,None,None,None,None,None,None,None,None,None,2,1.1186563968658447,None,,,,,0,0,0,0,0,18,18,129,156.79130125045776,,,,,,,,,,,,,,,,,,,,,,,,,,,,,,,,,,,,,,,,,,,,,,,,,,,,,,,,,,,,,,,,,,,,,,,,,,,,,,,,,104,86,195,130,80,110,2.1,2.12,-204,-264,0,-261,216,258,156.77521538734436,156.77529573440552,156.77816438674927,156.79130125045776,156.93559336662292,156.93559336662292,156.93559336662292,156.93559336662292,156.93559336662292,156.93559336662292,156.93559336662292,157.92602157592773,2,1.1186563968658447,None,,,,,,,,,,,,,,,,,,160,1,2025-02-28_13h16.37.866,comp,2024.2.4,53.75162755410656,2025-02-28 13h16.48.891229 -0500,
19,19,0,filler_random,None,None,None,None,None,None,None,None,None,None,2,1.0839965343475342,None,,,,,0,0,0,0,0,19,19,156,157.94680666923523,,,,,,,,,,,,,,,,,,,,,,,,,,,,,,,,,,,,,,,,,,,,,,,,,,,,,,,,,,,,,,,,,,,,,,,,,,,,,,,,,129.10352203188063,90.98141448417127,173.84795445553974,168.15795275723173,69.75568249855218,113.23492248459358,4.0,4.1,-226,-287,0,5,237,-282,157.92801523208618,157.9280924797058,157.93132758140564,157.94680666923523,158.08531594276428,158.08531594276428,158.08531594276428,158.08531594276428,158.08531594276428,158.08531594276428,158.08531594276428,159.036602973938,2,1.0839965343475342,None,,,,,,,,,,,,,,,,,,160,1,2025-02-28_13h16.37.866,comp,2024.2.4,53.75162755410656,2025-02-28 13h16.48.891229 -0500,
20,20,0,critical,wdh,35.0,3.0,lower,57.0,133.0,70.0,70.0,133.0,57.0,3,2.2981209754943848,None,,,,,0,0,0,0,0,20,20,74,159.0526602268219,,,,,,,,,,,,,,,,,,,,,,,,,,,,,,,,,,,,,,,,,,,,,,,,,,,,,,,,,,,,,,,,,,,,,,,,,,,,,,,,,57.0,133.0,70.0,70.0,133.0,57.0,3.0,3.1,-198,273,0,-12,160,-263,159.03822231292725,159.03836178779602,159.04179620742798,159.0526602268219,159.20339512825012,159.20339512825012,159.20339512825012,159.20339512825012,159.20339512825012,159.20339512825012,159.20339512825012,161.3539915084839,3,2.2981209754943848,None,,,,,,,,,,,,,,,,,,160,1,2025-02-28_13h16.37.866,comp,2024.2.4,53.75162755410656,2025-02-28 13h16.48.891229 -0500,
21,21,0,critical,hwd,35.0,3.0,upper,200.0,125.0,125.0,200.0,127.0,127.0,2,1.5638601779937744,None,,,,,0,0,0,0,0,21,21,99,161.37067580223083,,,,,,,,,,,,,,,,,,,,,,,,,,,,,,,,,,,,,,,,,,,,,,,,,,,,,,,,,,,,,,,,,,,,,,,,,,,,,,,,,200.0,125.0,125.0,200.0,127.0,127.0,3.0,3.1,-258,271,0,12,260,-278,161.3556990623474,161.3558373451233,161.3593406677246,161.37067580223083,161.52529191970825,161.52529191970825,161.52529191970825,161.52529191970825,161.52529191970825,161.52529191970825,161.52529191970825,162.93708324432373,2,1.5638601779937744,None,,,,,,,,,,,,,,,,,,160,1,2025-02-28_13h16.37.866,comp,2024.2.4,53.75162755410656,2025-02-28 13h16.48.891229 -0500,
22,22,0,filler_random,None,None,None,None,None,None,None,None,None,None,1,1.6766688823699951,None,,,,,0,0,0,0,0,22,22,161,162.9542818069458,,,,,,,,,,,,,,,,,,,,,,,,,,,,,,,,,,,,,,,,,,,,,,,,,,,,,,,,,,,,,,,,,,,,,,,,,,,,,,,,,89.91323003153292,199.05693232601823,151.24320745721764,99.59324163468685,113.33980522228808,71.4882344172108,1.0,1.1,-725,267,-480,251,-298,262,162.93904328346252,162.93912887573242,162.94250750541687,162.9542818069458,163.10691666603088,163.10691666603088,163.10691666603088,163.10691666603088,163.10691666603088,163.10691666603088,163.10691666603088,164.6385817527771,1,1.6766688823699951,None,,,,,,,,,,,,,,,,,,160,1,2025-02-28_13h16.37.866,comp,2024.2.4,53.75162755410656,2025-02-28 13h16.48.891229 -0500,
23,23,0,critical,dhw,35.0,3.0,lower,70.0,70.0,133.0,57.0,57.0,133.0,2,1.8555736541748047,None,,,,,0,0,0,0,0,23,23,50,164.654447555542,,,,,,,,,,,,,,,,,,,,,,,,,,,,,,,,,,,,,,,,,,,,,,,,,,,,,,,,,,,,,,,,,,,,,,,,,,,,,,,,,70.0,70.0,133.0,57.0,57.0,133.0,3.0,3.2,-160,-253,0,-14,191,289,164.6401994228363,164.64028549194336,164.64368724822998,164.654447555542,164.80331158638,164.80331158638,164.80331158638,164.80331158638,164.80331158638,164.80331158638,164.80331158638,166.52051973342896,2,1.8555736541748047,None,,,,,,,,,,,,,,,,,,160,1,2025-02-28_13h16.37.866,comp,2024.2.4,53.75162755410656,2025-02-28 13h16.48.891229 -0500,
24,24,0,filler_random,None,None,None,None,None,None,None,None,None,None,3,1.2215368747711182,None,,,,,0,0,0,0,0,24,24,162,166.53645658493042,,,,,,,,,,,,,,,,,,,,,,,,,,,,,,,,,,,,,,,,,,,,,,,,,,,,,,,,,,,,,,,,,,,,,,,,,,,,,,,,,109.32296298105429,87.58898029281292,60.23836038887823,131.07573208180224,166.84168203634292,121.14623048716484,3.0,3.1,-205,257,0,12,222,-264,166.5222189426422,166.52230048179626,166.5252287387848,166.53645658493042,166.68876791000366,166.68876791000366,166.68876791000366,166.68876791000366,166.68876791000366,166.68876791000366,166.68876791000366,167.7712962627411,3,1.2215368747711182,None,,,,,,,,,,,,,,,,,,160,1,2025-02-28_13h16.37.866,comp,2024.2.4,53.75162755410656,2025-02-28 13h16.48.891229 -0500,
25,25,0,critical,dhw,35.0,1.0,lower,70.0,70.0,133.0,57.0,57.0,133.0,3,1.5962841510772705,None,,,,,0,0,0,0,0,25,25,48,167.78653478622437,,,,,,,,,,,,,,,,,,,,,,,,,,,,,,,,,,,,,,,,,,,,,,,,,,,,,,,,,,,,,,,,,,,,,,,,,,,,,,,,,70.0,70.0,133.0,57.0,57.0,133.0,1.0,1.3,320,-271,480,-253,671,-286,167.77289390563965,167.77297139167786,167.77587175369263,167.78653478622437,167.93794584274292,167.93794584274292,167.93794584274292,167.93794584274292,167.93794584274292,167.93794584274292,167.93794584274292,169.38982152938843,3,1.5962841510772705,None,,,,,,,,,,,,,,,,,,160,1,2025-02-28_13h16.37.866,comp,2024.2.4,53.75162755410656,2025-02-28 13h16.48.891229 -0500,
26,26,0,filler_square,None,None,None,None,None,None,None,None,None,None,2,0.8328969478607178,None,,,,,0,0,0,0,0,26,26,171,169.40575551986694,,,,,,,,,,,,,,,,,,,,,,,,,,,,,,,,,,,,,,,,,,,,,,,,,,,,,,,,,,,,,,,,,,,,,,,,,,,,,,,,,134.07928683932533,149.09048002052972,195.3984558383877,195.3984558383877,70.04344659814127,113.89455182479156,2.2,2.21,-268,-269,0,257,251,285,169.391610622406,169.39168906211853,169.3949840068817,169.40575551986694,169.55633664131165,169.55633664131165,169.55633664131165,169.55633664131165,169.55633664131165,169.55633664131165,169.55633664131165,170.25515127182007,2,0.8328969478607178,None,,,,,,,,,,,,,,,,,,160,1,2025-02-28_13h16.37.866,comp,2024.2.4,53.75162755410656,2025-02-28 13h16.48.891229 -0500,
27,27,0,filler_random,None,None,None,None,None,None,None,None,None,None,3,0.9033386707305908,None,,,,,0,0,0,0,0,27,27,154,170.27103877067566,,,,,,,,,,,,,,,,,,,,,,,,,,,,,,,,,,,,,,,,,,,,,,,,,,,,,,,,,,,,,,,,,,,,,,,,,,,,,,,,,126.01279028181028,66.34829010153727,108.00197417873568,199.58857037289314,158.75658349070545,184.75162917564919,1.0,1.2,-229,13,0,-8,288,10,170.25684022903442,170.2569179534912,170.25981044769287,170.27103877067566,170.4257893562317,170.4257893562317,170.4257893562317,170.4257893562317,170.4257893562317,170.4257893562317,170.4257893562317,171.1806468963623,3,0.9033386707305908,None,,,,,,,,,,,,,,,,,,160,1,2025-02-28_13h16.37.866,comp,2024.2.4,53.75162755410656,2025-02-28 13h16.48.891229 -0500,
28,28,0,filler_random,None,None,None,None,None,None,None,None,None,None,3,1.2703580856323242,None,,,,,0,0,0,0,0,28,28,130,171.20016407966614,,,,,,,,,,,,,,,,,,,,,,,,,,,,,,,,,,,,,,,,,,,,,,,,,,,,,,,,,,,,,,,,,,,,,,,,,,,,,,,,,133.566326937059,160.33800215713705,121.08905133977288,68.80663361115673,197.63445760444534,140.60437198006377,3.0,3.1,-211,280,0,0,201,-281,171.18253183364868,171.18264889717102,171.18585848808289,171.20016407966614,171.3402397632599,171.3402397632599,171.3402397632599,171.3402397632599,171.3402397632599,171.3402397632599,171.3402397632599,172.4901475906372,3,1.2703580856323242,None,,,,,,,,,,,,,,,,,,160,1,2025-02-28_13h16.37.866,comp,2024.2.4,53.75162755410656,2025-02-28 13h16.48.891229 -0500,
29,29,0,critical,dwh,35.0,4.0,lower,70.0,70.0,57.0,133.0,133.0,57.0,2,1.0466413497924805,None,,,,,0,0,0,0,0,29,29,64,172.50592017173767,,,,,,,,,,,,,,,,,,,,,,,,,,,,,,,,,,,,,,,,,,,,,,,,,,,,,,,,,,,,,,,,,,,,,,,,,,,,,,,,,70.0,70.0,57.0,133.0,133.0,57.0,4.0,4.2,-198,-8,0,-258,191,-6,172.4917185306549,172.49179434776306,172.49478363990784,172.50592017173767,172.65726566314697,172.65726566314697,172.65726566314697,172.65726566314697,172.65726566314697,172.65726566314697,172.65726566314697,173.55831718444824,2,1.0466413497924805,None,,,,,,,,,,,,,,,,,,160,1,2025-02-28_13h16.37.866,comp,2024.2.4,53.75162755410656,2025-02-28 13h16.48.891229 -0500,
30,30,0,critical,hwd,20.0,3.0,upper,200.0,125.0,125.0,200.0,141.0,141.0,2,1.4128544330596924,None,,,,,0,0,0,0,0,30,30,105,173.5783908367157,,,,,,,,,,,,,,,,,,,,,,,,,,,,,,,,,,,,,,,,,,,,,,,,,,,,,,,,,,,,,,,,,,,,,,,,,,,,,,,,,200.0,125.0,125.0,200.0,141.0,141.0,3.0,3.1,-258,255,0,-15,266,-252,173.55993747711182,173.56007075309753,173.56345772743225,173.5783908367157,173.72554922103882,173.72554922103882,173.72554922103882,173.72554922103882,173.72554922103882,173.72554922103882,173.72554922103882,174.99955868721008,2,1.4128544330596924,None,,,,,,,,,,,,,,,,,,160,1,2025-02-28_13h16.37.866,comp,2024.2.4,53.75162755410656,2025-02-28 13h16.48.891229 -0500,
31,31,0,critical,wdh,20.0,1.0,upper,125.0,200.0,141.0,141.0,200.0,125.0,3,2.1592772006988525,None,,,,,0,0,0,0,0,31,31,79,175.01487040519714,,,,,,,,,,,,,,,,,,,,,,,,,,,,,,,,,,,,,,,,,,,,,,,,,,,,,,,,,,,,,,,,,,,,,,,,,,,,,,,,,125.0,200.0,141.0,141.0,200.0,125.0,1.0,1.2,-266,20,0,2,229,11,175.0010416507721,175.00111937522888,175.00403952598572,175.01487040519714,175.1624584197998,175.1624584197998,175.1624584197998,175.1624584197998,175.1624584197998,175.1624584197998,175.1624584197998,177.17668533325195,3,2.1592772006988525,None,,,,,,,,,,,,,,,,,,160,1,2025-02-28_13h16.37.866,comp,2024.2.4,53.75162755410656,2025-02-28 13h16.48.891229 -0500,
32,32,0,critical,dhw,20.0,2.1,upper,141.0,141.0,200.0,125.0,125.0,200.0,3,5.148300409317017,None,,,,,0,0,0,0,0,32,32,3,177.19451212882996,,,,,,,,,,,,,,,,,,,,,,,,,,,,,,,,,,,,,,,,,,,,,,,,,,,,,,,,,,,,,,,,,,,,,,,,,,,,,,,,,141.0,141.0,200.0,125.0,125.0,200.0,2.1,2.12,-229,-271,0,-255,258,267,177.1782729625702,177.17835116386414,177.18224143981934,177.19451212882996,177.34228324890137,177.34228324890137,177.34228324890137,177.34228324890137,177.34228324890137,177.34228324890137,177.34228324890137,182.34760570526123,3,5.148300409317017,None,,,,,,,,,,,,,,,,,,160,1,2025-02-28_13h16.37.866,comp,2024.2.4,53.75162755410656,2025-02-28 13h16.48.891229 -0500,
33,33,0,critical,dwh,20.0,2.1,upper,141.0,141.0,125.0,200.0,200.0,125.0,2,3.3877036571502686,None,,,,,0,0,0,0,0,33,33,31,182.36400699615479,,,,,,,,,,,,,,,,,,,,,,,,,,,,,,,,,,,,,,,,,,,,,,,,,,,,,,,,,,,,,,,,,,,,,,,,,,,,,,,,,141.0,141.0,125.0,200.0,200.0,125.0,2.1,2.11,-266,250,0,253,258,-289,182.34935355186462,182.34943628311157,182.3523805141449,182.36400699615479,182.50989890098572,182.50989890098572,182.50989890098572,182.50989890098572,182.50989890098572,182.50989890098572,182.50989890098572,185.76306915283203,2,3.3877036571502686,None,,,,,,,,,,,,,,,,,,160,1,2025-02-28_13h16.37.866,comp,2024.2.4,53.75162755410656,2025-02-28 13h16.48.891229 -0500,
34,34,0,filler_square,None,None,None,None,None,None,None,None,None,None,3,1.5060434341430664,None,,,,,0,0,0,0,0,34,34,209,185.78027534484863,,,,,,,,,,,,,,,,,,,,,,,,,,,,,,,,,,,,,,,,,,,,,,,,,,,,,,,,,,,,,,,,,,,,,,,,,,,,,,,,,80.01331485987754,86.35318527476538,94.32816534153535,109.47207421730164,116.52973838553001,116.52973838553001,2.2,2.22,-194,287,0,-281,209,-256,185.76519322395325,185.76529121398926,185.76890110969543,185.78027534484863,185.92867636680603,185.92867636680603,185.92867636680603,185.92867636680603,185.92867636680603,185.92867636680603,185.92867636680603,187.30162239074707,3,1.5060434341430664,None,,,,,,,,,,,,,,,,,,160,1,2025-02-28_13h16.37.866,comp,2024.2.4,53.75162755410656,2025-02-28 13h16.48.891229 -0500,
35,35,0,filler_random,None,None,None,None,None,None,None,None,None,None,2,1.3814890384674072,None,,,,,0,0,0,0,0,35,35,134,187.32115149497986,,,,,,,,,,,,,,,,,,,,,,,,,,,,,,,,,,,,,,,,,,,,,,,,,,,,,,,,,,,,,,,,,,,,,,,,,,,,,,,,,121.62551301741108,102.56401058463801,106.06588134338597,186.27370948913102,171.61377184945945,65.99714403133189,4.0,4.1,-240,-254,0,0,222,-279,187.30364894866943,187.30372881889343,187.30704879760742,187.32115149497986,187.4619996547699,187.4619996547699,187.4619996547699,187.4619996547699,187.4619996547699,187.4619996547699,187.4619996547699,188.71177744865417,2,1.3814890384674072,None,,,,,,,,,,,,,,,,,,160,1,2025-02-28_13h16.37.866,comp,2024.2.4,53.75162755410656,2025-02-28 13h16.48.891229 -0500,
36,36,0,critical,dhw,20.0,3.0,lower,78.0,78.0,133.0,57.0,57.0,133.0,3,6.280757427215576,None,,,,,0,0,0,0,0,36,36,56,188.72830605506897,,,,,,,,,,,,,,,,,,,,,,,,,,,,,,,,,,,,,,,,,,,,,,,,,,,,,,,,,,,,,,,,,,,,,,,,,,,,,,,,,78.0,78.0,133.0,57.0,57.0,133.0,3.0,3.2,-164,-273,0,-12,191,287,188.71332955360413,188.71340703964233,188.71650385856628,188.72830605506897,188.87925004959106,188.87925004959106,188.87925004959106,188.87925004959106,188.87925004959106,188.87925004959106,188.87925004959106,195.01375651359558,3,6.280757427215576,None,,,,,,,,,,,,,,,,,,160,1,2025-02-28_13h16.37.866,comp,2024.2.4,53.75162755410656,2025-02-28 13h16.48.891229 -0500,
37,37,0,critical,hdw,20.0,1.0,upper,200.0,125.0,141.0,141.0,125.0,200.0,3,5.997162580490112,None,,,,,0,0,0,0,0,37,37,115,195.0332419872284,,,,,,,,,,,,,,,,,,,,,,,,,,,,,,,,,,,,,,,,,,,,,,,,,,,,,,,,,,,,,,,,,,,,,,,,,,,,,,,,,200.0,125.0,141.0,141.0,125.0,200.0,1.0,1.2,-229,-6,0,-1,266,-12,195.0154106616974,195.0155200958252,195.0188503265381,195.0332419872284,195.18127965927124,195.18127965927124,195.18127965927124,195.18127965927124,195.18127965927124,195.18127965927124,195.18127965927124,201.03343987464905,3,5.997162580490112,None,,,,,,,,,,,,,,,,,,160,1,2025-02-28_13h16.37.866,comp,2024.2.4,53.75162755410656,2025-02-28 13h16.48.891229 -0500,
38,38,0,critical,hdw,20.0,2.1,upper,200.0,125.0,141.0,141.0,125.0,200.0,3,1.0529181957244873,None,,,,,0,0,0,0,0,38,38,47,201.0493402481079,,,,,,,,,,,,,,,,,,,,,,,,,,,,,,,,,,,,,,,,,,,,,,,,,,,,,,,,,,,,,,,,,,,,,,,,,,,,,,,,,200.0,125.0,141.0,141.0,125.0,200.0,2.1,2.11,-229,251,0,286,266,-259,201.03500080108643,201.03508305549622,201.0385925769806,201.0493402481079,201.19872212409973,201.19872212409973,201.19872212409973,201.19872212409973,201.19872212409973,201.19872212409973,201.19872212409973,202.11616563796997,3,1.0529181957244873,None,,,,,,,,,,,,,,,,,,160,1,2025-02-28_13h16.37.866,comp,2024.2.4,53.75162755410656,2025-02-28 13h16.48.891229 -0500,
39,39,0,critical,dhw,20.0,2.1,upper,141.0,141.0,200.0,125.0,125.0,200.0,3,1.6624336242675781,None,,,,,0,0,0,0,0,39,39,27,202.13612604141235,,,,,,,,,,,,,,,,,,,,,,,,,,,,,,,,,,,,,,,,,,,,,,,,,,,,,,,,,,,,,,,,,,,,,,,,,,,,,,,,,141.0,141.0,200.0,125.0,125.0,200.0,2.1,2.11,-229,287,0,266,258,-285,202.1177158355713,202.11779260635376,202.1209897994995,202.13612604141235,202.28313612937927,202.28313612937927,202.28313612937927,202.28313612937927,202.28313612937927,202.28313612937927,202.28313612937927,203.81689596176147,3,1.6624336242675781,None,,,,,,,,,,,,,,,,,,160,1,2025-02-28_13h16.37.866,comp,2024.2.4,53.75162755410656,2025-02-28 13h16.48.891229 -0500,
40,40,0,critical,dhw,35.0,2.1,lower,70.0,70.0,133.0,57.0,57.0,133.0,3,3.1337621212005615,None,,,,,0,0,0,0,0,40,40,24,203.83266139030457,,,,,,,,,,,,,,,,,,,,,,,,,,,,,,,,,,,,,,,,,,,,,,,,,,,,,,,,,,,,,,,,,,,,,,,,,,,,,,,,,70.0,70.0,133.0,57.0,57.0,133.0,2.1,2.11,-160,290,0,272,191,-255,203.8184413909912,203.81851935386658,203.82170987129211,203.83266139030457,203.9898543357849,203.9898543357849,203.9898543357849,203.9898543357849,203.9898543357849,203.9898543357849,203.9898543357849,206.9703710079193,3,3.1337621212005615,None,,,,,,,,,,,,,,,,,,160,1,2025-02-28_13h16.37.866,comp,2024.2.4,53.75162755410656,2025-02-28 13h16.48.891229 -0500,
41,41,0,critical,dwh,20.0,2.1,lower,78.0,78.0,57.0,133.0,133.0,57.0,2,3.140854597091675,None,,,,,0,0,0,0,0,41,41,6,206.98642086982727,,,,,,,,,,,,,,,,,,,,,,,,,,,,,,,,,,,,,,,,,,,,,,,,,,,,,,,,,,,,,,,,,,,,,,,,,,,,,,,,,78.0,78.0,57.0,133.0,133.0,57.0,2.1,2.12,-202,-277,0,-272,191,287,206.97201108932495,206.9720959663391,206.97552275657654,206.98642086982727,207.14259028434753,207.14259028434753,207.14259028434753,207.14259028434753,207.14259028434753,207.14259028434753,207.14259028434753,210.13523197174072,2,3.140854597091675,None,,,,,,,,,,,,,,,,,,160,1,2025-02-28_13h16.37.866,comp,2024.2.4,53.75162755410656,2025-02-28 13h16.48.891229 -0500,
42,42,0,critical,hdw,20.0,1.0,lower,133.0,57.0,78.0,78.0,57.0,133.0,3,6.269873380661011,None,,,,,0,0,0,0,0,42,42,114,210.15227103233337,,,,,,,,,,,,,,,,,,,,,,,,,,,,,,,,,,,,,,,,,,,,,,,,,,,,,,,,,,,,,,,,,,,,,,,,,,,,,,,,,133.0,57.0,78.0,78.0,57.0,133.0,1.0,1.3,316,-272,480,-277,682,-277,210.13676142692566,210.13684105873108,210.14002799987793,210.15227103233337,210.30340337753296,210.30340337753296,210.30340337753296,210.30340337753296,210.30340337753296,210.30340337753296,210.30340337753296,216.43754935264587,3,6.269873380661011,None,,,,,,,,,,,,,,,,,,160,1,2025-02-28_13h16.37.866,comp,2024.2.4,53.75162755410656,2025-02-28 13h16.48.891229 -0500,
43,43,0,critical,hdw,20.0,2.1,lower,133.0,57.0,78.0,78.0,57.0,133.0,3,2.2089524269104004,None,,,,,0,0,0,0,0,43,43,22,216.45328545570374,,,,,,,,,,,,,,,,,,,,,,,,,,,,,,,,,,,,,,,,,,,,,,,,,,,,,,,,,,,,,,,,,,,,,,,,,,,,,,,,,133.0,57.0,78.0,78.0,57.0,133.0,2.1,2.11,-164,286,0,261,202,-278,216.43909287452698,216.43919348716736,216.44231510162354,216.45328545570374,216.60134029388428,216.60134029388428,216.60134029388428,216.60134029388428,216.60134029388428,216.60134029388428,216.60134029388428,218.67298221588135,3,2.2089524269104004,None,,,,,,,,,,,,,,,,,,160,1,2025-02-28_13h16.37.866,comp,2024.2.4,53.75162755410656,2025-02-28 13h16.48.891229 -0500,
44,44,0,catch,None,None,None,None,None,None,None,None,None,None,2,1.0930898189544678,None,,,,,0,0,0,0,0,44,44,128,218.68993473052979,,,,,,,,,,,,,,,,,,,,,,,,,,,,,,,,,,,,,,,,,,,,,,,,,,,,,,,,,,,,,,,,,,,,,,,,,,,,,,,,,186,139,123,67,73,117,2.2,2.21,-199,-287,0,256,188,263,218.67493081092834,218.67506432533264,218.67910957336426,218.68993473052979,218.84172081947327,218.84172081947327,218.84172081947327,218.84172081947327,218.84172081947327,218.84172081947327,218.84172081947327,219.78948187828064,2,1.0930898189544678,None,,,,,,,,,,,,,,,,,,160,1,2025-02-28_13h16.37.866,comp,2024.2.4,53.75162755410656,2025-02-28 13h16.48.891229 -0500,
45,45,0,catch,None,None,None,None,None,None,None,None,None,None,3,1.3613762855529785,None,,,,,0,0,0,0,0,45,45,122,219.80575227737427,,,,,,,,,,,,,,,,,,,,,,,,,,,,,,,,,,,,,,,,,,,,,,,,,,,,,,,,,,,,,,,,,,,,,,,,,,,,,,,,,78,112,112,78,191,134,3.0,3.2,-191,-274,0,-11,202,251,219.7914297580719,219.79151344299316,219.79494953155518,219.80575227737427,219.95845413208008,219.95845413208008,219.95845413208008,219.95845413208008,219.95845413208008,219.95845413208008,219.95845413208008,221.1714687347412,3,1.3613762855529785,None,,,,,,,,,,,,,,,,,,160,1,2025-02-28_13h16.37.866,comp,2024.2.4,53.75162755410656,2025-02-28 13h16.48.891229 -0500,
46,46,0,critical,wdh,20.0,4.0,lower,57.0,133.0,78.0,78.0,133.0,57.0,3,4.507164478302002,None,,,,,0,0,0,0,0,46,46,82,221.18789434432983,,,,,,,,,,,,,,,,,,,,,,,,,,,,,,,,,,,,,,,,,,,,,,,,,,,,,,,,,,,,,,,,,,,,,,,,,,,,,,,,,57.0,133.0,78.0,78.0,133.0,57.0,4.0,4.2,-202,-14,0,-282,164,-11,221.1729702949524,221.17304873466492,221.17593097686768,221.18789434432983,221.32377409934998,221.32377409934998,221.32377409934998,221.32377409934998,221.32377409934998,221.32377409934998,221.32377409934998,225.69843316078186,3,4.507164478302002,None,,,,,,,,,,,,,,,,,,160,1,2025-02-28_13h16.37.866,comp,2024.2.4,53.75162755410656,2025-02-28 13h16.48.891229 -0500,
47,47,0,filler_square,None,None,None,None,None,None,None,None,None,None,3,1.0602505207061768,None,,,,,0,0,0,0,0,47,47,201,225.71421146392822,,,,,,,,,,,,,,,,,,,,,,,,,,,,,,,,,,,,,,,,,,,,,,,,,,,,,,,,,,,,,,,,,,,,,,,,,,,,,,,,,135.559496903369,89.39006720038941,123.35141214272524,136.14636687925258,184.66033971492533,184.66033971492533,3.0,3.2,-209,-278,0,15,256,275,225.70033740997314,225.70041799545288,225.70332217216492,225.71421146392822,225.86368131637573,225.86368131637573,225.86368131637573,225.86368131637573,225.86368131637573,225.86368131637573,225.86368131637573,226.79096603393555,3,1.0602505207061768,None,,,,,,,,,,,,,,,,,,160,1,2025-02-28_13h16.37.866,comp,2024.2.4,53.75162755410656,2025-02-28 13h16.48.891229 -0500,
48,48,0,filler_random,None,None,None,None,None,None,None,None,None,None,3,2.6994481086730957,None,,,,,0,0,0,0,0,48,48,166,226.81124258041382,,,,,,,,,,,,,,,,,,,,,,,,,,,,,,,,,,,,,,,,,,,,,,,,,,,,,,,,,,,,,,,,,,,,,,,,,,,,,,,,,73.14588042835459,86.80293060373334,82.05832270781636,121.60407514202353,108.26452994594605,118.98394960632419,2.1,2.11,-200,290,0,261,216,-257,226.79279470443726,226.79287147521973,226.79598832130432,226.81124258041382,226.95801901817322,226.95801901817322,226.95801901817322,226.95801901817322,226.95801901817322,226.95801901817322,226.95801901817322,229.53358459472656,3,2.6994481086730957,None,,,,,,,,,,,,,,,,,,160,1,2025-02-28_13h16.37.866,comp,2024.2.4,53.75162755410656,2025-02-28 13h16.48.891229 -0500,
49,49,0,filler_random,None,None,None,None,None,None,None,None,None,None,1,1.1844463348388672,None,,,,,0,0,0,0,0,49,49,138,229.55211687088013,,,,,,,,,,,,,,,,,,,,,,,,,,,,,,,,,,,,,,,,,,,,,,,,,,,,,,,,,,,,,,,,,,,,,,,,,,,,,,,,,177.8690281504591,181.20968538498067,144.48397432993994,145.12842610794235,68.96392899363383,151.21039569961275,1.0,1.1,-739,255,-480,259,-236,277,229.5354380607605,229.5355679988861,229.53888630867004,229.55211687088013,229.69195532798767,229.69195532798767,229.69195532798767,229.69195532798767,229.69195532798767,229.69195532798767,229.69195532798767,230.7425937652588,1,1.1844463348388672,None,,,,,,,,,,,,,,,,,,160,1,2025-02-28_13h16.37.866,comp,2024.2.4,53.75162755410656,2025-02-28 13h16.48.891229 -0500,
50,50,0,critical,dwh,35.0,2.1,upper,127.0,127.0,125.0,200.0,200.0,125.0,2,1.715956687927246,None,,,,,0,0,0,0,0,50,50,29,230.76237678527832,,,,,,,,,,,,,,,,,,,,,,,,,,,,,,,,,,,,,,,,,,,,,,,,,,,,,,,,,,,,,,,,,,,,,,,,,,,,,,,,,127.0,127.0,125.0,200.0,200.0,125.0,2.1,2.12,-260,-289,0,-273,258,282,230.7442011833191,230.74428296089172,230.7474536895752,230.76237678527832,230.90933346748352,230.90933346748352,230.90933346748352,230.90933346748352,230.90933346748352,230.90933346748352,230.90933346748352,232.49265456199646,2,1.715956687927246,None,,,,,,,,,,,,,,,,,,160,1,2025-02-28_13h16.37.866,comp,2024.2.4,53.75162755410656,2025-02-28 13h16.48.891229 -0500,
51,51,0,critical,wdh,20.0,2.1,lower,57.0,133.0,78.0,78.0,133.0,57.0,1,5.768696546554565,None,,,,,0,0,0,0,0,51,51,10,232.50956678390503,,,,,,,,,,,,,,,,,,,,,,,,,,,,,,,,,,,,,,,,,,,,,,,,,,,,,,,,,,,,,,,,,,,,,,,,,,,,,,,,,57.0,133.0,78.0,78.0,133.0,57.0,2.1,2.11,-202,253,0,263,164,-283,232.49433159828186,232.49440741539001,232.49771690368652,232.50956678390503,232.66670441627502,232.66670441627502,232.66670441627502,232.66670441627502,232.66670441627502,232.66670441627502,232.66670441627502,238.29414749145508,1,5.768696546554565,None,,,,,,,,,,,,,,,,,,160,1,2025-02-28_13h16.37.866,comp,2024.2.4,53.75162755410656,2025-02-28 13h16.48.891229 -0500,
52,52,0,critical,hdw,35.0,1.0,lower,133.0,57.0,70.0,70.0,57.0,133.0,3,1.760072946548462,None,,,,,0,0,0,0,0,52,52,108,238.31026601791382,,,,,,,,,,,,,,,,,,,,,,,,,,,,,,,,,,,,,,,,,,,,,,,,,,,,,,,,,,,,,,,,,,,,,,,,,,,,,,,,,133.0,57.0,70.0,70.0,57.0,133.0,1.0,1.3,320,-273,480,-264,678,-256,238.29569625854492,238.29577136039734,238.2989022731781,238.31026601791382,238.46477341651917,238.46477341651917,238.46477341651917,238.46477341651917,238.46477341651917,238.46477341651917,238.46477341651917,240.0828778743744,3,1.760072946548462,None,,,,,,,,,,,,,,,,,,160,1,2025-02-28_13h16.37.866,comp,2024.2.4,53.75162755410656,2025-02-28 13h16.48.891229 -0500,
53,53,0,critical,dwh,20.0,3.0,upper,141.0,141.0,125.0,200.0,200.0,125.0,2,1.757521629333496,None,,,,,0,0,0,0,0,53,53,69,240.09863829612732,,,,,,,,,,,,,,,,,,,,,,,,,,,,,,,,,,,,,,,,,,,,,,,,,,,,,,,,,,,,,,,,,,,,,,,,,,,,,,,,,141.0,141.0,125.0,200.0,200.0,125.0,3.0,3.2,-266,-272,0,7,258,256,240.08456254005432,240.0846393108368,240.08753561973572,240.09863829612732,240.2455017566681,240.2455017566681,240.2455017566681,240.2455017566681,240.2455017566681,240.2455017566681,240.2455017566681,241.86572551727295,2,1.757521629333496,None,,,,,,,,,,,,,,,,,,160,1,2025-02-28_13h16.37.866,comp,2024.2.4,53.75162755410656,2025-02-28 13h16.48.891229 -0500,
54,54,0,critical,dwh,20.0,2.1,lower,78.0,78.0,57.0,133.0,133.0,57.0,3,2.010632038116455,None,,,,,0,0,0,0,0,54,54,30,241.88430261611938,,,,,,,,,,,,,,,,,,,,,,,,,,,,,,,,,,,,,,,,,,,,,,,,,,,,,,,,,,,,,,,,,,,,,,,,,,,,,,,,,78.0,78.0,57.0,133.0,133.0,57.0,2.1,2.11,-202,274,0,285,191,-256,241.86749720573425,241.86764121055603,241.87095952033997,241.88430261611938,242.0351538658142,242.0351538658142,242.0351538658142,242.0351538658142,242.0351538658142,242.0351538658142,242.0351538658142,243.8970582485199,3,2.010632038116455,None,,,,,,,,,,,,,,,,,,160,1,2025-02-28_13h16.37.866,comp,2024.2.4,53.75162755410656,2025-02-28 13h16.48.891229 -0500,
55,55,0,filler_square,None,None,None,None,None,None,None,None,None,None,2,1.5637576580047607,None,,,,,0,0,0,0,0,55,55,185,243.91455602645874,,,,,,,,,,,,,,,,,,,,,,,,,,,,,,,,,,,,,,,,,,,,,,,,,,,,,,,,,,,,,,,,,,,,,,,,,,,,,,,,,83.02051744842716,96.06268004207894,97.63212832890238,97.63212832890238,67.86020265683983,80.81157560130714,2.1,2.11,-193,258,0,263,185,-259,243.89915347099304,243.89927196502686,243.90332627296448,243.91455602645874,244.06888628005981,244.06888628005981,244.06888628005981,244.06888628005981,244.06888628005981,244.06888628005981,244.06888628005981,245.49639630317688,2,1.5637576580047607,None,,,,,,,,,,,,,,,,,,160,1,2025-02-28_13h16.37.866,comp,2024.2.4,53.75162755410656,2025-02-28 13h16.48.891229 -0500,
56,56,0,critical,hwd,20.0,4.0,lower,133.0,57.0,57.0,133.0,78.0,78.0,1,4.694209575653076,None,,,,,0,0,0,0,0,56,56,106,245.51279640197754,,,,,,,,,,,,,,,,,,,,,,,,,,,,,,,,,,,,,,,,,,,,,,,,,,,,,,,,,,,,,,,,,,,,,,,,,,,,,,,,,133.0,57.0,57.0,133.0,78.0,78.0,4.0,4.1,-191,-282,0,3,202,-254,245.49802494049072,245.49815726280212,245.5014843940735,245.51279640197754,245.66428470611572,245.66428470611572,245.66428470611572,245.66428470611572,245.66428470611572,245.66428470611572,245.66428470611572,250.215838432312,1,4.694209575653076,None,,,,,,,,,,,,,,,,,,160,1,2025-02-28_13h16.37.866,comp,2024.2.4,53.75162755410656,2025-02-28 13h16.48.891229 -0500,
57,57,0,filler_random,None,None,None,None,None,None,None,None,None,None,3,0.8628125190734863,None,,,,,0,0,0,0,0,57,57,133,250.2322564125061,,,,,,,,,,,,,,,,,,,,,,,,,,,,,,,,,,,,,,,,,,,,,,,,,,,,,,,,,,,,,,,,,,,,,,,,,,,,,,,,,76.22312447887631,182.33671754992554,103.26677886424301,152.38513599532277,164.92159847890426,172.16763872162556,1.0,1.2,-263,-17,0,-10,258,10,250.21754431724548,250.21762251853943,250.22125911712646,250.2322564125061,250.383469581604,250.383469581604,250.383469581604,250.383469581604,250.383469581604,250.383469581604,250.383469581604,251.09734320640564,3,0.8628125190734863,None,,,,,,,,,,,,,,,,,,160,1,2025-02-28_13h16.37.866,comp,2024.2.4,53.75162755410656,2025-02-28 13h16.48.891229 -0500,
58,58,0,critical,whd,35.0,3.0,upper,125.0,200.0,200.0,125.0,127.0,127.0,1,2.1333963871002197,None,,,,,0,0,0,0,0,58,58,87,251.11354756355286,,,,,,,,,,,,,,,,,,,,,,,,,,,,,,,,,,,,,,,,,,,,,,,,,,,,,,,,,,,,,,,,,,,,,,,,,,,,,,,,,125.0,200.0,200.0,125.0,127.0,127.0,3.0,3.1,-258,287,0,19,222,-265,251.0989067554474,251.09898614883423,251.10201001167297,251.11354756355286,251.2652668952942,251.2652668952942,251.2652668952942,251.2652668952942,251.2652668952942,251.2652668952942,251.2652668952942,253.2530665397644,1,2.1333963871002197,None,,,,,,,,,,,,,,,,,,160,1,2025-02-28_13h16.37.866,comp,2024.2.4,53.75162755410656,2025-02-28 13h16.48.891229 -0500,
59,59,0,filler_square,None,None,None,None,None,None,None,None,None,None,1,1.044520616531372,None,,,,,0,0,0,0,0,59,59,172,253.2738537788391,,,,,,,,,,,,,,,,,,,,,,,,,,,,,,,,,,,,,,,,,,,,,,,,,,,,,,,,,,,,,,,,,,,,,,,,,,,,,,,,,197.41486116375188,197.41486116375188,110.79289384316971,194.58483242721042,66.68742417168214,72.5657912215888,3.0,3.1,-292,266,0,3,230,-280,253.25512099266052,253.2552502155304,253.25813221931458,253.2738537788391,253.41669702529907,253.41669702529907,253.41669702529907,253.41669702529907,253.41669702529907,253.41669702529907,253.41669702529907,254.33138918876648,1,1.044520616531372,None,,,,,,,,,,,,,,,,,,160,1,2025-02-28_13h16.37.866,comp,2024.2.4,53.75162755410656,2025-02-28 13h16.48.891229 -0500,
60,60,0,critical,wdh,35.0,4.0,upper,125.0,200.0,127.0,127.0,200.0,125.0,1,3.3872933387756348,None,,,,,0,0,0,0,0,60,60,77,254.34727334976196,,,,,,,,,,,,,,,,,,,,,,,,,,,,,,,,,,,,,,,,,,,,,,,,,,,,,,,,,,,,,,,,,,,,,,,,,,,,,,,,,125.0,200.0,127.0,127.0,200.0,125.0,4.0,4.1,-260,-284,0,0,222,-271,254.33299136161804,254.33309412002563,254.33646416664124,254.34727334976196,254.4897108078003,254.4897108078003,254.4897108078003,254.4897108078003,254.4897108078003,254.4897108078003,254.4897108078003,257.7371189594269,1,3.3872933387756348,None,,,,,,,,,,,,,,,,,,160,1,2025-02-28_13h16.37.866,comp,2024.2.4,53.75162755410656,2025-02-28 13h16.48.891229 -0500,
61,61,0,critical,wdh,35.0,2.1,lower,57.0,133.0,70.0,70.0,133.0,57.0,1,3.3391356468200684,None,,,,,0,0,0,0,0,61,61,8,257.75563859939575,,,,,,,,,,,,,,,,,,,,,,,,,,,,,,,,,,,,,,,,,,,,,,,,,,,,,,,,,,,,,,,,,,,,,,,,,,,,,,,,,57.0,133.0,70.0,70.0,133.0,57.0,2.1,2.11,-198,269,0,265,160,-267,257.7387230396271,257.7388045787811,257.7418222427368,257.75563859939575,257.9013376235962,257.9013376235962,257.9013376235962,257.9013376235962,257.9013376235962,257.9013376235962,257.9013376235962,261.1032934188843,1,3.3391356468200684,None,,,,,,,,,,,,,,,,,,160,1,2025-02-28_13h16.37.866,comp,2024.2.4,53.75162755410656,2025-02-28 13h16.48.891229 -0500,
62,62,0,filler_random,None,None,None,None,None,None,None,None,None,None,2,2.0224523544311523,None,,,,,0,0,0,0,0,62,62,143,261.11985540390015,,,,,,,,,,,,,,,,,,,,,,,,,,,,,,,,,,,,,,,,,,,,,,,,,,,,,,,,,,,,,,,,,,,,,,,,,,,,,,,,,94.97197235544719,69.76745749729163,104.8212205487074,91.56998362279026,75.5046479677618,109.2776687792504,4.0,4.2,-177,14,0,-285,196,-16,261.10513401031494,261.10529685020447,261.10904908180237,261.11985540390015,261.26822113990784,261.26822113990784,261.26822113990784,261.26822113990784,261.26822113990784,261.26822113990784,261.26822113990784,263.1588079929352,2,2.0224523544311523,None,,,,,,,,,,,,,,,,,,160,1,2025-02-28_13h16.37.866,comp,2024.2.4,53.75162755410656,2025-02-28 13h16.48.891229 -0500,
63,63,0,critical,wdh,35.0,4.0,lower,57.0,133.0,70.0,70.0,133.0,57.0,3,2.1917827129364014,None,,,,,0,0,0,0,0,63,63,76,263.1745843887329,,,,,,,,,,,,,,,,,,,,,,,,,,,,,,,,,,,,,,,,,,,,,,,,,,,,,,,,,,,,,,,,,,,,,,,,,,,,,,,,,57.0,133.0,70.0,70.0,133.0,57.0,4.0,4.1,-198,-279,0,-2,160,-284,263.1603615283966,263.16043853759766,263.1633379459381,263.1745843887329,263.3193690776825,263.3193690776825,263.3193690776825,263.3193690776825,263.3193690776825,263.3193690776825,263.3193690776825,265.38002014160156,3,2.1917827129364014,None,,,,,,,,,,,,,,,,,,160,1,2025-02-28_13h16.37.866,comp,2024.2.4,53.75162755410656,2025-02-28 13h16.48.891229 -0500,
64,64,0,filler_square,None,None,None,None,None,None,None,None,None,None,3,1.6509759426116943,None,,,,,0,0,0,0,0,64,64,191,265.39555168151855,,,,,,,,,,,,,,,,,,,,,,,,,,,,,,,,,,,,,,,,,,,,,,,,,,,,,,,,,,,,,,,,,,,,,,,,,,,,,,,,,64.35755331958427,64.35755331958427,59.6290538406146,63.32893860389465,60.420645804856655,62.545834024888855,2.2,2.22,-160,269,0,-250,159,-255,265.38193368911743,265.38201236724854,265.3849356174469,265.39555168151855,265.5382430553436,265.5382430553436,265.5382430553436,265.5382430553436,265.5382430553436,265.5382430553436,265.5382430553436,267.0592625141144,3,1.6509759426116943,None,,,,,,,,,,,,,,,,,,160,1,2025-02-28_13h16.37.866,comp,2024.2.4,53.75162755410656,2025-02-28 13h16.48.891229 -0500,
65,65,0,catch,None,None,None,None,None,None,None,None,None,None,2,0.8949100971221924,None,,,,,0,0,0,0,0,65,65,123,267.07953095436096,,,,,,,,,,,,,,,,,,,,,,,,,,,,,,,,,,,,,,,,,,,,,,,,,,,,,,,,,,,,,,,,,,,,,,,,,,,,,,,,,102,88,153,172,92,98,3.0,3.2,-226,-256,0,11,231,270,267.0612428188324,267.0613212585449,267.06424283981323,267.07953095436096,267.2215600013733,267.2215600013733,267.2215600013733,267.2215600013733,267.2215600013733,267.2215600013733,267.2215600013733,267.9876730442047,2,0.8949100971221924,None,,,,,,,,,,,,,,,,,,160,1,2025-02-28_13h16.37.866,comp,2024.2.4,53.75162755410656,2025-02-28 13h16.48.891229 -0500,
66,66,0,filler_square,None,None,None,None,None,None,None,None,None,None,3,0.999230146408081,None,,,,,0,0,0,0,0,66,66,196,268.00707149505615,,,,,,,,,,,,,,,,,,,,,,,,,,,,,,,,,,,,,,,,,,,,,,,,,,,,,,,,,,,,,,,,,,,,,,,,,,,,,,,,,151.1249914894068,146.5712064838459,144.86218338787185,93.45239843130824,185.81779415738913,185.81779415738913,2.2,2.22,-216,289,0,-272,236,-258,267.98951625823975,267.98959374427795,267.99268865585327,268.00707149505615,268.143052816391,268.143052816391,268.143052816391,268.143052816391,268.143052816391,268.143052816391,268.143052816391,269.02106189727783,3,0.999230146408081,None,,,,,,,,,,,,,,,,,,160,1,2025-02-28_13h16.37.866,comp,2024.2.4,53.75162755410656,2025-02-28 13h16.48.891229 -0500,
67,67,0,filler_square,None,None,None,None,None,None,None,None,None,None,3,1.0746572017669678,None,,,,,0,0,0,0,0,67,67,205,269.0369670391083,,,,,,,,,,,,,,,,,,,,,,,,,,,,,,,,,,,,,,,,,,,,,,,,,,,,,,,,,,,,,,,,,,,,,,,,,,,,,,,,,92.5907917062141,106.33015062725124,104.25287004110712,96.67174841029373,156.91695441863862,156.91695441863862,2.1,2.12,-198,-261,0,-253,223,285,269.0229403972626,269.0230402946472,269.0265738964081,269.0369670391083,269.1876788139343,269.1876788139343,269.1876788139343,269.1876788139343,269.1876788139343,269.1876788139343,269.1876788139343,270.1226933002472,3,1.0746572017669678,None,,,,,,,,,,,,,,,,,,160,1,2025-02-28_13h16.37.866,comp,2024.2.4,53.75162755410656,2025-02-28 13h16.48.891229 -0500,
68,68,0,filler_random,None,None,None,None,None,None,None,None,None,None,2,0.811669111251831,None,,,,,0,0,0,0,0,68,68,136,270.1390964984894,,,,,,,,,,,,,,,,,,,,,,,,,,,,,,,,,,,,,,,,,,,,,,,,,,,,,,,,,,,,,,,,,,,,,,,,,,,,,,,,,146.3203444989884,73.77098162894553,182.6713458336622,190.3856383136192,114.67437617367636,102.24474462029497,2.1,2.11,-228,283,0,289,242,-279,270.1243669986725,270.1244626045227,270.1284034252167,270.1390964984894,270.2866406440735,270.2866406440735,270.2866406440735,270.2866406440735,270.2866406440735,270.2866406440735,270.2866406440735,270.9672689437866,2,0.811669111251831,None,,,,,,,,,,,,,,,,,,160,1,2025-02-28_13h16.37.866,comp,2024.2.4,53.75162755410656,2025-02-28 13h16.48.891229 -0500,
69,69,0,filler_square,None,None,None,None,None,None,None,None,None,None,2,1.2558796405792236,None,,,,,0,0,0,0,0,69,69,184,270.98242592811584,,,,,,,,,,,,,,,,,,,,,,,,,,,,,,,,,,,,,,,,,,,,,,,,,,,,,,,,,,,,,,,,,,,,,,,,,,,,,,,,,82.67729073234844,96.91986876332997,110.92714779700196,110.92714779700196,95.19103920763926,69.69267010614679,1.0,1.1,-680,273,-480,283,-294,273,270.96898007392883,270.9690570831299,270.97194480895996,270.98242592811584,271.12112188339233,271.12112188339233,271.12112188339233,271.12112188339233,271.12112188339233,271.12112188339233,271.12112188339233,272.2556412220001,2,1.2558796405792236,None,,,,,,,,,,,,,,,,,,160,1,2025-02-28_13h16.37.866,comp,2024.2.4,53.75162755410656,2025-02-28 13h16.48.891229 -0500,
70,70,0,critical,whd,20.0,2.1,upper,125.0,200.0,200.0,125.0,141.0,141.0,1,3.8792567253112793,None,,,,,0,0,0,0,0,70,70,39,272.27189898490906,,,,,,,,,,,,,,,,,,,,,,,,,,,,,,,,,,,,,,,,,,,,,,,,,,,,,,,,,,,,,,,,,,,,,,,,,,,,,,,,,125.0,200.0,200.0,125.0,141.0,141.0,2.1,2.11,-258,281,0,260,229,-270,272.2572011947632,272.2572886943817,272.2613596916199,272.27189898490906,272.4258306026459,272.4258306026459,272.4258306026459,272.4258306026459,272.4258306026459,272.4258306026459,272.4258306026459,276.15889072418213,1,3.8792567253112793,None,,,,,,,,,,,,,,,,,,160,1,2025-02-28_13h16.37.866,comp,2024.2.4,53.75162755410656,2025-02-28 13h16.48.891229 -0500,
71,71,0,filler_random,None,None,None,None,None,None,None,None,None,None,2,0.9749374389648438,None,,,,,0,0,0,0,0,71,71,164,276.1759932041168,,,,,,,,,,,,,,,,,,,,,,,,,,,,,,,,,,,,,,,,,,,,,,,,,,,,,,,,,,,,,,,,,,,,,,,,,,,,,,,,,126.14310026945421,100.42532801876887,179.92388221485584,178.89060746778463,118.21339976322602,122.48850098880536,4.0,4.2,-236,-4,0,-250,247,15,276.16105031967163,276.16112875938416,276.165159702301,276.1759932041168,276.33074712753296,276.33074712753296,276.33074712753296,276.33074712753296,276.33074712753296,276.33074712753296,276.33074712753296,277.1597421169281,2,0.9749374389648438,None,,,,,,,,,,,,,,,,,,160,1,2025-02-28_13h16.37.866,comp,2024.2.4,53.75162755410656,2025-02-28 13h16.48.891229 -0500,
72,72,0,filler_random,None,None,None,None,None,None,None,None,None,None,3,0.9617824554443359,None,,,,,0,0,0,0,0,72,72,155,277.1810414791107,,,,,,,,,,,,,,,,,,,,,,,,,,,,,,,,,,,,,,,,,,,,,,,,,,,,,,,,,,,,,,,,,,,,,,,,,,,,,,,,,67.80118653752798,119.76591577173534,164.86912488075575,59.47187663864709,133.02758036274986,174.0844899114296,2.2,2.22,-186,268,0,-289,213,-261,277.1619381904602,277.16207361221313,277.1654167175293,277.1810414791107,277.32396149635315,277.32396149635315,277.32396149635315,277.32396149635315,277.32396149635315,277.32396149635315,277.32396149635315,278.15238857269287,3,0.9617824554443359,None,,,,,,,,,,,,,,,,,,160,1,2025-02-28_13h16.37.866,comp,2024.2.4,53.75162755410656,2025-02-28 13h16.48.891229 -0500,
73,73,0,critical,hwd,35.0,1.0,lower,133.0,57.0,57.0,133.0,70.0,70.0,2,2.916351079940796,None,,,,,0,0,0,0,0,73,73,96,278.17000818252563,,,,,,,,,,,,,,,,,,,,,,,,,,,,,,,,,,,,,,,,,,,,,,,,,,,,,,,,,,,,,,,,,,,,,,,,,,,,,,,,,133.0,57.0,57.0,133.0,70.0,70.0,1.0,1.3,289,-271,480,-289,678,-255,278.15394949913025,278.1540279388428,278.1569011211395,278.17000818252563,278.30738830566406,278.30738830566406,278.30738830566406,278.30738830566406,278.30738830566406,278.30738830566406,278.30738830566406,281.1009237766266,2,2.916351079940796,None,,,,,,,,,,,,,,,,,,160,1,2025-02-28_13h16.37.866,comp,2024.2.4,53.75162755410656,2025-02-28 13h16.48.891229 -0500,
74,74,0,critical,whd,35.0,2.1,lower,57.0,133.0,133.0,57.0,70.0,70.0,2,3.143606662750244,None,,,,,0,0,0,0,0,74,74,36,281.11891174316406,,,,,,,,,,,,,,,,,,,,,,,,,,,,,,,,,,,,,,,,,,,,,,,,,,,,,,,,,,,,,,,,,,,,,,,,,,,,,,,,,57.0,133.0,133.0,57.0,70.0,70.0,2.1,2.12,-191,-284,0,-257,160,286,281.1026167869568,281.1027536392212,281.1060862541199,281.11891174316406,281.2585735321045,281.2585735321045,281.2585735321045,281.2585735321045,281.2585735321045,281.2585735321045,281.2585735321045,284.2770462036133,2,3.143606662750244,None,,,,,,,,,,,,,,,,,,160,1,2025-02-28_13h16.37.866,comp,2024.2.4,53.75162755410656,2025-02-28 13h16.48.891229 -0500,
75,75,0,filler_random,None,None,None,None,None,None,None,None,None,None,3,1.826338529586792,None,,,,,0,0,0,0,0,75,75,149,284.2928538322449,,,,,,,,,,,,,,,,,,,,,,,,,,,,,,,,,,,,,,,,,,,,,,,,,,,,,,,,,,,,,,,,,,,,,,,,,,,,,,,,,81.48984123301186,118.06328345973495,65.22765661503982,93.63988951769369,87.34840018603559,143.3701184805558,2.1,2.11,-202,285,0,283,215,-272,284.27876234054565,284.27884006500244,284.282128572464,284.2928538322449,284.4432866573334,284.4432866573334,284.4432866573334,284.4432866573334,284.4432866573334,284.4432866573334,284.4432866573334,286.12713956832886,3,1.826338529586792,None,,,,,,,,,,,,,,,,,,160,1,2025-02-28_13h16.37.866,comp,2024.2.4,53.75162755410656,2025-02-28 13h16.48.891229 -0500,
76,76,0,catch,None,None,None,None,None,None,None,None,None,None,1,0.9990835189819336,None,,,,,0,0,0,0,0,76,76,121,286.14420461654663,,,,,,,,,,,,,,,,,,,,,,,,,,,,,,,,,,,,,,,,,,,,,,,,,,,,,,,,,,,,,,,,,,,,,,,,,,,,,,,,,131,194,86,104,122,68,3.0,3.2,-245,-251,0,-2,182,273,286.1291558742523,286.12926483154297,286.1333017349243,286.14420461654663,286.29451155662537,286.29451155662537,286.29451155662537,286.29451155662537,286.29451155662537,286.29451155662537,286.29451155662537,287.14950728416443,1,0.9990835189819336,None,,,,,,,,,,,,,,,,,,160,1,2025-02-28_13h16.37.866,comp,2024.2.4,53.75162755410656,2025-02-28 13h16.48.891229 -0500,
77,77,0,critical,dhw,35.0,4.0,lower,70.0,70.0,133.0,57.0,57.0,133.0,3,2.344259262084961,None,,,,,0,0,0,0,0,77,77,52,287.16613817214966,,,,,,,,,,,,,,,,,,,,,,,,,,,,,,,,,,,,,,,,,,,,,,,,,,,,,,,,,,,,,,,,,,,,,,,,,,,,,,,,,70.0,70.0,133.0,57.0,57.0,133.0,4.0,4.1,-160,-279,0,-16,191,-271,287.15110898017883,287.1512088775635,287.1541509628296,287.16613817214966,287.31559920310974,287.31559920310974,287.31559920310974,287.31559920310974,287.31559920310974,287.31559920310974,287.31559920310974,289.5285573005676,3,2.344259262084961,None,,,,,,,,,,,,,,,,,,160,1,2025-02-28_13h16.37.866,comp,2024.2.4,53.75162755410656,2025-02-28 13h16.48.891229 -0500,
78,78,0,critical,dhw,35.0,3.0,upper,127.0,127.0,200.0,125.0,125.0,200.0,3,2.230984687805176,None,,,,,0,0,0,0,0,78,78,51,289.54438638687134,,,,,,,,,,,,,,,,,,,,,,,,,,,,,,,,,,,,,,,,,,,,,,,,,,,,,,,,,,,,,,,,,,,,,,,,,,,,,,,,,127.0,127.0,200.0,125.0,125.0,200.0,3.0,3.2,-222,-283,0,1,258,266,289.5302016735077,289.53034257888794,289.5340163707733,289.54438638687134,289.6930847167969,289.6930847167969,289.6930847167969,289.6930847167969,289.6930847167969,289.6930847167969,289.6930847167969,291.7830686569214,3,2.230984687805176,None,,,,,,,,,,,,,,,,,,160,1,2025-02-28_13h16.37.866,comp,2024.2.4,53.75162755410656,2025-02-28 13h16.48.891229 -0500,
79,79,0,filler_square,None,None,None,None,None,None,None,None,None,None,2,2.2442073822021484,None,,,,,0,0,0,0,0,79,79,198,291.8022253513336,,,,,,,,,,,,,,,,,,,,,,,,,,,,,,,,,,,,,,,,,,,,,,,,,,,,,,,,,,,,,,,,,,,,,,,,,,,,,,,,,81.67905573202762,80.93199152491157,84.08970980733282,84.08970980733282,81.73892513495358,73.98202150142362,2.1,2.12,-179,-254,0,-276,175,271,291.7852907180786,291.78537130355835,291.78866839408875,291.8022253513336,291.94419503211975,291.94419503211975,291.94419503211975,291.94419503211975,291.94419503211975,291.94419503211975,291.94419503211975,294.06232833862305,2,2.2442073822021484,None,,,,,,,,,,,,,,,,,,160,1,2025-02-28_13h16.37.866,comp,2024.2.4,53.75162755410656,2025-02-28 13h16.48.891229 -0500,
80,80,0,critical,dwh,35.0,3.0,lower,70.0,70.0,57.0,133.0,133.0,57.0,2,1.608083963394165,None,,,,,0,0,0,0,0,80,80,62,294.0787971019745,,,,,,,,,,,,,,,,,,,,,,,,,,,,,,,,,,,,,,,,,,,,,,,,,,,,,,,,,,,,,,,,,,,,,,,,,,,,,,,,,70.0,70.0,57.0,133.0,133.0,57.0,3.0,3.2,-198,-274,0,-2,191,271,294.06412076950073,294.0642216205597,294.0683226585388,294.0787971019745,294.23493099212646,294.23493099212646,294.23493099212646,294.23493099212646,294.23493099212646,294.23493099212646,294.23493099212646,295.6892669200897,2,1.608083963394165,None,,,,,,,,,,,,,,,,,,160,1,2025-02-28_13h16.37.866,comp,2024.2.4,53.75162755410656,2025-02-28 13h16.48.891229 -0500,
81,81,0,filler_square,None,None,None,None,None,None,None,None,None,None,2,1.2374684810638428,None,,,,,0,0,0,0,0,81,81,177,295.7057840824127,,,,,,,,,,,,,,,,,,,,,,,,,,,,,,,,,,,,,,,,,,,,,,,,,,,,,,,,,,,,,,,,,,,,,,,,,,,,,,,,,120.55175768251713,83.0705542849137,121.90187949135277,121.90187949135277,65.7699955876982,60.57276401218815,4.0,4.2,-198,-3,0,-251,187,-13,295.6911108493805,295.6912338733673,295.6941587924957,295.7057840824127,295.8495948314667,295.8495948314667,295.8495948314667,295.8495948314667,295.8495948314667,295.8495948314667,295.8495948314667,296.95069003105164,2,1.2374684810638428,None,,,,,,,,,,,,,,,,,,160,1,2025-02-28_13h16.37.866,comp,2024.2.4,53.75162755410656,2025-02-28 13h16.48.891229 -0500,
82,82,0,critical,hwd,20.0,1.0,lower,133.0,57.0,57.0,133.0,78.0,78.0,2,2.0581302642822266,None,,,,,0,0,0,0,0,82,82,102,296.96628618240356,,,,,,,,,,,,,,,,,,,,,,,,,,,,,,,,,,,,,,,,,,,,,,,,,,,,,,,,,,,,,,,,,,,,,,,,,,,,,,,,,133.0,57.0,57.0,133.0,78.0,78.0,1.0,1.1,-671,275,-480,279,-278,260,296.9521622657776,296.9522635936737,296.9554102420807,296.96628618240356,297.1100912094116,297.1100912094116,297.1100912094116,297.1100912094116,297.1100912094116,297.1100912094116,297.1100912094116,299.0315854549408,2,2.0581302642822266,None,,,,,,,,,,,,,,,,,,160,1,2025-02-28_13h16.37.866,comp,2024.2.4,53.75162755410656,2025-02-28 13h16.48.891229 -0500,
83,83,0,critical,hdw,35.0,2.1,lower,133.0,57.0,70.0,70.0,57.0,133.0,3,1.989755392074585,None,,,,,0,0,0,0,0,83,83,44,299.0495557785034,,,,,,,,,,,,,,,,,,,,,,,,,,,,,,,,,,,,,,,,,,,,,,,,,,,,,,,,,,,,,,,,,,,,,,,,,,,,,,,,,133.0,57.0,70.0,70.0,57.0,133.0,2.1,2.12,-160,-277,0,-254,198,250,299.0331313610077,299.03324794769287,299.03650975227356,299.0495557785034,299.1972608566284,299.1972608566284,299.1972608566284,299.1972608566284,299.1972608566284,299.1972608566284,299.1972608566284,301.04849100112915,3,1.989755392074585,None,,,,,,,,,,,,,,,,,,160,1,2025-02-28_13h16.37.866,comp,2024.2.4,53.75162755410656,2025-02-28 13h16.48.891229 -0500,
84,84,0,critical,hdw,35.0,3.0,lower,133.0,57.0,70.0,70.0,57.0,133.0,1,3.3985557556152344,None,,,,,0,0,0,0,0,84,84,110,301.0644676685333,,,,,,,,,,,,,,,,,,,,,,,,,,,,,,,,,,,,,,,,,,,,,,,,,,,,,,,,,,,,,,,,,,,,,,,,,,,,,,,,,133.0,57.0,70.0,70.0,57.0,133.0,3.0,3.2,-160,-272,0,-1,198,282,301.05012607574463,301.0502290725708,301.0536890029907,301.0644676685333,301.21645641326904,301.21645641326904,301.21645641326904,301.21645641326904,301.21645641326904,301.21645641326904,301.21645641326904,304.47183084487915,1,3.3985557556152344,None,,,,,,,,,,,,,,,,,,160,1,2025-02-28_13h16.37.866,comp,2024.2.4,53.75162755410656,2025-02-28 13h16.48.891229 -0500,
85,85,0,critical,dhw,20.0,1.0,upper,141.0,141.0,200.0,125.0,125.0,200.0,2,1.1559600830078125,None,,,,,0,0,0,0,0,85,85,55,304.49082040786743,,,,,,,,,,,,,,,,,,,,,,,,,,,,,,,,,,,,,,,,,,,,,,,,,,,,,,,,,,,,,,,,,,,,,,,,,,,,,,,,,141.0,141.0,200.0,125.0,125.0,200.0,1.0,1.1,-709,279,-480,281,-222,264,304.47335481643677,304.47343277931213,304.47633361816406,304.49082040786743,304.6318669319153,304.6318669319153,304.6318669319153,304.6318669319153,304.6318669319153,304.6318669319153,304.6318669319153,305.6516661643982,2,1.1559600830078125,None,,,,,,,,,,,,,,,,,,160,1,2025-02-28_13h16.37.866,comp,2024.2.4,53.75162755410656,2025-02-28 13h16.48.891229 -0500,
86,86,0,critical,hwd,35.0,2.1,upper,200.0,125.0,125.0,200.0,127.0,127.0,2,4.387282848358154,None,,,,,0,0,0,0,0,86,86,17,305.6672511100769,,,,,,,,,,,,,,,,,,,,,,,,,,,,,,,,,,,,,,,,,,,,,,,,,,,,,,,,,,,,,,,,,,,,,,,,,,,,,,,,,200.0,125.0,125.0,200.0,127.0,127.0,2.1,2.12,-258,-271,0,-279,260,264,305.65334939956665,305.65342831611633,305.6565978527069,305.6672511100769,305.8158657550812,305.8158657550812,305.8158657550812,305.8158657550812,305.8158657550812,305.8158657550812,305.8158657550812,310.06914019584656,2,4.387282848358154,None,,,,,,,,,,,,,,,,,,160,1,2025-02-28_13h16.37.866,comp,2024.2.4,53.75162755410656,2025-02-28 13h16.48.891229 -0500,
87,87,0,filler_square,None,None,None,None,None,None,None,None,None,None,2,2.264848232269287,None,,,,,0,0,0,0,0,87,87,190,310.08564281463623,,,,,,,,,,,,,,,,,,,,,,,,,,,,,,,,,,,,,,,,,,,,,,,,,,,,,,,,,,,,,,,,,,,,,,,,,,,,,,,,,65.04525333590192,101.84024370105442,122.5011022754096,95.8837255587227,123.15187273796016,123.15187273796016,3.0,3.2,-195,-268,0,-7,206,264,310.07107305526733,310.07115173339844,310.0743854045868,310.08564281463623,310.24053716659546,310.24053716659546,310.24053716659546,310.24053716659546,310.24053716659546,310.24053716659546,310.24053716659546,312.3671123981476,2,2.264848232269287,None,,,,,,,,,,,,,,,,,,160,1,2025-02-28_13h16.37.866,comp,2024.2.4,53.75162755410656,2025-02-28 13h16.48.891229 -0500,
88,88,0,critical,hdw,35.0,2.1,upper,200.0,125.0,127.0,127.0,125.0,200.0,1,2.191864252090454,None,,,,,0,0,0,0,0,88,88,45,312.3825659751892,,,,,,,,,,,,,,,,,,,,,,,,,,,,,,,,,,,,,,,,,,,,,,,,,,,,,,,,,,,,,,,,,,,,,,,,,,,,,,,,,200.0,125.0,127.0,127.0,125.0,200.0,2.1,2.12,-222,-287,0,-254,260,267,312.36868119239807,312.36875677108765,312.3719906806946,312.3825659751892,312.5338661670685,312.5338661670685,312.5338661670685,312.5338661670685,312.5338661670685,312.5338661670685,312.5338661670685,314.58392453193665,1,2.191864252090454,None,,,,,,,,,,,,,,,,,,160,1,2025-02-28_13h16.37.866,comp,2024.2.4,53.75162755410656,2025-02-28 13h16.48.891229 -0500,
89,89,0,critical,dwh,35.0,2.1,lower,70.0,70.0,57.0,133.0,133.0,57.0,2,3.1348090171813965,None,,,,,0,0,0,0,0,89,89,4,314.6003224849701,,,,,,,,,,,,,,,,,,,,,,,,,,,,,,,,,,,,,,,,,,,,,,,,,,,,,,,,,,,,,,,,,,,,,,,,,,,,,,,,,70.0,70.0,57.0,133.0,133.0,57.0,2.1,2.11,-198,290,0,264,191,-272,314.5855784416199,314.58565759658813,314.58914256095886,314.6003224849701,314.75151538848877,314.75151538848877,314.75151538848877,314.75151538848877,314.75151538848877,314.75151538848877,314.75151538848877,317.7520887851715,2,3.1348090171813965,None,,,,,,,,,,,,,,,,,,160,1,2025-02-28_13h16.37.866,comp,2024.2.4,53.75162755410656,2025-02-28 13h16.48.891229 -0500,
90,90,0,catch,None,None,None,None,None,None,None,None,None,None,3,1.0381710529327393,None,,,,,0,0,0,0,0,90,90,126,317.76857805252075,,,,,,,,,,,,,,,,,,,,,,,,,,,,,,,,,,,,,,,,,,,,,,,,,,,,,,,,,,,,,,,,,,,,,,,,,,,,,,,,,120,70,68,122,126,199,3.0,3.2,-192,-287,0,-11,256,276,317.75407099723816,317.75414848327637,317.7573735713959,317.76857805252075,317.90838527679443,317.90838527679443,317.90838527679443,317.90838527679443,317.90838527679443,317.90838527679443,317.90838527679443,318.8121221065521,3,1.0381710529327393,None,,,,,,,,,,,,,,,,,,160,1,2025-02-28_13h16.37.866,comp,2024.2.4,53.75162755410656,2025-02-28 13h16.48.891229 -0500,
91,91,0,filler_square,None,None,None,None,None,None,None,None,None,None,3,1.3903782367706299,None,,,,,0,0,0,0,0,91,91,173,318.8326110839844,,,,,,,,,,,,,,,,,,,,,,,,,,,,,,,,,,,,,,,,,,,,,,,,,,,,,,,,,,,,,,,,,,,,,,,,,,,,,,,,,97.86089309812917,74.88107458726012,96.19138739867489,59.0460557752475,110.03467369054331,110.03467369054331,4.0,4.1,-163,-253,0,11,181,-278,318.8139863014221,318.8140664100647,318.8169891834259,318.8326110839844,318.97410798072815,318.97410798072815,318.97410798072815,318.97410798072815,318.97410798072815,318.97410798072815,318.97410798072815,320.2273979187012,3,1.3903782367706299,None,,,,,,,,,,,,,,,,,,160,1,2025-02-28_13h16.37.866,comp,2024.2.4,53.75162755410656,2025-02-28 13h16.48.891229 -0500,
92,92,0,critical,dwh,20.0,3.0,lower,78.0,78.0,57.0,133.0,133.0,57.0,2,3.5230464935302734,None,,,,,0,0,0,0,0,92,92,68,320.2442252635956,,,,,,,,,,,,,,,,,,,,,,,,,,,,,,,,,,,,,,,,,,,,,,,,,,,,,,,,,,,,,,,,,,,,,,,,,,,,,,,,,78.0,78.0,57.0,133.0,133.0,57.0,3.0,3.1,-202,254,0,16,191,-266,320.2292568683624,320.229394197464,320.23257088661194,320.2442252635956,320.3904347419739,320.3904347419739,320.3904347419739,320.3904347419739,320.3904347419739,320.3904347419739,320.3904347419739,323.77308988571167,2,3.5230464935302734,None,,,,,,,,,,,,,,,,,,160,1,2025-02-28_13h16.37.866,comp,2024.2.4,53.75162755410656,2025-02-28 13h16.48.891229 -0500,
93,93,0,critical,hdw,35.0,3.0,upper,200.0,125.0,127.0,127.0,125.0,200.0,1,1.832902193069458,None,,,,,0,0,0,0,0,93,93,111,323.78961396217346,,,,,,,,,,,,,,,,,,,,,,,,,,,,,,,,,,,,,,,,,,,,,,,,,,,,,,,,,,,,,,,,,,,,,,,,,,,,,,,,,200.0,125.0,127.0,127.0,125.0,200.0,3.0,3.2,-222,-272,0,5,260,264,323.77470302581787,323.7747962474823,323.77838230133057,323.78961396217346,323.93958950042725,323.93958950042725,323.93958950042725,323.93958950042725,323.93958950042725,323.93958950042725,323.93958950042725,325.638959646225,1,1.832902193069458,None,,,,,,,,,,,,,,,,,,160,1,2025-02-28_13h16.37.866,comp,2024.2.4,53.75162755410656,2025-02-28 13h16.48.891229 -0500,
94,94,0,filler_square,None,None,None,None,None,None,None,None,None,None,2,0.9276759624481201,None,,,,,0,0,0,0,0,94,94,182,325.65533685684204,,,,,,,,,,,,,,,,,,,,,,,,,,,,,,,,,,,,,,,,,,,,,,,,,,,,,,,,,,,,,,,,,,,,,,,,,,,,,,,,,89.38994000669567,102.41537130949499,155.9197157074816,155.9197157074816,100.17039767401369,61.94383777135274,3.0,3.2,-225,-279,0,-2,205,269,325.6409134864807,325.64099287986755,325.64443469047546,325.65533685684204,325.8069245815277,325.8069245815277,325.8069245815277,325.8069245815277,325.8069245815277,325.8069245815277,325.8069245815277,326.5913290977478,2,0.9276759624481201,None,,,,,,,,,,,,,,,,,,160,1,2025-02-28_13h16.37.866,comp,2024.2.4,53.75162755410656,2025-02-28 13h16.48.891229 -0500,
95,95,0,catch,None,None,None,None,None,None,None,None,None,None,2,1.5183050632476807,None,,,,,0,0,0,0,0,95,95,120,326.60826778411865,,,,,,,,,,,,,,,,,,,,,,,,,,,,,,,,,,,,,,,,,,,,,,,,,,,,,,,,,,,,,,,,,,,,,,,,,,,,,,,,,126,64,174,151,106,84,4.0,4.1,-204,-283,0,-18,214,-271,326.5935928821564,326.59367537498474,326.5974314212799,326.60826778411865,326.75888895988464,326.75888895988464,326.75888895988464,326.75888895988464,326.75888895988464,326.75888895988464,326.75888895988464,328.1399710178375,2,1.5183050632476807,None,,,,,,,,,,,,,,,,,,160,1,2025-02-28_13h16.37.866,comp,2024.2.4,53.75162755410656,2025-02-28 13h16.48.891229 -0500,
96,96,0,filler_random,None,None,None,None,None,None,None,None,None,None,1,1.2022686004638672,None,,,,,0,0,0,0,0,96,96,158,328.15620470046997,,,,,,,,,,,,,,,,,,,,,,,,,,,,,,,,,,,,,,,,,,,,,,,,,,,,,,,,,,,,,,,,,,,,,,,,,,,,,,,,,169.1937442472647,182.76698034078572,93.15814230026018,174.86136549664903,141.1354358501622,136.63918424556903,1.0,1.1,-755,263,-480,269,-228,254,328.14200592041016,328.14208364486694,328.14564990997314,328.15620470046997,328.3094823360443,328.3094823360443,328.3094823360443,328.3094823360443,328.3094823360443,328.3094823360443,328.3094823360443,329.36136651039124,1,1.2022686004638672,None,,,,,,,,,,,,,,,,,,160,1,2025-02-28_13h16.37.866,comp,2024.2.4,53.75162755410656,2025-02-28 13h16.48.891229 -0500,
97,97,0,critical,hwd,35.0,2.1,lower,133.0,57.0,57.0,133.0,70.0,70.0,2,3.5814177989959717,None,,,,,0,0,0,0,0,97,97,16,329.377268075943,,,,,,,,,,,,,,,,,,,,,,,,,,,,,,,,,,,,,,,,,,,,,,,,,,,,,,,,,,,,,,,,,,,,,,,,,,,,,,,,,133.0,57.0,57.0,133.0,70.0,70.0,2.1,2.12,-191,-288,0,-270,198,260,329.3629243373871,329.36300683021545,329.36628818511963,329.377268075943,329.5246777534485,329.5246777534485,329.5246777534485,329.5246777534485,329.5246777534485,329.5246777534485,329.5246777534485,332.9720857143402,2,3.5814177989959717,None,,,,,,,,,,,,,,,,,,160,1,2025-02-28_13h16.37.866,comp,2024.2.4,53.75162755410656,2025-02-28 13h16.48.891229 -0500,
98,98,0,filler_random,None,None,None,None,None,None,None,None,None,None,3,0.953925609588623,None,,,,,0,0,0,0,0,98,98,147,332.9885618686676,,,,,,,,,,,,,,,,,,,,,,,,,,,,,,,,,,,,,,,,,,,,,,,,,,,,,,,,,,,,,,,,,,,,,,,,,,,,,,,,,132.31887874469288,76.17914942245741,86.82272298623069,85.21689488656047,192.91579381277504,166.54299011746195,1.0,1.2,-177,8,0,4,222,-14,332.97382044792175,332.9739007949829,332.97684717178345,332.9885618686676,333.12642550468445,333.12642550468445,333.12642550468445,333.12642550468445,333.12642550468445,333.12642550468445,333.12642550468445,333.959361076355,3,0.953925609588623,None,,,,,,,,,,,,,,,,,,160,1,2025-02-28_13h16.37.866,comp,2024.2.4,53.75162755410656,2025-02-28 13h16.48.891229 -0500,
99,99,0,filler_random,None,None,None,None,None,None,None,None,None,None,1,2.2783308029174805,None,,,,,0,0,0,0,0,99,99,148,333.9764029979706,,,,,,,,,,,,,,,,,,,,,,,,,,,,,,,,,,,,,,,,,,,,,,,,,,,,,,,,,,,,,,,,,,,,,,,,,,,,,,,,,153.67812636578822,158.7918578328899,135.1483808781507,87.01949598326638,105.19575476945857,141.91743239605836,3.0,3.2,-219,-266,0,0,210,258,333.9614312648773,333.9615168571472,333.9651505947113,333.9764029979706,334.12476086616516,334.12476086616516,334.12476086616516,334.12476086616516,334.12476086616516,334.12476086616516,334.12476086616516,336.2592136859894,1,2.2783308029174805,None,,,,,,,,,,,,,,,,,,160,1,2025-02-28_13h16.37.866,comp,2024.2.4,53.75162755410656,2025-02-28 13h16.48.891229 -0500,
100,100,0,critical,whd,35.0,2.1,upper,125.0,200.0,200.0,125.0,127.0,127.0,2,1.700171947479248,None,,,,,0,0,0,0,0,100,100,37,336.2751121520996,,,,,,,,,,,,,,,,,,,,,,,,,,,,,,,,,,,,,,,,,,,,,,,,,,,,,,,,,,,,,,,,,,,,,,,,,,,,,,,,,125.0,200.0,200.0,125.0,127.0,127.0,2.1,2.12,-258,-261,0,-276,222,255,336.26084661483765,336.26092886924744,336.2643711566925,336.2751121520996,336.4269552230835,336.4269552230835,336.4269552230835,336.4269552230835,336.4269552230835,336.4269552230835,336.4269552230835,337.97776556015015,2,1.700171947479248,None,,,,,,,,,,,,,,,,,,160,1,2025-02-28_13h16.37.866,comp,2024.2.4,53.75162755410656,2025-02-28 13h16.48.891229 -0500,
101,101,0,filler_square,None,None,None,None,None,None,None,None,None,None,2,1.1967363357543945,None,,,,,0,0,0,0,0,101,101,188,337.9945662021637,,,,,,,,,,,,,,,,,,,,,,,,,,,,,,,,,,,,,,,,,,,,,,,,,,,,,,,,,,,,,,,,,,,,,,,,,,,,,,,,,140.32607450017446,140.412987341585,175.44632944232973,175.44632944232973,80.53768375129752,166.7701954059595,4.0,4.2,-254,-5,0,-278,267,6,337.97969818115234,337.9797809123993,337.98274850845337,337.9945662021637,338.13130474090576,338.13130474090576,338.13130474090576,338.13130474090576,338.13130474090576,338.13130474090576,338.13130474090576,339.1938102245331,2,1.1967363357543945,None,,,,,,,,,,,,,,,,,,160,1,2025-02-28_13h16.37.866,comp,2024.2.4,53.75162755410656,2025-02-28 13h16.48.891229 -0500,
102,102,0,critical,dhw,20.0,2.1,lower,78.0,78.0,133.0,57.0,57.0,133.0,2,3.8538219928741455,None,,,,,0,0,0,0,0,102,102,2,339.2087233066559,,,,,,,,,,,,,,,,,,,,,,,,,,,,,,,,,,,,,,,,,,,,,,,,,,,,,,,,,,,,,,,,,,,,,,,,,,,,,,,,,78.0,78.0,133.0,57.0,57.0,133.0,2.1,2.12,-164,-261,0,-259,191,259,339.1954970359802,339.1955785751343,339.19882464408875,339.2087233066559,339.3612627983093,339.3612627983093,339.3612627983093,339.3612627983093,339.3612627983093,339.3612627983093,339.3612627983093,343.07801842689514,2,3.8538219928741455,None,,,,,,,,,,,,,,,,,,160,1,2025-02-28_13h16.37.866,comp,2024.2.4,53.75162755410656,2025-02-28 13h16.48.891229 -0500,
103,103,0,critical,hdw,20.0,3.0,lower,133.0,57.0,78.0,78.0,57.0,133.0,3,2.9052233695983887,None,,,,,0,0,0,0,0,103,103,116,343.0936133861542,,,,,,,,,,,,,,,,,,,,,,,,,,,,,,,,,,,,,,,,,,,,,,,,,,,,,,,,,,,,,,,,,,,,,,,,,,,,,,,,,133.0,57.0,78.0,78.0,57.0,133.0,3.0,3.1,-164,279,0,-1,202,-261,343.07953119277954,343.0796101093292,343.0828447341919,343.0936133861542,343.2449851036072,343.2449851036072,343.2449851036072,343.2449851036072,343.2449851036072,343.2449851036072,343.2449851036072,346.0120704174042,3,2.9052233695983887,None,,,,,,,,,,,,,,,,,,160,1,2025-02-28_13h16.37.866,comp,2024.2.4,53.75162755410656,2025-02-28 13h16.48.891229 -0500,
104,104,0,critical,dwh,20.0,2.1,upper,141.0,141.0,125.0,200.0,200.0,125.0,3,2.8738789558410645,None,,,,,0,0,0,0,0,104,104,7,346.02858686447144,,,,,,,,,,,,,,,,,,,,,,,,,,,,,,,,,,,,,,,,,,,,,,,,,,,,,,,,,,,,,,,,,,,,,,,,,,,,,,,,,141.0,141.0,125.0,200.0,200.0,125.0,2.1,2.11,-266,257,0,263,258,-257,346.01364040374756,346.0137188434601,346.0180416107178,346.02858686447144,346.1789004802704,346.1789004802704,346.1789004802704,346.1789004802704,346.1789004802704,346.1789004802704,346.1789004802704,348.91627860069275,3,2.8738789558410645,None,,,,,,,,,,,,,,,,,,160,1,2025-02-28_13h16.37.866,comp,2024.2.4,53.75162755410656,2025-02-28 13h16.48.891229 -0500,
105,105,0,filler_random,None,None,None,None,None,None,None,None,None,None,2,0.8557851314544678,None,,,,,0,0,0,0,0,105,105,132,348.935396194458,,,,,,,,,,,,,,,,,,,,,,,,,,,,,,,,,,,,,,,,,,,,,,,,,,,,,,,,,,,,,,,,,,,,,,,,,,,,,,,,,182.38454392406916,68.12759070923848,156.53040815594073,196.24031696725743,175.11603605311268,77.13240527407797,4.0,4.2,-228,3,0,-270,233,-11,348.9181618690491,348.91827964782715,348.92156195640564,348.935396194458,349.08575963974,349.08575963974,349.08575963974,349.08575963974,349.08575963974,349.08575963974,349.08575963974,349.80036211013794,2,0.8557851314544678,None,,,,,,,,,,,,,,,,,,160,1,2025-02-28_13h16.37.866,comp,2024.2.4,53.75162755410656,2025-02-28 13h16.48.891229 -0500,
106,106,0,filler_random,None,None,None,None,None,None,None,None,None,None,1,1.3085298538208008,None,,,,,0,0,0,0,0,106,106,163,349.8188157081604,,,,,,,,,,,,,,,,,,,,,,,,,,,,,,,,,,,,,,,,,,,,,,,,,,,,,,,,,,,,,,,,,,,,,,,,,,,,,,,,,158.10986355270202,167.61144707384136,83.83226039185281,171.02439307325056,57.82640383557796,71.06161644210658,3.0,3.1,-265,254,0,12,217,-254,349.80232095718384,349.80239844322205,349.8056492805481,349.8188157081604,349.96411991119385,349.96411991119385,349.96411991119385,349.96411991119385,349.96411991119385,349.96411991119385,349.96411991119385,351.13062357902527,1,1.3085298538208008,None,,,,,,,,,,,,,,,,,,160,1,2025-02-28_13h16.37.866,comp,2024.2.4,53.75162755410656,2025-02-28 13h16.48.891229 -0500,
107,107,0,critical,whd,20.0,4.0,upper,125.0,200.0,200.0,125.0,141.0,141.0,2,5.764346599578857,None,,,,,0,0,0,0,0,107,107,95,351.1465599536896,,,,,,,,,,,,,,,,,,,,,,,,,,,,,,,,,,,,,,,,,,,,,,,,,,,,,,,,,,,,,,,,,,,,,,,,,,,,,,,,,125.0,200.0,200.0,125.0,141.0,141.0,4.0,4.2,-258,-5,0,-274,229,-1,351.13225865364075,351.13236832618713,351.1357009410858,351.1465599536896,351.29751229286194,351.29751229286194,351.29751229286194,351.29751229286194,351.29751229286194,351.29751229286194,351.29751229286194,356.91632604599,2,5.764346599578857,None,,,,,,,,,,,,,,,,,,160,1,2025-02-28_13h16.37.866,comp,2024.2.4,53.75162755410656,2025-02-28 13h16.48.891229 -0500,
108,108,0,critical,wdh,20.0,3.0,upper,125.0,200.0,141.0,141.0,200.0,125.0,3,1.6172029972076416,None,,,,,0,0,0,0,0,108,108,81,356.9334168434143,,,,,,,,,,,,,,,,,,,,,,,,,,,,,,,,,,,,,,,,,,,,,,,,,,,,,,,,,,,,,,,,,,,,,,,,,,,,,,,,,125.0,200.0,141.0,141.0,200.0,125.0,3.0,3.1,-266,278,0,-18,229,-285,356.91787338256836,356.91795206069946,356.9212899208069,356.9334168434143,357.08314990997314,357.08314990997314,357.08314990997314,357.08314990997314,357.08314990997314,357.08314990997314,357.08314990997314,358.5647482872009,3,1.6172029972076416,None,,,,,,,,,,,,,,,,,,160,1,2025-02-28_13h16.37.866,comp,2024.2.4,53.75162755410656,2025-02-28 13h16.48.891229 -0500,
109,109,0,critical,hdw,20.0,2.1,upper,200.0,125.0,141.0,141.0,125.0,200.0,1,1.8725976943969727,None,,,,,0,0,0,0,0,109,109,23,358.5824990272522,,,,,,,,,,,,,,,,,,,,,,,,,,,,,,,,,,,,,,,,,,,,,,,,,,,,,,,,,,,,,,,,,,,,,,,,,,,,,,,,,200.0,125.0,141.0,141.0,125.0,200.0,2.1,2.12,-229,-277,0,-280,266,287,358.5663549900055,358.56646156311035,358.5697703361511,358.5824990272522,358.71758460998535,358.71758460998535,358.71758460998535,358.71758460998535,358.71758460998535,358.71758460998535,358.71758460998535,360.4596586227417,1,1.8725976943969727,None,,,,,,,,,,,,,,,,,,160,1,2025-02-28_13h16.37.866,comp,2024.2.4,53.75162755410656,2025-02-28 13h16.48.891229 -0500,
110,110,0,critical,dhw,20.0,3.0,upper,141.0,141.0,200.0,125.0,125.0,200.0,3,1.7433311939239502,None,,,,,0,0,0,0,0,110,110,57,360.47939014434814,,,,,,,,,,,,,,,,,,,,,,,,,,,,,,,,,,,,,,,,,,,,,,,,,,,,,,,,,,,,,,,,,,,,,,,,,,,,,,,,,141.0,141.0,200.0,125.0,125.0,200.0,3.0,3.1,-229,271,0,12,258,-282,360.46121430397034,360.4612958431244,360.4642159938812,360.47939014434814,360.6174228191376,360.6174228191376,360.6174228191376,360.6174228191376,360.6174228191376,360.6174228191376,360.6174228191376,362.23928809165955,3,1.7433311939239502,None,,,,,,,,,,,,,,,,,,160,1,2025-02-28_13h16.37.866,comp,2024.2.4,53.75162755410656,2025-02-28 13h16.48.891229 -0500,
111,111,0,critical,hwd,20.0,2.1,lower,133.0,57.0,57.0,133.0,78.0,78.0,2,1.718869924545288,None,,,,,0,0,0,0,0,111,111,18,362.2557442188263,,,,,,,,,,,,,,,,,,,,,,,,,,,,,,,,,,,,,,,,,,,,,,,,,,,,,,,,,,,,,,,,,,,,,,,,,,,,,,,,,133.0,57.0,57.0,133.0,78.0,78.0,2.1,2.12,-191,-254,0,-268,202,252,362.24092984199524,362.2410604953766,362.2443571090698,362.2557442188263,362.401242017746,362.401242017746,362.401242017746,362.401242017746,362.401242017746,362.401242017746,362.401242017746,363.99151968955994,2,1.718869924545288,None,,,,,,,,,,,,,,,,,,160,1,2025-02-28_13h16.37.866,comp,2024.2.4,53.75162755410656,2025-02-28 13h16.48.891229 -0500,
112,112,0,filler_random,None,None,None,None,None,None,None,None,None,None,2,4.075561285018921,None,,,,,0,0,0,0,0,112,112,141,364.01113533973694,,,,,,,,,,,,,,,,,,,,,,,,,,,,,,,,,,,,,,,,,,,,,,,,,,,,,,,,,,,,,,,,,,,,,,,,,,,,,,,,,123.97231497158454,132.81718770761424,78.43037344849014,171.04092461351036,152.16248105471237,89.2976633246159,2.1,2.12,-248,-265,0,-266,226,270,363.99330615997314,363.9933867454529,363.9962966442108,364.01113533973694,364.156756401062,364.156756401062,364.156756401062,364.156756401062,364.156756401062,364.156756401062,364.156756401062,368.0892357826233,2,4.075561285018921,None,,,,,,,,,,,,,,,,,,160,1,2025-02-28_13h16.37.866,comp,2024.2.4,53.75162755410656,2025-02-28 13h16.48.891229 -0500,
113,113,0,filler_square,None,None,None,None,None,None,None,None,None,None,3,2.2029314041137695,None,,,,,0,0,0,0,0,113,113,174,368.10859870910645,,,,,,,,,,,,,,,,,,,,,,,,,,,,,,,,,,,,,,,,,,,,,,,,,,,,,,,,,,,,,,,,,,,,,,,,,,,,,,,,,68.40964185848927,77.41518284650829,78.32257067708584,99.40617419677741,138.9565461009791,138.9565461009791,3.0,3.2,-184,-288,0,5,215,287,368.0914707183838,368.09155321121216,368.09490036964417,368.10859870910645,368.2524209022522,368.2524209022522,368.2524209022522,368.2524209022522,368.2524209022522,368.2524209022522,368.2524209022522,370.32008838653564,3,2.2029314041137695,None,,,,,,,,,,,,,,,,,,160,1,2025-02-28_13h16.37.866,comp,2024.2.4,53.75162755410656,2025-02-28 13h16.48.891229 -0500,
114,114,0,critical,whd,20.0,2.1,upper,125.0,200.0,200.0,125.0,141.0,141.0,2,1.3667659759521484,None,,,,,0,0,0,0,0,114,114,15,370.33664727211,,,,,,,,,,,,,,,,,,,,,,,,,,,,,,,,,,,,,,,,,,,,,,,,,,,,,,,,,,,,,,,,,,,,,,,,,,,,,,,,,125.0,200.0,200.0,125.0,141.0,141.0,2.1,2.12,-258,-260,0,-272,229,284,370.32175636291504,370.3218364715576,370.3253026008606,370.33664727211,370.48673963546753,370.48673963546753,370.48673963546753,370.48673963546753,370.48673963546753,370.48673963546753,370.48673963546753,371.7206461429596,2,1.3667659759521484,None,,,,,,,,,,,,,,,,,,160,1,2025-02-28_13h16.37.866,comp,2024.2.4,53.75162755410656,2025-02-28 13h16.48.891229 -0500,
115,115,0,critical,wdh,35.0,2.1,lower,57.0,133.0,70.0,70.0,133.0,57.0,1,2.238365650177002,None,,,,,0,0,0,0,0,115,115,32,371.73623728752136,,,,,,,,,,,,,,,,,,,,,,,,,,,,,,,,,,,,,,,,,,,,,,,,,,,,,,,,,,,,,,,,,,,,,,,,,,,,,,,,,57.0,133.0,70.0,70.0,133.0,57.0,2.1,2.11,-198,253,0,280,160,-255,371.72220730781555,371.7222900390625,371.7255277633667,371.73623728752136,371.885596036911,371.885596036911,371.885596036911,371.885596036911,371.885596036911,371.885596036911,371.885596036911,373.98676443099976,1,2.238365650177002,None,,,,,,,,,,,,,,,,,,160,1,2025-02-28_13h16.37.866,comp,2024.2.4,53.75162755410656,2025-02-28 13h16.48.891229 -0500,
116,116,0,critical,whd,35.0,4.0,lower,57.0,133.0,133.0,57.0,70.0,70.0,1,6.349839925765991,None,,,,,0,0,0,0,0,116,116,88,374.00319170951843,,,,,,,,,,,,,,,,,,,,,,,,,,,,,,,,,,,,,,,,,,,,,,,,,,,,,,,,,,,,,,,,,,,,,,,,,,,,,,,,,57.0,133.0,133.0,57.0,70.0,70.0,4.0,4.1,-191,-282,0,-12,160,-271,373.9884169101715,373.98854660987854,373.99188208580017,374.00319170951843,374.13885831832886,374.13885831832886,374.13885831832886,374.13885831832886,374.13885831832886,374.13885831832886,374.13885831832886,380.371702671051,1,6.349839925765991,None,,,,,,,,,,,,,,,,,,160,1,2025-02-28_13h16.37.866,comp,2024.2.4,53.75162755410656,2025-02-28 13h16.48.891229 -0500,
117,117,0,critical,whd,20.0,2.1,lower,57.0,133.0,133.0,57.0,78.0,78.0,2,2.9396424293518066,None,,,,,0,0,0,0,0,117,117,14,380.3873474597931,,,,,,,,,,,,,,,,,,,,,,,,,,,,,,,,,,,,,,,,,,,,,,,,,,,,,,,,,,,,,,,,,,,,,,,,,,,,,,,,,57.0,133.0,133.0,57.0,78.0,78.0,2.1,2.12,-191,-283,0,-265,164,290,380.3733229637146,380.37340021133423,380.37683296203613,380.3873474597931,380.542649269104,380.542649269104,380.542649269104,380.542649269104,380.542649269104,380.542649269104,380.542649269104,383.33039689064026,2,2.9396424293518066,None,,,,,,,,,,,,,,,,,,160,1,2025-02-28_13h16.37.866,comp,2024.2.4,53.75162755410656,2025-02-28 13h16.48.891229 -0500,
118,118,0,filler_square,None,None,None,None,None,None,None,None,None,None,3,2.462932825088501,None,,,,,0,0,0,0,0,118,118,193,383.35166001319885,,,,,,,,,,,,,,,,,,,,,,,,,,,,,,,,,,,,,,,,,,,,,,,,,,,,,,,,,,,,,,,,,,,,,,,,,,,,,,,,,80.92099148373879,95.08075889015318,101.33642292345563,101.33642292345563,98.84704888664804,100.19267246113415,3.0,3.1,-194,274,0,12,197,-258,383.3324987888336,383.33257508277893,383.33578157424927,383.35166001319885,383.4868903160095,383.4868903160095,383.4868903160095,383.4868903160095,383.4868903160095,383.4868903160095,383.4868903160095,385.82482981681824,3,2.462932825088501,None,,,,,,,,,,,,,,,,,,160,1,2025-02-28_13h16.37.866,comp,2024.2.4,53.75162755410656,2025-02-28 13h16.48.891229 -0500,
119,119,0,critical,whd,35.0,2.1,upper,125.0,200.0,200.0,125.0,127.0,127.0,1,3.5964770317077637,None,,,,,0,0,0,0,0,119,119,13,385.8425176143646,,,,,,,,,,,,,,,,,,,,,,,,,,,,,,,,,,,,,,,,,,,,,,,,,,,,,,,,,,,,,,,,,,,,,,,,,,,,,,,,,125.0,200.0,200.0,125.0,127.0,127.0,2.1,2.12,-258,-269,0,-279,222,278,385.8264093399048,385.8264887332916,385.83058881759644,385.8425176143646,385.99579071998596,385.99579071998596,385.99579071998596,385.99579071998596,385.99579071998596,385.99579071998596,385.99579071998596,389.45654487609863,1,3.5964770317077637,None,,,,,,,,,,,,,,,,,,160,1,2025-02-28_13h16.37.866,comp,2024.2.4,53.75162755410656,2025-02-28 13h16.48.891229 -0500,
120,120,0,filler_random,None,None,None,None,None,None,None,None,None,None,1,1.9872827529907227,None,,,,,0,0,0,0,0,120,120,144,389.475870847702,,,,,,,,,,,,,,,,,,,,,,,,,,,,,,,,,,,,,,,,,,,,,,,,,,,,,,,,,,,,,,,,,,,,,,,,,,,,,,,,,173.605895835083,148.17377673847972,180.09054122352788,145.30220076035408,70.19126070473241,114.0340545641402,4.0,4.1,-243,-251,0,-3,226,-288,389.45826864242554,389.45834708213806,389.4612455368042,389.475870847702,389.6338675022125,389.6338675022125,389.6338675022125,389.6338675022125,389.6338675022125,389.6338675022125,389.6338675022125,391.46858620643616,1,1.9872827529907227,None,,,,,,,,,,,,,,,,,,160,1,2025-02-28_13h16.37.866,comp,2024.2.4,53.75162755410656,2025-02-28 13h16.48.891229 -0500,
121,121,0,critical,hwd,35.0,3.0,lower,133.0,57.0,57.0,133.0,70.0,70.0,2,1.9609158039093018,None,,,,,0,0,0,0,0,121,121,98,391.48606181144714,,,,,,,,,,,,,,,,,,,,,,,,,,,,,,,,,,,,,,,,,,,,,,,,,,,,,,,,,,,,,,,,,,,,,,,,,,,,,,,,,133.0,57.0,57.0,133.0,70.0,70.0,3.0,3.2,-191,-255,0,-12,198,264,391.4700930118561,391.47019362449646,391.4731216430664,391.48606181144714,391.6272134780884,391.6272134780884,391.6272134780884,391.6272134780884,391.6272134780884,391.6272134780884,391.6272134780884,393.4499981403351,2,1.9609158039093018,None,,,,,,,,,,,,,,,,,,160,1,2025-02-28_13h16.37.866,comp,2024.2.4,53.75162755410656,2025-02-28 13h16.48.891229 -0500,
122,122,0,catch,None,None,None,None,None,None,None,None,None,None,2,1.1305463314056396,None,,,,,0,0,0,0,0,122,122,127,393.4689576625824,,,,,,,,,,,,,,,,,,,,,,,,,,,,,,,,,,,,,,,,,,,,,,,,,,,,,,,,,,,,,,,,,,,,,,,,,,,,,,,,,117,73,183,142,64,126,3.0,3.2,-204,-279,0,-14,230,290,393.4522545337677,393.45233368873596,393.45562648773193,393.4689576625824,393.610151052475,393.610151052475,393.610151052475,393.610151052475,393.610151052475,393.610151052475,393.610151052475,394.6188497543335,2,1.1305463314056396,None,,,,,,,,,,,,,,,,,,160,1,2025-02-28_13h16.37.866,comp,2024.2.4,53.75162755410656,2025-02-28 13h16.48.891229 -0500,
123,123,0,filler_random,None,None,None,None,None,None,None,None,None,None,3,5.0353991985321045,None,,,,,0,0,0,0,0,123,123,153,394.63621711730957,,,,,,,,,,,,,,,,,,,,,,,,,,,,,,,,,,,,,,,,,,,,,,,,,,,,,,,,,,,,,,,,,,,,,,,,,,,,,,,,,129.59744719905717,65.32006961011382,80.78374730260194,82.40065613156618,175.7847883712456,74.66753240349398,2.1,2.12,-170,-271,0,-280,175,275,394.62063789367676,394.62071800231934,394.62360167503357,394.63621711730957,394.77706718444824,394.77706718444824,394.77706718444824,394.77706718444824,394.77706718444824,394.77706718444824,394.77706718444824,399.68097734451294,3,5.0353991985321045,None,,,,,,,,,,,,,,,,,,160,1,2025-02-28_13h16.37.866,comp,2024.2.4,53.75162755410656,2025-02-28 13h16.48.891229 -0500,
124,124,0,filler_square,None,None,None,None,None,None,None,None,None,None,2,1.029179334640503,None,,,,,0,0,0,0,0,124,124,208,399.69785356521606,,,,,,,,,,,,,,,,,,,,,,,,,,,,,,,,,,,,,,,,,,,,,,,,,,,,,,,,,,,,,,,,,,,,,,,,,,,,,,,,,70.11275939035934,145.71872296551743,183.85620105942382,183.85620105942382,148.7674781197178,65.21112939400729,4.0,4.2,-261,-12,0,-266,221,-14,399.68296098709106,399.6830425262451,399.68698382377625,399.69785356521606,399.8510525226593,399.8510525226593,399.8510525226593,399.8510525226593,399.8510525226593,399.8510525226593,399.8510525226593,400.74504351615906,2,1.029179334640503,None,,,,,,,,,,,,,,,,,,160,1,2025-02-28_13h16.37.866,comp,2024.2.4,53.75162755410656,2025-02-28 13h16.48.891229 -0500,
125,125,0,filler_random,None,None,None,None,None,None,None,None,None,None,1,1.4458913803100586,None,,,,,0,0,0,0,0,125,125,151,400.76140093803406,,,,,,,,,,,,,,,,,,,,,,,,,,,,,,,,,,,,,,,,,,,,,,,,,,,,,,,,,,,,,,,,,,,,,,,,,,,,,,,,,169.84108568597048,131.34180106358738,174.93471004554158,90.62595727331174,97.58430217149021,180.70706565321524,2.1,2.12,-207,-289,0,-278,232,250,400.74684834480286,400.74692726135254,400.75007343292236,400.76140093803406,400.914030790329,400.914030790329,400.914030790329,400.914030790329,400.914030790329,400.914030790329,400.914030790329,402.212397813797,1,1.4458913803100586,None,,,,,,,,,,,,,,,,,,160,1,2025-02-28_13h16.37.866,comp,2024.2.4,53.75162755410656,2025-02-28 13h16.48.891229 -0500,
126,126,0,critical,dwh,20.0,1.0,upper,141.0,141.0,125.0,200.0,200.0,125.0,2,5.421483993530273,None,,,,,0,0,0,0,0,126,126,67,402.23333168029785,,,,,,,,,,,,,,,,,,,,,,,,,,,,,,,,,,,,,,,,,,,,,,,,,,,,,,,,,,,,,,,,,,,,,,,,,,,,,,,,,141.0,141.0,125.0,200.0,200.0,125.0,1.0,1.2,-266,-8,0,-14,258,-1,402.21406960487366,402.2141489982605,402.21764755249023,402.23333168029785,402.37980580329895,402.37980580329895,402.37980580329895,402.37980580329895,402.37980580329895,402.37980580329895,402.37980580329895,407.66938972473145,2,5.421483993530273,None,,,,,,,,,,,,,,,,,,160,1,2025-02-28_13h16.37.866,comp,2024.2.4,53.75162755410656,2025-02-28 13h16.48.891229 -0500,
127,127,0,filler_square,None,None,None,None,None,None,None,None,None,None,2,0.7205080986022949,None,,,,,0,0,0,0,0,127,127,207,407.68645453453064,,,,,,,,,,,,,,,,,,,,,,,,,,,,,,,,,,,,,,,,,,,,,,,,,,,,,,,,,,,,,,,,,,,,,,,,,,,,,,,,,61.84830711418472,98.02269679175653,158.39284623982263,158.39284623982263,77.26419717059021,75.33590192879538,3.0,3.2,-224,-282,0,-19,213,255,407.6714897155762,407.6715729236603,407.6752510070801,407.68645453453064,407.83158898353577,407.83158898353577,407.83158898353577,407.83158898353577,407.83158898353577,407.83158898353577,407.83158898353577,408.4195168018341,2,0.7205080986022949,None,,,,,,,,,,,,,,,,,,160,1,2025-02-28_13h16.37.866,comp,2024.2.4,53.75162755410656,2025-02-28 13h16.48.891229 -0500,
128,128,0,critical,wdh,20.0,2.1,upper,125.0,200.0,141.0,141.0,200.0,125.0,3,2.0763354301452637,None,,,,,0,0,0,0,0,128,128,11,408.43521213531494,,,,,,,,,,,,,,,,,,,,,,,,,,,,,,,,,,,,,,,,,,,,,,,,,,,,,,,,,,,,,,,,,,,,,,,,,,,,,,,,,125.0,200.0,141.0,141.0,200.0,125.0,2.1,2.11,-266,283,0,265,229,-272,408.42110085487366,408.42119812965393,408.4240572452545,408.43521213531494,408.5838813781738,408.5838813781738,408.5838813781738,408.5838813781738,408.5838813781738,408.5838813781738,408.5838813781738,410.5173604488373,3,2.0763354301452637,None,,,,,,,,,,,,,,,,,,160,1,2025-02-28_13h16.37.866,comp,2024.2.4,53.75162755410656,2025-02-28 13h16.48.891229 -0500,
129,129,0,filler_square,None,None,None,None,None,None,None,None,None,None,2,1.024359941482544,None,,,,,0,0,0,0,0,129,129,186,410.53459429740906,,,,,,,,,,,,,,,,,,,,,,,,,,,,,,,,,,,,,,,,,,,,,,,,,,,,,,,,,,,,,,,,,,,,,,,,,,,,,,,,,75.68670231025456,86.456023335847,113.90853869627504,113.90853869627504,100.81080691608975,75.07941257662264,3.0,3.2,-196,-261,0,-19,190,258,410.51939034461975,410.5194728374481,410.52237153053284,410.53459429740906,410.6861963272095,410.6861963272095,410.6861963272095,410.6861963272095,410.6861963272095,410.6861963272095,410.6861963272095,411.57965183258057,2,1.024359941482544,None,,,,,,,,,,,,,,,,,,160,1,2025-02-28_13h16.37.866,comp,2024.2.4,53.75162755410656,2025-02-28 13h16.48.891229 -0500,
130,130,0,filler_random,None,None,None,None,None,None,None,None,None,None,2,0.8869733810424805,None,,,,,0,0,0,0,0,130,130,142,411.60027503967285,,,,,,,,,,,,,,,,,,,,,,,,,,,,,,,,,,,,,,,,,,,,,,,,,,,,,,,,,,,,,,,,,,,,,,,,,,,,,,,,,97.69598000274334,66.93565821512284,192.96915824732025,170.0599864523216,136.4628508654259,65.09644246425837,2.1,2.12,-214,-287,0,-267,214,270,411.5814244747162,411.5815613269806,411.58482933044434,411.60027503967285,411.7336435317993,411.7336435317993,411.7336435317993,411.7336435317993,411.7336435317993,411.7336435317993,411.7336435317993,412.49333596229553,2,0.8869733810424805,None,,,,,,,,,,,,,,,,,,160,1,2025-02-28_13h16.37.866,comp,2024.2.4,53.75162755410656,2025-02-28 13h16.48.891229 -0500,
131,131,0,critical,whd,35.0,1.0,upper,125.0,200.0,200.0,125.0,127.0,127.0,1,4.527864694595337,None,,,,,0,0,0,0,0,131,131,85,412.51092052459717,,,,,,,,,,,,,,,,,,,,,,,,,,,,,,,,,,,,,,,,,,,,,,,,,,,,,,,,,,,,,,,,,,,,,,,,,,,,,,,,,125.0,200.0,200.0,125.0,127.0,127.0,1.0,1.3,222,-259,480,-286,702,-289,412.4949064254761,412.4949858188629,412.4978611469269,412.51092052459717,412.64896607398987,412.64896607398987,412.64896607398987,412.64896607398987,412.64896607398987,412.64896607398987,412.64896607398987,417.05033683776855,1,4.527864694595337,None,,,,,,,,,,,,,,,,,,160,1,2025-02-28_13h16.37.866,comp,2024.2.4,53.75162755410656,2025-02-28 13h16.48.891229 -0500,
132,132,0,critical,whd,20.0,3.0,upper,125.0,200.0,200.0,125.0,141.0,141.0,2,6.19318151473999,None,,,,,0,0,0,0,0,132,132,93,417.0700979232788,,,,,,,,,,,,,,,,,,,,,,,,,,,,,,,,,,,,,,,,,,,,,,,,,,,,,,,,,,,,,,,,,,,,,,,,,,,,,,,,,125.0,200.0,200.0,125.0,141.0,141.0,3.0,3.1,-258,276,0,12,229,-277,417.0518925189972,417.05197191238403,417.0549826622009,417.0700979232788,417.20922446250916,417.20922446250916,417.20922446250916,417.20922446250916,417.20922446250916,417.20922446250916,417.20922446250916,423.27237582206726,2,6.19318151473999,None,,,,,,,,,,,,,,,,,,160,1,2025-02-28_13h16.37.866,comp,2024.2.4,53.75162755410656,2025-02-28 13h16.48.891229 -0500,
133,133,0,critical,whd,20.0,3.0,lower,57.0,133.0,133.0,57.0,78.0,78.0,1,2.9714243412017822,None,,,,,0,0,0,0,0,133,133,92,423.2920813560486,,,,,,,,,,,,,,,,,,,,,,,,,,,,,,,,,,,,,,,,,,,,,,,,,,,,,,,,,,,,,,,,,,,,,,,,,,,,,,,,,57.0,133.0,133.0,57.0,78.0,78.0,3.0,3.2,-191,-279,0,-4,164,266,423.2742886543274,423.2744290828705,423.27753829956055,423.2920813560486,423.43751859664917,423.43751859664917,423.43751859664917,423.43751859664917,423.43751859664917,423.43751859664917,423.43751859664917,426.27121782302856,1,2.9714243412017822,None,,,,,,,,,,,,,,,,,,160,1,2025-02-28_13h16.37.866,comp,2024.2.4,53.75162755410656,2025-02-28 13h16.48.891229 -0500,
134,134,0,critical,hwd,20.0,2.1,lower,133.0,57.0,57.0,133.0,78.0,78.0,2,1.9188728332519531,None,,,,,0,0,0,0,0,134,134,42,426.28788471221924,,,,,,,,,,,,,,,,,,,,,,,,,,,,,,,,,,,,,,,,,,,,,,,,,,,,,,,,,,,,,,,,,,,,,,,,,,,,,,,,,133.0,57.0,57.0,133.0,78.0,78.0,2.1,2.12,-191,-266,0,-255,202,265,426.27275586128235,426.27283453941345,426.27696347236633,426.28788471221924,426.444837808609,426.444837808609,426.444837808609,426.444837808609,426.444837808609,426.444837808609,426.444837808609,428.22258472442627,2,1.9188728332519531,None,,,,,,,,,,,,,,,,,,160,1,2025-02-28_13h16.37.866,comp,2024.2.4,53.75162755410656,2025-02-28 13h16.48.891229 -0500,
135,135,0,critical,wdh,35.0,2.1,upper,125.0,200.0,127.0,127.0,200.0,125.0,3,2.505145311355591,None,,,,,0,0,0,0,0,135,135,33,428.2388939857483,,,,,,,,,,,,,,,,,,,,,,,,,,,,,,,,,,,,,,,,,,,,,,,,,,,,,,,,,,,,,,,,,,,,,,,,,,,,,,,,,125.0,200.0,127.0,127.0,200.0,125.0,2.1,2.11,-260,275,0,269,222,-272,428.22424840927124,428.2243278026581,428.2278275489807,428.2388939857483,428.3894634246826,428.3894634246826,428.3894634246826,428.3894634246826,428.3894634246826,428.3894634246826,428.3894634246826,430.7460300922394,3,2.505145311355591,None,,,,,,,,,,,,,,,,,,160,1,2025-02-28_13h16.37.866,comp,2024.2.4,53.75162755410656,2025-02-28 13h16.48.891229 -0500,
136,136,0,filler_square,None,None,None,None,None,None,None,None,None,None,3,1.2997956275939941,None,,,,,0,0,0,0,0,136,136,203,430.7640748023987,,,,,,,,,,,,,,,,,,,,,,,,,,,,,,,,,,,,,,,,,,,,,,,,,,,,,,,,,,,,,,,,,,,,,,,,,,,,,,,,,62.39428508065284,135.27231113934158,108.33442602584836,103.01534581590485,135.91247179447336,135.91247179447336,2.2,2.21,-215,-273,0,283,215,266,430.7478811740875,430.7479600906372,430.7508776187897,430.7640748023987,430.9064464569092,430.9064464569092,430.9064464569092,430.9064464569092,430.9064464569092,430.9064464569092,430.9064464569092,432.0717203617096,3,1.2997956275939941,None,,,,,,,,,,,,,,,,,,160,1,2025-02-28_13h16.37.866,comp,2024.2.4,53.75162755410656,2025-02-28 13h16.48.891229 -0500,
137,137,0,critical,dwh,35.0,1.0,lower,70.0,70.0,57.0,133.0,133.0,57.0,3,1.5032944679260254,None,,,,,0,0,0,0,0,137,137,60,432.0875108242035,,,,,,,,,,,,,,,,,,,,,,,,,,,,,,,,,,,,,,,,,,,,,,,,,,,,,,,,,,,,,,,,,,,,,,,,,,,,,,,,,70.0,70.0,57.0,133.0,133.0,57.0,1.0,1.2,-198,-19,0,-1,191,19,432.073233127594,432.07331109046936,432.0764648914337,432.0875108242035,432.2395794391632,432.2395794391632,432.2395794391632,432.2395794391632,432.2395794391632,432.2395794391632,432.2395794391632,433.60614800453186,3,1.5032944679260254,None,,,,,,,,,,,,,,,,,,160,1,2025-02-28_13h16.37.866,comp,2024.2.4,53.75162755410656,2025-02-28 13h16.48.891229 -0500,
138,138,0,critical,hdw,35.0,2.1,lower,133.0,57.0,70.0,70.0,57.0,133.0,1,3.1460037231445312,None,,,,,0,0,0,0,0,138,138,20,433.6218559741974,,,,,,,,,,,,,,,,,,,,,,,,,,,,,,,,,,,,,,,,,,,,,,,,,,,,,,,,,,,,,,,,,,,,,,,,,,,,,,,,,133.0,57.0,70.0,70.0,57.0,133.0,2.1,2.11,-160,275,0,262,198,-276,433.6078691482544,433.60800766944885,433.61148047447205,433.6218559741974,433.7712655067444,433.7712655067444,433.7712655067444,433.7712655067444,433.7712655067444,433.7712655067444,433.7712655067444,436.77250051498413,1,3.1460037231445312,None,,,,,,,,,,,,,,,,,,160,1,2025-02-28_13h16.37.866,comp,2024.2.4,53.75162755410656,2025-02-28 13h16.48.891229 -0500,
139,139,0,filler_random,None,None,None,None,None,None,None,None,None,None,3,1.1518526077270508,None,,,,,0,0,0,0,0,139,139,160,436.7908675670624,,,,,,,,,,,,,,,,,,,,,,,,,,,,,,,,,,,,,,,,,,,,,,,,,,,,,,,,,,,,,,,,,,,,,,,,,,,,,,,,,179.43389300582913,102.23251021311299,81.80589116330944,132.6031319038941,147.0682759173187,198.22215645366688,4.0,4.2,-213,-17,0,-262,261,4,436.7743864059448,436.77451181411743,436.7777934074402,436.7908675670624,436.9269948005676,436.9269948005676,436.9269948005676,436.9269948005676,436.9269948005676,436.9269948005676,436.9269948005676,437.95760321617126,3,1.1518526077270508,None,,,,,,,,,,,,,,,,,,160,1,2025-02-28_13h16.37.866,comp,2024.2.4,53.75162755410656,2025-02-28 13h16.48.891229 -0500,
