thisN,thisTrialN,thisRepN,effect,order,distance,config,diag,h_1,w_1,h_2,w_2,h_3,w_3,rect_choice.keys,rect_choice.rt,rect_choice.duration,instructions_loop.thisRepN,instructions_loop.thisTrialN,instructions_loop.thisN,instructions_loop.thisIndex,blocks.thisRepN,blocks.thisTrialN,blocks.thisN,blocks.thisIndex,trials.thisRepN,trials.thisTrialN,trials.thisN,trials.thisIndex,thisRow.t,notes,consent.started,agree_button.started,decline_button.started,consent_img.started,mouse.started,consent.stopped,agree_button.numClicks,agree_button.timesOn,agree_button.timesOff,decline_button.numClicks,decline_button.timesOn,decline_button.timesOff,mouse.x,mouse.y,mouse.leftButton,mouse.midButton,mouse.rightButton,mouse.time,mouse.clicked_name,exp_params.started,exp_params.stopped,welcome.started,welcome_text.started,welcome.stopped,instructions_1.started,instructions_1_text_1.started,instructions_1_text_2.started,key_resp.started,instructions_1.stopped,instructions_loop.key_resp.keys,instructions_loop.key_resp.rt,instructions_loop.key_resp.duration,instructions_2.started,instructions_2_text_1.started,instructions_2_text_2.started,key_resp_2.started,instructions_2.stopped,instructions_loop.key_resp_2.keys,instructions_loop.key_resp_2.rt,instructions_loop.key_resp_2.duration,instructions_3.started,instructions_3_text_1.started,r1_instr3.started,r2_instr3.started,r3_instr3.started,r1_instr3_label.started,r2_instr3_label.started,r3_instr3_label.started,instructions_3_text_3.started,instructions_3_text_4.started,key_resp_3.started,instructions_3.stopped,instructions_loop.key_resp_3.keys,instructions_loop.key_resp_3.rt,instructions_loop.key_resp_3.duration,instructions_4.started,instructions_4_text_1.started,instructions_4_text_3.started,instructions_4_text_2.started,key_resp_4.started,instructions_4.stopped,instructions_loop.key_resp_4.keys,instructions_loop.key_resp_4.rt,instructions_loop.key_resp_4.duration,instructions_5.started,instructions_5_text_1.started,instructions_5_text_2.started,key_resp_5.started,instructions_5.stopped,instructions_loop.key_resp_5.keys,instructions_loop.key_resp_5.rt,instructions_loop.key_resp_5.duration,start_exp.started,start_exp_text.started,key_resp_6.started,start_exp.stopped,key_resp_6.keys,key_resp_6.rt,key_resp_6.duration,h_1_tmp,w_1_tmp,h_2_tmp,w_2_tmp,h_3_tmp,w_3_tmp,config_tmp,config_tmp_1,r_1_x,r_1_y,r_2_x,r_2_y,r_3_x,r_3_y,pre_trial.started,pre_trial.stopped,choice_trial.started,rect_choice.started,r_1.started,r_2.started,r_3.started,r_1_label.started,r_2_label.started,r_3_label.started,prompt.started,choice_trial.stopped,trials.rect_choice.keys,trials.rect_choice.rt,trials.rect_choice.duration,end_block.started,end_block_text.started,end_block.stopped,end.started,end_text.started,key_resp_7.started,end.stopped,key_resp_7.keys,key_resp_7.rt,key_resp_7.duration,debriefing.started,debrief_form.started,end_debrief.started,debriefing.stopped,end_debrief.keys,end_debrief.rt,end_debrief.duration,participant,computer,date,expName,psychopyVersion,frameRate,expStart,
,,,,,,,,,,,,,,,,,,,,,,,,,,,,,,,0.01463627815246582,0.03257274627685547,0.03257274627685547,0.03257274627685547,0.014433622360229492,54.89256453514099,1,[54.85714530944824],[54.857165813446045],0,,,"[-153.0, -84.0]","[-435.0, -499.0]","[1, 1]","[0, 0]","[0, 0]","[54.36267900466919, 54.87728786468506]","[None, 'agree_button']",,,,,,,,,,,,,,,,,,,,,,,,,,,,,,,,,,,,,,,,,,,,,,,,,,,,,,,,,,,,,,,,,,,,,,,,,,,,,,,,,,,,,,,,,,,,,,,,,,,,,,,,,,,161,2,2025-02-28_13h16.47.650,comp,2024.2.4,51.551141810673286,2025-02-28 13h17.03.961211 -0500,
,,,,,,,,,,,,,,,,,,,,,,,,,,,,,,,,,,,,,,,,,,,,,,,,,,54.893290519714355,54.893359661102295,,,,,,,,,,,,,,,,,,,,,,,,,,,,,,,,,,,,,,,,,,,,,,,,,,,,,,,,,,,,,,,,,,,,,,,,,,,,,,,,,,,,,,,,,,,,,,,,,,,,,,,,,161,2,2025-02-28_13h16.47.650,comp,2024.2.4,51.551141810673286,2025-02-28 13h17.03.961211 -0500,
,,,,,,,,,,,,,,,,,,,,,,,,,,,,,,,,,,,,,,,,,,,,,,,,,,,,54.893404483795166,54.90957164764404,56.900104999542236,,,,,,,,,,,,,,,,,,,,,,,,,,,,,,,,,,,,,,,,,,,,,,,,,,,,,,,,,,,,,,,,,,,,,,,,,,,,,,,,,,,,,,,,,,,,,,,,,,,,,,161,2,2025-02-28_13h16.47.650,comp,2024.2.4,51.551141810673286,2025-02-28 13h17.03.961211 -0500,
0,0,0,,,,,,,,,,,,,,,0,0,0,0,,,,,,,,,56.9157075881958,,,,,,,,,,,,,,,,,,,,,,,,,,56.901108264923096,56.9157075881958,56.9157075881958,58.394554138183594,60.00607347488403,space,1.5795257091522217,None,60.00622367858887,60.024816036224365,60.024816036224365,61.510215759277344,67.14832854270935,space,5.62395977973938,None,67.14848589897156,67.17831301689148,67.17831301689148,67.17831301689148,67.17831301689148,67.17831301689148,67.17831301689148,67.17831301689148,67.17831301689148,67.17831301689148,68.65890979766846,74.20160388946533,space,5.539106130599976,None,74.20177149772644,74.21883082389832,74.21883082389832,74.21883082389832,75.72281193733215,83.05460953712463,space,7.323770999908447,None,83.054767370224,83.06959629058838,83.06959629058838,84.569904088974,85.78697943687439,space,1.2037947177886963,None,85.78719091415405,85.8021731376648,85.8021731376648,87.45615649223328,space,1.6443474292755127,None,,,,,,,,,,,,,,,,,,,,,,,,,,,,,,,,,,,,,,,,,,,,,,,161,2,2025-02-28_13h16.47.650,comp,2024.2.4,51.551141810673286,2025-02-28 13h17.03.961211 -0500,
0,0,0,critical,dhw,20.0,4.0,lower,78.0,78.0,133.0,57.0,57.0,133.0,2,4.461686849594116,None,,,,,0,0,0,0,0,0,0,58,87.53599286079407,,,,,,,,,,,,,,,,,,,,,,,,,,,,,,,,,,,,,,,,,,,,,,,,,,,,,,,,,,,,,,,,,,,,,,,,,,,,,,,,,78.0,78.0,133.0,57.0,57.0,133.0,4.0,4.1,-164,-285,0,-7,191,-269,87.51925349235535,87.51929688453674,87.52092671394348,87.53599286079407,87.68044853210449,87.68044853210449,87.68044853210449,87.68044853210449,87.68044853210449,87.68044853210449,87.68044853210449,92.01673436164856,2,4.461686849594116,None,,,,,,,,,,,,,,,,,,161,2,2025-02-28_13h16.47.650,comp,2024.2.4,51.551141810673286,2025-02-28 13h17.03.961211 -0500,
1,1,0,filler_square,None,None,None,None,None,None,None,None,None,None,1,4.867637395858765,None,,,,,0,0,0,0,0,1,1,181,92.0340678691864,,,,,,,,,,,,,,,,,,,,,,,,,,,,,,,,,,,,,,,,,,,,,,,,,,,,,,,,,,,,,,,,,,,,,,,,,,,,,,,,,144.39747068362703,144.39747068362703,91.14883367032621,90.21953765386814,108.29517743903148,95.53135731949484,4.0,4.1,-213,-261,0,-14,189,-265,92.01859498023987,92.01867055892944,92.02171468734741,92.0340678691864,92.17404127120972,92.17404127120972,92.17404127120972,92.17404127120972,92.17404127120972,92.17404127120972,92.17404127120972,96.9168062210083,1,4.867637395858765,None,,,,,,,,,,,,,,,,,,161,2,2025-02-28_13h16.47.650,comp,2024.2.4,51.551141810673286,2025-02-28 13h17.03.961211 -0500,
2,2,0,filler_square,None,None,None,None,None,None,None,None,None,None,2,2.335012197494507,None,,,,,0,0,0,0,0,2,2,202,96.93539047241211,,,,,,,,,,,,,,,,,,,,,,,,,,,,,,,,,,,,,,,,,,,,,,,,,,,,,,,,,,,,,,,,,,,,,,,,,,,,,,,,,91.51466290959296,103.5640851121106,198.86061813435825,198.86061813435825,64.90446659167102,194.52611439922228,1.0,1.1,-727,283,-480,258,-187,259,96.91880631446838,96.91888356208801,96.92220997810364,96.93539047241211,97.07260274887085,97.07260274887085,97.07260274887085,97.07260274887085,97.07260274887085,97.07260274887085,97.07260274887085,99.27705097198486,2,2.335012197494507,None,,,,,,,,,,,,,,,,,,161,2,2025-02-28_13h16.47.650,comp,2024.2.4,51.551141810673286,2025-02-28 13h17.03.961211 -0500,
3,3,0,filler_random,None,None,None,None,None,None,None,None,None,None,3,3.8718278408050537,None,,,,,0,0,0,0,0,3,3,148,99.29389905929565,,,,,,,,,,,,,,,,,,,,,,,,,,,,,,,,,,,,,,,,,,,,,,,,,,,,,,,,,,,,,,,,,,,,,,,,,,,,,,,,,131.8056785609877,175.61787862993611,139.67683748859756,120.84322222281251,187.94445925521947,156.19274691311534,3.0,3.1,-244,277,0,-12,235,-254,99.27870965003967,99.27878499031067,99.2822322845459,99.29389905929565,99.44286966323853,99.44286966323853,99.44286966323853,99.44286966323853,99.44286966323853,99.44286966323853,99.44286966323853,103.17925953865051,3,3.8718278408050537,None,,,,,,,,,,,,,,,,,,161,2,2025-02-28_13h16.47.650,comp,2024.2.4,51.551141810673286,2025-02-28 13h17.03.961211 -0500,
4,4,0,critical,hwd,35.0,4.0,upper,200.0,125.0,125.0,200.0,127.0,127.0,2,11.330777406692505,None,,,,,0,0,0,0,0,4,4,101,103.19545912742615,,,,,,,,,,,,,,,,,,,,,,,,,,,,,,,,,,,,,,,,,,,,,,,,,,,,,,,,,,,,,,,,,,,,,,,,,,,,,,,,,200.0,125.0,125.0,200.0,127.0,127.0,4.0,4.2,-258,-3,0,-268,260,-3,103.18098878860474,103.1811113357544,103.18513798713684,103.19545912742615,103.34045815467834,103.34045815467834,103.34045815467834,103.34045815467834,103.34045815467834,103.34045815467834,103.34045815467834,114.5313971042633,2,11.330777406692505,None,,,,,,,,,,,,,,,,,,161,2,2025-02-28_13h16.47.650,comp,2024.2.4,51.551141810673286,2025-02-28 13h17.03.961211 -0500,
5,5,0,critical,wdh,35.0,2.1,upper,125.0,200.0,127.0,127.0,200.0,125.0,1,4.986485004425049,None,,,,,0,0,0,0,0,5,5,33,114.54716801643372,,,,,,,,,,,,,,,,,,,,,,,,,,,,,,,,,,,,,,,,,,,,,,,,,,,,,,,,,,,,,,,,,,,,,,,,,,,,,,,,,125.0,200.0,127.0,127.0,200.0,125.0,2.1,2.12,-260,-270,0,-262,222,274,114.53287744522095,114.53297924995422,114.53647780418396,114.54716801643372,114.6974732875824,114.6974732875824,114.6974732875824,114.6974732875824,114.6974732875824,114.6974732875824,114.6974732875824,119.55305576324463,1,4.986485004425049,None,,,,,,,,,,,,,,,,,,161,2,2025-02-28_13h16.47.650,comp,2024.2.4,51.551141810673286,2025-02-28 13h17.03.961211 -0500,
6,6,0,filler_square,None,None,None,None,None,None,None,None,None,None,3,6.3136961460113525,None,,,,,0,0,0,0,0,6,6,184,119.57214021682739,,,,,,,,,,,,,,,,,,,,,,,,,,,,,,,,,,,,,,,,,,,,,,,,,,,,,,,,,,,,,,,,,,,,,,,,,,,,,,,,,81.12642735345135,87.30741554524796,67.50984972834502,66.21000908922011,89.03626286355261,89.03626286355261,3.0,3.1,-173,288,0,-16,174,-279,119.55500602722168,119.55508732795715,119.55814599990845,119.57214021682739,119.71393918991089,119.71393918991089,119.71393918991089,119.71393918991089,119.71393918991089,119.71393918991089,119.71393918991089,125.9014585018158,3,6.3136961460113525,None,,,,,,,,,,,,,,,,,,161,2,2025-02-28_13h16.47.650,comp,2024.2.4,51.551141810673286,2025-02-28 13h17.03.961211 -0500,
7,7,0,critical,whd,35.0,1.0,upper,125.0,200.0,200.0,125.0,127.0,127.0,1,8.601709842681885,None,,,,,0,0,0,0,0,7,7,85,125.91674518585205,,,,,,,,,,,,,,,,,,,,,,,,,,,,,,,,,,,,,,,,,,,,,,,,,,,,,,,,,,,,,,,,,,,,,,,,,,,,,,,,,125.0,200.0,200.0,125.0,127.0,127.0,1.0,1.2,-258,1,0,-9,222,-11,125.90297412872314,125.90305423736572,125.90650701522827,125.91674518585205,126.06789708137512,126.06789708137512,126.06789708137512,126.06789708137512,126.06789708137512,126.06789708137512,126.06789708137512,134.5204610824585,1,8.601709842681885,None,,,,,,,,,,,,,,,,,,161,2,2025-02-28_13h16.47.650,comp,2024.2.4,51.551141810673286,2025-02-28 13h17.03.961211 -0500,
8,8,0,critical,dhw,20.0,2.1,lower,78.0,78.0,133.0,57.0,57.0,133.0,2,4.77789568901062,None,,,,,0,0,0,0,0,8,8,2,134.54041051864624,,,,,,,,,,,,,,,,,,,,,,,,,,,,,,,,,,,,,,,,,,,,,,,,,,,,,,,,,,,,,,,,,,,,,,,,,,,,,,,,,78.0,78.0,133.0,57.0,57.0,133.0,2.1,2.11,-164,260,0,267,191,-288,134.5222294330597,134.52236890792847,134.52646374702454,134.54041051864624,134.68637919425964,134.68637919425964,134.68637919425964,134.68637919425964,134.68637919425964,134.68637919425964,134.68637919425964,139.32205867767334,2,4.77789568901062,None,,,,,,,,,,,,,,,,,,161,2,2025-02-28_13h16.47.650,comp,2024.2.4,51.551141810673286,2025-02-28 13h17.03.961211 -0500,
9,9,0,critical,wdh,20.0,2.1,upper,125.0,200.0,141.0,141.0,200.0,125.0,3,3.685950756072998,None,,,,,0,0,0,0,0,9,9,11,139.33626794815063,,,,,,,,,,,,,,,,,,,,,,,,,,,,,,,,,,,,,,,,,,,,,,,,,,,,,,,,,,,,,,,,,,,,,,,,,,,,,,,,,125.0,200.0,141.0,141.0,200.0,125.0,2.1,2.12,-266,-282,0,-275,229,284,139.32350087165833,139.32353162765503,139.3247103691101,139.33626794815063,139.48527193069458,139.48527193069458,139.48527193069458,139.48527193069458,139.48527193069458,139.48527193069458,139.48527193069458,143.0271031856537,3,3.685950756072998,None,,,,,,,,,,,,,,,,,,161,2,2025-02-28_13h16.47.650,comp,2024.2.4,51.551141810673286,2025-02-28 13h17.03.961211 -0500,
10,10,0,critical,hdw,35.0,4.0,upper,200.0,125.0,127.0,127.0,125.0,200.0,1,4.431204319000244,None,,,,,0,0,0,0,0,10,10,113,143.0464949607849,,,,,,,,,,,,,,,,,,,,,,,,,,,,,,,,,,,,,,,,,,,,,,,,,,,,,,,,,,,,,,,,,,,,,,,,,,,,,,,,,200.0,125.0,127.0,127.0,125.0,200.0,4.0,4.1,-222,-277,0,-11,260,-260,143.02874374389648,143.0288803577423,143.03228497505188,143.0464949607849,143.18991255760193,143.18991255760193,143.18991255760193,143.18991255760193,143.18991255760193,143.18991255760193,143.18991255760193,147.49422001838684,1,4.431204319000244,None,,,,,,,,,,,,,,,,,,161,2,2025-02-28_13h16.47.650,comp,2024.2.4,51.551141810673286,2025-02-28 13h17.03.961211 -0500,
11,11,0,filler_random,None,None,None,None,None,None,None,None,None,None,3,3.592005968093872,None,,,,,0,0,0,0,0,11,11,130,147.51009321212769,,,,,,,,,,,,,,,,,,,,,,,,,,,,,,,,,,,,,,,,,,,,,,,,,,,,,,,,,,,,,,,,,,,,,,,,,,,,,,,,,81.77298115809332,141.06136685563683,86.30708164761779,85.67793469439317,188.67439458424198,144.57093408220322,2.1,2.12,-209,-276,0,-269,211,278,147.49590492248535,147.49603414535522,147.49955010414124,147.51009321212769,147.6598539352417,147.6598539352417,147.6598539352417,147.6598539352417,147.6598539352417,147.6598539352417,147.6598539352417,151.11320042610168,3,3.592005968093872,None,,,,,,,,,,,,,,,,,,161,2,2025-02-28_13h16.47.650,comp,2024.2.4,51.551141810673286,2025-02-28 13h17.03.961211 -0500,
12,12,0,filler_square,None,None,None,None,None,None,None,None,None,None,3,4.852128744125366,None,,,,,0,0,0,0,0,12,12,206,151.1304931640625,,,,,,,,,,,,,,,,,,,,,,,,,,,,,,,,,,,,,,,,,,,,,,,,,,,,,,,,,,,,,,,,,,,,,,,,,,,,,,,,,80.21167057375047,87.44672770797783,58.136808160870594,67.0230578844533,93.66725783523867,93.66725783523867,2.2,2.21,-173,-288,0,259,176,255,151.11521410942078,151.1152925491333,151.1187584400177,151.1304931640625,151.27571630477905,151.27571630477905,151.27571630477905,151.27571630477905,151.27571630477905,151.27571630477905,151.27571630477905,155.98823070526123,3,4.852128744125366,None,,,,,,,,,,,,,,,,,,161,2,2025-02-28_13h16.47.650,comp,2024.2.4,51.551141810673286,2025-02-28 13h17.03.961211 -0500,
13,13,0,catch,None,None,None,None,None,None,None,None,None,None,2,2.079481363296509,None,,,,,0,0,0,0,0,13,13,120,156.00643062591553,,,,,,,,,,,,,,,,,,,,,,,,,,,,,,,,,,,,,,,,,,,,,,,,,,,,,,,,,,,,,,,,,,,,,,,,,,,,,,,,,89,101,149,176,102,88,2.2,2.21,-234,-271,0,260,228,256,155.9901885986328,155.99026346206665,155.99335479736328,156.00643062591553,156.14543914794922,156.14543914794922,156.14543914794922,156.14543914794922,156.14543914794922,156.14543914794922,156.14543914794922,158.1010558605194,2,2.079481363296509,None,,,,,,,,,,,,,,,,,,161,2,2025-02-28_13h16.47.650,comp,2024.2.4,51.551141810673286,2025-02-28 13h17.03.961211 -0500,
14,14,0,filler_random,None,None,None,None,None,None,None,None,None,None,3,3.225083112716675,None,,,,,0,0,0,0,0,14,14,133,158.11758136749268,,,,,,,,,,,,,,,,,,,,,,,,,,,,,,,,,,,,,,,,,,,,,,,,,,,,,,,,,,,,,,,,,,,,,,,,,,,,,,,,,94.58768952198949,178.92086696689927,119.72913951404004,184.22075523422984,165.31625808881194,171.00121032248632,3.0,3.2,-278,-250,0,-3,274,281,158.1031093597412,158.10318303108215,158.10626077651978,158.11758136749268,158.2608597278595,158.2608597278595,158.2608597278595,158.2608597278595,158.2608597278595,158.2608597278595,158.2608597278595,161.3488733768463,3,3.225083112716675,None,,,,,,,,,,,,,,,,,,161,2,2025-02-28_13h16.47.650,comp,2024.2.4,51.551141810673286,2025-02-28 13h17.03.961211 -0500,
15,15,0,critical,dwh,20.0,1.0,upper,141.0,141.0,125.0,200.0,200.0,125.0,3,2.8072540760040283,None,,,,,0,0,0,0,0,15,15,67,161.36718440055847,,,,,,,,,,,,,,,,,,,,,,,,,,,,,,,,,,,,,,,,,,,,,,,,,,,,,,,,,,,,,,,,,,,,,,,,,,,,,,,,,141.0,141.0,125.0,200.0,200.0,125.0,1.0,1.1,-746,255,-480,269,-222,279,161.350843667984,161.35092401504517,161.35414505004883,161.36718440055847,161.51915884017944,161.51915884017944,161.51915884017944,161.51915884017944,161.51915884017944,161.51915884017944,161.51915884017944,164.17789268493652,3,2.8072540760040283,None,,,,,,,,,,,,,,,,,,161,2,2025-02-28_13h16.47.650,comp,2024.2.4,51.551141810673286,2025-02-28 13h17.03.961211 -0500,
16,16,0,critical,hdw,35.0,2.1,lower,133.0,57.0,70.0,70.0,57.0,133.0,1,3.5539870262145996,None,,,,,0,0,0,0,0,16,16,44,164.19592952728271,,,,,,,,,,,,,,,,,,,,,,,,,,,,,,,,,,,,,,,,,,,,,,,,,,,,,,,,,,,,,,,,,,,,,,,,,,,,,,,,,133.0,57.0,70.0,70.0,57.0,133.0,2.1,2.12,-160,-290,0,-290,198,261,164.17947435379028,164.17954993247986,164.1827700138092,164.19592952728271,164.35304355621338,164.35304355621338,164.35304355621338,164.35304355621338,164.35304355621338,164.35304355621338,164.35304355621338,167.7654151916504,1,3.5539870262145996,None,,,,,,,,,,,,,,,,,,161,2,2025-02-28_13h16.47.650,comp,2024.2.4,51.551141810673286,2025-02-28 13h17.03.961211 -0500,
17,17,0,filler_random,None,None,None,None,None,None,None,None,None,None,2,3.544194459915161,None,,,,,0,0,0,0,0,17,17,132,167.78285002708435,,,,,,,,,,,,,,,,,,,,,,,,,,,,,,,,,,,,,,,,,,,,,,,,,,,,,,,,,,,,,,,,,,,,,,,,,,,,,,,,,62.47422552685268,65.86952374206683,143.77745394378684,177.3229983882523,194.4977048083044,107.70781895187801,2.1,2.12,-218,-271,0,-251,239,272,167.76746797561646,167.76754355430603,167.7716770172119,167.78285002708435,167.93502855300903,167.93502855300903,167.93502855300903,167.93502855300903,167.93502855300903,167.93502855300903,167.93502855300903,171.33225202560425,2,3.544194459915161,None,,,,,,,,,,,,,,,,,,161,2,2025-02-28_13h16.47.650,comp,2024.2.4,51.551141810673286,2025-02-28 13h17.03.961211 -0500,
18,18,0,critical,dwh,20.0,3.0,upper,141.0,141.0,125.0,200.0,200.0,125.0,2,6.1777331829071045,None,,,,,0,0,0,0,0,18,18,69,171.34972739219666,,,,,,,,,,,,,,,,,,,,,,,,,,,,,,,,,,,,,,,,,,,,,,,,,,,,,,,,,,,,,,,,,,,,,,,,,,,,,,,,,141.0,141.0,125.0,200.0,200.0,125.0,3.0,3.1,-266,253,0,11,258,-258,171.33375477790833,171.333829164505,171.33740401268005,171.34972739219666,171.49805784225464,171.49805784225464,171.49805784225464,171.49805784225464,171.49805784225464,171.49805784225464,171.49805784225464,177.5377652645111,2,6.1777331829071045,None,,,,,,,,,,,,,,,,,,161,2,2025-02-28_13h16.47.650,comp,2024.2.4,51.551141810673286,2025-02-28 13h17.03.961211 -0500,
19,19,0,critical,dwh,35.0,3.0,upper,127.0,127.0,125.0,200.0,200.0,125.0,2,1.6605210304260254,None,,,,,0,0,0,0,0,19,19,63,177.55353260040283,,,,,,,,,,,,,,,,,,,,,,,,,,,,,,,,,,,,,,,,,,,,,,,,,,,,,,,,,,,,,,,,,,,,,,,,,,,,,,,,,127.0,127.0,125.0,200.0,200.0,125.0,3.0,3.2,-260,-289,0,-2,258,284,177.53929209709167,177.5393705368042,177.54281616210938,177.55353260040283,177.71035528182983,177.71035528182983,177.71035528182983,177.71035528182983,177.71035528182983,177.71035528182983,177.71035528182983,179.21945476531982,2,1.6605210304260254,None,,,,,,,,,,,,,,,,,,161,2,2025-02-28_13h16.47.650,comp,2024.2.4,51.551141810673286,2025-02-28 13h17.03.961211 -0500,
20,20,0,critical,whd,20.0,2.1,lower,57.0,133.0,133.0,57.0,78.0,78.0,2,2.4803102016448975,None,,,,,0,0,0,0,0,20,20,14,179.2376070022583,,,,,,,,,,,,,,,,,,,,,,,,,,,,,,,,,,,,,,,,,,,,,,,,,,,,,,,,,,,,,,,,,,,,,,,,,,,,,,,,,57.0,133.0,133.0,57.0,78.0,78.0,2.1,2.11,-191,289,0,264,164,-287,179.22113060951233,179.22121453285217,179.22450280189514,179.2376070022583,179.3834867477417,179.3834867477417,179.3834867477417,179.3834867477417,179.3834867477417,179.3834867477417,179.3834867477417,181.73607754707336,2,2.4803102016448975,None,,,,,,,,,,,,,,,,,,161,2,2025-02-28_13h16.47.650,comp,2024.2.4,51.551141810673286,2025-02-28 13h17.03.961211 -0500,
21,21,0,critical,dwh,20.0,4.0,upper,141.0,141.0,125.0,200.0,200.0,125.0,3,3.3810524940490723,None,,,,,0,0,0,0,0,21,21,71,181.7530870437622,,,,,,,,,,,,,,,,,,,,,,,,,,,,,,,,,,,,,,,,,,,,,,,,,,,,,,,,,,,,,,,,,,,,,,,,,,,,,,,,,141.0,141.0,125.0,200.0,200.0,125.0,4.0,4.2,-266,3,0,-264,258,12,181.73761677742004,181.7377004623413,181.74194049835205,181.7530870437622,181.90296936035156,181.90296936035156,181.90296936035156,181.90296936035156,181.90296936035156,181.90296936035156,181.90296936035156,185.13957524299622,3,3.3810524940490723,None,,,,,,,,,,,,,,,,,,161,2,2025-02-28_13h16.47.650,comp,2024.2.4,51.551141810673286,2025-02-28 13h17.03.961211 -0500,
22,22,0,critical,wdh,20.0,1.0,lower,57.0,133.0,78.0,78.0,133.0,57.0,3,2.0532941818237305,None,,,,,0,0,0,0,0,22,22,78,185.16100788116455,,,,,,,,,,,,,,,,,,,,,,,,,,,,,,,,,,,,,,,,,,,,,,,,,,,,,,,,,,,,,,,,,,,,,,,,,,,,,,,,,57.0,133.0,78.0,78.0,133.0,57.0,1.0,1.1,-682,277,-480,279,-316,282,185.14131093025208,185.141437292099,185.14510798454285,185.16100788116455,185.3036539554596,185.3036539554596,185.3036539554596,185.3036539554596,185.3036539554596,185.3036539554596,185.3036539554596,187.21891260147095,3,2.0532941818237305,None,,,,,,,,,,,,,,,,,,161,2,2025-02-28_13h16.47.650,comp,2024.2.4,51.551141810673286,2025-02-28 13h17.03.961211 -0500,
23,23,0,filler_square,None,None,None,None,None,None,None,None,None,None,3,2.362135887145996,None,,,,,0,0,0,0,0,23,23,174,187.23609590530396,,,,,,,,,,,,,,,,,,,,,,,,,,,,,,,,,,,,,,,,,,,,,,,,,,,,,,,,,,,,,,,,,,,,,,,,,,,,,,,,,94.67531221062805,86.95827305696177,103.56076474749649,119.00068838674167,128.63875418603877,128.63875418603877,2.2,2.22,-199,284,0,-287,220,-277,187.22072958946228,187.2208070755005,187.22409629821777,187.23609590530396,187.3870484828949,187.3870484828949,187.3870484828949,187.3870484828949,187.3870484828949,187.3870484828949,187.3870484828949,189.6100971698761,3,2.362135887145996,None,,,,,,,,,,,,,,,,,,161,2,2025-02-28_13h16.47.650,comp,2024.2.4,51.551141810673286,2025-02-28 13h17.03.961211 -0500,
24,24,0,critical,dwh,35.0,4.0,upper,127.0,127.0,125.0,200.0,200.0,125.0,3,2.055989980697632,None,,,,,0,0,0,0,0,24,24,65,189.63056564331055,,,,,,,,,,,,,,,,,,,,,,,,,,,,,,,,,,,,,,,,,,,,,,,,,,,,,,,,,,,,,,,,,,,,,,,,,,,,,,,,,127.0,127.0,125.0,200.0,200.0,125.0,4.0,4.1,-260,-262,0,-14,258,-265,189.611665725708,189.61174631118774,189.61481642723083,189.63056564331055,189.77163577079773,189.77163577079773,189.77163577079773,189.77163577079773,189.77163577079773,189.77163577079773,189.77163577079773,191.70501351356506,3,2.055989980697632,None,,,,,,,,,,,,,,,,,,161,2,2025-02-28_13h16.47.650,comp,2024.2.4,51.551141810673286,2025-02-28 13h17.03.961211 -0500,
25,25,0,critical,dwh,20.0,4.0,lower,78.0,78.0,57.0,133.0,133.0,57.0,3,1.6216399669647217,None,,,,,0,0,0,0,0,25,25,70,191.7205617427826,,,,,,,,,,,,,,,,,,,,,,,,,,,,,,,,,,,,,,,,,,,,,,,,,,,,,,,,,,,,,,,,,,,,,,,,,,,,,,,,,78.0,78.0,57.0,133.0,133.0,57.0,4.0,4.1,-202,-264,0,-12,191,-274,191.70663213729858,191.70670986175537,191.71031594276428,191.7205617427826,191.87217783927917,191.87217783927917,191.87217783927917,191.87217783927917,191.87217783927917,191.87217783927917,191.87217783927917,193.34489512443542,3,1.6216399669647217,None,,,,,,,,,,,,,,,,,,161,2,2025-02-28_13h16.47.650,comp,2024.2.4,51.551141810673286,2025-02-28 13h17.03.961211 -0500,
26,26,0,critical,wdh,20.0,2.1,lower,57.0,133.0,78.0,78.0,133.0,57.0,3,2.2202436923980713,None,,,,,0,0,0,0,0,26,26,34,193.36324739456177,,,,,,,,,,,,,,,,,,,,,,,,,,,,,,,,,,,,,,,,,,,,,,,,,,,,,,,,,,,,,,,,,,,,,,,,,,,,,,,,,57.0,133.0,78.0,78.0,133.0,57.0,2.1,2.11,-202,269,0,259,164,-286,193.3465371131897,193.34661316871643,193.35017275810242,193.36324739456177,193.50624656677246,193.50624656677246,193.50624656677246,193.50624656677246,193.50624656677246,193.50624656677246,193.50624656677246,195.58768153190613,3,2.2202436923980713,None,,,,,,,,,,,,,,,,,,161,2,2025-02-28_13h16.47.650,comp,2024.2.4,51.551141810673286,2025-02-28 13h17.03.961211 -0500,
27,27,0,critical,hdw,35.0,1.0,upper,200.0,125.0,127.0,127.0,125.0,200.0,1,4.033038377761841,None,,,,,0,0,0,0,0,27,27,109,195.60501098632812,,,,,,,,,,,,,,,,,,,,,,,,,,,,,,,,,,,,,,,,,,,,,,,,,,,,,,,,,,,,,,,,,,,,,,,,,,,,,,,,,200.0,125.0,127.0,127.0,125.0,200.0,1.0,1.1,-702,252,-480,262,-220,274,195.58936643600464,195.58944845199585,195.59299516677856,195.60501098632812,195.75516772270203,195.75516772270203,195.75516772270203,195.75516772270203,195.75516772270203,195.75516772270203,195.75516772270203,199.65046310424805,1,4.033038377761841,None,,,,,,,,,,,,,,,,,,161,2,2025-02-28_13h16.47.650,comp,2024.2.4,51.551141810673286,2025-02-28 13h17.03.961211 -0500,
28,28,0,filler_random,None,None,None,None,None,None,None,None,None,None,2,1.999701738357544,None,,,,,0,0,0,0,0,28,28,167,199.67104649543762,,,,,,,,,,,,,,,,,,,,,,,,,,,,,,,,,,,,,,,,,,,,,,,,,,,,,,,,,,,,,,,,,,,,,,,,,,,,,,,,,186.3729564830585,93.23932869782604,169.4120764798617,175.674377226439,174.42064912468564,121.49941332329139,4.0,4.2,-230,17,0,-262,245,15,199.65220093727112,199.65227818489075,199.65533661842346,199.67104649543762,199.80745148658752,199.80745148658752,199.80745148658752,199.80745148658752,199.80745148658752,199.80745148658752,199.80745148658752,201.67848896980286,2,1.999701738357544,None,,,,,,,,,,,,,,,,,,161,2,2025-02-28_13h16.47.650,comp,2024.2.4,51.551141810673286,2025-02-28 13h17.03.961211 -0500,
29,29,0,critical,dhw,35.0,3.0,upper,127.0,127.0,200.0,125.0,125.0,200.0,2,3.5429720878601074,None,,,,,0,0,0,0,0,29,29,51,201.695063829422,,,,,,,,,,,,,,,,,,,,,,,,,,,,,,,,,,,,,,,,,,,,,,,,,,,,,,,,,,,,,,,,,,,,,,,,,,,,,,,,,127.0,127.0,200.0,125.0,125.0,200.0,3.0,3.2,-222,-252,0,9,258,270,201.68017983436584,201.68027639389038,201.68373322486877,201.695063829422,201.84462666511536,201.84462666511536,201.84462666511536,201.84462666511536,201.84462666511536,201.84462666511536,201.84462666511536,205.24910807609558,2,3.5429720878601074,None,,,,,,,,,,,,,,,,,,161,2,2025-02-28_13h16.47.650,comp,2024.2.4,51.551141810673286,2025-02-28 13h17.03.961211 -0500,
30,30,0,filler_random,None,None,None,None,None,None,None,None,None,None,3,3.0447850227355957,None,,,,,0,0,0,0,0,30,30,166,205.2655417919159,,,,,,,,,,,,,,,,,,,,,,,,,,,,,,,,,,,,,,,,,,,,,,,,,,,,,,,,,,,,,,,,,,,,,,,,,,,,,,,,,83.35260636990733,75.76862060329407,78.7391177353179,183.3530575383166,133.3072726286449,146.65148191020856,4.0,4.1,-226,-276,0,5,261,-267,205.25079917907715,205.25087428092957,205.2538902759552,205.2655417919159,205.41047310829163,205.41047310829163,205.41047310829163,205.41047310829163,205.41047310829163,205.41047310829163,205.41047310829163,208.3123528957367,3,3.0447850227355957,None,,,,,,,,,,,,,,,,,,161,2,2025-02-28_13h16.47.650,comp,2024.2.4,51.551141810673286,2025-02-28 13h17.03.961211 -0500,
31,31,0,filler_random,None,None,None,None,None,None,None,None,None,None,3,1.3255417346954346,None,,,,,0,0,0,0,0,31,31,163,208.32885122299194,,,,,,,,,,,,,,,,,,,,,,,,,,,,,,,,,,,,,,,,,,,,,,,,,,,,,,,,,,,,,,,,,,,,,,,,,,,,,,,,,92.50924090820897,143.865045454352,67.81988450606909,84.01090766499198,185.52794256823478,126.5008959532538,2.2,2.22,-210,252,0,-272,201,-266,208.31440591812134,208.31453704833984,208.31807374954224,208.32885122299194,208.47684335708618,208.47684335708618,208.47684335708618,208.47684335708618,208.47684335708618,208.47684335708618,208.47684335708618,209.66121912002563,3,1.3255417346954346,None,,,,,,,,,,,,,,,,,,161,2,2025-02-28_13h16.47.650,comp,2024.2.4,51.551141810673286,2025-02-28 13h17.03.961211 -0500,
32,32,0,critical,dhw,35.0,2.1,upper,127.0,127.0,200.0,125.0,125.0,200.0,2,3.2645328044891357,None,,,,,0,0,0,0,0,32,32,1,209.67758131027222,,,,,,,,,,,,,,,,,,,,,,,,,,,,,,,,,,,,,,,,,,,,,,,,,,,,,,,,,,,,,,,,,,,,,,,,,,,,,,,,,127.0,127.0,200.0,125.0,125.0,200.0,2.1,2.12,-222,-259,0,-253,258,261,209.6628556251526,209.66293168067932,209.66670155525208,209.67758131027222,209.82633471488953,209.82633471488953,209.82633471488953,209.82633471488953,209.82633471488953,209.82633471488953,209.82633471488953,212.9447536468506,2,3.2645328044891357,None,,,,,,,,,,,,,,,,,,161,2,2025-02-28_13h16.47.650,comp,2024.2.4,51.551141810673286,2025-02-28 13h17.03.961211 -0500,
33,33,0,critical,whd,35.0,2.1,lower,57.0,133.0,133.0,57.0,70.0,70.0,2,1.5746917724609375,None,,,,,0,0,0,0,0,33,33,36,212.95937395095825,,,,,,,,,,,,,,,,,,,,,,,,,,,,,,,,,,,,,,,,,,,,,,,,,,,,,,,,,,,,,,,,,,,,,,,,,,,,,,,,,57.0,133.0,133.0,57.0,70.0,70.0,2.1,2.12,-191,-289,0,-265,160,285,212.94640922546387,212.9464874267578,212.94983386993408,212.95937395095825,213.10999751091003,213.10999751091003,213.10999751091003,213.10999751091003,213.10999751091003,213.10999751091003,213.10999751091003,214.5466125011444,2,1.5746917724609375,None,,,,,,,,,,,,,,,,,,161,2,2025-02-28_13h16.47.650,comp,2024.2.4,51.551141810673286,2025-02-28 13h17.03.961211 -0500,
34,34,0,critical,hdw,35.0,2.1,upper,200.0,125.0,127.0,127.0,125.0,200.0,3,3.2842938899993896,None,,,,,0,0,0,0,0,34,34,45,214.56207394599915,,,,,,,,,,,,,,,,,,,,,,,,,,,,,,,,,,,,,,,,,,,,,,,,,,,,,,,,,,,,,,,,,,,,,,,,,,,,,,,,,200.0,125.0,127.0,127.0,125.0,200.0,2.1,2.11,-222,290,0,252,260,-256,214.548273563385,214.54834699630737,214.55179619789124,214.56207394599915,214.71085238456726,214.71085238456726,214.71085238456726,214.71085238456726,214.71085238456726,214.71085238456726,214.71085238456726,217.85316705703735,3,3.2842938899993896,None,,,,,,,,,,,,,,,,,,161,2,2025-02-28_13h16.47.650,comp,2024.2.4,51.551141810673286,2025-02-28 13h17.03.961211 -0500,
35,35,0,filler_square,None,None,None,None,None,None,None,None,None,None,2,2.1955013275146484,None,,,,,0,0,0,0,0,35,35,176,217.87454509735107,,,,,,,,,,,,,,,,,,,,,,,,,,,,,,,,,,,,,,,,,,,,,,,,,,,,,,,,,,,,,,,,,,,,,,,,,,,,,,,,,65.11382732531021,57.27143695724721,102.4967535690136,102.4967535690136,74.23826871046822,78.8028191504046,2.2,2.22,-176,266,0,-263,187,-281,217.8552098274231,217.85528445243835,217.85865473747253,217.87454509735107,218.01382780075073,218.01382780075073,218.01382780075073,218.01382780075073,218.01382780075073,218.01382780075073,218.01382780075073,220.08001279830933,2,2.1955013275146484,None,,,,,,,,,,,,,,,,,,161,2,2025-02-28_13h16.47.650,comp,2024.2.4,51.551141810673286,2025-02-28 13h17.03.961211 -0500,
36,36,0,critical,whd,35.0,1.0,lower,57.0,133.0,133.0,57.0,70.0,70.0,2,1.695521593093872,None,,,,,0,0,0,0,0,36,36,84,220.09464597702026,,,,,,,,,,,,,,,,,,,,,,,,,,,,,,,,,,,,,,,,,,,,,,,,,,,,,,,,,,,,,,,,,,,,,,,,,,,,,,,,,57.0,133.0,133.0,57.0,70.0,70.0,1.0,1.3,289,-280,480,-261,640,-272,220.08158040046692,220.08165979385376,220.08488297462463,220.09464597702026,220.24734258651733,220.24734258651733,220.24734258651733,220.24734258651733,220.24734258651733,220.24734258651733,220.24734258651733,221.80723786354065,2,1.695521593093872,None,,,,,,,,,,,,,,,,,,161,2,2025-02-28_13h16.47.650,comp,2024.2.4,51.551141810673286,2025-02-28 13h17.03.961211 -0500,
37,37,0,critical,wdh,35.0,4.0,lower,57.0,133.0,70.0,70.0,133.0,57.0,3,3.4648890495300293,None,,,,,0,0,0,0,0,37,37,76,221.82229733467102,,,,,,,,,,,,,,,,,,,,,,,,,,,,,,,,,,,,,,,,,,,,,,,,,,,,,,,,,,,,,,,,,,,,,,,,,,,,,,,,,57.0,133.0,70.0,70.0,133.0,57.0,4.0,4.1,-198,-261,0,-6,160,-278,221.80873727798462,221.80881428718567,221.81192803382874,221.82229733467102,221.9610161781311,221.9610161781311,221.9610161781311,221.9610161781311,221.9610161781311,221.9610161781311,221.9610161781311,225.30082821846008,3,3.4648890495300293,None,,,,,,,,,,,,,,,,,,161,2,2025-02-28_13h16.47.650,comp,2024.2.4,51.551141810673286,2025-02-28 13h17.03.961211 -0500,
38,38,0,filler_random,None,None,None,None,None,None,None,None,None,None,1,9.657061576843262,None,,,,,0,0,0,0,0,38,38,138,225.31737422943115,,,,,,,,,,,,,,,,,,,,,,,,,,,,,,,,,,,,,,,,,,,,,,,,,,,,,,,,,,,,,,,,,,,,,,,,,,,,,,,,,120.76122257336863,178.87449911017973,129.05192866842802,80.9767026179585,189.72316657006115,97.80597346458876,1.0,1.2,-226,-2,0,-20,185,14,225.30293893814087,225.30306553840637,225.3064320087433,225.31737422943115,225.45374989509583,225.45374989509583,225.45374989509583,225.45374989509583,225.45374989509583,225.45374989509583,225.45374989509583,234.98611855506897,1,9.657061576843262,None,,,,,,,,,,,,,,,,,,161,2,2025-02-28_13h16.47.650,comp,2024.2.4,51.551141810673286,2025-02-28 13h17.03.961211 -0500,
39,39,0,critical,whd,20.0,4.0,lower,57.0,133.0,133.0,57.0,78.0,78.0,2,2.13120436668396,None,,,,,0,0,0,0,0,39,39,94,235.00326323509216,,,,,,,,,,,,,,,,,,,,,,,,,,,,,,,,,,,,,,,,,,,,,,,,,,,,,,,,,,,,,,,,,,,,,,,,,,,,,,,,,57.0,133.0,133.0,57.0,78.0,78.0,4.0,4.1,-191,-262,0,6,164,-277,234.98766660690308,234.98774123191833,234.9921202659607,235.00326323509216,235.15132212638855,235.15132212638855,235.15132212638855,235.15132212638855,235.15132212638855,235.15132212638855,235.15132212638855,237.1365065574646,2,2.13120436668396,None,,,,,,,,,,,,,,,,,,161,2,2025-02-28_13h16.47.650,comp,2024.2.4,51.551141810673286,2025-02-28 13h17.03.961211 -0500,
40,40,0,critical,whd,35.0,2.1,upper,125.0,200.0,200.0,125.0,127.0,127.0,2,3.9109530448913574,None,,,,,0,0,0,0,0,40,40,13,237.15134811401367,,,,,,,,,,,,,,,,,,,,,,,,,,,,,,,,,,,,,,,,,,,,,,,,,,,,,,,,,,,,,,,,,,,,,,,,,,,,,,,,,125.0,200.0,200.0,125.0,127.0,127.0,2.1,2.11,-258,253,0,282,222,-258,237.13812232017517,237.13819980621338,237.14136600494385,237.15134811401367,237.30155539512634,237.30155539512634,237.30155539512634,237.30155539512634,237.30155539512634,237.30155539512634,237.30155539512634,241.06541800498962,2,3.9109530448913574,None,,,,,,,,,,,,,,,,,,161,2,2025-02-28_13h16.47.650,comp,2024.2.4,51.551141810673286,2025-02-28 13h17.03.961211 -0500,
41,41,0,critical,dwh,20.0,3.0,lower,78.0,78.0,57.0,133.0,133.0,57.0,3,3.9016900062561035,None,,,,,0,0,0,0,0,41,41,68,241.08093905448914,,,,,,,,,,,,,,,,,,,,,,,,,,,,,,,,,,,,,,,,,,,,,,,,,,,,,,,,,,,,,,,,,,,,,,,,,,,,,,,,,78.0,78.0,57.0,133.0,133.0,57.0,3.0,3.1,-202,289,0,10,191,-251,241.06697988510132,241.067058801651,241.0700922012329,241.08093905448914,241.22276401519775,241.22276401519775,241.22276401519775,241.22276401519775,241.22276401519775,241.22276401519775,241.22276401519775,244.9918384552002,3,3.9016900062561035,None,,,,,,,,,,,,,,,,,,161,2,2025-02-28_13h16.47.650,comp,2024.2.4,51.551141810673286,2025-02-28 13h17.03.961211 -0500,
42,42,0,critical,whd,20.0,1.0,upper,125.0,200.0,200.0,125.0,141.0,141.0,2,3.443891763687134,None,,,,,0,0,0,0,0,42,42,91,245.01019954681396,,,,,,,,,,,,,,,,,,,,,,,,,,,,,,,,,,,,,,,,,,,,,,,,,,,,,,,,,,,,,,,,,,,,,,,,,,,,,,,,,125.0,200.0,200.0,125.0,141.0,141.0,1.0,1.3,222,-280,480,-261,709,-282,244.99370336532593,244.9937880039215,244.99724125862122,245.01019954681396,245.15481662750244,245.15481662750244,245.15481662750244,245.15481662750244,245.15481662750244,245.15481662750244,245.15481662750244,248.45792770385742,2,3.443891763687134,None,,,,,,,,,,,,,,,,,,161,2,2025-02-28_13h16.47.650,comp,2024.2.4,51.551141810673286,2025-02-28 13h17.03.961211 -0500,
43,43,0,critical,wdh,20.0,1.0,upper,125.0,200.0,141.0,141.0,200.0,125.0,3,7.588182687759399,None,,,,,0,0,0,0,0,43,43,79,248.47401356697083,,,,,,,,,,,,,,,,,,,,,,,,,,,,,,,,,,,,,,,,,,,,,,,,,,,,,,,,,,,,,,,,,,,,,,,,,,,,,,,,,125.0,200.0,141.0,141.0,200.0,125.0,1.0,1.3,214,-260,480,-274,709,-274,248.45962929725647,248.45970940589905,248.46318650245667,248.47401356697083,248.62174606323242,248.62174606323242,248.62174606323242,248.62174606323242,248.62174606323242,248.62174606323242,248.62174606323242,256.0731644630432,3,7.588182687759399,None,,,,,,,,,,,,,,,,,,161,2,2025-02-28_13h16.47.650,comp,2024.2.4,51.551141810673286,2025-02-28 13h17.03.961211 -0500,
44,44,0,critical,whd,20.0,3.0,lower,57.0,133.0,133.0,57.0,78.0,78.0,2,3.1336536407470703,None,,,,,0,0,0,0,0,44,44,92,256.089359998703,,,,,,,,,,,,,,,,,,,,,,,,,,,,,,,,,,,,,,,,,,,,,,,,,,,,,,,,,,,,,,,,,,,,,,,,,,,,,,,,,57.0,133.0,133.0,57.0,78.0,78.0,3.0,3.1,-191,263,0,-14,164,-289,256.0748405456543,256.07492113113403,256.07841539382935,256.089359998703,256.24720549583435,256.24720549583435,256.24720549583435,256.24720549583435,256.24720549583435,256.24720549583435,256.24720549583435,259.2296221256256,2,3.1336536407470703,None,,,,,,,,,,,,,,,,,,161,2,2025-02-28_13h16.47.650,comp,2024.2.4,51.551141810673286,2025-02-28 13h17.03.961211 -0500,
45,45,0,filler_random,None,None,None,None,None,None,None,None,None,None,1,4.846017599105835,None,,,,,0,0,0,0,0,45,45,154,259.24816703796387,,,,,,,,,,,,,,,,,,,,,,,,,,,,,,,,,,,,,,,,,,,,,,,,,,,,,,,,,,,,,,,,,,,,,,,,,,,,,,,,,136.78496449427558,195.7586872521713,177.6512729587384,112.20988956646994,118.00726666346333,119.52515130309409,3.0,3.1,-250,261,0,0,212,-285,259.23174691200256,259.2318284511566,259.23487305641174,259.24816703796387,259.3903524875641,259.3903524875641,259.3903524875641,259.3903524875641,259.3903524875641,259.3903524875641,259.3903524875641,264.0984058380127,1,4.846017599105835,None,,,,,,,,,,,,,,,,,,161,2,2025-02-28_13h16.47.650,comp,2024.2.4,51.551141810673286,2025-02-28 13h17.03.961211 -0500,
46,46,0,critical,hwd,20.0,3.0,lower,133.0,57.0,57.0,133.0,78.0,78.0,2,1.8578462600708008,None,,,,,0,0,0,0,0,46,46,104,264.1166317462921,,,,,,,,,,,,,,,,,,,,,,,,,,,,,,,,,,,,,,,,,,,,,,,,,,,,,,,,,,,,,,,,,,,,,,,,,,,,,,,,,133.0,57.0,57.0,133.0,78.0,78.0,3.0,3.1,-191,280,0,-10,202,-289,264.1001205444336,264.1002616882324,264.10364270210266,264.1166317462921,264.2615532875061,264.2615532875061,264.2615532875061,264.2615532875061,264.2615532875061,264.2615532875061,264.2615532875061,265.97723746299744,2,1.8578462600708008,None,,,,,,,,,,,,,,,,,,161,2,2025-02-28_13h16.47.650,comp,2024.2.4,51.551141810673286,2025-02-28 13h17.03.961211 -0500,
47,47,0,catch,None,None,None,None,None,None,None,None,None,None,1,1.3776366710662842,None,,,,,0,0,0,0,0,47,47,121,265.99677300453186,,,,,,,,,,,,,,,,,,,,,,,,,,,,,,,,,,,,,,,,,,,,,,,,,,,,,,,,,,,,,,,,,,,,,,,,,,,,,,,,,161,164,107,83,66,124,2.1,2.11,-220,270,0,290,200,-278,265.97912549972534,265.9792010784149,265.9823729991913,265.99677300453186,266.1451299190521,266.1451299190521,266.1451299190521,266.1451299190521,266.1451299190521,266.1451299190521,266.1451299190521,267.3815932273865,1,1.3776366710662842,None,,,,,,,,,,,,,,,,,,161,2,2025-02-28_13h16.47.650,comp,2024.2.4,51.551141810673286,2025-02-28 13h17.03.961211 -0500,
48,48,0,critical,hwd,35.0,4.0,lower,133.0,57.0,57.0,133.0,70.0,70.0,2,2.1748321056365967,None,,,,,0,0,0,0,0,48,48,100,267.39933919906616,,,,,,,,,,,,,,,,,,,,,,,,,,,,,,,,,,,,,,,,,,,,,,,,,,,,,,,,,,,,,,,,,,,,,,,,,,,,,,,,,133.0,57.0,57.0,133.0,70.0,70.0,4.0,4.1,-191,-276,0,-10,198,-261,267.3832197189331,267.38330078125,267.38636302948,267.39933919906616,267.5501766204834,267.5501766204834,267.5501766204834,267.5501766204834,267.5501766204834,267.5501766204834,267.5501766204834,269.5796365737915,2,2.1748321056365967,None,,,,,,,,,,,,,,,,,,161,2,2025-02-28_13h16.47.650,comp,2024.2.4,51.551141810673286,2025-02-28 13h17.03.961211 -0500,
49,49,0,critical,dhw,20.0,2.1,upper,141.0,141.0,200.0,125.0,125.0,200.0,2,3.87713885307312,None,,,,,0,0,0,0,0,49,49,27,269.60101222991943,,,,,,,,,,,,,,,,,,,,,,,,,,,,,,,,,,,,,,,,,,,,,,,,,,,,,,,,,,,,,,,,,,,,,,,,,,,,,,,,,141.0,141.0,200.0,125.0,125.0,200.0,2.1,2.11,-229,254,0,266,258,-290,269.58135175704956,269.58144640922546,269.585186958313,269.60101222991943,269.7460253238678,269.7460253238678,269.7460253238678,269.7460253238678,269.7460253238678,269.7460253238678,269.7460253238678,273.48138666152954,2,3.87713885307312,None,,,,,,,,,,,,,,,,,,161,2,2025-02-28_13h16.47.650,comp,2024.2.4,51.551141810673286,2025-02-28 13h17.03.961211 -0500,
50,50,0,critical,hwd,20.0,2.1,lower,133.0,57.0,57.0,133.0,78.0,78.0,1,1.7812142372131348,None,,,,,0,0,0,0,0,50,50,18,273.49690890312195,,,,,,,,,,,,,,,,,,,,,,,,,,,,,,,,,,,,,,,,,,,,,,,,,,,,,,,,,,,,,,,,,,,,,,,,,,,,,,,,,133.0,57.0,57.0,133.0,78.0,78.0,2.1,2.11,-191,289,0,251,202,-269,273.4828550815582,273.4829292297363,273.48624420166016,273.49690890312195,273.64994382858276,273.64994382858276,273.64994382858276,273.64994382858276,273.64994382858276,273.64994382858276,273.64994382858276,275.28188610076904,1,1.7812142372131348,None,,,,,,,,,,,,,,,,,,161,2,2025-02-28_13h16.47.650,comp,2024.2.4,51.551141810673286,2025-02-28 13h17.03.961211 -0500,
51,51,0,filler_square,None,None,None,None,None,None,None,None,None,None,2,2.0598044395446777,None,,,,,0,0,0,0,0,51,51,183,275.2993743419647,,,,,,,,,,,,,,,,,,,,,,,,,,,,,,,,,,,,,,,,,,,,,,,,,,,,,,,,,,,,,,,,,,,,,,,,,,,,,,,,,93.69310701734852,172.74836409063005,196.1443422486499,196.1443422486499,194.07772295316767,132.9389003014639,2.1,2.11,-280,275,0,283,261,-259,275.2837212085724,275.28380155563354,275.2877676486969,275.2993743419647,275.445921421051,275.445921421051,275.445921421051,275.445921421051,275.445921421051,275.445921421051,275.445921421051,277.3641321659088,2,2.0598044395446777,None,,,,,,,,,,,,,,,,,,161,2,2025-02-28_13h16.47.650,comp,2024.2.4,51.551141810673286,2025-02-28 13h17.03.961211 -0500,
52,52,0,filler_square,None,None,None,None,None,None,None,None,None,None,1,9.722138404846191,None,,,,,0,0,0,0,0,52,52,209,277.3809883594513,,,,,,,,,,,,,,,,,,,,,,,,,,,,,,,,,,,,,,,,,,,,,,,,,,,,,,,,,,,,,,,,,,,,,,,,,,,,,,,,,58.81688770466106,58.81688770466106,57.19880552183879,57.57155136569995,58.63667521476497,58.33161335196829,3.0,3.2,-154,-284,0,-4,154,284,277.36583137512207,277.36590600013733,277.3692171573639,277.3809883594513,277.53408551216125,277.53408551216125,277.53408551216125,277.53408551216125,277.53408551216125,277.53408551216125,277.53408551216125,287.1182858943939,1,9.722138404846191,None,,,,,,,,,,,,,,,,,,161,2,2025-02-28_13h16.47.650,comp,2024.2.4,51.551141810673286,2025-02-28 13h17.03.961211 -0500,
53,53,0,critical,hdw,20.0,1.0,lower,133.0,57.0,78.0,78.0,57.0,133.0,3,2.5364131927490234,None,,,,,0,0,0,0,0,53,53,114,287.1340243816376,,,,,,,,,,,,,,,,,,,,,,,,,,,,,,,,,,,,,,,,,,,,,,,,,,,,,,,,,,,,,,,,,,,,,,,,,,,,,,,,,133.0,57.0,78.0,78.0,57.0,133.0,1.0,1.1,-644,289,-480,276,-278,260,287.1198616027832,287.11993646621704,287.1235156059265,287.1340243816376,287.28571248054504,287.28571248054504,287.28571248054504,287.28571248054504,287.28571248054504,287.28571248054504,287.28571248054504,289.6726849079132,3,2.5364131927490234,None,,,,,,,,,,,,,,,,,,161,2,2025-02-28_13h16.47.650,comp,2024.2.4,51.551141810673286,2025-02-28 13h17.03.961211 -0500,
54,54,0,critical,whd,20.0,3.0,upper,125.0,200.0,200.0,125.0,141.0,141.0,2,3.1283698081970215,None,,,,,0,0,0,0,0,54,54,93,289.68827295303345,,,,,,,,,,,,,,,,,,,,,,,,,,,,,,,,,,,,,,,,,,,,,,,,,,,,,,,,,,,,,,,,,,,,,,,,,,,,,,,,,125.0,200.0,200.0,125.0,141.0,141.0,3.0,3.2,-258,-253,0,-20,229,275,289.6742832660675,289.67435789108276,289.6774079799652,289.68827295303345,289.8360254764557,289.8360254764557,289.8360254764557,289.8360254764557,289.8360254764557,289.8360254764557,289.8360254764557,292.8208167552948,2,3.1283698081970215,None,,,,,,,,,,,,,,,,,,161,2,2025-02-28_13h16.47.650,comp,2024.2.4,51.551141810673286,2025-02-28 13h17.03.961211 -0500,
55,55,0,critical,whd,35.0,3.0,upper,125.0,200.0,200.0,125.0,127.0,127.0,2,1.8640615940093994,None,,,,,0,0,0,0,0,55,55,87,292.8382704257965,,,,,,,,,,,,,,,,,,,,,,,,,,,,,,,,,,,,,,,,,,,,,,,,,,,,,,,,,,,,,,,,,,,,,,,,,,,,,,,,,125.0,200.0,200.0,125.0,127.0,127.0,3.0,3.2,-258,-266,0,12,222,260,292.82249331474304,292.82256984710693,292.82623410224915,292.8382704257965,292.9882504940033,292.9882504940033,292.9882504940033,292.9882504940033,292.9882504940033,292.9882504940033,292.9882504940033,294.7066297531128,2,1.8640615940093994,None,,,,,,,,,,,,,,,,,,161,2,2025-02-28_13h16.47.650,comp,2024.2.4,51.551141810673286,2025-02-28 13h17.03.961211 -0500,
56,56,0,critical,hwd,35.0,3.0,lower,133.0,57.0,57.0,133.0,70.0,70.0,1,3.3404088020324707,None,,,,,0,0,0,0,0,56,56,98,294.72265219688416,,,,,,,,,,,,,,,,,,,,,,,,,,,,,,,,,,,,,,,,,,,,,,,,,,,,,,,,,,,,,,,,,,,,,,,,,,,,,,,,,133.0,57.0,57.0,133.0,70.0,70.0,3.0,3.2,-191,-256,0,-18,198,269,294.70823097229004,294.7083065509796,294.71190071105957,294.72265219688416,294.8746542930603,294.8746542930603,294.8746542930603,294.8746542930603,294.8746542930603,294.8746542930603,294.8746542930603,298.07203578948975,1,3.3404088020324707,None,,,,,,,,,,,,,,,,,,161,2,2025-02-28_13h16.47.650,comp,2024.2.4,51.551141810673286,2025-02-28 13h17.03.961211 -0500,
57,57,0,critical,dwh,35.0,2.1,lower,70.0,70.0,57.0,133.0,133.0,57.0,3,2.134171724319458,None,,,,,0,0,0,0,0,57,57,28,298.0882902145386,,,,,,,,,,,,,,,,,,,,,,,,,,,,,,,,,,,,,,,,,,,,,,,,,,,,,,,,,,,,,,,,,,,,,,,,,,,,,,,,,70.0,70.0,57.0,133.0,133.0,57.0,2.1,2.11,-198,279,0,272,191,-271,298.07369804382324,298.07381796836853,298.07743859291077,298.0882902145386,298.23957347869873,298.23957347869873,298.23957347869873,298.23957347869873,298.23957347869873,298.23957347869873,298.23957347869873,300.22547698020935,3,2.134171724319458,None,,,,,,,,,,,,,,,,,,161,2,2025-02-28_13h16.47.650,comp,2024.2.4,51.551141810673286,2025-02-28 13h17.03.961211 -0500,
58,58,0,critical,hdw,20.0,1.0,upper,200.0,125.0,141.0,141.0,125.0,200.0,3,5.012438058853149,None,,,,,0,0,0,0,0,58,58,115,300.24401354789734,,,,,,,,,,,,,,,,,,,,,,,,,,,,,,,,,,,,,,,,,,,,,,,,,,,,,,,,,,,,,,,,,,,,,,,,,,,,,,,,,200.0,125.0,141.0,141.0,125.0,200.0,1.0,1.1,-709,257,-480,276,-214,277,300.22724437713623,300.22736620903015,300.23079538345337,300.24401354789734,300.38921213150024,300.38921213150024,300.38921213150024,300.38921213150024,300.38921213150024,300.38921213150024,300.38921213150024,305.25881934165955,3,5.012438058853149,None,,,,,,,,,,,,,,,,,,161,2,2025-02-28_13h16.47.650,comp,2024.2.4,51.551141810673286,2025-02-28 13h17.03.961211 -0500,
59,59,0,filler_square,None,None,None,None,None,None,None,None,None,None,1,2.4982399940490723,None,,,,,0,0,0,0,0,59,59,197,305.27720880508423,,,,,,,,,,,,,,,,,,,,,,,,,,,,,,,,,,,,,,,,,,,,,,,,,,,,,,,,,,,,,,,,,,,,,,,,,,,,,,,,,187.0442347023414,187.0442347023414,105.64817158412421,141.84409251820554,57.3203403198789,165.36085779104968,4.0,4.1,-260,-285,0,5,250,-252,305.26100969314575,305.26108860969543,305.2652966976166,305.27720880508423,305.4296250343323,305.4296250343323,305.4296250343323,305.4296250343323,305.4296250343323,305.4296250343323,305.4296250343323,307.7908091545105,1,2.4982399940490723,None,,,,,,,,,,,,,,,,,,161,2,2025-02-28_13h16.47.650,comp,2024.2.4,51.551141810673286,2025-02-28 13h17.03.961211 -0500,
60,60,0,catch,None,None,None,None,None,None,None,None,None,None,2,1.2379684448242188,None,,,,,0,0,0,0,0,60,60,127,307.8092019557953,,,,,,,,,,,,,,,,,,,,,,,,,,,,,,,,,,,,,,,,,,,,,,,,,,,,,,,,,,,,,,,,,,,,,,,,,,,,,,,,,110,80,169,156,58,132,3.0,3.2,-214,-272,0,-16,240,273,307.79297494888306,307.79306268692017,307.7966248989105,307.8092019557953,307.9596600532532,307.9596600532532,307.9596600532532,307.9596600532532,307.9596600532532,307.9596600532532,307.9596600532532,309.06277561187744,2,1.2379684448242188,None,,,,,,,,,,,,,,,,,,161,2,2025-02-28_13h16.47.650,comp,2024.2.4,51.551141810673286,2025-02-28 13h17.03.961211 -0500,
61,61,0,critical,wdh,20.0,3.0,lower,57.0,133.0,78.0,78.0,133.0,57.0,3,3.102191686630249,None,,,,,0,0,0,0,0,61,61,80,309.08065271377563,,,,,,,,,,,,,,,,,,,,,,,,,,,,,,,,,,,,,,,,,,,,,,,,,,,,,,,,,,,,,,,,,,,,,,,,,,,,,,,,,57.0,133.0,78.0,78.0,133.0,57.0,3.0,3.1,-202,252,0,16,164,-250,309.0644357204437,309.06450867652893,309.0678861141205,309.08065271377563,309.22635221481323,309.22635221481323,309.22635221481323,309.22635221481323,309.22635221481323,309.22635221481323,309.22635221481323,312.19167399406433,3,3.102191686630249,None,,,,,,,,,,,,,,,,,,161,2,2025-02-28_13h16.47.650,comp,2024.2.4,51.551141810673286,2025-02-28 13h17.03.961211 -0500,
62,62,0,critical,dhw,35.0,3.0,lower,70.0,70.0,133.0,57.0,57.0,133.0,2,2.1504127979278564,None,,,,,0,0,0,0,0,62,62,50,312.207888841629,,,,,,,,,,,,,,,,,,,,,,,,,,,,,,,,,,,,,,,,,,,,,,,,,,,,,,,,,,,,,,,,,,,,,,,,,,,,,,,,,70.0,70.0,133.0,57.0,57.0,133.0,3.0,3.1,-160,271,0,16,191,-267,312.1932907104492,312.1933653354645,312.19682574272156,312.207888841629,312.36301016807556,312.36301016807556,312.36301016807556,312.36301016807556,312.36301016807556,312.36301016807556,312.36301016807556,314.37601113319397,2,2.1504127979278564,None,,,,,,,,,,,,,,,,,,161,2,2025-02-28_13h16.47.650,comp,2024.2.4,51.551141810673286,2025-02-28 13h17.03.961211 -0500,
63,63,0,critical,hwd,20.0,2.1,lower,133.0,57.0,57.0,133.0,78.0,78.0,1,3.173461437225342,None,,,,,0,0,0,0,0,63,63,42,314.39365100860596,,,,,,,,,,,,,,,,,,,,,,,,,,,,,,,,,,,,,,,,,,,,,,,,,,,,,,,,,,,,,,,,,,,,,,,,,,,,,,,,,133.0,57.0,57.0,133.0,78.0,78.0,2.1,2.12,-191,-272,0,-259,202,275,314.37756419181824,314.37764024734497,314.38116335868835,314.39365100860596,314.5308635234833,314.5308635234833,314.5308635234833,314.5308635234833,314.5308635234833,314.5308635234833,314.5308635234833,317.57489681243896,1,3.173461437225342,None,,,,,,,,,,,,,,,,,,161,2,2025-02-28_13h16.47.650,comp,2024.2.4,51.551141810673286,2025-02-28 13h17.03.961211 -0500,
64,64,0,filler_random,None,None,None,None,None,None,None,None,None,None,2,2.5357484817504883,None,,,,,0,0,0,0,0,64,64,147,317.5913779735565,,,,,,,,,,,,,,,,,,,,,,,,,,,,,,,,,,,,,,,,,,,,,,,,,,,,,,,,,,,,,,,,,,,,,,,,,,,,,,,,,57.085926463367606,199.0299492156506,187.06827661866387,105.13355062355416,66.855422380184,116.77650238260242,2.1,2.12,-248,-268,0,-275,207,272,317.5766713619232,317.57675075531006,317.5797724723816,317.5913779735565,317.74288296699524,317.74288296699524,317.74288296699524,317.74288296699524,317.74288296699524,317.74288296699524,317.74288296699524,320.1339099407196,2,2.5357484817504883,None,,,,,,,,,,,,,,,,,,161,2,2025-02-28_13h16.47.650,comp,2024.2.4,51.551141810673286,2025-02-28 13h17.03.961211 -0500,
65,65,0,critical,whd,20.0,2.1,upper,125.0,200.0,200.0,125.0,141.0,141.0,2,1.9438490867614746,None,,,,,0,0,0,0,0,65,65,15,320.15085077285767,,,,,,,,,,,,,,,,,,,,,,,,,,,,,,,,,,,,,,,,,,,,,,,,,,,,,,,,,,,,,,,,,,,,,,,,,,,,,,,,,125.0,200.0,200.0,125.0,141.0,141.0,2.1,2.12,-258,-277,0,-273,229,288,320.13557171821594,320.13565731048584,320.1390845775604,320.15085077285767,320.2945830821991,320.2945830821991,320.2945830821991,320.2945830821991,320.2945830821991,320.2945830821991,320.2945830821991,322.10560417175293,2,1.9438490867614746,None,,,,,,,,,,,,,,,,,,161,2,2025-02-28_13h16.47.650,comp,2024.2.4,51.551141810673286,2025-02-28 13h17.03.961211 -0500,
66,66,0,critical,hdw,35.0,4.0,lower,133.0,57.0,70.0,70.0,57.0,133.0,3,1.9866011142730713,None,,,,,0,0,0,0,0,66,66,112,322.1239130496979,,,,,,,,,,,,,,,,,,,,,,,,,,,,,,,,,,,,,,,,,,,,,,,,,,,,,,,,,,,,,,,,,,,,,,,,,,,,,,,,,133.0,57.0,70.0,70.0,57.0,133.0,4.0,4.2,-160,14,0,-283,198,0,322.10719871520996,322.1072738170624,322.110693693161,322.1239130496979,322.26190066337585,322.26190066337585,322.26190066337585,322.26190066337585,322.26190066337585,322.26190066337585,322.26190066337585,324.11254930496216,3,1.9866011142730713,None,,,,,,,,,,,,,,,,,,161,2,2025-02-28_13h16.47.650,comp,2024.2.4,51.551141810673286,2025-02-28 13h17.03.961211 -0500,
67,67,0,filler_random,None,None,None,None,None,None,None,None,None,None,3,2.9055628776550293,None,,,,,0,0,0,0,0,67,67,157,324.13406562805176,,,,,,,,,,,,,,,,,,,,,,,,,,,,,,,,,,,,,,,,,,,,,,,,,,,,,,,,,,,,,,,,,,,,,,,,,,,,,,,,,128.7829746397419,119.82986789970823,160.09677429040823,169.55088357485812,158.39763052522574,182.47415624384183,3.0,3.1,-241,256,0,6,272,-270,324.1142590045929,324.1143352985382,324.11769247055054,324.13406562805176,324.26823329925537,324.26823329925537,324.26823329925537,324.26823329925537,324.26823329925537,324.26823329925537,324.26823329925537,327.04829359054565,3,2.9055628776550293,None,,,,,,,,,,,,,,,,,,161,2,2025-02-28_13h16.47.650,comp,2024.2.4,51.551141810673286,2025-02-28 13h17.03.961211 -0500,
68,68,0,critical,hwd,35.0,2.1,upper,200.0,125.0,125.0,200.0,127.0,127.0,2,1.3003473281860352,None,,,,,0,0,0,0,0,68,68,41,327.06593775749207,,,,,,,,,,,,,,,,,,,,,,,,,,,,,,,,,,,,,,,,,,,,,,,,,,,,,,,,,,,,,,,,,,,,,,,,,,,,,,,,,200.0,125.0,125.0,200.0,127.0,127.0,2.1,2.11,-258,263,0,271,260,-278,327.0498697757721,327.0499458312988,327.0544238090515,327.06593775749207,327.2145926952362,327.2145926952362,327.2145926952362,327.2145926952362,327.2145926952362,327.2145926952362,327.2145926952362,328.3828926086426,2,1.3003473281860352,None,,,,,,,,,,,,,,,,,,161,2,2025-02-28_13h16.47.650,comp,2024.2.4,51.551141810673286,2025-02-28 13h17.03.961211 -0500,
69,69,0,critical,whd,20.0,2.1,lower,57.0,133.0,133.0,57.0,78.0,78.0,2,2.5913851261138916,None,,,,,0,0,0,0,0,69,69,38,328.3989827632904,,,,,,,,,,,,,,,,,,,,,,,,,,,,,,,,,,,,,,,,,,,,,,,,,,,,,,,,,,,,,,,,,,,,,,,,,,,,,,,,,57.0,133.0,133.0,57.0,78.0,78.0,2.1,2.12,-191,-261,0,-270,164,283,328.3846597671509,328.38474225997925,328.3881196975708,328.3989827632904,328.5481626987457,328.5481626987457,328.5481626987457,328.5481626987457,328.5481626987457,328.5481626987457,328.5481626987457,331.004070520401,2,2.5913851261138916,None,,,,,,,,,,,,,,,,,,161,2,2025-02-28_13h16.47.650,comp,2024.2.4,51.551141810673286,2025-02-28 13h17.03.961211 -0500,
70,70,0,filler_random,None,None,None,None,None,None,None,None,None,None,1,2.9123432636260986,None,,,,,0,0,0,0,0,70,70,164,331.02193450927734,,,,,,,,,,,,,,,,,,,,,,,,,,,,,,,,,,,,,,,,,,,,,,,,,,,,,,,,,,,,,,,,,,,,,,,,,,,,,,,,,163.4979907849288,94.95265239270915,123.04614095329632,117.66677650128167,108.42423744685976,130.91954448543714,4.0,4.2,-202,-1,0,-285,220,0,331.0057215690613,331.0058014392853,331.00882148742676,331.02193450927734,331.1654939651489,331.1654939651489,331.1654939651489,331.1654939651489,331.1654939651489,331.1654939651489,331.1654939651489,333.93784403800964,1,2.9123432636260986,None,,,,,,,,,,,,,,,,,,161,2,2025-02-28_13h16.47.650,comp,2024.2.4,51.551141810673286,2025-02-28 13h17.03.961211 -0500,
71,71,0,filler_square,None,None,None,None,None,None,None,None,None,None,1,2.715937852859497,None,,,,,0,0,0,0,0,71,71,177,333.95505833625793,,,,,,,,,,,,,,,,,,,,,,,,,,,,,,,,,,,,,,,,,,,,,,,,,,,,,,,,,,,,,,,,,,,,,,,,,,,,,,,,,131.06325900948673,131.06325900948673,126.38541937027094,78.09019095943,120.1432692048567,118.88382716032774,2.1,2.12,-201,-261,0,-251,194,280,333.9398877620697,333.9400200843811,333.94371151924133,333.95505833625793,334.10605573654175,334.10605573654175,334.10605573654175,334.10605573654175,334.10605573654175,334.10605573654175,334.10605573654175,336.6873459815979,1,2.715937852859497,None,,,,,,,,,,,,,,,,,,161,2,2025-02-28_13h16.47.650,comp,2024.2.4,51.551141810673286,2025-02-28 13h17.03.961211 -0500,
72,72,0,critical,hwd,20.0,2.1,upper,200.0,125.0,125.0,200.0,141.0,141.0,1,3.471384286880493,None,,,,,0,0,0,0,0,72,72,43,336.7037785053253,,,,,,,,,,,,,,,,,,,,,,,,,,,,,,,,,,,,,,,,,,,,,,,,,,,,,,,,,,,,,,,,,,,,,,,,,,,,,,,,,200.0,125.0,125.0,200.0,141.0,141.0,2.1,2.12,-258,-268,0,-273,266,252,336.68891644477844,336.68902468681335,336.69247341156006,336.7037785053253,336.8510549068451,336.8510549068451,336.8510549068451,336.8510549068451,336.8510549068451,336.8510549068451,336.8510549068451,340.18585324287415,1,3.471384286880493,None,,,,,,,,,,,,,,,,,,161,2,2025-02-28_13h16.47.650,comp,2024.2.4,51.551141810673286,2025-02-28 13h17.03.961211 -0500,
73,73,0,critical,wdh,20.0,2.1,lower,57.0,133.0,78.0,78.0,133.0,57.0,3,3.4680328369140625,None,,,,,0,0,0,0,0,73,73,10,340.20235419273376,,,,,,,,,,,,,,,,,,,,,,,,,,,,,,,,,,,,,,,,,,,,,,,,,,,,,,,,,,,,,,,,,,,,,,,,,,,,,,,,,57.0,133.0,78.0,78.0,133.0,57.0,2.1,2.11,-202,284,0,261,164,-254,340.1874063014984,340.18748211860657,340.1916115283966,340.20235419273376,340.3548800945282,340.3548800945282,340.3548800945282,340.3548800945282,340.3548800945282,340.3548800945282,340.3548800945282,343.68673849105835,3,3.4680328369140625,None,,,,,,,,,,,,,,,,,,161,2,2025-02-28_13h16.47.650,comp,2024.2.4,51.551141810673286,2025-02-28 13h17.03.961211 -0500,
74,74,0,critical,hwd,20.0,2.1,upper,200.0,125.0,125.0,200.0,141.0,141.0,1,2.2803821563720703,None,,,,,0,0,0,0,0,74,74,19,343.70282220840454,,,,,,,,,,,,,,,,,,,,,,,,,,,,,,,,,,,,,,,,,,,,,,,,,,,,,,,,,,,,,,,,,,,,,,,,,,,,,,,,,200.0,125.0,125.0,200.0,141.0,141.0,2.1,2.12,-258,-286,0,-273,266,253,343.68828773498535,343.68836426734924,343.6925127506256,343.70282220840454,343.8555521965027,343.8555521965027,343.8555521965027,343.8555521965027,343.8555521965027,343.8555521965027,343.8555521965027,345.9888560771942,1,2.2803821563720703,None,,,,,,,,,,,,,,,,,,161,2,2025-02-28_13h16.47.650,comp,2024.2.4,51.551141810673286,2025-02-28 13h17.03.961211 -0500,
75,75,0,filler_square,None,None,None,None,None,None,None,None,None,None,3,1.5791327953338623,None,,,,,0,0,0,0,0,75,75,185,346.0033960342407,,,,,,,,,,,,,,,,,,,,,,,,,,,,,,,,,,,,,,,,,,,,,,,,,,,,,,,,,,,,,,,,,,,,,,,,,,,,,,,,,72.87792178298099,57.386865957,59.46498195334895,77.47503508031474,103.26437406786725,103.26437406786725,1.0,1.1,-643,266,-480,280,-294,257,345.99079751968384,345.99087953567505,345.99405097961426,346.0033960342407,346.15184903144836,346.15184903144836,346.15184903144836,346.15184903144836,346.15184903144836,346.15184903144836,346.15184903144836,347.58754873275757,3,1.5791327953338623,None,,,,,,,,,,,,,,,,,,161,2,2025-02-28_13h16.47.650,comp,2024.2.4,51.551141810673286,2025-02-28 13h17.03.961211 -0500,
76,76,0,critical,wdh,20.0,4.0,upper,125.0,200.0,141.0,141.0,200.0,125.0,3,3.218472957611084,None,,,,,0,0,0,0,0,76,76,83,347.60420989990234,,,,,,,,,,,,,,,,,,,,,,,,,,,,,,,,,,,,,,,,,,,,,,,,,,,,,,,,,,,,,,,,,,,,,,,,,,,,,,,,,125.0,200.0,141.0,141.0,200.0,125.0,4.0,4.1,-266,-275,0,11,229,-279,347.589147567749,347.58925342559814,347.5929448604584,347.60420989990234,347.7524576187134,347.7524576187134,347.7524576187134,347.7524576187134,347.7524576187134,347.7524576187134,347.7524576187134,350.8384659290314,3,3.218472957611084,None,,,,,,,,,,,,,,,,,,161,2,2025-02-28_13h16.47.650,comp,2024.2.4,51.551141810673286,2025-02-28 13h17.03.961211 -0500,
77,77,0,filler_square,None,None,None,None,None,None,None,None,None,None,1,3.3291945457458496,None,,,,,0,0,0,0,0,77,77,198,350.85384917259216,,,,,,,,,,,,,,,,,,,,,,,,,,,,,,,,,,,,,,,,,,,,,,,,,,,,,,,,,,,,,,,,,,,,,,,,,,,,,,,,,129.42522366114068,129.42522366114068,94.02531120002496,127.39173386598368,102.91360103265583,75.83883116479538,2.2,2.21,-224,-269,0,278,198,263,350.8402798175812,350.84035754203796,350.8435711860657,350.85384917259216,351.00517296791077,351.00517296791077,351.00517296791077,351.00517296791077,351.00517296791077,351.00517296791077,351.00517296791077,354.18799352645874,1,3.3291945457458496,None,,,,,,,,,,,,,,,,,,161,2,2025-02-28_13h16.47.650,comp,2024.2.4,51.551141810673286,2025-02-28 13h17.03.961211 -0500,
78,78,0,filler_square,None,None,None,None,None,None,None,None,None,None,1,1.969566822052002,None,,,,,0,0,0,0,0,78,78,172,354.20475578308105,,,,,,,,,,,,,,,,,,,,,,,,,,,,,,,,,,,,,,,,,,,,,,,,,,,,,,,,,,,,,,,,,,,,,,,,,,,,,,,,,71.77874912156429,71.77874912156429,61.244140622978534,60.42760211517002,65.84504442311406,67.80478074804941,2.2,2.21,-162,-269,0,256,160,259,354.1897642612457,354.18984293937683,354.1929302215576,354.20475578308105,354.35942935943604,354.35942935943604,354.35942935943604,354.35942935943604,354.35942935943604,354.35942935943604,354.35942935943604,356.19105434417725,1,1.969566822052002,None,,,,,,,,,,,,,,,,,,161,2,2025-02-28_13h16.47.650,comp,2024.2.4,51.551141810673286,2025-02-28 13h17.03.961211 -0500,
79,79,0,critical,hwd,20.0,1.0,lower,133.0,57.0,57.0,133.0,78.0,78.0,1,3.6796212196350098,None,,,,,0,0,0,0,0,79,79,102,356.2072448730469,,,,,,,,,,,,,,,,,,,,,,,,,,,,,,,,,,,,,,,,,,,,,,,,,,,,,,,,,,,,,,,,,,,,,,,,,,,,,,,,,133.0,57.0,57.0,133.0,78.0,78.0,1.0,1.3,289,-275,480,-274,682,-289,356.19260334968567,356.1926999092102,356.19684195518494,356.2072448730469,356.3572278022766,356.3572278022766,356.3572278022766,356.3572278022766,356.3572278022766,356.3572278022766,356.3572278022766,359.8899350166321,1,3.6796212196350098,None,,,,,,,,,,,,,,,,,,161,2,2025-02-28_13h16.47.650,comp,2024.2.4,51.551141810673286,2025-02-28 13h17.03.961211 -0500,
80,80,0,critical,whd,35.0,4.0,upper,125.0,200.0,200.0,125.0,127.0,127.0,2,4.2589147090911865,None,,,,,0,0,0,0,0,80,80,89,359.9081847667694,,,,,,,,,,,,,,,,,,,,,,,,,,,,,,,,,,,,,,,,,,,,,,,,,,,,,,,,,,,,,,,,,,,,,,,,,,,,,,,,,125.0,200.0,200.0,125.0,127.0,127.0,4.0,4.1,-258,-270,0,6,222,-257,359.8914043903351,359.8914797306061,359.89457654953003,359.9081847667694,360.0630910396576,360.0630910396576,360.0630910396576,360.0630910396576,360.0630910396576,360.0630910396576,360.0630910396576,364.1754310131073,2,4.2589147090911865,None,,,,,,,,,,,,,,,,,,161,2,2025-02-28_13h16.47.650,comp,2024.2.4,51.551141810673286,2025-02-28 13h17.03.961211 -0500,
81,81,0,filler_random,None,None,None,None,None,None,None,None,None,None,1,2.2848963737487793,None,,,,,0,0,0,0,0,81,81,140,364.1935076713562,,,,,,,,,,,,,,,,,,,,,,,,,,,,,,,,,,,,,,,,,,,,,,,,,,,,,,,,,,,,,,,,,,,,,,,,,,,,,,,,,114.73180281837742,135.31191764434325,93.83377639743006,57.17570407278944,63.80180057416459,106.84590328004211,3.0,3.2,-192,-265,0,8,178,275,364.17715787887573,364.1772391796112,364.18036222457886,364.1935076713562,364.34271144866943,364.34271144866943,364.34271144866943,364.34271144866943,364.34271144866943,364.34271144866943,364.34271144866943,366.4919888973236,1,2.2848963737487793,None,,,,,,,,,,,,,,,,,,161,2,2025-02-28_13h16.47.650,comp,2024.2.4,51.551141810673286,2025-02-28 13h17.03.961211 -0500,
82,82,0,filler_square,None,None,None,None,None,None,None,None,None,None,1,1.6735260486602783,None,,,,,0,0,0,0,0,82,82,187,366.5088675022125,,,,,,,,,,,,,,,,,,,,,,,,,,,,,,,,,,,,,,,,,,,,,,,,,,,,,,,,,,,,,,,,,,,,,,,,,,,,,,,,,134.00662290237835,134.00662290237835,124.68514481544898,129.9964879783554,115.9425587601151,133.28976400392514,3.0,3.2,-228,-278,0,7,228,255,366.4940233230591,366.49409890174866,366.4976077079773,366.5088675022125,366.6628956794739,366.6628956794739,366.6628956794739,366.6628956794739,366.6628956794739,366.6628956794739,366.6628956794739,368.19215059280396,1,1.6735260486602783,None,,,,,,,,,,,,,,,,,,161,2,2025-02-28_13h16.47.650,comp,2024.2.4,51.551141810673286,2025-02-28 13h17.03.961211 -0500,
83,83,0,filler_square,None,None,None,None,None,None,None,None,None,None,2,3.3648509979248047,None,,,,,0,0,0,0,0,83,83,192,368.2095491886139,,,,,,,,,,,,,,,,,,,,,,,,,,,,,,,,,,,,,,,,,,,,,,,,,,,,,,,,,,,,,,,,,,,,,,,,,,,,,,,,,137.61461437920667,122.63152652642543,143.72237721397562,143.72237721397562,104.08889352317637,84.98948983578993,3.0,3.2,-229,-268,0,19,210,273,368.1941704750061,368.19424986839294,368.19770550727844,368.2095491886139,368.3490991592407,368.3490991592407,368.3490991592407,368.3490991592407,368.3490991592407,368.3490991592407,368.3490991592407,371.57797503471375,2,3.3648509979248047,None,,,,,,,,,,,,,,,,,,161,2,2025-02-28_13h16.47.650,comp,2024.2.4,51.551141810673286,2025-02-28 13h17.03.961211 -0500,
84,84,0,critical,dwh,35.0,3.0,lower,70.0,70.0,57.0,133.0,133.0,57.0,3,3.292274236679077,None,,,,,0,0,0,0,0,84,84,62,371.5942225456238,,,,,,,,,,,,,,,,,,,,,,,,,,,,,,,,,,,,,,,,,,,,,,,,,,,,,,,,,,,,,,,,,,,,,,,,,,,,,,,,,70.0,70.0,57.0,133.0,133.0,57.0,3.0,3.2,-198,-252,0,11,191,255,371.5795929431915,371.5796730518341,371.5832710266113,371.5942225456238,371.7430775165558,371.7430775165558,371.7430775165558,371.7430775165558,371.7430775165558,371.7430775165558,371.7430775165558,374.8996534347534,3,3.292274236679077,None,,,,,,,,,,,,,,,,,,161,2,2025-02-28_13h16.47.650,comp,2024.2.4,51.551141810673286,2025-02-28 13h17.03.961211 -0500,
85,85,0,critical,dhw,20.0,3.0,upper,141.0,141.0,200.0,125.0,125.0,200.0,2,3.1230990886688232,None,,,,,0,0,0,0,0,85,85,57,374.9154498577118,,,,,,,,,,,,,,,,,,,,,,,,,,,,,,,,,,,,,,,,,,,,,,,,,,,,,,,,,,,,,,,,,,,,,,,,,,,,,,,,,141.0,141.0,200.0,125.0,125.0,200.0,3.0,3.2,-229,-263,0,-16,258,253,374.9013726711273,374.90150785446167,374.90513348579407,374.9154498577118,375.0696451663971,375.0696451663971,375.0696451663971,375.0696451663971,375.0696451663971,375.0696451663971,375.0696451663971,378.057825088501,2,3.1230990886688232,None,,,,,,,,,,,,,,,,,,161,2,2025-02-28_13h16.47.650,comp,2024.2.4,51.551141810673286,2025-02-28 13h17.03.961211 -0500,
86,86,0,filler_random,None,None,None,None,None,None,None,None,None,None,1,1.1469440460205078,None,,,,,0,0,0,0,0,86,86,158,378.07547545433044,,,,,,,,,,,,,,,,,,,,,,,,,,,,,,,,,,,,,,,,,,,,,,,,,,,,,,,,,,,,,,,,,,,,,,,,,,,,,,,,,193.35632013616336,191.05458273396906,191.3574909980831,136.91041224921923,116.4731854178699,166.92895845003997,2.2,2.22,-260,281,0,-265,248,-268,378.0596241950989,378.0596981048584,378.0628488063812,378.07547545433044,378.21506667137146,378.21506667137146,378.21506667137146,378.21506667137146,378.21506667137146,378.21506667137146,378.21506667137146,379.2342083454132,1,1.1469440460205078,None,,,,,,,,,,,,,,,,,,161,2,2025-02-28_13h16.47.650,comp,2024.2.4,51.551141810673286,2025-02-28 13h17.03.961211 -0500,
87,87,0,filler_square,None,None,None,None,None,None,None,None,None,None,3,1.7304823398590088,None,,,,,0,0,0,0,0,87,87,186,379.2519223690033,,,,,,,,,,,,,,,,,,,,,,,,,,,,,,,,,,,,,,,,,,,,,,,,,,,,,,,,,,,,,,,,,,,,,,,,,,,,,,,,,76.05029790573242,194.6331713911493,176.484239609129,179.89245158203994,199.7043669175056,199.7043669175056,1.0,1.2,-283,-2,0,-19,286,-9,379.2360088825226,379.23608899116516,379.2392382621765,379.2519223690033,379.3968896865845,379.3968896865845,379.3968896865845,379.3968896865845,379.3968896865845,379.3968896865845,379.3968896865845,380.99640464782715,3,1.7304823398590088,None,,,,,,,,,,,,,,,,,,161,2,2025-02-28_13h16.47.650,comp,2024.2.4,51.551141810673286,2025-02-28 13h17.03.961211 -0500,
88,88,0,catch,None,None,None,None,None,None,None,None,None,None,3,1.5136628150939941,None,,,,,0,0,0,0,0,88,88,126,381.01335096359253,,,,,,,,,,,,,,,,,,,,,,,,,,,,,,,,,,,,,,,,,,,,,,,,,,,,,,,,,,,,,,,,,,,,,,,,,,,,,,,,,80,110,112,78,160,165,2.1,2.11,-190,257,0,256,218,-275,380.99846053123474,380.9985330104828,381.002037525177,381.01335096359253,381.1690740585327,381.1690740585327,381.1690740585327,381.1690740585327,381.1690740585327,381.1690740585327,381.1690740585327,382.5365993976593,3,1.5136628150939941,None,,,,,,,,,,,,,,,,,,161,2,2025-02-28_13h16.47.650,comp,2024.2.4,51.551141810673286,2025-02-28 13h17.03.961211 -0500,
89,89,0,critical,hdw,20.0,3.0,upper,200.0,125.0,141.0,141.0,125.0,200.0,1,7.481602430343628,None,,,,,0,0,0,0,0,89,89,117,382.55686807632446,,,,,,,,,,,,,,,,,,,,,,,,,,,,,,,,,,,,,,,,,,,,,,,,,,,,,,,,,,,,,,,,,,,,,,,,,,,,,,,,,200.0,125.0,141.0,141.0,125.0,200.0,3.0,3.2,-229,-269,0,10,266,277,382.5381202697754,382.5382001399994,382.54126238822937,382.55686807632446,382.6998209953308,382.6998209953308,382.6998209953308,382.6998209953308,382.6998209953308,382.6998209953308,382.6998209953308,390.0527198314667,1,7.481602430343628,None,,,,,,,,,,,,,,,,,,161,2,2025-02-28_13h16.47.650,comp,2024.2.4,51.551141810673286,2025-02-28 13h17.03.961211 -0500,
90,90,0,filler_random,None,None,None,None,None,None,None,None,None,None,1,1.8420579433441162,None,,,,,0,0,0,0,0,90,90,146,390.0696144104004,,,,,,,,,,,,,,,,,,,,,,,,,,,,,,,,,,,,,,,,,,,,,,,,,,,,,,,,,,,,,,,,,,,,,,,,,,,,,,,,,185.87683661614798,172.42912360961384,73.40946820440351,169.29518859341167,196.6492004397475,143.31708373806654,2.2,2.22,-267,289,0,-254,252,-251,390.05463790893555,390.0547261238098,390.0583293437958,390.0696144104004,390.21740651130676,390.21740651130676,390.21740651130676,390.21740651130676,390.21740651130676,390.21740651130676,390.21740651130676,391.9182848930359,1,1.8420579433441162,None,,,,,,,,,,,,,,,,,,161,2,2025-02-28_13h16.47.650,comp,2024.2.4,51.551141810673286,2025-02-28 13h17.03.961211 -0500,
91,91,0,filler_square,None,None,None,None,None,None,None,None,None,None,3,7.0399556159973145,None,,,,,0,0,0,0,0,91,91,180,391.93473291397095,,,,,,,,,,,,,,,,,,,,,,,,,,,,,,,,,,,,,,,,,,,,,,,,,,,,,,,,,,,,,,,,,,,,,,,,,,,,,,,,,59.1965969347802,58.36858500241702,63.22463308859372,61.812229721687046,63.68383705212591,63.68383705212591,4.0,4.1,-156,-264,0,0,159,-285,391.92025899887085,391.92036533355713,391.9238667488098,391.93473291397095,392.0859296321869,392.0859296321869,392.0859296321869,392.0859296321869,392.0859296321869,392.0859296321869,392.0859296321869,398.985582113266,3,7.0399556159973145,None,,,,,,,,,,,,,,,,,,161,2,2025-02-28_13h16.47.650,comp,2024.2.4,51.551141810673286,2025-02-28 13h17.03.961211 -0500,
92,92,0,catch,None,None,None,None,None,None,None,None,None,None,1,1.2865095138549805,None,,,,,0,0,0,0,0,92,92,124,399.0080363750458,,,,,,,,,,,,,,,,,,,,,,,,,,,,,,,,,,,,,,,,,,,,,,,,,,,,,,,,,,,,,,,,,,,,,,,,,,,,,,,,,185,140,99,91,108,82,1.0,1.3,268,-281,480,-281,662,-271,398.98758006095886,398.9876596927643,398.99089765548706,399.0080363750458,399.1540439128876,399.1540439128876,399.1540439128876,399.1540439128876,399.1540439128876,399.1540439128876,399.1540439128876,400.31317353248596,1,1.2865095138549805,None,,,,,,,,,,,,,,,,,,161,2,2025-02-28_13h16.47.650,comp,2024.2.4,51.551141810673286,2025-02-28 13h17.03.961211 -0500,
93,93,0,critical,hdw,20.0,2.1,upper,200.0,125.0,141.0,141.0,125.0,200.0,1,2.284198522567749,None,,,,,0,0,0,0,0,93,93,23,400.3310556411743,,,,,,,,,,,,,,,,,,,,,,,,,,,,,,,,,,,,,,,,,,,,,,,,,,,,,,,,,,,,,,,,,,,,,,,,,,,,,,,,,200.0,125.0,141.0,141.0,125.0,200.0,2.1,2.11,-229,285,0,262,266,-283,400.31472539901733,400.31480073928833,400.31822085380554,400.3310556411743,400.4712038040161,400.4712038040161,400.4712038040161,400.4712038040161,400.4712038040161,400.4712038040161,400.4712038040161,402.6218264102936,1,2.284198522567749,None,,,,,,,,,,,,,,,,,,161,2,2025-02-28_13h16.47.650,comp,2024.2.4,51.551141810673286,2025-02-28 13h17.03.961211 -0500,
94,94,0,filler_random,None,None,None,None,None,None,None,None,None,None,1,1.6330687999725342,None,,,,,0,0,0,0,0,94,94,155,402.6377601623535,,,,,,,,,,,,,,,,,,,,,,,,,,,,,,,,,,,,,,,,,,,,,,,,,,,,,,,,,,,,,,,,,,,,,,,,,,,,,,,,,173.5223783667497,88.22017566187756,62.17781545750392,85.35344744995488,135.06853009040026,93.45403468634419,3.0,3.1,-183,267,0,8,185,-276,402.62349128723145,402.62356781959534,402.62707138061523,402.6377601623535,402.7896182537079,402.7896182537079,402.7896182537079,402.7896182537079,402.7896182537079,402.7896182537079,402.7896182537079,404.27621698379517,1,1.6330687999725342,None,,,,,,,,,,,,,,,,,,161,2,2025-02-28_13h16.47.650,comp,2024.2.4,51.551141810673286,2025-02-28 13h17.03.961211 -0500,
95,95,0,critical,dwh,35.0,2.1,lower,70.0,70.0,57.0,133.0,133.0,57.0,3,1.4704716205596924,None,,,,,0,0,0,0,0,95,95,4,404.2965660095215,,,,,,,,,,,,,,,,,,,,,,,,,,,,,,,,,,,,,,,,,,,,,,,,,,,,,,,,,,,,,,,,,,,,,,,,,,,,,,,,,70.0,70.0,57.0,133.0,133.0,57.0,2.1,2.12,-198,-285,0,-286,191,283,404.2778606414795,404.2779350280762,404.2813997268677,404.2965660095215,404.4393894672394,404.4393894672394,404.4393894672394,404.4393894672394,404.4393894672394,404.4393894672394,404.4393894672394,405.7773630619049,3,1.4704716205596924,None,,,,,,,,,,,,,,,,,,161,2,2025-02-28_13h16.47.650,comp,2024.2.4,51.551141810673286,2025-02-28 13h17.03.961211 -0500,
96,96,0,filler_square,None,None,None,None,None,None,None,None,None,None,3,2.2041656970977783,None,,,,,0,0,0,0,0,96,96,178,405.79534435272217,,,,,,,,,,,,,,,,,,,,,,,,,,,,,,,,,,,,,,,,,,,,,,,,,,,,,,,,,,,,,,,,,,,,,,,,,,,,,,,,,62.18236541031839,94.42166861235248,101.44810505855433,74.66958483676301,119.10598594907155,119.10598594907155,4.0,4.1,-181,-281,0,-8,193,-274,405.7790665626526,405.77914214134216,405.78212094306946,405.79534435272217,405.93894267082214,405.93894267082214,405.93894267082214,405.93894267082214,405.93894267082214,405.93894267082214,405.93894267082214,408.0052273273468,3,2.2041656970977783,None,,,,,,,,,,,,,,,,,,161,2,2025-02-28_13h16.47.650,comp,2024.2.4,51.551141810673286,2025-02-28 13h17.03.961211 -0500,
97,97,0,critical,hwd,35.0,1.0,lower,133.0,57.0,57.0,133.0,70.0,70.0,1,1.474015712738037,None,,,,,0,0,0,0,0,97,97,96,408.0216872692108,,,,,,,,,,,,,,,,,,,,,,,,,,,,,,,,,,,,,,,,,,,,,,,,,,,,,,,,,,,,,,,,,,,,,,,,,,,,,,,,,133.0,57.0,57.0,133.0,70.0,70.0,1.0,1.2,-191,16,0,18,198,4,408.0067071914673,408.00678420066833,408.0100259780884,408.0216872692108,408.17579102516174,408.17579102516174,408.17579102516174,408.17579102516174,408.17579102516174,408.17579102516174,408.17579102516174,409.51266646385193,1,1.474015712738037,None,,,,,,,,,,,,,,,,,,161,2,2025-02-28_13h16.47.650,comp,2024.2.4,51.551141810673286,2025-02-28 13h17.03.961211 -0500,
98,98,0,filler_square,None,None,None,None,None,None,None,None,None,None,3,1.8621094226837158,None,,,,,0,0,0,0,0,98,98,182,409.5287215709686,,,,,,,,,,,,,,,,,,,,,,,,,,,,,,,,,,,,,,,,,,,,,,,,,,,,,,,,,,,,,,,,,,,,,,,,,,,,,,,,,68.33378997904101,81.93288789667393,104.53296186255362,86.79153391760943,110.22219468926534,110.22219468926534,2.1,2.12,-180,-278,0,-280,195,277,409.51453948020935,409.51461815834045,409.5177252292633,409.5287215709686,409.67536664009094,409.67536664009094,409.67536664009094,409.67536664009094,409.67536664009094,409.67536664009094,409.67536664009094,411.4095230102539,3,1.8621094226837158,None,,,,,,,,,,,,,,,,,,161,2,2025-02-28_13h16.47.650,comp,2024.2.4,51.551141810673286,2025-02-28 13h17.03.961211 -0500,
99,99,0,critical,wdh,35.0,2.1,lower,57.0,133.0,70.0,70.0,133.0,57.0,3,2.748211622238159,None,,,,,0,0,0,0,0,99,99,8,411.4264178276062,,,,,,,,,,,,,,,,,,,,,,,,,,,,,,,,,,,,,,,,,,,,,,,,,,,,,,,,,,,,,,,,,,,,,,,,,,,,,,,,,57.0,133.0,70.0,70.0,133.0,57.0,2.1,2.11,-198,255,0,258,160,-256,411.4112706184387,411.4113459587097,411.41528129577637,411.4264178276062,411.5740339756012,411.5740339756012,411.5740339756012,411.5740339756012,411.5740339756012,411.5740339756012,411.5740339756012,414.1944646835327,3,2.748211622238159,None,,,,,,,,,,,,,,,,,,161,2,2025-02-28_13h16.47.650,comp,2024.2.4,51.551141810673286,2025-02-28 13h17.03.961211 -0500,
100,100,0,critical,whd,35.0,2.1,lower,57.0,133.0,133.0,57.0,70.0,70.0,2,3.090552806854248,None,,,,,0,0,0,0,0,100,100,12,414.21279644966125,,,,,,,,,,,,,,,,,,,,,,,,,,,,,,,,,,,,,,,,,,,,,,,,,,,,,,,,,,,,,,,,,,,,,,,,,,,,,,,,,57.0,133.0,133.0,57.0,70.0,70.0,2.1,2.11,-191,259,0,255,160,-256,414.1962203979492,414.1963520050049,414.19968271255493,414.21279644966125,414.3588135242462,414.3588135242462,414.3588135242462,414.3588135242462,414.3588135242462,414.3588135242462,414.3588135242462,417.31161761283875,2,3.090552806854248,None,,,,,,,,,,,,,,,,,,161,2,2025-02-28_13h16.47.650,comp,2024.2.4,51.551141810673286,2025-02-28 13h17.03.961211 -0500,
101,101,0,critical,dwh,20.0,2.1,lower,78.0,78.0,57.0,133.0,133.0,57.0,3,1.5323359966278076,None,,,,,0,0,0,0,0,101,101,30,417.33061361312866,,,,,,,,,,,,,,,,,,,,,,,,,,,,,,,,,,,,,,,,,,,,,,,,,,,,,,,,,,,,,,,,,,,,,,,,,,,,,,,,,78.0,78.0,57.0,133.0,133.0,57.0,2.1,2.12,-202,-274,0,-257,191,284,417.31347274780273,417.3136074542999,417.31687784194946,417.33061361312866,417.47648572921753,417.47648572921753,417.47648572921753,417.47648572921753,417.47648572921753,417.47648572921753,417.47648572921753,418.8682084083557,3,1.5323359966278076,None,,,,,,,,,,,,,,,,,,161,2,2025-02-28_13h16.47.650,comp,2024.2.4,51.551141810673286,2025-02-28 13h17.03.961211 -0500,
102,102,0,critical,dwh,35.0,2.1,upper,127.0,127.0,125.0,200.0,200.0,125.0,3,2.6044394969940186,None,,,,,0,0,0,0,0,102,102,29,418.8836555480957,,,,,,,,,,,,,,,,,,,,,,,,,,,,,,,,,,,,,,,,,,,,,,,,,,,,,,,,,,,,,,,,,,,,,,,,,,,,,,,,,127.0,127.0,125.0,200.0,200.0,125.0,2.1,2.11,-260,256,0,257,258,-284,418.8697175979614,418.8697953224182,418.872838973999,418.8836555480957,419.02438831329346,419.02438831329346,419.02438831329346,419.02438831329346,419.02438831329346,419.02438831329346,419.02438831329346,421.49299454689026,3,2.6044394969940186,None,,,,,,,,,,,,,,,,,,161,2,2025-02-28_13h16.47.650,comp,2024.2.4,51.551141810673286,2025-02-28 13h17.03.961211 -0500,
103,103,0,filler_random,None,None,None,None,None,None,None,None,None,None,2,1.6089155673980713,None,,,,,0,0,0,0,0,103,103,168,421.5095865726471,,,,,,,,,,,,,,,,,,,,,,,,,,,,,,,,,,,,,,,,,,,,,,,,,,,,,,,,,,,,,,,,,,,,,,,,,,,,,,,,,195.4567316070842,62.80500289667057,199.23642949796556,181.03114231512563,116.30589288742402,195.70472094303668,3.0,3.1,-218,263,0,-2,284,-271,421.49468183517456,421.494756937027,421.498104095459,421.5095865726471,421.66054034233093,421.66054034233093,421.66054034233093,421.66054034233093,421.66054034233093,421.66054034233093,421.66054034233093,423.13493847846985,2,1.6089155673980713,None,,,,,,,,,,,,,,,,,,161,2,2025-02-28_13h16.47.650,comp,2024.2.4,51.551141810673286,2025-02-28 13h17.03.961211 -0500,
104,104,0,filler_square,None,None,None,None,None,None,None,None,None,None,3,3.919624090194702,None,,,,,0,0,0,0,0,104,104,175,423.15122270584106,,,,,,,,,,,,,,,,,,,,,,,,,,,,,,,,,,,,,,,,,,,,,,,,,,,,,,,,,,,,,,,,,,,,,,,,,,,,,,,,,66.30770699427927,81.44366925306188,116.33099470012979,116.33099470012979,104.5569962886151,110.09187543095729,4.0,4.1,-195,-274,0,-14,209,-276,423.1367840766907,423.1368579864502,423.13992714881897,423.15122270584106,423.2954332828522,423.2954332828522,423.2954332828522,423.2954332828522,423.2954332828522,423.2954332828522,423.2954332828522,427.0728430747986,3,3.919624090194702,None,,,,,,,,,,,,,,,,,,161,2,2025-02-28_13h16.47.650,comp,2024.2.4,51.551141810673286,2025-02-28 13h17.03.961211 -0500,
105,105,0,critical,wdh,35.0,4.0,upper,125.0,200.0,127.0,127.0,200.0,125.0,3,2.839102268218994,None,,,,,0,0,0,0,0,105,105,77,427.0885193347931,,,,,,,,,,,,,,,,,,,,,,,,,,,,,,,,,,,,,,,,,,,,,,,,,,,,,,,,,,,,,,,,,,,,,,,,,,,,,,,,,125.0,200.0,127.0,127.0,200.0,125.0,4.0,4.1,-260,-287,0,-4,222,-280,427.0743992328644,427.0744786262512,427.0775537490845,427.0885193347931,427.22987389564514,427.22987389564514,427.22987389564514,427.22987389564514,427.22987389564514,427.22987389564514,427.22987389564514,429.93473839759827,3,2.839102268218994,None,,,,,,,,,,,,,,,,,,161,2,2025-02-28_13h16.47.650,comp,2024.2.4,51.551141810673286,2025-02-28 13h17.03.961211 -0500,
106,106,0,filler_random,None,None,None,None,None,None,None,None,None,None,1,1.5268142223358154,None,,,,,0,0,0,0,0,106,106,139,429.9537968635559,,,,,,,,,,,,,,,,,,,,,,,,,,,,,,,,,,,,,,,,,,,,,,,,,,,,,,,,,,,,,,,,,,,,,,,,,,,,,,,,,131.51466702881433,158.0844409726277,61.762680867640135,82.46401297708003,113.00628338711758,76.74940314774497,3.0,3.2,-216,-284,0,2,176,258,429.93647027015686,429.93654584884644,429.9395728111267,429.9537968635559,430.0970857143402,430.0970857143402,430.0970857143402,430.0970857143402,430.0970857143402,430.0970857143402,430.0970857143402,431.4886350631714,1,1.5268142223358154,None,,,,,,,,,,,,,,,,,,161,2,2025-02-28_13h16.47.650,comp,2024.2.4,51.551141810673286,2025-02-28 13h17.03.961211 -0500,
107,107,0,filler_random,None,None,None,None,None,None,None,None,None,None,2,1.628786563873291,None,,,,,0,0,0,0,0,107,107,149,431.50573086738586,,,,,,,,,,,,,,,,,,,,,,,,,,,,,,,,,,,,,,,,,,,,,,,,,,,,,,,,,,,,,,,,,,,,,,,,,,,,,,,,,82.23934107785394,96.8776106160273,103.95665994888569,186.08719176968992,100.24903467817121,59.11502944094541,4.0,4.1,-237,-279,0,1,219,-255,431.49049377441406,431.4905803203583,431.4940207004547,431.50573086738586,431.6466751098633,431.6466751098633,431.6466751098633,431.6466751098633,431.6466751098633,431.6466751098633,431.6466751098633,433.1491119861603,2,1.628786563873291,None,,,,,,,,,,,,,,,,,,161,2,2025-02-28_13h16.47.650,comp,2024.2.4,51.551141810673286,2025-02-28 13h17.03.961211 -0500,
108,108,0,filler_square,None,None,None,None,None,None,None,None,None,None,2,5.7615087032318115,None,,,,,0,0,0,0,0,108,108,170,433.1658601760864,,,,,,,,,,,,,,,,,,,,,,,,,,,,,,,,,,,,,,,,,,,,,,,,,,,,,,,,,,,,,,,,,,,,,,,,,,,,,,,,,79.1117603839332,61.90052931422387,86.94027558988988,86.94027558988988,82.95629231706195,66.99190373522973,3.0,3.2,-170,-286,0,-19,173,267,433.1511220932007,433.15119910240173,433.15511751174927,433.1658601760864,433.3187494277954,433.3187494277954,433.3187494277954,433.3187494277954,433.3187494277954,433.3187494277954,433.3187494277954,438.9329357147217,2,5.7615087032318115,None,,,,,,,,,,,,,,,,,,161,2,2025-02-28_13h16.47.650,comp,2024.2.4,51.551141810673286,2025-02-28 13h17.03.961211 -0500,
109,109,0,filler_square,None,None,None,None,None,None,None,None,None,None,2,1.8990545272827148,None,,,,,0,0,0,0,0,109,109,189,438.94824719429016,,,,,,,,,,,,,,,,,,,,,,,,,,,,,,,,,,,,,,,,,,,,,,,,,,,,,,,,,,,,,,,,,,,,,,,,,,,,,,,,,94.95974179111971,84.59857320069717,111.44285453046155,111.44285453046155,76.64584183857481,65.49483729278143,4.0,4.1,-194,-265,0,-17,184,-256,438.9347927570343,438.9348750114441,438.9383490085602,438.94824719429016,439.09937953948975,439.09937953948975,439.09937953948975,439.09937953948975,439.09937953948975,439.09937953948975,439.09937953948975,440.85163378715515,2,1.8990545272827148,None,,,,,,,,,,,,,,,,,,161,2,2025-02-28_13h16.47.650,comp,2024.2.4,51.551141810673286,2025-02-28 13h17.03.961211 -0500,
110,110,0,filler_random,None,None,None,None,None,None,None,None,None,None,3,1.69791841506958,None,,,,,0,0,0,0,0,110,110,142,440.86875915527344,,,,,,,,,,,,,,,,,,,,,,,,,,,,,,,,,,,,,,,,,,,,,,,,,,,,,,,,,,,,,,,,,,,,,,,,,,,,,,,,,141.8302799990416,71.2116463713762,66.22134870091894,102.39450365952607,182.6490670273517,103.32746586771842,1.0,1.3,297,-263,480,-289,679,-262,440.8539671897888,440.8541121482849,440.85785603523254,440.86875915527344,441.017062664032,441.017062664032,441.017062664032,441.017062664032,441.017062664032,441.017062664032,441.017062664032,442.5809407234192,3,1.69791841506958,None,,,,,,,,,,,,,,,,,,161,2,2025-02-28_13h16.47.650,comp,2024.2.4,51.551141810673286,2025-02-28 13h17.03.961211 -0500,
111,111,0,filler_random,None,None,None,None,None,None,None,None,None,None,3,1.514030933380127,None,,,,,0,0,0,0,0,111,111,136,442.59662437438965,,,,,,,,,,,,,,,,,,,,,,,,,,,,,,,,,,,,,,,,,,,,,,,,,,,,,,,,,,,,,,,,,,,,,,,,,,,,,,,,,123.7676651461453,115.63771928363442,98.46969337990518,59.08873385330262,182.8540203360753,152.56571334425706,2.1,2.12,-183,-263,0,-279,202,253,442.58282375335693,442.582914352417,442.5863547325134,442.59662437438965,442.73780035972595,442.73780035972595,442.73780035972595,442.73780035972595,442.73780035972595,442.73780035972595,442.73780035972595,444.1258580684662,3,1.514030933380127,None,,,,,,,,,,,,,,,,,,161,2,2025-02-28_13h16.47.650,comp,2024.2.4,51.551141810673286,2025-02-28 13h17.03.961211 -0500,
112,112,0,critical,dhw,35.0,1.0,lower,70.0,70.0,133.0,57.0,57.0,133.0,2,1.9704411029815674,None,,,,,0,0,0,0,0,112,112,48,444.14090847969055,,,,,,,,,,,,,,,,,,,,,,,,,,,,,,,,,,,,,,,,,,,,,,,,,,,,,,,,,,,,,,,,,,,,,,,,,,,,,,,,,70.0,70.0,133.0,57.0,57.0,133.0,1.0,1.1,-640,250,-480,260,-289,286,444.1274461746216,444.1275246143341,444.130576133728,444.14090847969055,444.2818748950958,444.2818748950958,444.2818748950958,444.2818748950958,444.2818748950958,444.2818748950958,444.2818748950958,446.1183581352234,2,1.9704411029815674,None,,,,,,,,,,,,,,,,,,161,2,2025-02-28_13h16.47.650,comp,2024.2.4,51.551141810673286,2025-02-28 13h17.03.961211 -0500,
113,113,0,filler_random,None,None,None,None,None,None,None,None,None,None,3,5.424127578735352,None,,,,,0,0,0,0,0,113,113,145,446.13453435897827,,,,,,,,,,,,,,,,,,,,,,,,,,,,,,,,,,,,,,,,,,,,,,,,,,,,,,,,,,,,,,,,,,,,,,,,,,,,,,,,,195.90945603497266,188.1868676649951,57.67065163301875,136.87725159186218,196.4757315128053,183.43595950670766,3.0,3.2,-259,-272,0,9,256,268,446.1200897693634,446.12017011642456,446.1237142086029,446.13453435897827,446.2854788303375,446.2854788303375,446.2854788303375,446.2854788303375,446.2854788303375,446.2854788303375,446.2854788303375,451.5684139728546,3,5.424127578735352,None,,,,,,,,,,,,,,,,,,161,2,2025-02-28_13h16.47.650,comp,2024.2.4,51.551141810673286,2025-02-28 13h17.03.961211 -0500,
114,114,0,critical,hwd,35.0,2.1,lower,133.0,57.0,57.0,133.0,70.0,70.0,1,1.6775102615356445,None,,,,,0,0,0,0,0,114,114,16,451.58536434173584,,,,,,,,,,,,,,,,,,,,,,,,,,,,,,,,,,,,,,,,,,,,,,,,,,,,,,,,,,,,,,,,,,,,,,,,,,,,,,,,,133.0,57.0,57.0,133.0,70.0,70.0,2.1,2.11,-191,288,0,261,198,-282,451.5698673725128,451.56994438171387,451.5731246471405,451.58536434173584,451.7247259616852,451.7247259616852,451.7247259616852,451.7247259616852,451.7247259616852,451.7247259616852,451.7247259616852,453.2696077823639,1,1.6775102615356445,None,,,,,,,,,,,,,,,,,,161,2,2025-02-28_13h16.47.650,comp,2024.2.4,51.551141810673286,2025-02-28 13h17.03.961211 -0500,
115,115,0,catch,None,None,None,None,None,None,None,None,None,None,2,1.244384765625,None,,,,,0,0,0,0,0,115,115,123,453.291063785553,,,,,,,,,,,,,,,,,,,,,,,,,,,,,,,,,,,,,,,,,,,,,,,,,,,,,,,,,,,,,,,,,,,,,,,,,,,,,,,,,65,125,198,127,110,80,3.0,3.1,-222,271,0,-9,200,-251,453.27175760269165,453.2718389034271,453.27542519569397,453.291063785553,453.4375653266907,453.4375653266907,453.4375653266907,453.4375653266907,453.4375653266907,453.4375653266907,453.4375653266907,454.5403974056244,2,1.244384765625,None,,,,,,,,,,,,,,,,,,161,2,2025-02-28_13h16.47.650,comp,2024.2.4,51.551141810673286,2025-02-28 13h17.03.961211 -0500,
116,116,0,critical,whd,35.0,4.0,lower,57.0,133.0,133.0,57.0,70.0,70.0,2,3.002152442932129,None,,,,,0,0,0,0,0,116,116,88,454.5567991733551,,,,,,,,,,,,,,,,,,,,,,,,,,,,,,,,,,,,,,,,,,,,,,,,,,,,,,,,,,,,,,,,,,,,,,,,,,,,,,,,,57.0,133.0,133.0,57.0,70.0,70.0,4.0,4.1,-191,-273,0,-18,160,-282,454.5420820713043,454.5421624183655,454.54552936553955,454.5567991733551,454.7033996582031,454.7033996582031,454.7033996582031,454.7033996582031,454.7033996582031,454.7033996582031,454.7033996582031,457.5732400417328,2,3.002152442932129,None,,,,,,,,,,,,,,,,,,161,2,2025-02-28_13h16.47.650,comp,2024.2.4,51.551141810673286,2025-02-28 13h17.03.961211 -0500,
117,117,0,filler_square,None,None,None,None,None,None,None,None,None,None,1,1.1946566104888916,None,,,,,0,0,0,0,0,117,117,191,457.5888702869415,,,,,,,,,,,,,,,,,,,,,,,,,,,,,,,,,,,,,,,,,,,,,,,,,,,,,,,,,,,,,,,,,,,,,,,,,,,,,,,,,138.700938332018,138.700938332018,85.84047602224665,113.1788413693032,110.04436525904518,91.45028096777708,2.1,2.11,-222,281,0,284,198,-275,457.575199842453,457.5752749443054,457.57861852645874,457.5888702869415,457.7263104915619,457.7263104915619,457.7263104915619,457.7263104915619,457.7263104915619,457.7263104915619,457.7263104915619,458.790322303772,1,1.1946566104888916,None,,,,,,,,,,,,,,,,,,161,2,2025-02-28_13h16.47.650,comp,2024.2.4,51.551141810673286,2025-02-28 13h17.03.961211 -0500,
118,118,0,critical,dhw,35.0,1.0,upper,127.0,127.0,200.0,125.0,125.0,200.0,2,1.000328779220581,None,,,,,0,0,0,0,0,118,118,49,458.8063542842865,,,,,,,,,,,,,,,,,,,,,,,,,,,,,,,,,,,,,,,,,,,,,,,,,,,,,,,,,,,,,,,,,,,,,,,,,,,,,,,,,127.0,127.0,200.0,125.0,125.0,200.0,1.0,1.2,-222,17,0,-12,258,-18,458.79181575775146,458.7918932437897,458.79550790786743,458.8063542842865,458.9540090560913,458.9540090560913,458.9540090560913,458.9540090560913,458.9540090560913,458.9540090560913,458.9540090560913,459.8099067211151,2,1.000328779220581,None,,,,,,,,,,,,,,,,,,161,2,2025-02-28_13h16.47.650,comp,2024.2.4,51.551141810673286,2025-02-28 13h17.03.961211 -0500,
119,119,0,critical,dhw,20.0,3.0,lower,78.0,78.0,133.0,57.0,57.0,133.0,2,3.2843081951141357,None,,,,,0,0,0,0,0,119,119,56,459.826269865036,,,,,,,,,,,,,,,,,,,,,,,,,,,,,,,,,,,,,,,,,,,,,,,,,,,,,,,,,,,,,,,,,,,,,,,,,,,,,,,,,78.0,78.0,133.0,57.0,57.0,133.0,3.0,3.1,-164,253,0,13,191,-288,459.81141805648804,459.8114936351776,459.8147964477539,459.826269865036,459.9730579853058,459.9730579853058,459.9730579853058,459.9730579853058,459.9730579853058,459.9730579853058,459.9730579853058,463.12380290031433,2,3.2843081951141357,None,,,,,,,,,,,,,,,,,,161,2,2025-02-28_13h16.47.650,comp,2024.2.4,51.551141810673286,2025-02-28 13h17.03.961211 -0500,
120,120,0,filler_random,None,None,None,None,None,None,None,None,None,None,2,1.5472517013549805,None,,,,,0,0,0,0,0,120,120,144,463.1400740146637,,,,,,,,,,,,,,,,,,,,,,,,,,,,,,,,,,,,,,,,,,,,,,,,,,,,,,,,,,,,,,,,,,,,,,,,,,,,,,,,,150.59587127692208,148.59688414717812,193.01585351741443,184.92327190278883,164.73860048853126,73.11376113848769,1.0,1.3,217,-271,480,-280,705,-253,463.12557911872864,463.12565660476685,463.12979316711426,463.1400740146637,463.2972095012665,463.2972095012665,463.2972095012665,463.2972095012665,463.2972095012665,463.2972095012665,463.2972095012665,464.69463658332825,2,1.5472517013549805,None,,,,,,,,,,,,,,,,,,161,2,2025-02-28_13h16.47.650,comp,2024.2.4,51.551141810673286,2025-02-28 13h17.03.961211 -0500,
121,121,0,critical,dwh,35.0,2.1,upper,127.0,127.0,125.0,200.0,200.0,125.0,2,1.303062915802002,None,,,,,0,0,0,0,0,121,121,5,464.7125267982483,,,,,,,,,,,,,,,,,,,,,,,,,,,,,,,,,,,,,,,,,,,,,,,,,,,,,,,,,,,,,,,,,,,,,,,,,,,,,,,,,127.0,127.0,125.0,200.0,200.0,125.0,2.1,2.12,-260,-251,0,-283,258,273,464.69630336761475,464.6963827610016,464.699453830719,464.7125267982483,464.85706758499146,464.85706758499146,464.85706758499146,464.85706758499146,464.85706758499146,464.85706758499146,464.85706758499146,466.0258746147156,2,1.303062915802002,None,,,,,,,,,,,,,,,,,,161,2,2025-02-28_13h16.47.650,comp,2024.2.4,51.551141810673286,2025-02-28 13h17.03.961211 -0500,
122,122,0,catch,None,None,None,None,None,None,None,None,None,None,3,1.2499897480010986,None,,,,,0,0,0,0,0,122,122,129,466.04474329948425,,,,,,,,,,,,,,,,,,,,,,,,,,,,,,,,,,,,,,,,,,,,,,,,,,,,,,,,,,,,,,,,,,,,,,,,,,,,,,,,,122,68,113,77,169,156,1.0,1.2,-168,-15,0,-9,212,11,466.02797389030457,466.02805280685425,466.03140115737915,466.04474329948425,466.1918067932129,466.1918067932129,466.1918067932129,466.1918067932129,466.1918067932129,466.1918067932129,466.1918067932129,467.30959033966064,3,1.2499897480010986,None,,,,,,,,,,,,,,,,,,161,2,2025-02-28_13h16.47.650,comp,2024.2.4,51.551141810673286,2025-02-28 13h17.03.961211 -0500,
123,123,0,critical,wdh,20.0,2.1,upper,125.0,200.0,141.0,141.0,200.0,125.0,1,1.4313714504241943,None,,,,,0,0,0,0,0,123,123,35,467.3272635936737,,,,,,,,,,,,,,,,,,,,,,,,,,,,,,,,,,,,,,,,,,,,,,,,,,,,,,,,,,,,,,,,,,,,,,,,,,,,,,,,,125.0,200.0,141.0,141.0,200.0,125.0,2.1,2.11,-266,284,0,252,229,-257,467.31126737594604,467.3113751411438,467.3144474029541,467.3272635936737,467.4771432876587,467.4771432876587,467.4771432876587,467.4771432876587,467.4771432876587,467.4771432876587,467.4771432876587,468.7713580131531,1,1.4313714504241943,None,,,,,,,,,,,,,,,,,,161,2,2025-02-28_13h16.47.650,comp,2024.2.4,51.551141810673286,2025-02-28 13h17.03.961211 -0500,
124,124,0,critical,wdh,35.0,3.0,lower,57.0,133.0,70.0,70.0,133.0,57.0,3,1.4587149620056152,None,,,,,0,0,0,0,0,124,124,74,468.78904271125793,,,,,,,,,,,,,,,,,,,,,,,,,,,,,,,,,,,,,,,,,,,,,,,,,,,,,,,,,,,,,,,,,,,,,,,,,,,,,,,,,57.0,133.0,70.0,70.0,133.0,57.0,3.0,3.2,-198,-270,0,-15,160,264,468.7729456424713,468.7730519771576,468.7765142917633,468.78904271125793,468.9260926246643,468.9260926246643,468.9260926246643,468.9260926246643,468.9260926246643,468.9260926246643,468.9260926246643,470.25593090057373,3,1.4587149620056152,None,,,,,,,,,,,,,,,,,,161,2,2025-02-28_13h16.47.650,comp,2024.2.4,51.551141810673286,2025-02-28 13h17.03.961211 -0500,
125,125,0,critical,hdw,35.0,3.0,lower,133.0,57.0,70.0,70.0,57.0,133.0,3,3.6692135334014893,None,,,,,0,0,0,0,0,125,125,110,470.2736220359802,,,,,,,,,,,,,,,,,,,,,,,,,,,,,,,,,,,,,,,,,,,,,,,,,,,,,,,,,,,,,,,,,,,,,,,,,,,,,,,,,133.0,57.0,70.0,70.0,57.0,133.0,3.0,3.1,-160,254,0,-6,198,-279,470.2575635910034,470.2576370239258,470.2611174583435,470.2736220359802,470.4122655391693,470.4122655391693,470.4122655391693,470.4122655391693,470.4122655391693,470.4122655391693,470.4122655391693,473.960129737854,3,3.6692135334014893,None,,,,,,,,,,,,,,,,,,161,2,2025-02-28_13h16.47.650,comp,2024.2.4,51.551141810673286,2025-02-28 13h17.03.961211 -0500,
126,126,0,critical,hdw,20.0,3.0,lower,133.0,57.0,78.0,78.0,57.0,133.0,1,3.3033673763275146,None,,,,,0,0,0,0,0,126,126,116,473.9756019115448,,,,,,,,,,,,,,,,,,,,,,,,,,,,,,,,,,,,,,,,,,,,,,,,,,,,,,,,,,,,,,,,,,,,,,,,,,,,,,,,,133.0,57.0,78.0,78.0,57.0,133.0,3.0,3.2,-164,-259,0,5,202,275,473.96160531044006,473.96168422698975,473.96537256240845,473.9756019115448,474.1271924972534,474.1271924972534,474.1271924972534,474.1271924972534,474.1271924972534,474.1271924972534,474.1271924972534,477.29352593421936,1,3.3033673763275146,None,,,,,,,,,,,,,,,,,,161,2,2025-02-28_13h16.47.650,comp,2024.2.4,51.551141810673286,2025-02-28 13h17.03.961211 -0500,
127,127,0,filler_square,None,None,None,None,None,None,None,None,None,None,2,1.1367793083190918,None,,,,,0,0,0,0,0,127,127,208,477.31006121635437,,,,,,,,,,,,,,,,,,,,,,,,,,,,,,,,,,,,,,,,,,,,,,,,,,,,,,,,,,,,,,,,,,,,,,,,,,,,,,,,,86.5667425064985,70.88412140410158,145.45706836864434,145.45706836864434,74.6405532516639,120.72599833630345,2.2,2.22,-204,283,0,-283,229,-280,477.29534697532654,477.2954273223877,477.29862809181213,477.31006121635437,477.4501106739044,477.4501106739044,477.4501106739044,477.4501106739044,477.4501106739044,477.4501106739044,477.4501106739044,478.4614794254303,2,1.1367793083190918,None,,,,,,,,,,,,,,,,,,161,2,2025-02-28_13h16.47.650,comp,2024.2.4,51.551141810673286,2025-02-28 13h17.03.961211 -0500,
128,128,0,critical,hdw,20.0,2.1,lower,133.0,57.0,78.0,78.0,57.0,133.0,1,2.8503029346466064,None,,,,,0,0,0,0,0,128,128,46,478.4771840572357,,,,,,,,,,,,,,,,,,,,,,,,,,,,,,,,,,,,,,,,,,,,,,,,,,,,,,,,,,,,,,,,,,,,,,,,,,,,,,,,,133.0,57.0,78.0,78.0,57.0,133.0,2.1,2.11,-164,277,0,253,202,-270,478.46302604675293,478.4631013870239,478.4666724205017,478.4771840572357,478.62784719467163,478.62784719467163,478.62784719467163,478.62784719467163,478.62784719467163,478.62784719467163,478.62784719467163,481.3295969963074,1,2.8503029346466064,None,,,,,,,,,,,,,,,,,,161,2,2025-02-28_13h16.47.650,comp,2024.2.4,51.551141810673286,2025-02-28 13h17.03.961211 -0500,
129,129,0,critical,hdw,35.0,3.0,upper,200.0,125.0,127.0,127.0,125.0,200.0,1,2.0999670028686523,None,,,,,0,0,0,0,0,129,129,111,481.34689378738403,,,,,,,,,,,,,,,,,,,,,,,,,,,,,,,,,,,,,,,,,,,,,,,,,,,,,,,,,,,,,,,,,,,,,,,,,,,,,,,,,200.0,125.0,127.0,127.0,125.0,200.0,3.0,3.2,-222,-269,0,-10,260,258,481.33129811286926,481.33138060569763,481.3352015018463,481.34689378738403,481.48431515693665,481.48431515693665,481.48431515693665,481.48431515693665,481.48431515693665,481.48431515693665,481.48431515693665,483.4645369052887,1,2.0999670028686523,None,,,,,,,,,,,,,,,,,,161,2,2025-02-28_13h16.47.650,comp,2024.2.4,51.551141810673286,2025-02-28 13h17.03.961211 -0500,
130,130,0,critical,wdh,35.0,2.1,lower,57.0,133.0,70.0,70.0,133.0,57.0,3,4.630731105804443,None,,,,,0,0,0,0,0,130,130,32,483.4804787635803,,,,,,,,,,,,,,,,,,,,,,,,,,,,,,,,,,,,,,,,,,,,,,,,,,,,,,,,,,,,,,,,,,,,,,,,,,,,,,,,,57.0,133.0,70.0,70.0,133.0,57.0,2.1,2.11,-198,265,0,257,160,-261,483.4661068916321,483.466185092926,483.470050573349,483.4804787635803,483.6300754547119,483.6300754547119,483.6300754547119,483.6300754547119,483.6300754547119,483.6300754547119,483.6300754547119,488.1170735359192,3,4.630731105804443,None,,,,,,,,,,,,,,,,,,161,2,2025-02-28_13h16.47.650,comp,2024.2.4,51.551141810673286,2025-02-28 13h17.03.961211 -0500,
131,131,0,catch,None,None,None,None,None,None,None,None,None,None,3,1.432659387588501,None,,,,,0,0,0,0,0,131,131,125,488.13407158851624,,,,,,,,,,,,,,,,,,,,,,,,,,,,,,,,,,,,,,,,,,,,,,,,,,,,,,,,,,,,,,,,,,,,,,,,,,,,,,,,,59,131,74,116,180,145,2.1,2.11,-220,276,0,260,226,-264,488.11929512023926,488.1193780899048,488.1233685016632,488.13407158851624,488.29126477241516,488.29126477241516,488.29126477241516,488.29126477241516,488.29126477241516,488.29126477241516,488.29126477241516,489.5817437171936,3,1.432659387588501,None,,,,,,,,,,,,,,,,,,161,2,2025-02-28_13h16.47.650,comp,2024.2.4,51.551141810673286,2025-02-28 13h17.03.961211 -0500,
132,132,0,critical,dhw,20.0,1.0,upper,141.0,141.0,200.0,125.0,125.0,200.0,2,2.105149030685425,None,,,,,0,0,0,0,0,132,132,55,489.59793424606323,,,,,,,,,,,,,,,,,,,,,,,,,,,,,,,,,,,,,,,,,,,,,,,,,,,,,,,,,,,,,,,,,,,,,,,,,,,,,,,,,141.0,141.0,200.0,125.0,125.0,200.0,1.0,1.2,-229,19,0,1,258,19,489.58326482772827,489.58334040641785,489.5868082046509,489.59793424606323,489.74826097488403,489.74826097488403,489.74826097488403,489.74826097488403,489.74826097488403,489.74826097488403,489.74826097488403,491.71588945388794,2,2.105149030685425,None,,,,,,,,,,,,,,,,,,161,2,2025-02-28_13h16.47.650,comp,2024.2.4,51.551141810673286,2025-02-28 13h17.03.961211 -0500,
133,133,0,critical,whd,35.0,2.1,upper,125.0,200.0,200.0,125.0,127.0,127.0,2,3.8275156021118164,None,,,,,0,0,0,0,0,133,133,37,491.73190426826477,,,,,,,,,,,,,,,,,,,,,,,,,,,,,,,,,,,,,,,,,,,,,,,,,,,,,,,,,,,,,,,,,,,,,,,,,,,,,,,,,125.0,200.0,200.0,125.0,127.0,127.0,2.1,2.11,-258,267,0,257,222,-256,491.7174160480499,491.7174904346466,491.7207248210907,491.73190426826477,491.88562750816345,491.88562750816345,491.88562750816345,491.88562750816345,491.88562750816345,491.88562750816345,491.88562750816345,495.56808853149414,2,3.8275156021118164,None,,,,,,,,,,,,,,,,,,161,2,2025-02-28_13h16.47.650,comp,2024.2.4,51.551141810673286,2025-02-28 13h17.03.961211 -0500,
134,134,0,filler_square,None,None,None,None,None,None,None,None,None,None,2,1.0539839267730713,None,,,,,0,0,0,0,0,134,134,188,495.5847725868225,,,,,,,,,,,,,,,,,,,,,,,,,,,,,,,,,,,,,,,,,,,,,,,,,,,,,,,,,,,,,,,,,,,,,,,,,,,,,,,,,79.41191766272674,188.31050996194347,194.17214323221202,194.17214323221202,69.27394551011503,62.55727899089937,3.0,3.2,-287,-258,0,-15,224,260,495.57022523880005,495.5703077316284,495.5739891529083,495.5847725868225,495.73737025260925,495.73737025260925,495.73737025260925,495.73737025260925,495.73737025260925,495.73737025260925,495.73737025260925,496.65175104141235,2,1.0539839267730713,None,,,,,,,,,,,,,,,,,,161,2,2025-02-28_13h16.47.650,comp,2024.2.4,51.551141810673286,2025-02-28 13h17.03.961211 -0500,
135,135,0,critical,hdw,20.0,4.0,upper,200.0,125.0,141.0,141.0,125.0,200.0,3,3.1795859336853027,None,,,,,0,0,0,0,0,135,135,119,496.66755390167236,,,,,,,,,,,,,,,,,,,,,,,,,,,,,,,,,,,,,,,,,,,,,,,,,,,,,,,,,,,,,,,,,,,,,,,,,,,,,,,,,200.0,125.0,141.0,141.0,125.0,200.0,4.0,4.2,-229,2,0,-276,266,0,496.6532573699951,496.65333437919617,496.65694069862366,496.66755390167236,496.808625459671,496.808625459671,496.808625459671,496.808625459671,496.808625459671,496.808625459671,496.808625459671,499.8510172367096,3,3.1795859336853027,None,,,,,,,,,,,,,,,,,,161,2,2025-02-28_13h16.47.650,comp,2024.2.4,51.551141810673286,2025-02-28 13h17.03.961211 -0500,
136,136,0,filler_square,None,None,None,None,None,None,None,None,None,None,2,2.6576988697052,None,,,,,0,0,0,0,0,136,136,201,499.86921668052673,,,,,,,,,,,,,,,,,,,,,,,,,,,,,,,,,,,,,,,,,,,,,,,,,,,,,,,,,,,,,,,,,,,,,,,,,,,,,,,,,73.98049602804048,91.09197961917013,109.39411728439238,109.39411728439238,89.04921544680263,85.11834393344873,2.2,2.22,-196,264,0,-289,193,-251,499.8528301715851,499.8529965877533,499.8563497066498,499.86921668052673,500.01768589019775,500.01768589019775,500.01768589019775,500.01768589019775,500.01768589019775,500.01768589019775,500.01768589019775,502.5419976711273,2,2.6576988697052,None,,,,,,,,,,,,,,,,,,161,2,2025-02-28_13h16.47.650,comp,2024.2.4,51.551141810673286,2025-02-28 13h17.03.961211 -0500,
137,137,0,critical,dhw,20.0,1.0,lower,78.0,78.0,133.0,57.0,57.0,133.0,2,6.113077402114868,None,,,,,0,0,0,0,0,137,137,54,502.55774450302124,,,,,,,,,,,,,,,,,,,,,,,,,,,,,,,,,,,,,,,,,,,,,,,,,,,,,,,,,,,,,,,,,,,,,,,,,,,,,,,,,78.0,78.0,133.0,57.0,57.0,133.0,1.0,1.1,-644,271,-480,288,-289,286,502.5434777736664,502.5435531139374,502.5465784072876,502.55774450302124,502.70253014564514,502.70253014564514,502.70253014564514,502.70253014564514,502.70253014564514,502.70253014564514,502.70253014564514,508.68451285362244,2,6.113077402114868,None,,,,,,,,,,,,,,,,,,161,2,2025-02-28_13h16.47.650,comp,2024.2.4,51.551141810673286,2025-02-28 13h17.03.961211 -0500,
138,138,0,filler_random,None,None,None,None,None,None,None,None,None,None,1,2.619006633758545,None,,,,,0,0,0,0,0,138,138,156,508.70028042793274,,,,,,,,,,,,,,,,,,,,,,,,,,,,,,,,,,,,,,,,,,,,,,,,,,,,,,,,,,,,,,,,,,,,,,,,,,,,,,,,,162.09977279859834,172.3575496827774,80.85605910589888,124.83872549632852,72.66128220558303,164.96609812161734,3.0,3.1,-245,266,0,13,241,-274,508.6863396167755,508.68644070625305,508.68978476524353,508.70028042793274,508.83875823020935,508.83875823020935,508.83875823020935,508.83875823020935,508.83875823020935,508.83875823020935,508.83875823020935,511.33773612976074,1,2.619006633758545,None,,,,,,,,,,,,,,,,,,161,2,2025-02-28_13h16.47.650,comp,2024.2.4,51.551141810673286,2025-02-28 13h17.03.961211 -0500,
139,139,0,filler_random,None,None,None,None,None,None,None,None,None,None,1,2.548180103302002,None,,,,,0,0,0,0,0,139,139,162,511.35458159446716,,,,,,,,,,,,,,,,,,,,,,,,,,,,,,,,,,,,,,,,,,,,,,,,,,,,,,,,,,,,,,,,,,,,,,,,,,,,,,,,,122.631382818039,97.91745459958871,109.16978234522347,76.95352151639075,69.72691364927041,57.050038051846194,2.1,2.12,-183,-259,0,-257,163,280,511.3396291732788,511.3397707939148,511.34319400787354,511.35458159446716,511.5051383972168,511.5051383972168,511.5051383972168,511.5051383972168,511.5051383972168,511.5051383972168,511.5051383972168,513.9071080684662,1,2.548180103302002,None,,,,,,,,,,,,,,,,,,161,2,2025-02-28_13h16.47.650,comp,2024.2.4,51.551141810673286,2025-02-28 13h17.03.961211 -0500,
