thisN,thisTrialN,thisRepN,effect,order,distance,config,diag,h_1,w_1,h_2,w_2,h_3,w_3,rect_choice.keys,rect_choice.rt,rect_choice.duration,instructions_loop.thisRepN,instructions_loop.thisTrialN,instructions_loop.thisN,instructions_loop.thisIndex,blocks.thisRepN,blocks.thisTrialN,blocks.thisN,blocks.thisIndex,trials.thisRepN,trials.thisTrialN,trials.thisN,trials.thisIndex,thisRow.t,notes,consent.started,agree_button.started,decline_button.started,consent_img.started,mouse.started,consent.stopped,agree_button.numClicks,agree_button.timesOn,agree_button.timesOff,decline_button.numClicks,decline_button.timesOn,decline_button.timesOff,mouse.x,mouse.y,mouse.leftButton,mouse.midButton,mouse.rightButton,mouse.time,mouse.clicked_name,exp_params.started,exp_params.stopped,welcome.started,welcome_text.started,welcome.stopped,instructions_1.started,instructions_1_text_1.started,instructions_1_text_2.started,key_resp.started,instructions_1.stopped,instructions_loop.key_resp.keys,instructions_loop.key_resp.rt,instructions_loop.key_resp.duration,instructions_2.started,instructions_2_text_1.started,instructions_2_text_2.started,key_resp_2.started,instructions_2.stopped,instructions_loop.key_resp_2.keys,instructions_loop.key_resp_2.rt,instructions_loop.key_resp_2.duration,instructions_3.started,instructions_3_text_1.started,r1_instr3.started,r2_instr3.started,r3_instr3.started,r1_instr3_label.started,r2_instr3_label.started,r3_instr3_label.started,instructions_3_text_3.started,instructions_3_text_4.started,key_resp_3.started,instructions_3.stopped,instructions_loop.key_resp_3.keys,instructions_loop.key_resp_3.rt,instructions_loop.key_resp_3.duration,instructions_4.started,instructions_4_text_1.started,instructions_4_text_3.started,instructions_4_text_2.started,key_resp_4.started,instructions_4.stopped,instructions_loop.key_resp_4.keys,instructions_loop.key_resp_4.rt,instructions_loop.key_resp_4.duration,instructions_5.started,instructions_5_text_1.started,instructions_5_text_2.started,key_resp_5.started,instructions_5.stopped,instructions_loop.key_resp_5.keys,instructions_loop.key_resp_5.rt,instructions_loop.key_resp_5.duration,start_exp.started,start_exp_text.started,key_resp_6.started,start_exp.stopped,key_resp_6.keys,key_resp_6.rt,key_resp_6.duration,h_1_tmp,w_1_tmp,h_2_tmp,w_2_tmp,h_3_tmp,w_3_tmp,config_tmp,config_tmp_1,r_1_x,r_1_y,r_2_x,r_2_y,r_3_x,r_3_y,pre_trial.started,pre_trial.stopped,choice_trial.started,rect_choice.started,r_1.started,r_2.started,r_3.started,r_1_label.started,r_2_label.started,r_3_label.started,prompt.started,choice_trial.stopped,trials.rect_choice.keys,trials.rect_choice.rt,trials.rect_choice.duration,end_block.started,end_block_text.started,end_block.stopped,end.started,end_text.started,key_resp_7.started,end.stopped,key_resp_7.keys,key_resp_7.rt,key_resp_7.duration,debriefing.started,debrief_form.started,end_debrief.started,debriefing.stopped,end_debrief.keys,end_debrief.rt,end_debrief.duration,participant,computer,date,expName,psychopyVersion,frameRate,expStart,
,,,,,,,,,,,,,,,,,,,,,,,,,,,,,,,0.015515804290771484,0.041913747787475586,0.041913747787475586,0.041913747787475586,0.015110254287719727,2.7840070724487305,1,[2.7408933639526367],[2.7409045696258545],0,,,[-93.0],[-496.0],[1],[0],[0],[2.7679507732391357],['agree_button'],,,,,,,,,,,,,,,,,,,,,,,,,,,,,,,,,,,,,,,,,,,,,,,,,,,,,,,,,,,,,,,,,,,,,,,,,,,,,,,,,,,,,,,,,,,,,,,,,,,,,,,,,,,162,3,2025-02-28_13h26.12.559,comp,2024.2.4,62.31360756860833,2025-02-28 13h26.48.217743 -0500,
,,,,,,,,,,,,,,,,,,,,,,,,,,,,,,,,,,,,,,,,,,,,,,,,,,2.784275531768799,2.7843098640441895,,,,,,,,,,,,,,,,,,,,,,,,,,,,,,,,,,,,,,,,,,,,,,,,,,,,,,,,,,,,,,,,,,,,,,,,,,,,,,,,,,,,,,,,,,,,,,,,,,,,,,,,,162,3,2025-02-28_13h26.12.559,comp,2024.2.4,62.31360756860833,2025-02-28 13h26.48.217743 -0500,
,,,,,,,,,,,,,,,,,,,,,,,,,,,,,,,,,,,,,,,,,,,,,,,,,,,,2.784332036972046,2.797529935836792,4.795221328735352,,,,,,,,,,,,,,,,,,,,,,,,,,,,,,,,,,,,,,,,,,,,,,,,,,,,,,,,,,,,,,,,,,,,,,,,,,,,,,,,,,,,,,,,,,,,,,,,,,,,,,162,3,2025-02-28_13h26.12.559,comp,2024.2.4,62.31360756860833,2025-02-28 13h26.48.217743 -0500,
0,0,0,,,,,,,,,,,,,,,0,0,0,0,,,,,,,,,4.812119245529175,,,,,,,,,,,,,,,,,,,,,,,,,,4.7957539558410645,4.812119245529175,4.812119245529175,6.2952210903167725,6.746691465377808,space,0.4342038631439209,None,6.746774673461914,6.762148141860962,6.762148141860962,8.261934280395508,13.146463871002197,space,4.867006063461304,None,13.146550416946411,13.16923975944519,13.16923975944519,13.16923975944519,13.16923975944519,13.16923975944519,13.16923975944519,13.16923975944519,13.16923975944519,13.16923975944519,14.645658254623413,21.146881818771362,space,6.491643905639648,None,21.146970510482788,21.16237759590149,21.16237759590149,21.16237759590149,22.661896228790283,28.246183156967163,space,5.570619583129883,None,28.246269464492798,28.261828184127808,28.261828184127808,29.761757612228394,30.246270895004272,space,0.47886228561401367,None,30.24638557434082,30.261962413787842,30.261962413787842,31.396166563034058,space,1.1320252418518066,None,,,,,,,,,,,,,,,,,,,,,,,,,,,,,,,,,,,,,,,,,,,,,,,162,3,2025-02-28_13h26.12.559,comp,2024.2.4,62.31360756860833,2025-02-28 13h26.48.217743 -0500,
0,0,0,filler_square,None,None,None,None,None,None,None,None,None,None,2,2.1762454509735107,None,,,,,0,0,0,0,0,0,0,175,31.45538830757141,,,,,,,,,,,,,,,,,,,,,,,,,,,,,,,,,,,,,,,,,,,,,,,,,,,,,,,,,,,,,,,,,,,,,,,,,,,,,,,,,131.63728326620424,107.39257820057819,182.3250605906562,182.3250605906562,90.81652737464346,116.26045185360718,2.1,2.11,-241,287,0,271,245,-267,31.441559553146362,31.441604137420654,31.443620443344116,31.45538830757141,31.599130392074585,31.599130392074585,31.599130392074585,31.599130392074585,31.599130392074585,31.599130392074585,31.599130392074585,33.64669489860535,2,2.1762454509735107,None,,,,,,,,,,,,,,,,,,162,3,2025-02-28_13h26.12.559,comp,2024.2.4,62.31360756860833,2025-02-28 13h26.48.217743 -0500,
1,1,0,filler_square,None,None,None,None,None,None,None,None,None,None,3,1.7857205867767334,None,,,,,0,0,0,0,0,1,1,207,33.66185808181763,,,,,,,,,,,,,,,,,,,,,,,,,,,,,,,,,,,,,,,,,,,,,,,,,,,,,,,,,,,,,,,,,,,,,,,,,,,,,,,,,92.47990769486071,186.26029271023452,134.5454179710511,186.79343320835878,197.77830367577766,197.77830367577766,4.0,4.2,-283,7,0,-256,288,4,33.647716999053955,33.647754430770874,33.65035653114319,33.66185808181763,33.82903265953064,33.82903265953064,33.82903265953064,33.82903265953064,33.82903265953064,33.82903265953064,33.82903265953064,35.46311330795288,3,1.7857205867767334,None,,,,,,,,,,,,,,,,,,162,3,2025-02-28_13h26.12.559,comp,2024.2.4,62.31360756860833,2025-02-28 13h26.48.217743 -0500,
2,2,0,filler_random,None,None,None,None,None,None,None,None,None,None,3,1.6010515689849854,None,,,,,0,0,0,0,0,2,2,169,35.47836518287659,,,,,,,,,,,,,,,,,,,,,,,,,,,,,,,,,,,,,,,,,,,,,,,,,,,,,,,,,,,,,,,,,,,,,,,,,,,,,,,,,130.1029237809925,79.85431118930502,69.30315580038119,89.05263286302886,164.2951749448955,149.39284411451558,2.2,2.21,-180,-286,0,256,215,269,35.46400332450867,35.46404457092285,35.46614933013916,35.47836518287659,35.628976821899414,35.628976821899414,35.628976821899414,35.628976821899414,35.628976821899414,35.628976821899414,35.628976821899414,37.096287965774536,3,1.6010515689849854,None,,,,,,,,,,,,,,,,,,162,3,2025-02-28_13h26.12.559,comp,2024.2.4,62.31360756860833,2025-02-28 13h26.48.217743 -0500,
3,3,0,critical,wdh,20.0,4.0,upper,125.0,200.0,141.0,141.0,200.0,125.0,1,1.9926531314849854,None,,,,,0,0,0,0,0,3,3,83,37.111655712127686,,,,,,,,,,,,,,,,,,,,,,,,,,,,,,,,,,,,,,,,,,,,,,,,,,,,,,,,,,,,,,,,,,,,,,,,,,,,,,,,,125.0,200.0,141.0,141.0,200.0,125.0,4.0,4.2,-266,16,0,-258,229,-18,37.09704566001892,37.09708762168884,37.09947896003723,37.111655712127686,37.26242184638977,37.26242184638977,37.26242184638977,37.26242184638977,37.26242184638977,37.26242184638977,37.26242184638977,39.11316633224487,1,1.9926531314849854,None,,,,,,,,,,,,,,,,,,162,3,2025-02-28_13h26.12.559,comp,2024.2.4,62.31360756860833,2025-02-28 13h26.48.217743 -0500,
4,4,0,filler_square,None,None,None,None,None,None,None,None,None,None,3,1.3508350849151611,None,,,,,0,0,0,0,0,4,4,208,39.128599882125854,,,,,,,,,,,,,,,,,,,,,,,,,,,,,,,,,,,,,,,,,,,,,,,,,,,,,,,,,,,,,,,,,,,,,,,,,,,,,,,,,148.55145713363413,95.26329019993365,89.69030503360055,145.40450087508088,162.66232926450124,162.66232926450124,3.0,3.1,-216,266,0,-9,250,-270,39.11415338516235,39.114195346832275,39.11660289764404,39.128599882125854,39.2786169052124,39.2786169052124,39.2786169052124,39.2786169052124,39.2786169052124,39.2786169052124,39.2786169052124,40.49634623527527,3,1.3508350849151611,None,,,,,,,,,,,,,,,,,,162,3,2025-02-28_13h26.12.559,comp,2024.2.4,62.31360756860833,2025-02-28 13h26.48.217743 -0500,
5,5,0,critical,hwd,20.0,2.1,upper,200.0,125.0,125.0,200.0,141.0,141.0,1,2.6006128787994385,None,,,,,0,0,0,0,0,5,5,43,40.511616706848145,,,,,,,,,,,,,,,,,,,,,,,,,,,,,,,,,,,,,,,,,,,,,,,,,,,,,,,,,,,,,,,,,,,,,,,,,,,,,,,,,200.0,125.0,125.0,200.0,141.0,141.0,2.1,2.12,-258,-261,0,-279,266,280,40.49714255332947,40.49718379974365,40.499616861343384,40.511616706848145,40.66198205947876,40.66198205947876,40.66198205947876,40.66198205947876,40.66198205947876,40.66198205947876,40.66198205947876,43.129778146743774,1,2.6006128787994385,None,,,,,,,,,,,,,,,,,,162,3,2025-02-28_13h26.12.559,comp,2024.2.4,62.31360756860833,2025-02-28 13h26.48.217743 -0500,
6,6,0,filler_random,None,None,None,None,None,None,None,None,None,None,2,2.7269461154937744,None,,,,,0,0,0,0,0,6,6,141,43.1615526676178,,,,,,,,,,,,,,,,,,,,,,,,,,,,,,,,,,,,,,,,,,,,,,,,,,,,,,,,,,,,,,,,,,,,,,,,,,,,,,,,,153.220360568669,85.97594124274914,111.09959898022541,160.10777491841935,163.49747814541962,109.52599802872356,3.0,3.1,-219,264,0,-7,231,-265,43.130675315856934,43.13071250915527,43.13327121734619,43.1615526676178,43.29518985748291,43.29518985748291,43.29518985748291,43.29518985748291,43.29518985748291,43.29518985748291,43.29518985748291,45.89649558067322,2,2.7269461154937744,None,,,,,,,,,,,,,,,,,,162,3,2025-02-28_13h26.12.559,comp,2024.2.4,62.31360756860833,2025-02-28 13h26.48.217743 -0500,
7,7,0,filler_random,None,None,None,None,None,None,None,None,None,None,1,1.8662192821502686,None,,,,,0,0,0,0,0,7,7,149,45.91190528869629,,,,,,,,,,,,,,,,,,,,,,,,,,,,,,,,,,,,,,,,,,,,,,,,,,,,,,,,,,,,,,,,,,,,,,,,,,,,,,,,,74.063771895356,192.50828574073202,157.31166319722743,63.884316342096255,81.17015928043476,171.9223653189917,4.0,4.2,-224,19,0,-251,214,-18,45.89739012718201,45.8974289894104,45.89992117881775,45.91190528869629,46.061986446380615,46.061986446380615,46.061986446380615,46.061986446380615,46.061986446380615,46.061986446380615,46.061986446380615,47.79618287086487,1,1.8662192821502686,None,,,,,,,,,,,,,,,,,,162,3,2025-02-28_13h26.12.559,comp,2024.2.4,62.31360756860833,2025-02-28 13h26.48.217743 -0500,
8,8,0,filler_random,None,None,None,None,None,None,None,None,None,None,1,2.0679562091827393,None,,,,,0,0,0,0,0,8,8,150,47.81144642829895,,,,,,,,,,,,,,,,,,,,,,,,,,,,,,,,,,,,,,,,,,,,,,,,,,,,,,,,,,,,,,,,,,,,,,,,,,,,,,,,,192.68092749963077,149.5566785875709,148.24906337524948,160.0266384932919,102.59781612877472,114.77061185859652,4.0,4.1,-251,-288,0,6,233,-288,47.79703187942505,47.7970712184906,47.79939150810242,47.81144642829895,47.96190309524536,47.96190309524536,47.96190309524536,47.96190309524536,47.96190309524536,47.96190309524536,47.96190309524536,49.89644169807434,1,2.0679562091827393,None,,,,,,,,,,,,,,,,,,162,3,2025-02-28_13h26.12.559,comp,2024.2.4,62.31360756860833,2025-02-28 13h26.48.217743 -0500,
9,9,0,critical,wdh,20.0,1.0,lower,57.0,133.0,78.0,78.0,133.0,57.0,2,3.424788236618042,None,,,,,0,0,0,0,0,9,9,78,49.91171979904175,,,,,,,,,,,,,,,,,,,,,,,,,,,,,,,,,,,,,,,,,,,,,,,,,,,,,,,,,,,,,,,,,,,,,,,,,,,,,,,,,57.0,133.0,78.0,78.0,133.0,57.0,1.0,1.1,-682,282,-480,274,-316,270,49.897217750549316,49.89725613594055,49.90058922767639,49.91171979904175,50.06173062324524,50.06173062324524,50.06173062324524,50.06173062324524,50.06173062324524,50.06173062324524,50.06173062324524,53.34613633155823,2,3.424788236618042,None,,,,,,,,,,,,,,,,,,162,3,2025-02-28_13h26.12.559,comp,2024.2.4,62.31360756860833,2025-02-28 13h26.48.217743 -0500,
10,10,0,critical,hdw,20.0,4.0,lower,133.0,57.0,78.0,78.0,57.0,133.0,3,5.037994146347046,None,,,,,0,0,0,0,0,10,10,118,53.36181330680847,,,,,,,,,,,,,,,,,,,,,,,,,,,,,,,,,,,,,,,,,,,,,,,,,,,,,,,,,,,,,,,,,,,,,,,,,,,,,,,,,133.0,57.0,78.0,78.0,57.0,133.0,4.0,4.1,-164,-283,0,-16,202,-279,53.34692978858948,53.34696936607361,53.3502459526062,53.36181330680847,53.511616945266724,53.511616945266724,53.511616945266724,53.511616945266724,53.511616945266724,53.511616945266724,53.511616945266724,58.41272282600403,3,5.037994146347046,None,,,,,,,,,,,,,,,,,,162,3,2025-02-28_13h26.12.559,comp,2024.2.4,62.31360756860833,2025-02-28 13h26.48.217743 -0500,
11,11,0,critical,dhw,20.0,2.1,upper,141.0,141.0,200.0,125.0,125.0,200.0,2,2.419267177581787,None,,,,,0,0,0,0,0,11,11,27,58.42816114425659,,,,,,,,,,,,,,,,,,,,,,,,,,,,,,,,,,,,,,,,,,,,,,,,,,,,,,,,,,,,,,,,,,,,,,,,,,,,,,,,,141.0,141.0,200.0,125.0,125.0,200.0,2.1,2.12,-229,-280,0,-286,258,252,58.41353178024292,58.41357135772705,58.41607642173767,58.42816114425659,58.57849097251892,58.57849097251892,58.57849097251892,58.57849097251892,58.57849097251892,58.57849097251892,58.57849097251892,60.86324167251587,2,2.419267177581787,None,,,,,,,,,,,,,,,,,,162,3,2025-02-28_13h26.12.559,comp,2024.2.4,62.31360756860833,2025-02-28 13h26.48.217743 -0500,
12,12,0,catch,None,None,None,None,None,None,None,None,None,None,3,1.4340078830718994,None,,,,,0,0,0,0,0,12,12,129,60.87832188606262,,,,,,,,,,,,,,,,,,,,,,,,,,,,,,,,,,,,,,,,,,,,,,,,,,,,,,,,,,,,,,,,,,,,,,,,,,,,,,,,,104,86,129,61,128,197,2.1,2.12,-170,-286,0,-270,225,276,60.864314556121826,60.864367961883545,60.86696982383728,60.87832188606262,61.028563499450684,61.028563499450684,61.028563499450684,61.028563499450684,61.028563499450684,61.028563499450684,61.028563499450684,62.32945156097412,3,1.4340078830718994,None,,,,,,,,,,,,,,,,,,162,3,2025-02-28_13h26.12.559,comp,2024.2.4,62.31360756860833,2025-02-28 13h26.48.217743 -0500,
13,13,0,critical,hdw,20.0,2.1,lower,133.0,57.0,78.0,78.0,57.0,133.0,3,3.422252655029297,None,,,,,0,0,0,0,0,13,13,22,62.34485363960266,,,,,,,,,,,,,,,,,,,,,,,,,,,,,,,,,,,,,,,,,,,,,,,,,,,,,,,,,,,,,,,,,,,,,,,,,,,,,,,,,133.0,57.0,78.0,78.0,57.0,133.0,2.1,2.11,-164,281,0,275,202,-251,62.330270528793335,62.3303108215332,62.33272624015808,62.34485363960266,62.49495720863342,62.49495720863342,62.49495720863342,62.49495720863342,62.49495720863342,62.49495720863342,62.49495720863342,65.77939891815186,3,3.422252655029297,None,,,,,,,,,,,,,,,,,,162,3,2025-02-28_13h26.12.559,comp,2024.2.4,62.31360756860833,2025-02-28 13h26.48.217743 -0500,
14,14,0,critical,wdh,35.0,1.0,lower,57.0,133.0,70.0,70.0,133.0,57.0,1,1.5007190704345703,None,,,,,0,0,0,0,0,14,14,72,65.79478120803833,,,,,,,,,,,,,,,,,,,,,,,,,,,,,,,,,,,,,,,,,,,,,,,,,,,,,,,,,,,,,,,,,,,,,,,,,,,,,,,,,57.0,133.0,70.0,70.0,133.0,57.0,1.0,1.3,282,-286,480,-266,640,-252,65.78021740913391,65.78025698661804,65.78267550468445,65.79478120803833,65.94514441490173,65.94514441490173,65.94514441490173,65.94514441490173,65.94514441490173,65.94514441490173,65.94514441490173,67.31269907951355,1,1.5007190704345703,None,,,,,,,,,,,,,,,,,,162,3,2025-02-28_13h26.12.559,comp,2024.2.4,62.31360756860833,2025-02-28 13h26.48.217743 -0500,
15,15,0,filler_random,None,None,None,None,None,None,None,None,None,None,1,1.3119518756866455,None,,,,,0,0,0,0,0,15,15,134,67.32814860343933,,,,,,,,,,,,,,,,,,,,,,,,,,,,,,,,,,,,,,,,,,,,,,,,,,,,,,,,,,,,,,,,,,,,,,,,,,,,,,,,,172.12363473860628,103.27982662522962,94.36486802362563,66.25470061557934,92.2894722089249,90.53242611981355,3.0,3.2,-181,-275,0,-15,174,274,67.313631772995,67.3136715888977,67.31625652313232,67.32814860343933,67.47821593284607,67.47821593284607,67.47821593284607,67.47821593284607,67.47821593284607,67.47821593284607,67.47821593284607,68.64605975151062,1,1.3119518756866455,None,,,,,,,,,,,,,,,,,,162,3,2025-02-28_13h26.12.559,comp,2024.2.4,62.31360756860833,2025-02-28 13h26.48.217743 -0500,
16,16,0,critical,dhw,35.0,3.0,lower,70.0,70.0,133.0,57.0,57.0,133.0,3,10.042497396469116,None,,,,,0,0,0,0,0,16,16,50,68.66157507896423,,,,,,,,,,,,,,,,,,,,,,,,,,,,,,,,,,,,,,,,,,,,,,,,,,,,,,,,,,,,,,,,,,,,,,,,,,,,,,,,,70.0,70.0,133.0,57.0,57.0,133.0,3.0,3.1,-160,288,0,-3,191,-251,68.6468653678894,68.64690613746643,68.64920449256897,68.66157507896423,68.81160616874695,68.81160616874695,68.81160616874695,68.81160616874695,68.81160616874695,68.81160616874695,68.81160616874695,78.71259045600891,3,10.042497396469116,None,,,,,,,,,,,,,,,,,,162,3,2025-02-28_13h26.12.559,comp,2024.2.4,62.31360756860833,2025-02-28 13h26.48.217743 -0500,
17,17,0,filler_random,None,None,None,None,None,None,None,None,None,None,1,2.1597201824188232,None,,,,,0,0,0,0,0,17,17,138,78.72828435897827,,,,,,,,,,,,,,,,,,,,,,,,,,,,,,,,,,,,,,,,,,,,,,,,,,,,,,,,,,,,,,,,,,,,,,,,,,,,,,,,,135.42908930778742,66.98114261545925,86.94698389262946,75.36262659879074,73.74113773979929,60.01007625619798,4.0,4.2,-167,-8,0,-271,164,-12,78.7134907245636,78.71353197097778,78.71598768234253,78.72828435897827,78.87816333770752,78.87816333770752,78.87816333770752,78.87816333770752,78.87816333770752,78.87816333770752,78.87816333770752,80.89607429504395,1,2.1597201824188232,None,,,,,,,,,,,,,,,,,,162,3,2025-02-28_13h26.12.559,comp,2024.2.4,62.31360756860833,2025-02-28 13h26.48.217743 -0500,
18,18,0,critical,dwh,35.0,1.0,lower,70.0,70.0,57.0,133.0,133.0,57.0,3,1.8499360084533691,None,,,,,0,0,0,0,0,18,18,60,80.91168713569641,,,,,,,,,,,,,,,,,,,,,,,,,,,,,,,,,,,,,,,,,,,,,,,,,,,,,,,,,,,,,,,,,,,,,,,,,,,,,,,,,70.0,70.0,57.0,133.0,133.0,57.0,1.0,1.1,-678,254,-480,274,-289,278,80.89688158035278,80.89692163467407,80.89924931526184,80.91168713569641,81.06145095825195,81.06145095825195,81.06145095825195,81.06145095825195,81.06145095825195,81.06145095825195,81.06145095825195,82.77924108505249,3,1.8499360084533691,None,,,,,,,,,,,,,,,,,,162,3,2025-02-28_13h26.12.559,comp,2024.2.4,62.31360756860833,2025-02-28 13h26.48.217743 -0500,
19,19,0,critical,whd,20.0,3.0,lower,57.0,133.0,133.0,57.0,78.0,78.0,2,4.661159992218018,None,,,,,0,0,0,0,0,19,19,92,82.79468154907227,,,,,,,,,,,,,,,,,,,,,,,,,,,,,,,,,,,,,,,,,,,,,,,,,,,,,,,,,,,,,,,,,,,,,,,,,,,,,,,,,57.0,133.0,133.0,57.0,78.0,78.0,3.0,3.1,-191,269,0,1,164,-279,82.78003668785095,82.78007555007935,82.78246283531189,82.79468154907227,82.94497489929199,82.94497489929199,82.94497489929199,82.94497489929199,82.94497489929199,82.94497489929199,82.94497489929199,87.46252989768982,2,4.661159992218018,None,,,,,,,,,,,,,,,,,,162,3,2025-02-28_13h26.12.559,comp,2024.2.4,62.31360756860833,2025-02-28 13h26.48.217743 -0500,
20,20,0,filler_square,None,None,None,None,None,None,None,None,None,None,2,1.250239610671997,None,,,,,0,0,0,0,0,20,20,186,87.47832465171814,,,,,,,,,,,,,,,,,,,,,,,,,,,,,,,,,,,,,,,,,,,,,,,,,,,,,,,,,,,,,,,,,,,,,,,,,,,,,,,,,167.8031834976731,183.32111426251134,184.83410408606306,184.83410408606306,131.87939223990625,78.02235675244776,2.1,2.12,-280,-287,0,-277,227,289,87.46348857879639,87.46353077888489,87.46595168113708,87.47832465171814,87.62833404541016,87.62833404541016,87.62833404541016,87.62833404541016,87.62833404541016,87.62833404541016,87.62833404541016,88.74612665176392,2,1.250239610671997,None,,,,,,,,,,,,,,,,,,162,3,2025-02-28_13h26.12.559,comp,2024.2.4,62.31360756860833,2025-02-28 13h26.48.217743 -0500,
21,21,0,filler_square,None,None,None,None,None,None,None,None,None,None,3,1.5177044868469238,None,,,,,0,0,0,0,0,21,21,198,88.76133155822754,,,,,,,,,,,,,,,,,,,,,,,,,,,,,,,,,,,,,,,,,,,,,,,,,,,,,,,,,,,,,,,,,,,,,,,,,,,,,,,,,121.80824585354665,121.80824585354665,66.15169036315622,90.12183590706664,103.43986421991895,97.36214091407814,4.0,4.2,-202,2,0,-262,190,17,88.74706530570984,88.74711847305298,88.7492184638977,88.76133155822754,88.91153907775879,88.91153907775879,88.91153907775879,88.91153907775879,88.91153907775879,88.91153907775879,88.91153907775879,90.29590320587158,3,1.5177044868469238,None,,,,,,,,,,,,,,,,,,162,3,2025-02-28_13h26.12.559,comp,2024.2.4,62.31360756860833,2025-02-28 13h26.48.217743 -0500,
22,22,0,filler_random,None,None,None,None,None,None,None,None,None,None,3,6.776498794555664,None,,,,,0,0,0,0,0,22,22,167,90.31134104728699,,,,,,,,,,,,,,,,,,,,,,,,,,,,,,,,,,,,,,,,,,,,,,,,,,,,,,,,,,,,,,,,,,,,,,,,,,,,,,,,,91.20665434455542,118.19251345008183,155.41809823427175,123.53477098179387,174.9837009548553,125.0946286161723,1.0,1.2,-217,3,0,-18,220,13,90.29681825637817,90.2968590259552,90.2994613647461,90.31134104728699,90.46159267425537,90.46159267425537,90.46159267425537,90.46159267425537,90.46159267425537,90.46159267425537,90.46159267425537,97.09600949287415,3,6.776498794555664,None,,,,,,,,,,,,,,,,,,162,3,2025-02-28_13h26.12.559,comp,2024.2.4,62.31360756860833,2025-02-28 13h26.48.217743 -0500,
23,23,0,filler_square,None,None,None,None,None,None,None,None,None,None,3,2.7442076206207275,None,,,,,0,0,0,0,0,23,23,202,97.11153721809387,,,,,,,,,,,,,,,,,,,,,,,,,,,,,,,,,,,,,,,,,,,,,,,,,,,,,,,,,,,,,,,,,,,,,,,,,,,,,,,,,110.89735793847468,70.43475564689057,184.19762054313713,184.26242477056613,196.35097429766157,196.35097429766157,1.0,1.2,-223,8,0,-5,286,-7,97.09696841239929,97.09700918197632,97.09935855865479,97.11153721809387,97.26163601875305,97.26163601875305,97.26163601875305,97.26163601875305,97.26163601875305,97.26163601875305,97.26163601875305,99.86278486251831,3,2.7442076206207275,None,,,,,,,,,,,,,,,,,,162,3,2025-02-28_13h26.12.559,comp,2024.2.4,62.31360756860833,2025-02-28 13h26.48.217743 -0500,
24,24,0,critical,dwh,20.0,1.0,upper,141.0,141.0,125.0,200.0,200.0,125.0,3,3.6416566371917725,None,,,,,0,0,0,0,0,24,24,67,99.87820434570312,,,,,,,,,,,,,,,,,,,,,,,,,,,,,,,,,,,,,,,,,,,,,,,,,,,,,,,,,,,,,,,,,,,,,,,,,,,,,,,,,141.0,141.0,125.0,200.0,200.0,125.0,1.0,1.1,-746,281,-480,280,-222,252,99.86360216140747,99.86364316940308,99.8660798072815,99.87820434570312,100.02830696105957,100.02830696105957,100.02830696105957,100.02830696105957,100.02830696105957,100.02830696105957,100.02830696105957,103.52935886383057,3,3.6416566371917725,None,,,,,,,,,,,,,,,,,,162,3,2025-02-28_13h26.12.559,comp,2024.2.4,62.31360756860833,2025-02-28 13h26.48.217743 -0500,
25,25,0,critical,dhw,20.0,4.0,lower,78.0,78.0,133.0,57.0,57.0,133.0,2,2.134193181991577,None,,,,,0,0,0,0,0,25,25,58,103.54476571083069,,,,,,,,,,,,,,,,,,,,,,,,,,,,,,,,,,,,,,,,,,,,,,,,,,,,,,,,,,,,,,,,,,,,,,,,,,,,,,,,,78.0,78.0,133.0,57.0,57.0,133.0,4.0,4.1,-164,-251,0,18,191,-266,103.53013730049133,103.53017854690552,103.53260564804077,103.54476571083069,103.69475436210632,103.69475436210632,103.69475436210632,103.69475436210632,103.69475436210632,103.69475436210632,103.69475436210632,105.69576930999756,2,2.134193181991577,None,,,,,,,,,,,,,,,,,,162,3,2025-02-28_13h26.12.559,comp,2024.2.4,62.31360756860833,2025-02-28 13h26.48.217743 -0500,
26,26,0,critical,dwh,35.0,2.1,upper,127.0,127.0,125.0,200.0,200.0,125.0,2,1.6715567111968994,None,,,,,0,0,0,0,0,26,26,5,105.71126174926758,,,,,,,,,,,,,,,,,,,,,,,,,,,,,,,,,,,,,,,,,,,,,,,,,,,,,,,,,,,,,,,,,,,,,,,,,,,,,,,,,127.0,127.0,125.0,200.0,200.0,125.0,2.1,2.12,-260,-265,0,-269,258,289,105.69656205177307,105.69660091400146,105.69915056228638,105.71126174926758,105.86152839660645,105.86152839660645,105.86152839660645,105.86152839660645,105.86152839660645,105.86152839660645,105.86152839660645,107.39605069160461,2,1.6715567111968994,None,,,,,,,,,,,,,,,,,,162,3,2025-02-28_13h26.12.559,comp,2024.2.4,62.31360756860833,2025-02-28 13h26.48.217743 -0500,
27,27,0,critical,whd,35.0,2.1,upper,125.0,200.0,200.0,125.0,127.0,127.0,1,2.1084225177764893,None,,,,,0,0,0,0,0,27,27,13,107.41128849983215,,,,,,,,,,,,,,,,,,,,,,,,,,,,,,,,,,,,,,,,,,,,,,,,,,,,,,,,,,,,,,,,,,,,,,,,,,,,,,,,,125.0,200.0,200.0,125.0,127.0,127.0,2.1,2.11,-258,251,0,278,222,-263,107.39686703681946,107.39690852165222,107.39905714988708,107.41128849983215,107.5614800453186,107.5614800453186,107.5614800453186,107.5614800453186,107.5614800453186,107.5614800453186,107.5614800453186,109.52943801879883,1,2.1084225177764893,None,,,,,,,,,,,,,,,,,,162,3,2025-02-28_13h26.12.559,comp,2024.2.4,62.31360756860833,2025-02-28 13h26.48.217743 -0500,
28,28,0,critical,dhw,20.0,1.0,upper,141.0,141.0,200.0,125.0,125.0,200.0,3,5.400251865386963,None,,,,,0,0,0,0,0,28,28,55,109.54481673240662,,,,,,,,,,,,,,,,,,,,,,,,,,,,,,,,,,,,,,,,,,,,,,,,,,,,,,,,,,,,,,,,,,,,,,,,,,,,,,,,,141.0,141.0,200.0,125.0,125.0,200.0,1.0,1.3,251,-285,480,-267,738,-257,109.53024768829346,109.53028845787048,109.53265976905823,109.54481673240662,109.69488191604614,109.69488191604614,109.69488191604614,109.69488191604614,109.69488191604614,109.69488191604614,109.69488191604614,114.94621968269348,3,5.400251865386963,None,,,,,,,,,,,,,,,,,,162,3,2025-02-28_13h26.12.559,comp,2024.2.4,62.31360756860833,2025-02-28 13h26.48.217743 -0500,
29,29,0,filler_random,None,None,None,None,None,None,None,None,None,None,1,1.9834833145141602,None,,,,,0,0,0,0,0,29,29,147,114.96138143539429,,,,,,,,,,,,,,,,,,,,,,,,,,,,,,,,,,,,,,,,,,,,,,,,,,,,,,,,,,,,,,,,,,,,,,,,,,,,,,,,,165.43795320024566,115.88866966764844,66.2193274114214,153.78449009858812,115.23481842346303,72.38938998296655,3.0,3.2,-231,-264,0,-14,209,279,114.94712018966675,114.94716167449951,114.94955945014954,114.96138143539429,115.11141014099121,115.11141014099121,115.11141014099121,115.11141014099121,115.11141014099121,115.11141014099121,115.11141014099121,116.962406873703,1,1.9834833145141602,None,,,,,,,,,,,,,,,,,,162,3,2025-02-28_13h26.12.559,comp,2024.2.4,62.31360756860833,2025-02-28 13h26.48.217743 -0500,
30,30,0,critical,dhw,20.0,1.0,lower,78.0,78.0,133.0,57.0,57.0,133.0,3,3.053394079208374,None,,,,,0,0,0,0,0,30,30,54,116.9778184890747,,,,,,,,,,,,,,,,,,,,,,,,,,,,,,,,,,,,,,,,,,,,,,,,,,,,,,,,,,,,,,,,,,,,,,,,,,,,,,,,,78.0,78.0,133.0,57.0,57.0,133.0,1.0,1.3,316,-257,480,-284,671,-284,116.96323037147522,116.96326923370361,116.96572065353394,116.9778184890747,117.12803077697754,117.12803077697754,117.12803077697754,117.12803077697754,117.12803077697754,117.12803077697754,117.12803077697754,120.04583716392517,3,3.053394079208374,None,,,,,,,,,,,,,,,,,,162,3,2025-02-28_13h26.12.559,comp,2024.2.4,62.31360756860833,2025-02-28 13h26.48.217743 -0500,
31,31,0,filler_square,None,None,None,None,None,None,None,None,None,None,3,1.6265428066253662,None,,,,,0,0,0,0,0,31,31,201,120.06116271018982,,,,,,,,,,,,,,,,,,,,,,,,,,,,,,,,,,,,,,,,,,,,,,,,,,,,,,,,,,,,,,,,,,,,,,,,,,,,,,,,,137.9084134199116,86.66680514113713,129.41987089194055,70.65181706966749,164.59958093761657,164.59958093761657,4.0,4.1,-175,-278,0,12,214,-276,120.04683184623718,120.04687333106995,120.0495080947876,120.06116271018982,120.21131682395935,120.21131682395935,120.21131682395935,120.21131682395935,120.21131682395935,120.21131682395935,120.21131682395935,121.69582438468933,3,1.6265428066253662,None,,,,,,,,,,,,,,,,,,162,3,2025-02-28_13h26.12.559,comp,2024.2.4,62.31360756860833,2025-02-28 13h26.48.217743 -0500,
32,32,0,filler_square,None,None,None,None,None,None,None,None,None,None,1,3.103699207305908,None,,,,,0,0,0,0,0,32,32,184,121.71131801605225,,,,,,,,,,,,,,,,,,,,,,,,,,,,,,,,,,,,,,,,,,,,,,,,,,,,,,,,,,,,,,,,,,,,,,,,,,,,,,,,,74.0234552947063,74.41600816476195,67.22833877577574,66.72729933337146,87.44517449421693,87.44517449421693,2.1,2.12,-167,-266,0,-256,173,277,121.69677329063416,121.6968138217926,121.69945025444031,121.71131801605225,121.86122608184814,121.86122608184814,121.86122608184814,121.86122608184814,121.86122608184814,121.86122608184814,121.86122608184814,124.82904720306396,1,3.103699207305908,None,,,,,,,,,,,,,,,,,,162,3,2025-02-28_13h26.12.559,comp,2024.2.4,62.31360756860833,2025-02-28 13h26.48.217743 -0500,
33,33,0,critical,dwh,20.0,2.1,lower,78.0,78.0,57.0,133.0,133.0,57.0,3,0.011213302612304688,None,,,,,0,0,0,0,0,33,33,30,124.84467911720276,,,,,,,,,,,,,,,,,,,,,,,,,,,,,,,,,,,,,,,,,,,,,,,,,,,,,,,,,,,,,,,,,,,,,,,,,,,,,,,,,78.0,78.0,57.0,133.0,133.0,57.0,2.1,2.12,-202,-276,0,-269,191,263,124.82986521720886,124.82990550994873,124.83262372016907,124.84467911720276,,,,,,,,124.86228466033936,3,0.011213302612304688,None,,,,,,,,,,,,,,,,,,162,3,2025-02-28_13h26.12.559,comp,2024.2.4,62.31360756860833,2025-02-28 13h26.48.217743 -0500,
34,34,0,critical,wdh,35.0,2.1,upper,125.0,200.0,127.0,127.0,200.0,125.0,2,None,None,,,,,0,0,0,0,0,34,34,33,124.87822675704956,,,,,,,,,,,,,,,,,,,,,,,,,,,,,,,,,,,,,,,,,,,,,,,,,,,,,,,,,,,,,,,,,,,,,,,,,,,,,,,,,125.0,200.0,127.0,127.0,200.0,125.0,2.1,2.12,-260,-253,0,-285,222,273,124.86310458183289,124.86314797401428,124.86525774002075,124.87822675704956,,,,,,,,124.99569797515869,2,None,None,,,,,,,,,,,,,,,,,,162,3,2025-02-28_13h26.12.559,comp,2024.2.4,62.31360756860833,2025-02-28 13h26.48.217743 -0500,
35,35,0,critical,hwd,35.0,1.0,upper,200.0,125.0,125.0,200.0,127.0,127.0,2,8.15547800064087,None,,,,,0,0,0,0,0,35,35,97,125.01118183135986,,,,,,,,,,,,,,,,,,,,,,,,,,,,,,,,,,,,,,,,,,,,,,,,,,,,,,,,,,,,,,,,,,,,,,,,,,,,,,,,,200.0,125.0,125.0,200.0,127.0,127.0,1.0,1.3,222,-264,480,-282,740,-270,124.99650931358337,124.9965488910675,124.9990725517273,125.01118183135986,125.1613540649414,125.1613540649414,125.1613540649414,125.1613540649414,125.1613540649414,125.1613540649414,125.1613540649414,133.17915272712708,2,8.15547800064087,None,,,,,,,,,,,,,,,,,,162,3,2025-02-28_13h26.12.559,comp,2024.2.4,62.31360756860833,2025-02-28 13h26.48.217743 -0500,
36,36,0,critical,wdh,35.0,2.1,lower,57.0,133.0,70.0,70.0,133.0,57.0,1,2.541933536529541,None,,,,,0,0,0,0,0,36,36,32,133.19439339637756,,,,,,,,,,,,,,,,,,,,,,,,,,,,,,,,,,,,,,,,,,,,,,,,,,,,,,,,,,,,,,,,,,,,,,,,,,,,,,,,,57.0,133.0,70.0,70.0,133.0,57.0,2.1,2.11,-198,250,0,284,160,-278,133.1799671649933,133.18000626564026,133.18291902542114,133.19439339637756,133.3444287776947,133.3444287776947,133.3444287776947,133.3444287776947,133.3444287776947,133.3444287776947,133.3444287776947,135.74556732177734,1,2.541933536529541,None,,,,,,,,,,,,,,,,,,162,3,2025-02-28_13h26.12.559,comp,2024.2.4,62.31360756860833,2025-02-28 13h26.48.217743 -0500,
37,37,0,filler_square,None,None,None,None,None,None,None,None,None,None,3,1.2001371383666992,None,,,,,0,0,0,0,0,37,37,190,135.7612555027008,,,,,,,,,,,,,,,,,,,,,,,,,,,,,,,,,,,,,,,,,,,,,,,,,,,,,,,,,,,,,,,,,,,,,,,,,,,,,,,,,188.9394061758073,81.89802219946692,113.47204945506445,63.7320784804886,192.73697585068405,192.73697585068405,3.0,3.2,-169,-290,0,19,224,269,135.74654603004456,135.74658632278442,135.7490849494934,135.7612555027008,135.91141080856323,135.91141080856323,135.91141080856323,135.91141080856323,135.91141080856323,135.91141080856323,135.91141080856323,136.96266865730286,3,1.2001371383666992,None,,,,,,,,,,,,,,,,,,162,3,2025-02-28_13h26.12.559,comp,2024.2.4,62.31360756860833,2025-02-28 13h26.48.217743 -0500,
38,38,0,critical,hwd,20.0,2.1,upper,200.0,125.0,125.0,200.0,141.0,141.0,2,3.093595027923584,None,,,,,0,0,0,0,0,38,38,19,136.97801733016968,,,,,,,,,,,,,,,,,,,,,,,,,,,,,,,,,,,,,,,,,,,,,,,,,,,,,,,,,,,,,,,,,,,,,,,,,,,,,,,,,200.0,125.0,125.0,200.0,141.0,141.0,2.1,2.11,-258,276,0,262,266,-276,136.9634828567505,136.96352291107178,136.96567010879517,136.97801733016968,137.12801575660706,137.12801575660706,137.12801575660706,137.12801575660706,137.12801575660706,137.12801575660706,137.12801575660706,140.07906341552734,2,3.093595027923584,None,,,,,,,,,,,,,,,,,,162,3,2025-02-28_13h26.12.559,comp,2024.2.4,62.31360756860833,2025-02-28 13h26.48.217743 -0500,
39,39,0,filler_square,None,None,None,None,None,None,None,None,None,None,1,1.5363295078277588,None,,,,,0,0,0,0,0,39,39,174,140.0946168899536,,,,,,,,,,,,,,,,,,,,,,,,,,,,,,,,,,,,,,,,,,,,,,,,,,,,,,,,,,,,,,,,,,,,,,,,,,,,,,,,,150.70898581679336,150.70898581679336,143.38545347598802,71.20438943735083,89.07202233829315,143.7519518407766,4.0,4.1,-207,-260,0,9,203,-274,140.07999753952026,140.08003854751587,140.08207488059998,140.0946168899536,140.2444362640381,140.2444362640381,140.2444362640381,140.2444362640381,140.2444362640381,140.2444362640381,140.2444362640381,141.64567875862122,1,1.5363295078277588,None,,,,,,,,,,,,,,,,,,162,3,2025-02-28_13h26.12.559,comp,2024.2.4,62.31360756860833,2025-02-28 13h26.48.217743 -0500,
40,40,0,critical,hdw,35.0,3.0,upper,200.0,125.0,127.0,127.0,125.0,200.0,3,2.3537893295288086,None,,,,,0,0,0,0,0,40,40,111,141.66091227531433,,,,,,,,,,,,,,,,,,,,,,,,,,,,,,,,,,,,,,,,,,,,,,,,,,,,,,,,,,,,,,,,,,,,,,,,,,,,,,,,,200.0,125.0,127.0,127.0,125.0,200.0,3.0,3.2,-222,-277,0,12,260,253,141.64644169807434,141.646479845047,141.6489474773407,141.66091227531433,141.8112781047821,141.8112781047821,141.8112781047821,141.8112781047821,141.8112781047821,141.8112781047821,141.8112781047821,144.02899932861328,3,2.3537893295288086,None,,,,,,,,,,,,,,,,,,162,3,2025-02-28_13h26.12.559,comp,2024.2.4,62.31360756860833,2025-02-28 13h26.48.217743 -0500,
41,41,0,critical,dwh,20.0,3.0,lower,78.0,78.0,57.0,133.0,133.0,57.0,2,1.3330905437469482,None,,,,,0,0,0,0,0,41,41,68,144.04429483413696,,,,,,,,,,,,,,,,,,,,,,,,,,,,,,,,,,,,,,,,,,,,,,,,,,,,,,,,,,,,,,,,,,,,,,,,,,,,,,,,,78.0,78.0,57.0,133.0,133.0,57.0,3.0,3.2,-202,-284,0,11,191,253,144.0298354625702,144.02987694740295,144.0319902896881,144.04429483413696,144.194757938385,144.194757938385,144.194757938385,144.194757938385,144.194757938385,144.194757938385,144.194757938385,145.3791949748993,2,1.3330905437469482,None,,,,,,,,,,,,,,,,,,162,3,2025-02-28_13h26.12.559,comp,2024.2.4,62.31360756860833,2025-02-28 13h26.48.217743 -0500,
42,42,0,critical,hwd,35.0,1.0,lower,133.0,57.0,57.0,133.0,70.0,70.0,2,3.100377321243286,None,,,,,0,0,0,0,0,42,42,96,145.39455270767212,,,,,,,,,,,,,,,,,,,,,,,,,,,,,,,,,,,,,,,,,,,,,,,,,,,,,,,,,,,,,,,,,,,,,,,,,,,,,,,,,133.0,57.0,57.0,133.0,70.0,70.0,1.0,1.3,289,-260,480,-269,678,-270,145.37997388839722,145.3800151348114,145.38261556625366,145.39455270767212,145.54446148872375,145.54446148872375,145.54446148872375,145.54446148872375,145.54446148872375,145.54446148872375,145.54446148872375,148.51210641860962,2,3.100377321243286,None,,,,,,,,,,,,,,,,,,162,3,2025-02-28_13h26.12.559,comp,2024.2.4,62.31360756860833,2025-02-28 13h26.48.217743 -0500,
43,43,0,critical,whd,20.0,1.0,lower,57.0,133.0,133.0,57.0,78.0,78.0,2,1.8495514392852783,None,,,,,0,0,0,0,0,43,43,90,148.52756476402283,,,,,,,,,,,,,,,,,,,,,,,,,,,,,,,,,,,,,,,,,,,,,,,,,,,,,,,,,,,,,,,,,,,,,,,,,,,,,,,,,57.0,133.0,133.0,57.0,78.0,78.0,1.0,1.3,289,-277,480,-266,644,-281,148.5128698348999,148.51290917396545,148.5152349472046,148.52756476402283,148.6779065132141,148.6779065132141,148.6779065132141,148.6779065132141,148.6779065132141,148.6779065132141,148.6779065132141,150.37927436828613,2,1.8495514392852783,None,,,,,,,,,,,,,,,,,,162,3,2025-02-28_13h26.12.559,comp,2024.2.4,62.31360756860833,2025-02-28 13h26.48.217743 -0500,
44,44,0,critical,wdh,35.0,4.0,lower,57.0,133.0,70.0,70.0,133.0,57.0,3,2.541328191757202,None,,,,,0,0,0,0,0,44,44,76,150.39468717575073,,,,,,,,,,,,,,,,,,,,,,,,,,,,,,,,,,,,,,,,,,,,,,,,,,,,,,,,,,,,,,,,,,,,,,,,,,,,,,,,,57.0,133.0,70.0,70.0,133.0,57.0,4.0,4.1,-198,-261,0,8,160,-266,150.38005590438843,150.3801074028015,150.38256454467773,150.39468717575073,150.5443561077118,150.5443561077118,150.5443561077118,150.5443561077118,150.5443561077118,150.5443561077118,150.5443561077118,152.9456889629364,3,2.541328191757202,None,,,,,,,,,,,,,,,,,,162,3,2025-02-28_13h26.12.559,comp,2024.2.4,62.31360756860833,2025-02-28 13h26.48.217743 -0500,
45,45,0,critical,hwd,20.0,2.1,lower,133.0,57.0,57.0,133.0,78.0,78.0,1,3.342461585998535,None,,,,,0,0,0,0,0,45,45,18,152.96105885505676,,,,,,,,,,,,,,,,,,,,,,,,,,,,,,,,,,,,,,,,,,,,,,,,,,,,,,,,,,,,,,,,,,,,,,,,,,,,,,,,,133.0,57.0,57.0,133.0,78.0,78.0,2.1,2.12,-191,-276,0,-269,202,271,152.94650411605835,152.94654512405396,152.94869923591614,152.96105885505676,153.11117553710938,153.11117553710938,153.11117553710938,153.11117553710938,153.11117553710938,153.11117553710938,153.11117553710938,156.31219720840454,1,3.342461585998535,None,,,,,,,,,,,,,,,,,,162,3,2025-02-28_13h26.12.559,comp,2024.2.4,62.31360756860833,2025-02-28 13h26.48.217743 -0500,
46,46,0,critical,dwh,20.0,4.0,lower,78.0,78.0,57.0,133.0,133.0,57.0,2,0.016818761825561523,None,,,,,0,0,0,0,0,46,46,70,156.3277702331543,,,,,,,,,,,,,,,,,,,,,,,,,,,,,,,,,,,,,,,,,,,,,,,,,,,,,,,,,,,,,,,,,,,,,,,,,,,,,,,,,78.0,78.0,57.0,133.0,133.0,57.0,4.0,4.2,-202,-7,0,-276,191,-13,156.31297516822815,156.31301546096802,156.31537461280823,156.3277702331543,,,,,,,,156.36177968978882,2,0.016818761825561523,None,,,,,,,,,,,,,,,,,,162,3,2025-02-28_13h26.12.559,comp,2024.2.4,62.31360756860833,2025-02-28 13h26.48.217743 -0500,
47,47,0,critical,whd,35.0,2.1,lower,57.0,133.0,133.0,57.0,70.0,70.0,1,3.9834542274475098,None,,,,,0,0,0,0,0,47,47,12,156.37757635116577,,,,,,,,,,,,,,,,,,,,,,,,,,,,,,,,,,,,,,,,,,,,,,,,,,,,,,,,,,,,,,,,,,,,,,,,,,,,,,,,,57.0,133.0,133.0,57.0,70.0,70.0,2.1,2.11,-191,285,0,271,160,-280,156.36256790161133,156.3626070022583,156.36514925956726,156.37757635116577,156.52754187583923,156.52754187583923,156.52754187583923,156.52754187583923,156.52754187583923,156.52754187583923,156.52754187583923,160.3793168067932,1,3.9834542274475098,None,,,,,,,,,,,,,,,,,,162,3,2025-02-28_13h26.12.559,comp,2024.2.4,62.31360756860833,2025-02-28 13h26.48.217743 -0500,
48,48,0,filler_square,None,None,None,None,None,None,None,None,None,None,2,None,None,,,,,0,0,0,0,0,48,48,170,160.39446592330933,,,,,,,,,,,,,,,,,,,,,,,,,,,,,,,,,,,,,,,,,,,,,,,,,,,,,,,,,,,,,,,,,,,,,,,,,,,,,,,,,96.39942215091446,104.60127689147365,196.91880829804086,196.91880829804086,192.5951014452591,179.46472371077232,1.0,1.1,-727,253,-480,280,-196,266,160.38029313087463,160.38033199310303,160.38262176513672,160.39446592330933,,,,,,,,160.47850680351257,2,None,None,,,,,,,,,,,,,,,,,,162,3,2025-02-28_13h26.12.559,comp,2024.2.4,62.31360756860833,2025-02-28 13h26.48.217743 -0500,
49,49,0,critical,dhw,20.0,2.1,lower,78.0,78.0,133.0,57.0,57.0,133.0,2,3.4093854427337646,None,,,,,0,0,0,0,0,49,49,26,160.494544506073,,,,,,,,,,,,,,,,,,,,,,,,,,,,,,,,,,,,,,,,,,,,,,,,,,,,,,,,,,,,,,,,,,,,,,,,,,,,,,,,,78.0,78.0,133.0,57.0,57.0,133.0,2.1,2.12,-164,-287,0,-282,191,278,160.47927594184875,160.47931385040283,160.48172807693481,160.494544506073,160.64435148239136,160.64435148239136,160.64435148239136,160.64435148239136,160.64435148239136,160.64435148239136,160.64435148239136,163.91214513778687,2,3.4093854427337646,None,,,,,,,,,,,,,,,,,,162,3,2025-02-28_13h26.12.559,comp,2024.2.4,62.31360756860833,2025-02-28 13h26.48.217743 -0500,
50,50,0,critical,dhw,35.0,2.1,lower,70.0,70.0,133.0,57.0,57.0,133.0,3,None,None,,,,,0,0,0,0,0,50,50,0,163.92792582511902,,,,,,,,,,,,,,,,,,,,,,,,,,,,,,,,,,,,,,,,,,,,,,,,,,,,,,,,,,,,,,,,,,,,,,,,,,,,,,,,,70.0,70.0,133.0,57.0,57.0,133.0,2.1,2.12,-160,-277,0,-274,191,272,163.91293168067932,163.91297149658203,163.91525053977966,163.92792582511902,,,,,,,,164.02870512008667,3,None,None,,,,,,,,,,,,,,,,,,162,3,2025-02-28_13h26.12.559,comp,2024.2.4,62.31360756860833,2025-02-28 13h26.48.217743 -0500,
51,51,0,filler_square,None,None,None,None,None,None,None,None,None,None,1,2.426797389984131,None,,,,,0,0,0,0,0,51,51,192,164.0445625782013,,,,,,,,,,,,,,,,,,,,,,,,,,,,,,,,,,,,,,,,,,,,,,,,,,,,,,,,,,,,,,,,,,,,,,,,,,,,,,,,,85.29508613637775,85.29508613637775,64.1519426453851,81.25914607824005,62.310987977264446,59.26739938374349,2.2,2.21,-179,-268,0,254,166,264,164.02968215942383,164.0297236442566,164.03199458122253,164.0445625782013,164.194265127182,164.194265127182,164.194265127182,164.194265127182,164.194265127182,164.194265127182,164.194265127182,166.4786615371704,1,2.426797389984131,None,,,,,,,,,,,,,,,,,,162,3,2025-02-28_13h26.12.559,comp,2024.2.4,62.31360756860833,2025-02-28 13h26.48.217743 -0500,
52,52,0,critical,wdh,20.0,2.1,lower,57.0,133.0,78.0,78.0,133.0,57.0,1,2.1449167728424072,None,,,,,0,0,0,0,0,52,52,10,166.4944829940796,,,,,,,,,,,,,,,,,,,,,,,,,,,,,,,,,,,,,,,,,,,,,,,,,,,,,,,,,,,,,,,,,,,,,,,,,,,,,,,,,57.0,133.0,78.0,78.0,133.0,57.0,2.1,2.12,-202,-290,0,-261,164,290,166.47944974899292,166.47949075698853,166.48201847076416,166.4944829940796,166.64426493644714,166.64426493644714,166.64426493644714,166.64426493644714,166.64426493644714,166.64426493644714,166.64426493644714,168.64533233642578,1,2.1449167728424072,None,,,,,,,,,,,,,,,,,,162,3,2025-02-28_13h26.12.559,comp,2024.2.4,62.31360756860833,2025-02-28 13h26.48.217743 -0500,
53,53,0,filler_random,None,None,None,None,None,None,None,None,None,None,1,1.1053743362426758,None,,,,,0,0,0,0,0,53,53,158,168.66105580329895,,,,,,,,,,,,,,,,,,,,,,,,,,,,,,,,,,,,,,,,,,,,,,,,,,,,,,,,,,,,,,,,,,,,,,,,,,,,,,,,,145.4543088550509,184.7920566544604,85.10731668192743,195.44402693871933,180.5018558614961,94.48998135340017,2.2,2.21,-286,-285,0,282,241,263,168.6462721824646,168.6463122367859,168.64885139465332,168.66105580329895,168.81114745140076,168.81114745140076,168.81114745140076,168.81114745140076,168.81114745140076,168.81114745140076,168.81114745140076,169.77894043922424,1,1.1053743362426758,None,,,,,,,,,,,,,,,,,,162,3,2025-02-28_13h26.12.559,comp,2024.2.4,62.31360756860833,2025-02-28 13h26.48.217743 -0500,
54,54,0,filler_random,None,None,None,None,None,None,None,None,None,None,2,1.3005688190460205,None,,,,,0,0,0,0,0,54,54,131,169.79416680335999,,,,,,,,,,,,,,,,,,,,,,,,,,,,,,,,,,,,,,,,,,,,,,,,,,,,,,,,,,,,,,,,,,,,,,,,,,,,,,,,,68.37568796984712,187.26206543310548,182.57010256974388,129.38515918768056,90.77181669658452,191.67470602794947,1.0,1.3,226,-265,480,-283,737,-266,169.77989220619202,169.77993297576904,169.7827332019806,169.79416680335999,169.9444408416748,169.9444408416748,169.9444408416748,169.9444408416748,169.9444408416748,169.9444408416748,169.9444408416748,171.11214637756348,2,1.3005688190460205,None,,,,,,,,,,,,,,,,,,162,3,2025-02-28_13h26.12.559,comp,2024.2.4,62.31360756860833,2025-02-28 13h26.48.217743 -0500,
55,55,0,catch,None,None,None,None,None,None,None,None,None,None,2,0.775921106338501,None,,,,,0,0,0,0,0,55,55,124,171.12750458717346,,,,,,,,,,,,,,,,,,,,,,,,,,,,,,,,,,,,,,,,,,,,,,,,,,,,,,,,,,,,,,,,,,,,,,,,,,,,,,,,,71,119,180,145,117,73,4.0,4.1,-228,-284,0,5,205,-286,171.11320734024048,171.11324858665466,171.11657214164734,171.12750458717346,171.27769422531128,171.27769422531128,171.27769422531128,171.27769422531128,171.27769422531128,171.27769422531128,171.27769422531128,171.9120330810547,2,0.775921106338501,None,,,,,,,,,,,,,,,,,,162,3,2025-02-28_13h26.12.559,comp,2024.2.4,62.31360756860833,2025-02-28 13h26.48.217743 -0500,
56,56,0,critical,dhw,20.0,2.1,lower,78.0,78.0,133.0,57.0,57.0,133.0,3,1.849256992340088,None,,,,,0,0,0,0,0,56,56,2,171.92761063575745,,,,,,,,,,,,,,,,,,,,,,,,,,,,,,,,,,,,,,,,,,,,,,,,,,,,,,,,,,,,,,,,,,,,,,,,,,,,,,,,,78.0,78.0,133.0,57.0,57.0,133.0,2.1,2.12,-164,-271,0,-289,191,277,171.91282200813293,171.91286277770996,171.91516733169556,171.92761063575745,172.07751560211182,172.07751560211182,172.07751560211182,172.07751560211182,172.07751560211182,172.07751560211182,172.07751560211182,173.77895593643188,3,1.849256992340088,None,,,,,,,,,,,,,,,,,,162,3,2025-02-28_13h26.12.559,comp,2024.2.4,62.31360756860833,2025-02-28 13h26.48.217743 -0500,
57,57,0,critical,whd,20.0,1.0,upper,125.0,200.0,200.0,125.0,141.0,141.0,1,4.252049446105957,None,,,,,0,0,0,0,0,57,57,91,173.7944028377533,,,,,,,,,,,,,,,,,,,,,,,,,,,,,,,,,,,,,,,,,,,,,,,,,,,,,,,,,,,,,,,,,,,,,,,,,,,,,,,,,125.0,200.0,200.0,125.0,141.0,141.0,1.0,1.2,-258,-5,0,-3,229,2,173.77974390983582,173.77978420257568,173.78204584121704,173.7944028377533,173.94441175460815,173.94441175460815,173.94441175460815,173.94441175460815,173.94441175460815,173.94441175460815,173.94441175460815,178.06219124794006,1,4.252049446105957,None,,,,,,,,,,,,,,,,,,162,3,2025-02-28_13h26.12.559,comp,2024.2.4,62.31360756860833,2025-02-28 13h26.48.217743 -0500,
58,58,0,filler_square,None,None,None,None,None,None,None,None,None,None,3,2.467320203781128,None,,,,,0,0,0,0,0,58,58,209,178.07749700546265,,,,,,,,,,,,,,,,,,,,,,,,,,,,,,,,,,,,,,,,,,,,,,,,,,,,,,,,,,,,,,,,,,,,,,,,,,,,,,,,,61.8026211736405,73.33962404496282,79.73381501504174,62.832606619088644,82.5513815848386,82.5513815848386,2.2,2.22,-164,259,0,-278,169,-275,178.06318521499634,178.06322717666626,178.06536865234375,178.07749700546265,178.227548122406,178.227548122406,178.227548122406,178.227548122406,178.227548122406,178.227548122406,178.227548122406,180.5617971420288,3,2.467320203781128,None,,,,,,,,,,,,,,,,,,162,3,2025-02-28_13h26.12.559,comp,2024.2.4,62.31360756860833,2025-02-28 13h26.48.217743 -0500,
59,59,0,critical,hwd,20.0,4.0,upper,200.0,125.0,125.0,200.0,141.0,141.0,2,5.661980152130127,None,,,,,0,0,0,0,0,59,59,107,180.57731342315674,,,,,,,,,,,,,,,,,,,,,,,,,,,,,,,,,,,,,,,,,,,,,,,,,,,,,,,,,,,,,,,,,,,,,,,,,,,,,,,,,200.0,125.0,125.0,200.0,141.0,141.0,4.0,4.2,-258,-15,0,-251,266,-2,180.5625822544098,180.56262254714966,180.5647029876709,180.57731342315674,180.72808504104614,180.72808504104614,180.72808504104614,180.72808504104614,180.72808504104614,180.72808504104614,180.72808504104614,186.24547934532166,2,5.661980152130127,None,,,,,,,,,,,,,,,,,,162,3,2025-02-28_13h26.12.559,comp,2024.2.4,62.31360756860833,2025-02-28 13h26.48.217743 -0500,
60,60,0,critical,dhw,20.0,2.1,upper,141.0,141.0,200.0,125.0,125.0,200.0,3,4.794203519821167,None,,,,,0,0,0,0,0,60,60,3,186.26101231575012,,,,,,,,,,,,,,,,,,,,,,,,,,,,,,,,,,,,,,,,,,,,,,,,,,,,,,,,,,,,,,,,,,,,,,,,,,,,,,,,,141.0,141.0,200.0,125.0,125.0,200.0,2.1,2.11,-229,289,0,277,258,-271,186.24629616737366,186.246337890625,186.2489595413208,186.26101231575012,186.41117930412292,186.41117930412292,186.41117930412292,186.41117930412292,186.41117930412292,186.41117930412292,186.41117930412292,191.06208658218384,3,4.794203519821167,None,,,,,,,,,,,,,,,,,,162,3,2025-02-28_13h26.12.559,comp,2024.2.4,62.31360756860833,2025-02-28 13h26.48.217743 -0500,
61,61,0,critical,whd,35.0,4.0,upper,125.0,200.0,200.0,125.0,127.0,127.0,1,1.2671260833740234,None,,,,,0,0,0,0,0,61,61,89,191.07760047912598,,,,,,,,,,,,,,,,,,,,,,,,,,,,,,,,,,,,,,,,,,,,,,,,,,,,,,,,,,,,,,,,,,,,,,,,,,,,,,,,,125.0,200.0,200.0,125.0,127.0,127.0,4.0,4.1,-258,-271,0,-14,222,-262,191.06307315826416,191.06313514709473,191.06526803970337,191.07760047912598,191.2276427745819,191.2276427745819,191.2276427745819,191.2276427745819,191.2276427745819,191.2276427745819,191.2276427745819,192.3619668483734,1,1.2671260833740234,None,,,,,,,,,,,,,,,,,,162,3,2025-02-28_13h26.12.559,comp,2024.2.4,62.31360756860833,2025-02-28 13h26.48.217743 -0500,
62,62,0,critical,dwh,20.0,4.0,upper,141.0,141.0,125.0,200.0,200.0,125.0,2,1.9671144485473633,None,,,,,0,0,0,0,0,62,62,71,192.37734746932983,,,,,,,,,,,,,,,,,,,,,,,,,,,,,,,,,,,,,,,,,,,,,,,,,,,,,,,,,,,,,,,,,,,,,,,,,,,,,,,,,141.0,141.0,125.0,200.0,200.0,125.0,4.0,4.2,-266,-3,0,-260,258,10,192.36275720596313,192.36279606819153,192.36540865898132,192.37734746932983,192.52797174453735,192.52797174453735,192.52797174453735,192.52797174453735,192.52797174453735,192.52797174453735,192.52797174453735,194.36197018623352,2,1.9671144485473633,None,,,,,,,,,,,,,,,,,,162,3,2025-02-28_13h26.12.559,comp,2024.2.4,62.31360756860833,2025-02-28 13h26.48.217743 -0500,
63,63,0,critical,hwd,20.0,1.0,upper,200.0,125.0,125.0,200.0,141.0,141.0,2,2.204983711242676,None,,,,,0,0,0,0,0,63,63,103,194.37721371650696,,,,,,,,,,,,,,,,,,,,,,,,,,,,,,,,,,,,,,,,,,,,,,,,,,,,,,,,,,,,,,,,,,,,,,,,,,,,,,,,,200.0,125.0,125.0,200.0,141.0,141.0,1.0,1.2,-258,-1,0,9,266,4,194.36277651786804,194.3628158569336,194.36542630195618,194.37721371650696,194.52795553207397,194.52795553207397,194.52795553207397,194.52795553207397,194.52795553207397,194.52795553207397,194.52795553207397,196.59536337852478,2,2.204983711242676,None,,,,,,,,,,,,,,,,,,162,3,2025-02-28_13h26.12.559,comp,2024.2.4,62.31360756860833,2025-02-28 13h26.48.217743 -0500,
64,64,0,critical,dwh,35.0,3.0,upper,127.0,127.0,125.0,200.0,200.0,125.0,2,1.4690275192260742,None,,,,,0,0,0,0,0,64,64,63,196.61056995391846,,,,,,,,,,,,,,,,,,,,,,,,,,,,,,,,,,,,,,,,,,,,,,,,,,,,,,,,,,,,,,,,,,,,,,,,,,,,,,,,,127.0,127.0,125.0,200.0,200.0,125.0,3.0,3.2,-260,-284,0,-12,258,290,196.59612584114075,196.59616446495056,196.59853553771973,196.61056995391846,196.76117038726807,196.76117038726807,196.76117038726807,196.76117038726807,196.76117038726807,196.76117038726807,196.76117038726807,198.09525775909424,2,1.4690275192260742,None,,,,,,,,,,,,,,,,,,162,3,2025-02-28_13h26.12.559,comp,2024.2.4,62.31360756860833,2025-02-28 13h26.48.217743 -0500,
65,65,0,filler_random,None,None,None,None,None,None,None,None,None,None,3,1.0882925987243652,None,,,,,0,0,0,0,0,65,65,142,198.11050653457642,,,,,,,,,,,,,,,,,,,,,,,,,,,,,,,,,,,,,,,,,,,,,,,,,,,,,,,,,,,,,,,,,,,,,,,,,,,,,,,,,75.48238669295947,141.8240305793083,104.1732241773419,112.83856322590341,164.7210535403462,109.33504267199515,3.0,3.1,-223,255,0,-7,207,-270,198.09616589546204,198.09620594978333,198.09856748580933,198.11050653457642,198.26089572906494,198.26089572906494,198.26089572906494,198.26089572906494,198.26089572906494,198.26089572906494,198.26089572906494,199.2118637561798,3,1.0882925987243652,None,,,,,,,,,,,,,,,,,,162,3,2025-02-28_13h26.12.559,comp,2024.2.4,62.31360756860833,2025-02-28 13h26.48.217743 -0500,
66,66,0,catch,None,None,None,None,None,None,None,None,None,None,2,0.7962839603424072,None,,,,,0,0,0,0,0,66,66,123,199.22723698616028,,,,,,,,,,,,,,,,,,,,,,,,,,,,,,,,,,,,,,,,,,,,,,,,,,,,,,,,,,,,,,,,,,,,,,,,,,,,,,,,,95,95,143,182,84,106,3.0,3.1,-234,275,0,-13,240,-255,199.2129168510437,199.212956905365,199.2155728340149,199.22723698616028,199.37743949890137,199.37743949890137,199.37743949890137,199.37743949890137,199.37743949890137,199.37743949890137,199.37743949890137,200.02859950065613,2,0.7962839603424072,None,,,,,,,,,,,,,,,,,,162,3,2025-02-28_13h26.12.559,comp,2024.2.4,62.31360756860833,2025-02-28 13h26.48.217743 -0500,
67,67,0,critical,hwd,20.0,1.0,lower,133.0,57.0,57.0,133.0,78.0,78.0,1,2.300753593444824,None,,,,,0,0,0,0,0,67,67,102,200.04400730133057,,,,,,,,,,,,,,,,,,,,,,,,,,,,,,,,,,,,,,,,,,,,,,,,,,,,,,,,,,,,,,,,,,,,,,,,,,,,,,,,,133.0,57.0,57.0,133.0,78.0,78.0,1.0,1.1,-671,284,-480,258,-278,263,200.0294225215912,200.02946281433105,200.0319540500641,200.04400730133057,200.19396829605103,200.19396829605103,200.19396829605103,200.19396829605103,200.19396829605103,200.19396829605103,200.19396829605103,202.36170434951782,1,2.300753593444824,None,,,,,,,,,,,,,,,,,,162,3,2025-02-28_13h26.12.559,comp,2024.2.4,62.31360756860833,2025-02-28 13h26.48.217743 -0500,
68,68,0,critical,hdw,35.0,1.0,lower,133.0,57.0,70.0,70.0,57.0,133.0,1,1.8619742393493652,None,,,,,0,0,0,0,0,68,68,108,202.3772234916687,,,,,,,,,,,,,,,,,,,,,,,,,,,,,,,,,,,,,,,,,,,,,,,,,,,,,,,,,,,,,,,,,,,,,,,,,,,,,,,,,133.0,57.0,70.0,70.0,57.0,133.0,1.0,1.3,320,-264,480,-256,678,-274,202.36245608329773,202.3624930381775,202.36494946479797,202.3772234916687,202.5272707939148,202.5272707939148,202.5272707939148,202.5272707939148,202.5272707939148,202.5272707939148,202.5272707939148,204.24504041671753,1,1.8619742393493652,None,,,,,,,,,,,,,,,,,,162,3,2025-02-28_13h26.12.559,comp,2024.2.4,62.31360756860833,2025-02-28 13h26.48.217743 -0500,
69,69,0,filler_square,None,None,None,None,None,None,None,None,None,None,3,None,None,,,,,0,0,0,0,0,69,69,182,204.261075258255,,,,,,,,,,,,,,,,,,,,,,,,,,,,,,,,,,,,,,,,,,,,,,,,,,,,,,,,,,,,,,,,,,,,,,,,,,,,,,,,,112.3619993891906,112.3619993891906,71.22226039131466,79.59100699037006,98.16696962749289,79.9758900425749,1.0,1.1,-672,267,-480,277,-304,251,204.2460081577301,204.24604725837708,204.24839854240417,204.261075258255,204.41068696975708,204.41068696975708,204.41068696975708,204.41068696975708,204.41068696975708,204.41068696975708,204.41068696975708,204.42840313911438,3,None,None,,,,,,,,,,,,,,,,,,162,3,2025-02-28_13h26.12.559,comp,2024.2.4,62.31360756860833,2025-02-28 13h26.48.217743 -0500,
70,70,0,critical,wdh,20.0,4.0,lower,57.0,133.0,78.0,78.0,133.0,57.0,1,3.9008378982543945,None,,,,,0,0,0,0,0,70,70,82,204.44390892982483,,,,,,,,,,,,,,,,,,,,,,,,,,,,,,,,,,,,,,,,,,,,,,,,,,,,,,,,,,,,,,,,,,,,,,,,,,,,,,,,,57.0,133.0,78.0,78.0,133.0,57.0,4.0,4.1,-202,-257,0,-8,164,-254,204.42920517921448,204.42924547195435,204.43167638778687,204.44390892982483,204.5940535068512,204.5940535068512,204.5940535068512,204.5940535068512,204.5940535068512,204.5940535068512,204.5940535068512,208.36186456680298,1,3.9008378982543945,None,,,,,,,,,,,,,,,,,,162,3,2025-02-28_13h26.12.559,comp,2024.2.4,62.31360756860833,2025-02-28 13h26.48.217743 -0500,
71,71,0,critical,hdw,35.0,2.1,upper,200.0,125.0,127.0,127.0,125.0,200.0,1,3.662139892578125,None,,,,,0,0,0,0,0,71,71,21,208.37727785110474,,,,,,,,,,,,,,,,,,,,,,,,,,,,,,,,,,,,,,,,,,,,,,,,,,,,,,,,,,,,,,,,,,,,,,,,,,,,,,,,,200.0,125.0,127.0,127.0,125.0,200.0,2.1,2.12,-222,-282,0,-251,260,284,208.36270666122437,208.3627462387085,208.36532163619995,208.37727785110474,208.5276334285736,208.5276334285736,208.5276334285736,208.5276334285736,208.5276334285736,208.5276334285736,208.5276334285736,212.0452868938446,1,3.662139892578125,None,,,,,,,,,,,,,,,,,,162,3,2025-02-28_13h26.12.559,comp,2024.2.4,62.31360756860833,2025-02-28 13h26.48.217743 -0500,
72,72,0,critical,wdh,35.0,3.0,lower,57.0,133.0,70.0,70.0,133.0,57.0,3,None,None,,,,,0,0,0,0,0,72,72,74,212.06078791618347,,,,,,,,,,,,,,,,,,,,,,,,,,,,,,,,,,,,,,,,,,,,,,,,,,,,,,,,,,,,,,,,,,,,,,,,,,,,,,,,,57.0,133.0,70.0,70.0,133.0,57.0,3.0,3.1,-198,286,0,19,160,-284,212.0460662841797,212.0461277961731,212.0485622882843,212.06078791618347,,,,,,,,212.1618514060974,3,None,None,,,,,,,,,,,,,,,,,,162,3,2025-02-28_13h26.12.559,comp,2024.2.4,62.31360756860833,2025-02-28 13h26.48.217743 -0500,
73,73,0,critical,dhw,35.0,4.0,lower,70.0,70.0,133.0,57.0,57.0,133.0,3,3.293776512145996,None,,,,,0,0,0,0,0,73,73,52,212.17722368240356,,,,,,,,,,,,,,,,,,,,,,,,,,,,,,,,,,,,,,,,,,,,,,,,,,,,,,,,,,,,,,,,,,,,,,,,,,,,,,,,,70.0,70.0,133.0,57.0,57.0,133.0,4.0,4.1,-160,-252,0,-3,191,-259,212.16263675689697,212.16267681121826,212.16475701332092,212.17722368240356,212.32722806930542,212.32722806930542,212.32722806930542,212.32722806930542,212.32722806930542,212.32722806930542,212.32722806930542,215.478942155838,3,3.293776512145996,None,,,,,,,,,,,,,,,,,,162,3,2025-02-28_13h26.12.559,comp,2024.2.4,62.31360756860833,2025-02-28 13h26.48.217743 -0500,
74,74,0,filler_random,None,None,None,None,None,None,None,None,None,None,1,2.792959690093994,None,,,,,0,0,0,0,0,74,74,151,215.49414539337158,,,,,,,,,,,,,,,,,,,,,,,,,,,,,,,,,,,,,,,,,,,,,,,,,,,,,,,,,,,,,,,,,,,,,,,,,,,,,,,,,103.93452258747232,149.68639242871694,79.27377017846239,93.67764594270375,95.13326073767017,73.71289316950923,2.1,2.12,-218,-285,0,-270,180,289,215.47987818717957,215.47991800308228,215.48247480392456,215.49414539337158,215.64405012130737,215.64405012130737,215.64405012130737,215.64405012130737,215.64405012130737,215.64405012130737,215.64405012130737,218.29502034187317,1,2.792959690093994,None,,,,,,,,,,,,,,,,,,162,3,2025-02-28_13h26.12.559,comp,2024.2.4,62.31360756860833,2025-02-28 13h26.48.217743 -0500,
75,75,0,filler_square,None,None,None,None,None,None,None,None,None,None,3,1.481909990310669,None,,,,,0,0,0,0,0,75,75,204,218.31067204475403,,,,,,,,,,,,,,,,,,,,,,,,,,,,,,,,,,,,,,,,,,,,,,,,,,,,,,,,,,,,,,,,,,,,,,,,,,,,,,,,,137.02899424493356,140.04370279743995,151.97162981912572,90.09680057125685,199.69324098607342,199.69324098607342,2.2,2.21,-211,-273,0,258,241,289,218.2959771156311,218.2960183620453,218.29801964759827,218.31067204475403,218.46071004867554,218.46071004867554,218.46071004867554,218.46071004867554,218.46071004867554,218.46071004867554,218.46071004867554,219.79546999931335,3,1.481909990310669,None,,,,,,,,,,,,,,,,,,162,3,2025-02-28_13h26.12.559,comp,2024.2.4,62.31360756860833,2025-02-28 13h26.48.217743 -0500,
76,76,0,critical,hdw,35.0,1.0,upper,200.0,125.0,127.0,127.0,125.0,200.0,1,2.124804735183716,None,,,,,0,0,0,0,0,76,76,109,219.8107430934906,,,,,,,,,,,,,,,,,,,,,,,,,,,,,,,,,,,,,,,,,,,,,,,,,,,,,,,,,,,,,,,,,,,,,,,,,,,,,,,,,200.0,125.0,127.0,127.0,125.0,200.0,1.0,1.1,-702,255,-480,270,-220,271,219.79626727104187,219.79630827903748,219.79873895645142,219.8107430934906,219.96098399162292,219.96098399162292,219.96098399162292,219.96098399162292,219.96098399162292,219.96098399162292,219.96098399162292,221.94508242607117,1,2.124804735183716,None,,,,,,,,,,,,,,,,,,162,3,2025-02-28_13h26.12.559,comp,2024.2.4,62.31360756860833,2025-02-28 13h26.48.217743 -0500,
77,77,0,critical,wdh,35.0,4.0,upper,125.0,200.0,127.0,127.0,200.0,125.0,1,2.2783443927764893,None,,,,,0,0,0,0,0,77,77,77,221.96068859100342,,,,,,,,,,,,,,,,,,,,,,,,,,,,,,,,,,,,,,,,,,,,,,,,,,,,,,,,,,,,,,,,,,,,,,,,,,,,,,,,,125.0,200.0,127.0,127.0,200.0,125.0,4.0,4.2,-260,-10,0,-277,222,2,221.94587349891663,221.94591307640076,221.94803953170776,221.96068859100342,222.11105966567993,222.11105966567993,222.11105966567993,222.11105966567993,222.11105966567993,222.11105966567993,222.11105966567993,224.24515295028687,1,2.2783443927764893,None,,,,,,,,,,,,,,,,,,162,3,2025-02-28_13h26.12.559,comp,2024.2.4,62.31360756860833,2025-02-28 13h26.48.217743 -0500,
78,78,0,filler_square,None,None,None,None,None,None,None,None,None,None,3,2.353562355041504,None,,,,,0,0,0,0,0,78,78,172,224.26066184043884,,,,,,,,,,,,,,,,,,,,,,,,,,,,,,,,,,,,,,,,,,,,,,,,,,,,,,,,,,,,,,,,,,,,,,,,,,,,,,,,,76.57507315625143,75.09851475445319,75.33630206437921,95.39113387070994,96.96494626853053,96.96494626853053,4.0,4.1,-181,-268,0,-6,192,-286,224.24612545967102,224.2461657524109,224.24857425689697,224.26066184043884,224.410502910614,224.410502910614,224.410502910614,224.410502910614,224.410502910614,224.410502910614,224.410502910614,226.62832474708557,3,2.353562355041504,None,,,,,,,,,,,,,,,,,,162,3,2025-02-28_13h26.12.559,comp,2024.2.4,62.31360756860833,2025-02-28 13h26.48.217743 -0500,
79,79,0,filler_random,None,None,None,None,None,None,None,None,None,None,1,2.611222743988037,None,,,,,0,0,0,0,0,79,79,137,226.64375257492065,,,,,,,,,,,,,,,,,,,,,,,,,,,,,,,,,,,,,,,,,,,,,,,,,,,,,,,,,,,,,,,,,,,,,,,,,,,,,,,,,103.75439309622746,121.93823060557003,87.754262945829,70.4898893969025,98.76148732776977,122.24389811284215,1.0,1.1,-672,258,-480,286,-288,266,226.62925815582275,226.62929892539978,226.63174510002136,226.64375257492065,226.7938756942749,226.7938756942749,226.7938756942749,226.7938756942749,226.7938756942749,226.7938756942749,226.7938756942749,229.26161217689514,1,2.611222743988037,None,,,,,,,,,,,,,,,,,,162,3,2025-02-28_13h26.12.559,comp,2024.2.4,62.31360756860833,2025-02-28 13h26.48.217743 -0500,
80,80,0,critical,wdh,20.0,1.0,upper,125.0,200.0,141.0,141.0,200.0,125.0,1,2.1212985515594482,None,,,,,0,0,0,0,0,80,80,79,229.27728486061096,,,,,,,,,,,,,,,,,,,,,,,,,,,,,,,,,,,,,,,,,,,,,,,,,,,,,,,,,,,,,,,,,,,,,,,,,,,,,,,,,125.0,200.0,141.0,141.0,200.0,125.0,1.0,1.1,-746,253,-480,275,-251,254,229.26239919662476,229.2624385356903,229.2648286819458,229.27728486061096,229.42754697799683,229.42754697799683,229.42754697799683,229.42754697799683,229.42754697799683,229.42754697799683,229.42754697799683,231.41179537773132,1,2.1212985515594482,None,,,,,,,,,,,,,,,,,,162,3,2025-02-28_13h26.12.559,comp,2024.2.4,62.31360756860833,2025-02-28 13h26.48.217743 -0500,
81,81,0,critical,hdw,35.0,2.1,lower,133.0,57.0,70.0,70.0,57.0,133.0,1,2.3871653079986572,None,,,,,0,0,0,0,0,81,81,44,231.42702436447144,,,,,,,,,,,,,,,,,,,,,,,,,,,,,,,,,,,,,,,,,,,,,,,,,,,,,,,,,,,,,,,,,,,,,,,,,,,,,,,,,133.0,57.0,70.0,70.0,57.0,133.0,2.1,2.12,-160,-269,0,-274,198,261,231.41260480880737,231.41264462471008,231.41520500183105,231.42702436447144,231.57718086242676,231.57718086242676,231.57718086242676,231.57718086242676,231.57718086242676,231.57718086242676,231.57718086242676,233.8282115459442,1,2.3871653079986572,None,,,,,,,,,,,,,,,,,,162,3,2025-02-28_13h26.12.559,comp,2024.2.4,62.31360756860833,2025-02-28 13h26.48.217743 -0500,
82,82,0,filler_square,None,None,None,None,None,None,None,None,None,None,1,2.1168296337127686,None,,,,,0,0,0,0,0,82,82,194,233.8435938358307,,,,,,,,,,,,,,,,,,,,,,,,,,,,,,,,,,,,,,,,,,,,,,,,,,,,,,,,,,,,,,,,,,,,,,,,,,,,,,,,,71.23864286522064,71.23864286522064,57.64811877052794,64.04967433625362,57.345504245133355,60.81392992226473,2.2,2.22,-164,258,0,-267,158,-282,233.82916808128357,233.82920813560486,233.83166074752808,233.8435938358307,233.99366545677185,233.99366545677185,233.99366545677185,233.99366545677185,233.99366545677185,233.99366545677185,233.99366545677185,235.96170568466187,1,2.1168296337127686,None,,,,,,,,,,,,,,,,,,162,3,2025-02-28_13h26.12.559,comp,2024.2.4,62.31360756860833,2025-02-28 13h26.48.217743 -0500,
83,83,0,critical,wdh,20.0,2.1,lower,57.0,133.0,78.0,78.0,133.0,57.0,1,2.615436553955078,None,,,,,0,0,0,0,0,83,83,34,235.97724413871765,,,,,,,,,,,,,,,,,,,,,,,,,,,,,,,,,,,,,,,,,,,,,,,,,,,,,,,,,,,,,,,,,,,,,,,,,,,,,,,,,57.0,133.0,78.0,78.0,133.0,57.0,2.1,2.12,-202,-267,0,-274,164,254,235.96252489089966,235.96256566047668,235.96473455429077,235.97724413871765,236.1271562576294,236.1271562576294,236.1271562576294,236.1271562576294,236.1271562576294,236.1271562576294,236.1271562576294,238.59492468833923,1,2.615436553955078,None,,,,,,,,,,,,,,,,,,162,3,2025-02-28_13h26.12.559,comp,2024.2.4,62.31360756860833,2025-02-28 13h26.48.217743 -0500,
84,84,0,critical,hwd,35.0,4.0,lower,133.0,57.0,57.0,133.0,70.0,70.0,2,2.955392837524414,None,,,,,0,0,0,0,0,84,84,100,238.61052775382996,,,,,,,,,,,,,,,,,,,,,,,,,,,,,,,,,,,,,,,,,,,,,,,,,,,,,,,,,,,,,,,,,,,,,,,,,,,,,,,,,133.0,57.0,57.0,133.0,70.0,70.0,4.0,4.1,-191,-267,0,-15,198,-258,238.59567308425903,238.59570980072021,238.5978467464447,238.61052775382996,238.76036405563354,238.76036405563354,238.76036405563354,238.76036405563354,238.76036405563354,238.76036405563354,238.76036405563354,241.5782172679901,2,2.955392837524414,None,,,,,,,,,,,,,,,,,,162,3,2025-02-28_13h26.12.559,comp,2024.2.4,62.31360756860833,2025-02-28 13h26.48.217743 -0500,
85,85,0,filler_random,None,None,None,None,None,None,None,None,None,None,2,1.3504862785339355,None,,,,,0,0,0,0,0,85,85,157,241.5936737060547,,,,,,,,,,,,,,,,,,,,,,,,,,,,,,,,,,,,,,,,,,,,,,,,,,,,,,,,,,,,,,,,,,,,,,,,,,,,,,,,,86.51808778444857,99.86735837524716,167.1169882613653,124.71285525604384,174.39380298393374,145.11102042595797,2.1,2.12,-208,-281,0,-271,231,259,241.57912182807922,241.5791618824005,241.58157920837402,241.5936737060547,241.74379706382751,241.74379706382751,241.74379706382751,241.74379706382751,241.74379706382751,241.74379706382751,241.74379706382751,242.96166944503784,2,1.3504862785339355,None,,,,,,,,,,,,,,,,,,162,3,2025-02-28_13h26.12.559,comp,2024.2.4,62.31360756860833,2025-02-28 13h26.48.217743 -0500,
86,86,0,critical,hdw,20.0,2.1,upper,200.0,125.0,141.0,141.0,125.0,200.0,3,1.5835518836975098,None,,,,,0,0,0,0,0,86,86,23,242.97703313827515,,,,,,,,,,,,,,,,,,,,,,,,,,,,,,,,,,,,,,,,,,,,,,,,,,,,,,,,,,,,,,,,,,,,,,,,,,,,,,,,,200.0,125.0,141.0,141.0,125.0,200.0,2.1,2.11,-229,274,0,268,266,-282,242.96249341964722,242.96253395080566,242.96506214141846,242.97703313827515,243.12748098373413,243.12748098373413,243.12748098373413,243.12748098373413,243.12748098373413,243.12748098373413,243.12748098373413,244.57828855514526,3,1.5835518836975098,None,,,,,,,,,,,,,,,,,,162,3,2025-02-28_13h26.12.559,comp,2024.2.4,62.31360756860833,2025-02-28 13h26.48.217743 -0500,
87,87,0,filler_random,None,None,None,None,None,None,None,None,None,None,2,1.772336721420288,None,,,,,0,0,0,0,0,87,87,144,244.59353828430176,,,,,,,,,,,,,,,,,,,,,,,,,,,,,,,,,,,,,,,,,,,,,,,,,,,,,,,,,,,,,,,,,,,,,,,,,,,,,,,,,108.47952689405886,82.67183542055493,163.25787224027744,124.12623043750263,158.5120589753475,68.82803024163994,2.2,2.21,-199,-289,0,286,192,277,244.57919359207153,244.57923412322998,244.58171582221985,244.59353828430176,244.74382710456848,244.74382710456848,244.74382710456848,244.74382710456848,244.74382710456848,244.74382710456848,244.74382710456848,246.37826681137085,2,1.772336721420288,None,,,,,,,,,,,,,,,,,,162,3,2025-02-28_13h26.12.559,comp,2024.2.4,62.31360756860833,2025-02-28 13h26.48.217743 -0500,
88,88,0,critical,dhw,20.0,4.0,upper,141.0,141.0,200.0,125.0,125.0,200.0,3,2.81392502784729,None,,,,,0,0,0,0,0,88,88,59,246.39367008209229,,,,,,,,,,,,,,,,,,,,,,,,,,,,,,,,,,,,,,,,,,,,,,,,,,,,,,,,,,,,,,,,,,,,,,,,,,,,,,,,,141.0,141.0,200.0,125.0,125.0,200.0,4.0,4.1,-229,-285,0,-19,258,-266,246.3790521621704,246.37909293174744,246.3814709186554,246.39367008209229,246.54385828971863,246.54385828971863,246.54385828971863,246.54385828971863,246.54385828971863,246.54385828971863,246.54385828971863,249.2118091583252,3,2.81392502784729,None,,,,,,,,,,,,,,,,,,162,3,2025-02-28_13h26.12.559,comp,2024.2.4,62.31360756860833,2025-02-28 13h26.48.217743 -0500,
89,89,0,critical,dhw,35.0,2.1,upper,127.0,127.0,200.0,125.0,125.0,200.0,2,2.691760778427124,None,,,,,0,0,0,0,0,89,89,25,249.22721004486084,,,,,,,,,,,,,,,,,,,,,,,,,,,,,,,,,,,,,,,,,,,,,,,,,,,,,,,,,,,,,,,,,,,,,,,,,,,,,,,,,127.0,127.0,200.0,125.0,125.0,200.0,2.1,2.12,-222,-260,0,-257,258,275,249.21261072158813,249.21265268325806,249.21510791778564,249.22721004486084,249.37728214263916,249.37728214263916,249.37728214263916,249.37728214263916,249.37728214263916,249.37728214263916,249.37728214263916,251.92852544784546,2,2.691760778427124,None,,,,,,,,,,,,,,,,,,162,3,2025-02-28_13h26.12.559,comp,2024.2.4,62.31360756860833,2025-02-28 13h26.48.217743 -0500,
90,90,0,critical,hwd,35.0,2.1,lower,133.0,57.0,57.0,133.0,70.0,70.0,1,1.7913084030151367,None,,,,,0,0,0,0,0,90,90,40,251.94386172294617,,,,,,,,,,,,,,,,,,,,,,,,,,,,,,,,,,,,,,,,,,,,,,,,,,,,,,,,,,,,,,,,,,,,,,,,,,,,,,,,,133.0,57.0,57.0,133.0,70.0,70.0,2.1,2.12,-191,-256,0,-287,198,270,251.92932772636414,251.92936730384827,251.9318549633026,251.94386172294617,252.09384536743164,252.09384536743164,252.09384536743164,252.09384536743164,252.09384536743164,252.09384536743164,252.09384536743164,253.74487018585205,1,1.7913084030151367,None,,,,,,,,,,,,,,,,,,162,3,2025-02-28_13h26.12.559,comp,2024.2.4,62.31360756860833,2025-02-28 13h26.48.217743 -0500,
91,91,0,filler_random,None,None,None,None,None,None,None,None,None,None,1,1.1835496425628662,None,,,,,0,0,0,0,0,91,91,159,253.76055574417114,,,,,,,,,,,,,,,,,,,,,,,,,,,,,,,,,,,,,,,,,,,,,,,,,,,,,,,,,,,,,,,,,,,,,,,,,,,,,,,,,174.42048614739994,188.86172534044627,128.32471675328134,79.62898172112736,130.72791541871578,195.9069519188166,2.1,2.12,-230,-260,0,-254,234,285,253.74579548835754,253.7458381652832,253.74799633026123,253.76055574417114,253.91061282157898,253.91061282157898,253.91061282157898,253.91061282157898,253.91061282157898,253.91061282157898,253.91061282157898,254.96163892745972,1,1.1835496425628662,None,,,,,,,,,,,,,,,,,,162,3,2025-02-28_13h26.12.559,comp,2024.2.4,62.31360756860833,2025-02-28 13h26.48.217743 -0500,
92,92,0,critical,hdw,35.0,3.0,lower,133.0,57.0,70.0,70.0,57.0,133.0,3,1.5888805389404297,None,,,,,0,0,0,0,0,92,92,110,254.9769389629364,,,,,,,,,,,,,,,,,,,,,,,,,,,,,,,,,,,,,,,,,,,,,,,,,,,,,,,,,,,,,,,,,,,,,,,,,,,,,,,,,133.0,57.0,70.0,70.0,57.0,133.0,3.0,3.2,-160,-262,0,9,198,286,254.9624273777008,254.96246457099915,254.96491146087646,254.9769389629364,255.12704062461853,255.12704062461853,255.12704062461853,255.12704062461853,255.12704062461853,255.12704062461853,255.12704062461853,256.57802057266235,3,1.5888805389404297,None,,,,,,,,,,,,,,,,,,162,3,2025-02-28_13h26.12.559,comp,2024.2.4,62.31360756860833,2025-02-28 13h26.48.217743 -0500,
93,93,0,filler_random,None,None,None,None,None,None,None,None,None,None,3,1.6368904113769531,None,,,,,0,0,0,0,0,93,93,145,256.5935845375061,,,,,,,,,,,,,,,,,,,,,,,,,,,,,,,,,,,,,,,,,,,,,,,,,,,,,,,,,,,,,,,,,,,,,,,,,,,,,,,,,82.38344736623455,105.51015061455128,118.16379984813605,112.53547020011169,116.13047027289352,186.6144420268888,2.1,2.11,-205,284,0,280,246,-266,256.5789375305176,256.578978061676,256.58105421066284,256.5935845375061,256.7439908981323,256.7439908981323,256.7439908981323,256.7439908981323,256.7439908981323,256.7439908981323,256.7439908981323,258.24493074417114,3,1.6368904113769531,None,,,,,,,,,,,,,,,,,,162,3,2025-02-28_13h26.12.559,comp,2024.2.4,62.31360756860833,2025-02-28 13h26.48.217743 -0500,
94,94,0,critical,hdw,35.0,4.0,lower,133.0,57.0,70.0,70.0,57.0,133.0,1,1.3629677295684814,None,,,,,0,0,0,0,0,94,94,112,258.2602400779724,,,,,,,,,,,,,,,,,,,,,,,,,,,,,,,,,,,,,,,,,,,,,,,,,,,,,,,,,,,,,,,,,,,,,,,,,,,,,,,,,133.0,57.0,70.0,70.0,57.0,133.0,4.0,4.2,-160,13,0,-284,198,17,258.24572229385376,258.2457628250122,258.24834513664246,258.2602400779724,258.4103240966797,258.4103240966797,258.4103240966797,258.4103240966797,258.4103240966797,258.4103240966797,258.4103240966797,259.6281280517578,1,1.3629677295684814,None,,,,,,,,,,,,,,,,,,162,3,2025-02-28_13h26.12.559,comp,2024.2.4,62.31360756860833,2025-02-28 13h26.48.217743 -0500,
95,95,0,critical,wdh,35.0,2.1,lower,57.0,133.0,70.0,70.0,133.0,57.0,3,1.6999790668487549,None,,,,,0,0,0,0,0,95,95,8,259.64374232292175,,,,,,,,,,,,,,,,,,,,,,,,,,,,,,,,,,,,,,,,,,,,,,,,,,,,,,,,,,,,,,,,,,,,,,,,,,,,,,,,,57.0,133.0,70.0,70.0,133.0,57.0,2.1,2.12,-198,-260,0,-266,160,269,259.62890100479126,259.62894010543823,259.63100838661194,259.64374232292175,259.79368019104004,259.79368019104004,259.79368019104004,259.79368019104004,259.79368019104004,259.79368019104004,259.79368019104004,261.36162400245667,3,1.6999790668487549,None,,,,,,,,,,,,,,,,,,162,3,2025-02-28_13h26.12.559,comp,2024.2.4,62.31360756860833,2025-02-28 13h26.48.217743 -0500,
96,96,0,critical,dwh,35.0,2.1,lower,70.0,70.0,57.0,133.0,133.0,57.0,2,1.9338529109954834,None,,,,,0,0,0,0,0,96,96,4,261.3769590854645,,,,,,,,,,,,,,,,,,,,,,,,,,,,,,,,,,,,,,,,,,,,,,,,,,,,,,,,,,,,,,,,,,,,,,,,,,,,,,,,,70.0,70.0,57.0,133.0,133.0,57.0,2.1,2.11,-198,272,0,263,191,-287,261.3624324798584,261.3624732494354,261.3659315109253,261.3769590854645,261.52722096443176,261.52722096443176,261.52722096443176,261.52722096443176,261.52722096443176,261.52722096443176,261.52722096443176,263.3280746936798,2,1.9338529109954834,None,,,,,,,,,,,,,,,,,,162,3,2025-02-28_13h26.12.559,comp,2024.2.4,62.31360756860833,2025-02-28 13h26.48.217743 -0500,
97,97,0,critical,dwh,20.0,2.1,upper,141.0,141.0,125.0,200.0,200.0,125.0,2,1.2222602367401123,None,,,,,0,0,0,0,0,97,97,7,263.34348249435425,,,,,,,,,,,,,,,,,,,,,,,,,,,,,,,,,,,,,,,,,,,,,,,,,,,,,,,,,,,,,,,,,,,,,,,,,,,,,,,,,141.0,141.0,125.0,200.0,200.0,125.0,2.1,2.12,-266,-273,0,-266,258,280,263.32887983322144,263.32891964912415,263.3312637805939,263.34348249435425,263.4938282966614,263.4938282966614,263.4938282966614,263.4938282966614,263.4938282966614,263.4938282966614,263.4938282966614,264.5784854888916,2,1.2222602367401123,None,,,,,,,,,,,,,,,,,,162,3,2025-02-28_13h26.12.559,comp,2024.2.4,62.31360756860833,2025-02-28 13h26.48.217743 -0500,
98,98,0,critical,whd,20.0,2.1,upper,125.0,200.0,200.0,125.0,141.0,141.0,2,2.1339499950408936,None,,,,,0,0,0,0,0,98,98,39,264.59341835975647,,,,,,,,,,,,,,,,,,,,,,,,,,,,,,,,,,,,,,,,,,,,,,,,,,,,,,,,,,,,,,,,,,,,,,,,,,,,,,,,,125.0,200.0,200.0,125.0,141.0,141.0,2.1,2.12,-258,-280,0,-274,229,262,264.57930278778076,264.57934284210205,264.5818099975586,264.59341835975647,264.7438225746155,264.7438225746155,264.7438225746155,264.7438225746155,264.7438225746155,264.7438225746155,264.7438225746155,266.72851729393005,2,2.1339499950408936,None,,,,,,,,,,,,,,,,,,162,3,2025-02-28_13h26.12.559,comp,2024.2.4,62.31360756860833,2025-02-28 13h26.48.217743 -0500,
99,99,0,critical,wdh,20.0,2.1,upper,125.0,200.0,141.0,141.0,200.0,125.0,3,1.5913937091827393,None,,,,,0,0,0,0,0,99,99,11,266.7437541484833,,,,,,,,,,,,,,,,,,,,,,,,,,,,,,,,,,,,,,,,,,,,,,,,,,,,,,,,,,,,,,,,,,,,,,,,,,,,,,,,,125.0,200.0,141.0,141.0,200.0,125.0,2.1,2.11,-266,261,0,289,229,-279,266.7294456958771,266.7294867038727,266.7319383621216,266.7437541484833,266.89386320114136,266.89386320114136,266.89386320114136,266.89386320114136,266.89386320114136,266.89386320114136,266.89386320114136,268.34493470191956,3,1.5913937091827393,None,,,,,,,,,,,,,,,,,,162,3,2025-02-28_13h26.12.559,comp,2024.2.4,62.31360756860833,2025-02-28 13h26.48.217743 -0500,
100,100,0,filler_square,None,None,None,None,None,None,None,None,None,None,2,2.7585058212280273,None,,,,,0,0,0,0,0,100,100,177,268.36039423942566,,,,,,,,,,,,,,,,,,,,,,,,,,,,,,,,,,,,,,,,,,,,,,,,,,,,,,,,,,,,,,,,,,,,,,,,,,,,,,,,,68.05990631759838,76.03093173059933,86.80460063124175,86.80460063124175,86.7238729316233,80.39016421757795,3.0,3.2,-177,-262,0,11,180,270,268.34593772888184,268.3459794521332,268.34837222099304,268.36039423942566,268.51022267341614,268.51022267341614,268.51022267341614,268.51022267341614,268.51022267341614,268.51022267341614,268.51022267341614,271.1280620098114,2,2.7585058212280273,None,,,,,,,,,,,,,,,,,,162,3,2025-02-28_13h26.12.559,comp,2024.2.4,62.31360756860833,2025-02-28 13h26.48.217743 -0500,
101,101,0,critical,hwd,20.0,4.0,lower,133.0,57.0,57.0,133.0,78.0,78.0,1,1.2165892124176025,None,,,,,0,0,0,0,0,101,101,106,271.14384508132935,,,,,,,,,,,,,,,,,,,,,,,,,,,,,,,,,,,,,,,,,,,,,,,,,,,,,,,,,,,,,,,,,,,,,,,,,,,,,,,,,133.0,57.0,57.0,133.0,78.0,78.0,4.0,4.2,-191,20,0,-279,202,-1,271.12888956069946,271.12892866134644,271.13104939460754,271.14384508132935,271.2936315536499,271.2936315536499,271.2936315536499,271.2936315536499,271.2936315536499,271.2936315536499,271.2936315536499,272.3616740703583,1,1.2165892124176025,None,,,,,,,,,,,,,,,,,,162,3,2025-02-28_13h26.12.559,comp,2024.2.4,62.31360756860833,2025-02-28 13h26.48.217743 -0500,
102,102,0,critical,hdw,20.0,4.0,upper,200.0,125.0,141.0,141.0,125.0,200.0,3,1.74159574508667,None,,,,,0,0,0,0,0,102,102,119,272.3770592212677,,,,,,,,,,,,,,,,,,,,,,,,,,,,,,,,,,,,,,,,,,,,,,,,,,,,,,,,,,,,,,,,,,,,,,,,,,,,,,,,,200.0,125.0,141.0,141.0,125.0,200.0,4.0,4.1,-229,-280,0,-3,266,-266,272.3626208305359,272.36266231536865,272.3647952079773,272.3770592212677,272.52725434303284,272.52725434303284,272.52725434303284,272.52725434303284,272.52725434303284,272.52725434303284,272.52725434303284,274.12811636924744,3,1.74159574508667,None,,,,,,,,,,,,,,,,,,162,3,2025-02-28_13h26.12.559,comp,2024.2.4,62.31360756860833,2025-02-28 13h26.48.217743 -0500,
103,103,0,critical,hdw,20.0,1.0,upper,200.0,125.0,141.0,141.0,125.0,200.0,3,1.7020306587219238,None,,,,,0,0,0,0,0,103,103,115,274.14388942718506,,,,,,,,,,,,,,,,,,,,,,,,,,,,,,,,,,,,,,,,,,,,,,,,,,,,,,,,,,,,,,,,,,,,,,,,,,,,,,,,,200.0,125.0,141.0,141.0,125.0,200.0,1.0,1.1,-709,252,-480,284,-214,266,274.12892723083496,274.1289668083191,274.13125133514404,274.14388942718506,274.29393553733826,274.29393553733826,274.29393553733826,274.29393553733826,274.29393553733826,274.29393553733826,274.29393553733826,275.86143684387207,3,1.7020306587219238,None,,,,,,,,,,,,,,,,,,162,3,2025-02-28_13h26.12.559,comp,2024.2.4,62.31360756860833,2025-02-28 13h26.48.217743 -0500,
104,104,0,filler_random,None,None,None,None,None,None,None,None,None,None,2,1.850630521774292,None,,,,,0,0,0,0,0,104,104,146,275.876736164093,,,,,,,,,,,,,,,,,,,,,,,,,,,,,,,,,,,,,,,,,,,,,,,,,,,,,,,,,,,,,,,,,,,,,,,,,,,,,,,,,162.3717815582675,168.13301726950368,163.23177938990966,186.71482284960365,104.2567973294373,133.5020817025573,2.1,2.11,-273,286,0,256,256,-266,275.862345457077,275.86238646507263,275.86481857299805,275.876736164093,276.02705216407776,276.02705216407776,276.02705216407776,276.02705216407776,276.02705216407776,276.02705216407776,276.02705216407776,277.7286686897278,2,1.850630521774292,None,,,,,,,,,,,,,,,,,,162,3,2025-02-28_13h26.12.559,comp,2024.2.4,62.31360756860833,2025-02-28 13h26.48.217743 -0500,
105,105,0,filler_random,None,None,None,None,None,None,None,None,None,None,3,1.4638481140136719,None,,,,,0,0,0,0,0,105,105,155,277.74360942840576,,,,,,,,,,,,,,,,,,,,,,,,,,,,,,,,,,,,,,,,,,,,,,,,,,,,,,,,,,,,,,,,,,,,,,,,,,,,,,,,,153.52092842171268,92.32988312474481,97.66888757185694,82.0362733427651,183.66453440452824,127.50972737030786,3.0,3.1,-183,277,0,-16,201,-288,277.7295789718628,277.72961950302124,277.73184299468994,277.74360942840576,277.89364671707153,277.89364671707153,277.89364671707153,277.89364671707153,277.89364671707153,277.89364671707153,277.89364671707153,279.21157360076904,3,1.4638481140136719,None,,,,,,,,,,,,,,,,,,162,3,2025-02-28_13h26.12.559,comp,2024.2.4,62.31360756860833,2025-02-28 13h26.48.217743 -0500,
106,106,0,critical,dhw,35.0,1.0,lower,70.0,70.0,133.0,57.0,57.0,133.0,2,2.9868457317352295,None,,,,,0,0,0,0,0,106,106,48,279.22700214385986,,,,,,,,,,,,,,,,,,,,,,,,,,,,,,,,,,,,,,,,,,,,,,,,,,,,,,,,,,,,,,,,,,,,,,,,,,,,,,,,,70.0,70.0,133.0,57.0,57.0,133.0,1.0,1.3,320,-267,480,-252,671,-282,279.21247839927673,279.212518453598,279.21473693847656,279.22700214385986,279.37715220451355,279.37715220451355,279.37715220451355,279.37715220451355,279.37715220451355,279.37715220451355,279.37715220451355,282.2282462120056,2,2.9868457317352295,None,,,,,,,,,,,,,,,,,,162,3,2025-02-28_13h26.12.559,comp,2024.2.4,62.31360756860833,2025-02-28 13h26.48.217743 -0500,
107,107,0,filler_square,None,None,None,None,None,None,None,None,None,None,1,1.3702845573425293,None,,,,,0,0,0,0,0,107,107,200,282.24348974227905,,,,,,,,,,,,,,,,,,,,,,,,,,,,,,,,,,,,,,,,,,,,,,,,,,,,,,,,,,,,,,,,,,,,,,,,,,,,,,,,,143.02477181328928,143.02477181328928,122.62594827220369,82.69805370608522,122.8783610089182,109.26681097734564,2.1,2.12,-209,-274,0,-254,192,289,282.22923612594604,282.22929334640503,282.23189210891724,282.24348974227905,282.39354634284973,282.39354634284973,282.39354634284973,282.39354634284973,282.39354634284973,282.39354634284973,282.39354634284973,283.6280162334442,1,1.3702845573425293,None,,,,,,,,,,,,,,,,,,162,3,2025-02-28_13h26.12.559,comp,2024.2.4,62.31360756860833,2025-02-28 13h26.48.217743 -0500,
108,108,0,filler_random,None,None,None,None,None,None,None,None,None,None,2,2.2342934608459473,None,,,,,0,0,0,0,0,108,108,153,283.6434533596039,,,,,,,,,,,,,,,,,,,,,,,,,,,,,,,,,,,,,,,,,,,,,,,,,,,,,,,,,,,,,,,,,,,,,,,,,,,,,,,,,134.81359332663334,101.92568544709476,131.25293155118163,137.52395030064798,102.1447581695302,88.6735199481003,2.1,2.11,-216,253,0,289,209,-279,283.62892627716064,283.62896633148193,283.63157773017883,283.6434533596039,283.79360795021057,283.79360795021057,283.79360795021057,283.79360795021057,283.79360795021057,283.79360795021057,283.79360795021057,285.89470648765564,2,2.2342934608459473,None,,,,,,,,,,,,,,,,,,162,3,2025-02-28_13h26.12.559,comp,2024.2.4,62.31360756860833,2025-02-28 13h26.48.217743 -0500,
109,109,0,filler_random,None,None,None,None,None,None,None,None,None,None,2,1.0253982543945312,None,,,,,0,0,0,0,0,109,109,132,285.9099519252777,,,,,,,,,,,,,,,,,,,,,,,,,,,,,,,,,,,,,,,,,,,,,,,,,,,,,,,,,,,,,,,,,,,,,,,,,,,,,,,,,170.38237020779508,105.35583708567091,199.92302599992092,148.65427396796267,186.70130245050646,75.11464164002747,3.0,3.2,-223,-276,0,-17,208,250,285.89567041397095,285.8957118988037,285.8983545303345,285.9099519252777,286.06041383743286,286.06041383743286,286.06041383743286,286.06041383743286,286.06041383743286,286.06041383743286,286.06041383743286,286.9447319507599,2,1.0253982543945312,None,,,,,,,,,,,,,,,,,,162,3,2025-02-28_13h26.12.559,comp,2024.2.4,62.31360756860833,2025-02-28 13h26.48.217743 -0500,
110,110,0,filler_square,None,None,None,None,None,None,None,None,None,None,2,1.1017439365386963,None,,,,,0,0,0,0,0,110,110,183,286.9601557254791,,,,,,,,,,,,,,,,,,,,,,,,,,,,,,,,,,,,,,,,,,,,,,,,,,,,,,,,,,,,,,,,,,,,,,,,,,,,,,,,,81.33474395633661,128.35922621275995,130.75173430652669,130.75173430652669,87.80592019165991,82.28437686633247,4.0,4.2,-226,16,0,-282,203,15,286.9456539154053,286.94569301605225,286.94821310043335,286.9601557254791,287.1104815006256,287.1104815006256,287.1104815006256,287.1104815006256,287.1104815006256,287.1104815006256,287.1104815006256,288.077823638916,2,1.1017439365386963,None,,,,,,,,,,,,,,,,,,162,3,2025-02-28_13h26.12.559,comp,2024.2.4,62.31360756860833,2025-02-28 13h26.48.217743 -0500,
111,111,0,critical,dwh,20.0,3.0,upper,141.0,141.0,125.0,200.0,200.0,125.0,2,2.961176633834839,None,,,,,0,0,0,0,0,111,111,69,288.09331822395325,,,,,,,,,,,,,,,,,,,,,,,,,,,,,,,,,,,,,,,,,,,,,,,,,,,,,,,,,,,,,,,,,,,,,,,,,,,,,,,,,141.0,141.0,125.0,200.0,200.0,125.0,3.0,3.2,-266,-253,0,-18,258,267,288.07859921455383,288.07863879203796,288.0812177658081,288.09331822395325,288.24363231658936,288.24363231658936,288.24363231658936,288.24363231658936,288.24363231658936,288.24363231658936,288.24363231658936,291.0614719390869,2,2.961176633834839,None,,,,,,,,,,,,,,,,,,162,3,2025-02-28_13h26.12.559,comp,2024.2.4,62.31360756860833,2025-02-28 13h26.48.217743 -0500,
112,112,0,filler_square,None,None,None,None,None,None,None,None,None,None,1,1.5460164546966553,None,,,,,0,0,0,0,0,112,112,203,291.07696652412415,,,,,,,,,,,,,,,,,,,,,,,,,,,,,,,,,,,,,,,,,,,,,,,,,,,,,,,,,,,,,,,,,,,,,,,,,,,,,,,,,178.98815616333826,178.98815616333826,131.39398550835998,142.48581339608984,146.70861570207373,58.88429266953598,2.1,2.12,-257,-280,0,-286,197,271,291.0624418258667,291.0624828338623,291.06463861465454,291.07696652412415,291.2270076274872,291.2270076274872,291.2270076274872,291.2270076274872,291.2270076274872,291.2270076274872,291.2270076274872,292.62803626060486,1,1.5460164546966553,None,,,,,,,,,,,,,,,,,,162,3,2025-02-28_13h26.12.559,comp,2024.2.4,62.31360756860833,2025-02-28 13h26.48.217743 -0500,
113,113,0,filler_square,None,None,None,None,None,None,None,None,None,None,2,4.764208793640137,None,,,,,0,0,0,0,0,113,113,180,292.64354181289673,,,,,,,,,,,,,,,,,,,,,,,,,,,,,,,,,,,,,,,,,,,,,,,,,,,,,,,,,,,,,,,,,,,,,,,,,,,,,,,,,57.36321598456612,60.26023463162007,61.24809254784128,61.24809254784128,58.93351845969665,59.5202680729097,1.0,1.1,-637,286,-480,272,-324,281,292.62904691696167,292.6290874481201,292.6312575340271,292.64354181289673,292.7933120727539,292.7933120727539,292.7933120727539,292.7933120727539,292.7933120727539,292.7933120727539,292.7933120727539,297.4112112522125,2,4.764208793640137,None,,,,,,,,,,,,,,,,,,162,3,2025-02-28_13h26.12.559,comp,2024.2.4,62.31360756860833,2025-02-28 13h26.48.217743 -0500,
114,114,0,filler_random,None,None,None,None,None,None,None,None,None,None,3,None,None,,,,,0,0,0,0,0,114,114,160,297.4272322654724,,,,,,,,,,,,,,,,,,,,,,,,,,,,,,,,,,,,,,,,,,,,,,,,,,,,,,,,,,,,,,,,,,,,,,,,,,,,,,,,,73.32536270398012,97.95702445290908,60.95028825238535,131.40022622944295,152.28933623495539,156.49253471634842,1.0,1.1,-691,257,-480,279,-240,284,297.4121241569519,297.412166595459,297.41451621055603,297.4272322654724,,,,,,,,297.54438304901123,3,None,None,,,,,,,,,,,,,,,,,,162,3,2025-02-28_13h26.12.559,comp,2024.2.4,62.31360756860833,2025-02-28 13h26.48.217743 -0500,
115,115,0,filler_random,None,None,None,None,None,None,None,None,None,None,1,3.2626709938049316,None,,,,,0,0,0,0,0,115,115,130,297.5599925518036,,,,,,,,,,,,,,,,,,,,,,,,,,,,,,,,,,,,,,,,,,,,,,,,,,,,,,,,,,,,,,,,,,,,,,,,,,,,,,,,,174.79162790559724,185.15686370800557,91.25386688671796,138.707389474334,124.43144830013186,155.77735351331145,2.1,2.11,-258,277,0,288,243,-257,297.5452983379364,297.54533886909485,297.5477695465088,297.5599925518036,297.71028089523315,297.71028089523315,297.71028089523315,297.71028089523315,297.71028089523315,297.71028089523315,297.71028089523315,300.8281900882721,1,3.2626709938049316,None,,,,,,,,,,,,,,,,,,162,3,2025-02-28_13h26.12.559,comp,2024.2.4,62.31360756860833,2025-02-28 13h26.48.217743 -0500,
116,116,0,filler_random,None,None,None,None,None,None,None,None,None,None,1,6.850308179855347,None,,,,,0,0,0,0,0,116,116,164,300.8436872959137,,,,,,,,,,,,,,,,,,,,,,,,,,,,,,,,,,,,,,,,,,,,,,,,,,,,,,,,,,,,,,,,,,,,,,,,,,,,,,,,,109.79340348955843,136.20987414551084,180.91460735854486,88.27449421991736,75.4210612922513,150.7158650046034,3.0,3.2,-208,-283,0,-11,215,259,300.82907128334045,300.8291301727295,300.8324706554413,300.8436872959137,300.99340415000916,300.99340415000916,300.99340415000916,300.99340415000916,300.99340415000916,300.99340415000916,300.99340415000916,307.711195230484,1,6.850308179855347,None,,,,,,,,,,,,,,,,,,162,3,2025-02-28_13h26.12.559,comp,2024.2.4,62.31360756860833,2025-02-28 13h26.48.217743 -0500,
117,117,0,critical,whd,20.0,2.1,lower,57.0,133.0,133.0,57.0,78.0,78.0,1,4.176100015640259,None,,,,,0,0,0,0,0,117,117,38,307.7264301776886,,,,,,,,,,,,,,,,,,,,,,,,,,,,,,,,,,,,,,,,,,,,,,,,,,,,,,,,,,,,,,,,,,,,,,,,,,,,,,,,,57.0,133.0,133.0,57.0,78.0,78.0,2.1,2.11,-191,266,0,288,164,-260,307.7119605541229,307.71199893951416,307.7143614292145,307.7264301776886,307.87672448158264,307.87672448158264,307.87672448158264,307.87672448158264,307.87672448158264,307.87672448158264,307.87672448158264,311.91115140914917,1,4.176100015640259,None,,,,,,,,,,,,,,,,,,162,3,2025-02-28_13h26.12.559,comp,2024.2.4,62.31360756860833,2025-02-28 13h26.48.217743 -0500,
118,118,0,filler_square,None,None,None,None,None,None,None,None,None,None,1,1.167149543762207,None,,,,,0,0,0,0,0,118,118,195,311.9268066883087,,,,,,,,,,,,,,,,,,,,,,,,,,,,,,,,,,,,,,,,,,,,,,,,,,,,,,,,,,,,,,,,,,,,,,,,,,,,,,,,,147.20460955207312,147.20460955207312,95.74399777660814,118.08355793007436,80.24954899153525,65.00921713821874,1.0,1.2,-229,-3,0,-1,188,-11,311.912122964859,311.9121644496918,311.91428685188293,311.9268066883087,312.093377828598,312.093377828598,312.093377828598,312.093377828598,312.093377828598,312.093377828598,312.093377828598,313.1110887527466,1,1.167149543762207,None,,,,,,,,,,,,,,,,,,162,3,2025-02-28_13h26.12.559,comp,2024.2.4,62.31360756860833,2025-02-28 13h26.48.217743 -0500,
119,119,0,critical,hdw,20.0,3.0,lower,133.0,57.0,78.0,78.0,57.0,133.0,3,6.439583778381348,None,,,,,0,0,0,0,0,119,119,116,313.1265079975128,,,,,,,,,,,,,,,,,,,,,,,,,,,,,,,,,,,,,,,,,,,,,,,,,,,,,,,,,,,,,,,,,,,,,,,,,,,,,,,,,133.0,57.0,78.0,78.0,57.0,133.0,3.0,3.1,-164,254,0,14,202,-288,313.11201214790344,313.1120512485504,313.1144585609436,313.1265079975128,313.27678203582764,313.27678203582764,313.27678203582764,313.27678203582764,313.27678203582764,313.27678203582764,313.27678203582764,319.5835015773773,3,6.439583778381348,None,,,,,,,,,,,,,,,,,,162,3,2025-02-28_13h26.12.559,comp,2024.2.4,62.31360756860833,2025-02-28 13h26.48.217743 -0500,
120,120,0,critical,hdw,35.0,2.1,upper,200.0,125.0,127.0,127.0,125.0,200.0,1,1.5783045291900635,None,,,,,0,0,0,0,0,120,120,45,319.597647190094,,,,,,,,,,,,,,,,,,,,,,,,,,,,,,,,,,,,,,,,,,,,,,,,,,,,,,,,,,,,,,,,,,,,,,,,,,,,,,,,,200.0,125.0,127.0,127.0,125.0,200.0,2.1,2.12,-222,-271,0,-271,260,276,319.58432698249817,319.58436274528503,319.5861394405365,319.597647190094,319.74351739883423,319.74351739883423,319.74351739883423,319.74351739883423,319.74351739883423,319.74351739883423,319.74351739883423,321.17791056632996,1,1.5783045291900635,None,,,,,,,,,,,,,,,,,,162,3,2025-02-28_13h26.12.559,comp,2024.2.4,62.31360756860833,2025-02-28 13h26.48.217743 -0500,
121,121,0,critical,dhw,35.0,2.1,upper,127.0,127.0,200.0,125.0,125.0,200.0,2,1.9336562156677246,None,,,,,0,0,0,0,0,121,121,1,321.19329810142517,,,,,,,,,,,,,,,,,,,,,,,,,,,,,,,,,,,,,,,,,,,,,,,,,,,,,,,,,,,,,,,,,,,,,,,,,,,,,,,,,127.0,127.0,200.0,125.0,125.0,200.0,2.1,2.12,-222,-275,0,-250,258,263,321.17869687080383,321.17873787879944,321.18095326423645,321.19329810142517,321.34341526031494,321.34341526031494,321.34341526031494,321.34341526031494,321.34341526031494,321.34341526031494,321.34341526031494,323.1281442642212,2,1.9336562156677246,None,,,,,,,,,,,,,,,,,,162,3,2025-02-28_13h26.12.559,comp,2024.2.4,62.31360756860833,2025-02-28 13h26.48.217743 -0500,
122,122,0,critical,whd,35.0,3.0,upper,125.0,200.0,200.0,125.0,127.0,127.0,2,1.0167477130889893,None,,,,,0,0,0,0,0,122,122,87,323.1433925628662,,,,,,,,,,,,,,,,,,,,,,,,,,,,,,,,,,,,,,,,,,,,,,,,,,,,,,,,,,,,,,,,,,,,,,,,,,,,,,,,,125.0,200.0,200.0,125.0,127.0,127.0,3.0,3.2,-258,-257,0,-6,222,258,323.1289439201355,323.1289863586426,323.13117361068726,323.1433925628662,323.2934048175812,323.2934048175812,323.2934048175812,323.2934048175812,323.2934048175812,323.2934048175812,323.2934048175812,324.16139674186707,2,1.0167477130889893,None,,,,,,,,,,,,,,,,,,162,3,2025-02-28_13h26.12.559,comp,2024.2.4,62.31360756860833,2025-02-28 13h26.48.217743 -0500,
123,123,0,filler_random,None,None,None,None,None,None,None,None,None,None,2,1.7007231712341309,None,,,,,0,0,0,0,0,123,123,161,324.17672300338745,,,,,,,,,,,,,,,,,,,,,,,,,,,,,,,,,,,,,,,,,,,,,,,,,,,,,,,,,,,,,,,,,,,,,,,,,,,,,,,,,114.96104708644029,192.88380646120459,166.04411766307481,194.38287468935812,57.14618177730555,127.70164068269291,2.1,2.12,-290,-273,0,-278,257,278,324.16231966018677,324.1623604297638,324.16452646255493,324.17672300338745,324.3266553878784,324.3266553878784,324.3266553878784,324.3266553878784,324.3266553878784,324.3266553878784,324.3266553878784,325.8943853378296,2,1.7007231712341309,None,,,,,,,,,,,,,,,,,,162,3,2025-02-28_13h26.12.559,comp,2024.2.4,62.31360756860833,2025-02-28 13h26.48.217743 -0500,
124,124,0,critical,wdh,35.0,3.0,upper,125.0,200.0,127.0,127.0,200.0,125.0,1,1.650120735168457,None,,,,,0,0,0,0,0,124,124,75,325.9097900390625,,,,,,,,,,,,,,,,,,,,,,,,,,,,,,,,,,,,,,,,,,,,,,,,,,,,,,,,,,,,,,,,,,,,,,,,,,,,,,,,,125.0,200.0,127.0,127.0,200.0,125.0,3.0,3.2,-260,-273,0,12,222,273,325.89518570899963,325.8952260017395,325.8976457118988,325.9097900390625,326.0602524280548,326.0602524280548,326.0602524280548,326.0602524280548,326.0602524280548,326.0602524280548,326.0602524280548,327.5778064727783,1,1.650120735168457,None,,,,,,,,,,,,,,,,,,162,3,2025-02-28_13h26.12.559,comp,2024.2.4,62.31360756860833,2025-02-28 13h26.48.217743 -0500,
125,125,0,filler_square,None,None,None,None,None,None,None,None,None,None,3,1.9987821578979492,None,,,,,0,0,0,0,0,125,125,196,327.5931465625763,,,,,,,,,,,,,,,,,,,,,,,,,,,,,,,,,,,,,,,,,,,,,,,,,,,,,,,,,,,,,,,,,,,,,,,,,,,,,,,,,94.81719464933607,94.81719464933607,60.48431787199304,75.37265244515288,91.96556102446536,91.72344050866587,1.0,1.3,299,-277,480,-279,660,-252,327.5787818431854,327.57882380485535,327.5813841819763,327.5931465625763,327.7431960105896,327.7431960105896,327.7431960105896,327.7431960105896,327.7431960105896,327.7431960105896,327.7431960105896,329.59466195106506,3,1.9987821578979492,None,,,,,,,,,,,,,,,,,,162,3,2025-02-28_13h26.12.559,comp,2024.2.4,62.31360756860833,2025-02-28 13h26.48.217743 -0500,
126,126,0,catch,None,None,None,None,None,None,None,None,None,None,2,1.3662195205688477,None,,,,,0,0,0,0,0,126,126,128,329.60995841026306,,,,,,,,,,,,,,,,,,,,,,,,,,,,,,,,,,,,,,,,,,,,,,,,,,,,,,,,,,,,,,,,,,,,,,,,,,,,,,,,,117,73,180,145,110,80,4.0,4.2,-205,3,0,-273,208,-14,329.5957045555115,329.59574484825134,329.5979211330414,329.60995841026306,329.76011753082275,329.76011753082275,329.76011753082275,329.76011753082275,329.76011753082275,329.76011753082275,329.76011753082275,330.99433279037476,2,1.3662195205688477,None,,,,,,,,,,,,,,,,,,162,3,2025-02-28_13h26.12.559,comp,2024.2.4,62.31360756860833,2025-02-28 13h26.48.217743 -0500,
127,127,0,critical,hdw,20.0,1.0,lower,133.0,57.0,78.0,78.0,57.0,133.0,1,6.644517660140991,None,,,,,0,0,0,0,0,127,127,114,331.0096220970154,,,,,,,,,,,,,,,,,,,,,,,,,,,,,,,,,,,,,,,,,,,,,,,,,,,,,,,,,,,,,,,,,,,,,,,,,,,,,,,,,133.0,57.0,78.0,78.0,57.0,133.0,1.0,1.1,-644,271,-480,282,-278,272,330.9952280521393,330.99526858329773,330.99776673316956,331.0096220970154,331.15970277786255,331.15970277786255,331.15970277786255,331.15970277786255,331.15970277786255,331.15970277786255,331.15970277786255,337.6608815193176,1,6.644517660140991,None,,,,,,,,,,,,,,,,,,162,3,2025-02-28_13h26.12.559,comp,2024.2.4,62.31360756860833,2025-02-28 13h26.48.217743 -0500,
128,128,0,filler_random,None,None,None,None,None,None,None,None,None,None,3,4.38477087020874,None,,,,,0,0,0,0,0,128,128,148,337.6766166687012,,,,,,,,,,,,,,,,,,,,,,,,,,,,,,,,,,,,,,,,,,,,,,,,,,,,,,,,,,,,,,,,,,,,,,,,,,,,,,,,,68.09408414734779,131.48858294683936,178.97056632002955,61.95703000877701,157.06067630070567,72.63528540818709,2.2,2.21,-193,-251,0,257,163,280,337.66178274154663,337.6618239879608,337.66436553001404,337.6766166687012,337.8265471458435,337.8265471458435,337.8265471458435,337.8265471458435,337.8265471458435,337.8265471458435,337.8265471458435,342.0775761604309,3,4.38477087020874,None,,,,,,,,,,,,,,,,,,162,3,2025-02-28_13h26.12.559,comp,2024.2.4,62.31360756860833,2025-02-28 13h26.48.217743 -0500,
129,129,0,filler_random,None,None,None,None,None,None,None,None,None,None,3,1.1523401737213135,None,,,,,0,0,0,0,0,129,129,165,342.0931487083435,,,,,,,,,,,,,,,,,,,,,,,,,,,,,,,,,,,,,,,,,,,,,,,,,,,,,,,,,,,,,,,,,,,,,,,,,,,,,,,,,139.31884031144384,87.03926880528803,86.87236584727705,101.85299416915026,142.86408201226112,105.01800757932925,3.0,3.1,-190,250,0,-17,199,-276,342.0784788131714,342.07851791381836,342.0809450149536,342.0931487083435,342.24311685562134,342.24311685562134,342.24311685562134,342.24311685562134,342.24311685562134,342.24311685562134,342.24311685562134,343.26095604896545,3,1.1523401737213135,None,,,,,,,,,,,,,,,,,,162,3,2025-02-28_13h26.12.559,comp,2024.2.4,62.31360756860833,2025-02-28 13h26.48.217743 -0500,
130,130,0,critical,hdw,20.0,3.0,upper,200.0,125.0,141.0,141.0,125.0,200.0,3,1.058218240737915,None,,,,,0,0,0,0,0,130,130,117,343.2762997150421,,,,,,,,,,,,,,,,,,,,,,,,,,,,,,,,,,,,,,,,,,,,,,,,,,,,,,,,,,,,,,,,,,,,,,,,,,,,,,,,,200.0,125.0,141.0,141.0,125.0,200.0,3.0,3.1,-229,250,0,6,266,-258,343.2617311477661,343.261771440506,343.2643530368805,343.2762997150421,343.42679953575134,343.42679953575134,343.42679953575134,343.42679953575134,343.42679953575134,343.42679953575134,343.42679953575134,344.344446182251,3,1.058218240737915,None,,,,,,,,,,,,,,,,,,162,3,2025-02-28_13h26.12.559,comp,2024.2.4,62.31360756860833,2025-02-28 13h26.48.217743 -0500,
131,131,0,critical,whd,35.0,2.1,upper,125.0,200.0,200.0,125.0,127.0,127.0,1,1.085583209991455,None,,,,,0,0,0,0,0,131,131,37,344.3598701953888,,,,,,,,,,,,,,,,,,,,,,,,,,,,,,,,,,,,,,,,,,,,,,,,,,,,,,,,,,,,,,,,,,,,,,,,,,,,,,,,,125.0,200.0,200.0,125.0,127.0,127.0,2.1,2.11,-258,286,0,273,222,-287,344.34527230262756,344.3453092575073,344.34747409820557,344.3598701953888,344.5099368095398,344.5099368095398,344.5099368095398,344.5099368095398,344.5099368095398,344.5099368095398,344.5099368095398,345.4610514640808,1,1.085583209991455,None,,,,,,,,,,,,,,,,,,162,3,2025-02-28_13h26.12.559,comp,2024.2.4,62.31360756860833,2025-02-28 13h26.48.217743 -0500,
132,132,0,filler_random,None,None,None,None,None,None,None,None,None,None,1,3.4338717460632324,None,,,,,0,0,0,0,0,132,132,163,345.47632002830505,,,,,,,,,,,,,,,,,,,,,,,,,,,,,,,,,,,,,,,,,,,,,,,,,,,,,,,,,,,,,,,,,,,,,,,,,,,,,,,,,165.13968759707396,94.19861468583443,83.7441104537242,194.24007095409928,128.5865803662099,139.3235048429085,1.0,1.1,-720,282,-480,267,-217,279,345.4619462490082,345.46198415756226,345.4648480415344,345.47632002830505,345.626496553421,345.626496553421,345.626496553421,345.626496553421,345.626496553421,345.626496553421,345.626496553421,348.9275393486023,1,3.4338717460632324,None,,,,,,,,,,,,,,,,,,162,3,2025-02-28_13h26.12.559,comp,2024.2.4,62.31360756860833,2025-02-28 13h26.48.217743 -0500,
133,133,0,filler_random,None,None,None,None,None,None,None,None,None,None,2,1.2866265773773193,None,,,,,0,0,0,0,0,133,133,139,348.94294333457947,,,,,,,,,,,,,,,,,,,,,,,,,,,,,,,,,,,,,,,,,,,,,,,,,,,,,,,,,,,,,,,,,,,,,,,,,,,,,,,,,143.14208832145238,82.16036167834169,115.99828896686789,147.8426314108729,106.84189645401659,76.00386051716512,4.0,4.2,-211,-14,0,-257,208,-16,348.928448677063,348.9284884929657,348.93094992637634,348.94294333457947,349.09315633773804,349.09315633773804,349.09315633773804,349.09315633773804,349.09315633773804,349.09315633773804,349.09315633773804,350.24421310424805,2,1.2866265773773193,None,,,,,,,,,,,,,,,,,,162,3,2025-02-28_13h26.12.559,comp,2024.2.4,62.31360756860833,2025-02-28 13h26.48.217743 -0500,
134,134,0,critical,dwh,35.0,4.0,lower,70.0,70.0,57.0,133.0,133.0,57.0,3,0.9697146415710449,None,,,,,0,0,0,0,0,134,134,64,350.2596094608307,,,,,,,,,,,,,,,,,,,,,,,,,,,,,,,,,,,,,,,,,,,,,,,,,,,,,,,,,,,,,,,,,,,,,,,,,,,,,,,,,70.0,70.0,57.0,133.0,133.0,57.0,4.0,4.1,-198,-256,0,1,191,-255,350.24498295783997,350.24502182006836,350.2474219799042,350.2596094608307,350.4096448421478,350.4096448421478,350.4096448421478,350.4096448421478,350.4096448421478,350.4096448421478,350.4096448421478,351.24404788017273,3,0.9697146415710449,None,,,,,,,,,,,,,,,,,,162,3,2025-02-28_13h26.12.559,comp,2024.2.4,62.31360756860833,2025-02-28 13h26.48.217743 -0500,
135,135,0,critical,whd,20.0,4.0,upper,125.0,200.0,200.0,125.0,141.0,141.0,1,1.5165083408355713,None,,,,,0,0,0,0,0,135,135,95,351.2594544887543,,,,,,,,,,,,,,,,,,,,,,,,,,,,,,,,,,,,,,,,,,,,,,,,,,,,,,,,,,,,,,,,,,,,,,,,,,,,,,,,,125.0,200.0,200.0,125.0,141.0,141.0,4.0,4.2,-258,-9,0,-256,229,0,351.2448284626007,351.24486541748047,351.24706840515137,351.2594544887543,351.40995144844055,351.40995144844055,351.40995144844055,351.40995144844055,351.40995144844055,351.40995144844055,351.40995144844055,352.77787017822266,1,1.5165083408355713,None,,,,,,,,,,,,,,,,,,162,3,2025-02-28_13h26.12.559,comp,2024.2.4,62.31360756860833,2025-02-28 13h26.48.217743 -0500,
136,136,0,filler_square,None,None,None,None,None,None,None,None,None,None,1,0.8928933143615723,None,,,,,0,0,0,0,0,136,136,187,352.793256521225,,,,,,,,,,,,,,,,,,,,,,,,,,,,,,,,,,,,,,,,,,,,,,,,,,,,,,,,,,,,,,,,,,,,,,,,,,,,,,,,,152.39881390910782,152.39881390910782,108.00737040539263,67.9108095538467,134.579361201838,109.86244519287132,1.0,1.2,-206,-15,0,-16,185,-19,352.7788305282593,352.7788712978363,352.7814407348633,352.793256521225,352.94349670410156,352.94349670410156,352.94349670410156,352.94349670410156,352.94349670410156,352.94349670410156,352.94349670410156,353.6941468715668,1,0.8928933143615723,None,,,,,,,,,,,,,,,,,,162,3,2025-02-28_13h26.12.559,comp,2024.2.4,62.31360756860833,2025-02-28 13h26.48.217743 -0500,
137,137,0,catch,None,None,None,None,None,None,None,None,None,None,3,0.9515435695648193,None,,,,,0,0,0,0,0,137,137,120,353.7097895145416,,,,,,,,,,,,,,,,,,,,,,,,,,,,,,,,,,,,,,,,,,,,,,,,,,,,,,,,,,,,,,,,,,,,,,,,,,,,,,,,,73,117,119,71,169,156,2.2,2.21,-190,-264,0,280,210,250,353.6953275203705,353.6953694820404,353.69782996177673,353.7097895145416,353.8597083091736,353.8597083091736,353.8597083091736,353.8597083091736,353.8597083091736,353.8597083091736,353.8597083091736,354.6774392127991,3,0.9515435695648193,None,,,,,,,,,,,,,,,,,,162,3,2025-02-28_13h26.12.559,comp,2024.2.4,62.31360756860833,2025-02-28 13h26.48.217743 -0500,
138,138,0,critical,wdh,35.0,1.0,upper,125.0,200.0,127.0,127.0,200.0,125.0,3,1.6416091918945312,None,,,,,0,0,0,0,0,138,138,73,354.6928379535675,,,,,,,,,,,,,,,,,,,,,,,,,,,,,,,,,,,,,,,,,,,,,,,,,,,,,,,,,,,,,,,,,,,,,,,,,,,,,,,,,125.0,200.0,127.0,127.0,200.0,125.0,1.0,1.1,-740,284,-480,263,-258,287,354.6782205104828,354.6782612800598,354.68066906929016,354.6928379535675,354.8432412147522,354.8432412147522,354.8432412147522,354.8432412147522,354.8432412147522,354.8432412147522,354.8432412147522,356.3443515300751,3,1.6416091918945312,None,,,,,,,,,,,,,,,,,,162,3,2025-02-28_13h26.12.559,comp,2024.2.4,62.31360756860833,2025-02-28 13h26.48.217743 -0500,
139,139,0,critical,hwd,20.0,2.1,lower,133.0,57.0,57.0,133.0,78.0,78.0,1,1.101536512374878,None,,,,,0,0,0,0,0,139,139,42,356.359890460968,,,,,,,,,,,,,,,,,,,,,,,,,,,,,,,,,,,,,,,,,,,,,,,,,,,,,,,,,,,,,,,,,,,,,,,,,,,,,,,,,133.0,57.0,57.0,133.0,78.0,78.0,2.1,2.11,-191,284,0,266,202,-285,356.3451461791992,356.34518551826477,356.3473415374756,356.359890460968,356.5097439289093,356.5097439289093,356.5097439289093,356.5097439289093,356.5097439289093,356.5097439289093,356.5097439289093,357.4774293899536,1,1.101536512374878,None,,,,,,,,,,,,,,,,,,162,3,2025-02-28_13h26.12.559,comp,2024.2.4,62.31360756860833,2025-02-28 13h26.48.217743 -0500,
140,140,0,filler_random,None,None,None,None,None,None,None,None,None,None,1,1.7932677268981934,None,,,,,0,0,0,0,0,140,140,154,357.49284076690674,,,,,,,,,,,,,,,,,,,,,,,,,,,,,,,,,,,,,,,,,,,,,,,,,,,,,,,,,,,,,,,,,,,,,,,,,,,,,,,,,170.74781160232968,119.87321310876955,122.00553088935389,150.96472287992276,143.82019456148083,132.30843798147015,2.2,2.21,-231,-255,0,286,238,270,357.4783308506012,357.4783687591553,357.480806350708,357.49284076690674,357.6431984901428,357.6431984901428,357.6431984901428,357.6431984901428,357.6431984901428,357.6431984901428,357.6431984901428,359.2942416667938,1,1.7932677268981934,None,,,,,,,,,,,,,,,,,,162,3,2025-02-28_13h26.12.559,comp,2024.2.4,62.31360756860833,2025-02-28 13h26.48.217743 -0500,
