thisN,thisTrialN,thisRepN,effect,order,distance,config,diag,h_1,w_1,h_2,w_2,h_3,w_3,rect_choice.keys,rect_choice.rt,rect_choice.duration,instructions_loop.thisRepN,instructions_loop.thisTrialN,instructions_loop.thisN,instructions_loop.thisIndex,blocks.thisRepN,blocks.thisTrialN,blocks.thisN,blocks.thisIndex,trials.thisRepN,trials.thisTrialN,trials.thisN,trials.thisIndex,thisRow.t,notes,consent.started,agree_button.started,decline_button.started,consent_img.started,mouse.started,consent.stopped,agree_button.numClicks,agree_button.timesOn,agree_button.timesOff,decline_button.numClicks,decline_button.timesOn,decline_button.timesOff,mouse.x,mouse.y,mouse.leftButton,mouse.midButton,mouse.rightButton,mouse.time,mouse.clicked_name,exp_params.started,exp_params.stopped,welcome.started,welcome_text.started,welcome_text.stopped,welcome.stopped,instructions_1.started,instructions_1_text_1.started,instructions_1_text_2.started,key_resp.started,instructions_1.stopped,instructions_loop.key_resp.keys,instructions_loop.key_resp.rt,instructions_loop.key_resp.duration,instructions_2.started,instructions_2_text_1.started,instructions_2_text_2.started,key_resp_2.started,instructions_2.stopped,instructions_loop.key_resp_2.keys,instructions_loop.key_resp_2.rt,instructions_loop.key_resp_2.duration,instructions_3.started,instructions_3_text_1.started,r1_instr3.started,r2_instr3.started,r3_instr3.started,r1_instr3_label.started,r2_instr3_label.started,r3_instr3_label.started,instructions_3_text_3.started,instructions_3_text_4.started,key_resp_3.started,instructions_3.stopped,instructions_loop.key_resp_3.keys,instructions_loop.key_resp_3.rt,instructions_loop.key_resp_3.duration,instructions_4.started,instructions_4_text_1.started,instructions_4_text_3.started,instructions_4_text_2.started,key_resp_4.started,instructions_4.stopped,instructions_loop.key_resp_4.keys,instructions_loop.key_resp_4.rt,instructions_loop.key_resp_4.duration,instructions_5.started,instructions_5_text_1.started,instructions_5_text_2.started,key_resp_5.started,instructions_5.stopped,instructions_loop.key_resp_5.keys,instructions_loop.key_resp_5.rt,instructions_loop.key_resp_5.duration,start_exp.started,start_exp_text.started,key_resp_6.started,start_exp.stopped,key_resp_6.keys,key_resp_6.rt,key_resp_6.duration,h_1_tmp,w_1_tmp,h_2_tmp,w_2_tmp,h_3_tmp,w_3_tmp,config_tmp,config_tmp_1,r_1_x,r_1_y,r_2_x,r_2_y,r_3_x,r_3_y,pre_trial.started,pre_trial.stopped,choice_trial.started,rect_choice.started,r_1.started,r_2.started,r_3.started,r_1_label.started,r_2_label.started,r_3_label.started,prompt.started,choice_trial.stopped,trials.rect_choice.keys,trials.rect_choice.rt,trials.rect_choice.duration,end_block.started,end_block_text.started,end_block.stopped,end.started,end_text.started,key_resp_7.started,end.stopped,key_resp_7.keys,key_resp_7.rt,key_resp_7.duration,debriefing.started,debrief_form.started,end_debrief.started,debriefing.stopped,end_debrief.keys,end_debrief.rt,end_debrief.duration,participant,computer,date,expName,psychopyVersion,frameRate,expStart,
,,,,,,,,,,,,,,,,,,,,,,,,,,,,,,,0.01463770866394043,0.0349428653717041,0.0349428653717041,0.0349428653717041,0.014420509338378906,9.297838687896729,1,[9.260401010513306],[9.260424375534058],0,,,[-84.0],[-496.0],[1],[0],[0],[9.282680034637451],['agree_button'],,,,,,,,,,,,,,,,,,,,,,,,,,,,,,,,,,,,,,,,,,,,,,,,,,,,,,,,,,,,,,,,,,,,,,,,,,,,,,,,,,,,,,,,,,,,,,,,,,,,,,,,,,,,163,4,2025-02-28_13h27.22.845,comp,2024.2.4,56.512994082329996,2025-02-28 13h27.32.695410 -0500,
,,,,,,,,,,,,,,,,,,,,,,,,,,,,,,,,,,,,,,,,,,,,,,,,,,9.298397302627563,9.298465490341187,,,,,,,,,,,,,,,,,,,,,,,,,,,,,,,,,,,,,,,,,,,,,,,,,,,,,,,,,,,,,,,,,,,,,,,,,,,,,,,,,,,,,,,,,,,,,,,,,,,,,,,,,,163,4,2025-02-28_13h27.22.845,comp,2024.2.4,56.512994082329996,2025-02-28 13h27.32.695410 -0500,
,,,,,,,,,,,,,,,,,,,,,,,,,,,,,,,,,,,,,,,,,,,,,,,,,,,,9.298509120941162,9.31254768371582,11.31408953666687,11.29720950126648,,,,,,,,,,,,,,,,,,,,,,,,,,,,,,,,,,,,,,,,,,,,,,,,,,,,,,,,,,,,,,,,,,,,,,,,,,,,,,,,,,,,,,,,,,,,,,,,,,,,,,163,4,2025-02-28_13h27.22.845,comp,2024.2.4,56.512994082329996,2025-02-28 13h27.32.695410 -0500,
0,0,0,,,,,,,,,,,,,,,0,0,0,0,,,,,,,,,11.31408953666687,,,,,,,,,,,,,,,,,,,,,,,,,,,11.298100233078003,11.31408953666687,11.31408953666687,12.800959825515747,18.40360713005066,space,5.5964906215667725,None,18.403756141662598,18.419355154037476,18.419355154037476,19.915752172470093,27.421752452850342,space,7.497965097427368,None,27.421955585479736,27.45661759376526,27.45661759376526,27.45661759376526,27.45661759376526,27.45661759376526,27.45661759376526,27.45661759376526,27.45661759376526,27.45661759376526,28.924734830856323,36.465365409851074,space,7.528104066848755,None,36.46553826332092,36.482033014297485,36.482033014297485,36.482033014297485,37.96113348007202,48.48560643196106,space,10.516330480575562,None,48.48576641082764,48.503318309783936,48.503318309783936,49.99645209312439,53.848473072052,space,3.8485255241394043,None,53.84867334365845,53.86321759223938,53.86321759223938,55.9320125579834,space,2.062330961227417,None,,,,,,,,,,,,,,,,,,,,,,,,,,,,,,,,,,,,,,,,,,,,,,,163,4,2025-02-28_13h27.22.845,comp,2024.2.4,56.512994082329996,2025-02-28 13h27.32.695410 -0500,
0,0,0,critical,hwd,20.0,2.1,lower,133.0,57.0,57.0,133.0,78.0,78.0,2,10.537436723709106,None,,,,,0,0,0,0,0,0,0,18,56.012229919433594,,,,,,,,,,,,,,,,,,,,,,,,,,,,,,,,,,,,,,,,,,,,,,,,,,,,,,,,,,,,,,,,,,,,,,,,,,,,,,,,,,133.0,57.0,57.0,133.0,78.0,78.0,2.1,2.11,-191,283,0,259,202,-277,55.99487638473511,55.99492025375366,55.9966824054718,56.012229919433594,56.155540466308594,56.155540466308594,56.155540466308594,56.155540466308594,56.155540466308594,56.155540466308594,56.155540466308594,66.55901169776917,2,10.537436723709106,None,,,,,,,,,,,,,,,,,,163,4,2025-02-28_13h27.22.845,comp,2024.2.4,56.512994082329996,2025-02-28 13h27.32.695410 -0500,
1,1,0,critical,dhw,20.0,2.1,upper,141.0,141.0,200.0,125.0,125.0,200.0,3,11.640836954116821,None,,,,,0,0,0,0,0,1,1,27,66.5725347995758,,,,,,,,,,,,,,,,,,,,,,,,,,,,,,,,,,,,,,,,,,,,,,,,,,,,,,,,,,,,,,,,,,,,,,,,,,,,,,,,,,141.0,141.0,200.0,125.0,125.0,200.0,2.1,2.12,-229,-261,0,-271,258,277,66.56032752990723,66.56037831306458,66.56223464012146,66.5725347995758,66.71765303611755,66.71765303611755,66.71765303611755,66.71765303611755,66.71765303611755,66.71765303611755,66.71765303611755,78.2332763671875,3,11.640836954116821,None,,,,,,,,,,,,,,,,,,163,4,2025-02-28_13h27.22.845,comp,2024.2.4,56.512994082329996,2025-02-28 13h27.32.695410 -0500,
2,2,0,critical,hwd,20.0,1.0,upper,200.0,125.0,125.0,200.0,141.0,141.0,2,6.196843147277832,None,,,,,0,0,0,0,0,2,2,103,78.25020456314087,,,,,,,,,,,,,,,,,,,,,,,,,,,,,,,,,,,,,,,,,,,,,,,,,,,,,,,,,,,,,,,,,,,,,,,,,,,,,,,,,,200.0,125.0,125.0,200.0,141.0,141.0,1.0,1.3,222,-268,480,-251,746,-268,78.23476696014404,78.23484492301941,78.2376937866211,78.25020456314087,78.38769173622131,78.38769173622131,78.38769173622131,78.38769173622131,78.38769173622131,78.38769173622131,78.38769173622131,84.46549129486084,2,6.196843147277832,None,,,,,,,,,,,,,,,,,,163,4,2025-02-28_13h27.22.845,comp,2024.2.4,56.512994082329996,2025-02-28 13h27.32.695410 -0500,
3,3,0,filler_square,None,None,None,None,None,None,None,None,None,None,3,17.122938632965088,None,,,,,0,0,0,0,0,3,3,199,84.48264837265015,,,,,,,,,,,,,,,,,,,,,,,,,,,,,,,,,,,,,,,,,,,,,,,,,,,,,,,,,,,,,,,,,,,,,,,,,,,,,,,,,,60.06864152155149,58.08085369105258,76.6572324040408,76.6572324040408,76.63378213199641,74.96551282731973,2.1,2.11,-163,278,0,286,172,-262,84.46724605560303,84.46732449531555,84.47020077705383,84.48264837265015,84.62370252609253,84.62370252609253,84.62370252609253,84.62370252609253,84.62370252609253,84.62370252609253,84.62370252609253,101.61275386810303,3,17.122938632965088,None,,,,,,,,,,,,,,,,,,163,4,2025-02-28_13h27.22.845,comp,2024.2.4,56.512994082329996,2025-02-28 13h27.32.695410 -0500,
4,4,0,filler_square,None,None,None,None,None,None,None,None,None,None,3,1.7928576469421387,None,,,,,0,0,0,0,0,4,4,172,101.6286928653717,,,,,,,,,,,,,,,,,,,,,,,,,,,,,,,,,,,,,,,,,,,,,,,,,,,,,,,,,,,,,,,,,,,,,,,,,,,,,,,,,,88.53518402844887,80.13842356314898,106.95128638394254,106.98087872922522,123.16325950805826,123.16325950805826,2.1,2.12,-190,-258,0,-263,211,278,101.61458277702332,101.61465811729431,101.61803531646729,101.6286928653717,101.77891850471497,101.77891850471497,101.77891850471497,101.77891850471497,101.77891850471497,101.77891850471497,101.77891850471497,103.42911291122437,3,1.7928576469421387,None,,,,,,,,,,,,,,,,,,163,4,2025-02-28_13h27.22.845,comp,2024.2.4,56.512994082329996,2025-02-28 13h27.32.695410 -0500,
5,5,0,catch,None,None,None,None,None,None,None,None,None,None,2,1.6144537925720215,None,,,,,0,0,0,0,0,5,5,127,103.45442748069763,,,,,,,,,,,,,,,,,,,,,,,,,,,,,,,,,,,,,,,,,,,,,,,,,,,,,,,,,,,,,,,,,,,,,,,,,,,,,,,,,,118,72,173,152,93,97,2.1,2.11,-208,273,0,283,220,-287,103.43126559257507,103.43134570121765,103.43461728096008,103.45442748069763,103.59773230552673,103.59773230552673,103.59773230552673,103.59773230552673,103.59773230552673,103.59773230552673,103.59773230552673,105.07941460609436,2,1.6144537925720215,None,,,,,,,,,,,,,,,,,,163,4,2025-02-28_13h27.22.845,comp,2024.2.4,56.512994082329996,2025-02-28 13h27.32.695410 -0500,
6,6,0,filler_square,None,None,None,None,None,None,None,None,None,None,3,10.336514949798584,None,,,,,0,0,0,0,0,6,6,205,105.10043239593506,,,,,,,,,,,,,,,,,,,,,,,,,,,,,,,,,,,,,,,,,,,,,,,,,,,,,,,,,,,,,,,,,,,,,,,,,,,,,,,,,,144.3898804743198,144.3898804743198,116.13000685922174,121.9430290460931,122.7770465530482,137.62667485450612,2.2,2.22,-229,261,0,-287,226,-285,105.08143949508667,105.08151888847351,105.08477854728699,105.10043239593506,105.25148224830627,105.25148224830627,105.25148224830627,105.25148224830627,105.25148224830627,105.25148224830627,105.25148224830627,115.44724202156067,3,10.336514949798584,None,,,,,,,,,,,,,,,,,,163,4,2025-02-28_13h27.22.845,comp,2024.2.4,56.512994082329996,2025-02-28 13h27.32.695410 -0500,
7,7,0,filler_square,None,None,None,None,None,None,None,None,None,None,3,2.3822596073150635,None,,,,,0,0,0,0,0,7,7,170,115.46332383155823,,,,,,,,,,,,,,,,,,,,,,,,,,,,,,,,,,,,,,,,,,,,,,,,,,,,,,,,,,,,,,,,,,,,,,,,,,,,,,,,,,94.6038891830318,129.12746816783465,114.48410906493461,80.15690421039128,134.0411461177428,134.0411461177428,3.0,3.1,-201,262,0,3,203,-262,115.44921374320984,115.44931077957153,115.45247220993042,115.46332383155823,115.60077929496765,115.60077929496765,115.60077929496765,115.60077929496765,115.60077929496765,115.60077929496765,115.60077929496765,117.85146045684814,3,2.3822596073150635,None,,,,,,,,,,,,,,,,,,163,4,2025-02-28_13h27.22.845,comp,2024.2.4,56.512994082329996,2025-02-28 13h27.32.695410 -0500,
8,8,0,critical,wdh,35.0,2.1,upper,125.0,200.0,127.0,127.0,200.0,125.0,1,4.984951019287109,None,,,,,0,0,0,0,0,8,8,9,117.86803531646729,,,,,,,,,,,,,,,,,,,,,,,,,,,,,,,,,,,,,,,,,,,,,,,,,,,,,,,,,,,,,,,,,,,,,,,,,,,,,,,,,,125.0,200.0,127.0,127.0,200.0,125.0,2.1,2.12,-260,-283,0,-274,222,250,117.85311484336853,117.85319709777832,117.85733675956726,117.86803531646729,118.01661086082458,118.01661086082458,118.01661086082458,118.01661086082458,118.01661086082458,118.01661086082458,118.01661086082458,122.86934685707092,1,4.984951019287109,None,,,,,,,,,,,,,,,,,,163,4,2025-02-28_13h27.22.845,comp,2024.2.4,56.512994082329996,2025-02-28 13h27.32.695410 -0500,
9,9,0,filler_square,None,None,None,None,None,None,None,None,None,None,1,2.919708251953125,None,,,,,0,0,0,0,0,9,9,181,122.88533639907837,,,,,,,,,,,,,,,,,,,,,,,,,,,,,,,,,,,,,,,,,,,,,,,,,,,,,,,,,,,,,,,,,,,,,,,,,,,,,,,,,,177.7438829117519,177.7438829117519,70.42684014243392,166.67711291674382,147.11271666319908,152.17889053291958,2.2,2.21,-268,-262,0,271,255,281,122.87106418609619,122.87114310264587,122.8742344379425,122.88533639907837,123.0458128452301,123.0458128452301,123.0458128452301,123.0458128452301,123.0458128452301,123.0458128452301,123.0458128452301,125.82238745689392,1,2.919708251953125,None,,,,,,,,,,,,,,,,,,163,4,2025-02-28_13h27.22.845,comp,2024.2.4,56.512994082329996,2025-02-28 13h27.32.695410 -0500,
10,10,0,critical,hdw,35.0,3.0,lower,133.0,57.0,70.0,70.0,57.0,133.0,3,2.546661615371704,None,,,,,0,0,0,0,0,10,10,110,125.84238696098328,,,,,,,,,,,,,,,,,,,,,,,,,,,,,,,,,,,,,,,,,,,,,,,,,,,,,,,,,,,,,,,,,,,,,,,,,,,,,,,,,,133.0,57.0,70.0,70.0,57.0,133.0,3.0,3.1,-160,286,0,-14,198,-275,125.82391476631165,125.82399249076843,125.8271541595459,125.84238696098328,125.9870936870575,125.9870936870575,125.9870936870575,125.9870936870575,125.9870936870575,125.9870936870575,125.9870936870575,128.40740489959717,3,2.546661615371704,None,,,,,,,,,,,,,,,,,,163,4,2025-02-28_13h27.22.845,comp,2024.2.4,56.512994082329996,2025-02-28 13h27.32.695410 -0500,
11,11,0,filler_square,None,None,None,None,None,None,None,None,None,None,1,1.3462128639221191,None,,,,,0,0,0,0,0,11,11,194,128.4268283843994,,,,,,,,,,,,,,,,,,,,,,,,,,,,,,,,,,,,,,,,,,,,,,,,,,,,,,,,,,,,,,,,,,,,,,,,,,,,,,,,,,141.24575186533735,141.24575186533735,69.35894815085075,71.08197883155708,61.014087069371975,61.816084303942766,3.0,3.2,-202,-260,0,-11,162,264,128.40931296348572,128.40939331054688,128.41252756118774,128.4268283843994,128.5719039440155,128.5719039440155,128.5719039440155,128.5719039440155,128.5719039440155,128.5719039440155,128.5719039440155,129.79054713249207,1,1.3462128639221191,None,,,,,,,,,,,,,,,,,,163,4,2025-02-28_13h27.22.845,comp,2024.2.4,56.512994082329996,2025-02-28 13h27.32.695410 -0500,
12,12,0,filler_square,None,None,None,None,None,None,None,None,None,None,1,2.885592222213745,None,,,,,0,0,0,0,0,12,12,180,129.8074026107788,,,,,,,,,,,,,,,,,,,,,,,,,,,,,,,,,,,,,,,,,,,,,,,,,,,,,,,,,,,,,,,,,,,,,,,,,,,,,,,,,,100.52327362443745,100.52327362443745,64.93881644147339,94.44244754056247,93.14068110259012,66.09500007354248,4.0,4.2,-193,-6,0,-270,176,7,129.7924952507019,129.79257440567017,129.79647636413574,129.8074026107788,129.95595693588257,129.95595693588257,129.95595693588257,129.95595693588257,129.95595693588257,129.95595693588257,129.95595693588257,132.70726704597473,1,2.885592222213745,None,,,,,,,,,,,,,,,,,,163,4,2025-02-28_13h27.22.845,comp,2024.2.4,56.512994082329996,2025-02-28 13h27.32.695410 -0500,
13,13,0,critical,hwd,20.0,4.0,lower,133.0,57.0,57.0,133.0,78.0,78.0,2,6.111457824707031,None,,,,,0,0,0,0,0,13,13,106,132.72590470314026,,,,,,,,,,,,,,,,,,,,,,,,,,,,,,,,,,,,,,,,,,,,,,,,,,,,,,,,,,,,,,,,,,,,,,,,,,,,,,,,,,133.0,57.0,57.0,133.0,78.0,78.0,4.0,4.2,-191,-3,0,-286,202,-2,132.70900511741638,132.70912528038025,132.71247506141663,132.72590470314026,132.873140335083,132.873140335083,132.873140335083,132.873140335083,132.873140335083,132.873140335083,132.873140335083,138.8402705192566,2,6.111457824707031,None,,,,,,,,,,,,,,,,,,163,4,2025-02-28_13h27.22.845,comp,2024.2.4,56.512994082329996,2025-02-28 13h27.32.695410 -0500,
14,14,0,critical,dwh,20.0,2.1,upper,141.0,141.0,125.0,200.0,200.0,125.0,3,5.483752727508545,None,,,,,0,0,0,0,0,14,14,31,138.85726380348206,,,,,,,,,,,,,,,,,,,,,,,,,,,,,,,,,,,,,,,,,,,,,,,,,,,,,,,,,,,,,,,,,,,,,,,,,,,,,,,,,,141.0,141.0,125.0,200.0,200.0,125.0,2.1,2.12,-266,-268,0,-258,258,264,138.84184646606445,138.84199595451355,138.8453984260559,138.85726380348206,139.00806498527527,139.00806498527527,139.00806498527527,139.00806498527527,139.00806498527527,139.00806498527527,139.00806498527527,144.35877442359924,3,5.483752727508545,None,,,,,,,,,,,,,,,,,,163,4,2025-02-28_13h27.22.845,comp,2024.2.4,56.512994082329996,2025-02-28 13h27.32.695410 -0500,
15,15,0,critical,hwd,35.0,2.1,lower,133.0,57.0,57.0,133.0,70.0,70.0,2,9.582519292831421,None,,,,,0,0,0,0,0,15,15,16,144.37481951713562,,,,,,,,,,,,,,,,,,,,,,,,,,,,,,,,,,,,,,,,,,,,,,,,,,,,,,,,,,,,,,,,,,,,,,,,,,,,,,,,,,133.0,57.0,57.0,133.0,70.0,70.0,2.1,2.11,-191,260,0,282,198,-278,144.36030077934265,144.36037588119507,144.3635070323944,144.37481951713562,144.51170802116394,144.51170802116394,144.51170802116394,144.51170802116394,144.51170802116394,144.51170802116394,144.51170802116394,153.96422505378723,2,9.582519292831421,None,,,,,,,,,,,,,,,,,,163,4,2025-02-28_13h27.22.845,comp,2024.2.4,56.512994082329996,2025-02-28 13h27.32.695410 -0500,
16,16,0,critical,hwd,20.0,3.0,lower,133.0,57.0,57.0,133.0,78.0,78.0,2,2.383310079574585,None,,,,,0,0,0,0,0,16,16,104,153.98171210289001,,,,,,,,,,,,,,,,,,,,,,,,,,,,,,,,,,,,,,,,,,,,,,,,,,,,,,,,,,,,,,,,,,,,,,,,,,,,,,,,,,133.0,57.0,57.0,133.0,78.0,78.0,3.0,3.2,-191,-283,0,16,202,281,153.9656846523285,153.96576380729675,153.96865320205688,153.98171210289001,154.12824130058289,154.12824130058289,154.12824130058289,154.12824130058289,154.12824130058289,154.12824130058289,154.12824130058289,156.37734270095825,2,2.383310079574585,None,,,,,,,,,,,,,,,,,,163,4,2025-02-28_13h27.22.845,comp,2024.2.4,56.512994082329996,2025-02-28 13h27.32.695410 -0500,
17,17,0,critical,dhw,20.0,1.0,lower,78.0,78.0,133.0,57.0,57.0,133.0,3,4.971649646759033,None,,,,,0,0,0,0,0,17,17,54,156.3934030532837,,,,,,,,,,,,,,,,,,,,,,,,,,,,,,,,,,,,,,,,,,,,,,,,,,,,,,,,,,,,,,,,,,,,,,,,,,,,,,,,,,78.0,78.0,133.0,57.0,57.0,133.0,1.0,1.1,-644,258,-480,264,-289,264,156.37901782989502,156.37913942337036,156.38247919082642,156.3934030532837,156.5487883090973,156.5487883090973,156.5487883090973,156.5487883090973,156.5487883090973,156.5487883090973,156.5487883090973,161.38068413734436,3,4.971649646759033,None,,,,,,,,,,,,,,,,,,163,4,2025-02-28_13h27.22.845,comp,2024.2.4,56.512994082329996,2025-02-28 13h27.32.695410 -0500,
18,18,0,catch,None,None,None,None,None,None,None,None,None,None,1,1.4235858917236328,None,,,,,0,0,0,0,0,18,18,123,161.39745020866394,,,,,,,,,,,,,,,,,,,,,,,,,,,,,,,,,,,,,,,,,,,,,,,,,,,,,,,,,,,,,,,,,,,,,,,,,,,,,,,,,,154,171,65,125,98,92,4.0,4.2,-244,13,0,-253,204,-20,161.3828523159027,161.38299679756165,161.38623428344727,161.39745020866394,161.55168509483337,161.55168509483337,161.55168509483337,161.55168509483337,161.55168509483337,161.55168509483337,161.55168509483337,162.83377385139465,1,1.4235858917236328,None,,,,,,,,,,,,,,,,,,163,4,2025-02-28_13h27.22.845,comp,2024.2.4,56.512994082329996,2025-02-28 13h27.32.695410 -0500,
19,19,0,filler_square,None,None,None,None,None,None,None,None,None,None,3,1.148324966430664,None,,,,,0,0,0,0,0,19,19,190,162.84936618804932,,,,,,,,,,,,,,,,,,,,,,,,,,,,,,,,,,,,,,,,,,,,,,,,,,,,,,,,,,,,,,,,,,,,,,,,,,,,,,,,,,99.44319795597367,57.21059148850754,113.49763605415154,60.09780751462278,146.23952429624177,146.23952429624177,2.2,2.22,-155,261,0,-280,199,-261,162.83580231666565,162.83592796325684,162.83908438682556,162.84936618804932,162.99866604804993,162.99866604804993,162.99866604804993,162.99866604804993,162.99866604804993,162.99866604804993,162.99866604804993,164.00144481658936,3,1.148324966430664,None,,,,,,,,,,,,,,,,,,163,4,2025-02-28_13h27.22.845,comp,2024.2.4,56.512994082329996,2025-02-28 13h27.32.695410 -0500,
20,20,0,filler_square,None,None,None,None,None,None,None,None,None,None,2,1.1870534420013428,None,,,,,0,0,0,0,0,20,20,208,164.01795649528503,,,,,,,,,,,,,,,,,,,,,,,,,,,,,,,,,,,,,,,,,,,,,,,,,,,,,,,,,,,,,,,,,,,,,,,,,,,,,,,,,,88.73006497923593,83.64562372015806,97.1083610882273,97.1083610882273,70.99554319220528,70.42210677571457,2.2,2.22,-186,268,0,-285,180,-277,164.00341391563416,164.00349521636963,164.0073595046997,164.01795649528503,164.1656789779663,164.1656789779663,164.1656789779663,164.1656789779663,164.1656789779663,164.1656789779663,164.1656789779663,165.2151439189911,2,1.1870534420013428,None,,,,,,,,,,,,,,,,,,163,4,2025-02-28_13h27.22.845,comp,2024.2.4,56.512994082329996,2025-02-28 13h27.32.695410 -0500,
21,21,0,critical,whd,35.0,2.1,lower,57.0,133.0,133.0,57.0,70.0,70.0,2,11.44524097442627,None,,,,,0,0,0,0,0,21,21,36,165.23290038108826,,,,,,,,,,,,,,,,,,,,,,,,,,,,,,,,,,,,,,,,,,,,,,,,,,,,,,,,,,,,,,,,,,,,,,,,,,,,,,,,,,57.0,133.0,133.0,57.0,70.0,70.0,2.1,2.12,-191,-263,0,-287,160,257,165.2166519165039,165.21673250198364,165.219735622406,165.23290038108826,165.38495564460754,165.38495564460754,165.38495564460754,165.38495564460754,165.38495564460754,165.38495564460754,165.38495564460754,176.6854043006897,2,11.44524097442627,None,,,,,,,,,,,,,,,,,,163,4,2025-02-28_13h27.22.845,comp,2024.2.4,56.512994082329996,2025-02-28 13h27.32.695410 -0500,
22,22,0,critical,wdh,35.0,2.1,upper,125.0,200.0,127.0,127.0,200.0,125.0,1,3.1957602500915527,None,,,,,0,0,0,0,0,22,22,33,176.7054831981659,,,,,,,,,,,,,,,,,,,,,,,,,,,,,,,,,,,,,,,,,,,,,,,,,,,,,,,,,,,,,,,,,,,,,,,,,,,,,,,,,,125.0,200.0,127.0,127.0,200.0,125.0,2.1,2.11,-260,274,0,273,222,-265,176.68698930740356,176.68706631660461,176.69034123420715,176.7054831981659,176.8529510498047,176.8529510498047,176.8529510498047,176.8529510498047,176.8529510498047,176.8529510498047,176.8529510498047,179.90389037132263,1,3.1957602500915527,None,,,,,,,,,,,,,,,,,,163,4,2025-02-28_13h27.22.845,comp,2024.2.4,56.512994082329996,2025-02-28 13h27.32.695410 -0500,
23,23,0,filler_random,None,None,None,None,None,None,None,None,None,None,1,1.3106129169464111,None,,,,,0,0,0,0,0,23,23,164,179.91981720924377,,,,,,,,,,,,,,,,,,,,,,,,,,,,,,,,,,,,,,,,,,,,,,,,,,,,,,,,,,,,,,,,,,,,,,,,,,,,,,,,,,105.68765607737396,137.94787074176818,102.35169979858634,69.53640616160324,72.08784896931752,82.8241199890366,1.0,1.2,-200,9,0,-13,172,6,179.90563893318176,179.90571975708008,179.9091556072235,179.91981720924377,180.07776260375977,180.07776260375977,180.07776260375977,180.07776260375977,180.07776260375977,180.07776260375977,180.07776260375977,181.2391631603241,1,1.3106129169464111,None,,,,,,,,,,,,,,,,,,163,4,2025-02-28_13h27.22.845,comp,2024.2.4,56.512994082329996,2025-02-28 13h27.32.695410 -0500,
24,24,0,critical,dhw,20.0,2.1,lower,78.0,78.0,133.0,57.0,57.0,133.0,3,3.5413224697113037,None,,,,,0,0,0,0,0,24,24,26,181.2558205127716,,,,,,,,,,,,,,,,,,,,,,,,,,,,,,,,,,,,,,,,,,,,,,,,,,,,,,,,,,,,,,,,,,,,,,,,,,,,,,,,,,78.0,78.0,133.0,57.0,57.0,133.0,2.1,2.12,-164,-285,0,-272,191,274,181.24103927612305,181.24118065834045,181.24510145187378,181.2558205127716,181.39658498764038,181.39658498764038,181.39658498764038,181.39658498764038,181.39658498764038,181.39658498764038,181.39658498764038,184.8077757358551,3,3.5413224697113037,None,,,,,,,,,,,,,,,,,,163,4,2025-02-28_13h27.22.845,comp,2024.2.4,56.512994082329996,2025-02-28 13h27.32.695410 -0500,
25,25,0,filler_random,None,None,None,None,None,None,None,None,None,None,3,1.0449049472808838,None,,,,,0,0,0,0,0,25,25,149,184.82453036308289,,,,,,,,,,,,,,,,,,,,,,,,,,,,,,,,,,,,,,,,,,,,,,,,,,,,,,,,,,,,,,,,,,,,,,,,,,,,,,,,,,87.51028390406276,103.81486906710452,109.28618690170268,57.34710889395939,195.53115776813345,177.31646723223338,2.2,2.21,-177,-258,0,257,213,278,184.80961513519287,184.80969834327698,184.81327199935913,184.82453036308289,184.96546745300293,184.96546745300293,184.96546745300293,184.96546745300293,184.96546745300293,184.96546745300293,184.96546745300293,185.87170433998108,3,1.0449049472808838,None,,,,,,,,,,,,,,,,,,163,4,2025-02-28_13h27.22.845,comp,2024.2.4,56.512994082329996,2025-02-28 13h27.32.695410 -0500,
26,26,0,critical,whd,35.0,1.0,lower,57.0,133.0,133.0,57.0,70.0,70.0,1,7.1734092235565186,None,,,,,0,0,0,0,0,26,26,84,185.8877670764923,,,,,,,,,,,,,,,,,,,,,,,,,,,,,,,,,,,,,,,,,,,,,,,,,,,,,,,,,,,,,,,,,,,,,,,,,,,,,,,,,,57.0,133.0,133.0,57.0,70.0,70.0,1.0,1.3,289,-266,480,-266,640,-264,185.87319946289062,185.873277425766,185.87626338005066,185.8877670764923,186.03896713256836,186.03896713256836,186.03896713256836,186.03896713256836,186.03896713256836,186.03896713256836,186.03896713256836,193.07475018501282,1,7.1734092235565186,None,,,,,,,,,,,,,,,,,,163,4,2025-02-28_13h27.22.845,comp,2024.2.4,56.512994082329996,2025-02-28 13h27.32.695410 -0500,
27,27,0,critical,wdh,35.0,4.0,upper,125.0,200.0,127.0,127.0,200.0,125.0,1,3.899120569229126,None,,,,,0,0,0,0,0,27,27,77,193.09003257751465,,,,,,,,,,,,,,,,,,,,,,,,,,,,,,,,,,,,,,,,,,,,,,,,,,,,,,,,,,,,,,,,,,,,,,,,,,,,,,,,,,125.0,200.0,127.0,127.0,200.0,125.0,4.0,4.2,-260,13,0,-261,222,13,193.0763008594513,193.07637739181519,193.0797827243805,193.09003257751465,193.24064874649048,193.24064874649048,193.24064874649048,193.24064874649048,193.24064874649048,193.24064874649048,193.24064874649048,197.00257563591003,1,3.899120569229126,None,,,,,,,,,,,,,,,,,,163,4,2025-02-28_13h27.22.845,comp,2024.2.4,56.512994082329996,2025-02-28 13h27.32.695410 -0500,
28,28,0,critical,dwh,20.0,2.1,lower,78.0,78.0,57.0,133.0,133.0,57.0,3,6.7527101039886475,None,,,,,0,0,0,0,0,28,28,6,197.02066206932068,,,,,,,,,,,,,,,,,,,,,,,,,,,,,,,,,,,,,,,,,,,,,,,,,,,,,,,,,,,,,,,,,,,,,,,,,,,,,,,,,,78.0,78.0,57.0,133.0,133.0,57.0,2.1,2.11,-202,261,0,250,191,-279,197.0042543411255,197.00437545776367,197.00773763656616,197.02066206932068,197.15961837768555,197.15961837768555,197.15961837768555,197.15961837768555,197.15961837768555,197.15961837768555,197.15961837768555,203.7801012992859,3,6.7527101039886475,None,,,,,,,,,,,,,,,,,,163,4,2025-02-28_13h27.22.845,comp,2024.2.4,56.512994082329996,2025-02-28 13h27.32.695410 -0500,
29,29,0,critical,dwh,35.0,3.0,upper,127.0,127.0,125.0,200.0,200.0,125.0,2,1.7027318477630615,None,,,,,0,0,0,0,0,29,29,63,203.79829597473145,,,,,,,,,,,,,,,,,,,,,,,,,,,,,,,,,,,,,,,,,,,,,,,,,,,,,,,,,,,,,,,,,,,,,,,,,,,,,,,,,,127.0,127.0,125.0,200.0,200.0,125.0,3.0,3.2,-260,-254,0,11,258,271,203.78174924850464,203.78190970420837,203.78523063659668,203.79829597473145,203.94382977485657,203.94382977485657,203.94382977485657,203.94382977485657,203.94382977485657,203.94382977485657,203.94382977485657,205.5137939453125,2,1.7027318477630615,None,,,,,,,,,,,,,,,,,,163,4,2025-02-28_13h27.22.845,comp,2024.2.4,56.512994082329996,2025-02-28 13h27.32.695410 -0500,
30,30,0,filler_random,None,None,None,None,None,None,None,None,None,None,1,4.329900503158569,None,,,,,0,0,0,0,0,30,30,159,205.5314826965332,,,,,,,,,,,,,,,,,,,,,,,,,,,,,,,,,,,,,,,,,,,,,,,,,,,,,,,,,,,,,,,,,,,,,,,,,,,,,,,,,,128.57186410806202,138.08962931253365,193.26046623817453,71.68622524092407,117.50156564380787,123.46658487417028,2.1,2.12,-201,-276,0,-254,194,267,205.5154914855957,205.51556944847107,205.51846432685852,205.5314826965332,205.6772494316101,205.6772494316101,205.6772494316101,205.6772494316101,205.6772494316101,205.6772494316101,205.6772494316101,209.88210797309875,1,4.329900503158569,None,,,,,,,,,,,,,,,,,,163,4,2025-02-28_13h27.22.845,comp,2024.2.4,56.512994082329996,2025-02-28 13h27.32.695410 -0500,
31,31,0,filler_square,None,None,None,None,None,None,None,None,None,None,3,5.200782537460327,None,,,,,0,0,0,0,0,31,31,179,209.90027284622192,,,,,,,,,,,,,,,,,,,,,,,,,,,,,,,,,,,,,,,,,,,,,,,,,,,,,,,,,,,,,,,,,,,,,,,,,,,,,,,,,,79.08502319106734,78.55703714324054,66.40989872370822,59.306556180259406,80.06220275816281,80.06220275816281,3.0,3.2,-165,-282,0,-5,166,283,209.88405966758728,209.88414192199707,209.88784003257751,209.90027284622192,210.04664516448975,210.04664516448975,210.04664516448975,210.04664516448975,210.04664516448975,210.04664516448975,210.04664516448975,215.114107131958,3,5.200782537460327,None,,,,,,,,,,,,,,,,,,163,4,2025-02-28_13h27.22.845,comp,2024.2.4,56.512994082329996,2025-02-28 13h27.32.695410 -0500,
32,32,0,filler_random,None,None,None,None,None,None,None,None,None,None,3,2.731257200241089,None,,,,,0,0,0,0,0,32,32,155,215.13037514686584,,,,,,,,,,,,,,,,,,,,,,,,,,,,,,,,,,,,,,,,,,,,,,,,,,,,,,,,,,,,,,,,,,,,,,,,,,,,,,,,,,59.122861632203055,197.17062529729557,65.00677563854202,127.8392226402124,151.92894848228968,121.97514941949363,2.1,2.12,-259,-263,0,-272,221,274,215.11601519584656,215.11615133285522,215.12004613876343,215.13037514686584,215.27941179275513,215.27941179275513,215.27941179275513,215.27941179275513,215.27941179275513,215.27941179275513,215.27941179275513,217.86699318885803,3,2.731257200241089,None,,,,,,,,,,,,,,,,,,163,4,2025-02-28_13h27.22.845,comp,2024.2.4,56.512994082329996,2025-02-28 13h27.32.695410 -0500,
33,33,0,filler_square,None,None,None,None,None,None,None,None,None,None,3,3.6027047634124756,None,,,,,0,0,0,0,0,33,33,193,217.8828935623169,,,,,,,,,,,,,,,,,,,,,,,,,,,,,,,,,,,,,,,,,,,,,,,,,,,,,,,,,,,,,,,,,,,,,,,,,,,,,,,,,,162.12077894915365,129.3811348252888,145.74810421882347,154.2398414306187,171.90464631624474,171.90464631624474,4.0,4.2,-238,-20,0,-275,259,-12,217.86874628067017,217.86884999275208,217.8722207546234,217.8828935623169,218.03278732299805,218.03278732299805,218.03278732299805,218.03278732299805,218.03278732299805,218.03278732299805,218.03278732299805,221.49215698242188,3,3.6027047634124756,None,,,,,,,,,,,,,,,,,,163,4,2025-02-28_13h27.22.845,comp,2024.2.4,56.512994082329996,2025-02-28 13h27.32.695410 -0500,
34,34,0,filler_random,None,None,None,None,None,None,None,None,None,None,1,10.620951175689697,None,,,,,0,0,0,0,0,34,34,163,221.51256680488586,,,,,,,,,,,,,,,,,,,,,,,,,,,,,,,,,,,,,,,,,,,,,,,,,,,,,,,,,,,,,,,,,,,,,,,,,,,,,,,,,,159.5609554926002,101.74757194623476,139.8671096287214,100.31641163052169,91.6474936125577,142.49973614991472,2.2,2.21,-197,-258,0,267,217,276,221.49384355545044,221.49394750595093,221.49682688713074,221.51256680488586,221.64866614341736,221.64866614341736,221.64866614341736,221.64866614341736,221.64866614341736,221.64866614341736,221.64866614341736,232.1396050453186,1,10.620951175689697,None,,,,,,,,,,,,,,,,,,163,4,2025-02-28_13h27.22.845,comp,2024.2.4,56.512994082329996,2025-02-28 13h27.32.695410 -0500,
35,35,0,critical,dwh,35.0,4.0,lower,70.0,70.0,57.0,133.0,133.0,57.0,2,8.261103630065918,None,,,,,0,0,0,0,0,35,35,64,232.15995264053345,,,,,,,,,,,,,,,,,,,,,,,,,,,,,,,,,,,,,,,,,,,,,,,,,,,,,,,,,,,,,,,,,,,,,,,,,,,,,,,,,,70.0,70.0,57.0,133.0,133.0,57.0,4.0,4.2,-198,4,0,-264,191,-6,232.14135193824768,232.14143204689026,232.1443269252777,232.15995264053345,232.31314158439636,232.31314158439636,232.31314158439636,232.31314158439636,232.31314158439636,232.31314158439636,232.31314158439636,240.43835139274597,2,8.261103630065918,None,,,,,,,,,,,,,,,,,,163,4,2025-02-28_13h27.22.845,comp,2024.2.4,56.512994082329996,2025-02-28 13h27.32.695410 -0500,
36,36,0,critical,hwd,35.0,3.0,lower,133.0,57.0,57.0,133.0,70.0,70.0,2,15.29474139213562,None,,,,,0,0,0,0,0,36,36,98,240.45438504219055,,,,,,,,,,,,,,,,,,,,,,,,,,,,,,,,,,,,,,,,,,,,,,,,,,,,,,,,,,,,,,,,,,,,,,,,,,,,,,,,,,133.0,57.0,57.0,133.0,70.0,70.0,3.0,3.1,-191,278,0,-12,198,-273,240.4399745464325,240.44005298614502,240.44337725639343,240.45438504219055,240.60556054115295,240.60556054115295,240.60556054115295,240.60556054115295,240.60556054115295,240.60556054115295,240.60556054115295,255.76000905036926,2,15.29474139213562,None,,,,,,,,,,,,,,,,,,163,4,2025-02-28_13h27.22.845,comp,2024.2.4,56.512994082329996,2025-02-28 13h27.32.695410 -0500,
37,37,0,filler_random,None,None,None,None,None,None,None,None,None,None,2,2.1167948246002197,None,,,,,0,0,0,0,0,37,37,134,255.7764344215393,,,,,,,,,,,,,,,,,,,,,,,,,,,,,,,,,,,,,,,,,,,,,,,,,,,,,,,,,,,,,,,,,,,,,,,,,,,,,,,,,,136.6606355580774,140.99823718636722,170.96634074764074,147.9326239293527,182.5333416039217,87.47512168959516,3.0,3.1,-240,251,0,-6,214,-255,255.76169800758362,255.7617790699005,255.76500153541565,255.7764344215393,255.92506384849548,255.92506384849548,255.92506384849548,255.92506384849548,255.92506384849548,255.92506384849548,255.92506384849548,257.89596247673035,2,2.1167948246002197,None,,,,,,,,,,,,,,,,,,163,4,2025-02-28_13h27.22.845,comp,2024.2.4,56.512994082329996,2025-02-28 13h27.32.695410 -0500,
38,38,0,critical,dwh,20.0,4.0,upper,141.0,141.0,125.0,200.0,200.0,125.0,3,4.531482934951782,None,,,,,0,0,0,0,0,38,38,71,257.91371488571167,,,,,,,,,,,,,,,,,,,,,,,,,,,,,,,,,,,,,,,,,,,,,,,,,,,,,,,,,,,,,,,,,,,,,,,,,,,,,,,,,,141.0,141.0,125.0,200.0,200.0,125.0,4.0,4.2,-266,11,0,-263,258,0,257.8974640369415,257.8975439071655,257.9007399082184,257.91371488571167,258.0618522167206,258.0618522167206,258.0618522167206,258.0618522167206,258.0618522167206,258.0618522167206,258.0618522167206,262.4626989364624,3,4.531482934951782,None,,,,,,,,,,,,,,,,,,163,4,2025-02-28_13h27.22.845,comp,2024.2.4,56.512994082329996,2025-02-28 13h27.32.695410 -0500,
39,39,0,filler_random,None,None,None,None,None,None,None,None,None,None,1,2.8387386798858643,None,,,,,0,0,0,0,0,39,39,157,262.47862792015076,,,,,,,,,,,,,,,,,,,,,,,,,,,,,,,,,,,,,,,,,,,,,,,,,,,,,,,,,,,,,,,,,,,,,,,,,,,,,,,,,,129.20297273432521,134.33054351342992,89.01072511100696,117.29320393646043,117.9819000807627,86.1155396256211,4.0,4.2,-222,-9,0,-269,198,-7,262.46435928344727,262.46443700790405,262.4675204753876,262.47862792015076,262.6297092437744,262.6297092437744,262.6297092437744,262.6297092437744,262.6297092437744,262.6297092437744,262.6297092437744,265.33899211883545,1,2.8387386798858643,None,,,,,,,,,,,,,,,,,,163,4,2025-02-28_13h27.22.845,comp,2024.2.4,56.512994082329996,2025-02-28 13h27.32.695410 -0500,
40,40,0,critical,dwh,35.0,1.0,lower,70.0,70.0,57.0,133.0,133.0,57.0,3,21.990845203399658,None,,,,,0,0,0,0,0,40,40,60,265.35871624946594,,,,,,,,,,,,,,,,,,,,,,,,,,,,,,,,,,,,,,,,,,,,,,,,,,,,,,,,,,,,,,,,,,,,,,,,,,,,,,,,,,70.0,70.0,57.0,133.0,133.0,57.0,1.0,1.1,-678,260,-480,275,-289,285,265.3405158519745,265.34059143066406,265.3434474468231,265.35871624946594,265.4981441497803,265.4981441497803,265.4981441497803,265.4981441497803,265.4981441497803,265.4981441497803,265.4981441497803,287.3543577194214,3,21.990845203399658,None,,,,,,,,,,,,,,,,,,163,4,2025-02-28_13h27.22.845,comp,2024.2.4,56.512994082329996,2025-02-28 13h27.32.695410 -0500,
41,41,0,filler_random,None,None,None,None,None,None,None,None,None,None,2,3.2673685550689697,None,,,,,0,0,0,0,0,41,41,152,287.37024760246277,,,,,,,,,,,,,,,,,,,,,,,,,,,,,,,,,,,,,,,,,,,,,,,,,,,,,,,,,,,,,,,,,,,,,,,,,,,,,,,,,,95.59323763176431,84.32717003279191,144.67764506530284,181.41817839749427,121.53409711327582,164.42895422973862,4.0,4.1,-229,-260,0,2,269,-283,287.35600996017456,287.3560903072357,287.35944271087646,287.37024760246277,287.5235104560852,287.5235104560852,287.5235104560852,287.5235104560852,287.5235104560852,287.5235104560852,287.5235104560852,290.6421003341675,2,3.2673685550689697,None,,,,,,,,,,,,,,,,,,163,4,2025-02-28_13h27.22.845,comp,2024.2.4,56.512994082329996,2025-02-28 13h27.32.695410 -0500,
42,42,0,filler_square,None,None,None,None,None,None,None,None,None,None,3,4.814229488372803,None,,,,,0,0,0,0,0,42,42,192,290.6629421710968,,,,,,,,,,,,,,,,,,,,,,,,,,,,,,,,,,,,,,,,,,,,,,,,,,,,,,,,,,,,,,,,,,,,,,,,,,,,,,,,,,61.82956810304255,59.58516561670008,66.14763572795721,66.14763572795721,64.84262664580996,59.76545950177335,4.0,4.1,-159,-269,0,-11,159,-255,290.644394159317,290.6444787979126,290.6475119590759,290.6629421710968,290.80537605285645,290.80537605285645,290.80537605285645,290.80537605285645,290.80537605285645,290.80537605285645,290.80537605285645,295.49264311790466,3,4.814229488372803,None,,,,,,,,,,,,,,,,,,163,4,2025-02-28_13h27.22.845,comp,2024.2.4,56.512994082329996,2025-02-28 13h27.32.695410 -0500,
43,43,0,filler_square,None,None,None,None,None,None,None,None,None,None,1,3.5996103286743164,None,,,,,0,0,0,0,0,43,43,173,295.509574174881,,,,,,,,,,,,,,,,,,,,,,,,,,,,,,,,,,,,,,,,,,,,,,,,,,,,,,,,,,,,,,,,,,,,,,,,,,,,,,,,,,193.636636389599,193.636636389599,88.95890825744556,148.79074114116685,162.65957807666868,134.50481921694092,2.2,2.22,-267,272,0,-287,238,-265,295.49482107162476,295.4949324131012,295.49843072891235,295.509574174881,295.65705275535583,295.65705275535583,295.65705275535583,295.65705275535583,295.65705275535583,295.65705275535583,295.65705275535583,299.1241068840027,1,3.5996103286743164,None,,,,,,,,,,,,,,,,,,163,4,2025-02-28_13h27.22.845,comp,2024.2.4,56.512994082329996,2025-02-28 13h27.32.695410 -0500,
44,44,0,catch,None,None,None,None,None,None,None,None,None,None,2,1.6882085800170898,None,,,,,0,0,0,0,0,44,44,128,299.14108896255493,,,,,,,,,,,,,,,,,,,,,,,,,,,,,,,,,,,,,,,,,,,,,,,,,,,,,,,,,,,,,,,,,,,,,,,,,,,,,,,,,,89,101,183,142,84,106,2.1,2.11,-218,280,0,284,220,-259,299.1261956691742,299.1262757778168,299.12983798980713,299.14108896255493,299.3029227256775,299.3029227256775,299.3029227256775,299.3029227256775,299.3029227256775,299.3029227256775,299.3029227256775,300.84117007255554,2,1.6882085800170898,None,,,,,,,,,,,,,,,,,,163,4,2025-02-28_13h27.22.845,comp,2024.2.4,56.512994082329996,2025-02-28 13h27.32.695410 -0500,
45,45,0,critical,dwh,35.0,2.1,upper,127.0,127.0,125.0,200.0,200.0,125.0,2,3.3317739963531494,None,,,,,0,0,0,0,0,45,45,29,300.85744881629944,,,,,,,,,,,,,,,,,,,,,,,,,,,,,,,,,,,,,,,,,,,,,,,,,,,,,,,,,,,,,,,,,,,,,,,,,,,,,,,,,,127.0,127.0,125.0,200.0,200.0,125.0,2.1,2.11,-260,262,0,276,258,-282,300.8426547050476,300.8427336215973,300.8460202217102,300.85744881629944,301.0095179080963,301.0095179080963,301.0095179080963,301.0095179080963,301.0095179080963,301.0095179080963,301.0095179080963,304.2003149986267,2,3.3317739963531494,None,,,,,,,,,,,,,,,,,,163,4,2025-02-28_13h27.22.845,comp,2024.2.4,56.512994082329996,2025-02-28 13h27.32.695410 -0500,
46,46,0,critical,wdh,20.0,2.1,upper,125.0,200.0,141.0,141.0,200.0,125.0,1,8.940828323364258,None,,,,,0,0,0,0,0,46,46,35,304.21631479263306,,,,,,,,,,,,,,,,,,,,,,,,,,,,,,,,,,,,,,,,,,,,,,,,,,,,,,,,,,,,,,,,,,,,,,,,,,,,,,,,,,125.0,200.0,141.0,141.0,200.0,125.0,2.1,2.12,-266,-267,0,-264,229,260,304.20194029808044,304.2020437717438,304.2054069042206,304.21631479263306,304.35953068733215,304.35953068733215,304.35953068733215,304.35953068733215,304.35953068733215,304.35953068733215,304.35953068733215,313.17044019699097,1,8.940828323364258,None,,,,,,,,,,,,,,,,,,163,4,2025-02-28_13h27.22.845,comp,2024.2.4,56.512994082329996,2025-02-28 13h27.32.695410 -0500,
47,47,0,filler_random,None,None,None,None,None,None,None,None,None,None,1,2.802478313446045,None,,,,,0,0,0,0,0,47,47,141,313.18819403648376,,,,,,,,,,,,,,,,,,,,,,,,,,,,,,,,,,,,,,,,,,,,,,,,,,,,,,,,,,,,,,,,,,,,,,,,,,,,,,,,,,115.54853860744514,130.26139764631927,65.67922326051443,160.53255717446834,70.7808366389956,99.08609991111477,2.1,2.11,-241,278,0,255,226,-275,313.1721692085266,313.17224621772766,313.17508935928345,313.18819403648376,313.32958030700684,313.32958030700684,313.32958030700684,313.32958030700684,313.32958030700684,313.32958030700684,313.32958030700684,315.99514055252075,1,2.802478313446045,None,,,,,,,,,,,,,,,,,,163,4,2025-02-28_13h27.22.845,comp,2024.2.4,56.512994082329996,2025-02-28 13h27.32.695410 -0500,
48,48,0,critical,dhw,35.0,3.0,upper,127.0,127.0,200.0,125.0,125.0,200.0,3,2.065504550933838,None,,,,,0,0,0,0,0,48,48,51,316.01236510276794,,,,,,,,,,,,,,,,,,,,,,,,,,,,,,,,,,,,,,,,,,,,,,,,,,,,,,,,,,,,,,,,,,,,,,,,,,,,,,,,,,127.0,127.0,200.0,125.0,125.0,200.0,3.0,3.1,-222,281,0,4,258,-254,315.9967589378357,315.9968812465668,316.00047612190247,316.01236510276794,316.16594982147217,316.16594982147217,316.16594982147217,316.16594982147217,316.16594982147217,316.16594982147217,316.16594982147217,318.08649039268494,3,2.065504550933838,None,,,,,,,,,,,,,,,,,,163,4,2025-02-28_13h27.22.845,comp,2024.2.4,56.512994082329996,2025-02-28 13h27.32.695410 -0500,
49,49,0,filler_random,None,None,None,None,None,None,None,None,None,None,2,9.444369077682495,None,,,,,0,0,0,0,0,49,49,168,318.1048951148987,,,,,,,,,,,,,,,,,,,,,,,,,,,,,,,,,,,,,,,,,,,,,,,,,,,,,,,,,,,,,,,,,,,,,,,,,,,,,,,,,,63.63254473059919,87.06477908253973,134.38800484581188,78.94335918705484,166.23151064321806,57.482756941841636,2.2,2.22,-179,274,0,-263,164,-284,318.08830642700195,318.0884459018707,318.0917000770569,318.1048951148987,318.24732398986816,318.24732398986816,318.24732398986816,318.24732398986816,318.24732398986816,318.24732398986816,318.24732398986816,327.5697703361511,2,9.444369077682495,None,,,,,,,,,,,,,,,,,,163,4,2025-02-28_13h27.22.845,comp,2024.2.4,56.512994082329996,2025-02-28 13h27.32.695410 -0500,
50,50,0,critical,hdw,35.0,2.1,upper,200.0,125.0,127.0,127.0,125.0,200.0,3,4.76113486289978,None,,,,,0,0,0,0,0,50,50,21,327.5883710384369,,,,,,,,,,,,,,,,,,,,,,,,,,,,,,,,,,,,,,,,,,,,,,,,,,,,,,,,,,,,,,,,,,,,,,,,,,,,,,,,,,200.0,125.0,127.0,127.0,125.0,200.0,2.1,2.12,-222,-257,0,-285,260,288,327.57138895988464,327.57146692276,327.57477045059204,327.5883710384369,327.7339897155762,327.7339897155762,327.7339897155762,327.7339897155762,327.7339897155762,327.7339897155762,327.7339897155762,332.352010011673,3,4.76113486289978,None,,,,,,,,,,,,,,,,,,163,4,2025-02-28_13h27.22.845,comp,2024.2.4,56.512994082329996,2025-02-28 13h27.32.695410 -0500,
51,51,0,filler_random,None,None,None,None,None,None,None,None,None,None,1,2.5892510414123535,None,,,,,0,0,0,0,0,51,51,165,332.3684470653534,,,,,,,,,,,,,,,,,,,,,,,,,,,,,,,,,,,,,,,,,,,,,,,,,,,,,,,,,,,,,,,,,,,,,,,,,,,,,,,,,,133.98739329032767,183.24585360369684,80.77371059660862,106.72663369795936,58.16684920776913,121.14081393195441,2.2,2.22,-241,273,0,-280,210,-273,332.35360741615295,332.35368394851685,332.35688996315,332.3684470653534,332.50672936439514,332.50672936439514,332.50672936439514,332.50672936439514,332.50672936439514,332.50672936439514,332.50672936439514,334.967333316803,1,2.5892510414123535,None,,,,,,,,,,,,,,,,,,163,4,2025-02-28_13h27.22.845,comp,2024.2.4,56.512994082329996,2025-02-28 13h27.32.695410 -0500,
52,52,0,critical,wdh,35.0,3.0,upper,125.0,200.0,127.0,127.0,200.0,125.0,1,7.1248393058776855,None,,,,,0,0,0,0,0,52,52,75,334.9844756126404,,,,,,,,,,,,,,,,,,,,,,,,,,,,,,,,,,,,,,,,,,,,,,,,,,,,,,,,,,,,,,,,,,,,,,,,,,,,,,,,,,125.0,200.0,127.0,127.0,200.0,125.0,3.0,3.1,-260,254,0,-7,222,-258,334.9689345359802,334.9690144062042,334.9724519252777,334.9844756126404,335.1421821117401,335.1421821117401,335.1421821117401,335.1421821117401,335.1421821117401,335.1421821117401,335.1421821117401,342.12049674987793,1,7.1248393058776855,None,,,,,,,,,,,,,,,,,,163,4,2025-02-28_13h27.22.845,comp,2024.2.4,56.512994082329996,2025-02-28 13h27.32.695410 -0500,
53,53,0,filler_random,None,None,None,None,None,None,None,None,None,None,3,1.45084810256958,None,,,,,0,0,0,0,0,53,53,150,342.1384606361389,,,,,,,,,,,,,,,,,,,,,,,,,,,,,,,,,,,,,,,,,,,,,,,,,,,,,,,,,,,,,,,,,,,,,,,,,,,,,,,,,,187.53082369650258,154.19020458357303,154.51589936230508,84.41222613572225,198.72191018640328,193.6251620047887,3.0,3.2,-215,-281,0,-7,235,264,342.12216687202454,342.1222448348999,342.12539315223694,342.1384606361389,342.28924107551575,342.28924107551575,342.28924107551575,342.28924107551575,342.28924107551575,342.28924107551575,342.28924107551575,343.60484170913696,3,1.45084810256958,None,,,,,,,,,,,,,,,,,,163,4,2025-02-28_13h27.22.845,comp,2024.2.4,56.512994082329996,2025-02-28 13h27.32.695410 -0500,
54,54,0,critical,dwh,35.0,2.1,lower,70.0,70.0,57.0,133.0,133.0,57.0,3,6.781372547149658,None,,,,,0,0,0,0,0,54,54,28,343.6245973110199,,,,,,,,,,,,,,,,,,,,,,,,,,,,,,,,,,,,,,,,,,,,,,,,,,,,,,,,,,,,,,,,,,,,,,,,,,,,,,,,,,70.0,70.0,57.0,133.0,133.0,57.0,2.1,2.12,-198,-259,0,-270,191,273,343.60638189315796,343.60646057128906,343.60946345329285,343.6245973110199,343.7710897922516,343.7710897922516,343.7710897922516,343.7710897922516,343.7710897922516,343.7710897922516,343.7710897922516,350.40947818756104,3,6.781372547149658,None,,,,,,,,,,,,,,,,,,163,4,2025-02-28_13h27.22.845,comp,2024.2.4,56.512994082329996,2025-02-28 13h27.32.695410 -0500,
55,55,0,critical,hwd,20.0,2.1,upper,200.0,125.0,125.0,200.0,141.0,141.0,2,4.0754475593566895,None,,,,,0,0,0,0,0,55,55,43,350.4262342453003,,,,,,,,,,,,,,,,,,,,,,,,,,,,,,,,,,,,,,,,,,,,,,,,,,,,,,,,,,,,,,,,,,,,,,,,,,,,,,,,,,200.0,125.0,125.0,200.0,141.0,141.0,2.1,2.11,-258,286,0,260,266,-262,350.41117691993713,350.41125655174255,350.4150929450989,350.4262342453003,350.57478308677673,350.57478308677673,350.57478308677673,350.57478308677673,350.57478308677673,350.57478308677673,350.57478308677673,354.50994515419006,2,4.0754475593566895,None,,,,,,,,,,,,,,,,,,163,4,2025-02-28_13h27.22.845,comp,2024.2.4,56.512994082329996,2025-02-28 13h27.32.695410 -0500,
56,56,0,filler_square,None,None,None,None,None,None,None,None,None,None,3,2.1755383014678955,None,,,,,0,0,0,0,0,56,56,182,354.52654004096985,,,,,,,,,,,,,,,,,,,,,,,,,,,,,,,,,,,,,,,,,,,,,,,,,,,,,,,,,,,,,,,,,,,,,,,,,,,,,,,,,,105.41034557263801,101.30353570550339,93.94082235946718,106.26017641816135,133.81946241461935,133.81946241461935,2.2,2.21,-200,-254,0,252,216,258,354.5121476650238,354.5122287273407,354.5157516002655,354.52654004096985,354.67513632774353,354.67513632774353,354.67513632774353,354.67513632774353,354.67513632774353,354.67513632774353,354.67513632774353,356.7109429836273,3,2.1755383014678955,None,,,,,,,,,,,,,,,,,,163,4,2025-02-28_13h27.22.845,comp,2024.2.4,56.512994082329996,2025-02-28 13h27.32.695410 -0500,
57,57,0,critical,hdw,35.0,1.0,upper,200.0,125.0,127.0,127.0,125.0,200.0,3,5.678585052490234,None,,,,,0,0,0,0,0,57,57,109,356.7270414829254,,,,,,,,,,,,,,,,,,,,,,,,,,,,,,,,,,,,,,,,,,,,,,,,,,,,,,,,,,,,,,,,,,,,,,,,,,,,,,,,,,200.0,125.0,127.0,127.0,125.0,200.0,1.0,1.3,258,-259,480,-269,740,-253,356.71241450309753,356.7124900817871,356.7154870033264,356.7270414829254,356.8755142688751,356.8755142688751,356.8755142688751,356.8755142688751,356.8755142688751,356.8755142688751,356.8755142688751,362.4102506637573,3,5.678585052490234,None,,,,,,,,,,,,,,,,,,163,4,2025-02-28_13h27.22.845,comp,2024.2.4,56.512994082329996,2025-02-28 13h27.32.695410 -0500,
58,58,0,critical,dhw,20.0,4.0,lower,78.0,78.0,133.0,57.0,57.0,133.0,2,4.450690984725952,None,,,,,0,0,0,0,0,58,58,58,362.4266312122345,,,,,,,,,,,,,,,,,,,,,,,,,,,,,,,,,,,,,,,,,,,,,,,,,,,,,,,,,,,,,,,,,,,,,,,,,,,,,,,,,,78.0,78.0,133.0,57.0,57.0,133.0,4.0,4.1,-164,-258,0,-5,191,-274,362.4117512702942,362.41183066368103,362.4150199890137,362.4266312122345,362.5781161785126,362.5781161785126,362.5781161785126,362.5781161785126,362.5781161785126,362.5781161785126,362.5781161785126,366.89466094970703,2,4.450690984725952,None,,,,,,,,,,,,,,,,,,163,4,2025-02-28_13h27.22.845,comp,2024.2.4,56.512994082329996,2025-02-28 13h27.32.695410 -0500,
59,59,0,critical,whd,35.0,3.0,lower,57.0,133.0,133.0,57.0,70.0,70.0,1,16.23908543586731,None,,,,,0,0,0,0,0,59,59,86,366.91066312789917,,,,,,,,,,,,,,,,,,,,,,,,,,,,,,,,,,,,,,,,,,,,,,,,,,,,,,,,,,,,,,,,,,,,,,,,,,,,,,,,,,57.0,133.0,133.0,57.0,70.0,70.0,3.0,3.2,-191,-253,0,9,160,279,366.896146774292,366.8962230682373,366.89933943748474,366.91066312789917,367.05996918678284,367.05996918678284,367.05996918678284,367.05996918678284,367.05996918678284,367.05996918678284,367.05996918678284,383.15168261528015,1,16.23908543586731,None,,,,,,,,,,,,,,,,,,163,4,2025-02-28_13h27.22.845,comp,2024.2.4,56.512994082329996,2025-02-28 13h27.32.695410 -0500,
60,60,0,critical,hdw,20.0,3.0,lower,133.0,57.0,78.0,78.0,57.0,133.0,1,6.4800124168396,None,,,,,0,0,0,0,0,60,60,116,383.16640043258667,,,,,,,,,,,,,,,,,,,,,,,,,,,,,,,,,,,,,,,,,,,,,,,,,,,,,,,,,,,,,,,,,,,,,,,,,,,,,,,,,,133.0,57.0,78.0,78.0,57.0,133.0,3.0,3.2,-164,-252,0,-16,202,269,383.1531271934509,383.1531662940979,383.15572905540466,383.16640043258667,383.32177543640137,383.32177543640137,383.32177543640137,383.32177543640137,383.32177543640137,383.32177543640137,383.32177543640137,389.6523458957672,1,6.4800124168396,None,,,,,,,,,,,,,,,,,,163,4,2025-02-28_13h27.22.845,comp,2024.2.4,56.512994082329996,2025-02-28 13h27.32.695410 -0500,
61,61,0,critical,hdw,35.0,4.0,upper,200.0,125.0,127.0,127.0,125.0,200.0,3,6.792158365249634,None,,,,,0,0,0,0,0,61,61,113,389.66953206062317,,,,,,,,,,,,,,,,,,,,,,,,,,,,,,,,,,,,,,,,,,,,,,,,,,,,,,,,,,,,,,,,,,,,,,,,,,,,,,,,,,200.0,125.0,127.0,127.0,125.0,200.0,4.0,4.2,-222,-15,0,-260,260,-3,389.6539556980133,389.65405440330505,389.65764117240906,389.66953206062317,389.82064270973206,389.82064270973206,389.82064270973206,389.82064270973206,389.82064270973206,389.82064270973206,389.82064270973206,396.4700405597687,3,6.792158365249634,None,,,,,,,,,,,,,,,,,,163,4,2025-02-28_13h27.22.845,comp,2024.2.4,56.512994082329996,2025-02-28 13h27.32.695410 -0500,
62,62,0,critical,wdh,35.0,4.0,lower,57.0,133.0,70.0,70.0,133.0,57.0,1,7.447405576705933,None,,,,,0,0,0,0,0,62,62,76,396.48637199401855,,,,,,,,,,,,,,,,,,,,,,,,,,,,,,,,,,,,,,,,,,,,,,,,,,,,,,,,,,,,,,,,,,,,,,,,,,,,,,,,,,57.0,133.0,70.0,70.0,133.0,57.0,4.0,4.1,-198,-271,0,19,160,-277,396.47157621383667,396.47165298461914,396.47490334510803,396.48637199401855,396.64084577560425,396.64084577560425,396.64084577560425,396.64084577560425,396.64084577560425,396.64084577560425,396.64084577560425,403.94175910949707,1,7.447405576705933,None,,,,,,,,,,,,,,,,,,163,4,2025-02-28_13h27.22.845,comp,2024.2.4,56.512994082329996,2025-02-28 13h27.32.695410 -0500,
63,63,0,filler_random,None,None,None,None,None,None,None,None,None,None,1,1.672586441040039,None,,,,,0,0,0,0,0,63,63,142,403.9585907459259,,,,,,,,,,,,,,,,,,,,,,,,,,,,,,,,,,,,,,,,,,,,,,,,,,,,,,,,,,,,,,,,,,,,,,,,,,,,,,,,,,118.00926101024154,176.8937228036783,92.65614689487465,103.76591071736595,57.86827580669238,133.26773974587246,2.2,2.21,-236,-269,0,269,215,265,403.9434971809387,403.94357681274414,403.9478316307068,403.9585907459259,404.10649132728577,404.10649132728577,404.10649132728577,404.10649132728577,404.10649132728577,404.10649132728577,404.10649132728577,405.64271235466003,1,1.672586441040039,None,,,,,,,,,,,,,,,,,,163,4,2025-02-28_13h27.22.845,comp,2024.2.4,56.512994082329996,2025-02-28 13h27.32.695410 -0500,
64,64,0,critical,whd,20.0,2.1,lower,57.0,133.0,133.0,57.0,78.0,78.0,2,8.258975267410278,None,,,,,0,0,0,0,0,64,64,38,405.65898299217224,,,,,,,,,,,,,,,,,,,,,,,,,,,,,,,,,,,,,,,,,,,,,,,,,,,,,,,,,,,,,,,,,,,,,,,,,,,,,,,,,,57.0,133.0,133.0,57.0,78.0,78.0,2.1,2.11,-191,264,0,259,164,-273,405.64426732063293,405.64436054229736,405.64830708503723,405.65898299217224,405.8063678741455,405.8063678741455,405.8063678741455,405.8063678741455,405.8063678741455,405.8063678741455,405.8063678741455,413.92841053009033,2,8.258975267410278,None,,,,,,,,,,,,,,,,,,163,4,2025-02-28_13h27.22.845,comp,2024.2.4,56.512994082329996,2025-02-28 13h27.32.695410 -0500,
65,65,0,critical,dwh,20.0,3.0,lower,78.0,78.0,57.0,133.0,133.0,57.0,1,2.5725388526916504,None,,,,,0,0,0,0,0,65,65,68,413.9449620246887,,,,,,,,,,,,,,,,,,,,,,,,,,,,,,,,,,,,,,,,,,,,,,,,,,,,,,,,,,,,,,,,,,,,,,,,,,,,,,,,,,78.0,78.0,57.0,133.0,133.0,57.0,3.0,3.1,-202,270,0,10,191,-267,413.9300045967102,413.93010902404785,413.93358612060547,413.9449620246887,414.09764409065247,414.09764409065247,414.09764409065247,414.09764409065247,414.09764409065247,414.09764409065247,414.09764409065247,416.5353226661682,1,2.5725388526916504,None,,,,,,,,,,,,,,,,,,163,4,2025-02-28_13h27.22.845,comp,2024.2.4,56.512994082329996,2025-02-28 13h27.32.695410 -0500,
66,66,0,critical,hdw,20.0,2.1,upper,200.0,125.0,141.0,141.0,125.0,200.0,3,10.492798328399658,None,,,,,0,0,0,0,0,66,66,47,416.55283212661743,,,,,,,,,,,,,,,,,,,,,,,,,,,,,,,,,,,,,,,,,,,,,,,,,,,,,,,,,,,,,,,,,,,,,,,,,,,,,,,,,,200.0,125.0,141.0,141.0,125.0,200.0,2.1,2.11,-229,289,0,270,266,-267,416.53683161735535,416.53694128990173,416.53989720344543,416.55283212661743,416.6952073574066,416.6952073574066,416.6952073574066,416.6952073574066,416.6952073574066,416.6952073574066,416.6952073574066,427.047776222229,3,10.492798328399658,None,,,,,,,,,,,,,,,,,,163,4,2025-02-28_13h27.22.845,comp,2024.2.4,56.512994082329996,2025-02-28 13h27.32.695410 -0500,
67,67,0,catch,None,None,None,None,None,None,None,None,None,None,3,2.2515647411346436,None,,,,,0,0,0,0,0,67,67,129,427.07452726364136,,,,,,,,,,,,,,,,,,,,,,,,,,,,,,,,,,,,,,,,,,,,,,,,,,,,,,,,,,,,,,,,,,,,,,,,,,,,,,,,,,63,127,117,73,139,186,4.0,4.2,-196,-14,0,-288,226,-2,427.04966378211975,427.0497467517853,427.0529112815857,427.07452726364136,427.21422719955444,427.21422719955444,427.21422719955444,427.21422719955444,427.21422719955444,427.21422719955444,427.21422719955444,429.3323030471802,3,2.2515647411346436,None,,,,,,,,,,,,,,,,,,163,4,2025-02-28_13h27.22.845,comp,2024.2.4,56.512994082329996,2025-02-28 13h27.32.695410 -0500,
68,68,0,filler_random,None,None,None,None,None,None,None,None,None,None,2,1.4901342391967773,None,,,,,0,0,0,0,0,68,68,133,429.34908294677734,,,,,,,,,,,,,,,,,,,,,,,,,,,,,,,,,,,,,,,,,,,,,,,,,,,,,,,,,,,,,,,,,,,,,,,,,,,,,,,,,,145.95257322675073,73.46654556284739,193.09369032773088,193.74329817716924,63.35061434207281,74.28775387871298,2.1,2.12,-230,-268,0,-257,230,263,429.3342409133911,429.33438444137573,429.3384804725647,429.34908294677734,429.4999544620514,429.4999544620514,429.4999544620514,429.4999544620514,429.4999544620514,429.4999544620514,429.4999544620514,430.8544132709503,2,1.4901342391967773,None,,,,,,,,,,,,,,,,,,163,4,2025-02-28_13h27.22.845,comp,2024.2.4,56.512994082329996,2025-02-28 13h27.32.695410 -0500,
69,69,0,critical,dwh,20.0,2.1,upper,141.0,141.0,125.0,200.0,200.0,125.0,2,6.62499213218689,None,,,,,0,0,0,0,0,69,69,7,430.868994474411,,,,,,,,,,,,,,,,,,,,,,,,,,,,,,,,,,,,,,,,,,,,,,,,,,,,,,,,,,,,,,,,,,,,,,,,,,,,,,,,,,141.0,141.0,125.0,200.0,200.0,125.0,2.1,2.11,-266,250,0,264,258,-253,430.85605096817017,430.8561680316925,430.8595042228699,430.868994474411,431.0161383152008,431.0161383152008,431.0161383152008,431.0161383152008,431.0161383152008,431.0161383152008,431.0161383152008,437.50484800338745,2,6.62499213218689,None,,,,,,,,,,,,,,,,,,163,4,2025-02-28_13h27.22.845,comp,2024.2.4,56.512994082329996,2025-02-28 13h27.32.695410 -0500,
70,70,0,critical,whd,20.0,2.1,lower,57.0,133.0,133.0,57.0,78.0,78.0,1,5.852493762969971,None,,,,,0,0,0,0,0,70,70,14,437.52096009254456,,,,,,,,,,,,,,,,,,,,,,,,,,,,,,,,,,,,,,,,,,,,,,,,,,,,,,,,,,,,,,,,,,,,,,,,,,,,,,,,,,57.0,133.0,133.0,57.0,78.0,78.0,2.1,2.12,-191,-287,0,-269,164,268,437.5063588619232,437.5064392089844,437.51027750968933,437.52096009254456,437.6659526824951,437.6659526824951,437.6659526824951,437.6659526824951,437.6659526824951,437.6659526824951,437.6659526824951,443.38650584220886,1,5.852493762969971,None,,,,,,,,,,,,,,,,,,163,4,2025-02-28_13h27.22.845,comp,2024.2.4,56.512994082329996,2025-02-28 13h27.32.695410 -0500,
71,71,0,critical,hwd,35.0,4.0,upper,200.0,125.0,125.0,200.0,127.0,127.0,2,2.4278206825256348,None,,,,,0,0,0,0,0,71,71,101,443.4024965763092,,,,,,,,,,,,,,,,,,,,,,,,,,,,,,,,,,,,,,,,,,,,,,,,,,,,,,,,,,,,,,,,,,,,,,,,,,,,,,,,,,200.0,125.0,125.0,200.0,127.0,127.0,4.0,4.2,-258,-7,0,-288,260,12,443.3880672454834,443.3881468772888,443.3922004699707,443.4024965763092,443.55167961120605,443.55167961120605,443.55167961120605,443.55167961120605,443.55167961120605,443.55167961120605,443.55167961120605,445.8376953601837,2,2.4278206825256348,None,,,,,,,,,,,,,,,,,,163,4,2025-02-28_13h27.22.845,comp,2024.2.4,56.512994082329996,2025-02-28 13h27.32.695410 -0500,
72,72,0,critical,hdw,20.0,2.1,lower,133.0,57.0,78.0,78.0,57.0,133.0,2,5.583285331726074,None,,,,,0,0,0,0,0,72,72,46,445.85412096977234,,,,,,,,,,,,,,,,,,,,,,,,,,,,,,,,,,,,,,,,,,,,,,,,,,,,,,,,,,,,,,,,,,,,,,,,,,,,,,,,,,133.0,57.0,78.0,78.0,57.0,133.0,2.1,2.12,-164,-281,0,-282,202,289,445.83923602104187,445.8393135070801,445.8425974845886,445.85412096977234,446.0020136833191,446.0020136833191,446.0020136833191,446.0020136833191,446.0020136833191,446.0020136833191,446.0020136833191,451.439759016037,2,5.583285331726074,None,,,,,,,,,,,,,,,,,,163,4,2025-02-28_13h27.22.845,comp,2024.2.4,56.512994082329996,2025-02-28 13h27.32.695410 -0500,
73,73,0,critical,hdw,35.0,2.1,lower,133.0,57.0,70.0,70.0,57.0,133.0,2,2.5988781452178955,None,,,,,0,0,0,0,0,73,73,20,451.4551546573639,,,,,,,,,,,,,,,,,,,,,,,,,,,,,,,,,,,,,,,,,,,,,,,,,,,,,,,,,,,,,,,,,,,,,,,,,,,,,,,,,,133.0,57.0,70.0,70.0,57.0,133.0,2.1,2.11,-160,262,0,253,198,-277,451.4413216114044,451.4414014816284,451.44448351860046,451.4551546573639,451.60889649391174,451.60889649391174,451.60889649391174,451.60889649391174,451.60889649391174,451.60889649391174,451.60889649391174,454.05648255348206,2,2.5988781452178955,None,,,,,,,,,,,,,,,,,,163,4,2025-02-28_13h27.22.845,comp,2024.2.4,56.512994082329996,2025-02-28 13h27.32.695410 -0500,
74,74,0,critical,hdw,35.0,4.0,lower,133.0,57.0,70.0,70.0,57.0,133.0,3,7.6385486125946045,None,,,,,0,0,0,0,0,74,74,112,454.0708930492401,,,,,,,,,,,,,,,,,,,,,,,,,,,,,,,,,,,,,,,,,,,,,,,,,,,,,,,,,,,,,,,,,,,,,,,,,,,,,,,,,,133.0,57.0,70.0,70.0,57.0,133.0,4.0,4.2,-160,-7,0,-281,198,-18,454.0579686164856,454.05806708335876,454.061240196228,454.0708930492401,454.2284860610962,454.2284860610962,454.2284860610962,454.2284860610962,454.2284860610962,454.2284860610962,454.2284860610962,461.72551107406616,3,7.6385486125946045,None,,,,,,,,,,,,,,,,,,163,4,2025-02-28_13h27.22.845,comp,2024.2.4,56.512994082329996,2025-02-28 13h27.32.695410 -0500,
75,75,0,filler_square,None,None,None,None,None,None,None,None,None,None,1,1.1931843757629395,None,,,,,0,0,0,0,0,75,75,191,461.740850687027,,,,,,,,,,,,,,,,,,,,,,,,,,,,,,,,,,,,,,,,,,,,,,,,,,,,,,,,,,,,,,,,,,,,,,,,,,,,,,,,,,193.5020970305838,193.5020970305838,67.9229589521416,181.8906001735736,77.97500245617655,60.93552856392043,4.0,4.2,-284,2,0,-268,217,12,461.7272379398346,461.7273178100586,461.73064517974854,461.740850687027,461.8922710418701,461.8922710418701,461.8922710418701,461.8922710418701,461.8922710418701,461.8922710418701,461.8922710418701,462.9402525424957,1,1.1931843757629395,None,,,,,,,,,,,,,,,,,,163,4,2025-02-28_13h27.22.845,comp,2024.2.4,56.512994082329996,2025-02-28 13h27.32.695410 -0500,
76,76,0,critical,whd,20.0,4.0,lower,57.0,133.0,133.0,57.0,78.0,78.0,1,3.7372896671295166,None,,,,,0,0,0,0,0,76,76,94,462.9562957286835,,,,,,,,,,,,,,,,,,,,,,,,,,,,,,,,,,,,,,,,,,,,,,,,,,,,,,,,,,,,,,,,,,,,,,,,,,,,,,,,,,57.0,133.0,133.0,57.0,78.0,78.0,4.0,4.2,-191,-7,0,-263,164,-18,462.94166564941406,462.94174432754517,462.944637298584,462.9562957286835,463.09972500801086,463.09972500801086,463.09972500801086,463.09972500801086,463.09972500801086,463.09972500801086,463.09972500801086,466.71043705940247,1,3.7372896671295166,None,,,,,,,,,,,,,,,,,,163,4,2025-02-28_13h27.22.845,comp,2024.2.4,56.512994082329996,2025-02-28 13h27.32.695410 -0500,
77,77,0,critical,wdh,20.0,1.0,lower,57.0,133.0,78.0,78.0,133.0,57.0,1,4.471278190612793,None,,,,,0,0,0,0,0,77,77,78,466.72618412971497,,,,,,,,,,,,,,,,,,,,,,,,,,,,,,,,,,,,,,,,,,,,,,,,,,,,,,,,,,,,,,,,,,,,,,,,,,,,,,,,,,57.0,133.0,78.0,78.0,133.0,57.0,1.0,1.1,-682,282,-480,283,-316,289,466.7119884490967,466.71206855773926,466.71556425094604,466.72618412971497,466.8819043636322,466.8819043636322,466.8819043636322,466.8819043636322,466.8819043636322,466.8819043636322,466.8819043636322,471.21189284324646,1,4.471278190612793,None,,,,,,,,,,,,,,,,,,163,4,2025-02-28_13h27.22.845,comp,2024.2.4,56.512994082329996,2025-02-28 13h27.32.695410 -0500,
78,78,0,critical,dwh,20.0,1.0,upper,141.0,141.0,125.0,200.0,200.0,125.0,3,1.161210060119629,None,,,,,0,0,0,0,0,78,78,67,471.22815918922424,,,,,,,,,,,,,,,,,,,,,,,,,,,,,,,,,,,,,,,,,,,,,,,,,,,,,,,,,,,,,,,,,,,,,,,,,,,,,,,,,,141.0,141.0,125.0,200.0,200.0,125.0,1.0,1.2,-266,13,0,6,258,-18,471.2133889198303,471.2134654521942,471.21678590774536,471.22815918922424,471.37810730934143,471.37810730934143,471.37810730934143,471.37810730934143,471.37810730934143,471.37810730934143,471.37810730934143,472.40029215812683,3,1.161210060119629,None,,,,,,,,,,,,,,,,,,163,4,2025-02-28_13h27.22.845,comp,2024.2.4,56.512994082329996,2025-02-28 13h27.32.695410 -0500,
79,79,0,filler_square,None,None,None,None,None,None,None,None,None,None,2,1.1163926124572754,None,,,,,0,0,0,0,0,79,79,188,472.41700887680054,,,,,,,,,,,,,,,,,,,,,,,,,,,,,,,,,,,,,,,,,,,,,,,,,,,,,,,,,,,,,,,,,,,,,,,,,,,,,,,,,,60.62780488015623,91.41728607900552,142.78256392971974,142.78256392971974,108.33026935309016,136.71269346051696,4.0,4.1,-213,-286,0,8,236,-251,472.402574300766,472.40265560150146,472.40558433532715,472.41700887680054,472.56232023239136,472.56232023239136,472.56232023239136,472.56232023239136,472.56232023239136,472.56232023239136,472.56232023239136,473.54505825042725,2,1.1163926124572754,None,,,,,,,,,,,,,,,,,,163,4,2025-02-28_13h27.22.845,comp,2024.2.4,56.512994082329996,2025-02-28 13h27.32.695410 -0500,
80,80,0,filler_random,None,None,None,None,None,None,None,None,None,None,2,0.9978103637695312,None,,,,,0,0,0,0,0,80,80,154,473.5602729320526,,,,,,,,,,,,,,,,,,,,,,,,,,,,,,,,,,,,,,,,,,,,,,,,,,,,,,,,,,,,,,,,,,,,,,,,,,,,,,,,,,94.70596413733543,145.19667820065428,116.28097798321491,185.9876077562152,147.07525382302742,59.526458985848116,1.0,1.2,-262,-7,0,-14,219,11,473.54659843444824,473.54667234420776,473.5497193336487,473.5602729320526,473.70367431640625,473.70367431640625,473.70367431640625,473.70367431640625,473.70367431640625,473.70367431640625,473.70367431640625,474.56680846214294,2,0.9978103637695312,None,,,,,,,,,,,,,,,,,,163,4,2025-02-28_13h27.22.845,comp,2024.2.4,56.512994082329996,2025-02-28 13h27.32.695410 -0500,
81,81,0,critical,dhw,35.0,2.1,lower,70.0,70.0,133.0,57.0,57.0,133.0,3,2.846233606338501,None,,,,,0,0,0,0,0,81,81,24,474.5831632614136,,,,,,,,,,,,,,,,,,,,,,,,,,,,,,,,,,,,,,,,,,,,,,,,,,,,,,,,,,,,,,,,,,,,,,,,,,,,,,,,,,70.0,70.0,133.0,57.0,57.0,133.0,2.1,2.11,-160,258,0,269,191,-282,474.5687143802643,474.56879806518555,474.5717451572418,474.5831632614136,474.72861099243164,474.72861099243164,474.72861099243164,474.72861099243164,474.72861099243164,474.72861099243164,474.72861099243164,477.4460163116455,3,2.846233606338501,None,,,,,,,,,,,,,,,,,,163,4,2025-02-28_13h27.22.845,comp,2024.2.4,56.512994082329996,2025-02-28 13h27.32.695410 -0500,
82,82,0,filler_square,None,None,None,None,None,None,None,None,None,None,3,1.0388855934143066,None,,,,,0,0,0,0,0,82,82,178,477.4625689983368,,,,,,,,,,,,,,,,,,,,,,,,,,,,,,,,,,,,,,,,,,,,,,,,,,,,,,,,,,,,,,,,,,,,,,,,,,,,,,,,,,83.25014127126806,57.98836801260252,61.39507894447716,71.6111476429582,89.18846256543394,89.18846256543394,3.0,3.1,-161,283,0,-18,176,-258,477.4479703903198,477.44807267189026,477.45131492614746,477.4625689983368,477.61444115638733,477.61444115638733,477.61444115638733,477.61444115638733,477.61444115638733,477.61444115638733,477.61444115638733,478.5147247314453,3,1.0388855934143066,None,,,,,,,,,,,,,,,,,,163,4,2025-02-28_13h27.22.845,comp,2024.2.4,56.512994082329996,2025-02-28 13h27.32.695410 -0500,
83,83,0,critical,hwd,35.0,1.0,lower,133.0,57.0,57.0,133.0,70.0,70.0,1,5.395688772201538,None,,,,,0,0,0,0,0,83,83,96,478.5305814743042,,,,,,,,,,,,,,,,,,,,,,,,,,,,,,,,,,,,,,,,,,,,,,,,,,,,,,,,,,,,,,,,,,,,,,,,,,,,,,,,,,133.0,57.0,57.0,133.0,70.0,70.0,1.0,1.2,-191,17,0,-9,198,2,478.5163059234619,478.5163838863373,478.52023935317993,478.5305814743042,478.67969822883606,478.67969822883606,478.67969822883606,478.67969822883606,478.67969822883606,478.67969822883606,478.67969822883606,483.93280482292175,1,5.395688772201538,None,,,,,,,,,,,,,,,,,,163,4,2025-02-28_13h27.22.845,comp,2024.2.4,56.512994082329996,2025-02-28 13h27.32.695410 -0500,
84,84,0,critical,dhw,35.0,1.0,lower,70.0,70.0,133.0,57.0,57.0,133.0,3,2.145533561706543,None,,,,,0,0,0,0,0,84,84,48,483.9487385749817,,,,,,,,,,,,,,,,,,,,,,,,,,,,,,,,,,,,,,,,,,,,,,,,,,,,,,,,,,,,,,,,,,,,,,,,,,,,,,,,,,70.0,70.0,133.0,57.0,57.0,133.0,1.0,1.3,320,-274,480,-268,671,-266,483.9344210624695,483.93450260162354,483.9379949569702,483.9487385749817,484.1033523082733,484.1033523082733,484.1033523082733,484.1033523082733,484.1033523082733,484.1033523082733,484.1033523082733,486.10074830055237,3,2.145533561706543,None,,,,,,,,,,,,,,,,,,163,4,2025-02-28_13h27.22.845,comp,2024.2.4,56.512994082329996,2025-02-28 13h27.32.695410 -0500,
85,85,0,critical,dhw,20.0,3.0,lower,78.0,78.0,133.0,57.0,57.0,133.0,3,1.6004583835601807,None,,,,,0,0,0,0,0,85,85,56,486.1170144081116,,,,,,,,,,,,,,,,,,,,,,,,,,,,,,,,,,,,,,,,,,,,,,,,,,,,,,,,,,,,,,,,,,,,,,,,,,,,,,,,,,78.0,78.0,133.0,57.0,57.0,133.0,3.0,3.1,-164,262,0,16,191,-282,486.1025319099426,486.1026132106781,486.1062021255493,486.1170144081116,486.2655575275421,486.2655575275421,486.2655575275421,486.2655575275421,486.2655575275421,486.2655575275421,486.2655575275421,487.7355360984802,3,1.6004583835601807,None,,,,,,,,,,,,,,,,,,163,4,2025-02-28_13h27.22.845,comp,2024.2.4,56.512994082329996,2025-02-28 13h27.32.695410 -0500,
86,86,0,filler_random,None,None,None,None,None,None,None,None,None,None,3,1.2657365798950195,None,,,,,0,0,0,0,0,86,86,162,487.7559566497803,,,,,,,,,,,,,,,,,,,,,,,,,,,,,,,,,,,,,,,,,,,,,,,,,,,,,,,,,,,,,,,,,,,,,,,,,,,,,,,,,,110.87415191652045,130.4415025253325,160.62526044508166,129.02292305670568,152.57837811408874,174.89096614818237,2.1,2.11,-226,263,0,267,248,-274,487.73736453056335,487.7374577522278,487.74071288108826,487.7559566497803,487.9030976295471,487.9030976295471,487.9030976295471,487.9030976295471,487.9030976295471,487.9030976295471,487.9030976295471,489.0367751121521,3,1.2657365798950195,None,,,,,,,,,,,,,,,,,,163,4,2025-02-28_13h27.22.845,comp,2024.2.4,56.512994082329996,2025-02-28 13h27.32.695410 -0500,
87,87,0,critical,hwd,20.0,4.0,upper,200.0,125.0,125.0,200.0,141.0,141.0,2,4.048816204071045,None,,,,,0,0,0,0,0,87,87,107,489.0533459186554,,,,,,,,,,,,,,,,,,,,,,,,,,,,,,,,,,,,,,,,,,,,,,,,,,,,,,,,,,,,,,,,,,,,,,,,,,,,,,,,,,200.0,125.0,125.0,200.0,141.0,141.0,4.0,4.2,-258,11,0,-259,266,9,489.03871989250183,489.0388414859772,489.0421738624573,489.0533459186554,489.20068311691284,489.20068311691284,489.20068311691284,489.20068311691284,489.20068311691284,489.20068311691284,489.20068311691284,493.1046416759491,2,4.048816204071045,None,,,,,,,,,,,,,,,,,,163,4,2025-02-28_13h27.22.845,comp,2024.2.4,56.512994082329996,2025-02-28 13h27.32.695410 -0500,
88,88,0,critical,whd,35.0,4.0,lower,57.0,133.0,133.0,57.0,70.0,70.0,1,3.893303871154785,None,,,,,0,0,0,0,0,88,88,88,493.120724439621,,,,,,,,,,,,,,,,,,,,,,,,,,,,,,,,,,,,,,,,,,,,,,,,,,,,,,,,,,,,,,,,,,,,,,,,,,,,,,,,,,57.0,133.0,133.0,57.0,70.0,70.0,4.0,4.2,-191,-5,0,-280,160,7,493.10630440711975,493.10638332366943,493.10991406440735,493.120724439621,493.27297806739807,493.27297806739807,493.27297806739807,493.27297806739807,493.27297806739807,493.27297806739807,493.27297806739807,497.0209331512451,1,3.893303871154785,None,,,,,,,,,,,,,,,,,,163,4,2025-02-28_13h27.22.845,comp,2024.2.4,56.512994082329996,2025-02-28 13h27.32.695410 -0500,
89,89,0,filler_square,None,None,None,None,None,None,None,None,None,None,3,1.048342227935791,None,,,,,0,0,0,0,0,89,89,196,497.03766083717346,,,,,,,,,,,,,,,,,,,,,,,,,,,,,,,,,,,,,,,,,,,,,,,,,,,,,,,,,,,,,,,,,,,,,,,,,,,,,,,,,,81.59933132317437,98.43011013125022,69.76948760262323,148.14563369747668,193.78219177056687,193.78219177056687,4.0,4.2,-219,-5,0,-259,267,-16,497.0227394104004,497.022821187973,497.0269305706024,497.03766083717346,497.18894958496094,497.18894958496094,497.18894958496094,497.18894958496094,497.18894958496094,497.18894958496094,497.18894958496094,498.1041257381439,3,1.048342227935791,None,,,,,,,,,,,,,,,,,,163,4,2025-02-28_13h27.22.845,comp,2024.2.4,56.512994082329996,2025-02-28 13h27.32.695410 -0500,
90,90,0,critical,wdh,20.0,3.0,lower,57.0,133.0,78.0,78.0,133.0,57.0,3,11.597891330718994,None,,,,,0,0,0,0,0,90,90,80,498.1202960014343,,,,,,,,,,,,,,,,,,,,,,,,,,,,,,,,,,,,,,,,,,,,,,,,,,,,,,,,,,,,,,,,,,,,,,,,,,,,,,,,,,57.0,133.0,78.0,78.0,133.0,57.0,3.0,3.1,-202,277,0,20,164,-283,498.105619430542,498.10569620132446,498.109929561615,498.1202960014343,498.2705907821655,498.2705907821655,498.2705907821655,498.2705907821655,498.2705907821655,498.2705907821655,498.2705907821655,509.72423696517944,3,11.597891330718994,None,,,,,,,,,,,,,,,,,,163,4,2025-02-28_13h27.22.845,comp,2024.2.4,56.512994082329996,2025-02-28 13h27.32.695410 -0500,
91,91,0,critical,hdw,20.0,2.1,upper,200.0,125.0,141.0,141.0,125.0,200.0,3,4.017800331115723,None,,,,,0,0,0,0,0,91,91,23,509.7395865917206,,,,,,,,,,,,,,,,,,,,,,,,,,,,,,,,,,,,,,,,,,,,,,,,,,,,,,,,,,,,,,,,,,,,,,,,,,,,,,,,,,200.0,125.0,141.0,141.0,125.0,200.0,2.1,2.12,-229,-288,0,-268,266,257,509.72569274902344,509.72577452659607,509.7289354801178,509.7395865917206,509.89102506637573,509.89102506637573,509.89102506637573,509.89102506637573,509.89102506637573,509.89102506637573,509.89102506637573,513.7740337848663,3,4.017800331115723,None,,,,,,,,,,,,,,,,,,163,4,2025-02-28_13h27.22.845,comp,2024.2.4,56.512994082329996,2025-02-28 13h27.32.695410 -0500,
92,92,0,critical,dwh,35.0,2.1,upper,127.0,127.0,125.0,200.0,200.0,125.0,2,1.047917127609253,None,,,,,0,0,0,0,0,92,92,5,513.7899539470673,,,,,,,,,,,,,,,,,,,,,,,,,,,,,,,,,,,,,,,,,,,,,,,,,,,,,,,,,,,,,,,,,,,,,,,,,,,,,,,,,,127.0,127.0,125.0,200.0,200.0,125.0,2.1,2.11,-260,275,0,280,258,-277,513.7755045890808,513.7755799293518,513.7786729335785,513.7899539470673,513.9258484840393,513.9258484840393,513.9258484840393,513.9258484840393,513.9258484840393,513.9258484840393,513.9258484840393,514.8414480686188,2,1.047917127609253,None,,,,,,,,,,,,,,,,,,163,4,2025-02-28_13h27.22.845,comp,2024.2.4,56.512994082329996,2025-02-28 13h27.32.695410 -0500,
93,93,0,critical,dwh,20.0,1.0,lower,78.0,78.0,57.0,133.0,133.0,57.0,3,3.7804036140441895,None,,,,,0,0,0,0,0,93,93,66,514.8575167655945,,,,,,,,,,,,,,,,,,,,,,,,,,,,,,,,,,,,,,,,,,,,,,,,,,,,,,,,,,,,,,,,,,,,,,,,,,,,,,,,,,78.0,78.0,57.0,133.0,133.0,57.0,1.0,1.2,-202,-14,0,-9,191,-3,514.842841386795,514.8429567813873,514.8460249900818,514.8575167655945,515.0089678764343,515.0089678764343,515.0089678764343,515.0089678764343,515.0089678764343,515.0089678764343,515.0089678764343,518.6424322128296,3,3.7804036140441895,None,,,,,,,,,,,,,,,,,,163,4,2025-02-28_13h27.22.845,comp,2024.2.4,56.512994082329996,2025-02-28 13h27.32.695410 -0500,
94,94,0,filler_random,None,None,None,None,None,None,None,None,None,None,2,6.579309701919556,None,,,,,0,0,0,0,0,94,94,169,518.6581699848175,,,,,,,,,,,,,,,,,,,,,,,,,,,,,,,,,,,,,,,,,,,,,,,,,,,,,,,,,,,,,,,,,,,,,,,,,,,,,,,,,,73.93529241262726,142.13930555977635,109.19862130953065,123.48313118316055,176.6233760464109,62.22890794783572,1.0,1.1,-709,288,-480,267,-291,263,518.644082069397,518.6441593170166,518.6473345756531,518.6581699848175,518.8132071495056,518.8132071495056,518.8132071495056,518.8132071495056,518.8132071495056,518.8132071495056,518.8132071495056,525.2546486854553,2,6.579309701919556,None,,,,,,,,,,,,,,,,,,163,4,2025-02-28_13h27.22.845,comp,2024.2.4,56.512994082329996,2025-02-28 13h27.32.695410 -0500,
95,95,0,critical,wdh,35.0,3.0,lower,57.0,133.0,70.0,70.0,133.0,57.0,1,4.0429298877716064,None,,,,,0,0,0,0,0,95,95,74,525.2744107246399,,,,,,,,,,,,,,,,,,,,,,,,,,,,,,,,,,,,,,,,,,,,,,,,,,,,,,,,,,,,,,,,,,,,,,,,,,,,,,,,,,57.0,133.0,70.0,70.0,133.0,57.0,3.0,3.2,-198,-268,0,15,160,257,525.2561874389648,525.2562775611877,525.2591698169708,525.2744107246399,525.4114904403687,525.4114904403687,525.4114904403687,525.4114904403687,525.4114904403687,525.4114904403687,525.4114904403687,529.3340344429016,1,4.0429298877716064,None,,,,,,,,,,,,,,,,,,163,4,2025-02-28_13h27.22.845,comp,2024.2.4,56.512994082329996,2025-02-28 13h27.32.695410 -0500,
96,96,0,critical,wdh,20.0,3.0,upper,125.0,200.0,141.0,141.0,200.0,125.0,1,11.765873908996582,None,,,,,0,0,0,0,0,96,96,81,529.3517026901245,,,,,,,,,,,,,,,,,,,,,,,,,,,,,,,,,,,,,,,,,,,,,,,,,,,,,,,,,,,,,,,,,,,,,,,,,,,,,,,,,,125.0,200.0,141.0,141.0,200.0,125.0,3.0,3.1,-266,255,0,16,229,-289,529.335592508316,529.3356747627258,529.3386852741241,529.3517026901245,529.4971103668213,529.4971103668213,529.4971103668213,529.4971103668213,529.4971103668213,529.4971103668213,529.4971103668213,541.1204814910889,1,11.765873908996582,None,,,,,,,,,,,,,,,,,,163,4,2025-02-28_13h27.22.845,comp,2024.2.4,56.512994082329996,2025-02-28 13h27.32.695410 -0500,
97,97,0,catch,None,None,None,None,None,None,None,None,None,None,3,1.362321138381958,None,,,,,0,0,0,0,0,97,97,125,541.1392962932587,,,,,,,,,,,,,,,,,,,,,,,,,,,,,,,,,,,,,,,,,,,,,,,,,,,,,,,,,,,,,,,,,,,,,,,,,,,,,,,,,,113,77,109,81,128,197,1.0,1.2,-175,5,0,-3,235,2,541.1229431629181,541.1230227947235,541.1259696483612,541.1392962932587,541.2846479415894,541.2846479415894,541.2846479415894,541.2846479415894,541.2846479415894,541.2846479415894,541.2846479415894,542.5074450969696,3,1.362321138381958,None,,,,,,,,,,,,,,,,,,163,4,2025-02-28_13h27.22.845,comp,2024.2.4,56.512994082329996,2025-02-28 13h27.32.695410 -0500,
98,98,0,critical,hwd,20.0,3.0,upper,200.0,125.0,125.0,200.0,141.0,141.0,2,1.558793067932129,None,,,,,0,0,0,0,0,98,98,105,542.5267434120178,,,,,,,,,,,,,,,,,,,,,,,,,,,,,,,,,,,,,,,,,,,,,,,,,,,,,,,,,,,,,,,,,,,,,,,,,,,,,,,,,,200.0,125.0,125.0,200.0,141.0,141.0,3.0,3.1,-258,276,0,11,266,-269,542.5090456008911,542.5091230869293,542.5123620033264,542.5267434120178,542.6676852703094,542.6676852703094,542.6676852703094,542.6676852703094,542.6676852703094,542.6676852703094,542.6676852703094,544.1005256175995,2,1.558793067932129,None,,,,,,,,,,,,,,,,,,163,4,2025-02-28_13h27.22.845,comp,2024.2.4,56.512994082329996,2025-02-28 13h27.32.695410 -0500,
99,99,0,catch,None,None,None,None,None,None,None,None,None,None,1,1.6806015968322754,None,,,,,0,0,0,0,0,99,99,126,544.1172730922699,,,,,,,,,,,,,,,,,,,,,,,,,,,,,,,,,,,,,,,,,,,,,,,,,,,,,,,,,,,,,,,,,,,,,,,,,,,,,,,,,,193,132,66,124,84,106,2.2,2.21,-224,-281,0,253,211,275,544.1026768684387,544.1027555465698,544.1060450077057,544.1172730922699,544.27774310112,544.27774310112,544.27774310112,544.27774310112,544.27774310112,544.27774310112,544.27774310112,545.801691532135,1,1.6806015968322754,None,,,,,,,,,,,,,,,,,,163,4,2025-02-28_13h27.22.845,comp,2024.2.4,56.512994082329996,2025-02-28 13h27.32.695410 -0500,
100,100,0,critical,whd,20.0,2.1,upper,125.0,200.0,200.0,125.0,141.0,141.0,2,7.330940008163452,None,,,,,0,0,0,0,0,100,100,39,545.8193302154541,,,,,,,,,,,,,,,,,,,,,,,,,,,,,,,,,,,,,,,,,,,,,,,,,,,,,,,,,,,,,,,,,,,,,,,,,,,,,,,,,,125.0,200.0,200.0,125.0,141.0,141.0,2.1,2.11,-258,256,0,269,229,-261,545.8031697273254,545.8032491207123,545.806325674057,545.8193302154541,545.9692409038544,545.9692409038544,545.9692409038544,545.9692409038544,545.9692409038544,545.9692409038544,545.9692409038544,553.1561460494995,2,7.330940008163452,None,,,,,,,,,,,,,,,,,,163,4,2025-02-28_13h27.22.845,comp,2024.2.4,56.512994082329996,2025-02-28 13h27.32.695410 -0500,
101,101,0,filler_random,None,None,None,None,None,None,None,None,None,None,3,1.3939001560211182,None,,,,,0,0,0,0,0,101,101,137,553.1722776889801,,,,,,,,,,,,,,,,,,,,,,,,,,,,,,,,,,,,,,,,,,,,,,,,,,,,,,,,,,,,,,,,,,,,,,,,,,,,,,,,,,71.23836599211921,187.73519038359717,68.0834486114825,189.66338944661152,199.7795031224394,183.5947092289343,1.0,1.1,-765,270,-480,256,-197,285,553.1579253673553,553.1580641269684,553.1614918708801,553.1722776889801,553.3243057727814,553.3243057727814,553.3243057727814,553.3243057727814,553.3243057727814,553.3243057727814,553.3243057727814,554.5735402107239,3,1.3939001560211182,None,,,,,,,,,,,,,,,,,,163,4,2025-02-28_13h27.22.845,comp,2024.2.4,56.512994082329996,2025-02-28 13h27.32.695410 -0500,
102,102,0,critical,whd,35.0,3.0,upper,125.0,200.0,200.0,125.0,127.0,127.0,1,4.0264434814453125,None,,,,,0,0,0,0,0,102,102,87,554.5895202159882,,,,,,,,,,,,,,,,,,,,,,,,,,,,,,,,,,,,,,,,,,,,,,,,,,,,,,,,,,,,,,,,,,,,,,,,,,,,,,,,,,125.0,200.0,200.0,125.0,127.0,127.0,3.0,3.2,-258,-267,0,6,222,271,554.5753405094147,554.5754704475403,554.5788247585297,554.5895202159882,554.7416231632233,554.7416231632233,554.7416231632233,554.7416231632233,554.7416231632233,554.7416231632233,554.7416231632233,558.6208574771881,1,4.0264434814453125,None,,,,,,,,,,,,,,,,,,163,4,2025-02-28_13h27.22.845,comp,2024.2.4,56.512994082329996,2025-02-28 13h27.32.695410 -0500,
103,103,0,critical,hdw,20.0,3.0,upper,200.0,125.0,141.0,141.0,125.0,200.0,3,1.2011866569519043,None,,,,,0,0,0,0,0,103,103,117,558.636480808258,,,,,,,,,,,,,,,,,,,,,,,,,,,,,,,,,,,,,,,,,,,,,,,,,,,,,,,,,,,,,,,,,,,,,,,,,,,,,,,,,,200.0,125.0,141.0,141.0,125.0,200.0,3.0,3.1,-229,283,0,-5,266,-264,558.6224064826965,558.6224870681763,558.6254231929779,558.636480808258,558.7863674163818,558.7863674163818,558.7863674163818,558.7863674163818,558.7863674163818,558.7863674163818,558.7863674163818,559.8400316238403,3,1.2011866569519043,None,,,,,,,,,,,,,,,,,,163,4,2025-02-28_13h27.22.845,comp,2024.2.4,56.512994082329996,2025-02-28 13h27.32.695410 -0500,
104,104,0,critical,dwh,20.0,2.1,lower,78.0,78.0,57.0,133.0,133.0,57.0,2,3.2438740730285645,None,,,,,0,0,0,0,0,104,104,30,559.857980966568,,,,,,,,,,,,,,,,,,,,,,,,,,,,,,,,,,,,,,,,,,,,,,,,,,,,,,,,,,,,,,,,,,,,,,,,,,,,,,,,,,78.0,78.0,57.0,133.0,133.0,57.0,2.1,2.12,-202,-251,0,-276,191,274,559.8415627479553,559.8416383266449,559.8449840545654,559.857980966568,560.0064930915833,560.0064930915833,560.0064930915833,560.0064930915833,560.0064930915833,560.0064930915833,560.0064930915833,563.106522321701,2,3.2438740730285645,None,,,,,,,,,,,,,,,,,,163,4,2025-02-28_13h27.22.845,comp,2024.2.4,56.512994082329996,2025-02-28 13h27.32.695410 -0500,
105,105,0,critical,dwh,35.0,1.0,upper,127.0,127.0,125.0,200.0,200.0,125.0,3,3.2878806591033936,None,,,,,0,0,0,0,0,105,105,61,563.1267955303192,,,,,,,,,,,,,,,,,,,,,,,,,,,,,,,,,,,,,,,,,,,,,,,,,,,,,,,,,,,,,,,,,,,,,,,,,,,,,,,,,,127.0,127.0,125.0,200.0,200.0,125.0,1.0,1.3,220,-275,480,-270,738,-279,563.1080434322357,563.1081202030182,563.1111619472504,563.1267955303192,563.2743854522705,563.2743854522705,563.2743854522705,563.2743854522705,563.2743854522705,563.2743854522705,563.2743854522705,566.4264185428619,3,3.2878806591033936,None,,,,,,,,,,,,,,,,,,163,4,2025-02-28_13h27.22.845,comp,2024.2.4,56.512994082329996,2025-02-28 13h27.32.695410 -0500,
106,106,0,catch,None,None,None,None,None,None,None,None,None,None,2,1.4442148208618164,None,,,,,0,0,0,0,0,106,106,121,566.4422063827515,,,,,,,,,,,,,,,,,,,,,,,,,,,,,,,,,,,,,,,,,,,,,,,,,,,,,,,,,,,,,,,,,,,,,,,,,,,,,,,,,,69,121,167,158,132,58,2.2,2.22,-236,277,0,-282,204,-282,566.428386926651,566.4284648895264,566.4315898418427,566.4422063827515,566.5910964012146,566.5910964012146,566.5910964012146,566.5910964012146,566.5910964012146,566.5910964012146,566.5910964012146,567.8928015232086,2,1.4442148208618164,None,,,,,,,,,,,,,,,,,,163,4,2025-02-28_13h27.22.845,comp,2024.2.4,56.512994082329996,2025-02-28 13h27.32.695410 -0500,
107,107,0,critical,hwd,35.0,2.1,lower,133.0,57.0,57.0,133.0,70.0,70.0,2,4.4804487228393555,None,,,,,0,0,0,0,0,107,107,40,567.9093327522278,,,,,,,,,,,,,,,,,,,,,,,,,,,,,,,,,,,,,,,,,,,,,,,,,,,,,,,,,,,,,,,,,,,,,,,,,,,,,,,,,,133.0,57.0,57.0,133.0,70.0,70.0,2.1,2.12,-191,-289,0,-266,198,269,567.8944206237793,567.8945021629333,567.8985817432404,567.9093327522278,568.0609464645386,568.0609464645386,568.0609464645386,568.0609464645386,568.0609464645386,568.0609464645386,568.0609464645386,572.3921689987183,2,4.4804487228393555,None,,,,,,,,,,,,,,,,,,163,4,2025-02-28_13h27.22.845,comp,2024.2.4,56.512994082329996,2025-02-28 13h27.32.695410 -0500,
108,108,0,critical,whd,20.0,2.1,upper,125.0,200.0,200.0,125.0,141.0,141.0,2,3.604408025741577,None,,,,,0,0,0,0,0,108,108,15,572.4090623855591,,,,,,,,,,,,,,,,,,,,,,,,,,,,,,,,,,,,,,,,,,,,,,,,,,,,,,,,,,,,,,,,,,,,,,,,,,,,,,,,,,125.0,200.0,200.0,125.0,141.0,141.0,2.1,2.11,-258,252,0,274,229,-272,572.3937594890594,572.393839597702,572.3972539901733,572.4090623855591,572.5476109981537,572.5476109981537,572.5476109981537,572.5476109981537,572.5476109981537,572.5476109981537,572.5476109981537,576.0344159603119,2,3.604408025741577,None,,,,,,,,,,,,,,,,,,163,4,2025-02-28_13h27.22.845,comp,2024.2.4,56.512994082329996,2025-02-28 13h27.32.695410 -0500,
109,109,0,critical,whd,20.0,3.0,upper,125.0,200.0,200.0,125.0,141.0,141.0,3,1.1297540664672852,None,,,,,0,0,0,0,0,109,109,93,576.0518803596497,,,,,,,,,,,,,,,,,,,,,,,,,,,,,,,,,,,,,,,,,,,,,,,,,,,,,,,,,,,,,,,,,,,,,,,,,,,,,,,,,,125.0,200.0,200.0,125.0,141.0,141.0,3.0,3.1,-258,273,0,2,229,-262,576.0359904766083,576.0360698699951,576.0389778614044,576.0518803596497,576.1943116188049,576.1943116188049,576.1943116188049,576.1943116188049,576.1943116188049,576.1943116188049,576.1943116188049,577.1964604854584,3,1.1297540664672852,None,,,,,,,,,,,,,,,,,,163,4,2025-02-28_13h27.22.845,comp,2024.2.4,56.512994082329996,2025-02-28 13h27.32.695410 -0500,
110,110,0,critical,wdh,35.0,1.0,upper,125.0,200.0,127.0,127.0,200.0,125.0,3,3.1150920391082764,None,,,,,0,0,0,0,0,110,110,73,577.2110269069672,,,,,,,,,,,,,,,,,,,,,,,,,,,,,,,,,,,,,,,,,,,,,,,,,,,,,,,,,,,,,,,,,,,,,,,,,,,,,,,,,,125.0,200.0,127.0,127.0,200.0,125.0,1.0,1.3,220,-285,480,-264,702,-259,577.1980121135712,577.1981143951416,577.2015902996063,577.2110269069672,577.3503732681274,577.3503732681274,577.3503732681274,577.3503732681274,577.3503732681274,577.3503732681274,577.3503732681274,580.3456411361694,3,3.1150920391082764,None,,,,,,,,,,,,,,,,,,163,4,2025-02-28_13h27.22.845,comp,2024.2.4,56.512994082329996,2025-02-28 13h27.32.695410 -0500,
111,111,0,critical,whd,35.0,2.1,upper,125.0,200.0,200.0,125.0,127.0,127.0,2,4.083820581436157,None,,,,,0,0,0,0,0,111,111,37,580.361647605896,,,,,,,,,,,,,,,,,,,,,,,,,,,,,,,,,,,,,,,,,,,,,,,,,,,,,,,,,,,,,,,,,,,,,,,,,,,,,,,,,,125.0,200.0,200.0,125.0,127.0,127.0,2.1,2.12,-258,-254,0,-260,222,283,580.3472120761871,580.3472874164581,580.3506238460541,580.361647605896,580.5166850090027,580.5166850090027,580.5166850090027,580.5166850090027,580.5166850090027,580.5166850090027,580.5166850090027,584.4475674629211,2,4.083820581436157,None,,,,,,,,,,,,,,,,,,163,4,2025-02-28_13h27.22.845,comp,2024.2.4,56.512994082329996,2025-02-28 13h27.32.695410 -0500,
112,112,0,critical,dhw,20.0,2.1,lower,78.0,78.0,133.0,57.0,57.0,133.0,3,1.7824721336364746,None,,,,,0,0,0,0,0,112,112,2,584.4634404182434,,,,,,,,,,,,,,,,,,,,,,,,,,,,,,,,,,,,,,,,,,,,,,,,,,,,,,,,,,,,,,,,,,,,,,,,,,,,,,,,,,78.0,78.0,133.0,57.0,57.0,133.0,2.1,2.12,-164,-280,0,-254,191,255,584.4491858482361,584.4492642879486,584.4527397155762,584.4634404182434,584.6155488491058,584.6155488491058,584.6155488491058,584.6155488491058,584.6155488491058,584.6155488491058,584.6155488491058,586.2481744289398,3,1.7824721336364746,None,,,,,,,,,,,,,,,,,,163,4,2025-02-28_13h27.22.845,comp,2024.2.4,56.512994082329996,2025-02-28 13h27.32.695410 -0500,
113,113,0,critical,whd,35.0,1.0,upper,125.0,200.0,200.0,125.0,127.0,127.0,1,1.700615644454956,None,,,,,0,0,0,0,0,113,113,85,586.264931678772,,,,,,,,,,,,,,,,,,,,,,,,,,,,,,,,,,,,,,,,,,,,,,,,,,,,,,,,,,,,,,,,,,,,,,,,,,,,,,,,,,125.0,200.0,200.0,125.0,127.0,127.0,1.0,1.3,222,-263,480,-262,702,-262,586.2496564388275,586.2497327327728,586.2527937889099,586.264931678772,586.4263520240784,586.4263520240784,586.4263520240784,586.4263520240784,586.4263520240784,586.4263520240784,586.4263520240784,587.9848966598511,1,1.700615644454956,None,,,,,,,,,,,,,,,,,,163,4,2025-02-28_13h27.22.845,comp,2024.2.4,56.512994082329996,2025-02-28 13h27.32.695410 -0500,
114,114,0,filler_square,None,None,None,None,None,None,None,None,None,None,1,0.9459574222564697,None,,,,,0,0,0,0,0,114,114,183,588.0037624835968,,,,,,,,,,,,,,,,,,,,,,,,,,,,,,,,,,,,,,,,,,,,,,,,,,,,,,,,,,,,,,,,,,,,,,,,,,,,,,,,,,170.9629984550627,170.9629984550627,169.01659932434043,71.04627792756497,106.55147859347099,68.14182399988752,1.0,1.1,-697,279,-480,289,-314,287,587.9868030548096,587.9869201183319,587.9900059700012,588.0037624835968,588.1485035419464,588.1485035419464,588.1485035419464,588.1485035419464,588.1485035419464,588.1485035419464,588.1485035419464,588.9632775783539,1,0.9459574222564697,None,,,,,,,,,,,,,,,,,,163,4,2025-02-28_13h27.22.845,comp,2024.2.4,56.512994082329996,2025-02-28 13h27.32.695410 -0500,
115,115,0,filler_random,None,None,None,None,None,None,None,None,None,None,2,1.4345035552978516,None,,,,,0,0,0,0,0,115,115,135,588.9796457290649,,,,,,,,,,,,,,,,,,,,,,,,,,,,,,,,,,,,,,,,,,,,,,,,,,,,,,,,,,,,,,,,,,,,,,,,,,,,,,,,,,73.0409238058712,153.88557868601714,114.8759260112906,188.13910810130383,165.35780540158572,124.19780516428786,2.1,2.12,-267,-280,0,-266,252,278,588.9649817943573,588.9650602340698,588.9679946899414,588.9796457290649,589.1185581684113,589.1185581684113,589.1185581684113,589.1185581684113,589.1185581684113,589.1185581684113,589.1185581684113,590.4179606437683,2,1.4345035552978516,None,,,,,,,,,,,,,,,,,,163,4,2025-02-28_13h27.22.845,comp,2024.2.4,56.512994082329996,2025-02-28 13h27.32.695410 -0500,
116,116,0,critical,dwh,20.0,4.0,lower,78.0,78.0,57.0,133.0,133.0,57.0,2,3.1242876052856445,None,,,,,0,0,0,0,0,116,116,70,590.433958530426,,,,,,,,,,,,,,,,,,,,,,,,,,,,,,,,,,,,,,,,,,,,,,,,,,,,,,,,,,,,,,,,,,,,,,,,,,,,,,,,,,78.0,78.0,57.0,133.0,133.0,57.0,4.0,4.2,-202,-1,0,-253,191,-15,590.4197080135345,590.4198389053345,590.4232993125916,590.433958530426,590.5882244110107,590.5882244110107,590.5882244110107,590.5882244110107,590.5882244110107,590.5882244110107,590.5882244110107,593.5673563480377,2,3.1242876052856445,None,,,,,,,,,,,,,,,,,,163,4,2025-02-28_13h27.22.845,comp,2024.2.4,56.512994082329996,2025-02-28 13h27.32.695410 -0500,
117,117,0,filler_square,None,None,None,None,None,None,None,None,None,None,1,1.7099993228912354,None,,,,,0,0,0,0,0,117,117,187,593.5841588973999,,,,,,,,,,,,,,,,,,,,,,,,,,,,,,,,,,,,,,,,,,,,,,,,,,,,,,,,,,,,,,,,,,,,,,,,,,,,,,,,,,133.42818051196187,133.42818051196187,124.26796795734407,108.15001296378972,71.66899834416725,110.7764696267867,4.0,4.1,-217,-286,0,-1,205,-261,593.5692050457001,593.5692853927612,593.5733861923218,593.5841588973999,593.7327620983124,593.7327620983124,593.7327620983124,593.7327620983124,593.7327620983124,593.7327620983124,593.7327620983124,595.2984118461609,1,1.7099993228912354,None,,,,,,,,,,,,,,,,,,163,4,2025-02-28_13h27.22.845,comp,2024.2.4,56.512994082329996,2025-02-28 13h27.32.695410 -0500,
118,118,0,critical,hdw,35.0,2.1,upper,200.0,125.0,127.0,127.0,125.0,200.0,3,2.0749268531799316,None,,,,,0,0,0,0,0,118,118,45,595.3145477771759,,,,,,,,,,,,,,,,,,,,,,,,,,,,,,,,,,,,,,,,,,,,,,,,,,,,,,,,,,,,,,,,,,,,,,,,,,,,,,,,,,200.0,125.0,127.0,127.0,125.0,200.0,2.1,2.11,-222,288,0,266,260,-285,595.2999141216278,595.3000004291534,595.3028962612152,595.3145477771759,595.4506225585938,595.4506225585938,595.4506225585938,595.4506225585938,595.4506225585938,595.4506225585938,595.4506225585938,597.404904127121,3,2.0749268531799316,None,,,,,,,,,,,,,,,,,,163,4,2025-02-28_13h27.22.845,comp,2024.2.4,56.512994082329996,2025-02-28 13h27.32.695410 -0500,
119,119,0,filler_random,None,None,None,None,None,None,None,None,None,None,2,3.7980010509490967,None,,,,,0,0,0,0,0,119,119,156,597.4234981536865,,,,,,,,,,,,,,,,,,,,,,,,,,,,,,,,,,,,,,,,,,,,,,,,,,,,,,,,,,,,,,,,,,,,,,,,,,,,,,,,,,166.61527732134616,148.58450509577224,196.75149865021993,143.17297849043996,163.47555196075245,70.22416203082504,3.0,3.2,-242,-253,0,-4,203,285,597.407068490982,597.4072048664093,597.4103608131409,597.4234981536865,597.5682880878448,597.5682880878448,597.5682880878448,597.5682880878448,597.5682880878448,597.5682880878448,597.5682880878448,601.2350821495056,2,3.7980010509490967,None,,,,,,,,,,,,,,,,,,163,4,2025-02-28_13h27.22.845,comp,2024.2.4,56.512994082329996,2025-02-28 13h27.32.695410 -0500,
120,120,0,critical,dwh,35.0,2.1,lower,70.0,70.0,57.0,133.0,133.0,57.0,2,4.0186333656311035,None,,,,,0,0,0,0,0,120,120,4,601.2516040802002,,,,,,,,,,,,,,,,,,,,,,,,,,,,,,,,,,,,,,,,,,,,,,,,,,,,,,,,,,,,,,,,,,,,,,,,,,,,,,,,,,70.0,70.0,57.0,133.0,133.0,57.0,2.1,2.12,-198,-282,0,-266,191,253,601.2367293834686,601.2368488311768,601.2401609420776,601.2516040802002,601.3994553089142,601.3994553089142,601.3994553089142,601.3994553089142,601.3994553089142,601.3994553089142,601.3994553089142,605.2725067138672,2,4.0186333656311035,None,,,,,,,,,,,,,,,,,,163,4,2025-02-28_13h27.22.845,comp,2024.2.4,56.512994082329996,2025-02-28 13h27.32.695410 -0500,
121,121,0,catch,None,None,None,None,None,None,None,None,None,None,3,0.8120107650756836,None,,,,,0,0,0,0,0,121,121,120,605.2897670269012,,,,,,,,,,,,,,,,,,,,,,,,,,,,,,,,,,,,,,,,,,,,,,,,,,,,,,,,,,,,,,,,,,,,,,,,,,,,,,,,,,99,91,106,84,167,158,3.0,3.1,-184,276,0,-2,217,-275,605.2746682167053,605.2747504711151,605.2780487537384,605.2897670269012,605.4375922679901,605.4375922679901,605.4375922679901,605.4375922679901,605.4375922679901,605.4375922679901,605.4375922679901,606.1063253879547,3,0.8120107650756836,None,,,,,,,,,,,,,,,,,,163,4,2025-02-28_13h27.22.845,comp,2024.2.4,56.512994082329996,2025-02-28 13h27.32.695410 -0500,
122,122,0,critical,hwd,20.0,2.1,upper,200.0,125.0,125.0,200.0,141.0,141.0,2,4.1625330448150635,None,,,,,0,0,0,0,0,122,122,19,606.12309217453,,,,,,,,,,,,,,,,,,,,,,,,,,,,,,,,,,,,,,,,,,,,,,,,,,,,,,,,,,,,,,,,,,,,,,,,,,,,,,,,,,200.0,125.0,125.0,200.0,141.0,141.0,2.1,2.11,-258,289,0,268,266,-286,606.1080796718597,606.1081581115723,606.1115753650665,606.12309217453,606.270928144455,606.270928144455,606.270928144455,606.270928144455,606.270928144455,606.270928144455,606.270928144455,610.2902507781982,2,4.1625330448150635,None,,,,,,,,,,,,,,,,,,163,4,2025-02-28_13h27.22.845,comp,2024.2.4,56.512994082329996,2025-02-28 13h27.32.695410 -0500,
123,123,0,critical,wdh,20.0,2.1,lower,57.0,133.0,78.0,78.0,133.0,57.0,3,6.76328444480896,None,,,,,0,0,0,0,0,123,123,10,610.3063335418701,,,,,,,,,,,,,,,,,,,,,,,,,,,,,,,,,,,,,,,,,,,,,,,,,,,,,,,,,,,,,,,,,,,,,,,,,,,,,,,,,,57.0,133.0,78.0,78.0,133.0,57.0,2.1,2.11,-202,267,0,254,164,-281,610.2919464111328,610.2920260429382,610.2954919338226,610.3063335418701,610.4557943344116,610.4557943344116,610.4557943344116,610.4557943344116,610.4557943344116,610.4557943344116,610.4557943344116,617.0822732448578,3,6.76328444480896,None,,,,,,,,,,,,,,,,,,163,4,2025-02-28_13h27.22.845,comp,2024.2.4,56.512994082329996,2025-02-28 13h27.32.695410 -0500,
124,124,0,critical,dhw,35.0,4.0,upper,127.0,127.0,200.0,125.0,125.0,200.0,3,1.2381198406219482,None,,,,,0,0,0,0,0,124,124,53,617.0975904464722,,,,,,,,,,,,,,,,,,,,,,,,,,,,,,,,,,,,,,,,,,,,,,,,,,,,,,,,,,,,,,,,,,,,,,,,,,,,,,,,,,127.0,127.0,200.0,125.0,125.0,200.0,4.0,4.1,-222,-262,0,20,258,-261,617.0837798118591,617.0838570594788,617.0867474079132,617.0975904464722,617.2400577068329,617.2400577068329,617.2400577068329,617.2400577068329,617.2400577068329,617.2400577068329,617.2400577068329,618.3408169746399,3,1.2381198406219482,None,,,,,,,,,,,,,,,,,,163,4,2025-02-28_13h27.22.845,comp,2024.2.4,56.512994082329996,2025-02-28 13h27.32.695410 -0500,
125,125,0,filler_random,None,None,None,None,None,None,None,None,None,None,2,1.965235948562622,None,,,,,0,0,0,0,0,125,125,147,618.3603229522705,,,,,,,,,,,,,,,,,,,,,,,,,,,,,,,,,,,,,,,,,,,,,,,,,,,,,,,,,,,,,,,,,,,,,,,,,,,,,,,,,,96.93735222519236,121.88300490521492,100.85061208986104,126.58292981639528,139.59485736945177,76.02735053061636,2.1,2.11,-220,250,0,278,197,-253,618.3426189422607,618.3427498340607,618.3460502624512,618.3603229522705,618.5073294639587,618.5073294639587,618.5073294639587,618.5073294639587,618.5073294639587,618.5073294639587,618.5073294639587,620.3422358036041,2,1.965235948562622,None,,,,,,,,,,,,,,,,,,163,4,2025-02-28_13h27.22.845,comp,2024.2.4,56.512994082329996,2025-02-28 13h27.32.695410 -0500,
126,126,0,critical,hdw,35.0,2.1,lower,133.0,57.0,70.0,70.0,57.0,133.0,3,3.255516767501831,None,,,,,0,0,0,0,0,126,126,44,620.3579983711243,,,,,,,,,,,,,,,,,,,,,,,,,,,,,,,,,,,,,,,,,,,,,,,,,,,,,,,,,,,,,,,,,,,,,,,,,,,,,,,,,,133.0,57.0,70.0,70.0,57.0,133.0,2.1,2.11,-160,267,0,279,198,-274,620.3437268733978,620.3438029289246,620.347775220871,620.3579983711243,620.5073709487915,620.5073709487915,620.5073709487915,620.5073709487915,620.5073709487915,620.5073709487915,620.5073709487915,623.6285347938538,3,3.255516767501831,None,,,,,,,,,,,,,,,,,,163,4,2025-02-28_13h27.22.845,comp,2024.2.4,56.512994082329996,2025-02-28 13h27.32.695410 -0500,
127,127,0,filler_square,None,None,None,None,None,None,None,None,None,None,1,2.1165988445281982,None,,,,,0,0,0,0,0,127,127,171,623.648891210556,,,,,,,,,,,,,,,,,,,,,,,,,,,,,,,,,,,,,,,,,,,,,,,,,,,,,,,,,,,,,,,,,,,,,,,,,,,,,,,,,,85.7482821110652,85.7482821110652,58.86433045948911,70.55134987263828,63.20357207776491,80.77000344201535,2.1,2.12,-174,-262,0,-288,172,251,623.630378484726,623.6304774284363,623.6335380077362,623.648891210556,623.7951622009277,623.7951622009277,623.7951622009277,623.7951622009277,623.7951622009277,623.7951622009277,623.7951622009277,625.7760605812073,1,2.1165988445281982,None,,,,,,,,,,,,,,,,,,163,4,2025-02-28_13h27.22.845,comp,2024.2.4,56.512994082329996,2025-02-28 13h27.32.695410 -0500,
128,128,0,critical,wdh,20.0,2.1,upper,125.0,200.0,141.0,141.0,200.0,125.0,1,5.220889568328857,None,,,,,0,0,0,0,0,128,128,11,625.7927355766296,,,,,,,,,,,,,,,,,,,,,,,,,,,,,,,,,,,,,,,,,,,,,,,,,,,,,,,,,,,,,,,,,,,,,,,,,,,,,,,,,,125.0,200.0,141.0,141.0,200.0,125.0,2.1,2.11,-266,284,0,285,229,-261,625.7776529788971,625.777745962143,625.7810847759247,625.7927355766296,625.9534204006195,625.9534204006195,625.9534204006195,625.9534204006195,625.9534204006195,625.9534204006195,625.9534204006195,631.031304359436,1,5.220889568328857,None,,,,,,,,,,,,,,,,,,163,4,2025-02-28_13h27.22.845,comp,2024.2.4,56.512994082329996,2025-02-28 13h27.32.695410 -0500,
129,129,0,critical,hwd,35.0,2.1,upper,200.0,125.0,125.0,200.0,127.0,127.0,2,3.806711196899414,None,,,,,0,0,0,0,0,129,129,17,631.0476939678192,,,,,,,,,,,,,,,,,,,,,,,,,,,,,,,,,,,,,,,,,,,,,,,,,,,,,,,,,,,,,,,,,,,,,,,,,,,,,,,,,,200.0,125.0,125.0,200.0,127.0,127.0,2.1,2.12,-258,-287,0,-261,260,285,631.0332901477814,631.0334298610687,631.0366010665894,631.0476939678192,631.1952948570251,631.1952948570251,631.1952948570251,631.1952948570251,631.1952948570251,631.1952948570251,631.1952948570251,634.8624939918518,2,3.806711196899414,None,,,,,,,,,,,,,,,,,,163,4,2025-02-28_13h27.22.845,comp,2024.2.4,56.512994082329996,2025-02-28 13h27.32.695410 -0500,
130,130,0,filler_random,None,None,None,None,None,None,None,None,None,None,3,1.3903543949127197,None,,,,,0,0,0,0,0,130,130,143,634.8792960643768,,,,,,,,,,,,,,,,,,,,,,,,,,,,,,,,,,,,,,,,,,,,,,,,,,,,,,,,,,,,,,,,,,,,,,,,,,,,,,,,,,58.039018624474146,179.8547685574552,134.54271242967314,128.71908824134226,161.42510108639277,198.15037411741073,1.0,1.3,230,-251,480,-288,739,-271,634.8644208908081,634.8645014762878,634.8677411079407,634.8792960643768,635.0364902019501,635.0364902019501,635.0364902019501,635.0364902019501,635.0364902019501,635.0364902019501,635.0364902019501,636.2790489196777,3,1.3903543949127197,None,,,,,,,,,,,,,,,,,,163,4,2025-02-28_13h27.22.845,comp,2024.2.4,56.512994082329996,2025-02-28 13h27.32.695410 -0500,
131,131,0,filler_square,None,None,None,None,None,None,None,None,None,None,2,2.270142078399658,None,,,,,0,0,0,0,0,131,131,204,636.2955119609833,,,,,,,,,,,,,,,,,,,,,,,,,,,,,,,,,,,,,,,,,,,,,,,,,,,,,,,,,,,,,,,,,,,,,,,,,,,,,,,,,,100.6882868290678,104.4915720611329,128.54198398201504,128.54198398201504,107.59469496239939,100.2773635505697,4.0,4.1,-213,-261,0,-4,210,-285,636.2807455062866,636.2808270454407,636.2838280200958,636.2955119609833,636.4493944644928,636.4493944644928,636.4493944644928,636.4493944644928,636.4493944644928,636.4493944644928,636.4493944644928,638.5810036659241,2,2.270142078399658,None,,,,,,,,,,,,,,,,,,163,4,2025-02-28_13h27.22.845,comp,2024.2.4,56.512994082329996,2025-02-28 13h27.32.695410 -0500,
132,132,0,filler_square,None,None,None,None,None,None,None,None,None,None,1,1.336899757385254,None,,,,,0,0,0,0,0,132,132,185,638.5965843200684,,,,,,,,,,,,,,,,,,,,,,,,,,,,,,,,,,,,,,,,,,,,,,,,,,,,,,,,,,,,,,,,,,,,,,,,,,,,,,,,,,165.96533799384224,165.96533799384224,101.99414639762918,84.91568545536335,147.8965106066181,139.45690026407343,2.1,2.11,-221,285,0,251,208,-285,638.5828282833099,638.5829401016235,638.5863523483276,638.5965843200684,638.746021270752,638.746021270752,638.746021270752,638.746021270752,638.746021270752,638.746021270752,638.746021270752,639.9475235939026,1,1.336899757385254,None,,,,,,,,,,,,,,,,,,163,4,2025-02-28_13h27.22.845,comp,2024.2.4,56.512994082329996,2025-02-28 13h27.32.695410 -0500,
133,133,0,critical,hdw,35.0,3.0,upper,200.0,125.0,127.0,127.0,125.0,200.0,3,1.480950117111206,None,,,,,0,0,0,0,0,133,133,111,639.9645211696625,,,,,,,,,,,,,,,,,,,,,,,,,,,,,,,,,,,,,,,,,,,,,,,,,,,,,,,,,,,,,,,,,,,,,,,,,,,,,,,,,,200.0,125.0,127.0,127.0,125.0,200.0,3.0,3.1,-222,254,0,-9,260,-263,639.9491446018219,639.9492235183716,639.9530131816864,639.9645211696625,640.1160418987274,640.1160418987274,640.1160418987274,640.1160418987274,640.1160418987274,640.1160418987274,640.1160418987274,641.4494965076447,3,1.480950117111206,None,,,,,,,,,,,,,,,,,,163,4,2025-02-28_13h27.22.845,comp,2024.2.4,56.512994082329996,2025-02-28 13h27.32.695410 -0500,
134,134,0,catch,None,None,None,None,None,None,None,None,None,None,2,1.403846025466919,None,,,,,0,0,0,0,0,134,134,124,641.4661128520966,,,,,,,,,,,,,,,,,,,,,,,,,,,,,,,,,,,,,,,,,,,,,,,,,,,,,,,,,,,,,,,,,,,,,,,,,,,,,,,,,,76,114,187,138,127,63,1.0,1.2,-222,7,0,-16,196,12,641.4513969421387,641.451477766037,641.4555191993713,641.4661128520966,641.6183514595032,641.6183514595032,641.6183514595032,641.6183514595032,641.6183514595032,641.6183514595032,641.6183514595032,642.8741250038147,2,1.403846025466919,None,,,,,,,,,,,,,,,,,,163,4,2025-02-28_13h27.22.845,comp,2024.2.4,56.512994082329996,2025-02-28 13h27.32.695410 -0500,
135,135,0,critical,hwd,35.0,3.0,upper,200.0,125.0,125.0,200.0,127.0,127.0,2,3.1450846195220947,None,,,,,0,0,0,0,0,135,135,99,642.8925170898438,,,,,,,,,,,,,,,,,,,,,,,,,,,,,,,,,,,,,,,,,,,,,,,,,,,,,,,,,,,,,,,,,,,,,,,,,,,,,,,,,,200.0,125.0,125.0,200.0,127.0,127.0,3.0,3.2,-258,-262,0,-11,260,264,642.8756058216095,642.8756875991821,642.8785650730133,642.8925170898438,643.032958984375,643.032958984375,643.032958984375,643.032958984375,643.032958984375,643.032958984375,643.032958984375,646.0522840023041,2,3.1450846195220947,None,,,,,,,,,,,,,,,,,,163,4,2025-02-28_13h27.22.845,comp,2024.2.4,56.512994082329996,2025-02-28 13h27.32.695410 -0500,
136,136,0,filler_square,None,None,None,None,None,None,None,None,None,None,1,2.5936801433563232,None,,,,,0,0,0,0,0,136,136,200,646.0685098171234,,,,,,,,,,,,,,,,,,,,,,,,,,,,,,,,,,,,,,,,,,,,,,,,,,,,,,,,,,,,,,,,,,,,,,,,,,,,,,,,,,117.31987755679043,117.31987755679043,96.03840941021718,87.62361423073686,68.239738766954,97.10230883678946,2.1,2.12,-198,-279,0,-286,188,259,646.0543723106384,646.0544557571411,646.0581367015839,646.0685098171234,646.2160427570343,646.2160427570343,646.2160427570343,646.2160427570343,646.2160427570343,646.2160427570343,646.2160427570343,648.6664929389954,1,2.5936801433563232,None,,,,,,,,,,,,,,,,,,163,4,2025-02-28_13h27.22.845,comp,2024.2.4,56.512994082329996,2025-02-28 13h27.32.695410 -0500,
137,137,0,critical,wdh,35.0,1.0,lower,57.0,133.0,70.0,70.0,133.0,57.0,1,3.502819299697876,None,,,,,0,0,0,0,0,137,137,72,648.686764717102,,,,,,,,,,,,,,,,,,,,,,,,,,,,,,,,,,,,,,,,,,,,,,,,,,,,,,,,,,,,,,,,,,,,,,,,,,,,,,,,,,57.0,133.0,70.0,70.0,133.0,57.0,1.0,1.2,-198,8,0,5,160,19,648.6679973602295,648.6680755615234,648.6711418628693,648.686764717102,648.8460958003998,648.8460958003998,648.8460958003998,648.8460958003998,648.8460958003998,648.8460958003998,648.8460958003998,652.2003312110901,1,3.502819299697876,None,,,,,,,,,,,,,,,,,,163,4,2025-02-28_13h27.22.845,comp,2024.2.4,56.512994082329996,2025-02-28 13h27.32.695410 -0500,
138,138,0,filler_random,None,None,None,None,None,None,None,None,None,None,3,1.3733162879943848,None,,,,,0,0,0,0,0,138,138,160,652.2169351577759,,,,,,,,,,,,,,,,,,,,,,,,,,,,,,,,,,,,,,,,,,,,,,,,,,,,,,,,,,,,,,,,,,,,,,,,,,,,,,,,,,69.82362143854186,84.37281807297954,140.3938037099181,60.594024464206086,164.1475421574698,131.06731425052038,2.1,2.12,-168,-253,0,-273,192,281,652.2020785808563,652.2021586894989,652.205160856247,652.2169351577759,652.3659436702728,652.3659436702728,652.3659436702728,652.3659436702728,652.3659436702728,652.3659436702728,652.3659436702728,653.5953195095062,3,1.3733162879943848,None,,,,,,,,,,,,,,,,,,163,4,2025-02-28_13h27.22.845,comp,2024.2.4,56.512994082329996,2025-02-28 13h27.32.695410 -0500,
139,139,0,filler_random,None,None,None,None,None,None,None,None,None,None,2,4.474656105041504,None,,,,,0,0,0,0,0,139,139,139,653.611736536026,,,,,,,,,,,,,,,,,,,,,,,,,,,,,,,,,,,,,,,,,,,,,,,,,,,,,,,,,,,,,,,,,,,,,,,,,,,,,,,,,,92.95849660096738,108.85733768872409,182.11110946250574,183.5760606309554,130.58384927579937,196.82673530602142,2.1,2.11,-242,272,0,264,286,-261,653.5970656871796,653.5971455574036,653.6000967025757,653.611736536026,653.7509996891022,653.7509996891022,653.7509996891022,653.7509996891022,653.7509996891022,653.7509996891022,653.7509996891022,658.0914282798767,2,4.474656105041504,None,,,,,,,,,,,,,,,,,,163,4,2025-02-28_13h27.22.845,comp,2024.2.4,56.512994082329996,2025-02-28 13h27.32.695410 -0500,
140,140,0,critical,hdw,20.0,4.0,lower,133.0,57.0,78.0,78.0,57.0,133.0,3,7.115514516830444,None,,,,,0,0,0,0,0,140,140,118,658.1065301895142,,,,,,,,,,,,,,,,,,,,,,,,,,,,,,,,,,,,,,,,,,,,,,,,,,,,,,,,,,,,,,,,,,,,,,,,,,,,,,,,,,133.0,57.0,78.0,78.0,57.0,133.0,4.0,4.1,-164,-286,0,-17,202,-254,658.092903137207,658.0929865837097,658.0958523750305,658.1065301895142,658.2531049251556,658.2531049251556,658.2531049251556,658.2531049251556,658.2531049251556,658.2531049251556,658.2531049251556,665.2295687198639,3,7.115514516830444,None,,,,,,,,,,,,,,,,,,163,4,2025-02-28_13h27.22.845,comp,2024.2.4,56.512994082329996,2025-02-28 13h27.32.695410 -0500,
