thisN,thisTrialN,thisRepN,effect,order,distance,config,diag,h_1,w_1,h_2,w_2,h_3,w_3,rect_choice.keys,rect_choice.rt,rect_choice.duration,instructions_loop.thisRepN,instructions_loop.thisTrialN,instructions_loop.thisN,instructions_loop.thisIndex,blocks.thisRepN,blocks.thisTrialN,blocks.thisN,blocks.thisIndex,trials.thisRepN,trials.thisTrialN,trials.thisN,trials.thisIndex,thisRow.t,notes,consent.started,agree_button.started,decline_button.started,consent_img.started,mouse.started,consent.stopped,agree_button.numClicks,agree_button.timesOn,agree_button.timesOff,decline_button.numClicks,decline_button.timesOn,decline_button.timesOff,mouse.x,mouse.y,mouse.leftButton,mouse.midButton,mouse.rightButton,mouse.time,mouse.clicked_name,exp_params.started,exp_params.stopped,welcome.started,welcome_text.started,welcome.stopped,instructions_1.started,instructions_1_text_1.started,instructions_1_text_2.started,key_resp.started,instructions_1.stopped,instructions_loop.key_resp.keys,instructions_loop.key_resp.rt,instructions_loop.key_resp.duration,instructions_2.started,instructions_2_text_1.started,instructions_2_text_2.started,key_resp_2.started,instructions_2.stopped,instructions_loop.key_resp_2.keys,instructions_loop.key_resp_2.rt,instructions_loop.key_resp_2.duration,instructions_3.started,instructions_3_text_1.started,r1_instr3.started,r2_instr3.started,r3_instr3.started,r1_instr3_label.started,r2_instr3_label.started,r3_instr3_label.started,instructions_3_text_3.started,instructions_3_text_4.started,key_resp_3.started,instructions_3.stopped,instructions_loop.key_resp_3.keys,instructions_loop.key_resp_3.rt,instructions_loop.key_resp_3.duration,instructions_4.started,instructions_4_text_1.started,instructions_4_text_3.started,instructions_4_text_2.started,key_resp_4.started,instructions_4.stopped,instructions_loop.key_resp_4.keys,instructions_loop.key_resp_4.rt,instructions_loop.key_resp_4.duration,instructions_5.started,instructions_5_text_1.started,instructions_5_text_2.started,key_resp_5.started,instructions_5.stopped,instructions_loop.key_resp_5.keys,instructions_loop.key_resp_5.rt,instructions_loop.key_resp_5.duration,start_exp.started,start_exp_text.started,key_resp_6.started,start_exp.stopped,key_resp_6.keys,key_resp_6.rt,key_resp_6.duration,h_1_tmp,w_1_tmp,h_2_tmp,w_2_tmp,h_3_tmp,w_3_tmp,config_tmp,config_tmp_1,r_1_x,r_1_y,r_2_x,r_2_y,r_3_x,r_3_y,pre_trial.started,pre_trial.stopped,choice_trial.started,rect_choice.started,r_1.started,r_2.started,r_3.started,r_1_label.started,r_2_label.started,r_3_label.started,prompt.started,choice_trial.stopped,trials.rect_choice.keys,trials.rect_choice.rt,trials.rect_choice.duration,end_block.started,end_block_text.started,end_block.stopped,end.started,end_text.started,key_resp_7.started,end.stopped,key_resp_7.keys,key_resp_7.rt,key_resp_7.duration,debriefing.started,debrief_form.started,end_debrief.started,debriefing.stopped,end_debrief.keys,end_debrief.rt,end_debrief.duration,participant,computer,date,expName,psychopyVersion,frameRate,expStart,
,,,,,,,,,,,,,,,,,,,,,,,,,,,,,,,0.015568971633911133,0.04193449020385742,0.04193449020385742,0.04193449020385742,0.015171051025390625,8.109913349151611,1,[8.066686868667603],[8.066697835922241],0,,,[-73.0],[-515.0],[1],[0],[0],[8.093620300292969],['agree_button'],,,,,,,,,,,,,,,,,,,,,,,,,,,,,,,,,,,,,,,,,,,,,,,,,,,,,,,,,,,,,,,,,,,,,,,,,,,,,,,,,,,,,,,,,,,,,,,,,,,,,,,,,,,164,5,2025-02-28_13h26.55.296,comp,2024.2.4,60.078781437374495,2025-02-28 13h27.07.237977 -0500,
,,,,,,,,,,,,,,,,,,,,,,,,,,,,,,,,,,,,,,,,,,,,,,,,,,8.11020565032959,8.110240459442139,,,,,,,,,,,,,,,,,,,,,,,,,,,,,,,,,,,,,,,,,,,,,,,,,,,,,,,,,,,,,,,,,,,,,,,,,,,,,,,,,,,,,,,,,,,,,,,,,,,,,,,,,164,5,2025-02-28_13h26.55.296,comp,2024.2.4,60.078781437374495,2025-02-28 13h27.07.237977 -0500,
,,,,,,,,,,,,,,,,,,,,,,,,,,,,,,,,,,,,,,,,,,,,,,,,,,,,8.110263109207153,8.123730659484863,10.11169719696045,,,,,,,,,,,,,,,,,,,,,,,,,,,,,,,,,,,,,,,,,,,,,,,,,,,,,,,,,,,,,,,,,,,,,,,,,,,,,,,,,,,,,,,,,,,,,,,,,,,,,,164,5,2025-02-28_13h26.55.296,comp,2024.2.4,60.078781437374495,2025-02-28 13h27.07.237977 -0500,
0,0,0,,,,,,,,,,,,,,,0,0,0,0,,,,,,,,,10.128638744354248,,,,,,,,,,,,,,,,,,,,,,,,,,10.112233638763428,10.128638744354248,10.128638744354248,11.611665964126587,13.163152933120728,space,1.5447776317596436,None,13.163227796554565,13.17904257774353,13.17904257774353,14.67845368385315,15.062707662582397,space,0.36684465408325195,None,15.062788486480713,15.084540367126465,15.084540367126465,15.084540367126465,15.084540367126465,15.084540367126465,15.084540367126465,15.084540367126465,15.084540367126465,15.084540367126465,16.562081336975098,19.31356430053711,space,2.748049259185791,None,19.313649892807007,19.329041481018066,19.329041481018066,19.329041481018066,20.82841205596924,22.596184492111206,space,1.7510499954223633,None,22.596267223358154,22.61180353164673,22.61180353164673,24.1116201877594,25.995991706848145,space,1.8768208026885986,None,25.996103525161743,26.01184844970703,26.01184844970703,26.96251940727234,space,0.935553789138794,None,,,,,,,,,,,,,,,,,,,,,,,,,,,,,,,,,,,,,,,,,,,,,,,164,5,2025-02-28_13h26.55.296,comp,2024.2.4,60.078781437374495,2025-02-28 13h27.07.237977 -0500,
0,0,0,critical,wdh,20.0,4.0,lower,57.0,133.0,78.0,78.0,133.0,57.0,2,14.96652889251709,None,,,,,0,0,0,0,0,0,0,82,27.02184820175171,,,,,,,,,,,,,,,,,,,,,,,,,,,,,,,,,,,,,,,,,,,,,,,,,,,,,,,,,,,,,,,,,,,,,,,,,,,,,,,,,57.0,133.0,78.0,78.0,133.0,57.0,4.0,4.1,-202,-284,0,9,164,-288,27.008172512054443,27.008217811584473,27.010408878326416,27.02184820175171,27.166728734970093,27.166728734970093,27.166728734970093,27.166728734970093,27.166728734970093,27.166728734970093,27.166728734970093,41.99624705314636,2,14.96652889251709,None,,,,,,,,,,,,,,,,,,164,5,2025-02-28_13h26.55.296,comp,2024.2.4,60.078781437374495,2025-02-28 13h27.07.237977 -0500,
1,1,0,filler_square,None,None,None,None,None,None,None,None,None,None,3,4.624672174453735,None,,,,,0,0,0,0,0,1,1,187,42.011900424957275,,,,,,,,,,,,,,,,,,,,,,,,,,,,,,,,,,,,,,,,,,,,,,,,,,,,,,,,,,,,,,,,,,,,,,,,,,,,,,,,,65.03752514118835,64.75914541441716,68.00240243181727,60.109709629531075,69.2720863436452,69.2720863436452,3.0,3.1,-158,260,0,2,161,-264,41.997251987457275,41.99729323387146,41.99963331222534,42.011900424957275,42.16157817840576,42.16157817840576,42.16157817840576,42.16157817840576,42.16157817840576,42.16157817840576,42.16157817840576,46.645907163619995,3,4.624672174453735,None,,,,,,,,,,,,,,,,,,164,5,2025-02-28_13h26.55.296,comp,2024.2.4,60.078781437374495,2025-02-28 13h27.07.237977 -0500,
2,2,0,critical,hdw,35.0,2.1,lower,133.0,57.0,70.0,70.0,57.0,133.0,3,3.9426896572113037,None,,,,,0,0,0,0,0,2,2,20,46.661664724349976,,,,,,,,,,,,,,,,,,,,,,,,,,,,,,,,,,,,,,,,,,,,,,,,,,,,,,,,,,,,,,,,,,,,,,,,,,,,,,,,,133.0,57.0,70.0,70.0,57.0,133.0,2.1,2.12,-160,-270,0,-280,198,259,46.64671564102173,46.64675569534302,46.64894676208496,46.661664724349976,46.81161022186279,46.81161022186279,46.81161022186279,46.81161022186279,46.81161022186279,46.81161022186279,46.81161022186279,50.6127552986145,3,3.9426896572113037,None,,,,,,,,,,,,,,,,,,164,5,2025-02-28_13h26.55.296,comp,2024.2.4,60.078781437374495,2025-02-28 13h27.07.237977 -0500,
3,3,0,critical,hwd,20.0,1.0,lower,133.0,57.0,57.0,133.0,78.0,78.0,3,6.295799016952515,None,,,,,0,0,0,0,0,3,3,102,50.62844944000244,,,,,,,,,,,,,,,,,,,,,,,,,,,,,,,,,,,,,,,,,,,,,,,,,,,,,,,,,,,,,,,,,,,,,,,,,,,,,,,,,133.0,57.0,57.0,133.0,78.0,78.0,1.0,1.3,289,-285,480,-251,682,-257,50.6136040687561,50.61364388465881,50.61561441421509,50.62844944000244,50.77809548377991,50.77809548377991,50.77809548377991,50.77809548377991,50.77809548377991,50.77809548377991,50.77809548377991,56.92929673194885,3,6.295799016952515,None,,,,,,,,,,,,,,,,,,164,5,2025-02-28_13h26.55.296,comp,2024.2.4,60.078781437374495,2025-02-28 13h27.07.237977 -0500,
4,4,0,critical,whd,35.0,1.0,upper,125.0,200.0,200.0,125.0,127.0,127.0,2,3.827064275741577,None,,,,,0,0,0,0,0,4,4,85,56.94491910934448,,,,,,,,,,,,,,,,,,,,,,,,,,,,,,,,,,,,,,,,,,,,,,,,,,,,,,,,,,,,,,,,,,,,,,,,,,,,,,,,,125.0,200.0,200.0,125.0,127.0,127.0,1.0,1.2,-258,12,0,-18,222,16,56.93020939826965,56.9302499294281,56.93273687362671,56.94491910934448,57.09505748748779,57.09505748748779,57.09505748748779,57.09505748748779,57.09505748748779,57.09505748748779,57.09505748748779,60.779541015625,2,3.827064275741577,None,,,,,,,,,,,,,,,,,,164,5,2025-02-28_13h26.55.296,comp,2024.2.4,60.078781437374495,2025-02-28 13h27.07.237977 -0500,
5,5,0,critical,hwd,20.0,2.1,upper,200.0,125.0,125.0,200.0,141.0,141.0,1,13.94463038444519,None,,,,,0,0,0,0,0,5,5,19,60.79508423805237,,,,,,,,,,,,,,,,,,,,,,,,,,,,,,,,,,,,,,,,,,,,,,,,,,,,,,,,,,,,,,,,,,,,,,,,,,,,,,,,,200.0,125.0,125.0,200.0,141.0,141.0,2.1,2.11,-258,251,0,278,266,-250,60.78035569190979,60.78039574623108,60.782835960388184,60.79508423805237,60.94513511657715,60.94513511657715,60.94513511657715,60.94513511657715,60.94513511657715,60.94513511657715,60.94513511657715,74.74603462219238,1,13.94463038444519,None,,,,,,,,,,,,,,,,,,164,5,2025-02-28_13h26.55.296,comp,2024.2.4,60.078781437374495,2025-02-28 13h27.07.237977 -0500,
6,6,0,critical,dhw,20.0,4.0,upper,141.0,141.0,200.0,125.0,125.0,200.0,3,3.5698370933532715,None,,,,,0,0,0,0,0,6,6,59,74.76153182983398,,,,,,,,,,,,,,,,,,,,,,,,,,,,,,,,,,,,,,,,,,,,,,,,,,,,,,,,,,,,,,,,,,,,,,,,,,,,,,,,,141.0,141.0,200.0,125.0,125.0,200.0,4.0,4.2,-229,11,0,-285,258,5,74.74679040908813,74.74682998657227,74.74877429008484,74.76153182983398,74.91153120994568,74.91153120994568,74.91153120994568,74.91153120994568,74.91153120994568,74.91153120994568,74.91153120994568,78.34599018096924,3,3.5698370933532715,None,,,,,,,,,,,,,,,,,,164,5,2025-02-28_13h26.55.296,comp,2024.2.4,60.078781437374495,2025-02-28 13h27.07.237977 -0500,
7,7,0,critical,hdw,20.0,4.0,upper,200.0,125.0,141.0,141.0,125.0,200.0,3,2.7171072959899902,None,,,,,0,0,0,0,0,7,7,119,78.36116981506348,,,,,,,,,,,,,,,,,,,,,,,,,,,,,,,,,,,,,,,,,,,,,,,,,,,,,,,,,,,,,,,,,,,,,,,,,,,,,,,,,200.0,125.0,141.0,141.0,125.0,200.0,4.0,4.1,-229,-257,0,9,266,-274,78.3467812538147,78.34682059288025,78.34905004501343,78.36116981506348,78.51152634620667,78.51152634620667,78.51152634620667,78.51152634620667,78.51152634620667,78.51152634620667,78.51152634620667,81.07961773872375,3,2.7171072959899902,None,,,,,,,,,,,,,,,,,,164,5,2025-02-28_13h26.55.296,comp,2024.2.4,60.078781437374495,2025-02-28 13h27.07.237977 -0500,
8,8,0,filler_random,None,None,None,None,None,None,None,None,None,None,1,1.4044718742370605,None,,,,,0,0,0,0,0,8,8,146,81.09481477737427,,,,,,,,,,,,,,,,,,,,,,,,,,,,,,,,,,,,,,,,,,,,,,,,,,,,,,,,,,,,,,,,,,,,,,,,,,,,,,,,,174.66673722522927,163.43605012229523,91.03492742974191,193.76771512418208,106.58511178077077,117.097754834722,3.0,3.2,-275,-265,0,9,251,288,81.08065223693848,81.0806930065155,81.0828492641449,81.09481477737427,81.24471402168274,81.24471402168274,81.24471402168274,81.24471402168274,81.24471402168274,81.24471402168274,81.24471402168274,82.51253771781921,1,1.4044718742370605,None,,,,,,,,,,,,,,,,,,164,5,2025-02-28_13h26.55.296,comp,2024.2.4,60.078781437374495,2025-02-28 13h27.07.237977 -0500,
9,9,0,filler_square,None,None,None,None,None,None,None,None,None,None,1,1.308495044708252,None,,,,,0,0,0,0,0,9,9,200,82.527836561203,,,,,,,,,,,,,,,,,,,,,,,,,,,,,,,,,,,,,,,,,,,,,,,,,,,,,,,,,,,,,,,,,,,,,,,,,,,,,,,,,195.10621781261952,195.10621781261952,139.3974922951619,139.88296027724465,142.6380933181198,106.4203885173725,1.0,1.3,217,-276,480,-263,699,-253,82.5134665966034,82.51350545883179,82.51591420173645,82.527836561203,82.67815136909485,82.67815136909485,82.67815136909485,82.67815136909485,82.67815136909485,82.67815136909485,82.67815136909485,83.84668636322021,1,1.308495044708252,None,,,,,,,,,,,,,,,,,,164,5,2025-02-28_13h26.55.296,comp,2024.2.4,60.078781437374495,2025-02-28 13h27.07.237977 -0500,
10,10,0,filler_random,None,None,None,None,None,None,None,None,None,None,3,1.9094350337982178,None,,,,,0,0,0,0,0,10,10,163,83.8623354434967,,,,,,,,,,,,,,,,,,,,,,,,,,,,,,,,,,,,,,,,,,,,,,,,,,,,,,,,,,,,,,,,,,,,,,,,,,,,,,,,,66.06322863078641,63.46803409826407,190.84500698335518,102.18373439210092,199.39758662731478,167.98689725059506,2.1,2.11,-179,257,0,260,231,-257,83.84760284423828,83.8476414680481,83.84957575798035,83.8623354434967,84.01151728630066,84.01151728630066,84.01151728630066,84.01151728630066,84.01151728630066,84.01151728630066,84.01151728630066,85.7794497013092,3,1.9094350337982178,None,,,,,,,,,,,,,,,,,,164,5,2025-02-28_13h26.55.296,comp,2024.2.4,60.078781437374495,2025-02-28 13h27.07.237977 -0500,
11,11,0,filler_square,None,None,None,None,None,None,None,None,None,None,2,1.624870777130127,None,,,,,0,0,0,0,0,11,11,197,85.79480338096619,,,,,,,,,,,,,,,,,,,,,,,,,,,,,,,,,,,,,,,,,,,,,,,,,,,,,,,,,,,,,,,,,,,,,,,,,,,,,,,,,70.45952032957643,72.3184726056155,74.40875300356359,74.40875300356359,67.05006100525587,63.57931894908285,4.0,4.1,-169,-288,0,-10,165,-274,85.78042674064636,85.78046655654907,85.78281307220459,85.79480338096619,85.94448328018188,85.94448328018188,85.94448328018188,85.94448328018188,85.94448328018188,85.94448328018188,85.94448328018188,87.42900943756104,2,1.624870777130127,None,,,,,,,,,,,,,,,,,,164,5,2025-02-28_13h26.55.296,comp,2024.2.4,60.078781437374495,2025-02-28 13h27.07.237977 -0500,
12,12,0,filler_random,None,None,None,None,None,None,None,None,None,None,2,2.3834404945373535,None,,,,,0,0,0,0,0,12,12,159,87.44472599029541,,,,,,,,,,,,,,,,,,,,,,,,,,,,,,,,,,,,,,,,,,,,,,,,,,,,,,,,,,,,,,,,,,,,,,,,,,,,,,,,,65.61298532571448,114.07505627102924,118.1031305840584,71.82794548424559,60.12212270458863,137.389148754302,2.1,2.12,-189,-253,0,-283,201,267,87.42991328239441,87.42995572090149,87.43234300613403,87.44472599029541,87.59470510482788,87.59470510482788,87.59470510482788,87.59470510482788,87.59470510482788,87.59470510482788,87.59470510482788,89.84570384025574,2,2.3834404945373535,None,,,,,,,,,,,,,,,,,,164,5,2025-02-28_13h26.55.296,comp,2024.2.4,60.078781437374495,2025-02-28 13h27.07.237977 -0500,
13,13,0,critical,hdw,35.0,1.0,lower,133.0,57.0,70.0,70.0,57.0,133.0,3,4.447749853134155,None,,,,,0,0,0,0,0,13,13,108,89.86124730110168,,,,,,,,,,,,,,,,,,,,,,,,,,,,,,,,,,,,,,,,,,,,,,,,,,,,,,,,,,,,,,,,,,,,,,,,,,,,,,,,,133.0,57.0,70.0,70.0,57.0,133.0,1.0,1.3,320,-278,480,-269,678,-284,89.84651923179626,89.84656071662903,89.84904527664185,89.86124730110168,90.01129627227783,90.01129627227783,90.01129627227783,90.01129627227783,90.01129627227783,90.01129627227783,90.01129627227783,94.31233620643616,3,4.447749853134155,None,,,,,,,,,,,,,,,,,,164,5,2025-02-28_13h26.55.296,comp,2024.2.4,60.078781437374495,2025-02-28 13h27.07.237977 -0500,
14,14,0,critical,dwh,20.0,1.0,lower,78.0,78.0,57.0,133.0,133.0,57.0,3,7.195852756500244,None,,,,,0,0,0,0,0,14,14,66,94.3279595375061,,,,,,,,,,,,,,,,,,,,,,,,,,,,,,,,,,,,,,,,,,,,,,,,,,,,,,,,,,,,,,,,,,,,,,,,,,,,,,,,,78.0,78.0,57.0,133.0,133.0,57.0,1.0,1.3,278,-264,480,-273,671,-269,94.31318378448486,94.31322598457336,94.31558537483215,94.3279595375061,94.47782897949219,94.47782897949219,94.47782897949219,94.47782897949219,94.47782897949219,94.47782897949219,94.47782897949219,101.52894067764282,3,7.195852756500244,None,,,,,,,,,,,,,,,,,,164,5,2025-02-28_13h26.55.296,comp,2024.2.4,60.078781437374495,2025-02-28 13h27.07.237977 -0500,
15,15,0,critical,wdh,20.0,1.0,lower,57.0,133.0,78.0,78.0,133.0,57.0,1,5.554599046707153,None,,,,,0,0,0,0,0,15,15,78,101.54460120201111,,,,,,,,,,,,,,,,,,,,,,,,,,,,,,,,,,,,,,,,,,,,,,,,,,,,,,,,,,,,,,,,,,,,,,,,,,,,,,,,,57.0,133.0,78.0,78.0,133.0,57.0,1.0,1.1,-682,280,-480,281,-316,260,101.52974796295166,101.52978897094727,101.5320315361023,101.54460120201111,101.69452214241028,101.69452214241028,101.69452214241028,101.69452214241028,101.69452214241028,101.69452214241028,101.69452214241028,107.11216855049133,1,5.554599046707153,None,,,,,,,,,,,,,,,,,,164,5,2025-02-28_13h26.55.296,comp,2024.2.4,60.078781437374495,2025-02-28 13h27.07.237977 -0500,
16,16,0,critical,dhw,35.0,1.0,upper,127.0,127.0,200.0,125.0,125.0,200.0,3,5.995901107788086,None,,,,,0,0,0,0,0,16,16,49,107.127681016922,,,,,,,,,,,,,,,,,,,,,,,,,,,,,,,,,,,,,,,,,,,,,,,,,,,,,,,,,,,,,,,,,,,,,,,,,,,,,,,,,127.0,127.0,200.0,125.0,125.0,200.0,1.0,1.3,258,-254,480,-284,738,-272,107.11299729347229,107.11303758621216,107.11537313461304,107.127681016922,107.27802968025208,107.27802968025208,107.27802968025208,107.27802968025208,107.27802968025208,107.27802968025208,107.27802968025208,113.12926483154297,3,5.995901107788086,None,,,,,,,,,,,,,,,,,,164,5,2025-02-28_13h26.55.296,comp,2024.2.4,60.078781437374495,2025-02-28 13h27.07.237977 -0500,
17,17,0,critical,hdw,20.0,2.1,upper,200.0,125.0,141.0,141.0,125.0,200.0,3,3.3711066246032715,None,,,,,0,0,0,0,0,17,17,23,113.1445996761322,,,,,,,,,,,,,,,,,,,,,,,,,,,,,,,,,,,,,,,,,,,,,,,,,,,,,,,,,,,,,,,,,,,,,,,,,,,,,,,,,200.0,125.0,141.0,141.0,125.0,200.0,2.1,2.11,-229,273,0,267,266,-265,113.13004684448242,113.13008666038513,113.13234066963196,113.1445996761322,113.29470920562744,113.29470920562744,113.29470920562744,113.29470920562744,113.29470920562744,113.29470920562744,113.29470920562744,116.52912521362305,3,3.3711066246032715,None,,,,,,,,,,,,,,,,,,164,5,2025-02-28_13h26.55.296,comp,2024.2.4,60.078781437374495,2025-02-28 13h27.07.237977 -0500,
18,18,0,filler_square,None,None,None,None,None,None,None,None,None,None,3,2.5644495487213135,None,,,,,0,0,0,0,0,18,18,175,116.54427027702332,,,,,,,,,,,,,,,,,,,,,,,,,,,,,,,,,,,,,,,,,,,,,,,,,,,,,,,,,,,,,,,,,,,,,,,,,,,,,,,,,69.59905353660548,59.21036084720566,63.715884661732765,72.27318591068862,73.85351787426004,73.85351787426004,2.2,2.22,-162,275,0,-261,169,-271,116.53006863594055,116.53010845184326,116.53208231925964,116.54427027702332,116.69427919387817,116.69427919387817,116.69427919387817,116.69427919387817,116.69427919387817,116.69427919387817,116.69427919387817,119.11222743988037,3,2.5644495487213135,None,,,,,,,,,,,,,,,,,,164,5,2025-02-28_13h26.55.296,comp,2024.2.4,60.078781437374495,2025-02-28 13h27.07.237977 -0500,
19,19,0,filler_random,None,None,None,None,None,None,None,None,None,None,3,1.6670546531677246,None,,,,,0,0,0,0,0,19,19,167,119.12785506248474,,,,,,,,,,,,,,,,,,,,,,,,,,,,,,,,,,,,,,,,,,,,,,,,,,,,,,,,,,,,,,,,,,,,,,,,,,,,,,,,,139.66603692278443,59.22518958748624,83.48560994154025,73.00876085962032,92.76431625615017,120.68473112749228,1.0,1.1,-642,282,-480,281,-287,261,119.11313080787659,119.11317205429077,119.11552572250366,119.12785506248474,119.27776503562927,119.27776503562927,119.27776503562927,119.27776503562927,119.27776503562927,119.27776503562927,119.27776503562927,120.81219291687012,3,1.6670546531677246,None,,,,,,,,,,,,,,,,,,164,5,2025-02-28_13h26.55.296,comp,2024.2.4,60.078781437374495,2025-02-28 13h27.07.237977 -0500,
20,20,0,critical,whd,35.0,4.0,lower,57.0,133.0,133.0,57.0,70.0,70.0,1,3.8494601249694824,None,,,,,0,0,0,0,0,20,20,88,120.82756662368774,,,,,,,,,,,,,,,,,,,,,,,,,,,,,,,,,,,,,,,,,,,,,,,,,,,,,,,,,,,,,,,,,,,,,,,,,,,,,,,,,57.0,133.0,133.0,57.0,70.0,70.0,4.0,4.1,-191,-265,0,8,160,-279,120.81301784515381,120.81305885314941,120.81545901298523,120.82756662368774,120.97772407531738,120.97772407531738,120.97772407531738,120.97772407531738,120.97772407531738,120.97772407531738,120.97772407531738,124.67877578735352,1,3.8494601249694824,None,,,,,,,,,,,,,,,,,,164,5,2025-02-28_13h26.55.296,comp,2024.2.4,60.078781437374495,2025-02-28 13h27.07.237977 -0500,
21,21,0,critical,dhw,20.0,2.1,upper,141.0,141.0,200.0,125.0,125.0,200.0,2,2.2365310192108154,None,,,,,0,0,0,0,0,21,21,3,124.69457364082336,,,,,,,,,,,,,,,,,,,,,,,,,,,,,,,,,,,,,,,,,,,,,,,,,,,,,,,,,,,,,,,,,,,,,,,,,,,,,,,,,141.0,141.0,200.0,125.0,125.0,200.0,2.1,2.11,-229,263,0,277,258,-257,124.67957997322083,124.67962193489075,124.68171668052673,124.69457364082336,124.8445634841919,124.8445634841919,124.8445634841919,124.8445634841919,124.8445634841919,124.8445634841919,124.8445634841919,126.94569945335388,2,2.2365310192108154,None,,,,,,,,,,,,,,,,,,164,5,2025-02-28_13h26.55.296,comp,2024.2.4,60.078781437374495,2025-02-28 13h27.07.237977 -0500,
22,22,0,critical,dwh,35.0,2.1,lower,70.0,70.0,57.0,133.0,133.0,57.0,2,2.083704948425293,None,,,,,0,0,0,0,0,22,22,4,126.9609637260437,,,,,,,,,,,,,,,,,,,,,,,,,,,,,,,,,,,,,,,,,,,,,,,,,,,,,,,,,,,,,,,,,,,,,,,,,,,,,,,,,70.0,70.0,57.0,133.0,133.0,57.0,2.1,2.12,-198,-261,0,-267,191,282,126.9465880393982,126.9466278553009,126.9490761756897,126.9609637260437,127.11106324195862,127.11106324195862,127.11106324195862,127.11106324195862,127.11106324195862,127.11106324195862,127.11106324195862,129.04590511322021,2,2.083704948425293,None,,,,,,,,,,,,,,,,,,164,5,2025-02-28_13h26.55.296,comp,2024.2.4,60.078781437374495,2025-02-28 13h27.07.237977 -0500,
23,23,0,critical,whd,20.0,3.0,upper,125.0,200.0,200.0,125.0,141.0,141.0,2,4.101363658905029,None,,,,,0,0,0,0,0,23,23,93,129.0611834526062,,,,,,,,,,,,,,,,,,,,,,,,,,,,,,,,,,,,,,,,,,,,,,,,,,,,,,,,,,,,,,,,,,,,,,,,,,,,,,,,,125.0,200.0,200.0,125.0,141.0,141.0,3.0,3.1,-258,277,0,-7,229,-271,129.04685521125793,129.04689526557922,129.04901337623596,129.0611834526062,129.21117448806763,129.21117448806763,129.21117448806763,129.21117448806763,129.21117448806763,129.21117448806763,129.21117448806763,133.17885971069336,2,4.101363658905029,None,,,,,,,,,,,,,,,,,,164,5,2025-02-28_13h26.55.296,comp,2024.2.4,60.078781437374495,2025-02-28 13h27.07.237977 -0500,
24,24,0,filler_square,None,None,None,None,None,None,None,None,None,None,3,1.4992492198944092,None,,,,,0,0,0,0,0,24,24,203,133.19415378570557,,,,,,,,,,,,,,,,,,,,,,,,,,,,,,,,,,,,,,,,,,,,,,,,,,,,,,,,,,,,,,,,,,,,,,,,,,,,,,,,,73.15223490425336,96.18042082444504,82.25985255388497,118.06913991503912,121.85050885139265,121.85050885139265,2.1,2.12,-203,-267,0,-260,216,273,133.17985773086548,133.17989683151245,133.18306422233582,133.19415378570557,133.34435963630676,133.34435963630676,133.34435963630676,133.34435963630676,133.34435963630676,133.34435963630676,133.34435963630676,134.69560647010803,3,1.4992492198944092,None,,,,,,,,,,,,,,,,,,164,5,2025-02-28_13h26.55.296,comp,2024.2.4,60.078781437374495,2025-02-28 13h27.07.237977 -0500,
25,25,0,filler_square,None,None,None,None,None,None,None,None,None,None,1,1.5553722381591797,None,,,,,0,0,0,0,0,25,25,189,134.71111941337585,,,,,,,,,,,,,,,,,,,,,,,,,,,,,,,,,,,,,,,,,,,,,,,,,,,,,,,,,,,,,,,,,,,,,,,,,,,,,,,,,146.73103207442995,146.73103207442995,87.94569658883563,68.97260439151121,128.40875952333892,114.70861045531097,4.0,4.2,-204,-15,0,-279,188,8,134.6965799331665,134.69662165641785,134.69867658615112,134.71111941337585,134.86114120483398,134.86114120483398,134.86114120483398,134.86114120483398,134.86114120483398,134.86114120483398,134.86114120483398,136.27895545959473,1,1.5553722381591797,None,,,,,,,,,,,,,,,,,,164,5,2025-02-28_13h26.55.296,comp,2024.2.4,60.078781437374495,2025-02-28 13h27.07.237977 -0500,
26,26,0,critical,dhw,35.0,1.0,lower,70.0,70.0,133.0,57.0,57.0,133.0,3,3.133690118789673,None,,,,,0,0,0,0,0,26,26,48,136.29420232772827,,,,,,,,,,,,,,,,,,,,,,,,,,,,,,,,,,,,,,,,,,,,,,,,,,,,,,,,,,,,,,,,,,,,,,,,,,,,,,,,,70.0,70.0,133.0,57.0,57.0,133.0,1.0,1.1,-640,269,-480,257,-289,266,136.27975392341614,136.27979254722595,136.2819995880127,136.29420232772827,136.44420671463013,136.44420671463013,136.44420671463013,136.44420671463013,136.44420671463013,136.44420671463013,136.44420671463013,139.44531798362732,3,3.133690118789673,None,,,,,,,,,,,,,,,,,,164,5,2025-02-28_13h26.55.296,comp,2024.2.4,60.078781437374495,2025-02-28 13h27.07.237977 -0500,
27,27,0,filler_random,None,None,None,None,None,None,None,None,None,None,1,1.6324841976165771,None,,,,,0,0,0,0,0,27,27,156,139.46077489852905,,,,,,,,,,,,,,,,,,,,,,,,,,,,,,,,,,,,,,,,,,,,,,,,,,,,,,,,,,,,,,,,,,,,,,,,,,,,,,,,,147.77218123012392,81.53877459511035,122.44694547876237,70.82584046072247,110.61865008578755,62.92116044732311,2.2,2.22,-172,286,0,-268,163,-262,139.4462263584137,139.44626426696777,139.44860529899597,139.46077489852905,139.61099815368652,139.61099815368652,139.61099815368652,139.61099815368652,139.61099815368652,139.61099815368652,139.61099815368652,141.09548115730286,1,1.6324841976165771,None,,,,,,,,,,,,,,,,,,164,5,2025-02-28_13h26.55.296,comp,2024.2.4,60.078781437374495,2025-02-28 13h27.07.237977 -0500,
28,28,0,critical,whd,20.0,2.1,upper,125.0,200.0,200.0,125.0,141.0,141.0,2,4.892362833023071,None,,,,,0,0,0,0,0,28,28,15,141.11099672317505,,,,,,,,,,,,,,,,,,,,,,,,,,,,,,,,,,,,,,,,,,,,,,,,,,,,,,,,,,,,,,,,,,,,,,,,,,,,,,,,,125.0,200.0,200.0,125.0,141.0,141.0,2.1,2.11,-258,259,0,288,229,-262,141.09629106521606,141.09633016586304,141.09835958480835,141.11099672317505,141.26109266281128,141.26109266281128,141.26109266281128,141.26109266281128,141.26109266281128,141.26109266281128,141.26109266281128,146.01217675209045,2,4.892362833023071,None,,,,,,,,,,,,,,,,,,164,5,2025-02-28_13h26.55.296,comp,2024.2.4,60.078781437374495,2025-02-28 13h27.07.237977 -0500,
29,29,0,critical,wdh,35.0,4.0,lower,57.0,133.0,70.0,70.0,133.0,57.0,1,3.0329203605651855,None,,,,,0,0,0,0,0,29,29,76,146.02798199653625,,,,,,,,,,,,,,,,,,,,,,,,,,,,,,,,,,,,,,,,,,,,,,,,,,,,,,,,,,,,,,,,,,,,,,,,,,,,,,,,,57.0,133.0,70.0,70.0,133.0,57.0,4.0,4.1,-198,-253,0,0,160,-271,146.0129590034485,146.01301336288452,146.0150706768036,146.02798199653625,146.1775825023651,146.1775825023651,146.1775825023651,146.1775825023651,146.1775825023651,146.1775825023651,146.1775825023651,149.07857584953308,1,3.0329203605651855,None,,,,,,,,,,,,,,,,,,164,5,2025-02-28_13h26.55.296,comp,2024.2.4,60.078781437374495,2025-02-28 13h27.07.237977 -0500,
30,30,0,filler_square,None,None,None,None,None,None,None,None,None,None,3,1.700575590133667,None,,,,,0,0,0,0,0,30,30,201,149.09403944015503,,,,,,,,,,,,,,,,,,,,,,,,,,,,,,,,,,,,,,,,,,,,,,,,,,,,,,,,,,,,,,,,,,,,,,,,,,,,,,,,,72.57856355388644,81.74258491086843,66.93390767433183,75.72203824753055,111.44063925849012,111.44063925849012,3.0,3.2,-175,-261,0,-12,190,259,149.07955956459045,149.07959938049316,149.0820288658142,149.09403944015503,149.24411010742188,149.24411010742188,149.24411010742188,149.24411010742188,149.24411010742188,149.24411010742188,149.24411010742188,150.81188225746155,3,1.700575590133667,None,,,,,,,,,,,,,,,,,,164,5,2025-02-28_13h26.55.296,comp,2024.2.4,60.078781437374495,2025-02-28 13h27.07.237977 -0500,
31,31,0,filler_square,None,None,None,None,None,None,None,None,None,None,1,10.281039476394653,None,,,,,0,0,0,0,0,31,31,191,150.82727718353271,,,,,,,,,,,,,,,,,,,,,,,,,,,,,,,,,,,,,,,,,,,,,,,,,,,,,,,,,,,,,,,,,,,,,,,,,,,,,,,,,63.04826482922467,63.04826482922467,59.597305062169546,58.536409611918415,58.233739126206956,61.282641430268704,2.2,2.22,-157,283,0,-266,156,-265,150.8127920627594,150.81282997131348,150.8153576850891,150.82727718353271,150.97748255729675,150.97748255729675,150.97748255729675,150.97748255729675,150.97748255729675,150.97748255729675,150.97748255729675,161.11188864707947,1,10.281039476394653,None,,,,,,,,,,,,,,,,,,164,5,2025-02-28_13h26.55.296,comp,2024.2.4,60.078781437374495,2025-02-28 13h27.07.237977 -0500,
32,32,0,critical,whd,35.0,2.1,upper,125.0,200.0,200.0,125.0,127.0,127.0,1,4.1543402671813965,None,,,,,0,0,0,0,0,32,32,13,161.12797927856445,,,,,,,,,,,,,,,,,,,,,,,,,,,,,,,,,,,,,,,,,,,,,,,,,,,,,,,,,,,,,,,,,,,,,,,,,,,,,,,,,125.0,200.0,200.0,125.0,127.0,127.0,2.1,2.11,-258,263,0,284,222,-287,161.112708568573,161.11274981498718,161.11472082138062,161.12797927856445,161.2777020931244,161.2777020931244,161.2777020931244,161.2777020931244,161.2777020931244,161.2777020931244,161.2777020931244,165.2952675819397,1,4.1543402671813965,None,,,,,,,,,,,,,,,,,,164,5,2025-02-28_13h26.55.296,comp,2024.2.4,60.078781437374495,2025-02-28 13h27.07.237977 -0500,
33,33,0,critical,wdh,35.0,2.1,upper,125.0,200.0,127.0,127.0,200.0,125.0,1,2.3173723220825195,None,,,,,0,0,0,0,0,33,33,33,165.31052541732788,,,,,,,,,,,,,,,,,,,,,,,,,,,,,,,,,,,,,,,,,,,,,,,,,,,,,,,,,,,,,,,,,,,,,,,,,,,,,,,,,125.0,200.0,127.0,127.0,200.0,125.0,2.1,2.12,-260,-277,0,-256,222,254,165.29608917236328,165.29612827301025,165.29848289489746,165.31052541732788,165.46093225479126,165.46093225479126,165.46093225479126,165.46093225479126,165.46093225479126,165.46093225479126,165.46093225479126,167.64537262916565,1,2.3173723220825195,None,,,,,,,,,,,,,,,,,,164,5,2025-02-28_13h26.55.296,comp,2024.2.4,60.078781437374495,2025-02-28 13h27.07.237977 -0500,
34,34,0,filler_square,None,None,None,None,None,None,None,None,None,None,1,1.8627679347991943,None,,,,,0,0,0,0,0,34,34,177,167.6606478691101,,,,,,,,,,,,,,,,,,,,,,,,,,,,,,,,,,,,,,,,,,,,,,,,,,,,,,,,,,,,,,,,,,,,,,,,,,,,,,,,,107.64272372178579,107.64272372178579,107.26484445428122,58.721452531163926,92.67430953958642,74.97536122259093,1.0,1.1,-659,258,-480,283,-317,264,167.64636611938477,167.6464068889618,167.64853739738464,167.6606478691101,167.81062245368958,167.81062245368958,167.81062245368958,167.81062245368958,167.81062245368958,167.81062245368958,167.81062245368958,169.52849507331848,1,1.8627679347991943,None,,,,,,,,,,,,,,,,,,164,5,2025-02-28_13h26.55.296,comp,2024.2.4,60.078781437374495,2025-02-28 13h27.07.237977 -0500,
35,35,0,filler_square,None,None,None,None,None,None,None,None,None,None,1,1.2342338562011719,None,,,,,0,0,0,0,0,35,35,173,169.54413414001465,,,,,,,,,,,,,,,,,,,,,,,,,,,,,,,,,,,,,,,,,,,,,,,,,,,,,,,,,,,,,,,,,,,,,,,,,,,,,,,,,195.0429488983008,195.0429488983008,135.38987533149128,61.32539884791399,73.60251417685375,160.444601830603,2.2,2.21,-224,-258,0,264,207,266,169.52965426445007,169.52969622612,169.53227305412292,169.54413414001465,169.69424724578857,169.69424724578857,169.69424724578857,169.69424724578857,169.69424724578857,169.69424724578857,169.69424724578857,170.7952744960785,1,1.2342338562011719,None,,,,,,,,,,,,,,,,,,164,5,2025-02-28_13h26.55.296,comp,2024.2.4,60.078781437374495,2025-02-28 13h27.07.237977 -0500,
36,36,0,filler_square,None,None,None,None,None,None,None,None,None,None,3,1.6880712509155273,None,,,,,0,0,0,0,0,36,36,181,170.8106439113617,,,,,,,,,,,,,,,,,,,,,,,,,,,,,,,,,,,,,,,,,,,,,,,,,,,,,,,,,,,,,,,,,,,,,,,,,,,,,,,,,111.01880544745384,78.55188055964354,91.21627464065796,83.43824661016883,116.8469329678422,116.8469329678422,1.0,1.1,-657,277,-480,281,-284,289,170.7962350845337,170.79627680778503,170.7986397743225,170.8106439113617,170.96068501472473,170.96068501472473,170.96068501472473,170.96068501472473,170.96068501472473,170.96068501472473,170.96068501472473,172.51190876960754,3,1.6880712509155273,None,,,,,,,,,,,,,,,,,,164,5,2025-02-28_13h26.55.296,comp,2024.2.4,60.078781437374495,2025-02-28 13h27.07.237977 -0500,
37,37,0,critical,wdh,20.0,3.0,upper,125.0,200.0,141.0,141.0,200.0,125.0,3,5.595979452133179,None,,,,,0,0,0,0,0,37,37,81,172.5272171497345,,,,,,,,,,,,,,,,,,,,,,,,,,,,,,,,,,,,,,,,,,,,,,,,,,,,,,,,,,,,,,,,,,,,,,,,,,,,,,,,,125.0,200.0,141.0,141.0,200.0,125.0,3.0,3.1,-266,281,0,-7,229,-273,172.5127317905426,172.51277208328247,172.51480197906494,172.5272171497345,172.6774868965149,172.6774868965149,172.6774868965149,172.6774868965149,172.6774868965149,172.6774868965149,172.6774868965149,178.12881803512573,3,5.595979452133179,None,,,,,,,,,,,,,,,,,,164,5,2025-02-28_13h26.55.296,comp,2024.2.4,60.078781437374495,2025-02-28 13h27.07.237977 -0500,
38,38,0,catch,None,None,None,None,None,None,None,None,None,None,2,1.1865477561950684,None,,,,,0,0,0,0,0,38,38,125,178.14409923553467,,,,,,,,,,,,,,,,,,,,,,,,,,,,,,,,,,,,,,,,,,,,,,,,,,,,,,,,,,,,,,,,,,,,,,,,,,,,,,,,,68,122,188,137,74,116,3.0,3.2,-226,-258,0,-2,222,258,178.12986850738525,178.1299078464508,178.13241147994995,178.14409923553467,178.29408383369446,178.29408383369446,178.29408383369446,178.29408383369446,178.29408383369446,178.29408383369446,178.29408383369446,179.34518480300903,2,1.1865477561950684,None,,,,,,,,,,,,,,,,,,164,5,2025-02-28_13h26.55.296,comp,2024.2.4,60.078781437374495,2025-02-28 13h27.07.237977 -0500,
39,39,0,critical,wdh,20.0,3.0,lower,57.0,133.0,78.0,78.0,133.0,57.0,1,3.338101387023926,None,,,,,0,0,0,0,0,39,39,80,179.3605875968933,,,,,,,,,,,,,,,,,,,,,,,,,,,,,,,,,,,,,,,,,,,,,,,,,,,,,,,,,,,,,,,,,,,,,,,,,,,,,,,,,57.0,133.0,78.0,78.0,133.0,57.0,3.0,3.2,-202,-261,0,1,164,267,179.34595227241516,179.34600591659546,179.34799313545227,179.3605875968933,179.51057839393616,179.51057839393616,179.51057839393616,179.51057839393616,179.51057839393616,179.51057839393616,179.51057839393616,182.71179270744324,1,3.338101387023926,None,,,,,,,,,,,,,,,,,,164,5,2025-02-28_13h26.55.296,comp,2024.2.4,60.078781437374495,2025-02-28 13h27.07.237977 -0500,
40,40,0,critical,hdw,20.0,2.1,lower,133.0,57.0,78.0,78.0,57.0,133.0,3,2.4758141040802,None,,,,,0,0,0,0,0,40,40,46,182.7271945476532,,,,,,,,,,,,,,,,,,,,,,,,,,,,,,,,,,,,,,,,,,,,,,,,,,,,,,,,,,,,,,,,,,,,,,,,,,,,,,,,,133.0,57.0,78.0,78.0,57.0,133.0,2.1,2.12,-164,-263,0,-262,202,272,182.712584733963,182.7126247882843,182.71463298797607,182.7271945476532,182.89399981498718,182.89399981498718,182.89399981498718,182.89399981498718,182.89399981498718,182.89399981498718,182.89399981498718,185.21169424057007,3,2.4758141040802,None,,,,,,,,,,,,,,,,,,164,5,2025-02-28_13h26.55.296,comp,2024.2.4,60.078781437374495,2025-02-28 13h27.07.237977 -0500,
41,41,0,filler_random,None,None,None,None,None,None,None,None,None,None,1,4.0385706424713135,None,,,,,0,0,0,0,0,41,41,153,185.22759675979614,,,,,,,,,,,,,,,,,,,,,,,,,,,,,,,,,,,,,,,,,,,,,,,,,,,,,,,,,,,,,,,,,,,,,,,,,,,,,,,,,130.51619006988454,194.53573128243158,123.24752665649247,175.98579614845852,174.29413387395624,137.51202406011248,2.1,2.12,-281,-254,0,-257,253,270,185.21261072158813,185.21265077590942,185.21512961387634,185.22759675979614,185.3776774406433,185.3776774406433,185.3776774406433,185.3776774406433,185.3776774406433,185.3776774406433,185.3776774406433,189.27868747711182,1,4.0385706424713135,None,,,,,,,,,,,,,,,,,,164,5,2025-02-28_13h26.55.296,comp,2024.2.4,60.078781437374495,2025-02-28 13h27.07.237977 -0500,
42,42,0,filler_random,None,None,None,None,None,None,None,None,None,None,2,1.3413960933685303,None,,,,,0,0,0,0,0,42,42,161,189.2938151359558,,,,,,,,,,,,,,,,,,,,,,,,,,,,,,,,,,,,,,,,,,,,,,,,,,,,,,,,,,,,,,,,,,,,,,,,,,,,,,,,,119.41826272129387,87.48826642651207,159.36545932402672,95.33808348949924,140.67889889494091,59.77156392655674,2.1,2.12,-187,-282,0,-262,174,252,189.27961659431458,189.2796585559845,189.2821352481842,189.2938151359558,189.4438614845276,189.4438614845276,189.4438614845276,189.4438614845276,189.4438614845276,189.4438614845276,189.4438614845276,190.64505696296692,2,1.3413960933685303,None,,,,,,,,,,,,,,,,,,164,5,2025-02-28_13h26.55.296,comp,2024.2.4,60.078781437374495,2025-02-28 13h27.07.237977 -0500,
43,43,0,catch,None,None,None,None,None,None,None,None,None,None,3,1.5102818012237549,None,,,,,0,0,0,0,0,43,43,123,190.66074538230896,,,,,,,,,,,,,,,,,,,,,,,,,,,,,,,,,,,,,,,,,,,,,,,,,,,,,,,,,,,,,,,,,,,,,,,,,,,,,,,,,133,57,117,73,188,137,2.1,2.11,-161,289,0,256,201,-279,190.6461148262024,190.6461570262909,190.6482057571411,190.66074538230896,190.8106541633606,190.8106541633606,190.8106541633606,190.8106541633606,190.8106541633606,190.8106541633606,190.8106541633606,192.17833590507507,3,1.5102818012237549,None,,,,,,,,,,,,,,,,,,164,5,2025-02-28_13h26.55.296,comp,2024.2.4,60.078781437374495,2025-02-28 13h27.07.237977 -0500,
44,44,0,critical,hdw,35.0,1.0,upper,200.0,125.0,127.0,127.0,125.0,200.0,3,2.4721641540527344,None,,,,,0,0,0,0,0,44,44,109,192.19398379325867,,,,,,,,,,,,,,,,,,,,,,,,,,,,,,,,,,,,,,,,,,,,,,,,,,,,,,,,,,,,,,,,,,,,,,,,,,,,,,,,,200.0,125.0,127.0,127.0,125.0,200.0,1.0,1.1,-702,285,-480,258,-220,253,192.1791548728943,192.17919611930847,192.18158769607544,192.19398379325867,192.34423327445984,192.34423327445984,192.34423327445984,192.34423327445984,192.34423327445984,192.34423327445984,192.34423327445984,194.67868566513062,3,2.4721641540527344,None,,,,,,,,,,,,,,,,,,164,5,2025-02-28_13h26.55.296,comp,2024.2.4,60.078781437374495,2025-02-28 13h27.07.237977 -0500,
45,45,0,critical,hwd,20.0,3.0,upper,200.0,125.0,125.0,200.0,141.0,141.0,2,1.7576429843902588,None,,,,,0,0,0,0,0,45,45,105,194.6937530040741,,,,,,,,,,,,,,,,,,,,,,,,,,,,,,,,,,,,,,,,,,,,,,,,,,,,,,,,,,,,,,,,,,,,,,,,,,,,,,,,,200.0,125.0,125.0,200.0,141.0,141.0,3.0,3.2,-258,-257,0,-13,266,281,194.67948031425476,194.67952013015747,194.68199110031128,194.6937530040741,194.8441083431244,194.8441083431244,194.8441083431244,194.8441083431244,194.8441083431244,194.8441083431244,194.8441083431244,196.46180319786072,2,1.7576429843902588,None,,,,,,,,,,,,,,,,,,164,5,2025-02-28_13h26.55.296,comp,2024.2.4,60.078781437374495,2025-02-28 13h27.07.237977 -0500,
46,46,0,critical,dhw,20.0,4.0,lower,78.0,78.0,133.0,57.0,57.0,133.0,3,3.27777361869812,None,,,,,0,0,0,0,0,46,46,58,196.4772081375122,,,,,,,,,,,,,,,,,,,,,,,,,,,,,,,,,,,,,,,,,,,,,,,,,,,,,,,,,,,,,,,,,,,,,,,,,,,,,,,,,78.0,78.0,133.0,57.0,57.0,133.0,4.0,4.1,-164,-281,0,-14,191,-272,196.46260499954224,196.46264672279358,196.46517944335938,196.4772081375122,196.62725925445557,196.62725925445557,196.62725925445557,196.62725925445557,196.62725925445557,196.62725925445557,196.62725925445557,199.76161789894104,3,3.27777361869812,None,,,,,,,,,,,,,,,,,,164,5,2025-02-28_13h26.55.296,comp,2024.2.4,60.078781437374495,2025-02-28 13h27.07.237977 -0500,
47,47,0,critical,dwh,20.0,2.1,lower,78.0,78.0,57.0,133.0,133.0,57.0,2,4.131063938140869,None,,,,,0,0,0,0,0,47,47,30,199.77727627754211,,,,,,,,,,,,,,,,,,,,,,,,,,,,,,,,,,,,,,,,,,,,,,,,,,,,,,,,,,,,,,,,,,,,,,,,,,,,,,,,,78.0,78.0,57.0,133.0,133.0,57.0,2.1,2.12,-202,-262,0,-290,191,255,199.76241898536682,199.7624590396881,199.76487350463867,199.77727627754211,199.9270534515381,199.9270534515381,199.9270534515381,199.9270534515381,199.9270534515381,199.9270534515381,199.9270534515381,203.9116518497467,2,4.131063938140869,None,,,,,,,,,,,,,,,,,,164,5,2025-02-28_13h26.55.296,comp,2024.2.4,60.078781437374495,2025-02-28 13h27.07.237977 -0500,
48,48,0,filler_square,None,None,None,None,None,None,None,None,None,None,1,1.2596735954284668,None,,,,,0,0,0,0,0,48,48,199,203.92720365524292,,,,,,,,,,,,,,,,,,,,,,,,,,,,,,,,,,,,,,,,,,,,,,,,,,,,,,,,,,,,,,,,,,,,,,,,,,,,,,,,,181.9441608580928,181.9441608580928,100.83143534756991,138.1653968833912,70.56046466934774,110.61557617471463,2.1,2.12,-256,-277,0,-280,220,258,203.91262912750244,203.91267108917236,203.9152054786682,203.92720365524292,204.0772671699524,204.0772671699524,204.0772671699524,204.0772671699524,204.0772671699524,204.0772671699524,204.0772671699524,205.1950969696045,1,1.2596735954284668,None,,,,,,,,,,,,,,,,,,164,5,2025-02-28_13h26.55.296,comp,2024.2.4,60.078781437374495,2025-02-28 13h27.07.237977 -0500,
49,49,0,critical,dhw,20.0,1.0,upper,141.0,141.0,200.0,125.0,125.0,200.0,2,2.250291347503662,None,,,,,0,0,0,0,0,49,49,55,205.21052956581116,,,,,,,,,,,,,,,,,,,,,,,,,,,,,,,,,,,,,,,,,,,,,,,,,,,,,,,,,,,,,,,,,,,,,,,,,,,,,,,,,141.0,141.0,200.0,125.0,125.0,200.0,1.0,1.2,-229,14,0,5,258,-3,205.19584608078003,205.1958873271942,205.1981348991394,205.21052956581116,205.36060190200806,205.36060190200806,205.36060190200806,205.36060190200806,205.36060190200806,205.36060190200806,205.36060190200806,207.46210169792175,2,2.250291347503662,None,,,,,,,,,,,,,,,,,,164,5,2025-02-28_13h26.55.296,comp,2024.2.4,60.078781437374495,2025-02-28 13h27.07.237977 -0500,
50,50,0,filler_square,None,None,None,None,None,None,None,None,None,None,3,1.2614414691925049,None,,,,,0,0,0,0,0,50,50,185,207.47737455368042,,,,,,,,,,,,,,,,,,,,,,,,,,,,,,,,,,,,,,,,,,,,,,,,,,,,,,,,,,,,,,,,,,,,,,,,,,,,,,,,,93.33251990858042,76.63118483272552,79.35801173851766,102.55921179658671,134.77665096149877,134.77665096149877,3.0,3.2,-186,-265,0,-1,215,289,207.4630992412567,207.46315717697144,207.46550965309143,207.47737455368042,207.62723517417908,207.62723517417908,207.62723517417908,207.62723517417908,207.62723517417908,207.62723517417908,207.62723517417908,208.74499607086182,3,1.2614414691925049,None,,,,,,,,,,,,,,,,,,164,5,2025-02-28_13h26.55.296,comp,2024.2.4,60.078781437374495,2025-02-28 13h27.07.237977 -0500,
51,51,0,critical,whd,35.0,3.0,upper,125.0,200.0,200.0,125.0,127.0,127.0,2,5.785684108734131,None,,,,,0,0,0,0,0,51,51,87,208.76047229766846,,,,,,,,,,,,,,,,,,,,,,,,,,,,,,,,,,,,,,,,,,,,,,,,,,,,,,,,,,,,,,,,,,,,,,,,,,,,,,,,,125.0,200.0,200.0,125.0,127.0,127.0,3.0,3.1,-258,255,0,20,222,-277,208.74578642845154,208.74582648277283,208.74788737297058,208.76047229766846,208.91066980361938,208.91066980361938,208.91066980361938,208.91066980361938,208.91066980361938,208.91066980361938,208.91066980361938,214.56170988082886,2,5.785684108734131,None,,,,,,,,,,,,,,,,,,164,5,2025-02-28_13h26.55.296,comp,2024.2.4,60.078781437374495,2025-02-28 13h27.07.237977 -0500,
52,52,0,critical,dwh,20.0,2.1,upper,141.0,141.0,125.0,200.0,200.0,125.0,2,1.300072193145752,None,,,,,0,0,0,0,0,52,52,7,214.57693028450012,,,,,,,,,,,,,,,,,,,,,,,,,,,,,,,,,,,,,,,,,,,,,,,,,,,,,,,,,,,,,,,,,,,,,,,,,,,,,,,,,141.0,141.0,125.0,200.0,200.0,125.0,2.1,2.11,-266,290,0,272,258,-262,214.5624942779541,214.5625340938568,214.56494855880737,214.57693028450012,214.72727251052856,214.72727251052856,214.72727251052856,214.72727251052856,214.72727251052856,214.72727251052856,214.72727251052856,215.87868237495422,2,1.300072193145752,None,,,,,,,,,,,,,,,,,,164,5,2025-02-28_13h26.55.296,comp,2024.2.4,60.078781437374495,2025-02-28 13h27.07.237977 -0500,
53,53,0,critical,hdw,20.0,3.0,lower,133.0,57.0,78.0,78.0,57.0,133.0,1,3.084256172180176,None,,,,,0,0,0,0,0,53,53,116,215.89380359649658,,,,,,,,,,,,,,,,,,,,,,,,,,,,,,,,,,,,,,,,,,,,,,,,,,,,,,,,,,,,,,,,,,,,,,,,,,,,,,,,,133.0,57.0,78.0,78.0,57.0,133.0,3.0,3.1,-164,277,0,-8,202,-257,215.8795804977417,215.87962222099304,215.88219738006592,215.89380359649658,216.04369068145752,216.04369068145752,216.04369068145752,216.04369068145752,216.04369068145752,216.04369068145752,216.04369068145752,218.99472498893738,1,3.084256172180176,None,,,,,,,,,,,,,,,,,,164,5,2025-02-28_13h26.55.296,comp,2024.2.4,60.078781437374495,2025-02-28 13h27.07.237977 -0500,
54,54,0,filler_random,None,None,None,None,None,None,None,None,None,None,1,1.3287835121154785,None,,,,,0,0,0,0,0,54,54,160,219.01021575927734,,,,,,,,,,,,,,,,,,,,,,,,,,,,,,,,,,,,,,,,,,,,,,,,,,,,,,,,,,,,,,,,,,,,,,,,,,,,,,,,,199.5387573325811,190.03127122126497,75.18711051191471,164.27125114515968,104.24177156291103,108.65653410892631,3.0,3.1,-273,259,0,4,232,-273,218.9956681728363,218.9957082271576,218.99822163581848,219.01021575927734,219.16044688224792,219.16044688224792,219.16044688224792,219.16044688224792,219.16044688224792,219.16044688224792,219.16044688224792,220.34498500823975,1,1.3287835121154785,None,,,,,,,,,,,,,,,,,,164,5,2025-02-28_13h26.55.296,comp,2024.2.4,60.078781437374495,2025-02-28 13h27.07.237977 -0500,
55,55,0,filler_random,None,None,None,None,None,None,None,None,None,None,1,1.2899487018585205,None,,,,,0,0,0,0,0,55,55,147,220.36041641235352,,,,,,,,,,,,,,,,,,,,,,,,,,,,,,,,,,,,,,,,,,,,,,,,,,,,,,,,,,,,,,,,,,,,,,,,,,,,,,,,,198.29033601434733,174.05913897093075,118.09521307016769,141.28742864297703,132.2513609246479,127.65597819706586,1.0,1.2,-254,-14,0,-7,230,3,220.3458616733551,220.34590244293213,220.34796714782715,220.36041641235352,220.5105423927307,220.5105423927307,220.5105423927307,220.5105423927307,220.5105423927307,220.5105423927307,220.5105423927307,221.66140913963318,1,1.2899487018585205,None,,,,,,,,,,,,,,,,,,164,5,2025-02-28_13h26.55.296,comp,2024.2.4,60.078781437374495,2025-02-28 13h27.07.237977 -0500,
56,56,0,filler_random,None,None,None,None,None,None,None,None,None,None,2,1.7995717525482178,None,,,,,0,0,0,0,0,56,56,131,221.67701888084412,,,,,,,,,,,,,,,,,,,,,,,,,,,,,,,,,,,,,,,,,,,,,,,,,,,,,,,,,,,,,,,,,,,,,,,,,,,,,,,,,91.2057283463068,190.26947570208742,127.26558345700076,152.67426996999654,97.95117839039571,98.29915770777234,1.0,1.1,-747,285,-480,280,-259,280,221.66230607032776,221.66234827041626,221.66474056243896,221.67701888084412,221.82708501815796,221.82708501815796,221.82708501815796,221.82708501815796,221.82708501815796,221.82708501815796,221.82708501815796,223.49485659599304,2,1.7995717525482178,None,,,,,,,,,,,,,,,,,,164,5,2025-02-28_13h26.55.296,comp,2024.2.4,60.078781437374495,2025-02-28 13h27.07.237977 -0500,
57,57,0,critical,whd,20.0,1.0,upper,125.0,200.0,200.0,125.0,141.0,141.0,1,2.2197039127349854,None,,,,,0,0,0,0,0,57,57,91,223.51021075248718,,,,,,,,,,,,,,,,,,,,,,,,,,,,,,,,,,,,,,,,,,,,,,,,,,,,,,,,,,,,,,,,,,,,,,,,,,,,,,,,,125.0,200.0,200.0,125.0,141.0,141.0,1.0,1.2,-258,18,0,1,229,0,223.49564933776855,223.4956886768341,223.49775338172913,223.51021075248718,223.6605360507965,223.6605360507965,223.6605360507965,223.6605360507965,223.6605360507965,223.6605360507965,223.6605360507965,225.74499559402466,1,2.2197039127349854,None,,,,,,,,,,,,,,,,,,164,5,2025-02-28_13h26.55.296,comp,2024.2.4,60.078781437374495,2025-02-28 13h27.07.237977 -0500,
58,58,0,critical,hdw,35.0,2.1,upper,200.0,125.0,127.0,127.0,125.0,200.0,3,2.7055861949920654,None,,,,,0,0,0,0,0,58,58,21,225.76023864746094,,,,,,,,,,,,,,,,,,,,,,,,,,,,,,,,,,,,,,,,,,,,,,,,,,,,,,,,,,,,,,,,,,,,,,,,,,,,,,,,,200.0,125.0,127.0,127.0,125.0,200.0,2.1,2.11,-222,285,0,288,260,-272,225.74581003189087,225.7458508014679,225.74791479110718,225.76023864746094,225.91055274009705,225.91055274009705,225.91055274009705,225.91055274009705,225.91055274009705,225.91055274009705,225.91055274009705,228.47827315330505,3,2.7055861949920654,None,,,,,,,,,,,,,,,,,,164,5,2025-02-28_13h26.55.296,comp,2024.2.4,60.078781437374495,2025-02-28 13h27.07.237977 -0500,
59,59,0,critical,dwh,35.0,1.0,upper,127.0,127.0,125.0,200.0,200.0,125.0,3,2.3504397869110107,None,,,,,0,0,0,0,0,59,59,61,228.49350714683533,,,,,,,,,,,,,,,,,,,,,,,,,,,,,,,,,,,,,,,,,,,,,,,,,,,,,,,,,,,,,,,,,,,,,,,,,,,,,,,,,127.0,127.0,125.0,200.0,200.0,125.0,1.0,1.1,-740,268,-480,262,-222,290,228.47909259796143,228.47913193702698,228.48149514198303,228.49350714683533,228.6437907218933,228.6437907218933,228.6437907218933,228.6437907218933,228.6437907218933,228.6437907218933,228.6437907218933,230.86151695251465,3,2.3504397869110107,None,,,,,,,,,,,,,,,,,,164,5,2025-02-28_13h26.55.296,comp,2024.2.4,60.078781437374495,2025-02-28 13h27.07.237977 -0500,
60,60,0,filler_square,None,None,None,None,None,None,None,None,None,None,2,3.3351356983184814,None,,,,,0,0,0,0,0,60,60,176,230.87705779075623,,,,,,,,,,,,,,,,,,,,,,,,,,,,,,,,,,,,,,,,,,,,,,,,,,,,,,,,,,,,,,,,,,,,,,,,,,,,,,,,,88.13168679850094,57.37597832838542,100.30371720713703,100.30371720713703,99.03561013604642,84.14518094009573,2.1,2.11,-175,272,0,283,188,-254,230.8624861240387,230.8625259399414,230.86515378952026,230.87705779075623,231.0270049571991,231.0270049571991,231.0270049571991,231.0270049571991,231.0270049571991,231.0270049571991,231.0270049571991,234.2288112640381,2,3.3351356983184814,None,,,,,,,,,,,,,,,,,,164,5,2025-02-28_13h26.55.296,comp,2024.2.4,60.078781437374495,2025-02-28 13h27.07.237977 -0500,
61,61,0,critical,dhw,20.0,2.1,lower,78.0,78.0,133.0,57.0,57.0,133.0,3,2.3998732566833496,None,,,,,0,0,0,0,0,61,61,26,234.24383783340454,,,,,,,,,,,,,,,,,,,,,,,,,,,,,,,,,,,,,,,,,,,,,,,,,,,,,,,,,,,,,,,,,,,,,,,,,,,,,,,,,78.0,78.0,133.0,57.0,57.0,133.0,2.1,2.12,-164,-289,0,-279,191,282,234.22962760925293,234.22966766357422,234.23197865486145,234.24383783340454,234.39350581169128,234.39350581169128,234.39350581169128,234.39350581169128,234.39350581169128,234.39350581169128,234.39350581169128,236.644846200943,3,2.3998732566833496,None,,,,,,,,,,,,,,,,,,164,5,2025-02-28_13h26.55.296,comp,2024.2.4,60.078781437374495,2025-02-28 13h27.07.237977 -0500,
62,62,0,critical,hdw,35.0,3.0,lower,133.0,57.0,70.0,70.0,57.0,133.0,3,1.910461664199829,None,,,,,0,0,0,0,0,62,62,110,236.6603434085846,,,,,,,,,,,,,,,,,,,,,,,,,,,,,,,,,,,,,,,,,,,,,,,,,,,,,,,,,,,,,,,,,,,,,,,,,,,,,,,,,133.0,57.0,70.0,70.0,57.0,133.0,3.0,3.2,-160,-268,0,8,198,258,236.64562964439392,236.64567112922668,236.6477952003479,236.6603434085846,236.810161113739,236.810161113739,236.810161113739,236.810161113739,236.810161113739,236.810161113739,236.810161113739,238.5779082775116,3,1.910461664199829,None,,,,,,,,,,,,,,,,,,164,5,2025-02-28_13h26.55.296,comp,2024.2.4,60.078781437374495,2025-02-28 13h27.07.237977 -0500,
63,63,0,critical,whd,20.0,2.1,lower,57.0,133.0,133.0,57.0,78.0,78.0,2,2.4566445350646973,None,,,,,0,0,0,0,0,63,63,14,238.59363174438477,,,,,,,,,,,,,,,,,,,,,,,,,,,,,,,,,,,,,,,,,,,,,,,,,,,,,,,,,,,,,,,,,,,,,,,,,,,,,,,,,57.0,133.0,133.0,57.0,78.0,78.0,2.1,2.12,-191,-282,0,-283,164,252,238.57884287834167,238.5788836479187,238.5811791419983,238.59363174438477,238.74358010292053,238.74358010292053,238.74358010292053,238.74358010292053,238.74358010292053,238.74358010292053,238.74358010292053,241.06130456924438,2,2.4566445350646973,None,,,,,,,,,,,,,,,,,,164,5,2025-02-28_13h26.55.296,comp,2024.2.4,60.078781437374495,2025-02-28 13h27.07.237977 -0500,
64,64,0,critical,wdh,20.0,4.0,upper,125.0,200.0,141.0,141.0,200.0,125.0,3,2.5256707668304443,None,,,,,0,0,0,0,0,64,64,83,241.07698369026184,,,,,,,,,,,,,,,,,,,,,,,,,,,,,,,,,,,,,,,,,,,,,,,,,,,,,,,,,,,,,,,,,,,,,,,,,,,,,,,,,125.0,200.0,141.0,141.0,200.0,125.0,4.0,4.2,-266,1,0,-253,229,20,241.0620985031128,241.06214022636414,241.06451177597046,241.07698369026184,241.22703766822815,241.22703766822815,241.22703766822815,241.22703766822815,241.22703766822815,241.22703766822815,241.22703766822815,243.61145448684692,3,2.5256707668304443,None,,,,,,,,,,,,,,,,,,164,5,2025-02-28_13h26.55.296,comp,2024.2.4,60.078781437374495,2025-02-28 13h27.07.237977 -0500,
65,65,0,critical,whd,20.0,3.0,lower,57.0,133.0,133.0,57.0,78.0,78.0,1,4.454794406890869,None,,,,,0,0,0,0,0,65,65,92,243.6270079612732,,,,,,,,,,,,,,,,,,,,,,,,,,,,,,,,,,,,,,,,,,,,,,,,,,,,,,,,,,,,,,,,,,,,,,,,,,,,,,,,,57.0,133.0,133.0,57.0,78.0,78.0,3.0,3.1,-191,272,0,2,164,-283,243.6122145652771,243.61225390434265,243.6145498752594,243.6270079612732,243.77688908576965,243.77688908576965,243.77688908576965,243.77688908576965,243.77688908576965,243.77688908576965,243.77688908576965,248.0945541858673,1,4.454794406890869,None,,,,,,,,,,,,,,,,,,164,5,2025-02-28_13h26.55.296,comp,2024.2.4,60.078781437374495,2025-02-28 13h27.07.237977 -0500,
66,66,0,critical,dhw,35.0,2.1,upper,127.0,127.0,200.0,125.0,125.0,200.0,2,1.56614351272583,None,,,,,0,0,0,0,0,66,66,1,248.1099443435669,,,,,,,,,,,,,,,,,,,,,,,,,,,,,,,,,,,,,,,,,,,,,,,,,,,,,,,,,,,,,,,,,,,,,,,,,,,,,,,,,127.0,127.0,200.0,125.0,125.0,200.0,2.1,2.11,-222,274,0,250,258,-274,248.09536385536194,248.09540390968323,248.0978434085846,248.1099443435669,248.26031255722046,248.26031255722046,248.26031255722046,248.26031255722046,248.26031255722046,248.26031255722046,248.26031255722046,249.69496369361877,2,1.56614351272583,None,,,,,,,,,,,,,,,,,,164,5,2025-02-28_13h26.55.296,comp,2024.2.4,60.078781437374495,2025-02-28 13h27.07.237977 -0500,
67,67,0,filler_random,None,None,None,None,None,None,None,None,None,None,2,6.1823484897613525,None,,,,,0,0,0,0,0,67,67,136,249.70998740196228,,,,,,,,,,,,,,,,,,,,,,,,,,,,,,,,,,,,,,,,,,,,,,,,,,,,,,,,,,,,,,,,,,,,,,,,,,,,,,,,,86.6272965660343,141.21913767406056,105.30069106178428,146.05505740004014,61.7015693164935,194.43958716334762,1.0,1.2,-240,8,0,11,266,-5,249.69585824012756,249.69590020179749,249.69808721542358,249.70998740196228,249.86025881767273,249.86025881767273,249.86025881767273,249.86025881767273,249.86025881767273,249.86025881767273,249.86025881767273,255.89469981193542,2,6.1823484897613525,None,,,,,,,,,,,,,,,,,,164,5,2025-02-28_13h26.55.296,comp,2024.2.4,60.078781437374495,2025-02-28 13h27.07.237977 -0500,
68,68,0,critical,dhw,20.0,2.1,upper,141.0,141.0,200.0,125.0,125.0,200.0,3,3.1656265258789062,None,,,,,0,0,0,0,0,68,68,27,255.91020131111145,,,,,,,,,,,,,,,,,,,,,,,,,,,,,,,,,,,,,,,,,,,,,,,,,,,,,,,,,,,,,,,,,,,,,,,,,,,,,,,,,141.0,141.0,200.0,125.0,125.0,200.0,2.1,2.11,-229,281,0,252,258,-282,255.89549922943115,255.89553904533386,255.8980655670166,255.91020131111145,256.06066393852234,256.06066393852234,256.06066393852234,256.06066393852234,256.06066393852234,256.06066393852234,256.06066393852234,259.07815051078796,3,3.1656265258789062,None,,,,,,,,,,,,,,,,,,164,5,2025-02-28_13h26.55.296,comp,2024.2.4,60.078781437374495,2025-02-28 13h27.07.237977 -0500,
69,69,0,filler_random,None,None,None,None,None,None,None,None,None,None,1,1.4770009517669678,None,,,,,0,0,0,0,0,69,69,135,259.09352254867554,,,,,,,,,,,,,,,,,,,,,,,,,,,,,,,,,,,,,,,,,,,,,,,,,,,,,,,,,,,,,,,,,,,,,,,,,,,,,,,,,169.93857993452204,94.44407448576744,57.71506392355869,131.16226999573598,97.4776539353447,69.4498567171023,2.1,2.12,-209,-259,0,-279,196,264,259.07905554771423,259.07909512519836,259.08120918273926,259.09352254867554,259.24339056015015,259.24339056015015,259.24339056015015,259.24339056015015,259.24339056015015,259.24339056015015,259.24339056015015,260.57784056663513,1,1.4770009517669678,None,,,,,,,,,,,,,,,,,,164,5,2025-02-28_13h26.55.296,comp,2024.2.4,60.078781437374495,2025-02-28 13h27.07.237977 -0500,
70,70,0,filler_square,None,None,None,None,None,None,None,None,None,None,3,1.6334333419799805,None,,,,,0,0,0,0,0,70,70,174,260.59353852272034,,,,,,,,,,,,,,,,,,,,,,,,,,,,,,,,,,,,,,,,,,,,,,,,,,,,,,,,,,,,,,,,,,,,,,,,,,,,,,,,,83.13324485135774,77.8559266180019,80.52822635294802,74.48731525642688,110.22516146488069,110.22516146488069,1.0,1.3,308,-256,480,-288,668,-257,260.5789256095886,260.57897686958313,260.58155274391174,260.59353852272034,260.7433180809021,260.7433180809021,260.7433180809021,260.7433180809021,260.7433180809021,260.7433180809021,260.7433180809021,262.2281639575958,3,1.6334333419799805,None,,,,,,,,,,,,,,,,,,164,5,2025-02-28_13h26.55.296,comp,2024.2.4,60.078781437374495,2025-02-28 13h27.07.237977 -0500,
71,71,0,critical,dhw,20.0,2.1,lower,78.0,78.0,133.0,57.0,57.0,133.0,3,2.694958448410034,None,,,,,0,0,0,0,0,71,71,2,262.24350476264954,,,,,,,,,,,,,,,,,,,,,,,,,,,,,,,,,,,,,,,,,,,,,,,,,,,,,,,,,,,,,,,,,,,,,,,,,,,,,,,,,78.0,78.0,133.0,57.0,57.0,133.0,2.1,2.12,-164,-250,0,-284,191,262,262.2289345264435,262.22898530960083,262.2312705516815,262.24350476264954,262.393296957016,262.393296957016,262.393296957016,262.393296957016,262.393296957016,262.393296957016,262.393296957016,264.94444155693054,3,2.694958448410034,None,,,,,,,,,,,,,,,,,,164,5,2025-02-28_13h26.55.296,comp,2024.2.4,60.078781437374495,2025-02-28 13h27.07.237977 -0500,
72,72,0,filler_random,None,None,None,None,None,None,None,None,None,None,3,3.8896484375,None,,,,,0,0,0,0,0,72,72,157,264.9604637622833,,,,,,,,,,,,,,,,,,,,,,,,,,,,,,,,,,,,,,,,,,,,,,,,,,,,,,,,,,,,,,,,,,,,,,,,,,,,,,,,,156.0238053167455,99.03801525134725,174.59041465419915,65.94011990976999,76.61887340861482,194.71086550019194,2.1,2.11,-178,256,0,285,226,-289,264.9453401565552,264.94538021087646,264.94741129875183,264.9604637622833,265.1101450920105,265.1101450920105,265.1101450920105,265.1101450920105,265.1101450920105,265.1101450920105,265.1101450920105,268.8612141609192,3,3.8896484375,None,,,,,,,,,,,,,,,,,,164,5,2025-02-28_13h26.55.296,comp,2024.2.4,60.078781437374495,2025-02-28 13h27.07.237977 -0500,
73,73,0,critical,hdw,35.0,4.0,lower,133.0,57.0,70.0,70.0,57.0,133.0,3,1.3988981246948242,None,,,,,0,0,0,0,0,73,73,112,268.87698793411255,,,,,,,,,,,,,,,,,,,,,,,,,,,,,,,,,,,,,,,,,,,,,,,,,,,,,,,,,,,,,,,,,,,,,,,,,,,,,,,,,133.0,57.0,70.0,70.0,57.0,133.0,4.0,4.2,-160,6,0,-264,198,11,268.8620009422302,268.8620421886444,268.8643705844879,268.87698793411255,269.02670335769653,269.02670335769653,269.02670335769653,269.02670335769653,269.02670335769653,269.02670335769653,269.02670335769653,270.2778174877167,3,1.3988981246948242,None,,,,,,,,,,,,,,,,,,164,5,2025-02-28_13h26.55.296,comp,2024.2.4,60.078781437374495,2025-02-28 13h27.07.237977 -0500,
74,74,0,critical,hwd,35.0,1.0,lower,133.0,57.0,57.0,133.0,70.0,70.0,2,1.5666704177856445,None,,,,,0,0,0,0,0,74,74,96,270.2934236526489,,,,,,,,,,,,,,,,,,,,,,,,,,,,,,,,,,,,,,,,,,,,,,,,,,,,,,,,,,,,,,,,,,,,,,,,,,,,,,,,,133.0,57.0,57.0,133.0,70.0,70.0,1.0,1.1,-671,289,-480,275,-282,272,270.27860593795776,270.2786478996277,270.2811977863312,270.2934236526489,270.4433686733246,270.4433686733246,270.4433686733246,270.4433686733246,270.4433686733246,270.4433686733246,270.4433686733246,271.86125802993774,2,1.5666704177856445,None,,,,,,,,,,,,,,,,,,164,5,2025-02-28_13h26.55.296,comp,2024.2.4,60.078781437374495,2025-02-28 13h27.07.237977 -0500,
75,75,0,critical,hwd,20.0,2.1,lower,133.0,57.0,57.0,133.0,78.0,78.0,2,2.2530019283294678,None,,,,,0,0,0,0,0,75,75,42,271.8767569065094,,,,,,,,,,,,,,,,,,,,,,,,,,,,,,,,,,,,,,,,,,,,,,,,,,,,,,,,,,,,,,,,,,,,,,,,,,,,,,,,,133.0,57.0,57.0,133.0,78.0,78.0,2.1,2.12,-191,-289,0,-277,202,266,271.86208295822144,271.86212277412415,271.86417865753174,271.8767569065094,272.0266079902649,272.0266079902649,272.0266079902649,272.0266079902649,272.0266079902649,272.0266079902649,272.0266079902649,274.1443667411804,2,2.2530019283294678,None,,,,,,,,,,,,,,,,,,164,5,2025-02-28_13h26.55.296,comp,2024.2.4,60.078781437374495,2025-02-28 13h27.07.237977 -0500,
76,76,0,filler_random,None,None,None,None,None,None,None,None,None,None,1,1.242781639099121,None,,,,,0,0,0,0,0,76,76,151,274.1597898006439,,,,,,,,,,,,,,,,,,,,,,,,,,,,,,,,,,,,,,,,,,,,,,,,,,,,,,,,,,,,,,,,,,,,,,,,,,,,,,,,,149.3618233496205,146.4563559620516,64.10456833962392,151.73168472402895,144.5398069992175,88.33104225956646,4.0,4.2,-245,-7,0,-280,216,-17,274.14526176452637,274.1453003883362,274.14765882492065,274.1597898006439,274.3100938796997,274.3100938796997,274.3100938796997,274.3100938796997,274.3100938796997,274.3100938796997,274.3100938796997,275.41110253334045,1,1.242781639099121,None,,,,,,,,,,,,,,,,,,164,5,2025-02-28_13h26.55.296,comp,2024.2.4,60.078781437374495,2025-02-28 13h27.07.237977 -0500,
77,77,0,critical,hwd,35.0,2.1,lower,133.0,57.0,57.0,133.0,70.0,70.0,1,3.3508460521698,None,,,,,0,0,0,0,0,77,77,40,275.4267370700836,,,,,,,,,,,,,,,,,,,,,,,,,,,,,,,,,,,,,,,,,,,,,,,,,,,,,,,,,,,,,,,,,,,,,,,,,,,,,,,,,133.0,57.0,57.0,133.0,70.0,70.0,2.1,2.11,-191,288,0,251,198,-271,275.4118757247925,275.41191387176514,275.41413927078247,275.4267370700836,275.57671785354614,275.57671785354614,275.57671785354614,275.57671785354614,275.57671785354614,275.57671785354614,275.57671785354614,278.7943525314331,1,3.3508460521698,None,,,,,,,,,,,,,,,,,,164,5,2025-02-28_13h26.55.296,comp,2024.2.4,60.078781437374495,2025-02-28 13h27.07.237977 -0500,
78,78,0,critical,whd,35.0,2.1,lower,57.0,133.0,133.0,57.0,70.0,70.0,2,2.392657995223999,None,,,,,0,0,0,0,0,78,78,36,278.8098440170288,,,,,,,,,,,,,,,,,,,,,,,,,,,,,,,,,,,,,,,,,,,,,,,,,,,,,,,,,,,,,,,,,,,,,,,,,,,,,,,,,57.0,133.0,133.0,57.0,70.0,70.0,2.1,2.11,-191,274,0,260,160,-251,278.795152425766,278.79519391059875,278.7975928783417,278.8098440170288,278.9599521160126,278.9599521160126,278.9599521160126,278.9599521160126,278.9599521160126,278.9599521160126,278.9599521160126,281.21104288101196,2,2.392657995223999,None,,,,,,,,,,,,,,,,,,164,5,2025-02-28_13h26.55.296,comp,2024.2.4,60.078781437374495,2025-02-28 13h27.07.237977 -0500,
79,79,0,critical,wdh,35.0,2.1,lower,57.0,133.0,70.0,70.0,133.0,57.0,3,1.5670127868652344,None,,,,,0,0,0,0,0,79,79,8,281.2266676425934,,,,,,,,,,,,,,,,,,,,,,,,,,,,,,,,,,,,,,,,,,,,,,,,,,,,,,,,,,,,,,,,,,,,,,,,,,,,,,,,,57.0,133.0,70.0,70.0,133.0,57.0,2.1,2.12,-198,-255,0,-288,160,257,281.2118299007416,281.2118716239929,281.2138729095459,281.2266676425934,281.3767189979553,281.3767189979553,281.3767189979553,281.3767189979553,281.3767189979553,281.3767189979553,281.3767189979553,282.8110182285309,3,1.5670127868652344,None,,,,,,,,,,,,,,,,,,164,5,2025-02-28_13h26.55.296,comp,2024.2.4,60.078781437374495,2025-02-28 13h27.07.237977 -0500,
80,80,0,critical,dwh,35.0,1.0,lower,70.0,70.0,57.0,133.0,133.0,57.0,3,1.576392650604248,None,,,,,0,0,0,0,0,80,80,60,282.8263201713562,,,,,,,,,,,,,,,,,,,,,,,,,,,,,,,,,,,,,,,,,,,,,,,,,,,,,,,,,,,,,,,,,,,,,,,,,,,,,,,,,70.0,70.0,57.0,133.0,133.0,57.0,1.0,1.2,-198,-3,0,-7,191,16,282.81178855895996,282.81182956695557,282.81405878067017,282.8263201713562,282.9765553474426,282.9765553474426,282.9765553474426,282.9765553474426,282.9765553474426,282.9765553474426,282.9765553474426,284.4109830856323,3,1.576392650604248,None,,,,,,,,,,,,,,,,,,164,5,2025-02-28_13h26.55.296,comp,2024.2.4,60.078781437374495,2025-02-28 13h27.07.237977 -0500,
81,81,0,catch,None,None,None,None,None,None,None,None,None,None,1,1.4166748523712158,None,,,,,0,0,0,0,0,81,81,122,284.426878452301,,,,,,,,,,,,,,,,,,,,,,,,,,,,,,,,,,,,,,,,,,,,,,,,,,,,,,,,,,,,,,,,,,,,,,,,,,,,,,,,,200,125,100,90,129,61,1.0,1.3,276,-283,480,-279,652,-289,284.4120171070099,284.41205978393555,284.4141354560852,284.426878452301,284.57666516304016,284.57666516304016,284.57666516304016,284.57666516304016,284.57666516304016,284.57666516304016,284.57666516304016,285.8611822128296,1,1.4166748523712158,None,,,,,,,,,,,,,,,,,,164,5,2025-02-28_13h26.55.296,comp,2024.2.4,60.078781437374495,2025-02-28 13h27.07.237977 -0500,
82,82,0,critical,hdw,20.0,1.0,lower,133.0,57.0,78.0,78.0,57.0,133.0,3,3.166759729385376,None,,,,,0,0,0,0,0,82,82,114,285.87651085853577,,,,,,,,,,,,,,,,,,,,,,,,,,,,,,,,,,,,,,,,,,,,,,,,,,,,,,,,,,,,,,,,,,,,,,,,,,,,,,,,,133.0,57.0,78.0,78.0,57.0,133.0,1.0,1.2,-164,19,0,-7,202,-11,285.8619487285614,285.862003326416,285.8639307022095,285.87651085853577,286.02654814720154,286.02654814720154,286.02654814720154,286.02654814720154,286.02654814720154,286.02654814720154,286.02654814720154,289.060914516449,3,3.166759729385376,None,,,,,,,,,,,,,,,,,,164,5,2025-02-28_13h26.55.296,comp,2024.2.4,60.078781437374495,2025-02-28 13h27.07.237977 -0500,
83,83,0,critical,hwd,20.0,4.0,upper,200.0,125.0,125.0,200.0,141.0,141.0,2,3.6050593852996826,None,,,,,0,0,0,0,0,83,83,107,289.0763485431671,,,,,,,,,,,,,,,,,,,,,,,,,,,,,,,,,,,,,,,,,,,,,,,,,,,,,,,,,,,,,,,,,,,,,,,,,,,,,,,,,200.0,125.0,125.0,200.0,141.0,141.0,4.0,4.2,-258,3,0,-289,266,3,289.0617036819458,289.06174421310425,289.0639429092407,289.0763485431671,289.2267858982086,289.2267858982086,289.2267858982086,289.2267858982086,289.2267858982086,289.2267858982086,289.2267858982086,292.6945948600769,2,3.6050593852996826,None,,,,,,,,,,,,,,,,,,164,5,2025-02-28_13h26.55.296,comp,2024.2.4,60.078781437374495,2025-02-28 13h27.07.237977 -0500,
84,84,0,filler_random,None,None,None,None,None,None,None,None,None,None,3,2.060492753982544,None,,,,,0,0,0,0,0,84,84,144,292.7098870277405,,,,,,,,,,,,,,,,,,,,,,,,,,,,,,,,,,,,,,,,,,,,,,,,,,,,,,,,,,,,,,,,,,,,,,,,,,,,,,,,,92.78187377150942,162.20194539188998,145.17532227139128,186.44628174057874,187.73065308237537,162.76872147851793,2.1,2.12,-270,-251,0,-255,271,283,292.69555616378784,292.6955986022949,292.6980929374695,292.7098870277405,292.8601303100586,292.8601303100586,292.8601303100586,292.8601303100586,292.8601303100586,292.8601303100586,292.8601303100586,294.7778124809265,3,2.060492753982544,None,,,,,,,,,,,,,,,,,,164,5,2025-02-28_13h26.55.296,comp,2024.2.4,60.078781437374495,2025-02-28 13h27.07.237977 -0500,
85,85,0,critical,whd,20.0,4.0,lower,57.0,133.0,133.0,57.0,78.0,78.0,1,11.682321310043335,None,,,,,0,0,0,0,0,85,85,94,294.7932996749878,,,,,,,,,,,,,,,,,,,,,,,,,,,,,,,,,,,,,,,,,,,,,,,,,,,,,,,,,,,,,,,,,,,,,,,,,,,,,,,,,57.0,133.0,133.0,57.0,78.0,78.0,4.0,4.2,-191,-6,0,-251,164,13,294.7785975933075,294.7786388397217,294.7812645435333,294.7932996749878,294.9431037902832,294.9431037902832,294.9431037902832,294.9431037902832,294.9431037902832,294.9431037902832,294.9431037902832,306.4775836467743,1,11.682321310043335,None,,,,,,,,,,,,,,,,,,164,5,2025-02-28_13h26.55.296,comp,2024.2.4,60.078781437374495,2025-02-28 13h27.07.237977 -0500,
86,86,0,critical,dhw,35.0,4.0,upper,127.0,127.0,200.0,125.0,125.0,200.0,3,2.0682272911071777,None,,,,,0,0,0,0,0,86,86,53,306.493225812912,,,,,,,,,,,,,,,,,,,,,,,,,,,,,,,,,,,,,,,,,,,,,,,,,,,,,,,,,,,,,,,,,,,,,,,,,,,,,,,,,127.0,127.0,200.0,125.0,125.0,200.0,4.0,4.1,-222,-258,0,5,258,-281,306.47836899757385,306.4784097671509,306.4808509349823,306.493225812912,306.6432602405548,306.6432602405548,306.6432602405548,306.6432602405548,306.6432602405548,306.6432602405548,306.6432602405548,308.5778920650482,3,2.0682272911071777,None,,,,,,,,,,,,,,,,,,164,5,2025-02-28_13h26.55.296,comp,2024.2.4,60.078781437374495,2025-02-28 13h27.07.237977 -0500,
87,87,0,critical,wdh,20.0,2.1,upper,125.0,200.0,141.0,141.0,200.0,125.0,1,4.104684114456177,None,,,,,0,0,0,0,0,87,87,11,308.59303855895996,,,,,,,,,,,,,,,,,,,,,,,,,,,,,,,,,,,,,,,,,,,,,,,,,,,,,,,,,,,,,,,,,,,,,,,,,,,,,,,,,125.0,200.0,141.0,141.0,200.0,125.0,2.1,2.11,-266,281,0,286,229,-261,308.5787024497986,308.5787422657013,308.5812654495239,308.59303855895996,308.7433123588562,308.7433123588562,308.7433123588562,308.7433123588562,308.7433123588562,308.7433123588562,308.7433123588562,312.7110393047333,1,4.104684114456177,None,,,,,,,,,,,,,,,,,,164,5,2025-02-28_13h26.55.296,comp,2024.2.4,60.078781437374495,2025-02-28 13h27.07.237977 -0500,
88,88,0,filler_random,None,None,None,None,None,None,None,None,None,None,3,2.4600417613983154,None,,,,,0,0,0,0,0,88,88,152,312.7261891365051,,,,,,,,,,,,,,,,,,,,,,,,,,,,,,,,,,,,,,,,,,,,,,,,,,,,,,,,,,,,,,,,,,,,,,,,,,,,,,,,,185.1814031683413,95.78991266362414,107.73192682620504,83.4568951360566,105.39111087769871,161.43235411880616,2.1,2.11,-186,264,0,273,218,-252,312.7119963169098,312.7120397090912,312.71432065963745,312.7261891365051,312.8765654563904,312.8765654563904,312.8765654563904,312.8765654563904,312.8765654563904,312.8765654563904,312.8765654563904,315.1942012310028,3,2.4600417613983154,None,,,,,,,,,,,,,,,,,,164,5,2025-02-28_13h26.55.296,comp,2024.2.4,60.078781437374495,2025-02-28 13h27.07.237977 -0500,
89,89,0,critical,whd,20.0,4.0,upper,125.0,200.0,200.0,125.0,141.0,141.0,2,3.017029047012329,None,,,,,0,0,0,0,0,89,89,95,315.2097632884979,,,,,,,,,,,,,,,,,,,,,,,,,,,,,,,,,,,,,,,,,,,,,,,,,,,,,,,,,,,,,,,,,,,,,,,,,,,,,,,,,125.0,200.0,200.0,125.0,141.0,141.0,4.0,4.2,-258,-4,0,-275,229,2,315.19499707221985,315.19503927230835,315.1970925331116,315.2097632884979,315.3598508834839,315.3598508834839,315.3598508834839,315.3598508834839,315.3598508834839,315.3598508834839,315.3598508834839,318.24429059028625,2,3.017029047012329,None,,,,,,,,,,,,,,,,,,164,5,2025-02-28_13h26.55.296,comp,2024.2.4,60.078781437374495,2025-02-28 13h27.07.237977 -0500,
90,90,0,critical,dwh,35.0,3.0,upper,127.0,127.0,125.0,200.0,200.0,125.0,2,1.462587594985962,None,,,,,0,0,0,0,0,90,90,63,318.25962257385254,,,,,,,,,,,,,,,,,,,,,,,,,,,,,,,,,,,,,,,,,,,,,,,,,,,,,,,,,,,,,,,,,,,,,,,,,,,,,,,,,127.0,127.0,125.0,200.0,200.0,125.0,3.0,3.2,-260,-285,0,15,258,277,318.2450656890869,318.24510383605957,318.24752283096313,318.25962257385254,318.40983724594116,318.40983724594116,318.40983724594116,318.40983724594116,318.40983724594116,318.40983724594116,318.40983724594116,319.7276430130005,2,1.462587594985962,None,,,,,,,,,,,,,,,,,,164,5,2025-02-28_13h26.55.296,comp,2024.2.4,60.078781437374495,2025-02-28 13h27.07.237977 -0500,
91,91,0,critical,dwh,35.0,2.1,lower,70.0,70.0,57.0,133.0,133.0,57.0,2,2.4110875129699707,None,,,,,0,0,0,0,0,91,91,28,319.74305748939514,,,,,,,,,,,,,,,,,,,,,,,,,,,,,,,,,,,,,,,,,,,,,,,,,,,,,,,,,,,,,,,,,,,,,,,,,,,,,,,,,70.0,70.0,57.0,133.0,133.0,57.0,2.1,2.12,-198,-281,0,-284,191,282,319.72843766212463,319.7284789085388,319.7309048175812,319.74305748939514,319.892929315567,319.892929315567,319.892929315567,319.892929315567,319.892929315567,319.892929315567,319.892929315567,322.16066098213196,2,2.4110875129699707,None,,,,,,,,,,,,,,,,,,164,5,2025-02-28_13h26.55.296,comp,2024.2.4,60.078781437374495,2025-02-28 13h27.07.237977 -0500,
92,92,0,critical,dwh,20.0,1.0,upper,141.0,141.0,125.0,200.0,200.0,125.0,2,1.600860595703125,None,,,,,0,0,0,0,0,92,92,67,322.17642426490784,,,,,,,,,,,,,,,,,,,,,,,,,,,,,,,,,,,,,,,,,,,,,,,,,,,,,,,,,,,,,,,,,,,,,,,,,,,,,,,,,141.0,141.0,125.0,200.0,200.0,125.0,1.0,1.3,214,-276,480,-259,738,-271,322.1614866256714,322.161527633667,322.16416788101196,322.17642426490784,322.3264663219452,322.3264663219452,322.3264663219452,322.3264663219452,322.3264663219452,322.3264663219452,322.3264663219452,323.7941608428955,2,1.600860595703125,None,,,,,,,,,,,,,,,,,,164,5,2025-02-28_13h26.55.296,comp,2024.2.4,60.078781437374495,2025-02-28 13h27.07.237977 -0500,
93,93,0,filler_random,None,None,None,None,None,None,None,None,None,None,2,5.650108337402344,None,,,,,0,0,0,0,0,93,93,133,323.8094861507416,,,,,,,,,,,,,,,,,,,,,,,,,,,,,,,,,,,,,,,,,,,,,,,,,,,,,,,,,,,,,,,,,,,,,,,,,,,,,,,,,102.55459153204336,127.97259319451757,136.11806495090775,128.03568179357907,80.6074491635367,120.80399565453722,2.1,2.11,-224,287,0,283,220,-251,323.7950942516327,323.7951364517212,323.797420501709,323.8094861507416,323.9597282409668,323.9597282409668,323.9597282409668,323.9597282409668,323.9597282409668,323.9597282409668,323.9597282409668,329.46091318130493,2,5.650108337402344,None,,,,,,,,,,,,,,,,,,164,5,2025-02-28_13h26.55.296,comp,2024.2.4,60.078781437374495,2025-02-28 13h27.07.237977 -0500,
94,94,0,filler_random,None,None,None,None,None,None,None,None,None,None,3,1.6047942638397217,None,,,,,0,0,0,0,0,94,94,155,329.4763214588165,,,,,,,,,,,,,,,,,,,,,,,,,,,,,,,,,,,,,,,,,,,,,,,,,,,,,,,,,,,,,,,,,,,,,,,,,,,,,,,,,78.94598452185828,139.2160858186087,123.71906813775158,118.48432291535121,135.0270763532027,199.58067108009908,3.0,3.2,-225,-265,0,7,255,259,329.4618399143219,329.4618811607361,329.46396684646606,329.4763214588165,329.6268153190613,329.6268153190613,329.6268153190613,329.6268153190613,329.6268153190613,329.6268153190613,329.6268153190613,331.09416365623474,3,1.6047942638397217,None,,,,,,,,,,,,,,,,,,164,5,2025-02-28_13h26.55.296,comp,2024.2.4,60.078781437374495,2025-02-28 13h27.07.237977 -0500,
95,95,0,critical,hdw,35.0,3.0,upper,200.0,125.0,127.0,127.0,125.0,200.0,3,3.1249310970306396,None,,,,,0,0,0,0,0,95,95,111,331.1094298362732,,,,,,,,,,,,,,,,,,,,,,,,,,,,,,,,,,,,,,,,,,,,,,,,,,,,,,,,,,,,,,,,,,,,,,,,,,,,,,,,,200.0,125.0,127.0,127.0,125.0,200.0,3.0,3.1,-222,252,0,7,260,-278,331.0949409008026,331.09499311447144,331.0973069667816,331.1094298362732,331.25977659225464,331.25977659225464,331.25977659225464,331.25977659225464,331.25977659225464,331.25977659225464,331.25977659225464,334.2441258430481,3,3.1249310970306396,None,,,,,,,,,,,,,,,,,,164,5,2025-02-28_13h26.55.296,comp,2024.2.4,60.078781437374495,2025-02-28 13h27.07.237977 -0500,
96,96,0,critical,hwd,20.0,3.0,lower,133.0,57.0,57.0,133.0,78.0,78.0,2,4.653366804122925,None,,,,,0,0,0,0,0,96,96,104,334.2598497867584,,,,,,,,,,,,,,,,,,,,,,,,,,,,,,,,,,,,,,,,,,,,,,,,,,,,,,,,,,,,,,,,,,,,,,,,,,,,,,,,,133.0,57.0,57.0,133.0,78.0,78.0,3.0,3.1,-191,289,0,-17,202,-276,334.24490761756897,334.24494671821594,334.24688243865967,334.2598497867584,334.4094994068146,334.4094994068146,334.4094994068146,334.4094994068146,334.4094994068146,334.4094994068146,334.4094994068146,338.9273064136505,2,4.653366804122925,None,,,,,,,,,,,,,,,,,,164,5,2025-02-28_13h26.55.296,comp,2024.2.4,60.078781437374495,2025-02-28 13h27.07.237977 -0500,
97,97,0,filler_square,None,None,None,None,None,None,None,None,None,None,1,1.354651689529419,None,,,,,0,0,0,0,0,97,97,208,338.94280982017517,,,,,,,,,,,,,,,,,,,,,,,,,,,,,,,,,,,,,,,,,,,,,,,,,,,,,,,,,,,,,,,,,,,,,,,,,,,,,,,,,174.37303546522406,174.37303546522406,58.3978279676087,96.11474975922764,94.62960999654877,134.19064593455425,3.0,3.2,-231,-285,0,6,211,283,338.92825078964233,338.92828917503357,338.9306516647339,338.94280982017517,339.0929214954376,339.0929214954376,339.0929214954376,339.0929214954376,339.0929214954376,339.0929214954376,339.0929214954376,340.31063985824585,1,1.354651689529419,None,,,,,,,,,,,,,,,,,,164,5,2025-02-28_13h26.55.296,comp,2024.2.4,60.078781437374495,2025-02-28 13h27.07.237977 -0500,
98,98,0,critical,hwd,20.0,2.1,lower,133.0,57.0,57.0,133.0,78.0,78.0,2,3.5084712505340576,None,,,,,0,0,0,0,0,98,98,18,340.32600569725037,,,,,,,,,,,,,,,,,,,,,,,,,,,,,,,,,,,,,,,,,,,,,,,,,,,,,,,,,,,,,,,,,,,,,,,,,,,,,,,,,133.0,57.0,57.0,133.0,78.0,78.0,2.1,2.12,-191,-273,0,-273,202,274,340.31144976615906,340.3114902973175,340.31395387649536,340.32600569725037,340.47624492645264,340.47624492645264,340.47624492645264,340.47624492645264,340.47624492645264,340.47624492645264,340.47624492645264,343.8439462184906,2,3.5084712505340576,None,,,,,,,,,,,,,,,,,,164,5,2025-02-28_13h26.55.296,comp,2024.2.4,60.078781437374495,2025-02-28 13h27.07.237977 -0500,
99,99,0,filler_square,None,None,None,None,None,None,None,None,None,None,2,1.1895112991333008,None,,,,,0,0,0,0,0,99,99,171,343.85974860191345,,,,,,,,,,,,,,,,,,,,,,,,,,,,,,,,,,,,,,,,,,,,,,,,,,,,,,,,,,,,,,,,,,,,,,,,,,,,,,,,,103.86114479122031,81.5624990923468,132.37842261982976,132.37842261982976,97.90047596618217,80.74023415574497,2.1,2.12,-203,-270,0,-278,203,261,343.84491539001465,343.84495663642883,343.84744811058044,343.85974860191345,344.00958251953125,344.00958251953125,344.00958251953125,344.00958251953125,344.00958251953125,344.00958251953125,344.00958251953125,345.06043124198914,2,1.1895112991333008,None,,,,,,,,,,,,,,,,,,164,5,2025-02-28_13h26.55.296,comp,2024.2.4,60.078781437374495,2025-02-28 13h27.07.237977 -0500,
100,100,0,critical,hwd,20.0,4.0,lower,133.0,57.0,57.0,133.0,78.0,78.0,2,4.550511121749878,None,,,,,0,0,0,0,0,100,100,106,345.07607340812683,,,,,,,,,,,,,,,,,,,,,,,,,,,,,,,,,,,,,,,,,,,,,,,,,,,,,,,,,,,,,,,,,,,,,,,,,,,,,,,,,133.0,57.0,57.0,133.0,78.0,78.0,4.0,4.1,-191,-281,0,4,202,-270,345.0613307952881,345.06137228012085,345.06389927864075,345.07607340812683,345.22605323791504,345.22605323791504,345.22605323791504,345.22605323791504,345.22605323791504,345.22605323791504,345.22605323791504,349.6438822746277,2,4.550511121749878,None,,,,,,,,,,,,,,,,,,164,5,2025-02-28_13h26.55.296,comp,2024.2.4,60.078781437374495,2025-02-28 13h27.07.237977 -0500,
101,101,0,catch,None,None,None,None,None,None,None,None,None,None,1,2.3103535175323486,None,,,,,0,0,0,0,0,101,101,129,349.65949630737305,,,,,,,,,,,,,,,,,,,,,,,,,,,,,,,,,,,,,,,,,,,,,,,,,,,,,,,,,,,,,,,,,,,,,,,,,,,,,,,,,162,163,94,96,120,70,2.2,2.22,-226,286,0,-260,179,-254,349.6449646949768,349.6450216770172,349.6484978199005,349.65949630737305,349.8095498085022,349.8095498085022,349.8095498085022,349.8095498085022,349.8095498085022,349.8095498085022,349.8095498085022,351.97728085517883,1,2.3103535175323486,None,,,,,,,,,,,,,,,,,,164,5,2025-02-28_13h26.55.296,comp,2024.2.4,60.078781437374495,2025-02-28 13h27.07.237977 -0500,
102,102,0,critical,dwh,35.0,2.1,upper,127.0,127.0,125.0,200.0,200.0,125.0,2,1.6503024101257324,None,,,,,0,0,0,0,0,102,102,5,351.9928517341614,,,,,,,,,,,,,,,,,,,,,,,,,,,,,,,,,,,,,,,,,,,,,,,,,,,,,,,,,,,,,,,,,,,,,,,,,,,,,,,,,127.0,127.0,125.0,200.0,200.0,125.0,2.1,2.12,-260,-261,0,-267,258,277,351.9780626296997,351.97810339927673,351.9804353713989,351.9928517341614,352.143027305603,352.143027305603,352.143027305603,352.143027305603,352.143027305603,352.143027305603,352.143027305603,353.64457178115845,2,1.6503024101257324,None,,,,,,,,,,,,,,,,,,164,5,2025-02-28_13h26.55.296,comp,2024.2.4,60.078781437374495,2025-02-28 13h27.07.237977 -0500,
103,103,0,filler_random,None,None,None,None,None,None,None,None,None,None,2,2.015787363052368,None,,,,,0,0,0,0,0,103,103,158,353.65957260131836,,,,,,,,,,,,,,,,,,,,,,,,,,,,,,,,,,,,,,,,,,,,,,,,,,,,,,,,,,,,,,,,,,,,,,,,,,,,,,,,,102.22797592518684,77.49235102794485,88.17891939897721,140.11680148716857,62.90960745014742,106.69149658563617,2.1,2.12,-205,-275,0,-269,219,256,353.64548897743225,353.6455316543579,353.6479141712189,353.65957260131836,353.8093583583832,353.8093583583832,353.8093583583832,353.8093583583832,353.8093583583832,353.8093583583832,353.8093583583832,355.677268743515,2,2.015787363052368,None,,,,,,,,,,,,,,,,,,164,5,2025-02-28_13h26.55.296,comp,2024.2.4,60.078781437374495,2025-02-28 13h27.07.237977 -0500,
104,104,0,filler_random,None,None,None,None,None,None,None,None,None,None,1,1.004532814025879,None,,,,,0,0,0,0,0,104,104,166,355.6928360462189,,,,,,,,,,,,,,,,,,,,,,,,,,,,,,,,,,,,,,,,,,,,,,,,,,,,,,,,,,,,,,,,,,,,,,,,,,,,,,,,,173.61583919021464,181.14686203427752,117.33831095436805,69.99506650303046,123.95536760205046,89.85607300415157,2.2,2.21,-222,-253,0,280,176,250,355.6781394481659,355.6781804561615,355.68045711517334,355.6928360462189,355.8427858352661,355.8427858352661,355.8427858352661,355.8427858352661,355.8427858352661,355.8427858352661,355.8427858352661,356.7105333805084,1,1.004532814025879,None,,,,,,,,,,,,,,,,,,164,5,2025-02-28_13h26.55.296,comp,2024.2.4,60.078781437374495,2025-02-28 13h27.07.237977 -0500,
105,105,0,filler_random,None,None,None,None,None,None,None,None,None,None,1,0.9871869087219238,None,,,,,0,0,0,0,0,105,105,140,356.72593450546265,,,,,,,,,,,,,,,,,,,,,,,,,,,,,,,,,,,,,,,,,,,,,,,,,,,,,,,,,,,,,,,,,,,,,,,,,,,,,,,,,183.99017504060424,148.10159929039892,111.28213318468825,84.9499739055187,98.83066559076701,84.4416415484868,2.1,2.12,-213,-257,0,-252,181,284,356.71147060394287,356.7115128040314,356.71395230293274,356.72593450546265,356.8761875629425,356.8761875629425,356.8761875629425,356.8761875629425,356.8761875629425,356.8761875629425,356.8761875629425,357.7271947860718,1,0.9871869087219238,None,,,,,,,,,,,,,,,,,,164,5,2025-02-28_13h26.55.296,comp,2024.2.4,60.078781437374495,2025-02-28 13h27.07.237977 -0500,
106,106,0,critical,hwd,20.0,1.0,upper,200.0,125.0,125.0,200.0,141.0,141.0,1,4.811198949813843,None,,,,,0,0,0,0,0,106,106,103,357.74255633354187,,,,,,,,,,,,,,,,,,,,,,,,,,,,,,,,,,,,,,,,,,,,,,,,,,,,,,,,,,,,,,,,,,,,,,,,,,,,,,,,,200.0,125.0,125.0,200.0,141.0,141.0,1.0,1.2,-258,-7,0,2,266,-1,357.7279348373413,357.7279853820801,357.73026871681213,357.74255633354187,357.8928165435791,357.8928165435791,357.8928165435791,357.8928165435791,357.8928165435791,357.8928165435791,357.8928165435791,362.5606212615967,1,4.811198949813843,None,,,,,,,,,,,,,,,,,,164,5,2025-02-28_13h26.55.296,comp,2024.2.4,60.078781437374495,2025-02-28 13h27.07.237977 -0500,
107,107,0,critical,dwh,20.0,3.0,lower,78.0,78.0,57.0,133.0,133.0,57.0,2,2.121309757232666,None,,,,,0,0,0,0,0,107,107,68,362.57607889175415,,,,,,,,,,,,,,,,,,,,,,,,,,,,,,,,,,,,,,,,,,,,,,,,,,,,,,,,,,,,,,,,,,,,,,,,,,,,,,,,,78.0,78.0,57.0,133.0,133.0,57.0,3.0,3.1,-202,280,0,10,191,-266,362.5613899230957,362.5614287853241,362.56375670433044,362.57607889175415,362.7260043621063,362.7260043621063,362.7260043621063,362.7260043621063,362.7260043621063,362.7260043621063,362.7260043621063,364.7104766368866,2,2.121309757232666,None,,,,,,,,,,,,,,,,,,164,5,2025-02-28_13h26.55.296,comp,2024.2.4,60.078781437374495,2025-02-28 13h27.07.237977 -0500,
108,108,0,filler_square,None,None,None,None,None,None,None,None,None,None,3,2.419071674346924,None,,,,,0,0,0,0,0,108,108,194,364.7258894443512,,,,,,,,,,,,,,,,,,,,,,,,,,,,,,,,,,,,,,,,,,,,,,,,,,,,,,,,,,,,,,,,,,,,,,,,,,,,,,,,,68.04985542656756,68.42000418013215,79.93848056687,79.50382422288153,83.40780969563569,83.40780969563569,2.1,2.11,-170,251,0,289,177,-265,364.7114403247833,364.7114808559418,364.713849067688,364.7258894443512,364.8761088848114,364.8761088848114,364.8761088848114,364.8761088848114,364.8761088848114,364.8761088848114,364.8761088848114,367.16032242774963,3,2.419071674346924,None,,,,,,,,,,,,,,,,,,164,5,2025-02-28_13h26.55.296,comp,2024.2.4,60.078781437374495,2025-02-28 13h27.07.237977 -0500,
109,109,0,critical,hdw,20.0,2.1,lower,133.0,57.0,78.0,78.0,57.0,133.0,3,2.194093942642212,None,,,,,0,0,0,0,0,109,109,22,367.175803899765,,,,,,,,,,,,,,,,,,,,,,,,,,,,,,,,,,,,,,,,,,,,,,,,,,,,,,,,,,,,,,,,,,,,,,,,,,,,,,,,,133.0,57.0,78.0,78.0,57.0,133.0,2.1,2.11,-164,269,0,257,202,-275,367.16108798980713,367.16112542152405,367.1634213924408,367.175803899765,367.3259844779968,367.3259844779968,367.3259844779968,367.3259844779968,367.3259844779968,367.3259844779968,367.3259844779968,369.37714099884033,3,2.194093942642212,None,,,,,,,,,,,,,,,,,,164,5,2025-02-28_13h26.55.296,comp,2024.2.4,60.078781437374495,2025-02-28 13h27.07.237977 -0500,
110,110,0,filler_square,None,None,None,None,None,None,None,None,None,None,2,1.0563695430755615,None,,,,,0,0,0,0,0,110,110,172,369.39271450042725,,,,,,,,,,,,,,,,,,,,,,,,,,,,,,,,,,,,,,,,,,,,,,,,,,,,,,,,,,,,,,,,,,,,,,,,,,,,,,,,,61.76063762273836,83.92524523559611,125.10997683401507,125.10997683401507,67.8348843926248,70.3226649974774,4.0,4.1,-201,-286,0,8,194,-277,369.3780562877655,369.37809586524963,369.38036823272705,369.39271450042725,369.543420791626,369.543420791626,369.543420791626,369.543420791626,369.543420791626,369.543420791626,369.543420791626,370.46017599105835,2,1.0563695430755615,None,,,,,,,,,,,,,,,,,,164,5,2025-02-28_13h26.55.296,comp,2024.2.4,60.078781437374495,2025-02-28 13h27.07.237977 -0500,
111,111,0,filler_random,None,None,None,None,None,None,None,None,None,None,1,1.077683687210083,None,,,,,0,0,0,0,0,111,111,141,370.4759964942932,,,,,,,,,,,,,,,,,,,,,,,,,,,,,,,,,,,,,,,,,,,,,,,,,,,,,,,,,,,,,,,,,,,,,,,,,,,,,,,,,189.87078627568542,120.19843724099118,133.54733292891922,136.626670661632,159.8068015305871,97.89264039056002,2.2,2.21,-224,-264,0,272,213,263,370.46106791496277,370.4611074924469,370.4633779525757,370.4759964942932,370.62621450424194,370.62621450424194,370.62621450424194,370.62621450424194,370.62621450424194,370.62621450424194,370.62621450424194,371.56050205230713,1,1.077683687210083,None,,,,,,,,,,,,,,,,,,164,5,2025-02-28_13h26.55.296,comp,2024.2.4,60.078781437374495,2025-02-28 13h27.07.237977 -0500,
112,112,0,filler_random,None,None,None,None,None,None,None,None,None,None,2,1.5616347789764404,None,,,,,0,0,0,0,0,112,112,139,371.57604908943176,,,,,,,,,,,,,,,,,,,,,,,,,,,,,,,,,,,,,,,,,,,,,,,,,,,,,,,,,,,,,,,,,,,,,,,,,,,,,,,,,98.84161957003028,192.20786518342624,196.86383244202528,144.64810000557566,143.90460957661375,154.4514374351748,2.2,2.22,-264,259,0,-271,246,-258,371.5614285469055,371.5614700317383,371.563827753067,371.57604908943176,371.72621273994446,371.72621273994446,371.72621273994446,371.72621273994446,371.72621273994446,371.72621273994446,371.72621273994446,373.1439907550812,2,1.5616347789764404,None,,,,,,,,,,,,,,,,,,164,5,2025-02-28_13h26.55.296,comp,2024.2.4,60.078781437374495,2025-02-28 13h27.07.237977 -0500,
113,113,0,filler_square,None,None,None,None,None,None,None,None,None,None,3,1.1545677185058594,None,,,,,0,0,0,0,0,113,113,186,373.15943813323975,,,,,,,,,,,,,,,,,,,,,,,,,,,,,,,,,,,,,,,,,,,,,,,,,,,,,,,,,,,,,,,,,,,,,,,,,,,,,,,,,75.09329236787431,142.88567257758154,147.42928107354368,140.72102549545733,184.81960914297497,184.81960914297497,1.0,1.2,-238,4,0,14,259,13,373.14491391181946,373.1449534893036,373.1470305919647,373.15943813323975,373.3095736503601,373.3095736503601,373.3095736503601,373.3095736503601,373.3095736503601,373.3095736503601,373.3095736503601,374.32722759246826,3,1.1545677185058594,None,,,,,,,,,,,,,,,,,,164,5,2025-02-28_13h26.55.296,comp,2024.2.4,60.078781437374495,2025-02-28 13h27.07.237977 -0500,
114,114,0,critical,dhw,20.0,3.0,lower,78.0,78.0,133.0,57.0,57.0,133.0,2,1.7794418334960938,None,,,,,0,0,0,0,0,114,114,56,374.3424623012543,,,,,,,,,,,,,,,,,,,,,,,,,,,,,,,,,,,,,,,,,,,,,,,,,,,,,,,,,,,,,,,,,,,,,,,,,,,,,,,,,78.0,78.0,133.0,57.0,57.0,133.0,3.0,3.1,-164,286,0,0,191,-280,374.32799673080444,374.3280363082886,374.33034086227417,374.3424623012543,374.4925546646118,374.4925546646118,374.4925546646118,374.4925546646118,374.4925546646118,374.4925546646118,374.4925546646118,376.12719345092773,2,1.7794418334960938,None,,,,,,,,,,,,,,,,,,164,5,2025-02-28_13h26.55.296,comp,2024.2.4,60.078781437374495,2025-02-28 13h27.07.237977 -0500,
115,115,0,critical,hdw,20.0,4.0,lower,133.0,57.0,78.0,78.0,57.0,133.0,3,1.4183449745178223,None,,,,,0,0,0,0,0,115,115,118,376.1427593231201,,,,,,,,,,,,,,,,,,,,,,,,,,,,,,,,,,,,,,,,,,,,,,,,,,,,,,,,,,,,,,,,,,,,,,,,,,,,,,,,,133.0,57.0,78.0,78.0,57.0,133.0,4.0,4.1,-164,-253,0,14,202,-258,376.12798714637756,376.1280288696289,376.13033747673035,376.1427593231201,376.2925441265106,376.2925441265106,376.2925441265106,376.2925441265106,376.2925441265106,376.2925441265106,376.2925441265106,377.5770356655121,3,1.4183449745178223,None,,,,,,,,,,,,,,,,,,164,5,2025-02-28_13h26.55.296,comp,2024.2.4,60.078781437374495,2025-02-28 13h27.07.237977 -0500,
116,116,0,filler_square,None,None,None,None,None,None,None,None,None,None,3,1.3204708099365234,None,,,,,0,0,0,0,0,116,116,207,377.59244322776794,,,,,,,,,,,,,,,,,,,,,,,,,,,,,,,,,,,,,,,,,,,,,,,,,,,,,,,,,,,,,,,,,,,,,,,,,,,,,,,,,118.42155598351263,178.43381476184635,82.5867617278503,94.31761823651188,186.99835171852618,186.99835171852618,1.0,1.2,-232,-5,0,-14,237,-9,377.5779435634613,377.5779960155487,377.5802891254425,377.59244322776794,377.7428615093231,377.7428615093231,377.7428615093231,377.7428615093231,377.7428615093231,377.7428615093231,377.7428615093231,378.9272427558899,3,1.3204708099365234,None,,,,,,,,,,,,,,,,,,164,5,2025-02-28_13h26.55.296,comp,2024.2.4,60.078781437374495,2025-02-28 13h27.07.237977 -0500,
117,117,0,filler_random,None,None,None,None,None,None,None,None,None,None,1,1.1546485424041748,None,,,,,0,0,0,0,0,117,117,134,378.94257259368896,,,,,,,,,,,,,,,,,,,,,,,,,,,,,,,,,,,,,,,,,,,,,,,,,,,,,,,,,,,,,,,,,,,,,,,,,,,,,,,,,148.7846167482324,177.2570028610906,89.74197536009511,188.61161208770793,79.40935462750822,180.42160747550923,2.1,2.12,-279,-251,0,-250,281,265,378.92818236351013,378.92822551727295,378.93144822120667,378.94257259368896,379.0927302837372,379.0927302837372,379.0927302837372,379.0927302837372,379.0927302837372,379.0927302837372,379.0927302837372,380.1103823184967,1,1.1546485424041748,None,,,,,,,,,,,,,,,,,,164,5,2025-02-28_13h26.55.296,comp,2024.2.4,60.078781437374495,2025-02-28 13h27.07.237977 -0500,
118,118,0,critical,dwh,20.0,2.1,lower,78.0,78.0,57.0,133.0,133.0,57.0,2,5.80326771736145,None,,,,,0,0,0,0,0,118,118,6,380.1258592605591,,,,,,,,,,,,,,,,,,,,,,,,,,,,,,,,,,,,,,,,,,,,,,,,,,,,,,,,,,,,,,,,,,,,,,,,,,,,,,,,,78.0,78.0,57.0,133.0,133.0,57.0,2.1,2.11,-202,277,0,261,191,-259,380.1112132072449,380.11125445365906,380.11364364624023,380.1258592605591,380.275771856308,380.275771856308,380.275771856308,380.275771856308,380.275771856308,380.275771856308,380.275771856308,385.9435727596283,2,5.80326771736145,None,,,,,,,,,,,,,,,,,,164,5,2025-02-28_13h26.55.296,comp,2024.2.4,60.078781437374495,2025-02-28 13h27.07.237977 -0500,
119,119,0,critical,whd,35.0,2.1,upper,125.0,200.0,200.0,125.0,127.0,127.0,2,1.3627417087554932,None,,,,,0,0,0,0,0,119,119,37,385.958988904953,,,,,,,,,,,,,,,,,,,,,,,,,,,,,,,,,,,,,,,,,,,,,,,,,,,,,,,,,,,,,,,,,,,,,,,,,,,,,,,,,125.0,200.0,200.0,125.0,127.0,127.0,2.1,2.11,-258,266,0,286,222,-267,385.9443700313568,385.94441175460815,385.94688868522644,385.958988904953,386.10934829711914,386.10934829711914,386.10934829711914,386.10934829711914,386.10934829711914,386.10934829711914,386.10934829711914,387.3272774219513,2,1.3627417087554932,None,,,,,,,,,,,,,,,,,,164,5,2025-02-28_13h26.55.296,comp,2024.2.4,60.078781437374495,2025-02-28 13h27.07.237977 -0500,
120,120,0,filler_square,None,None,None,None,None,None,None,None,None,None,2,1.0269320011138916,None,,,,,0,0,0,0,0,120,120,170,387.3427028656006,,,,,,,,,,,,,,,,,,,,,,,,,,,,,,,,,,,,,,,,,,,,,,,,,,,,,,,,,,,,,,,,,,,,,,,,,,,,,,,,,72.72350734575352,59.65761416640935,170.4699399663396,170.4699399663396,159.38029130466424,79.70365916377467,4.0,4.1,-211,-267,0,11,221,-268,387.32819533348083,387.32823395729065,387.3305094242096,387.3427028656006,387.49264883995056,387.49264883995056,387.49264883995056,387.49264883995056,387.49264883995056,387.49264883995056,387.49264883995056,388.37702226638794,2,1.0269320011138916,None,,,,,,,,,,,,,,,,,,164,5,2025-02-28_13h26.55.296,comp,2024.2.4,60.078781437374495,2025-02-28 13h27.07.237977 -0500,
121,121,0,critical,wdh,20.0,1.0,upper,125.0,200.0,141.0,141.0,200.0,125.0,2,2.65031361579895,None,,,,,0,0,0,0,0,121,121,79,388.39251685142517,,,,,,,,,,,,,,,,,,,,,,,,,,,,,,,,,,,,,,,,,,,,,,,,,,,,,,,,,,,,,,,,,,,,,,,,,,,,,,,,,125.0,200.0,141.0,141.0,200.0,125.0,1.0,1.3,214,-271,480,-272,709,-270,388.37780690193176,388.3778486251831,388.38011288642883,388.39251685142517,388.5427997112274,388.5427997112274,388.5427997112274,388.5427997112274,388.5427997112274,388.5427997112274,388.5427997112274,391.06047892570496,2,2.65031361579895,None,,,,,,,,,,,,,,,,,,164,5,2025-02-28_13h26.55.296,comp,2024.2.4,60.078781437374495,2025-02-28 13h27.07.237977 -0500,
122,122,0,critical,hdw,20.0,3.0,upper,200.0,125.0,141.0,141.0,125.0,200.0,1,2.7505576610565186,None,,,,,0,0,0,0,0,122,122,117,391.07569098472595,,,,,,,,,,,,,,,,,,,,,,,,,,,,,,,,,,,,,,,,,,,,,,,,,,,,,,,,,,,,,,,,,,,,,,,,,,,,,,,,,200.0,125.0,141.0,141.0,125.0,200.0,3.0,3.2,-229,-271,0,-8,266,282,391.06128692626953,391.06132769584656,391.0637845993042,391.07569098472595,391.226037979126,391.226037979126,391.226037979126,391.226037979126,391.226037979126,391.226037979126,391.226037979126,393.8437967300415,1,2.7505576610565186,None,,,,,,,,,,,,,,,,,,164,5,2025-02-28_13h26.55.296,comp,2024.2.4,60.078781437374495,2025-02-28 13h27.07.237977 -0500,
123,123,0,critical,dhw,35.0,2.1,lower,70.0,70.0,133.0,57.0,57.0,133.0,3,3.205610752105713,None,,,,,0,0,0,0,0,123,123,0,393.85904598236084,,,,,,,,,,,,,,,,,,,,,,,,,,,,,,,,,,,,,,,,,,,,,,,,,,,,,,,,,,,,,,,,,,,,,,,,,,,,,,,,,70.0,70.0,133.0,57.0,57.0,133.0,2.1,2.11,-160,273,0,276,191,-254,393.8446056842804,393.8446455001831,393.8471097946167,393.85904598236084,394.00906562805176,394.00906562805176,394.00906562805176,394.00906562805176,394.00906562805176,394.00906562805176,394.00906562805176,397.0769131183624,3,3.205610752105713,None,,,,,,,,,,,,,,,,,,164,5,2025-02-28_13h26.55.296,comp,2024.2.4,60.078781437374495,2025-02-28 13h27.07.237977 -0500,
124,124,0,filler_random,None,None,None,None,None,None,None,None,None,None,1,1.1670470237731934,None,,,,,0,0,0,0,0,124,124,137,397.0922679901123,,,,,,,,,,,,,,,,,,,,,,,,,,,,,,,,,,,,,,,,,,,,,,,,,,,,,,,,,,,,,,,,,,,,,,,,,,,,,,,,,188.14706690527242,136.44959770935904,128.52021288487214,132.52080711053048,152.81316835174368,98.90793091131209,3.0,3.1,-230,265,0,7,212,-267,397.07783031463623,397.07786989212036,397.0801422595978,397.0922679901123,397.2425305843353,397.2425305843353,397.2425305843353,397.2425305843353,397.2425305843353,397.2425305843353,397.2425305843353,398.26061606407166,1,1.1670470237731934,None,,,,,,,,,,,,,,,,,,164,5,2025-02-28_13h26.55.296,comp,2024.2.4,60.078781437374495,2025-02-28 13h27.07.237977 -0500,
125,125,0,critical,hdw,20.0,1.0,upper,200.0,125.0,141.0,141.0,125.0,200.0,3,3.237858772277832,None,,,,,0,0,0,0,0,125,125,115,398.2759256362915,,,,,,,,,,,,,,,,,,,,,,,,,,,,,,,,,,,,,,,,,,,,,,,,,,,,,,,,,,,,,,,,,,,,,,,,,,,,,,,,,200.0,125.0,141.0,141.0,125.0,200.0,1.0,1.1,-709,275,-480,270,-214,282,398.2614221572876,398.26146245002747,398.26376962661743,398.2759256362915,398.4260129928589,398.4260129928589,398.4260129928589,398.4260129928589,398.4260129928589,398.4260129928589,398.4260129928589,401.52714133262634,3,3.237858772277832,None,,,,,,,,,,,,,,,,,,164,5,2025-02-28_13h26.55.296,comp,2024.2.4,60.078781437374495,2025-02-28 13h27.07.237977 -0500,
126,126,0,critical,wdh,20.0,2.1,lower,57.0,133.0,78.0,78.0,133.0,57.0,1,3.538311243057251,None,,,,,0,0,0,0,0,126,126,34,401.5422990322113,,,,,,,,,,,,,,,,,,,,,,,,,,,,,,,,,,,,,,,,,,,,,,,,,,,,,,,,,,,,,,,,,,,,,,,,,,,,,,,,,57.0,133.0,78.0,78.0,133.0,57.0,2.1,2.11,-202,263,0,253,164,-257,401.5279235839844,401.5279633998871,401.52999901771545,401.5422990322113,401.6923279762268,401.6923279762268,401.6923279762268,401.6923279762268,401.6923279762268,401.6923279762268,401.6923279762268,405.0935342311859,1,3.538311243057251,None,,,,,,,,,,,,,,,,,,164,5,2025-02-28_13h26.55.296,comp,2024.2.4,60.078781437374495,2025-02-28 13h27.07.237977 -0500,
127,127,0,critical,dhw,35.0,3.0,upper,127.0,127.0,200.0,125.0,125.0,200.0,3,2.3823044300079346,None,,,,,0,0,0,0,0,127,127,51,405.1088616847992,,,,,,,,,,,,,,,,,,,,,,,,,,,,,,,,,,,,,,,,,,,,,,,,,,,,,,,,,,,,,,,,,,,,,,,,,,,,,,,,,127.0,127.0,200.0,125.0,125.0,200.0,3.0,3.2,-222,-269,0,-5,258,268,405.0943431854248,405.09438276290894,405.09681367874146,405.1088616847992,405.2592899799347,405.2592899799347,405.2592899799347,405.2592899799347,405.2592899799347,405.2592899799347,405.2592899799347,407.49381732940674,3,2.3823044300079346,None,,,,,,,,,,,,,,,,,,164,5,2025-02-28_13h26.55.296,comp,2024.2.4,60.078781437374495,2025-02-28 13h27.07.237977 -0500,
128,128,0,filler_random,None,None,None,None,None,None,None,None,None,None,2,3.7554831504821777,None,,,,,0,0,0,0,0,128,128,164,407.5091755390167,,,,,,,,,,,,,,,,,,,,,,,,,,,,,,,,,,,,,,,,,,,,,,,,,,,,,,,,,,,,,,,,,,,,,,,,,,,,,,,,,164.304173576349,69.63760886930524,183.710715590829,84.64848540206589,107.36846869563823,132.10756549678325,2.2,2.22,-173,280,0,-256,204,-262,407.49473237991333,407.4947724342346,407.49683356285095,407.5091755390167,407.65914154052734,407.65914154052734,407.65914154052734,407.65914154052734,407.65914154052734,407.65914154052734,407.65914154052734,411.2771110534668,2,3.7554831504821777,None,,,,,,,,,,,,,,,,,,164,5,2025-02-28_13h26.55.296,comp,2024.2.4,60.078781437374495,2025-02-28 13h27.07.237977 -0500,
129,129,0,filler_square,None,None,None,None,None,None,None,None,None,None,1,2.0686371326446533,None,,,,,0,0,0,0,0,129,129,190,411.2921779155731,,,,,,,,,,,,,,,,,,,,,,,,,,,,,,,,,,,,,,,,,,,,,,,,,,,,,,,,,,,,,,,,,,,,,,,,,,,,,,,,,93.88901498085102,93.88901498085102,91.96389257591228,61.36220805434267,81.44700784859913,88.62058749394498,4.0,4.1,-174,-274,0,-18,171,-289,411.2780394554138,411.2780773639679,411.2803053855896,411.2921779155731,411.4422414302826,411.4422414302826,411.4422414302826,411.4422414302826,411.4422414302826,411.4422414302826,411.4422414302826,413.37701869010925,1,2.0686371326446533,None,,,,,,,,,,,,,,,,,,164,5,2025-02-28_13h26.55.296,comp,2024.2.4,60.078781437374495,2025-02-28 13h27.07.237977 -0500,
130,130,0,critical,wdh,20.0,2.1,lower,57.0,133.0,78.0,78.0,133.0,57.0,1,3.472290277481079,None,,,,,0,0,0,0,0,130,130,10,413.3922290802002,,,,,,,,,,,,,,,,,,,,,,,,,,,,,,,,,,,,,,,,,,,,,,,,,,,,,,,,,,,,,,,,,,,,,,,,,,,,,,,,,57.0,133.0,78.0,78.0,133.0,57.0,2.1,2.12,-202,-280,0,-286,164,252,413.377810716629,413.3778507709503,413.38111090660095,413.3922290802002,413.5423686504364,413.5423686504364,413.5423686504364,413.5423686504364,413.5423686504364,413.5423686504364,413.5423686504364,416.8768882751465,1,3.472290277481079,None,,,,,,,,,,,,,,,,,,164,5,2025-02-28_13h26.55.296,comp,2024.2.4,60.078781437374495,2025-02-28 13h27.07.237977 -0500,
131,131,0,critical,whd,35.0,1.0,lower,57.0,133.0,133.0,57.0,70.0,70.0,2,1.917335033416748,None,,,,,0,0,0,0,0,131,131,84,416.89213490486145,,,,,,,,,,,,,,,,,,,,,,,,,,,,,,,,,,,,,,,,,,,,,,,,,,,,,,,,,,,,,,,,,,,,,,,,,,,,,,,,,57.0,133.0,133.0,57.0,70.0,70.0,1.0,1.2,-191,-17,0,-16,160,19,416.8777151107788,416.87775683403015,416.8797662258148,416.89213490486145,417.0421767234802,417.0421767234802,417.0421767234802,417.0421767234802,417.0421767234802,417.0421767234802,417.0421767234802,418.82669711112976,2,1.917335033416748,None,,,,,,,,,,,,,,,,,,164,5,2025-02-28_13h26.55.296,comp,2024.2.4,60.078781437374495,2025-02-28 13h27.07.237977 -0500,
132,132,0,catch,None,None,None,None,None,None,None,None,None,None,2,1.0866358280181885,None,,,,,0,0,0,0,0,132,132,127,418.84215903282166,,,,,,,,,,,,,,,,,,,,,,,,,,,,,,,,,,,,,,,,,,,,,,,,,,,,,,,,,,,,,,,,,,,,,,,,,,,,,,,,,67,123,172,153,132,58,2.1,2.12,-234,-280,0,-278,202,276,418.8277521133423,418.8277931213379,418.83031153678894,418.84215903282166,418.99238443374634,418.99238443374634,418.99238443374634,418.99238443374634,418.99238443374634,418.99238443374634,418.99238443374634,419.9433810710907,2,1.0866358280181885,None,,,,,,,,,,,,,,,,,,164,5,2025-02-28_13h26.55.296,comp,2024.2.4,60.078781437374495,2025-02-28 13h27.07.237977 -0500,
133,133,0,filler_random,None,None,None,None,None,None,None,None,None,None,1,1.7476444244384766,None,,,,,0,0,0,0,0,133,133,150,419.9587712287903,,,,,,,,,,,,,,,,,,,,,,,,,,,,,,,,,,,,,,,,,,,,,,,,,,,,,,,,,,,,,,,,,,,,,,,,,,,,,,,,,179.02266684622032,167.50777099087725,160.27826449752797,112.27649311703377,128.61546010931778,171.01337615175956,4.0,4.1,-236,-262,0,-12,238,-281,419.9442946910858,419.9443373680115,419.9467673301697,419.9587712287903,420.1091423034668,420.1091423034668,420.1091423034668,420.1091423034668,420.1091423034668,420.1091423034668,420.1091423034668,421.7104642391205,1,1.7476444244384766,None,,,,,,,,,,,,,,,,,,164,5,2025-02-28_13h26.55.296,comp,2024.2.4,60.078781437374495,2025-02-28 13h27.07.237977 -0500,
134,134,0,filler_square,None,None,None,None,None,None,None,None,None,None,3,1.3492531776428223,None,,,,,0,0,0,0,0,134,134,209,421.72579765319824,,,,,,,,,,,,,,,,,,,,,,,,,,,,,,,,,,,,,,,,,,,,,,,,,,,,,,,,,,,,,,,,,,,,,,,,,,,,,,,,,85.67503654399441,93.30625707541947,73.41838751892544,122.26872211362195,123.40431096497727,123.40431096497727,3.0,3.2,-204,-252,0,-2,219,272,421.71143555641174,421.71147656440735,421.7135262489319,421.72579765319824,421.8756651878357,421.8756651878357,421.8756651878357,421.8756651878357,421.8756651878357,421.8756651878357,421.8756651878357,423.07714438438416,3,1.3492531776428223,None,,,,,,,,,,,,,,,,,,164,5,2025-02-28_13h26.55.296,comp,2024.2.4,60.078781437374495,2025-02-28 13h27.07.237977 -0500,
135,135,0,filler_random,None,None,None,None,None,None,None,None,None,None,3,4.452176332473755,None,,,,,0,0,0,0,0,135,135,142,423.0923960208893,,,,,,,,,,,,,,,,,,,,,,,,,,,,,,,,,,,,,,,,,,,,,,,,,,,,,,,,,,,,,,,,,,,,,,,,,,,,,,,,,161.62671492878923,68.65179145498303,101.52595576871362,82.74245182572389,188.62844543215814,63.80002864257177,1.0,1.2,-172,-15,0,8,169,-6,423.0780358314514,423.0780761241913,423.0801136493683,423.0923960208893,423.24230194091797,423.24230194091797,423.24230194091797,423.24230194091797,423.24230194091797,423.24230194091797,423.24230194091797,427.55994725227356,3,4.452176332473755,None,,,,,,,,,,,,,,,,,,164,5,2025-02-28_13h26.55.296,comp,2024.2.4,60.078781437374495,2025-02-28 13h27.07.237977 -0500,
136,136,0,critical,hwd,35.0,1.0,upper,200.0,125.0,125.0,200.0,127.0,127.0,1,1.858276605606079,None,,,,,0,0,0,0,0,136,136,97,427.57546186447144,,,,,,,,,,,,,,,,,,,,,,,,,,,,,,,,,,,,,,,,,,,,,,,,,,,,,,,,,,,,,,,,,,,,,,,,,,,,,,,,,200.0,125.0,125.0,200.0,127.0,127.0,1.0,1.3,222,-261,480,-259,740,-267,427.56075501441956,427.56079506874084,427.56280303001404,427.57546186447144,427.72575187683105,427.72575187683105,427.72575187683105,427.72575187683105,427.72575187683105,427.72575187683105,427.72575187683105,429.44353723526,1,1.858276605606079,None,,,,,,,,,,,,,,,,,,164,5,2025-02-28_13h26.55.296,comp,2024.2.4,60.078781437374495,2025-02-28 13h27.07.237977 -0500,
137,137,0,critical,hdw,35.0,2.1,upper,200.0,125.0,127.0,127.0,125.0,200.0,1,1.8854749202728271,None,,,,,0,0,0,0,0,137,137,45,429.4590494632721,,,,,,,,,,,,,,,,,,,,,,,,,,,,,,,,,,,,,,,,,,,,,,,,,,,,,,,,,,,,,,,,,,,,,,,,,,,,,,,,,200.0,125.0,127.0,127.0,125.0,200.0,2.1,2.11,-222,287,0,271,260,-267,429.4443347454071,429.4443757534027,429.44673585891724,429.4590494632721,429.609148979187,429.609148979187,429.609148979187,429.609148979187,429.609148979187,429.609148979187,429.609148979187,431.3601315021515,1,1.8854749202728271,None,,,,,,,,,,,,,,,,,,164,5,2025-02-28_13h26.55.296,comp,2024.2.4,60.078781437374495,2025-02-28 13h27.07.237977 -0500,
138,138,0,filler_square,None,None,None,None,None,None,None,None,None,None,3,1.4016797542572021,None,,,,,0,0,0,0,0,138,138,204,431.37565326690674,,,,,,,,,,,,,,,,,,,,,,,,,,,,,,,,,,,,,,,,,,,,,,,,,,,,,,,,,,,,,,,,,,,,,,,,,,,,,,,,,93.12310135492353,97.31870122947764,94.26553613862961,162.28880776994689,166.08545519016752,166.08545519016752,4.0,4.1,-226,-271,0,-8,260,-265,431.36105275154114,431.3610928058624,431.3630282878876,431.37565326690674,431.52568340301514,431.52568340301514,431.52568340301514,431.52568340301514,431.52568340301514,431.52568340301514,431.52568340301514,432.7934229373932,3,1.4016797542572021,None,,,,,,,,,,,,,,,,,,164,5,2025-02-28_13h26.55.296,comp,2024.2.4,60.078781437374495,2025-02-28 13h27.07.237977 -0500,
139,139,0,critical,hwd,35.0,2.1,lower,133.0,57.0,57.0,133.0,70.0,70.0,2,3.1677405834198,None,,,,,0,0,0,0,0,139,139,16,432.80875039100647,,,,,,,,,,,,,,,,,,,,,,,,,,,,,,,,,,,,,,,,,,,,,,,,,,,,,,,,,,,,,,,,,,,,,,,,,,,,,,,,,133.0,57.0,57.0,133.0,70.0,70.0,2.1,2.11,-191,253,0,285,198,-276,432.79423356056213,432.79427433013916,432.79665875434875,432.80875039100647,432.9589171409607,432.9589171409607,432.9589171409607,432.9589171409607,432.9589171409607,432.9589171409607,432.9589171409607,435.9932072162628,2,3.1677405834198,None,,,,,,,,,,,,,,,,,,164,5,2025-02-28_13h26.55.296,comp,2024.2.4,60.078781437374495,2025-02-28 13h27.07.237977 -0500,
