thisN,thisTrialN,thisRepN,effect,order,distance,config,diag,h_1,w_1,h_2,w_2,h_3,w_3,rect_choice.keys,rect_choice.rt,rect_choice.duration,instructions_loop.thisRepN,instructions_loop.thisTrialN,instructions_loop.thisN,instructions_loop.thisIndex,blocks.thisRepN,blocks.thisTrialN,blocks.thisN,blocks.thisIndex,trials.thisRepN,trials.thisTrialN,trials.thisN,trials.thisIndex,thisRow.t,notes,consent.started,agree_button.started,decline_button.started,consent_img.started,mouse.started,consent.stopped,agree_button.numClicks,agree_button.timesOn,agree_button.timesOff,decline_button.numClicks,decline_button.timesOn,decline_button.timesOff,mouse.x,mouse.y,mouse.leftButton,mouse.midButton,mouse.rightButton,mouse.time,mouse.clicked_name,exp_params.started,exp_params.stopped,welcome.started,welcome_text.started,welcome.stopped,instructions_1.started,instructions_1_text_1.started,instructions_1_text_2.started,key_resp.started,instructions_1.stopped,instructions_loop.key_resp.keys,instructions_loop.key_resp.rt,instructions_loop.key_resp.duration,instructions_2.started,instructions_2_text_1.started,instructions_2_text_2.started,key_resp_2.started,instructions_2.stopped,instructions_loop.key_resp_2.keys,instructions_loop.key_resp_2.rt,instructions_loop.key_resp_2.duration,instructions_3.started,instructions_3_text_1.started,r1_instr3.started,r2_instr3.started,r3_instr3.started,r1_instr3_label.started,r2_instr3_label.started,r3_instr3_label.started,instructions_3_text_3.started,instructions_3_text_4.started,key_resp_3.started,instructions_3.stopped,instructions_loop.key_resp_3.keys,instructions_loop.key_resp_3.rt,instructions_loop.key_resp_3.duration,instructions_4.started,instructions_4_text_1.started,instructions_4_text_3.started,instructions_4_text_2.started,key_resp_4.started,instructions_4.stopped,instructions_loop.key_resp_4.keys,instructions_loop.key_resp_4.rt,instructions_loop.key_resp_4.duration,instructions_5.started,instructions_5_text_1.started,instructions_5_text_2.started,key_resp_5.started,instructions_5.stopped,instructions_loop.key_resp_5.keys,instructions_loop.key_resp_5.rt,instructions_loop.key_resp_5.duration,start_exp.started,start_exp_text.started,key_resp_6.started,start_exp.stopped,key_resp_6.keys,key_resp_6.rt,key_resp_6.duration,h_1_tmp,w_1_tmp,h_2_tmp,w_2_tmp,h_3_tmp,w_3_tmp,config_tmp,config_tmp_1,r_1_x,r_1_y,r_2_x,r_2_y,r_3_x,r_3_y,pre_trial.started,pre_trial.stopped,choice_trial.started,rect_choice.started,r_1.started,r_2.started,r_3.started,r_1_label.started,r_2_label.started,r_3_label.started,prompt.started,choice_trial.stopped,trials.rect_choice.keys,trials.rect_choice.rt,trials.rect_choice.duration,end_block.started,end_block_text.started,end_block.stopped,end.started,end_text.started,key_resp_7.started,end.stopped,key_resp_7.keys,key_resp_7.rt,key_resp_7.duration,debriefing.started,debrief_form.started,end_debrief.started,debriefing.stopped,end_debrief.keys,end_debrief.rt,end_debrief.duration,participant,computer,date,expName,psychopyVersion,frameRate,expStart,
,,,,,,,,,,,,,,,,,,,,,,,,,,,,,,,0.014837265014648438,0.034853458404541016,0.034853458404541016,0.034853458404541016,0.014617681503295898,25.900485038757324,1,[25.862675666809082],[25.862700939178467],0,,,[-46.0],[-509.0],[1],[0],[0],[25.88520312309265],['agree_button'],,,,,,,,,,,,,,,,,,,,,,,,,,,,,,,,,,,,,,,,,,,,,,,,,,,,,,,,,,,,,,,,,,,,,,,,,,,,,,,,,,,,,,,,,,,,,,,,,,,,,,,,,,,165,1,2025-02-28_14h18.16.257,comp,2024.2.4,60.80534421970681,2025-02-28 14h18.31.055248 -0500,
,,,,,,,,,,,,,,,,,,,,,,,,,,,,,,,,,,,,,,,,,,,,,,,,,,25.901124477386475,25.90118956565857,,,,,,,,,,,,,,,,,,,,,,,,,,,,,,,,,,,,,,,,,,,,,,,,,,,,,,,,,,,,,,,,,,,,,,,,,,,,,,,,,,,,,,,,,,,,,,,,,,,,,,,,,165,1,2025-02-28_14h18.16.257,comp,2024.2.4,60.80534421970681,2025-02-28 14h18.31.055248 -0500,
,,,,,,,,,,,,,,,,,,,,,,,,,,,,,,,,,,,,,,,,,,,,,,,,,,,,25.901232481002808,25.920222997665405,27.909611463546753,,,,,,,,,,,,,,,,,,,,,,,,,,,,,,,,,,,,,,,,,,,,,,,,,,,,,,,,,,,,,,,,,,,,,,,,,,,,,,,,,,,,,,,,,,,,,,,,,,,,,,165,1,2025-02-28_14h18.16.257,comp,2024.2.4,60.80534421970681,2025-02-28 14h18.31.055248 -0500,
0,0,0,,,,,,,,,,,,,,,0,0,0,0,,,,,,,,,27.928684949874878,,,,,,,,,,,,,,,,,,,,,,,,,,27.91051483154297,27.928684949874878,27.928684949874878,29.413686990737915,31.631947994232178,space,2.1983489990234375,None,31.632128715515137,31.650237321853638,31.650237321853638,33.13173770904541,36.90035653114319,space,3.7517364025115967,None,36.90051221847534,36.92957091331482,36.92957091331482,36.92957091331482,36.92957091331482,36.92957091331482,36.92957091331482,36.92957091331482,36.92957091331482,36.92957091331482,38.40157461166382,43.70377206802368,space,5.298039436340332,None,43.703938722610474,43.72441554069519,43.72441554069519,43.72441554069519,45.217214822769165,56.67055368423462,space,11.450942754745483,None,56.67070150375366,56.68823862075806,56.68823862075806,58.17918539047241,58.30747723579407,space,0.11247920989990234,None,58.307682514190674,58.322532653808594,58.322532653808594,59.62461972236633,space,1.2972567081451416,None,,,,,,,,,,,,,,,,,,,,,,,,,,,,,,,,,,,,,,,,,,,,,,,165,1,2025-02-28_14h18.16.257,comp,2024.2.4,60.80534421970681,2025-02-28 14h18.31.055248 -0500,
0,0,0,critical,hwd,20.0,2.1,upper,200.0,125.0,125.0,200.0,141.0,141.0,1,11.459046125411987,None,,,,,0,0,0,0,0,0,0,19,59.6971230506897,,,,,,,,,,,,,,,,,,,,,,,,,,,,,,,,,,,,,,,,,,,,,,,,,,,,,,,,,,,,,,,,,,,,,,,,,,,,,,,,,200.0,125.0,125.0,200.0,141.0,141.0,2.1,2.11,-258,250,0,260,266,-263,59.68130850791931,59.68134379386902,59.68252515792847,59.6971230506897,59.84981560707092,59.84981560707092,59.84981560707092,59.84981560707092,59.84981560707092,59.84981560707092,59.84981560707092,71.16407752037048,1,11.459046125411987,None,,,,,,,,,,,,,,,,,,165,1,2025-02-28_14h18.16.257,comp,2024.2.4,60.80534421970681,2025-02-28 14h18.31.055248 -0500,
1,1,0,critical,wdh,20.0,2.1,lower,57.0,133.0,78.0,78.0,133.0,57.0,1,10.75076174736023,None,,,,,0,0,0,0,0,1,1,34,71.1818277835846,,,,,,,,,,,,,,,,,,,,,,,,,,,,,,,,,,,,,,,,,,,,,,,,,,,,,,,,,,,,,,,,,,,,,,,,,,,,,,,,,57.0,133.0,78.0,78.0,133.0,57.0,2.1,2.12,-202,-283,0,-275,164,282,71.16583561897278,71.1659185886383,71.16849327087402,71.1818277835846,71.32830715179443,71.32830715179443,71.32830715179443,71.32830715179443,71.32830715179443,71.32830715179443,71.32830715179443,81.93893337249756,1,10.75076174736023,None,,,,,,,,,,,,,,,,,,165,1,2025-02-28_14h18.16.257,comp,2024.2.4,60.80534421970681,2025-02-28 14h18.31.055248 -0500,
2,2,0,critical,dwh,20.0,1.0,lower,78.0,78.0,57.0,133.0,133.0,57.0,3,2.9452433586120605,None,,,,,0,0,0,0,0,2,2,66,81.95448279380798,,,,,,,,,,,,,,,,,,,,,,,,,,,,,,,,,,,,,,,,,,,,,,,,,,,,,,,,,,,,,,,,,,,,,,,,,,,,,,,,,78.0,78.0,57.0,133.0,133.0,57.0,1.0,1.3,278,-262,480,-268,671,-277,81.9405632019043,81.94064331054688,81.94356679916382,81.95448279380798,82.10052490234375,82.10052490234375,82.10052490234375,82.10052490234375,82.10052490234375,82.10052490234375,82.10052490234375,84.91504096984863,3,2.9452433586120605,None,,,,,,,,,,,,,,,,,,165,1,2025-02-28_14h18.16.257,comp,2024.2.4,60.80534421970681,2025-02-28 14h18.31.055248 -0500,
3,3,0,critical,dwh,35.0,3.0,lower,70.0,70.0,57.0,133.0,133.0,57.0,3,5.065857172012329,None,,,,,0,0,0,0,0,3,3,62,84.9306116104126,,,,,,,,,,,,,,,,,,,,,,,,,,,,,,,,,,,,,,,,,,,,,,,,,,,,,,,,,,,,,,,,,,,,,,,,,,,,,,,,,70.0,70.0,57.0,133.0,133.0,57.0,3.0,3.2,-198,-268,0,11,191,288,84.91653990745544,84.91661977767944,84.9196994304657,84.9306116104126,85.08771228790283,85.08771228790283,85.08771228790283,85.08771228790283,85.08771228790283,85.08771228790283,85.08771228790283,90.00227332115173,3,5.065857172012329,None,,,,,,,,,,,,,,,,,,165,1,2025-02-28_14h18.16.257,comp,2024.2.4,60.80534421970681,2025-02-28 14h18.31.055248 -0500,
4,4,0,critical,dwh,20.0,4.0,upper,141.0,141.0,125.0,200.0,200.0,125.0,2,3.569171905517578,None,,,,,0,0,0,0,0,4,4,71,90.01884722709656,,,,,,,,,,,,,,,,,,,,,,,,,,,,,,,,,,,,,,,,,,,,,,,,,,,,,,,,,,,,,,,,,,,,,,,,,,,,,,,,,141.0,141.0,125.0,200.0,200.0,125.0,4.0,4.2,-266,3,0,-270,258,4,90.00407481193542,90.004159450531,90.00801491737366,90.01884722709656,90.16921830177307,90.16921830177307,90.16921830177307,90.16921830177307,90.16921830177307,90.16921830177307,90.16921830177307,93.59216451644897,2,3.569171905517578,None,,,,,,,,,,,,,,,,,,165,1,2025-02-28_14h18.16.257,comp,2024.2.4,60.80534421970681,2025-02-28 14h18.31.055248 -0500,
5,5,0,filler_random,None,None,None,None,None,None,None,None,None,None,1,3.3071815967559814,None,,,,,0,0,0,0,0,5,5,167,93.60850238800049,,,,,,,,,,,,,,,,,,,,,,,,,,,,,,,,,,,,,,,,,,,,,,,,,,,,,,,,,,,,,,,,,,,,,,,,,,,,,,,,,167.2908282105368,193.15357350911194,89.83266235708356,131.86937909400143,189.13260575875822,152.40531395839974,3.0,3.2,-259,-278,0,15,238,282,93.59385323524475,93.59393501281738,93.59680938720703,93.60850238800049,93.75217390060425,93.75217390060425,93.75217390060425,93.75217390060425,93.75217390060425,93.75217390060425,93.75217390060425,96.93274807929993,1,3.3071815967559814,None,,,,,,,,,,,,,,,,,,165,1,2025-02-28_14h18.16.257,comp,2024.2.4,60.80534421970681,2025-02-28 14h18.31.055248 -0500,
6,6,0,filler_square,None,None,None,None,None,None,None,None,None,None,3,3.514225721359253,None,,,,,0,0,0,0,0,6,6,201,96.95349073410034,,,,,,,,,,,,,,,,,,,,,,,,,,,,,,,,,,,,,,,,,,,,,,,,,,,,,,,,,,,,,,,,,,,,,,,,,,,,,,,,,59.72986696118474,66.84738056219696,59.73074306234187,64.06371574575033,67.32498771818491,67.32498771818491,2.1,2.11,-161,286,0,272,162,-275,96.93477177619934,96.93485260009766,96.93812799453735,96.95349073410034,97.08637571334839,97.08637571334839,97.08637571334839,97.08637571334839,97.08637571334839,97.08637571334839,97.08637571334839,100.48019218444824,3,3.514225721359253,None,,,,,,,,,,,,,,,,,,165,1,2025-02-28_14h18.16.257,comp,2024.2.4,60.80534421970681,2025-02-28 14h18.31.055248 -0500,
7,7,0,critical,hdw,35.0,3.0,upper,200.0,125.0,127.0,127.0,125.0,200.0,3,2.4984798431396484,None,,,,,0,0,0,0,0,7,7,111,100.49791765213013,,,,,,,,,,,,,,,,,,,,,,,,,,,,,,,,,,,,,,,,,,,,,,,,,,,,,,,,,,,,,,,,,,,,,,,,,,,,,,,,,200.0,125.0,127.0,127.0,125.0,200.0,3.0,3.2,-222,-266,0,3,260,261,100.48169136047363,100.48177170753479,100.48467421531677,100.49791765213013,100.63966608047485,100.63966608047485,100.63966608047485,100.63966608047485,100.63966608047485,100.63966608047485,100.63966608047485,103.0060453414917,3,2.4984798431396484,None,,,,,,,,,,,,,,,,,,165,1,2025-02-28_14h18.16.257,comp,2024.2.4,60.80534421970681,2025-02-28 14h18.31.055248 -0500,
8,8,0,catch,None,None,None,None,None,None,None,None,None,None,1,1.2049384117126465,None,,,,,0,0,0,0,0,8,8,128,103.02278399467468,,,,,,,,,,,,,,,,,,,,,,,,,,,,,,,,,,,,,,,,,,,,,,,,,,,,,,,,,,,,,,,,,,,,,,,,,,,,,,,,,191,134,107,83,100,90,2.1,2.11,-204,257,0,266,182,-278,103.00824737548828,103.00833177566528,103.01186180114746,103.02278399467468,103.17202639579773,103.17202639579773,103.17202639579773,103.17202639579773,103.17202639579773,103.17202639579773,103.17202639579773,104.24078249931335,1,1.2049384117126465,None,,,,,,,,,,,,,,,,,,165,1,2025-02-28_14h18.16.257,comp,2024.2.4,60.80534421970681,2025-02-28 14h18.31.055248 -0500,
9,9,0,critical,hdw,35.0,2.1,lower,133.0,57.0,70.0,70.0,57.0,133.0,3,4.371699810028076,None,,,,,0,0,0,0,0,9,9,20,104.25610733032227,,,,,,,,,,,,,,,,,,,,,,,,,,,,,,,,,,,,,,,,,,,,,,,,,,,,,,,,,,,,,,,,,,,,,,,,,,,,,,,,,133.0,57.0,70.0,70.0,57.0,133.0,2.1,2.11,-160,275,0,266,198,-257,104.24240565299988,104.2424852848053,104.24574780464172,104.25610733032227,104.40490651130676,104.40490651130676,104.40490651130676,104.40490651130676,104.40490651130676,104.40490651130676,104.40490651130676,108.64561915397644,3,4.371699810028076,None,,,,,,,,,,,,,,,,,,165,1,2025-02-28_14h18.16.257,comp,2024.2.4,60.80534421970681,2025-02-28 14h18.31.055248 -0500,
10,10,0,critical,wdh,20.0,4.0,upper,125.0,200.0,141.0,141.0,200.0,125.0,1,3.868985891342163,None,,,,,0,0,0,0,0,10,10,83,108.66277694702148,,,,,,,,,,,,,,,,,,,,,,,,,,,,,,,,,,,,,,,,,,,,,,,,,,,,,,,,,,,,,,,,,,,,,,,,,,,,,,,,,125.0,200.0,141.0,141.0,200.0,125.0,4.0,4.2,-266,-12,0,-289,229,18,108.64714813232422,108.6472270488739,108.65009927749634,108.66277694702148,108.80564856529236,108.80564856529236,108.80564856529236,108.80564856529236,108.80564856529236,108.80564856529236,108.80564856529236,112.54955005645752,1,3.868985891342163,None,,,,,,,,,,,,,,,,,,165,1,2025-02-28_14h18.16.257,comp,2024.2.4,60.80534421970681,2025-02-28 14h18.31.055248 -0500,
11,11,0,critical,dwh,20.0,2.1,lower,78.0,78.0,57.0,133.0,133.0,57.0,3,3.083000659942627,None,,,,,0,0,0,0,0,11,11,30,112.56946277618408,,,,,,,,,,,,,,,,,,,,,,,,,,,,,,,,,,,,,,,,,,,,,,,,,,,,,,,,,,,,,,,,,,,,,,,,,,,,,,,,,78.0,78.0,57.0,133.0,133.0,57.0,2.1,2.12,-202,-277,0,-268,191,256,112.55121684074402,112.55129671096802,112.55417704582214,112.56946277618408,112.71294403076172,112.71294403076172,112.71294403076172,112.71294403076172,112.71294403076172,112.71294403076172,112.71294403076172,115.65765738487244,3,3.083000659942627,None,,,,,,,,,,,,,,,,,,165,1,2025-02-28_14h18.16.257,comp,2024.2.4,60.80534421970681,2025-02-28 14h18.31.055248 -0500,
12,12,0,filler_square,None,None,None,None,None,None,None,None,None,None,3,2.6177775859832764,None,,,,,0,0,0,0,0,12,12,196,115.67433381080627,,,,,,,,,,,,,,,,,,,,,,,,,,,,,,,,,,,,,,,,,,,,,,,,,,,,,,,,,,,,,,,,,,,,,,,,,,,,,,,,,105.51968387549847,74.99809231772784,78.40862942548564,106.40818080534929,112.97370052185752,112.97370052185752,4.0,4.2,-187,-9,0,-266,206,10,115.65951991081238,115.65960121154785,115.66270017623901,115.67433381080627,115.83183932304382,115.83183932304382,115.83183932304382,115.83183932304382,115.83183932304382,115.83183932304382,115.83183932304382,118.29644012451172,3,2.6177775859832764,None,,,,,,,,,,,,,,,,,,165,1,2025-02-28_14h18.16.257,comp,2024.2.4,60.80534421970681,2025-02-28 14h18.31.055248 -0500,
13,13,0,filler_random,None,None,None,None,None,None,None,None,None,None,3,1.541538953781128,None,,,,,0,0,0,0,0,13,13,165,118.31247162818909,,,,,,,,,,,,,,,,,,,,,,,,,,,,,,,,,,,,,,,,,,,,,,,,,,,,,,,,,,,,,,,,,,,,,,,,,,,,,,,,,163.97138325673734,80.06926744582432,111.64515653930167,70.51935842708954,144.115280561488,184.61201702722886,2.2,2.22,-171,282,0,-252,224,-266,118.29831624031067,118.29840326309204,118.30165958404541,118.31247162818909,118.45981931686401,118.45981931686401,118.45981931686401,118.45981931686401,118.45981931686401,118.45981931686401,118.45981931686401,119.86081457138062,3,1.541538953781128,None,,,,,,,,,,,,,,,,,,165,1,2025-02-28_14h18.16.257,comp,2024.2.4,60.80534421970681,2025-02-28 14h18.31.055248 -0500,
14,14,0,critical,hwd,20.0,1.0,upper,200.0,125.0,125.0,200.0,141.0,141.0,2,3.1712262630462646,None,,,,,0,0,0,0,0,14,14,103,119.88091993331909,,,,,,,,,,,,,,,,,,,,,,,,,,,,,,,,,,,,,,,,,,,,,,,,,,,,,,,,,,,,,,,,,,,,,,,,,,,,,,,,,200.0,125.0,125.0,200.0,141.0,141.0,1.0,1.2,-258,0,0,-19,266,-6,119.86229491233826,119.86237621307373,119.86547780036926,119.88091993331909,120.02655029296875,120.02655029296875,120.02655029296875,120.02655029296875,120.02655029296875,120.02655029296875,120.02655029296875,123.06426215171814,2,3.1712262630462646,None,,,,,,,,,,,,,,,,,,165,1,2025-02-28_14h18.16.257,comp,2024.2.4,60.80534421970681,2025-02-28 14h18.31.055248 -0500,
15,15,0,critical,dhw,20.0,2.1,upper,141.0,141.0,200.0,125.0,125.0,200.0,2,1.8004333972930908,None,,,,,0,0,0,0,0,15,15,27,123.0834093093872,,,,,,,,,,,,,,,,,,,,,,,,,,,,,,,,,,,,,,,,,,,,,,,,,,,,,,,,,,,,,,,,,,,,,,,,,,,,,,,,,141.0,141.0,200.0,125.0,125.0,200.0,2.1,2.12,-229,-271,0,-266,258,273,123.06596064567566,123.06612539291382,123.06953740119934,123.0834093093872,123.23501253128052,123.23501253128052,123.23501253128052,123.23501253128052,123.23501253128052,123.23501253128052,123.23501253128052,124.90136456489563,2,1.8004333972930908,None,,,,,,,,,,,,,,,,,,165,1,2025-02-28_14h18.16.257,comp,2024.2.4,60.80534421970681,2025-02-28 14h18.31.055248 -0500,
16,16,0,filler_random,None,None,None,None,None,None,None,None,None,None,1,2.3824472427368164,None,,,,,0,0,0,0,0,16,16,160,124.91826272010803,,,,,,,,,,,,,,,,,,,,,,,,,,,,,,,,,,,,,,,,,,,,,,,,,,,,,,,,,,,,,,,,,,,,,,,,,,,,,,,,,83.54885759137372,173.03459788189508,124.28011874317917,70.08769103850068,72.11424570405535,117.84221167904195,4.0,4.2,-218,-12,0,-278,190,10,124.90308618545532,124.90316534042358,124.90611219406128,124.91826272010803,125.06050086021423,125.06050086021423,125.06050086021423,125.06050086021423,125.06050086021423,125.06050086021423,125.06050086021423,127.30284309387207,1,2.3824472427368164,None,,,,,,,,,,,,,,,,,,165,1,2025-02-28_14h18.16.257,comp,2024.2.4,60.80534421970681,2025-02-28 14h18.31.055248 -0500,
17,17,0,filler_random,None,None,None,None,None,None,None,None,None,None,2,2.7310214042663574,None,,,,,0,0,0,0,0,17,17,134,127.32182765007019,,,,,,,,,,,,,,,,,,,,,,,,,,,,,,,,,,,,,,,,,,,,,,,,,,,,,,,,,,,,,,,,,,,,,,,,,,,,,,,,,144.26809022198105,174.2383852237673,168.65706539498,162.49566027040765,134.3169339099794,136.56535477142734,3.0,3.2,-264,-274,0,5,246,288,127.30478882789612,127.30489897727966,127.3081202507019,127.32182765007019,127.4616310596466,127.4616310596466,127.4616310596466,127.4616310596466,127.4616310596466,127.4616310596466,127.4616310596466,130.06349968910217,2,2.7310214042663574,None,,,,,,,,,,,,,,,,,,165,1,2025-02-28_14h18.16.257,comp,2024.2.4,60.80534421970681,2025-02-28 14h18.31.055248 -0500,
18,18,0,filler_square,None,None,None,None,None,None,None,None,None,None,2,1.8355717658996582,None,,,,,0,0,0,0,0,18,18,194,130.08026838302612,,,,,,,,,,,,,,,,,,,,,,,,,,,,,,,,,,,,,,,,,,,,,,,,,,,,,,,,,,,,,,,,,,,,,,,,,,,,,,,,,73.84245184020865,58.33459694109451,77.11504980105582,77.11504980105582,70.33370563283253,61.3469918272008,1.0,1.1,-644,267,-480,266,-315,268,130.06557154655457,130.0656545162201,130.0693109035492,130.08026838302612,130.23329210281372,130.23329210281372,130.23329210281372,130.23329210281372,130.23329210281372,130.23329210281372,130.23329210281372,131.9304006099701,2,1.8355717658996582,None,,,,,,,,,,,,,,,,,,165,1,2025-02-28_14h18.16.257,comp,2024.2.4,60.80534421970681,2025-02-28 14h18.31.055248 -0500,
19,19,0,filler_square,None,None,None,None,None,None,None,None,None,None,1,3.440788745880127,None,,,,,0,0,0,0,0,19,19,203,131.94691681861877,,,,,,,,,,,,,,,,,,,,,,,,,,,,,,,,,,,,,,,,,,,,,,,,,,,,,,,,,,,,,,,,,,,,,,,,,,,,,,,,,136.22185017431025,136.22185017431025,68.11865601934582,79.68424795897985,79.84155072535324,126.67097416371926,2.2,2.21,-204,-259,0,256,199,251,131.9322645664215,131.93234515190125,131.93640780448914,131.94691681861877,132.09555053710938,132.09555053710938,132.09555053710938,132.09555053710938,132.09555053710938,132.09555053710938,132.09555053710938,135.405752658844,1,3.440788745880127,None,,,,,,,,,,,,,,,,,,165,1,2025-02-28_14h18.16.257,comp,2024.2.4,60.80534421970681,2025-02-28 14h18.31.055248 -0500,
20,20,0,filler_square,None,None,None,None,None,None,None,None,None,None,3,2.1775624752044678,None,,,,,0,0,0,0,0,20,20,173,135.42611598968506,,,,,,,,,,,,,,,,,,,,,,,,,,,,,,,,,,,,,,,,,,,,,,,,,,,,,,,,,,,,,,,,,,,,,,,,,,,,,,,,,82.80469280066377,90.4215728615629,72.78658102420054,77.16013587354786,93.38451989339421,93.38451989339421,2.2,2.21,-180,-284,0,287,181,289,135.4077227115631,135.40780329704285,135.41095161437988,135.42611598968506,135.56544661521912,135.56544661521912,135.56544661521912,135.56544661521912,135.56544661521912,135.56544661521912,135.56544661521912,137.61443758010864,3,2.1775624752044678,None,,,,,,,,,,,,,,,,,,165,1,2025-02-28_14h18.16.257,comp,2024.2.4,60.80534421970681,2025-02-28 14h18.31.055248 -0500,
21,21,0,filler_square,None,None,None,None,None,None,None,None,None,None,2,1.789358377456665,None,,,,,0,0,0,0,0,21,21,208,137.6307635307312,,,,,,,,,,,,,,,,,,,,,,,,,,,,,,,,,,,,,,,,,,,,,,,,,,,,,,,,,,,,,,,,,,,,,,,,,,,,,,,,,111.86013996178642,58.88461764734036,118.93225502961317,118.93225502961317,101.99927291537597,101.52649416559859,4.0,4.1,-185,-250,0,-18,206,-277,137.61624360084534,137.6163272857666,137.61948323249817,137.6307635307312,137.78456854820251,137.78456854820251,137.78456854820251,137.78456854820251,137.78456854820251,137.78456854820251,137.78456854820251,139.42261147499084,2,1.789358377456665,None,,,,,,,,,,,,,,,,,,165,1,2025-02-28_14h18.16.257,comp,2024.2.4,60.80534421970681,2025-02-28 14h18.31.055248 -0500,
22,22,0,critical,whd,35.0,4.0,upper,125.0,200.0,200.0,125.0,127.0,127.0,1,2.1412999629974365,None,,,,,0,0,0,0,0,22,22,89,139.4390869140625,,,,,,,,,,,,,,,,,,,,,,,,,,,,,,,,,,,,,,,,,,,,,,,,,,,,,,,,,,,,,,,,,,,,,,,,,,,,,,,,,125.0,200.0,200.0,125.0,127.0,127.0,4.0,4.1,-258,-283,0,-8,222,-288,139.42427349090576,139.42435455322266,139.42733693122864,139.4390869140625,139.58348321914673,139.58348321914673,139.58348321914673,139.58348321914673,139.58348321914673,139.58348321914673,139.58348321914673,141.58267831802368,1,2.1412999629974365,None,,,,,,,,,,,,,,,,,,165,1,2025-02-28_14h18.16.257,comp,2024.2.4,60.80534421970681,2025-02-28 14h18.31.055248 -0500,
23,23,0,filler_square,None,None,None,None,None,None,None,None,None,None,1,1.4526994228363037,None,,,,,0,0,0,0,0,23,23,200,141.59932351112366,,,,,,,,,,,,,,,,,,,,,,,,,,,,,,,,,,,,,,,,,,,,,,,,,,,,,,,,,,,,,,,,,,,,,,,,,,,,,,,,,121.19215478137328,121.19215478137328,67.12105233902167,93.34911968122469,82.15071082859576,61.04623104976338,2.1,2.11,-203,264,0,258,173,-287,141.58445477485657,141.58452987670898,141.5874538421631,141.59932351112366,141.75127410888672,141.75127410888672,141.75127410888672,141.75127410888672,141.75127410888672,141.75127410888672,141.75127410888672,143.0664927959442,1,1.4526994228363037,None,,,,,,,,,,,,,,,,,,165,1,2025-02-28_14h18.16.257,comp,2024.2.4,60.80534421970681,2025-02-28 14h18.31.055248 -0500,
24,24,0,critical,dhw,35.0,4.0,upper,127.0,127.0,200.0,125.0,125.0,200.0,3,2.1782376766204834,None,,,,,0,0,0,0,0,24,24,53,143.08234190940857,,,,,,,,,,,,,,,,,,,,,,,,,,,,,,,,,,,,,,,,,,,,,,,,,,,,,,,,,,,,,,,,,,,,,,,,,,,,,,,,,127.0,127.0,200.0,125.0,125.0,200.0,4.0,4.2,-222,-1,0,-277,258,-6,143.06800389289856,143.06808710098267,143.0710837841034,143.08234190940857,143.23647093772888,143.23647093772888,143.23647093772888,143.23647093772888,143.23647093772888,143.23647093772888,143.23647093772888,145.26688027381897,3,2.1782376766204834,None,,,,,,,,,,,,,,,,,,165,1,2025-02-28_14h18.16.257,comp,2024.2.4,60.80534421970681,2025-02-28 14h18.31.055248 -0500,
25,25,0,critical,hwd,20.0,3.0,lower,133.0,57.0,57.0,133.0,78.0,78.0,3,1.467986822128296,None,,,,,0,0,0,0,0,25,25,104,145.28773951530457,,,,,,,,,,,,,,,,,,,,,,,,,,,,,,,,,,,,,,,,,,,,,,,,,,,,,,,,,,,,,,,,,,,,,,,,,,,,,,,,,133.0,57.0,57.0,133.0,78.0,78.0,3.0,3.2,-191,-261,0,-3,202,263,145.26850366592407,145.2685842514038,145.27176809310913,145.28773951530457,145.4222424030304,145.4222424030304,145.4222424030304,145.4222424030304,145.4222424030304,145.4222424030304,145.4222424030304,146.76740026474,3,1.467986822128296,None,,,,,,,,,,,,,,,,,,165,1,2025-02-28_14h18.16.257,comp,2024.2.4,60.80534421970681,2025-02-28 14h18.31.055248 -0500,
26,26,0,critical,hwd,20.0,4.0,upper,200.0,125.0,125.0,200.0,141.0,141.0,2,4.803970575332642,None,,,,,0,0,0,0,0,26,26,107,146.78462553024292,,,,,,,,,,,,,,,,,,,,,,,,,,,,,,,,,,,,,,,,,,,,,,,,,,,,,,,,,,,,,,,,,,,,,,,,,,,,,,,,,200.0,125.0,125.0,200.0,141.0,141.0,4.0,4.2,-258,-6,0,-262,266,-14,146.76897525787354,146.76912760734558,146.7724301815033,146.78462553024292,146.93609309196472,146.93609309196472,146.93609309196472,146.93609309196472,146.93609309196472,146.93609309196472,146.93609309196472,151.59106469154358,2,4.803970575332642,None,,,,,,,,,,,,,,,,,,165,1,2025-02-28_14h18.16.257,comp,2024.2.4,60.80534421970681,2025-02-28 14h18.31.055248 -0500,
27,27,0,filler_random,None,None,None,None,None,None,None,None,None,None,2,1.1781625747680664,None,,,,,0,0,0,0,0,27,27,147,151.60987257957458,,,,,,,,,,,,,,,,,,,,,,,,,,,,,,,,,,,,,,,,,,,,,,,,,,,,,,,,,,,,,,,,,,,,,,,,,,,,,,,,,165.50620899178125,88.09545748383911,187.88647876903846,158.43029042061642,124.67528065799688,117.2273935193413,4.0,4.1,-219,-267,0,-10,234,-264,151.59278011322021,151.59286332130432,151.59576678276062,151.60987257957458,151.75650095939636,151.75650095939636,151.75650095939636,151.75650095939636,151.75650095939636,151.75650095939636,151.75650095939636,152.80325388908386,2,1.1781625747680664,None,,,,,,,,,,,,,,,,,,165,1,2025-02-28_14h18.16.257,comp,2024.2.4,60.80534421970681,2025-02-28 14h18.31.055248 -0500,
28,28,0,critical,hwd,20.0,4.0,lower,133.0,57.0,57.0,133.0,78.0,78.0,3,6.4726128578186035,None,,,,,0,0,0,0,0,28,28,106,152.81918358802795,,,,,,,,,,,,,,,,,,,,,,,,,,,,,,,,,,,,,,,,,,,,,,,,,,,,,,,,,,,,,,,,,,,,,,,,,,,,,,,,,133.0,57.0,57.0,133.0,78.0,78.0,4.0,4.2,-191,3,0,-254,202,-8,152.80475783348083,152.80483675003052,152.80789399147034,152.81918358802795,152.96962571144104,152.96962571144104,152.96962571144104,152.96962571144104,152.96962571144104,152.96962571144104,152.96962571144104,159.31011366844177,3,6.4726128578186035,None,,,,,,,,,,,,,,,,,,165,1,2025-02-28_14h18.16.257,comp,2024.2.4,60.80534421970681,2025-02-28 14h18.31.055248 -0500,
29,29,0,critical,dhw,35.0,4.0,lower,70.0,70.0,133.0,57.0,57.0,133.0,2,2.5885534286499023,None,,,,,0,0,0,0,0,29,29,52,159.3280963897705,,,,,,,,,,,,,,,,,,,,,,,,,,,,,,,,,,,,,,,,,,,,,,,,,,,,,,,,,,,,,,,,,,,,,,,,,,,,,,,,,70.0,70.0,133.0,57.0,57.0,133.0,4.0,4.2,-160,1,0,-266,191,-13,159.31177520751953,159.3118908405304,159.315288066864,159.3280963897705,159.47241616249084,159.47241616249084,159.47241616249084,159.47241616249084,159.47241616249084,159.47241616249084,159.47241616249084,161.92436981201172,2,2.5885534286499023,None,,,,,,,,,,,,,,,,,,165,1,2025-02-28_14h18.16.257,comp,2024.2.4,60.80534421970681,2025-02-28 14h18.31.055248 -0500,
30,30,0,filler_random,None,None,None,None,None,None,None,None,None,None,1,3.047245502471924,None,,,,,0,0,0,0,0,30,30,133,161.94119954109192,,,,,,,,,,,,,,,,,,,,,,,,,,,,,,,,,,,,,,,,,,,,,,,,,,,,,,,,,,,,,,,,,,,,,,,,,,,,,,,,,153.9692518885706,189.36500255504973,159.7607573042566,191.93361168155343,79.74244044884969,175.01074425033374,4.0,4.2,-287,10,0,-250,279,18,161.9262535572052,161.92639064788818,161.93035769462585,161.94119954109192,162.09355854988098,162.09355854988098,162.09355854988098,162.09355854988098,162.09355854988098,162.09355854988098,162.09355854988098,164.9910125732422,1,3.047245502471924,None,,,,,,,,,,,,,,,,,,165,1,2025-02-28_14h18.16.257,comp,2024.2.4,60.80534421970681,2025-02-28 14h18.31.055248 -0500,
31,31,0,critical,hdw,20.0,2.1,lower,133.0,57.0,78.0,78.0,57.0,133.0,2,1.965334177017212,None,,,,,0,0,0,0,0,31,31,46,165.0069146156311,,,,,,,,,,,,,,,,,,,,,,,,,,,,,,,,,,,,,,,,,,,,,,,,,,,,,,,,,,,,,,,,,,,,,,,,,,,,,,,,,133.0,57.0,78.0,78.0,57.0,133.0,2.1,2.11,-164,290,0,251,202,-278,164.99254441261292,164.9926254749298,164.9960277080536,165.0069146156311,165.1511673927307,165.1511673927307,165.1511673927307,165.1511673927307,165.1511673927307,165.1511673927307,165.1511673927307,166.976416349411,2,1.965334177017212,None,,,,,,,,,,,,,,,,,,165,1,2025-02-28_14h18.16.257,comp,2024.2.4,60.80534421970681,2025-02-28 14h18.31.055248 -0500,
32,32,0,filler_random,None,None,None,None,None,None,None,None,None,None,2,2.827345848083496,None,,,,,0,0,0,0,0,32,32,156,166.99333024024963,,,,,,,,,,,,,,,,,,,,,,,,,,,,,,,,,,,,,,,,,,,,,,,,,,,,,,,,,,,,,,,,,,,,,,,,,,,,,,,,,109.42301906061263,73.75105165915262,157.5598305857317,194.0412036148559,104.665715227465,59.7486867731946,4.0,4.2,-230,4,0,-270,223,3,166.97828483581543,166.9783754348755,166.98179936408997,166.99333024024963,167.1393313407898,167.1393313407898,167.1393313407898,167.1393313407898,167.1393313407898,167.1393313407898,167.1393313407898,169.82584929466248,2,2.827345848083496,None,,,,,,,,,,,,,,,,,,165,1,2025-02-28_14h18.16.257,comp,2024.2.4,60.80534421970681,2025-02-28 14h18.31.055248 -0500,
33,33,0,critical,dhw,35.0,3.0,lower,70.0,70.0,133.0,57.0,57.0,133.0,2,3.522197961807251,None,,,,,0,0,0,0,0,33,33,50,169.84162259101868,,,,,,,,,,,,,,,,,,,,,,,,,,,,,,,,,,,,,,,,,,,,,,,,,,,,,,,,,,,,,,,,,,,,,,,,,,,,,,,,,70.0,70.0,133.0,57.0,57.0,133.0,3.0,3.2,-160,-270,0,-2,191,264,169.82745385169983,169.8275363445282,169.83080339431763,169.84162259101868,169.99645233154297,169.99645233154297,169.99645233154297,169.99645233154297,169.99645233154297,169.99645233154297,169.99645233154297,173.37891936302185,2,3.522197961807251,None,,,,,,,,,,,,,,,,,,165,1,2025-02-28_14h18.16.257,comp,2024.2.4,60.80534421970681,2025-02-28 14h18.31.055248 -0500,
34,34,0,critical,wdh,20.0,2.1,lower,57.0,133.0,78.0,78.0,133.0,57.0,3,2.93683123588562,None,,,,,0,0,0,0,0,34,34,10,173.39494466781616,,,,,,,,,,,,,,,,,,,,,,,,,,,,,,,,,,,,,,,,,,,,,,,,,,,,,,,,,,,,,,,,,,,,,,,,,,,,,,,,,57.0,133.0,78.0,78.0,133.0,57.0,2.1,2.12,-202,-257,0,-272,164,280,173.38069081306458,173.38077306747437,173.38464546203613,173.39494466781616,173.54993629455566,173.54993629455566,173.54993629455566,173.54993629455566,173.54993629455566,173.54993629455566,173.54993629455566,176.3434202671051,3,2.93683123588562,None,,,,,,,,,,,,,,,,,,165,1,2025-02-28_14h18.16.257,comp,2024.2.4,60.80534421970681,2025-02-28 14h18.31.055248 -0500,
35,35,0,critical,dhw,20.0,2.1,upper,141.0,141.0,200.0,125.0,125.0,200.0,2,3.0843734741210938,None,,,,,0,0,0,0,0,35,35,3,176.36019015312195,,,,,,,,,,,,,,,,,,,,,,,,,,,,,,,,,,,,,,,,,,,,,,,,,,,,,,,,,,,,,,,,,,,,,,,,,,,,,,,,,141.0,141.0,200.0,125.0,125.0,200.0,2.1,2.11,-229,286,0,263,258,-261,176.34506845474243,176.34514904022217,176.34848618507385,176.36019015312195,176.50159335136414,176.50159335136414,176.50159335136414,176.50159335136414,176.50159335136414,176.50159335136414,176.50159335136414,179.45418167114258,2,3.0843734741210938,None,,,,,,,,,,,,,,,,,,165,1,2025-02-28_14h18.16.257,comp,2024.2.4,60.80534421970681,2025-02-28 14h18.31.055248 -0500,
36,36,0,filler_random,None,None,None,None,None,None,None,None,None,None,1,3.92376446723938,None,,,,,0,0,0,0,0,36,36,136,179.4726676940918,,,,,,,,,,,,,,,,,,,,,,,,,,,,,,,,,,,,,,,,,,,,,,,,,,,,,,,,,,,,,,,,,,,,,,,,,,,,,,,,,117.67135984824839,128.117747399381,99.53567390086312,122.1808756578983,159.429121175669,90.08677472832505,1.0,1.1,-701,251,-480,271,-278,255,179.45611238479614,179.45622849464417,179.4594385623932,179.4726676940918,179.6125247478485,179.6125247478485,179.6125247478485,179.6125247478485,179.6125247478485,179.6125247478485,179.6125247478485,183.39843583106995,1,3.92376446723938,None,,,,,,,,,,,,,,,,,,165,1,2025-02-28_14h18.16.257,comp,2024.2.4,60.80534421970681,2025-02-28 14h18.31.055248 -0500,
37,37,0,critical,whd,20.0,1.0,upper,125.0,200.0,200.0,125.0,141.0,141.0,2,1.669734239578247,None,,,,,0,0,0,0,0,37,37,91,183.41450810432434,,,,,,,,,,,,,,,,,,,,,,,,,,,,,,,,,,,,,,,,,,,,,,,,,,,,,,,,,,,,,,,,,,,,,,,,,,,,,,,,,125.0,200.0,200.0,125.0,141.0,141.0,1.0,1.1,-738,281,-480,251,-251,251,183.40007734298706,183.40016317367554,183.4035828113556,183.41450810432434,183.56310081481934,183.56310081481934,183.56310081481934,183.56310081481934,183.56310081481934,183.56310081481934,183.56310081481934,185.09581351280212,2,1.669734239578247,None,,,,,,,,,,,,,,,,,,165,1,2025-02-28_14h18.16.257,comp,2024.2.4,60.80534421970681,2025-02-28 14h18.31.055248 -0500,
38,38,0,critical,hdw,35.0,1.0,upper,200.0,125.0,127.0,127.0,125.0,200.0,3,3.3325836658477783,None,,,,,0,0,0,0,0,38,38,109,185.11171531677246,,,,,,,,,,,,,,,,,,,,,,,,,,,,,,,,,,,,,,,,,,,,,,,,,,,,,,,,,,,,,,,,,,,,,,,,,,,,,,,,,200.0,125.0,127.0,127.0,125.0,200.0,1.0,1.1,-702,253,-480,259,-220,258,185.09740328788757,185.09748315811157,185.10052919387817,185.11171531677246,185.26388931274414,185.26388931274414,185.26388931274414,185.26388931274414,185.26388931274414,185.26388931274414,185.26388931274414,188.45138907432556,3,3.3325836658477783,None,,,,,,,,,,,,,,,,,,165,1,2025-02-28_14h18.16.257,comp,2024.2.4,60.80534421970681,2025-02-28 14h18.31.055248 -0500,
39,39,0,filler_random,None,None,None,None,None,None,None,None,None,None,1,1.4329502582550049,None,,,,,0,0,0,0,0,39,39,153,188.46708250045776,,,,,,,,,,,,,,,,,,,,,,,,,,,,,,,,,,,,,,,,,,,,,,,,,,,,,,,,,,,,,,,,,,,,,,,,,,,,,,,,,131.32242660499918,154.88397610983628,89.99867252112146,148.2072737204163,161.48518751434275,58.75198858541386,4.0,4.1,-248,-279,0,-10,199,-252,188.45315098762512,188.45323419570923,188.45628905296326,188.46708250045776,188.6160957813263,188.6160957813263,188.6160957813263,188.6160957813263,188.6160957813263,188.6160957813263,188.6160957813263,189.9134864807129,1,1.4329502582550049,None,,,,,,,,,,,,,,,,,,165,1,2025-02-28_14h18.16.257,comp,2024.2.4,60.80534421970681,2025-02-28 14h18.31.055248 -0500,
40,40,0,filler_square,None,None,None,None,None,None,None,None,None,None,3,1.921940803527832,None,,,,,0,0,0,0,0,40,40,198,189.93002891540527,,,,,,,,,,,,,,,,,,,,,,,,,,,,,,,,,,,,,,,,,,,,,,,,,,,,,,,,,,,,,,,,,,,,,,,,,,,,,,,,,61.35034743046477,74.86236647805109,124.85236995648368,161.96714859991147,175.2605054916092,175.2605054916092,4.0,4.2,-214,7,0,-269,265,16,189.9153277873993,189.9154076576233,189.91862082481384,189.93002891540527,190.08227467536926,190.08227467536926,190.08227467536926,190.08227467536926,190.08227467536926,190.08227467536926,190.08227467536926,191.86565327644348,3,1.921940803527832,None,,,,,,,,,,,,,,,,,,165,1,2025-02-28_14h18.16.257,comp,2024.2.4,60.80534421970681,2025-02-28 14h18.31.055248 -0500,
41,41,0,catch,None,None,None,None,None,None,None,None,None,None,3,1.2003707885742188,None,,,,,0,0,0,0,0,41,41,123,191.8836224079132,,,,,,,,,,,,,,,,,,,,,,,,,,,,,,,,,,,,,,,,,,,,,,,,,,,,,,,,,,,,,,,,,,,,,,,,,,,,,,,,,81,109,69,121,133,192,3.0,3.2,-211,-265,0,-2,252,273,191.86754512786865,191.86762595176697,191.8707776069641,191.8836224079132,192.03128671646118,192.03128671646118,192.03128671646118,192.03128671646118,192.03128671646118,192.03128671646118,192.03128671646118,193.09944415092468,3,1.2003707885742188,None,,,,,,,,,,,,,,,,,,165,1,2025-02-28_14h18.16.257,comp,2024.2.4,60.80534421970681,2025-02-28 14h18.31.055248 -0500,
42,42,0,catch,None,None,None,None,None,None,None,None,None,None,3,1.141392707824707,None,,,,,0,0,0,0,0,42,42,126,193.119309425354,,,,,,,,,,,,,,,,,,,,,,,,,,,,,,,,,,,,,,,,,,,,,,,,,,,,,,,,,,,,,,,,,,,,,,,,,,,,,,,,,105,85,80,110,128,197,2.2,2.22,-194,274,0,-251,250,-269,193.1014096736908,193.10149359703064,193.10457158088684,193.119309425354,193.26666593551636,193.26666593551636,193.26666593551636,193.26666593551636,193.26666593551636,193.26666593551636,193.26666593551636,194.2667417526245,3,1.141392707824707,None,,,,,,,,,,,,,,,,,,165,1,2025-02-28_14h18.16.257,comp,2024.2.4,60.80534421970681,2025-02-28 14h18.31.055248 -0500,
43,43,0,critical,hdw,35.0,4.0,upper,200.0,125.0,127.0,127.0,125.0,200.0,1,3.721550941467285,None,,,,,0,0,0,0,0,43,43,113,194.2826635837555,,,,,,,,,,,,,,,,,,,,,,,,,,,,,,,,,,,,,,,,,,,,,,,,,,,,,,,,,,,,,,,,,,,,,,,,,,,,,,,,,200.0,125.0,127.0,127.0,125.0,200.0,4.0,4.1,-222,-259,0,12,260,-257,194.26828742027283,194.26837062835693,194.27183651924133,194.2826635837555,194.4397873878479,194.4397873878479,194.4397873878479,194.4397873878479,194.4397873878479,194.4397873878479,194.4397873878479,198.0076937675476,1,3.721550941467285,None,,,,,,,,,,,,,,,,,,165,1,2025-02-28_14h18.16.257,comp,2024.2.4,60.80534421970681,2025-02-28 14h18.31.055248 -0500,
44,44,0,critical,wdh,35.0,2.1,upper,125.0,200.0,127.0,127.0,200.0,125.0,1,2.1784965991973877,None,,,,,0,0,0,0,0,44,44,9,198.02555203437805,,,,,,,,,,,,,,,,,,,,,,,,,,,,,,,,,,,,,,,,,,,,,,,,,,,,,,,,,,,,,,,,,,,,,,,,,,,,,,,,,125.0,200.0,127.0,127.0,200.0,125.0,2.1,2.12,-260,-274,0,-286,222,283,198.0093288421631,198.00940823554993,198.01235842704773,198.02555203437805,198.16364908218384,198.16364908218384,198.16364908218384,198.16364908218384,198.16364908218384,198.16364908218384,198.16364908218384,200.20642948150635,1,2.1784965991973877,None,,,,,,,,,,,,,,,,,,165,1,2025-02-28_14h18.16.257,comp,2024.2.4,60.80534421970681,2025-02-28 14h18.31.055248 -0500,
45,45,0,filler_square,None,None,None,None,None,None,None,None,None,None,2,1.4407804012298584,None,,,,,0,0,0,0,0,45,45,205,200.2270746231079,,,,,,,,,,,,,,,,,,,,,,,,,,,,,,,,,,,,,,,,,,,,,,,,,,,,,,,,,,,,,,,,,,,,,,,,,,,,,,,,,136.6417201541326,66.45134559542912,161.29904772052174,161.29904772052174,62.457872349619734,59.749157979927176,2.1,2.11,-210,283,0,289,207,-287,200.2083294391632,200.2084140777588,200.21135187149048,200.2270746231079,200.3680703639984,200.3680703639984,200.3680703639984,200.3680703639984,200.3680703639984,200.3680703639984,200.3680703639984,201.67050337791443,2,1.4407804012298584,None,,,,,,,,,,,,,,,,,,165,1,2025-02-28_14h18.16.257,comp,2024.2.4,60.80534421970681,2025-02-28 14h18.31.055248 -0500,
46,46,0,filler_square,None,None,None,None,None,None,None,None,None,None,1,3.5333995819091797,None,,,,,0,0,0,0,0,46,46,183,201.6865005493164,,,,,,,,,,,,,,,,,,,,,,,,,,,,,,,,,,,,,,,,,,,,,,,,,,,,,,,,,,,,,,,,,,,,,,,,,,,,,,,,,102.43181204694301,102.43181204694301,81.52497379876621,63.86028744940474,85.98859916814757,78.8079317828126,3.0,3.1,-179,271,0,3,167,-258,201.6725664138794,201.67265343666077,201.67583322525024,201.6865005493164,201.8421745300293,201.8421745300293,201.8421745300293,201.8421745300293,201.8421745300293,201.8421745300293,201.8421745300293,205.23665952682495,1,3.5333995819091797,None,,,,,,,,,,,,,,,,,,165,1,2025-02-28_14h18.16.257,comp,2024.2.4,60.80534421970681,2025-02-28 14h18.31.055248 -0500,
47,47,0,critical,whd,20.0,4.0,upper,125.0,200.0,200.0,125.0,141.0,141.0,1,4.8325817584991455,None,,,,,0,0,0,0,0,47,47,95,205.25194311141968,,,,,,,,,,,,,,,,,,,,,,,,,,,,,,,,,,,,,,,,,,,,,,,,,,,,,,,,,,,,,,,,,,,,,,,,,,,,,,,,,125.0,200.0,200.0,125.0,141.0,141.0,4.0,4.2,-258,6,0,-250,229,9,205.2382321357727,205.23831272125244,205.24154591560364,205.25194311141968,205.40371775627136,205.40371775627136,205.40371775627136,205.40371775627136,205.40371775627136,205.40371775627136,205.40371775627136,210.08746099472046,1,4.8325817584991455,None,,,,,,,,,,,,,,,,,,165,1,2025-02-28_14h18.16.257,comp,2024.2.4,60.80534421970681,2025-02-28 14h18.31.055248 -0500,
48,48,0,critical,hwd,20.0,3.0,upper,200.0,125.0,125.0,200.0,141.0,141.0,1,1.699972152709961,None,,,,,0,0,0,0,0,48,48,105,210.10456442832947,,,,,,,,,,,,,,,,,,,,,,,,,,,,,,,,,,,,,,,,,,,,,,,,,,,,,,,,,,,,,,,,,,,,,,,,,,,,,,,,,200.0,125.0,125.0,200.0,141.0,141.0,3.0,3.1,-258,285,0,-9,266,-261,210.08912253379822,210.08925557136536,210.09265995025635,210.10456442832947,210.2535846233368,210.2535846233368,210.2535846233368,210.2535846233368,210.2535846233368,210.2535846233368,210.2535846233368,211.8224925994873,1,1.699972152709961,None,,,,,,,,,,,,,,,,,,165,1,2025-02-28_14h18.16.257,comp,2024.2.4,60.80534421970681,2025-02-28 14h18.31.055248 -0500,
49,49,0,critical,whd,35.0,2.1,upper,125.0,200.0,200.0,125.0,127.0,127.0,2,1.4136567115783691,None,,,,,0,0,0,0,0,49,49,37,211.83858370780945,,,,,,,,,,,,,,,,,,,,,,,,,,,,,,,,,,,,,,,,,,,,,,,,,,,,,,,,,,,,,,,,,,,,,,,,,,,,,,,,,125.0,200.0,200.0,125.0,127.0,127.0,2.1,2.11,-258,283,0,267,222,-266,211.8240842819214,211.82416558265686,211.8282368183136,211.83858370780945,211.9895920753479,211.9895920753479,211.9895920753479,211.9895920753479,211.9895920753479,211.9895920753479,211.9895920753479,213.2565643787384,2,1.4136567115783691,None,,,,,,,,,,,,,,,,,,165,1,2025-02-28_14h18.16.257,comp,2024.2.4,60.80534421970681,2025-02-28 14h18.31.055248 -0500,
50,50,0,critical,hwd,35.0,2.1,lower,133.0,57.0,57.0,133.0,70.0,70.0,2,3.128098964691162,None,,,,,0,0,0,0,0,50,50,16,213.27609062194824,,,,,,,,,,,,,,,,,,,,,,,,,,,,,,,,,,,,,,,,,,,,,,,,,,,,,,,,,,,,,,,,,,,,,,,,,,,,,,,,,133.0,57.0,57.0,133.0,70.0,70.0,2.1,2.12,-191,-260,0,-279,198,260,213.25810623168945,213.25818824768066,213.2611780166626,213.27609062194824,213.42358708381653,213.42358708381653,213.42358708381653,213.42358708381653,213.42358708381653,213.42358708381653,213.42358708381653,216.42260146141052,2,3.128098964691162,None,,,,,,,,,,,,,,,,,,165,1,2025-02-28_14h18.16.257,comp,2024.2.4,60.80534421970681,2025-02-28 14h18.31.055248 -0500,
51,51,0,critical,dwh,35.0,2.1,lower,70.0,70.0,57.0,133.0,133.0,57.0,2,1.8458828926086426,None,,,,,0,0,0,0,0,51,51,4,216.43882513046265,,,,,,,,,,,,,,,,,,,,,,,,,,,,,,,,,,,,,,,,,,,,,,,,,,,,,,,,,,,,,,,,,,,,,,,,,,,,,,,,,70.0,70.0,57.0,133.0,133.0,57.0,2.1,2.11,-198,251,0,253,191,-255,216.42419409751892,216.42427158355713,216.42745542526245,216.43882513046265,216.5928065776825,216.5928065776825,216.5928065776825,216.5928065776825,216.5928065776825,216.5928065776825,216.5928065776825,218.29117155075073,2,1.8458828926086426,None,,,,,,,,,,,,,,,,,,165,1,2025-02-28_14h18.16.257,comp,2024.2.4,60.80534421970681,2025-02-28 14h18.31.055248 -0500,
52,52,0,critical,hdw,20.0,3.0,lower,133.0,57.0,78.0,78.0,57.0,133.0,1,1.7942304611206055,None,,,,,0,0,0,0,0,52,52,116,218.30711221694946,,,,,,,,,,,,,,,,,,,,,,,,,,,,,,,,,,,,,,,,,,,,,,,,,,,,,,,,,,,,,,,,,,,,,,,,,,,,,,,,,133.0,57.0,78.0,78.0,57.0,133.0,3.0,3.1,-164,282,0,13,202,-264,218.2927565574646,218.2928385734558,218.29631423950195,218.30711221694946,218.45013999938965,218.45013999938965,218.45013999938965,218.45013999938965,218.45013999938965,218.45013999938965,218.45013999938965,220.10733485221863,1,1.7942304611206055,None,,,,,,,,,,,,,,,,,,165,1,2025-02-28_14h18.16.257,comp,2024.2.4,60.80534421970681,2025-02-28 14h18.31.055248 -0500,
53,53,0,critical,whd,35.0,2.1,lower,57.0,133.0,133.0,57.0,70.0,70.0,2,4.963427543640137,None,,,,,0,0,0,0,0,53,53,12,220.12855219841003,,,,,,,,,,,,,,,,,,,,,,,,,,,,,,,,,,,,,,,,,,,,,,,,,,,,,,,,,,,,,,,,,,,,,,,,,,,,,,,,,57.0,133.0,133.0,57.0,70.0,70.0,2.1,2.11,-191,270,0,254,160,-266,220.10894989967346,220.10909390449524,220.11262154579163,220.12855219841003,220.27511548995972,220.27511548995972,220.27511548995972,220.27511548995972,220.27511548995972,220.27511548995972,220.27511548995972,225.09433603286743,2,4.963427543640137,None,,,,,,,,,,,,,,,,,,165,1,2025-02-28_14h18.16.257,comp,2024.2.4,60.80534421970681,2025-02-28 14h18.31.055248 -0500,
54,54,0,filler_square,None,None,None,None,None,None,None,None,None,None,3,2.030271053314209,None,,,,,0,0,0,0,0,54,54,175,225.1106185913086,,,,,,,,,,,,,,,,,,,,,,,,,,,,,,,,,,,,,,,,,,,,,,,,,,,,,,,,,,,,,,,,,,,,,,,,,,,,,,,,,102.96493406293814,128.827971439569,77.08335959058546,118.42469023328835,187.57501921737807,187.57501921737807,1.0,1.2,-220,-8,0,12,249,-10,225.09652733802795,225.09661483764648,225.0998170375824,225.1106185913086,225.2593288421631,225.2593288421631,225.2593288421631,225.2593288421631,225.2593288421631,225.2593288421631,225.2593288421631,227.14434051513672,3,2.030271053314209,None,,,,,,,,,,,,,,,,,,165,1,2025-02-28_14h18.16.257,comp,2024.2.4,60.80534421970681,2025-02-28 14h18.31.055248 -0500,
55,55,0,critical,dhw,20.0,2.1,lower,78.0,78.0,133.0,57.0,57.0,133.0,2,3.8832249641418457,None,,,,,0,0,0,0,0,55,55,2,227.160808801651,,,,,,,,,,,,,,,,,,,,,,,,,,,,,,,,,,,,,,,,,,,,,,,,,,,,,,,,,,,,,,,,,,,,,,,,,,,,,,,,,78.0,78.0,133.0,57.0,57.0,133.0,2.1,2.12,-164,-271,0,-280,191,251,227.14607071876526,227.146155834198,227.14984011650085,227.160808801651,227.31313157081604,227.31313157081604,227.31313157081604,227.31313157081604,227.31313157081604,227.31313157081604,227.31313157081604,231.0462245941162,2,3.8832249641418457,None,,,,,,,,,,,,,,,,,,165,1,2025-02-28_14h18.16.257,comp,2024.2.4,60.80534421970681,2025-02-28 14h18.31.055248 -0500,
56,56,0,filler_square,None,None,None,None,None,None,None,None,None,None,2,3.346766471862793,None,,,,,0,0,0,0,0,56,56,189,231.06535959243774,,,,,,,,,,,,,,,,,,,,,,,,,,,,,,,,,,,,,,,,,,,,,,,,,,,,,,,,,,,,,,,,,,,,,,,,,,,,,,,,,57.135083065629985,58.02283505297164,58.128592079647106,58.128592079647106,57.791846838114914,57.71660538165495,2.1,2.11,-154,260,0,252,154,-265,231.04832816123962,231.048415184021,231.05147075653076,231.06535959243774,231.2127664089203,231.2127664089203,231.2127664089203,231.2127664089203,231.2127664089203,231.2127664089203,231.2127664089203,234.41432309150696,2,3.346766471862793,None,,,,,,,,,,,,,,,,,,165,1,2025-02-28_14h18.16.257,comp,2024.2.4,60.80534421970681,2025-02-28 14h18.31.055248 -0500,
57,57,0,filler_random,None,None,None,None,None,None,None,None,None,None,3,1.7983312606811523,None,,,,,0,0,0,0,0,57,57,145,234.43002009391785,,,,,,,,,,,,,,,,,,,,,,,,,,,,,,,,,,,,,,,,,,,,,,,,,,,,,,,,,,,,,,,,,,,,,,,,,,,,,,,,,71.06548977391344,168.5556473330018,173.39344941866932,82.53737706088458,170.66368097384952,109.08892326281713,3.0,3.1,-222,250,0,-19,192,-285,234.41603469848633,234.4161193370819,234.41921162605286,234.43002009391785,234.5819046497345,234.5819046497345,234.5819046497345,234.5819046497345,234.5819046497345,234.5819046497345,234.5819046497345,236.23328971862793,3,1.7983312606811523,None,,,,,,,,,,,,,,,,,,165,1,2025-02-28_14h18.16.257,comp,2024.2.4,60.80534421970681,2025-02-28 14h18.31.055248 -0500,
58,58,0,critical,hwd,35.0,3.0,upper,200.0,125.0,125.0,200.0,127.0,127.0,2,2.5683867931365967,None,,,,,0,0,0,0,0,58,58,99,236.25169777870178,,,,,,,,,,,,,,,,,,,,,,,,,,,,,,,,,,,,,,,,,,,,,,,,,,,,,,,,,,,,,,,,,,,,,,,,,,,,,,,,,200.0,125.0,125.0,200.0,127.0,127.0,3.0,3.2,-258,-267,0,18,260,268,236.23512530326843,236.23520874977112,236.2384283542633,236.25169777870178,236.39732265472412,236.39732265472412,236.39732265472412,236.39732265472412,236.39732265472412,236.39732265472412,236.39732265472412,238.8299674987793,2,2.5683867931365967,None,,,,,,,,,,,,,,,,,,165,1,2025-02-28_14h18.16.257,comp,2024.2.4,60.80534421970681,2025-02-28 14h18.31.055248 -0500,
59,59,0,critical,hdw,35.0,2.1,lower,133.0,57.0,70.0,70.0,57.0,133.0,3,2.418226957321167,None,,,,,0,0,0,0,0,59,59,44,238.8500509262085,,,,,,,,,,,,,,,,,,,,,,,,,,,,,,,,,,,,,,,,,,,,,,,,,,,,,,,,,,,,,,,,,,,,,,,,,,,,,,,,,133.0,57.0,70.0,70.0,57.0,133.0,2.1,2.12,-160,-283,0,-289,198,277,238.83150100708008,238.83158135414124,238.83471584320068,238.8500509262085,238.99747848510742,238.99747848510742,238.99747848510742,238.99747848510742,238.99747848510742,238.99747848510742,238.99747848510742,241.28942561149597,3,2.418226957321167,None,,,,,,,,,,,,,,,,,,165,1,2025-02-28_14h18.16.257,comp,2024.2.4,60.80534421970681,2025-02-28 14h18.31.055248 -0500,
60,60,0,critical,dhw,20.0,1.0,lower,78.0,78.0,133.0,57.0,57.0,133.0,1,7.714376926422119,None,,,,,0,0,0,0,0,60,60,54,241.30659294128418,,,,,,,,,,,,,,,,,,,,,,,,,,,,,,,,,,,,,,,,,,,,,,,,,,,,,,,,,,,,,,,,,,,,,,,,,,,,,,,,,78.0,78.0,133.0,57.0,57.0,133.0,1.0,1.3,316,-286,480,-277,671,-256,241.29092979431152,241.29104256629944,241.2938940525055,241.30659294128418,241.44813585281372,241.44813585281372,241.44813585281372,241.44813585281372,241.44813585281372,241.44813585281372,241.44813585281372,249.02883791923523,1,7.714376926422119,None,,,,,,,,,,,,,,,,,,165,1,2025-02-28_14h18.16.257,comp,2024.2.4,60.80534421970681,2025-02-28 14h18.31.055248 -0500,
61,61,0,critical,wdh,35.0,4.0,lower,57.0,133.0,70.0,70.0,133.0,57.0,3,3.0880322456359863,None,,,,,0,0,0,0,0,61,61,76,249.04450464248657,,,,,,,,,,,,,,,,,,,,,,,,,,,,,,,,,,,,,,,,,,,,,,,,,,,,,,,,,,,,,,,,,,,,,,,,,,,,,,,,,57.0,133.0,70.0,70.0,133.0,57.0,4.0,4.2,-198,3,0,-272,160,17,249.0304388999939,249.03052043914795,249.03344774246216,249.04450464248657,249.18069887161255,249.18069887161255,249.18069887161255,249.18069887161255,249.18069887161255,249.18069887161255,249.18069887161255,252.13625741004944,3,3.0880322456359863,None,,,,,,,,,,,,,,,,,,165,1,2025-02-28_14h18.16.257,comp,2024.2.4,60.80534421970681,2025-02-28 14h18.31.055248 -0500,
62,62,0,filler_random,None,None,None,None,None,None,None,None,None,None,1,1.9404821395874023,None,,,,,0,0,0,0,0,62,62,143,252.15259671211243,,,,,,,,,,,,,,,,,,,,,,,,,,,,,,,,,,,,,,,,,,,,,,,,,,,,,,,,,,,,,,,,,,,,,,,,,,,,,,,,,112.30808880521559,150.47380253052904,182.82711421728288,80.74890821529898,90.79915546880059,85.48045951667451,2.1,2.12,-212,-251,0,-257,179,253,252.13790225982666,252.13802313804626,252.14164566993713,252.15259671211243,252.30255722999573,252.30255722999573,252.30255722999573,252.30255722999573,252.30255722999573,252.30255722999573,252.30255722999573,254.10433769226074,1,1.9404821395874023,None,,,,,,,,,,,,,,,,,,165,1,2025-02-28_14h18.16.257,comp,2024.2.4,60.80534421970681,2025-02-28 14h18.31.055248 -0500,
63,63,0,filler_square,None,None,None,None,None,None,None,None,None,None,3,1.523958444595337,None,,,,,0,0,0,0,0,63,63,207,254.12112760543823,,,,,,,,,,,,,,,,,,,,,,,,,,,,,,,,,,,,,,,,,,,,,,,,,,,,,,,,,,,,,,,,,,,,,,,,,,,,,,,,,79.81140416881951,75.11708209135475,67.06035559203082,82.18145114444839,96.68551403490198,96.68551403490198,1.0,1.3,305,-283,480,-260,665,-256,254.10648941993713,254.10657405853271,254.11024069786072,254.12112760543823,254.26788806915283,254.26788806915283,254.26788806915283,254.26788806915283,254.26788806915283,254.26788806915283,254.26788806915283,255.65211701393127,3,1.523958444595337,None,,,,,,,,,,,,,,,,,,165,1,2025-02-28_14h18.16.257,comp,2024.2.4,60.80534421970681,2025-02-28 14h18.31.055248 -0500,
64,64,0,critical,whd,20.0,2.1,upper,125.0,200.0,200.0,125.0,141.0,141.0,2,6.318920373916626,None,,,,,0,0,0,0,0,64,64,15,255.6691973209381,,,,,,,,,,,,,,,,,,,,,,,,,,,,,,,,,,,,,,,,,,,,,,,,,,,,,,,,,,,,,,,,,,,,,,,,,,,,,,,,,125.0,200.0,200.0,125.0,141.0,141.0,2.1,2.12,-258,-287,0,-259,229,282,255.65376663208008,255.65390348434448,255.65817713737488,255.6691973209381,255.8216187953949,255.8216187953949,255.8216187953949,255.8216187953949,255.8216187953949,255.8216187953949,255.8216187953949,262.0055377483368,2,6.318920373916626,None,,,,,,,,,,,,,,,,,,165,1,2025-02-28_14h18.16.257,comp,2024.2.4,60.80534421970681,2025-02-28 14h18.31.055248 -0500,
65,65,0,critical,whd,20.0,2.1,lower,57.0,133.0,133.0,57.0,78.0,78.0,3,5.1587975025177,None,,,,,0,0,0,0,0,65,65,38,262.0214693546295,,,,,,,,,,,,,,,,,,,,,,,,,,,,,,,,,,,,,,,,,,,,,,,,,,,,,,,,,,,,,,,,,,,,,,,,,,,,,,,,,57.0,133.0,133.0,57.0,78.0,78.0,2.1,2.11,-191,277,0,268,164,-264,262.0070152282715,262.0070974826813,262.0111563205719,262.0214693546295,262.1698033809662,262.1698033809662,262.1698033809662,262.1698033809662,262.1698033809662,262.1698033809662,262.1698033809662,267.19143986701965,3,5.1587975025177,None,,,,,,,,,,,,,,,,,,165,1,2025-02-28_14h18.16.257,comp,2024.2.4,60.80534421970681,2025-02-28 14h18.31.055248 -0500,
66,66,0,critical,dhw,35.0,2.1,upper,127.0,127.0,200.0,125.0,125.0,200.0,3,1.7087593078613281,None,,,,,0,0,0,0,0,66,66,25,267.20807218551636,,,,,,,,,,,,,,,,,,,,,,,,,,,,,,,,,,,,,,,,,,,,,,,,,,,,,,,,,,,,,,,,,,,,,,,,,,,,,,,,,127.0,127.0,200.0,125.0,125.0,200.0,2.1,2.12,-222,-258,0,-259,258,288,267.19310879707336,267.1931929588318,267.1963667869568,267.20807218551636,267.35635709762573,267.35635709762573,267.35635709762573,267.35635709762573,267.35635709762573,267.35635709762573,267.35635709762573,268.9225676059723,3,1.7087593078613281,None,,,,,,,,,,,,,,,,,,165,1,2025-02-28_14h18.16.257,comp,2024.2.4,60.80534421970681,2025-02-28 14h18.31.055248 -0500,
67,67,0,critical,hdw,35.0,2.1,upper,200.0,125.0,127.0,127.0,125.0,200.0,3,2.613438606262207,None,,,,,0,0,0,0,0,67,67,45,268.9427077770233,,,,,,,,,,,,,,,,,,,,,,,,,,,,,,,,,,,,,,,,,,,,,,,,,,,,,,,,,,,,,,,,,,,,,,,,,,,,,,,,,200.0,125.0,127.0,127.0,125.0,200.0,2.1,2.11,-222,253,0,266,260,-253,268.92417001724243,268.92425322532654,268.92733240127563,268.9427077770233,269.0900754928589,269.0900754928589,269.0900754928589,269.0900754928589,269.0900754928589,269.0900754928589,269.0900754928589,271.5735058784485,3,2.613438606262207,None,,,,,,,,,,,,,,,,,,165,1,2025-02-28_14h18.16.257,comp,2024.2.4,60.80534421970681,2025-02-28 14h18.31.055248 -0500,
68,68,0,filler_random,None,None,None,None,None,None,None,None,None,None,1,2.110638380050659,None,,,,,0,0,0,0,0,68,68,163,271.5901072025299,,,,,,,,,,,,,,,,,,,,,,,,,,,,,,,,,,,,,,,,,,,,,,,,,,,,,,,,,,,,,,,,,,,,,,,,,,,,,,,,,175.78129701772886,122.47876562390209,77.55262225227011,63.57337962354046,101.66931655195631,159.22457572829927,1.0,1.1,-669,285,-480,270,-273,287,271.5754563808441,271.57553601264954,271.57875895500183,271.5901072025299,271.7409451007843,271.7409451007843,271.7409451007843,271.7409451007843,271.7409451007843,271.7409451007843,271.7409451007843,273.71428751945496,1,2.110638380050659,None,,,,,,,,,,,,,,,,,,165,1,2025-02-28_14h18.16.257,comp,2024.2.4,60.80534421970681,2025-02-28 14h18.31.055248 -0500,
69,69,0,critical,hwd,35.0,1.0,upper,200.0,125.0,125.0,200.0,127.0,127.0,2,3.89821195602417,None,,,,,0,0,0,0,0,69,69,97,273.73019528388977,,,,,,,,,,,,,,,,,,,,,,,,,,,,,,,,,,,,,,,,,,,,,,,,,,,,,,,,,,,,,,,,,,,,,,,,,,,,,,,,,200.0,125.0,125.0,200.0,127.0,127.0,1.0,1.2,-258,19,0,3,260,-5,273.71583104133606,273.71592926979065,273.7192485332489,273.73019528388977,273.87523460388184,273.87523460388184,273.87523460388184,273.87523460388184,273.87523460388184,273.87523460388184,273.87523460388184,277.63957142829895,2,3.89821195602417,None,,,,,,,,,,,,,,,,,,165,1,2025-02-28_14h18.16.257,comp,2024.2.4,60.80534421970681,2025-02-28 14h18.31.055248 -0500,
70,70,0,critical,whd,20.0,1.0,lower,57.0,133.0,133.0,57.0,78.0,78.0,1,2.434291362762451,None,,,,,0,0,0,0,0,70,70,90,277.6577744483948,,,,,,,,,,,,,,,,,,,,,,,,,,,,,,,,,,,,,,,,,,,,,,,,,,,,,,,,,,,,,,,,,,,,,,,,,,,,,,,,,57.0,133.0,133.0,57.0,78.0,78.0,1.0,1.1,-671,283,-480,259,-316,279,277.6411991119385,277.64132046699524,277.64457750320435,277.6577744483948,277.79260873794556,277.79260873794556,277.79260873794556,277.79260873794556,277.79260873794556,277.79260873794556,277.79260873794556,280.108784198761,1,2.434291362762451,None,,,,,,,,,,,,,,,,,,165,1,2025-02-28_14h18.16.257,comp,2024.2.4,60.80534421970681,2025-02-28 14h18.31.055248 -0500,
71,71,0,critical,dwh,35.0,2.1,upper,127.0,127.0,125.0,200.0,200.0,125.0,3,1.687633752822876,None,,,,,0,0,0,0,0,71,71,5,280.1245677471161,,,,,,,,,,,,,,,,,,,,,,,,,,,,,,,,,,,,,,,,,,,,,,,,,,,,,,,,,,,,,,,,,,,,,,,,,,,,,,,,,127.0,127.0,125.0,200.0,200.0,125.0,2.1,2.12,-260,-284,0,-257,258,258,280.1103196144104,280.1103994846344,280.1132915019989,280.1245677471161,280.28338742256165,280.28338742256165,280.28338742256165,280.28338742256165,280.28338742256165,280.28338742256165,280.28338742256165,281.8277883529663,3,1.687633752822876,None,,,,,,,,,,,,,,,,,,165,1,2025-02-28_14h18.16.257,comp,2024.2.4,60.80534421970681,2025-02-28 14h18.31.055248 -0500,
72,72,0,filler_random,None,None,None,None,None,None,None,None,None,None,3,2.7520337104797363,None,,,,,0,0,0,0,0,72,72,162,281.8442008495331,,,,,,,,,,,,,,,,,,,,,,,,,,,,,,,,,,,,,,,,,,,,,,,,,,,,,,,,,,,,,,,,,,,,,,,,,,,,,,,,,57.378248508106914,136.64569102592498,124.59609822398632,149.23507307739126,135.82714935330964,185.9207827707268,2.1,2.11,-239,271,0,255,264,-272,281.8295569419861,281.82963728904724,281.83367466926575,281.8442008495331,282.0048189163208,282.0048189163208,282.0048189163208,282.0048189163208,282.0048189163208,282.0048189163208,282.0048189163208,284.6125383377075,3,2.7520337104797363,None,,,,,,,,,,,,,,,,,,165,1,2025-02-28_14h18.16.257,comp,2024.2.4,60.80534421970681,2025-02-28 14h18.31.055248 -0500,
73,73,0,critical,dhw,35.0,2.1,lower,70.0,70.0,133.0,57.0,57.0,133.0,2,2.416064739227295,None,,,,,0,0,0,0,0,73,73,0,284.6285421848297,,,,,,,,,,,,,,,,,,,,,,,,,,,,,,,,,,,,,,,,,,,,,,,,,,,,,,,,,,,,,,,,,,,,,,,,,,,,,,,,,70.0,70.0,133.0,57.0,57.0,133.0,2.1,2.12,-160,-280,0,-258,191,252,284.6140687465668,284.6141469478607,284.61821126937866,284.6285421848297,284.7810616493225,284.7810616493225,284.7810616493225,284.7810616493225,284.7810616493225,284.7810616493225,284.7810616493225,287.05032873153687,2,2.416064739227295,None,,,,,,,,,,,,,,,,,,165,1,2025-02-28_14h18.16.257,comp,2024.2.4,60.80534421970681,2025-02-28 14h18.31.055248 -0500,
74,74,0,catch,None,None,None,None,None,None,None,None,None,None,2,1.55177903175354,None,,,,,0,0,0,0,0,74,74,129,287.06848978996277,,,,,,,,,,,,,,,,,,,,,,,,,,,,,,,,,,,,,,,,,,,,,,,,,,,,,,,,,,,,,,,,,,,,,,,,,,,,,,,,,59,131,197,128,68,122,4.0,4.1,-226,-252,0,0,221,-262,287.0523328781128,287.05242013931274,287.0552942752838,287.06848978996277,287.2126884460449,287.2126884460449,287.2126884460449,287.2126884460449,287.2126884460449,287.2126884460449,287.2126884460449,288.63001585006714,2,1.55177903175354,None,,,,,,,,,,,,,,,,,,165,1,2025-02-28_14h18.16.257,comp,2024.2.4,60.80534421970681,2025-02-28 14h18.31.055248 -0500,
75,75,0,critical,wdh,35.0,4.0,upper,125.0,200.0,127.0,127.0,200.0,125.0,1,3.9013254642486572,None,,,,,0,0,0,0,0,75,75,77,288.6469316482544,,,,,,,,,,,,,,,,,,,,,,,,,,,,,,,,,,,,,,,,,,,,,,,,,,,,,,,,,,,,,,,,,,,,,,,,,,,,,,,,,125.0,200.0,127.0,127.0,200.0,125.0,4.0,4.1,-260,-283,0,1,222,-261,288.6315348148346,288.6316168308258,288.6347997188568,288.6469316482544,288.8058376312256,288.8058376312256,288.8058376312256,288.8058376312256,288.8058376312256,288.8058376312256,288.8058376312256,292.55409240722656,1,3.9013254642486572,None,,,,,,,,,,,,,,,,,,165,1,2025-02-28_14h18.16.257,comp,2024.2.4,60.80534421970681,2025-02-28 14h18.31.055248 -0500,
76,76,0,filler_square,None,None,None,None,None,None,None,None,None,None,2,1.1914608478546143,None,,,,,0,0,0,0,0,76,76,192,292.57289695739746,,,,,,,,,,,,,,,,,,,,,,,,,,,,,,,,,,,,,,,,,,,,,,,,,,,,,,,,,,,,,,,,,,,,,,,,,,,,,,,,,87.98231190900952,60.507855006109345,127.9730945643872,127.9730945643872,99.0923812556976,70.1666679887623,2.1,2.12,-190,-282,0,-282,195,290,292.555948972702,292.55605244636536,292.55890440940857,292.57289695739746,292.71425795555115,292.71425795555115,292.71425795555115,292.71425795555115,292.71425795555115,292.71425795555115,292.71425795555115,293.7709696292877,2,1.1914608478546143,None,,,,,,,,,,,,,,,,,,165,1,2025-02-28_14h18.16.257,comp,2024.2.4,60.80534421970681,2025-02-28 14h18.31.055248 -0500,
77,77,0,critical,dwh,35.0,2.1,lower,70.0,70.0,57.0,133.0,133.0,57.0,3,2.359567880630493,None,,,,,0,0,0,0,0,77,77,28,293.78866171836853,,,,,,,,,,,,,,,,,,,,,,,,,,,,,,,,,,,,,,,,,,,,,,,,,,,,,,,,,,,,,,,,,,,,,,,,,,,,,,,,,70.0,70.0,57.0,133.0,133.0,57.0,2.1,2.11,-198,281,0,250,191,-254,293.7727086544037,293.77279567718506,293.77567863464355,293.78866171836853,293.93496322631836,293.93496322631836,293.93496322631836,293.93496322631836,293.93496322631836,293.93496322631836,293.93496322631836,296.16531896591187,3,2.359567880630493,None,,,,,,,,,,,,,,,,,,165,1,2025-02-28_14h18.16.257,comp,2024.2.4,60.80534421970681,2025-02-28 14h18.31.055248 -0500,
78,78,0,critical,whd,35.0,2.1,lower,57.0,133.0,133.0,57.0,70.0,70.0,2,2.881476640701294,None,,,,,0,0,0,0,0,78,78,36,296.1793124675751,,,,,,,,,,,,,,,,,,,,,,,,,,,,,,,,,,,,,,,,,,,,,,,,,,,,,,,,,,,,,,,,,,,,,,,,,,,,,,,,,57.0,133.0,133.0,57.0,70.0,70.0,2.1,2.11,-191,275,0,270,160,-272,296.1669080257416,296.16702032089233,296.17021465301514,296.1793124675751,296.3342604637146,296.3342604637146,296.3342604637146,296.3342604637146,296.3342604637146,296.3342604637146,296.3342604637146,299.06532406806946,2,2.881476640701294,None,,,,,,,,,,,,,,,,,,165,1,2025-02-28_14h18.16.257,comp,2024.2.4,60.80534421970681,2025-02-28 14h18.31.055248 -0500,
79,79,0,critical,dwh,35.0,1.0,lower,70.0,70.0,57.0,133.0,133.0,57.0,2,1.8274807929992676,None,,,,,0,0,0,0,0,79,79,60,299.08182668685913,,,,,,,,,,,,,,,,,,,,,,,,,,,,,,,,,,,,,,,,,,,,,,,,,,,,,,,,,,,,,,,,,,,,,,,,,,,,,,,,,70.0,70.0,57.0,133.0,133.0,57.0,1.0,1.1,-678,252,-480,279,-289,256,299.0668351650238,299.06691431999207,299.0699608325958,299.08182668685913,299.2356493473053,299.2356493473053,299.2356493473053,299.2356493473053,299.2356493473053,299.2356493473053,299.2356493473053,300.9160659313202,2,1.8274807929992676,None,,,,,,,,,,,,,,,,,,165,1,2025-02-28_14h18.16.257,comp,2024.2.4,60.80534421970681,2025-02-28 14h18.31.055248 -0500,
80,80,0,critical,wdh,35.0,3.0,lower,57.0,133.0,70.0,70.0,133.0,57.0,1,1.643655776977539,None,,,,,0,0,0,0,0,80,80,74,300.9365961551666,,,,,,,,,,,,,,,,,,,,,,,,,,,,,,,,,,,,,,,,,,,,,,,,,,,,,,,,,,,,,,,,,,,,,,,,,,,,,,,,,57.0,133.0,70.0,70.0,133.0,57.0,3.0,3.1,-198,251,0,9,160,-285,300.9175822734833,300.9176619052887,300.9208347797394,300.9365961551666,301.08343267440796,301.08343267440796,301.08343267440796,301.08343267440796,301.08343267440796,301.08343267440796,301.08343267440796,302.6001579761505,1,1.643655776977539,None,,,,,,,,,,,,,,,,,,165,1,2025-02-28_14h18.16.257,comp,2024.2.4,60.80534421970681,2025-02-28 14h18.31.055248 -0500,
81,81,0,critical,hdw,20.0,1.0,upper,200.0,125.0,141.0,141.0,125.0,200.0,3,3.155698776245117,None,,,,,0,0,0,0,0,81,81,115,302.61652851104736,,,,,,,,,,,,,,,,,,,,,,,,,,,,,,,,,,,,,,,,,,,,,,,,,,,,,,,,,,,,,,,,,,,,,,,,,,,,,,,,,200.0,125.0,141.0,141.0,125.0,200.0,1.0,1.1,-709,263,-480,280,-214,272,302.6017243862152,302.60180258750916,302.6049416065216,302.61652851104736,302.75759625434875,302.75759625434875,302.75759625434875,302.75759625434875,302.75759625434875,302.75759625434875,302.75759625434875,305.77661776542664,3,3.155698776245117,None,,,,,,,,,,,,,,,,,,165,1,2025-02-28_14h18.16.257,comp,2024.2.4,60.80534421970681,2025-02-28 14h18.31.055248 -0500,
82,82,0,filler_square,None,None,None,None,None,None,None,None,None,None,1,3.329087495803833,None,,,,,0,0,0,0,0,82,82,199,305.79540824890137,,,,,,,,,,,,,,,,,,,,,,,,,,,,,,,,,,,,,,,,,,,,,,,,,,,,,,,,,,,,,,,,,,,,,,,,,,,,,,,,,113.65640645097133,113.65640645097133,102.71633528951256,84.40638690821845,100.28391688916818,89.13432487168646,1.0,1.2,-195,8,0,-17,183,17,305.77860736846924,305.7786877155304,305.78193378448486,305.79540824890137,305.93707394599915,305.93707394599915,305.93707394599915,305.93707394599915,305.93707394599915,305.93707394599915,305.93707394599915,309.12767577171326,1,3.329087495803833,None,,,,,,,,,,,,,,,,,,165,1,2025-02-28_14h18.16.257,comp,2024.2.4,60.80534421970681,2025-02-28 14h18.31.055248 -0500,
83,83,0,critical,hdw,20.0,3.0,upper,200.0,125.0,141.0,141.0,125.0,200.0,3,3.9622011184692383,None,,,,,0,0,0,0,0,83,83,117,309.14592456817627,,,,,,,,,,,,,,,,,,,,,,,,,,,,,,,,,,,,,,,,,,,,,,,,,,,,,,,,,,,,,,,,,,,,,,,,,,,,,,,,,200.0,125.0,141.0,141.0,125.0,200.0,3.0,3.1,-229,281,0,-3,266,-285,309.1292381286621,309.1293213367462,309.1321861743927,309.14592456817627,309.2878909111023,309.2878909111023,309.2878909111023,309.2878909111023,309.2878909111023,309.2878909111023,309.2878909111023,313.1183183193207,3,3.9622011184692383,None,,,,,,,,,,,,,,,,,,165,1,2025-02-28_14h18.16.257,comp,2024.2.4,60.80534421970681,2025-02-28 14h18.31.055248 -0500,
84,84,0,critical,wdh,20.0,2.1,upper,125.0,200.0,141.0,141.0,200.0,125.0,1,1.6532058715820312,None,,,,,0,0,0,0,0,84,84,11,313.135231256485,,,,,,,,,,,,,,,,,,,,,,,,,,,,,,,,,,,,,,,,,,,,,,,,,,,,,,,,,,,,,,,,,,,,,,,,,,,,,,,,,125.0,200.0,141.0,141.0,200.0,125.0,2.1,2.11,-266,270,0,253,229,-253,313.12008142471313,313.12016129493713,313.1233813762665,313.135231256485,313.2874312400818,313.2874312400818,313.2874312400818,313.2874312400818,313.2874312400818,313.2874312400818,313.2874312400818,314.80601835250854,1,1.6532058715820312,None,,,,,,,,,,,,,,,,,,165,1,2025-02-28_14h18.16.257,comp,2024.2.4,60.80534421970681,2025-02-28 14h18.31.055248 -0500,
85,85,0,filler_random,None,None,None,None,None,None,None,None,None,None,1,1.4145114421844482,None,,,,,0,0,0,0,0,85,85,144,314.82238483428955,,,,,,,,,,,,,,,,,,,,,,,,,,,,,,,,,,,,,,,,,,,,,,,,,,,,,,,,,,,,,,,,,,,,,,,,,,,,,,,,,129.84401472027832,159.45290894249473,170.4665487016356,88.65271199979313,148.97811050654246,98.45976624020564,1.0,1.2,-220,-10,0,-18,190,7,314.8081302642822,314.80821442604065,314.81205201148987,314.82238483428955,314.96880650520325,314.96880650520325,314.96880650520325,314.96880650520325,314.96880650520325,314.96880650520325,314.96880650520325,316.25527930259705,1,1.4145114421844482,None,,,,,,,,,,,,,,,,,,165,1,2025-02-28_14h18.16.257,comp,2024.2.4,60.80534421970681,2025-02-28 14h18.31.055248 -0500,
86,86,0,filler_square,None,None,None,None,None,None,None,None,None,None,2,2.4845948219299316,None,,,,,0,0,0,0,0,86,86,178,316.27164816856384,,,,,,,,,,,,,,,,,,,,,,,,,,,,,,,,,,,,,,,,,,,,,,,,,,,,,,,,,,,,,,,,,,,,,,,,,,,,,,,,,57.3254275636896,59.58353408834371,63.7531915116933,63.7531915116933,61.848815587007905,61.63791297738391,1.0,1.1,-638,290,-480,258,-321,282,316.25710701942444,316.25718998908997,316.26125979423523,316.27164816856384,316.42188835144043,316.42188835144043,316.42188835144043,316.42188835144043,316.42188835144043,316.42188835144043,316.42188835144043,318.77207708358765,2,2.4845948219299316,None,,,,,,,,,,,,,,,,,,165,1,2025-02-28_14h18.16.257,comp,2024.2.4,60.80534421970681,2025-02-28 14h18.31.055248 -0500,
87,87,0,critical,dhw,20.0,3.0,lower,78.0,78.0,133.0,57.0,57.0,133.0,2,3.0934619903564453,None,,,,,0,0,0,0,0,87,87,56,318.79152369499207,,,,,,,,,,,,,,,,,,,,,,,,,,,,,,,,,,,,,,,,,,,,,,,,,,,,,,,,,,,,,,,,,,,,,,,,,,,,,,,,,78.0,78.0,133.0,57.0,57.0,133.0,3.0,3.1,-164,270,0,6,191,-270,318.7735686302185,318.7736496925354,318.7767210006714,318.79152369499207,318.9391710758209,318.9391710758209,318.9391710758209,318.9391710758209,318.9391710758209,318.9391710758209,318.9391710758209,321.8905189037323,2,3.0934619903564453,None,,,,,,,,,,,,,,,,,,165,1,2025-02-28_14h18.16.257,comp,2024.2.4,60.80534421970681,2025-02-28 14h18.31.055248 -0500,
88,88,0,critical,hdw,20.0,4.0,lower,133.0,57.0,78.0,78.0,57.0,133.0,3,1.4501848220825195,None,,,,,0,0,0,0,0,88,88,118,321.9069273471832,,,,,,,,,,,,,,,,,,,,,,,,,,,,,,,,,,,,,,,,,,,,,,,,,,,,,,,,,,,,,,,,,,,,,,,,,,,,,,,,,133.0,57.0,78.0,78.0,57.0,133.0,4.0,4.1,-164,-271,0,7,202,-271,321.8919360637665,321.8920395374298,321.8961157798767,321.9069273471832,322.05720043182373,322.05720043182373,322.05720043182373,322.05720043182373,322.05720043182373,322.05720043182373,322.05720043182373,323.3626878261566,3,1.4501848220825195,None,,,,,,,,,,,,,,,,,,165,1,2025-02-28_14h18.16.257,comp,2024.2.4,60.80534421970681,2025-02-28 14h18.31.055248 -0500,
89,89,0,filler_random,None,None,None,None,None,None,None,None,None,None,2,1.6612706184387207,None,,,,,0,0,0,0,0,89,89,164,323.3830907344818,,,,,,,,,,,,,,,,,,,,,,,,,,,,,,,,,,,,,,,,,,,,,,,,,,,,,,,,,,,,,,,,,,,,,,,,,,,,,,,,,120.45473734457761,80.22917224964323,135.75186075774923,177.32733220324258,90.60917493794173,148.24798690539671,4.0,4.1,-225,-251,0,7,259,-259,323.3643696308136,323.3644495010376,323.3673577308655,323.3830907344818,323.5216734409332,323.5216734409332,323.5216734409332,323.5216734409332,323.5216734409332,323.5216734409332,323.5216734409332,325.0578031539917,2,1.6612706184387207,None,,,,,,,,,,,,,,,,,,165,1,2025-02-28_14h18.16.257,comp,2024.2.4,60.80534421970681,2025-02-28 14h18.31.055248 -0500,
90,90,0,catch,None,None,None,None,None,None,None,None,None,None,1,1.4021415710449219,None,,,,,0,0,0,0,0,90,90,121,325.07431745529175,,,,,,,,,,,,,,,,,,,,,,,,,,,,,,,,,,,,,,,,,,,,,,,,,,,,,,,,,,,,,,,,,,,,,,,,,,,,,,,,,166,159,114,76,120,70,3.0,3.2,-214,-280,0,6,169,253,325.0600845813751,325.0601661205292,325.063773393631,325.07431745529175,325.2263789176941,325.2263789176941,325.2263789176941,325.2263789176941,325.2263789176941,325.2263789176941,325.2263789176941,326.47862458229065,1,1.4021415710449219,None,,,,,,,,,,,,,,,,,,165,1,2025-02-28_14h18.16.257,comp,2024.2.4,60.80534421970681,2025-02-28 14h18.31.055248 -0500,
91,91,0,filler_square,None,None,None,None,None,None,None,None,None,None,1,1.725388526916504,None,,,,,0,0,0,0,0,91,91,171,326.495370388031,,,,,,,,,,,,,,,,,,,,,,,,,,,,,,,,,,,,,,,,,,,,,,,,,,,,,,,,,,,,,,,,,,,,,,,,,,,,,,,,,168.9399598671094,168.9399598671094,92.86438460881266,119.13837202699536,124.52948535048681,122.94743752101266,1.0,1.1,-720,269,-480,281,-263,280,326.4812250137329,326.4813106060028,326.4844741821289,326.495370388031,326.6422669887543,326.6422669887543,326.6422669887543,326.6422669887543,326.6422669887543,326.6422669887543,326.6422669887543,328.22735047340393,1,1.725388526916504,None,,,,,,,,,,,,,,,,,,165,1,2025-02-28_14h18.16.257,comp,2024.2.4,60.80534421970681,2025-02-28 14h18.31.055248 -0500,
92,92,0,filler_square,None,None,None,None,None,None,None,None,None,None,3,3.168975353240967,None,,,,,0,0,0,0,0,92,92,188,328.2432451248169,,,,,,,,,,,,,,,,,,,,,,,,,,,,,,,,,,,,,,,,,,,,,,,,,,,,,,,,,,,,,,,,,,,,,,,,,,,,,,,,,59.233976312886625,64.072571950444,62.77226943040304,63.804075152345824,67.06867922521313,67.06867922521313,3.0,3.2,-160,-266,0,-15,161,264,328.2291944026947,328.2292799949646,328.2324514389038,328.2432451248169,328.39550948143005,328.39550948143005,328.39550948143005,328.39550948143005,328.39550948143005,328.39550948143005,328.39550948143005,331.4260311126709,3,3.168975353240967,None,,,,,,,,,,,,,,,,,,165,1,2025-02-28_14h18.16.257,comp,2024.2.4,60.80534421970681,2025-02-28 14h18.31.055248 -0500,
93,93,0,critical,dwh,20.0,2.1,upper,141.0,141.0,125.0,200.0,200.0,125.0,3,2.1236062049865723,None,,,,,0,0,0,0,0,93,93,31,331.4405915737152,,,,,,,,,,,,,,,,,,,,,,,,,,,,,,,,,,,,,,,,,,,,,,,,,,,,,,,,,,,,,,,,,,,,,,,,,,,,,,,,,141.0,141.0,125.0,200.0,200.0,125.0,2.1,2.12,-266,-290,0,-268,258,252,331.42760038375854,331.42768001556396,331.43132162094116,331.4405915737152,331.5932409763336,331.5932409763336,331.5932409763336,331.5932409763336,331.5932409763336,331.5932409763336,331.5932409763336,333.58390712738037,3,2.1236062049865723,None,,,,,,,,,,,,,,,,,,165,1,2025-02-28_14h18.16.257,comp,2024.2.4,60.80534421970681,2025-02-28 14h18.31.055248 -0500,
94,94,0,critical,dwh,20.0,3.0,lower,78.0,78.0,57.0,133.0,133.0,57.0,1,4.876805543899536,None,,,,,0,0,0,0,0,94,94,68,333.59943771362305,,,,,,,,,,,,,,,,,,,,,,,,,,,,,,,,,,,,,,,,,,,,,,,,,,,,,,,,,,,,,,,,,,,,,,,,,,,,,,,,,78.0,78.0,57.0,133.0,133.0,57.0,3.0,3.1,-202,254,0,18,191,-272,333.58555245399475,333.5856306552887,333.58887362480164,333.59943771362305,333.7445352077484,333.7445352077484,333.7445352077484,333.7445352077484,333.7445352077484,333.7445352077484,333.7445352077484,338.47869348526,1,4.876805543899536,None,,,,,,,,,,,,,,,,,,165,1,2025-02-28_14h18.16.257,comp,2024.2.4,60.80534421970681,2025-02-28 14h18.31.055248 -0500,
95,95,0,critical,hwd,35.0,4.0,upper,200.0,125.0,125.0,200.0,127.0,127.0,2,1.6218507289886475,None,,,,,0,0,0,0,0,95,95,101,338.49458050727844,,,,,,,,,,,,,,,,,,,,,,,,,,,,,,,,,,,,,,,,,,,,,,,,,,,,,,,,,,,,,,,,,,,,,,,,,,,,,,,,,200.0,125.0,125.0,200.0,127.0,127.0,4.0,4.1,-258,-276,0,10,260,-284,338.4802198410034,338.48030281066895,338.4837820529938,338.49458050727844,338.64391136169434,338.64391136169434,338.64391136169434,338.64391136169434,338.64391136169434,338.64391136169434,338.64391136169434,340.1294810771942,2,1.6218507289886475,None,,,,,,,,,,,,,,,,,,165,1,2025-02-28_14h18.16.257,comp,2024.2.4,60.80534421970681,2025-02-28 14h18.31.055248 -0500,
96,96,0,critical,dwh,20.0,1.0,upper,141.0,141.0,125.0,200.0,200.0,125.0,2,1.6185886859893799,None,,,,,0,0,0,0,0,96,96,67,340.14593839645386,,,,,,,,,,,,,,,,,,,,,,,,,,,,,,,,,,,,,,,,,,,,,,,,,,,,,,,,,,,,,,,,,,,,,,,,,,,,,,,,,141.0,141.0,125.0,200.0,200.0,125.0,1.0,1.2,-266,-5,0,-8,258,1,340.13112783432007,340.1312310695648,340.13471364974976,340.14593839645386,340.2955758571625,340.2955758571625,340.2955758571625,340.2955758571625,340.2955758571625,340.2955758571625,340.2955758571625,341.7681887149811,2,1.6185886859893799,None,,,,,,,,,,,,,,,,,,165,1,2025-02-28_14h18.16.257,comp,2024.2.4,60.80534421970681,2025-02-28 14h18.31.055248 -0500,
97,97,0,critical,dwh,20.0,2.1,upper,141.0,141.0,125.0,200.0,200.0,125.0,3,1.7794017791748047,None,,,,,0,0,0,0,0,97,97,7,341.78494930267334,,,,,,,,,,,,,,,,,,,,,,,,,,,,,,,,,,,,,,,,,,,,,,,,,,,,,,,,,,,,,,,,,,,,,,,,,,,,,,,,,141.0,141.0,125.0,200.0,200.0,125.0,2.1,2.11,-266,267,0,263,258,-269,341.76980900764465,341.7698996067047,341.7732894420624,341.78494930267334,341.930979013443,341.930979013443,341.930979013443,341.930979013443,341.930979013443,341.930979013443,341.930979013443,343.57952308654785,3,1.7794017791748047,None,,,,,,,,,,,,,,,,,,165,1,2025-02-28_14h18.16.257,comp,2024.2.4,60.80534421970681,2025-02-28 14h18.31.055248 -0500,
98,98,0,critical,dwh,35.0,4.0,upper,127.0,127.0,125.0,200.0,200.0,125.0,3,2.089446544647217,None,,,,,0,0,0,0,0,98,98,65,343.5956594944,,,,,,,,,,,,,,,,,,,,,,,,,,,,,,,,,,,,,,,,,,,,,,,,,,,,,,,,,,,,,,,,,,,,,,,,,,,,,,,,,127.0,127.0,125.0,200.0,200.0,125.0,4.0,4.1,-260,-272,0,11,258,-272,343.58115243911743,343.5812337398529,343.58430337905884,343.5956594944,343.7475688457489,343.7475688457489,343.7475688457489,343.7475688457489,343.7475688457489,343.7475688457489,343.7475688457489,345.7017288208008,3,2.089446544647217,None,,,,,,,,,,,,,,,,,,165,1,2025-02-28_14h18.16.257,comp,2024.2.4,60.80534421970681,2025-02-28 14h18.31.055248 -0500,
99,99,0,catch,None,None,None,None,None,None,None,None,None,None,1,1.8571386337280273,None,,,,,0,0,0,0,0,99,99,122,345.7180895805359,,,,,,,,,,,,,,,,,,,,,,,,,,,,,,,,,,,,,,,,,,,,,,,,,,,,,,,,,,,,,,,,,,,,,,,,,,,,,,,,,157,168,101,89,86,104,1.0,1.1,-704,279,-480,251,-288,279,345.7039670944214,345.704087972641,345.70693278312683,345.7180895805359,345.86717438697815,345.86717438697815,345.86717438697815,345.86717438697815,345.86717438697815,345.86717438697815,345.86717438697815,347.58089208602905,1,1.8571386337280273,None,,,,,,,,,,,,,,,,,,165,1,2025-02-28_14h18.16.257,comp,2024.2.4,60.80534421970681,2025-02-28 14h18.31.055248 -0500,
100,100,0,filler_random,None,None,None,None,None,None,None,None,None,None,2,3.3877408504486084,None,,,,,0,0,0,0,0,100,100,152,347.6006004810333,,,,,,,,,,,,,,,,,,,,,,,,,,,,,,,,,,,,,,,,,,,,,,,,,,,,,,,,,,,,,,,,,,,,,,,,,,,,,,,,,67.25913516183488,150.9875156411539,76.616237327922,175.81362596125453,88.42236468257431,98.83754180031625,3.0,3.1,-259,277,0,14,233,-258,347.5826139450073,347.5826952457428,347.58563113212585,347.6006004810333,347.74837255477905,347.74837255477905,347.74837255477905,347.74837255477905,347.74837255477905,347.74837255477905,347.74837255477905,350.99821281433105,2,3.3877408504486084,None,,,,,,,,,,,,,,,,,,165,1,2025-02-28_14h18.16.257,comp,2024.2.4,60.80534421970681,2025-02-28 14h18.31.055248 -0500,
101,101,0,critical,hdw,35.0,1.0,lower,133.0,57.0,70.0,70.0,57.0,133.0,1,1.598097562789917,None,,,,,0,0,0,0,0,101,101,108,351.0150656700134,,,,,,,,,,,,,,,,,,,,,,,,,,,,,,,,,,,,,,,,,,,,,,,,,,,,,,,,,,,,,,,,,,,,,,,,,,,,,,,,,133.0,57.0,70.0,70.0,57.0,133.0,1.0,1.1,-640,287,-480,272,-282,264,350.9998321533203,350.9999694824219,351.00324749946594,351.0150656700134,351.1754674911499,351.1754674911499,351.1754674911499,351.1754674911499,351.1754674911499,351.1754674911499,351.1754674911499,352.61692333221436,1,1.598097562789917,None,,,,,,,,,,,,,,,,,,165,1,2025-02-28_14h18.16.257,comp,2024.2.4,60.80534421970681,2025-02-28 14h18.31.055248 -0500,
102,102,0,critical,dwh,20.0,3.0,upper,141.0,141.0,125.0,200.0,200.0,125.0,2,2.434621572494507,None,,,,,0,0,0,0,0,102,102,69,352.6338405609131,,,,,,,,,,,,,,,,,,,,,,,,,,,,,,,,,,,,,,,,,,,,,,,,,,,,,,,,,,,,,,,,,,,,,,,,,,,,,,,,,141.0,141.0,125.0,200.0,200.0,125.0,3.0,3.1,-266,274,0,-16,258,-273,352.6185853481293,352.6186683177948,352.62274837493896,352.6338405609131,352.78701424598694,352.78701424598694,352.78701424598694,352.78701424598694,352.78701424598694,352.78701424598694,352.78701424598694,355.08536744117737,2,2.434621572494507,None,,,,,,,,,,,,,,,,,,165,1,2025-02-28_14h18.16.257,comp,2024.2.4,60.80534421970681,2025-02-28 14h18.31.055248 -0500,
103,103,0,critical,dwh,20.0,4.0,lower,78.0,78.0,57.0,133.0,133.0,57.0,3,1.919140338897705,None,,,,,0,0,0,0,0,103,103,70,355.10147428512573,,,,,,,,,,,,,,,,,,,,,,,,,,,,,,,,,,,,,,,,,,,,,,,,,,,,,,,,,,,,,,,,,,,,,,,,,,,,,,,,,78.0,78.0,57.0,133.0,133.0,57.0,4.0,4.2,-202,9,0,-286,191,-3,355.0869517326355,355.0871136188507,355.09111857414246,355.10147428512573,355.25647711753845,355.25647711753845,355.25647711753845,355.25647711753845,355.25647711753845,355.25647711753845,355.25647711753845,357.0412678718567,3,1.919140338897705,None,,,,,,,,,,,,,,,,,,165,1,2025-02-28_14h18.16.257,comp,2024.2.4,60.80534421970681,2025-02-28 14h18.31.055248 -0500,
104,104,0,critical,hwd,35.0,1.0,lower,133.0,57.0,57.0,133.0,70.0,70.0,1,4.090317010879517,None,,,,,0,0,0,0,0,104,104,96,357.0582323074341,,,,,,,,,,,,,,,,,,,,,,,,,,,,,,,,,,,,,,,,,,,,,,,,,,,,,,,,,,,,,,,,,,,,,,,,,,,,,,,,,133.0,57.0,57.0,133.0,70.0,70.0,1.0,1.1,-671,270,-480,290,-282,270,357.04274344444275,357.04282212257385,357.0456826686859,357.0582323074341,357.20224833488464,357.20224833488464,357.20224833488464,357.20224833488464,357.20224833488464,357.20224833488464,357.20224833488464,361.15359568595886,1,4.090317010879517,None,,,,,,,,,,,,,,,,,,165,1,2025-02-28_14h18.16.257,comp,2024.2.4,60.80534421970681,2025-02-28 14h18.31.055248 -0500,
105,105,0,critical,hdw,35.0,2.1,upper,200.0,125.0,127.0,127.0,125.0,200.0,3,1.7551243305206299,None,,,,,0,0,0,0,0,105,105,21,361.1694519519806,,,,,,,,,,,,,,,,,,,,,,,,,,,,,,,,,,,,,,,,,,,,,,,,,,,,,,,,,,,,,,,,,,,,,,,,,,,,,,,,,200.0,125.0,127.0,127.0,125.0,200.0,2.1,2.11,-222,287,0,286,260,-258,361.1551580429077,361.1552686691284,361.1586673259735,361.1694519519806,361.3170886039734,361.3170886039734,361.3170886039734,361.3170886039734,361.3170886039734,361.3170886039734,361.3170886039734,362.92657446861267,3,1.7551243305206299,None,,,,,,,,,,,,,,,,,,165,1,2025-02-28_14h18.16.257,comp,2024.2.4,60.80534421970681,2025-02-28 14h18.31.055248 -0500,
106,106,0,filler_random,None,None,None,None,None,None,None,None,None,None,2,1.3949904441833496,None,,,,,0,0,0,0,0,106,106,150,362.9455316066742,,,,,,,,,,,,,,,,,,,,,,,,,,,,,,,,,,,,,,,,,,,,,,,,,,,,,,,,,,,,,,,,,,,,,,,,,,,,,,,,,106.37335992396602,138.0512521730783,135.6176776381566,150.76730065358498,95.43853129032522,128.20413240525318,3.0,3.2,-240,-285,0,2,235,284,362.9283685684204,362.92844915390015,362.93133187294006,362.9455316066742,363.08916306495667,363.08916306495667,363.08916306495667,363.08916306495667,363.08916306495667,363.08916306495667,363.08916306495667,364.35396456718445,2,1.3949904441833496,None,,,,,,,,,,,,,,,,,,165,1,2025-02-28_14h18.16.257,comp,2024.2.4,60.80534421970681,2025-02-28 14h18.31.055248 -0500,
107,107,0,critical,dhw,35.0,1.0,upper,127.0,127.0,200.0,125.0,125.0,200.0,3,1.2185070514678955,None,,,,,0,0,0,0,0,107,107,49,364.36987352371216,,,,,,,,,,,,,,,,,,,,,,,,,,,,,,,,,,,,,,,,,,,,,,,,,,,,,,,,,,,,,,,,,,,,,,,,,,,,,,,,,127.0,127.0,200.0,125.0,125.0,200.0,1.0,1.2,-222,-13,0,14,258,-11,364.3556172847748,364.3556959629059,364.3594172000885,364.36987352371216,364.5205821990967,364.5205821990967,364.5205821990967,364.5205821990967,364.5205821990967,364.5205821990967,364.5205821990967,365.6041479110718,3,1.2185070514678955,None,,,,,,,,,,,,,,,,,,165,1,2025-02-28_14h18.16.257,comp,2024.2.4,60.80534421970681,2025-02-28 14h18.31.055248 -0500,
108,108,0,critical,dhw,35.0,2.1,upper,127.0,127.0,200.0,125.0,125.0,200.0,2,1.2162277698516846,None,,,,,0,0,0,0,0,108,108,1,365.62023997306824,,,,,,,,,,,,,,,,,,,,,,,,,,,,,,,,,,,,,,,,,,,,,,,,,,,,,,,,,,,,,,,,,,,,,,,,,,,,,,,,,127.0,127.0,200.0,125.0,125.0,200.0,2.1,2.11,-222,265,0,285,258,-275,365.6057140827179,365.6057949066162,365.60983777046204,365.62023997306824,365.7677867412567,365.7677867412567,365.7677867412567,365.7677867412567,365.7677867412567,365.7677867412567,365.7677867412567,366.8404459953308,2,1.2162277698516846,None,,,,,,,,,,,,,,,,,,165,1,2025-02-28_14h18.16.257,comp,2024.2.4,60.80534421970681,2025-02-28 14h18.31.055248 -0500,
109,109,0,filler_square,None,None,None,None,None,None,None,None,None,None,3,1.5539429187774658,None,,,,,0,0,0,0,0,109,109,170,366.8594822883606,,,,,,,,,,,,,,,,,,,,,,,,,,,,,,,,,,,,,,,,,,,,,,,,,,,,,,,,,,,,,,,,,,,,,,,,,,,,,,,,,136.9207626193046,160.71776217376544,86.2194486329558,73.1029492302766,178.17745351490237,178.17745351490237,1.0,1.1,-693,256,-480,277,-258,274,366.84251499176025,366.84259724617004,366.8459777832031,366.8594822883606,367.01237773895264,367.01237773895264,367.01237773895264,367.01237773895264,367.01237773895264,367.01237773895264,367.01237773895264,368.42073035240173,3,1.5539429187774658,None,,,,,,,,,,,,,,,,,,165,1,2025-02-28_14h18.16.257,comp,2024.2.4,60.80534421970681,2025-02-28 14h18.31.055248 -0500,
110,110,0,filler_square,None,None,None,None,None,None,None,None,None,None,3,1.2559785842895508,None,,,,,0,0,0,0,0,110,110,174,368.43727684020996,,,,,,,,,,,,,,,,,,,,,,,,,,,,,,,,,,,,,,,,,,,,,,,,,,,,,,,,,,,,,,,,,,,,,,,,,,,,,,,,,103.76149443670079,97.4249818334113,100.6382141321738,63.25128194143026,132.33908084202113,132.33908084202113,1.0,1.3,304,-281,480,-272,674,-289,368.42259073257446,368.4226715564728,368.4258644580841,368.43727684020996,368.59223914146423,368.59223914146423,368.59223914146423,368.59223914146423,368.59223914146423,368.59223914146423,368.59223914146423,369.699346780777,3,1.2559785842895508,None,,,,,,,,,,,,,,,,,,165,1,2025-02-28_14h18.16.257,comp,2024.2.4,60.80534421970681,2025-02-28 14h18.31.055248 -0500,
111,111,0,filler_square,None,None,None,None,None,None,None,None,None,None,2,1.5853867530822754,None,,,,,0,0,0,0,0,111,111,179,369.71568179130554,,,,,,,,,,,,,,,,,,,,,,,,,,,,,,,,,,,,,,,,,,,,,,,,,,,,,,,,,,,,,,,,,,,,,,,,,,,,,,,,,168.89658494898964,168.89658494898964,154.40842853402637,163.92998386986955,69.9860519013546,165.85258676905897,2.2,2.21,-262,-278,0,251,261,257,369.7014248371124,369.7015082836151,369.7046866416931,369.71568179130554,369.8581805229187,369.8581805229187,369.8581805229187,369.8581805229187,369.8581805229187,369.8581805229187,369.8581805229187,371.3210608959198,2,1.5853867530822754,None,,,,,,,,,,,,,,,,,,165,1,2025-02-28_14h18.16.257,comp,2024.2.4,60.80534421970681,2025-02-28 14h18.31.055248 -0500,
112,112,0,critical,whd,35.0,3.0,lower,57.0,133.0,133.0,57.0,70.0,70.0,1,1.6748225688934326,None,,,,,0,0,0,0,0,112,112,86,371.3376455307007,,,,,,,,,,,,,,,,,,,,,,,,,,,,,,,,,,,,,,,,,,,,,,,,,,,,,,,,,,,,,,,,,,,,,,,,,,,,,,,,,57.0,133.0,133.0,57.0,70.0,70.0,3.0,3.2,-191,-251,0,0,160,255,371.32270312309265,371.32283568382263,371.32624864578247,371.3376455307007,371.47820591926575,371.47820591926575,371.47820591926575,371.47820591926575,371.47820591926575,371.47820591926575,371.47820591926575,373.0282428264618,1,1.6748225688934326,None,,,,,,,,,,,,,,,,,,165,1,2025-02-28_14h18.16.257,comp,2024.2.4,60.80534421970681,2025-02-28 14h18.31.055248 -0500,
113,113,0,critical,hdw,35.0,3.0,lower,133.0,57.0,70.0,70.0,57.0,133.0,1,1.6081900596618652,None,,,,,0,0,0,0,0,113,113,110,373.04466223716736,,,,,,,,,,,,,,,,,,,,,,,,,,,,,,,,,,,,,,,,,,,,,,,,,,,,,,,,,,,,,,,,,,,,,,,,,,,,,,,,,133.0,57.0,70.0,70.0,57.0,133.0,3.0,3.1,-160,274,0,5,198,-277,373.0298228263855,373.0299401283264,373.03332233428955,373.04466223716736,373.18917083740234,373.18917083740234,373.18917083740234,373.18917083740234,373.18917083740234,373.18917083740234,373.18917083740234,374.65591382980347,1,1.6081900596618652,None,,,,,,,,,,,,,,,,,,165,1,2025-02-28_14h18.16.257,comp,2024.2.4,60.80534421970681,2025-02-28 14h18.31.055248 -0500,
114,114,0,critical,dhw,20.0,3.0,upper,141.0,141.0,200.0,125.0,125.0,200.0,3,1.772357702255249,None,,,,,0,0,0,0,0,114,114,57,374.67223715782166,,,,,,,,,,,,,,,,,,,,,,,,,,,,,,,,,,,,,,,,,,,,,,,,,,,,,,,,,,,,,,,,,,,,,,,,,,,,,,,,,141.0,141.0,200.0,125.0,125.0,200.0,3.0,3.1,-229,272,0,14,258,-269,374.65750217437744,374.6575810909271,374.6606526374817,374.67223715782166,374.8233177661896,374.8233177661896,374.8233177661896,374.8233177661896,374.8233177661896,374.8233177661896,374.8233177661896,376.45857214927673,3,1.772357702255249,None,,,,,,,,,,,,,,,,,,165,1,2025-02-28_14h18.16.257,comp,2024.2.4,60.80534421970681,2025-02-28 14h18.31.055248 -0500,
115,115,0,filler_square,None,None,None,None,None,None,None,None,None,None,3,1.5149588584899902,None,,,,,0,0,0,0,0,115,115,186,376.47424149513245,,,,,,,,,,,,,,,,,,,,,,,,,,,,,,,,,,,,,,,,,,,,,,,,,,,,,,,,,,,,,,,,,,,,,,,,,,,,,,,,,67.12643322536016,74.55736247611036,57.148560012535334,59.754873963789734,87.94803038894094,87.94803038894094,1.0,1.3,317,-271,480,-288,650,-263,376.46061992645264,376.46073865890503,376.46396374702454,376.47424149513245,376.6238024234772,376.6238024234772,376.6238024234772,376.6238024234772,376.6238024234772,376.6238024234772,376.6238024234772,377.99163460731506,3,1.5149588584899902,None,,,,,,,,,,,,,,,,,,165,1,2025-02-28_14h18.16.257,comp,2024.2.4,60.80534421970681,2025-02-28 14h18.31.055248 -0500,
116,116,0,filler_random,None,None,None,None,None,None,None,None,None,None,3,1.1094801425933838,None,,,,,0,0,0,0,0,116,116,154,378.0078794956207,,,,,,,,,,,,,,,,,,,,,,,,,,,,,,,,,,,,,,,,,,,,,,,,,,,,,,,,,,,,,,,,,,,,,,,,,,,,,,,,,97.03087047637175,87.99531713531233,65.81076040694684,57.866194332499376,148.43579486392676,183.7705393387954,3.0,3.2,-169,-276,0,-4,217,264,377.99339985847473,377.9934823513031,377.99676299095154,378.0078794956207,378.16125750541687,378.16125750541687,378.16125750541687,378.16125750541687,378.16125750541687,378.16125750541687,378.16125750541687,379.1250886917114,3,1.1094801425933838,None,,,,,,,,,,,,,,,,,,165,1,2025-02-28_14h18.16.257,comp,2024.2.4,60.80534421970681,2025-02-28 14h18.31.055248 -0500,
117,117,0,critical,whd,20.0,2.1,upper,125.0,200.0,200.0,125.0,141.0,141.0,1,2.4073355197906494,None,,,,,0,0,0,0,0,117,117,39,379.14105558395386,,,,,,,,,,,,,,,,,,,,,,,,,,,,,,,,,,,,,,,,,,,,,,,,,,,,,,,,,,,,,,,,,,,,,,,,,,,,,,,,,125.0,200.0,200.0,125.0,141.0,141.0,2.1,2.11,-258,270,0,284,229,-269,379.12662172317505,379.1267054080963,379.1302161216736,379.14105558395386,379.2905344963074,379.2905344963074,379.2905344963074,379.2905344963074,379.2905344963074,379.2905344963074,379.2905344963074,381.5597152709961,1,2.4073355197906494,None,,,,,,,,,,,,,,,,,,165,1,2025-02-28_14h18.16.257,comp,2024.2.4,60.80534421970681,2025-02-28 14h18.31.055248 -0500,
118,118,0,critical,whd,35.0,2.1,upper,125.0,200.0,200.0,125.0,127.0,127.0,1,2.0520503520965576,None,,,,,0,0,0,0,0,118,118,13,381.57647371292114,,,,,,,,,,,,,,,,,,,,,,,,,,,,,,,,,,,,,,,,,,,,,,,,,,,,,,,,,,,,,,,,,,,,,,,,,,,,,,,,,125.0,200.0,200.0,125.0,127.0,127.0,2.1,2.11,-258,284,0,269,222,-273,381.56142377853394,381.56150698661804,381.5649633407593,381.57647371292114,381.72321820259094,381.72321820259094,381.72321820259094,381.72321820259094,381.72321820259094,381.72321820259094,381.72321820259094,383.6330318450928,1,2.0520503520965576,None,,,,,,,,,,,,,,,,,,165,1,2025-02-28_14h18.16.257,comp,2024.2.4,60.80534421970681,2025-02-28 14h18.31.055248 -0500,
119,119,0,critical,whd,20.0,2.1,lower,57.0,133.0,133.0,57.0,78.0,78.0,1,2.1605637073516846,None,,,,,0,0,0,0,0,119,119,14,383.6520357131958,,,,,,,,,,,,,,,,,,,,,,,,,,,,,,,,,,,,,,,,,,,,,,,,,,,,,,,,,,,,,,,,,,,,,,,,,,,,,,,,,57.0,133.0,133.0,57.0,78.0,78.0,2.1,2.12,-191,-276,0,-287,164,279,383.6346390247345,383.6347715854645,383.6380455493927,383.6520357131958,383.7937488555908,383.7937488555908,383.7937488555908,383.7937488555908,383.7937488555908,383.7937488555908,383.7937488555908,385.82682704925537,1,2.1605637073516846,None,,,,,,,,,,,,,,,,,,165,1,2025-02-28_14h18.16.257,comp,2024.2.4,60.80534421970681,2025-02-28 14h18.31.055248 -0500,
120,120,0,critical,wdh,20.0,1.0,lower,57.0,133.0,78.0,78.0,133.0,57.0,3,1.5303661823272705,None,,,,,0,0,0,0,0,120,120,78,385.84276056289673,,,,,,,,,,,,,,,,,,,,,,,,,,,,,,,,,,,,,,,,,,,,,,,,,,,,,,,,,,,,,,,,,,,,,,,,,,,,,,,,,57.0,133.0,78.0,78.0,133.0,57.0,1.0,1.1,-682,286,-480,287,-316,257,385.8284547328949,385.82856011390686,385.83215618133545,385.84276056289673,385.9927451610565,385.9927451610565,385.9927451610565,385.9927451610565,385.9927451610565,385.9927451610565,385.9927451610565,387.37652254104614,3,1.5303661823272705,None,,,,,,,,,,,,,,,,,,165,1,2025-02-28_14h18.16.257,comp,2024.2.4,60.80534421970681,2025-02-28 14h18.31.055248 -0500,
121,121,0,critical,hwd,20.0,1.0,lower,133.0,57.0,57.0,133.0,78.0,78.0,2,2.379582166671753,None,,,,,0,0,0,0,0,121,121,102,387.3927729129791,,,,,,,,,,,,,,,,,,,,,,,,,,,,,,,,,,,,,,,,,,,,,,,,,,,,,,,,,,,,,,,,,,,,,,,,,,,,,,,,,133.0,57.0,57.0,133.0,78.0,78.0,1.0,1.3,289,-265,480,-259,682,-287,387.3780424594879,387.37812328338623,387.38117361068726,387.3927729129791,387.5368344783783,387.5368344783783,387.5368344783783,387.5368344783783,387.5368344783783,387.5368344783783,387.5368344783783,389.78442573547363,2,2.379582166671753,None,,,,,,,,,,,,,,,,,,165,1,2025-02-28_14h18.16.257,comp,2024.2.4,60.80534421970681,2025-02-28 14h18.31.055248 -0500,
122,122,0,critical,dhw,20.0,2.1,lower,78.0,78.0,133.0,57.0,57.0,133.0,2,1.4545974731445312,None,,,,,0,0,0,0,0,122,122,26,389.8053648471832,,,,,,,,,,,,,,,,,,,,,,,,,,,,,,,,,,,,,,,,,,,,,,,,,,,,,,,,,,,,,,,,,,,,,,,,,,,,,,,,,78.0,78.0,133.0,57.0,57.0,133.0,2.1,2.11,-164,287,0,266,191,-283,389.7861363887787,389.78622579574585,389.7895407676697,389.8053648471832,389.94461965560913,389.94461965560913,389.94461965560913,389.94461965560913,389.94461965560913,389.94461965560913,389.94461965560913,391.27220940589905,2,1.4545974731445312,None,,,,,,,,,,,,,,,,,,165,1,2025-02-28_14h18.16.257,comp,2024.2.4,60.80534421970681,2025-02-28 14h18.31.055248 -0500,
123,123,0,filler_random,None,None,None,None,None,None,None,None,None,None,3,2.0695314407348633,None,,,,,0,0,0,0,0,123,123,135,391.287220954895,,,,,,,,,,,,,,,,,,,,,,,,,,,,,,,,,,,,,,,,,,,,,,,,,,,,,,,,,,,,,,,,,,,,,,,,,,,,,,,,,171.92382373023042,133.99505591067276,116.96758142933223,67.49445933859144,145.17552357767516,186.7470082159546,2.1,2.11,-197,265,0,285,223,-280,391.2737958431244,391.273868560791,391.27648997306824,391.287220954895,391.428768157959,391.428768157959,391.428768157959,391.428768157959,391.428768157959,391.428768157959,391.428768157959,393.36355996131897,3,2.0695314407348633,None,,,,,,,,,,,,,,,,,,165,1,2025-02-28_14h18.16.257,comp,2024.2.4,60.80534421970681,2025-02-28 14h18.31.055248 -0500,
124,124,0,critical,hwd,20.0,2.1,lower,133.0,57.0,57.0,133.0,78.0,78.0,1,2.9505693912506104,None,,,,,0,0,0,0,0,124,124,18,393.38192486763,,,,,,,,,,,,,,,,,,,,,,,,,,,,,,,,,,,,,,,,,,,,,,,,,,,,,,,,,,,,,,,,,,,,,,,,,,,,,,,,,133.0,57.0,57.0,133.0,78.0,78.0,2.1,2.11,-191,268,0,283,202,-271,393.36517786979675,393.3652832508087,393.3687126636505,393.38192486763,393.52951407432556,393.52951407432556,393.52951407432556,393.52951407432556,393.52951407432556,393.52951407432556,393.52951407432556,396.34706258773804,1,2.9505693912506104,None,,,,,,,,,,,,,,,,,,165,1,2025-02-28_14h18.16.257,comp,2024.2.4,60.80534421970681,2025-02-28 14h18.31.055248 -0500,
125,125,0,filler_random,None,None,None,None,None,None,None,None,None,None,3,1.6500346660614014,None,,,,,0,0,0,0,0,125,125,149,396.36256885528564,,,,,,,,,,,,,,,,,,,,,,,,,,,,,,,,,,,,,,,,,,,,,,,,,,,,,,,,,,,,,,,,,,,,,,,,,,,,,,,,,68.29047334379254,118.2318112530989,166.00735974164093,146.23902178877495,176.26847658715786,159.8014486867699,4.0,4.2,-228,-3,0,-257,249,-19,396.34878301620483,396.3488621711731,396.3522644042969,396.36256885528564,396.51217246055603,396.51217246055603,396.51217246055603,396.51217246055603,396.51217246055603,396.51217246055603,396.51217246055603,398.0337359905243,3,1.6500346660614014,None,,,,,,,,,,,,,,,,,,165,1,2025-02-28_14h18.16.257,comp,2024.2.4,60.80534421970681,2025-02-28 14h18.31.055248 -0500,
126,126,0,critical,wdh,20.0,3.0,lower,57.0,133.0,78.0,78.0,133.0,57.0,3,2.139202356338501,None,,,,,0,0,0,0,0,126,126,80,398.0494215488434,,,,,,,,,,,,,,,,,,,,,,,,,,,,,,,,,,,,,,,,,,,,,,,,,,,,,,,,,,,,,,,,,,,,,,,,,,,,,,,,,57.0,133.0,78.0,78.0,133.0,57.0,3.0,3.2,-202,-254,0,-11,164,284,398.03536581993103,398.0354473590851,398.0386633872986,398.0494215488434,398.1978266239166,398.1978266239166,398.1978266239166,398.1978266239166,398.1978266239166,398.1978266239166,398.1978266239166,400.20304465293884,3,2.139202356338501,None,,,,,,,,,,,,,,,,,,165,1,2025-02-28_14h18.16.257,comp,2024.2.4,60.80534421970681,2025-02-28 14h18.31.055248 -0500,
127,127,0,critical,hdw,35.0,4.0,lower,133.0,57.0,70.0,70.0,57.0,133.0,1,2.026254177093506,None,,,,,0,0,0,0,0,127,127,112,400.2187306880951,,,,,,,,,,,,,,,,,,,,,,,,,,,,,,,,,,,,,,,,,,,,,,,,,,,,,,,,,,,,,,,,,,,,,,,,,,,,,,,,,133.0,57.0,70.0,70.0,57.0,133.0,4.0,4.2,-160,-15,0,-255,198,-13,400.2045841217041,400.20466589927673,400.20756101608276,400.2187306880951,400.36541056632996,400.36541056632996,400.36541056632996,400.36541056632996,400.36541056632996,400.36541056632996,400.36541056632996,402.24775528907776,1,2.026254177093506,None,,,,,,,,,,,,,,,,,,165,1,2025-02-28_14h18.16.257,comp,2024.2.4,60.80534421970681,2025-02-28 14h18.31.055248 -0500,
128,128,0,filler_random,None,None,None,None,None,None,None,None,None,None,2,7.024434566497803,None,,,,,0,0,0,0,0,128,128,151,402.26797461509705,,,,,,,,,,,,,,,,,,,,,,,,,,,,,,,,,,,,,,,,,,,,,,,,,,,,,,,,,,,,,,,,,,,,,,,,,,,,,,,,,174.1381335503675,77.4029088228959,66.38845888216929,190.729264648007,79.1145941573247,93.33095205098095,3.0,3.1,-230,270,0,4,238,-287,402.24952030181885,402.24965596199036,402.25291681289673,402.26797461509705,402.40726804733276,402.40726804733276,402.40726804733276,402.40726804733276,402.40726804733276,402.40726804733276,402.40726804733276,409.3024125099182,2,7.024434566497803,None,,,,,,,,,,,,,,,,,,165,1,2025-02-28_14h18.16.257,comp,2024.2.4,60.80534421970681,2025-02-28 14h18.31.055248 -0500,
129,129,0,filler_random,None,None,None,None,None,None,None,None,None,None,3,2.5097713470458984,None,,,,,0,0,0,0,0,129,129,140,409.3192925453186,,,,,,,,,,,,,,,,,,,,,,,,,,,,,,,,,,,,,,,,,,,,,,,,,,,,,,,,,,,,,,,,,,,,,,,,,,,,,,,,,103.57058578311293,130.81699314011826,158.56442271086615,63.51625537286535,129.32371228014082,130.94575342845877,3.0,3.1,-193,280,0,-15,193,-260,409.3042929172516,409.3044373989105,409.30835032463074,409.3192925453186,409.4693787097931,409.4693787097931,409.4693787097931,409.4693787097931,409.4693787097931,409.4693787097931,409.4693787097931,411.83644914627075,3,2.5097713470458984,None,,,,,,,,,,,,,,,,,,165,1,2025-02-28_14h18.16.257,comp,2024.2.4,60.80534421970681,2025-02-28 14h18.31.055248 -0500,
130,130,0,critical,dhw,35.0,3.0,upper,127.0,127.0,200.0,125.0,125.0,200.0,3,2.864142656326294,None,,,,,0,0,0,0,0,130,130,51,411.85260033607483,,,,,,,,,,,,,,,,,,,,,,,,,,,,,,,,,,,,,,,,,,,,,,,,,,,,,,,,,,,,,,,,,,,,,,,,,,,,,,,,,127.0,127.0,200.0,125.0,125.0,200.0,3.0,3.2,-222,-251,0,-9,258,268,411.838006734848,411.83813881874084,411.8416724205017,411.85260033607483,411.99967646598816,411.99967646598816,411.99967646598816,411.99967646598816,411.99967646598816,411.99967646598816,411.99967646598816,414.73508071899414,3,2.864142656326294,None,,,,,,,,,,,,,,,,,,165,1,2025-02-28_14h18.16.257,comp,2024.2.4,60.80534421970681,2025-02-28 14h18.31.055248 -0500,
131,131,0,critical,hdw,20.0,2.1,upper,200.0,125.0,141.0,141.0,125.0,200.0,3,1.453523874282837,None,,,,,0,0,0,0,0,131,131,47,414.751097202301,,,,,,,,,,,,,,,,,,,,,,,,,,,,,,,,,,,,,,,,,,,,,,,,,,,,,,,,,,,,,,,,,,,,,,,,,,,,,,,,,200.0,125.0,141.0,141.0,125.0,200.0,2.1,2.11,-229,278,0,268,266,-282,414.7366588115692,414.73673725128174,414.7400176525116,414.751097202301,414.90162205696106,414.90162205696106,414.90162205696106,414.90162205696106,414.90162205696106,414.90162205696106,414.90162205696106,416.22467064857483,3,1.453523874282837,None,,,,,,,,,,,,,,,,,,165,1,2025-02-28_14h18.16.257,comp,2024.2.4,60.80534421970681,2025-02-28 14h18.31.055248 -0500,
132,132,0,critical,whd,35.0,1.0,upper,125.0,200.0,200.0,125.0,127.0,127.0,1,1.307013750076294,None,,,,,0,0,0,0,0,132,132,85,416.2420747280121,,,,,,,,,,,,,,,,,,,,,,,,,,,,,,,,,,,,,,,,,,,,,,,,,,,,,,,,,,,,,,,,,,,,,,,,,,,,,,,,,125.0,200.0,200.0,125.0,127.0,127.0,1.0,1.3,222,-270,480,-269,702,-278,416.22634100914,416.2264244556427,416.229327917099,416.2420747280121,416.390517950058,416.390517950058,416.390517950058,416.390517950058,416.390517950058,416.390517950058,416.390517950058,417.5540063381195,1,1.307013750076294,None,,,,,,,,,,,,,,,,,,165,1,2025-02-28_14h18.16.257,comp,2024.2.4,60.80534421970681,2025-02-28 14h18.31.055248 -0500,
133,133,0,critical,dhw,20.0,1.0,upper,141.0,141.0,200.0,125.0,125.0,200.0,3,1.3625833988189697,None,,,,,0,0,0,0,0,133,133,55,417.5704629421234,,,,,,,,,,,,,,,,,,,,,,,,,,,,,,,,,,,,,,,,,,,,,,,,,,,,,,,,,,,,,,,,,,,,,,,,,,,,,,,,,141.0,141.0,200.0,125.0,125.0,200.0,1.0,1.2,-229,16,0,15,258,13,417.55548620224,417.5555691719055,417.55964279174805,417.5704629421234,417.7209243774414,417.7209243774414,417.7209243774414,417.7209243774414,417.7209243774414,417.7209243774414,417.7209243774414,418.93787384033203,3,1.3625833988189697,None,,,,,,,,,,,,,,,,,,165,1,2025-02-28_14h18.16.257,comp,2024.2.4,60.80534421970681,2025-02-28 14h18.31.055248 -0500,
134,134,0,filler_random,None,None,None,None,None,None,None,None,None,None,1,1.3220679759979248,None,,,,,0,0,0,0,0,134,134,159,418.9546744823456,,,,,,,,,,,,,,,,,,,,,,,,,,,,,,,,,,,,,,,,,,,,,,,,,,,,,,,,,,,,,,,,,,,,,,,,,,,,,,,,,128.90241438854898,199.97809109620218,107.7871015809612,161.24624373704495,124.10545938689788,136.61585131361818,2.1,2.12,-277,-281,0,-275,245,279,418.9395854473114,418.93966722488403,418.9437825679779,418.9546744823456,419.1028106212616,419.1028106212616,419.1028106212616,419.1028106212616,419.1028106212616,419.1028106212616,419.1028106212616,420.2815568447113,1,1.3220679759979248,None,,,,,,,,,,,,,,,,,,165,1,2025-02-28_14h18.16.257,comp,2024.2.4,60.80534421970681,2025-02-28 14h18.31.055248 -0500,
135,135,0,critical,hwd,20.0,2.1,lower,133.0,57.0,57.0,133.0,78.0,78.0,2,1.945467233657837,None,,,,,0,0,0,0,0,135,135,42,420.2989649772644,,,,,,,,,,,,,,,,,,,,,,,,,,,,,,,,,,,,,,,,,,,,,,,,,,,,,,,,,,,,,,,,,,,,,,,,,,,,,,,,,133.0,57.0,57.0,133.0,78.0,78.0,2.1,2.12,-191,-252,0,-288,202,252,420.28311252593994,420.28319358825684,420.28611636161804,420.2989649772644,420.4387354850769,420.4387354850769,420.4387354850769,420.4387354850769,420.4387354850769,420.4387354850769,420.4387354850769,422.2549521923065,2,1.945467233657837,None,,,,,,,,,,,,,,,,,,165,1,2025-02-28_14h18.16.257,comp,2024.2.4,60.80534421970681,2025-02-28 14h18.31.055248 -0500,
136,136,0,catch,None,None,None,None,None,None,None,None,None,None,2,1.6065411567687988,None,,,,,0,0,0,0,0,136,136,125,422.26992988586426,,,,,,,,,,,,,,,,,,,,,,,,,,,,,,,,,,,,,,,,,,,,,,,,,,,,,,,,,,,,,,,,,,,,,,,,,,,,,,,,,75,115,188,137,131,59,4.0,4.1,-222,-274,0,3,194,-275,422.2570481300354,422.2571337223053,422.2603316307068,422.26992988586426,422.41097044944763,422.41097044944763,422.41097044944763,422.41097044944763,422.41097044944763,422.41097044944763,422.41097044944763,423.88834857940674,2,1.6065411567687988,None,,,,,,,,,,,,,,,,,,165,1,2025-02-28_14h18.16.257,comp,2024.2.4,60.80534421970681,2025-02-28 14h18.31.055248 -0500,
137,137,0,critical,wdh,20.0,3.0,upper,125.0,200.0,141.0,141.0,200.0,125.0,1,3.404528856277466,None,,,,,0,0,0,0,0,137,137,81,423.9049243927002,,,,,,,,,,,,,,,,,,,,,,,,,,,,,,,,,,,,,,,,,,,,,,,,,,,,,,,,,,,,,,,,,,,,,,,,,,,,,,,,,125.0,200.0,141.0,141.0,200.0,125.0,3.0,3.1,-266,276,0,9,229,-277,423.889931678772,423.89004039764404,423.8933906555176,423.9049243927002,424.06052231788635,424.06052231788635,424.06052231788635,424.06052231788635,424.06052231788635,424.06052231788635,424.06052231788635,427.31584763526917,1,3.404528856277466,None,,,,,,,,,,,,,,,,,,165,1,2025-02-28_14h18.16.257,comp,2024.2.4,60.80534421970681,2025-02-28 14h18.31.055248 -0500,
138,138,0,filler_square,None,None,None,None,None,None,None,None,None,None,2,2.1529722213745117,None,,,,,0,0,0,0,0,138,138,193,427.33242869377136,,,,,,,,,,,,,,,,,,,,,,,,,,,,,,,,,,,,,,,,,,,,,,,,,,,,,,,,,,,,,,,,,,,,,,,,,,,,,,,,,57.1436639555576,61.463344329519444,63.91287744905331,63.91287744905331,59.998351249390765,57.4998247781294,3.0,3.2,-159,-265,0,14,157,260,427.31787729263306,427.3179590702057,427.32129883766174,427.33242869377136,427.47573256492615,427.47573256492615,427.47573256492615,427.47573256492615,427.47573256492615,427.47573256492615,427.47573256492615,429.49129843711853,2,2.1529722213745117,None,,,,,,,,,,,,,,,,,,165,1,2025-02-28_14h18.16.257,comp,2024.2.4,60.80534421970681,2025-02-28 14h18.31.055248 -0500,
139,139,0,filler_square,None,None,None,None,None,None,None,None,None,None,3,1.1526410579681396,None,,,,,0,0,0,0,0,139,139,197,429.5081307888031,,,,,,,,,,,,,,,,,,,,,,,,,,,,,,,,,,,,,,,,,,,,,,,,,,,,,,,,,,,,,,,,,,,,,,,,,,,,,,,,,59.105471856424806,69.08959023594777,78.58461915675446,64.70022025236868,113.70664527303168,113.70664527303168,2.1,2.12,-163,-283,0,-256,185,273,429.49321579933167,429.49329900741577,429.4973421096802,429.5081307888031,429.66181445121765,429.66181445121765,429.66181445121765,429.66181445121765,429.66181445121765,429.66181445121765,429.66181445121765,430.67589235305786,3,1.1526410579681396,None,,,,,,,,,,,,,,,,,,165,1,2025-02-28_14h18.16.257,comp,2024.2.4,60.80534421970681,2025-02-28 14h18.31.055248 -0500,
140,140,0,critical,dhw,20.0,4.0,upper,141.0,141.0,200.0,125.0,125.0,200.0,3,2.2567977905273438,None,,,,,0,0,0,0,0,140,140,59,430.692019701004,,,,,,,,,,,,,,,,,,,,,,,,,,,,,,,,,,,,,,,,,,,,,,,,,,,,,,,,,,,,,,,,,,,,,,,,,,,,,,,,,141.0,141.0,200.0,125.0,125.0,200.0,4.0,4.2,-229,11,0,-267,258,16,430.67755579948425,430.67768478393555,430.6816725730896,430.692019701004,430.8415038585663,430.8415038585663,430.8415038585663,430.8415038585663,430.8415038585663,430.8415038585663,430.8415038585663,432.9549105167389,3,2.2567977905273438,None,,,,,,,,,,,,,,,,,,165,1,2025-02-28_14h18.16.257,comp,2024.2.4,60.80534421970681,2025-02-28 14h18.31.055248 -0500,
