thisN,thisTrialN,thisRepN,effect,order,distance,config,diag,h_1,w_1,h_2,w_2,h_3,w_3,rect_choice.keys,rect_choice.rt,rect_choice.duration,instructions_loop.thisRepN,instructions_loop.thisTrialN,instructions_loop.thisN,instructions_loop.thisIndex,blocks.thisRepN,blocks.thisTrialN,blocks.thisN,blocks.thisIndex,trials.thisRepN,trials.thisTrialN,trials.thisN,trials.thisIndex,thisRow.t,notes,consent.started,agree_button.started,decline_button.started,consent_img.started,mouse.started,consent.stopped,agree_button.numClicks,agree_button.timesOn,agree_button.timesOff,decline_button.numClicks,decline_button.timesOn,decline_button.timesOff,mouse.x,mouse.y,mouse.leftButton,mouse.midButton,mouse.rightButton,mouse.time,mouse.clicked_name,exp_params.started,exp_params.stopped,welcome.started,welcome_text.started,welcome.stopped,instructions_1.started,instructions_1_text_1.started,instructions_1_text_2.started,key_resp.started,instructions_1.stopped,instructions_loop.key_resp.keys,instructions_loop.key_resp.rt,instructions_loop.key_resp.duration,instructions_2.started,instructions_2_text_1.started,instructions_2_text_2.started,key_resp_2.started,instructions_2.stopped,instructions_loop.key_resp_2.keys,instructions_loop.key_resp_2.rt,instructions_loop.key_resp_2.duration,instructions_3.started,instructions_3_text_1.started,r1_instr3.started,r2_instr3.started,r3_instr3.started,r1_instr3_label.started,r2_instr3_label.started,r3_instr3_label.started,instructions_3_text_3.started,instructions_3_text_4.started,key_resp_3.started,instructions_3.stopped,instructions_loop.key_resp_3.keys,instructions_loop.key_resp_3.rt,instructions_loop.key_resp_3.duration,instructions_4.started,instructions_4_text_1.started,instructions_4_text_3.started,instructions_4_text_2.started,key_resp_4.started,instructions_4.stopped,instructions_loop.key_resp_4.keys,instructions_loop.key_resp_4.rt,instructions_loop.key_resp_4.duration,instructions_5.started,instructions_5_text_1.started,instructions_5_text_2.started,key_resp_5.started,instructions_5.stopped,instructions_loop.key_resp_5.keys,instructions_loop.key_resp_5.rt,instructions_loop.key_resp_5.duration,start_exp.started,start_exp_text.started,key_resp_6.started,start_exp.stopped,key_resp_6.keys,key_resp_6.rt,key_resp_6.duration,h_1_tmp,w_1_tmp,h_2_tmp,w_2_tmp,h_3_tmp,w_3_tmp,config_tmp,config_tmp_1,r_1_x,r_1_y,r_2_x,r_2_y,r_3_x,r_3_y,pre_trial.started,pre_trial.stopped,choice_trial.started,rect_choice.started,r_1.started,r_2.started,r_3.started,r_1_label.started,r_2_label.started,r_3_label.started,prompt.started,choice_trial.stopped,trials.rect_choice.keys,trials.rect_choice.rt,trials.rect_choice.duration,end_block.started,end_block_text.started,end_block.stopped,end.started,end_text.started,key_resp_7.started,end.stopped,key_resp_7.keys,key_resp_7.rt,key_resp_7.duration,debriefing.started,debrief_form.started,end_debrief.started,debriefing.stopped,end_debrief.keys,end_debrief.rt,end_debrief.duration,participant,computer,date,expName,psychopyVersion,frameRate,expStart,
,,,,,,,,,,,,,,,,,,,,,,,,,,,,,,,0.014904975891113281,0.03133082389831543,0.03133082389831543,0.03133082389831543,0.014694929122924805,121.26109027862549,1,[121.22744703292847],[121.22746920585632],0,,,[-63.0],[-488.0],[1],[0],[0],[121.24572134017944],['agree_button'],,,,,,,,,,,,,,,,,,,,,,,,,,,,,,,,,,,,,,,,,,,,,,,,,,,,,,,,,,,,,,,,,,,,,,,,,,,,,,,,,,,,,,,,,,,,,,,,,,,,,,,,,,,166,2,2025-02-28_14h18.28.277,comp,2024.2.4,None,2025-02-28 14h18.44.509451 -0500,
,,,,,,,,,,,,,,,,,,,,,,,,,,,,,,,,,,,,,,,,,,,,,,,,,,121.2616057395935,121.26167726516724,,,,,,,,,,,,,,,,,,,,,,,,,,,,,,,,,,,,,,,,,,,,,,,,,,,,,,,,,,,,,,,,,,,,,,,,,,,,,,,,,,,,,,,,,,,,,,,,,,,,,,,,,166,2,2025-02-28_14h18.28.277,comp,2024.2.4,None,2025-02-28 14h18.44.509451 -0500,
,,,,,,,,,,,,,,,,,,,,,,,,,,,,,,,,,,,,,,,,,,,,,,,,,,,,121.26172375679016,121.27788853645325,123.2668046951294,,,,,,,,,,,,,,,,,,,,,,,,,,,,,,,,,,,,,,,,,,,,,,,,,,,,,,,,,,,,,,,,,,,,,,,,,,,,,,,,,,,,,,,,,,,,,,,,,,,,,,166,2,2025-02-28_14h18.28.277,comp,2024.2.4,None,2025-02-28 14h18.44.509451 -0500,
0,0,0,,,,,,,,,,,,,,,0,0,0,0,,,,,,,,,123.2829258441925,,,,,,,,,,,,,,,,,,,,,,,,,,123.26776576042175,123.2829258441925,123.2829258441925,124.7692666053772,129.70293855667114,space,4.914507150650024,None,129.70311856269836,129.71868228912354,129.71868228912354,131.20309233665466,138.0578978061676,space,6.848963499069214,None,138.058091878891,138.09159135818481,138.09159135818481,138.09159135818481,138.09159135818481,138.09159135818481,138.09159135818481,138.09159135818481,138.09159135818481,138.09159135818481,139.56062364578247,148.15492248535156,space,8.58745288848877,None,148.1551215648651,148.17413687705994,148.17413687705994,148.17413687705994,149.65468883514404,156.0140736103058,space,6.357422113418579,None,156.0142331123352,156.03297591209412,156.03297591209412,157.5273802280426,158.34649777412415,space,0.8128013610839844,None,158.34669518470764,158.36060428619385,158.36060428619385,159.5122561454773,space,1.147399663925171,None,,,,,,,,,,,,,,,,,,,,,,,,,,,,,,,,,,,,,,,,,,,,,,,166,2,2025-02-28_14h18.28.277,comp,2024.2.4,None,2025-02-28 14h18.44.509451 -0500,
0,0,0,critical,whd,35.0,4.0,upper,125.0,200.0,200.0,125.0,127.0,127.0,1,5.0326502323150635,None,,,,,0,0,0,0,0,0,0,89,159.58975958824158,,,,,,,,,,,,,,,,,,,,,,,,,,,,,,,,,,,,,,,,,,,,,,,,,,,,,,,,,,,,,,,,,,,,,,,,,,,,,,,,,125.0,200.0,200.0,125.0,127.0,127.0,4.0,4.2,-258,16,0,-257,222,-7,159.57298636436462,159.57303547859192,159.57425212860107,159.58975958824158,159.74042749404907,159.74042749404907,159.74042749404907,159.74042749404907,159.74042749404907,159.74042749404907,159.74042749404907,164.62790894508362,1,5.0326502323150635,None,,,,,,,,,,,,,,,,,,166,2,2025-02-28_14h18.28.277,comp,2024.2.4,None,2025-02-28 14h18.44.509451 -0500,
1,1,0,filler_square,None,None,None,None,None,None,None,None,None,None,3,4.454332113265991,None,,,,,0,0,0,0,0,1,1,189,164.6455113887787,,,,,,,,,,,,,,,,,,,,,,,,,,,,,,,,,,,,,,,,,,,,,,,,,,,,,,,,,,,,,,,,,,,,,,,,,,,,,,,,,57.34553149491097,150.621036851742,123.05965842244107,60.51757158904475,155.3348443204573,155.3348443204573,3.0,3.1,-202,280,0,19,204,-277,164.62955355644226,164.62963390350342,164.63273096084595,164.6455113887787,164.79784750938416,164.79784750938416,164.79784750938416,164.79784750938416,164.79784750938416,164.79784750938416,164.79784750938416,169.11537909507751,3,4.454332113265991,None,,,,,,,,,,,,,,,,,,166,2,2025-02-28_14h18.28.277,comp,2024.2.4,None,2025-02-28 14h18.44.509451 -0500,
2,2,0,filler_random,None,None,None,None,None,None,None,None,None,None,3,3.2726504802703857,None,,,,,0,0,0,0,0,2,2,169,169.13122248649597,,,,,,,,,,,,,,,,,,,,,,,,,,,,,,,,,,,,,,,,,,,,,,,,,,,,,,,,,,,,,,,,,,,,,,,,,,,,,,,,,88.39338715387832,165.51282944375953,84.39527399864872,130.11399153004464,149.52182696992466,192.47304849340446,3.0,3.2,-244,-252,0,-5,257,255,169.11718320846558,169.11732244491577,169.12076830863953,169.13122248649597,169.28464078903198,169.28464078903198,169.28464078903198,169.28464078903198,169.28464078903198,169.28464078903198,169.28464078903198,172.41972875595093,3,3.2726504802703857,None,,,,,,,,,,,,,,,,,,166,2,2025-02-28_14h18.28.277,comp,2024.2.4,None,2025-02-28 14h18.44.509451 -0500,
3,3,0,catch,None,None,None,None,None,None,None,None,None,None,1,4.350099086761475,None,,,,,0,0,0,0,0,3,3,129,172.437805891037,,,,,,,,,,,,,,,,,,,,,,,,,,,,,,,,,,,,,,,,,,,,,,,,,,,,,,,,,,,,,,,,,,,,,,,,,,,,,,,,,187,138,127,63,118,72,1.0,1.3,284,-287,480,-284,644,-271,172.42226219177246,172.42234921455383,172.425297498703,172.437805891037,172.58376502990723,172.58376502990723,172.58376502990723,172.58376502990723,172.58376502990723,172.58376502990723,172.58376502990723,176.8038136959076,1,4.350099086761475,None,,,,,,,,,,,,,,,,,,166,2,2025-02-28_14h18.28.277,comp,2024.2.4,None,2025-02-28 14h18.44.509451 -0500,
4,4,0,filler_random,None,None,None,None,None,None,None,None,None,None,3,3.032874345779419,None,,,,,0,0,0,0,0,4,4,161,176.81952595710754,,,,,,,,,,,,,,,,,,,,,,,,,,,,,,,,,,,,,,,,,,,,,,,,,,,,,,,,,,,,,,,,,,,,,,,,,,,,,,,,,79.91899620591511,118.61615735115181,66.91096763169135,92.0986586300052,157.08062357824298,199.78224723846765,2.1,2.11,-201,283,0,275,242,-287,176.80564045906067,176.8057644367218,176.80914616584778,176.81952595710754,176.96855425834656,176.96855425834656,176.96855425834656,176.96855425834656,176.96855425834656,176.96855425834656,176.96855425834656,179.85451579093933,3,3.032874345779419,None,,,,,,,,,,,,,,,,,,166,2,2025-02-28_14h18.28.277,comp,2024.2.4,None,2025-02-28 14h18.44.509451 -0500,
5,5,0,critical,whd,35.0,2.1,upper,125.0,200.0,200.0,125.0,127.0,127.0,1,5.6039063930511475,None,,,,,0,0,0,0,0,5,5,37,179.87196588516235,,,,,,,,,,,,,,,,,,,,,,,,,,,,,,,,,,,,,,,,,,,,,,,,,,,,,,,,,,,,,,,,,,,,,,,,,,,,,,,,,125.0,200.0,200.0,125.0,127.0,127.0,2.1,2.12,-258,-259,0,-254,222,261,179.85636520385742,179.85648345947266,179.86037421226501,179.87196588516235,180.01945781707764,180.01945781707764,180.01945781707764,180.01945781707764,180.01945781707764,180.01945781707764,180.01945781707764,185.4912393093109,1,5.6039063930511475,None,,,,,,,,,,,,,,,,,,166,2,2025-02-28_14h18.28.277,comp,2024.2.4,None,2025-02-28 14h18.44.509451 -0500,
6,6,0,critical,dhw,20.0,3.0,upper,141.0,141.0,200.0,125.0,125.0,200.0,3,5.865671157836914,None,,,,,0,0,0,0,0,6,6,57,185.50696539878845,,,,,,,,,,,,,,,,,,,,,,,,,,,,,,,,,,,,,,,,,,,,,,,,,,,,,,,,,,,,,,,,,,,,,,,,,,,,,,,,,141.0,141.0,200.0,125.0,125.0,200.0,3.0,3.1,-229,289,0,9,258,-265,185.49271178245544,185.49279117584229,185.49667620658875,185.50696539878845,185.6537082195282,185.6537082195282,185.6537082195282,185.6537082195282,185.6537082195282,185.6537082195282,185.6537082195282,191.38068389892578,3,5.865671157836914,None,,,,,,,,,,,,,,,,,,166,2,2025-02-28_14h18.28.277,comp,2024.2.4,None,2025-02-28 14h18.44.509451 -0500,
7,7,0,critical,hwd,35.0,2.1,upper,200.0,125.0,125.0,200.0,127.0,127.0,2,8.210587739944458,None,,,,,0,0,0,0,0,7,7,17,191.40151357650757,,,,,,,,,,,,,,,,,,,,,,,,,,,,,,,,,,,,,,,,,,,,,,,,,,,,,,,,,,,,,,,,,,,,,,,,,,,,,,,,,200.0,125.0,125.0,200.0,127.0,127.0,2.1,2.12,-258,-277,0,-289,260,274,191.38238501548767,191.38246941566467,191.38577675819397,191.40151357650757,191.54054832458496,191.54054832458496,191.54054832458496,191.54054832458496,191.54054832458496,191.54054832458496,191.54054832458496,199.62651658058167,2,8.210587739944458,None,,,,,,,,,,,,,,,,,,166,2,2025-02-28_14h18.28.277,comp,2024.2.4,None,2025-02-28 14h18.44.509451 -0500,
8,8,0,catch,None,None,None,None,None,None,None,None,None,None,1,2.0490729808807373,None,,,,,0,0,0,0,0,8,8,120,199.64309358596802,,,,,,,,,,,,,,,,,,,,,,,,,,,,,,,,,,,,,,,,,,,,,,,,,,,,,,,,,,,,,,,,,,,,,,,,,,,,,,,,,146,179,100,90,130,60,1.0,1.3,250,-266,480,-279,651,-261,199.62869930267334,199.6287853717804,199.6326768398285,199.64309358596802,199.78116035461426,199.78116035461426,199.78116035461426,199.78116035461426,199.78116035461426,199.78116035461426,199.78116035461426,201.6943051815033,1,2.0490729808807373,None,,,,,,,,,,,,,,,,,,166,2,2025-02-28_14h18.28.277,comp,2024.2.4,None,2025-02-28 14h18.44.509451 -0500,
9,9,0,critical,whd,35.0,3.0,upper,125.0,200.0,200.0,125.0,127.0,127.0,1,3.5890047550201416,None,,,,,0,0,0,0,0,9,9,87,201.71172404289246,,,,,,,,,,,,,,,,,,,,,,,,,,,,,,,,,,,,,,,,,,,,,,,,,,,,,,,,,,,,,,,,,,,,,,,,,,,,,,,,,125.0,200.0,200.0,125.0,127.0,127.0,3.0,3.1,-258,253,0,16,222,-265,201.696044921875,201.69618558883667,201.70011353492737,201.71172404289246,201.85934591293335,201.85934591293335,201.85934591293335,201.85934591293335,201.85934591293335,201.85934591293335,201.85934591293335,205.31057286262512,1,3.5890047550201416,None,,,,,,,,,,,,,,,,,,166,2,2025-02-28_14h18.28.277,comp,2024.2.4,None,2025-02-28 14h18.44.509451 -0500,
10,10,0,filler_square,None,None,None,None,None,None,None,None,None,None,3,7.90146541595459,None,,,,,0,0,0,0,0,10,10,194,205.3265562057495,,,,,,,,,,,,,,,,,,,,,,,,,,,,,,,,,,,,,,,,,,,,,,,,,,,,,,,,,,,,,,,,,,,,,,,,,,,,,,,,,122.28580527460447,122.28580527460447,79.92980542489235,58.62616640162179,121.79992920063827,103.02409332692889,2.2,2.22,-186,258,0,-263,177,-271,205.31232166290283,205.31240248680115,205.31579184532166,205.3265562057495,205.47520112991333,205.47520112991333,205.47520112991333,205.47520112991333,205.47520112991333,205.47520112991333,205.47520112991333,213.23000240325928,3,7.90146541595459,None,,,,,,,,,,,,,,,,,,166,2,2025-02-28_14h18.28.277,comp,2024.2.4,None,2025-02-28 14h18.44.509451 -0500,
11,11,0,filler_square,None,None,None,None,None,None,None,None,None,None,1,2.1336662769317627,None,,,,,0,0,0,0,0,11,11,185,213.24640798568726,,,,,,,,,,,,,,,,,,,,,,,,,,,,,,,,,,,,,,,,,,,,,,,,,,,,,,,,,,,,,,,,,,,,,,,,,,,,,,,,,129.88012121104913,129.88012121104913,124.75816824605113,62.868832824431166,99.0715848836175,66.67789846174419,2.1,2.11,-192,273,0,269,161,-280,213.231791973114,213.23187160491943,213.23513531684875,213.24640798568726,213.39390230178833,213.39390230178833,213.39390230178833,213.39390230178833,213.39390230178833,213.39390230178833,213.39390230178833,215.3966579437256,1,2.1336662769317627,None,,,,,,,,,,,,,,,,,,166,2,2025-02-28_14h18.28.277,comp,2024.2.4,None,2025-02-28 14h18.44.509451 -0500,
12,12,0,critical,whd,35.0,2.1,lower,57.0,133.0,133.0,57.0,70.0,70.0,2,4.6873767375946045,None,,,,,0,0,0,0,0,12,12,36,215.412659406662,,,,,,,,,,,,,,,,,,,,,,,,,,,,,,,,,,,,,,,,,,,,,,,,,,,,,,,,,,,,,,,,,,,,,,,,,,,,,,,,,57.0,133.0,133.0,57.0,70.0,70.0,2.1,2.11,-191,278,0,277,160,-258,215.39818382263184,215.39826226234436,215.40130400657654,215.412659406662,215.56444096565247,215.56444096565247,215.56444096565247,215.56444096565247,215.56444096565247,215.56444096565247,215.56444096565247,220.11836981773376,2,4.6873767375946045,None,,,,,,,,,,,,,,,,,,166,2,2025-02-28_14h18.28.277,comp,2024.2.4,None,2025-02-28 14h18.44.509451 -0500,
13,13,0,critical,whd,20.0,2.1,lower,57.0,133.0,133.0,57.0,78.0,78.0,1,2.834127902984619,None,,,,,0,0,0,0,0,13,13,14,220.13896083831787,,,,,,,,,,,,,,,,,,,,,,,,,,,,,,,,,,,,,,,,,,,,,,,,,,,,,,,,,,,,,,,,,,,,,,,,,,,,,,,,,57.0,133.0,133.0,57.0,78.0,78.0,2.1,2.11,-191,260,0,289,164,-283,220.11992621421814,220.12008142471313,220.12371277809143,220.13896083831787,220.2817084789276,220.2817084789276,220.2817084789276,220.2817084789276,220.2817084789276,220.2817084789276,220.2817084789276,222.98464012145996,1,2.834127902984619,None,,,,,,,,,,,,,,,,,,166,2,2025-02-28_14h18.28.277,comp,2024.2.4,None,2025-02-28 14h18.44.509451 -0500,
14,14,0,critical,wdh,35.0,3.0,lower,57.0,133.0,70.0,70.0,133.0,57.0,3,6.538870573043823,None,,,,,0,0,0,0,0,14,14,74,223.00116753578186,,,,,,,,,,,,,,,,,,,,,,,,,,,,,,,,,,,,,,,,,,,,,,,,,,,,,,,,,,,,,,,,,,,,,,,,,,,,,,,,,57.0,133.0,70.0,70.0,133.0,57.0,3.0,3.2,-198,-260,0,15,160,258,222.98625349998474,222.98633909225464,222.98970866203308,223.00116753578186,223.15484642982483,223.15484642982483,223.15484642982483,223.15484642982483,223.15484642982483,223.15484642982483,223.15484642982483,229.54998064041138,3,6.538870573043823,None,,,,,,,,,,,,,,,,,,166,2,2025-02-28_14h18.28.277,comp,2024.2.4,None,2025-02-28 14h18.44.509451 -0500,
15,15,0,filler_square,None,None,None,None,None,None,None,None,None,None,2,4.5330564975738525,None,,,,,0,0,0,0,0,15,15,196,229.56696343421936,,,,,,,,,,,,,,,,,,,,,,,,,,,,,,,,,,,,,,,,,,,,,,,,,,,,,,,,,,,,,,,,,,,,,,,,,,,,,,,,,74.49358809019036,77.29433761172054,86.95458262884254,86.95458262884254,66.58095346484183,66.30011008174536,2.1,2.11,-178,265,0,257,173,-267,229.55187129974365,229.55195569992065,229.55518245697021,229.56696343421936,229.7505395412445,229.7505395412445,229.7505395412445,229.7505395412445,229.7505395412445,229.7505395412445,229.7505395412445,234.10364198684692,2,4.5330564975738525,None,,,,,,,,,,,,,,,,,,166,2,2025-02-28_14h18.28.277,comp,2024.2.4,None,2025-02-28 14h18.44.509451 -0500,
16,16,0,critical,wdh,20.0,3.0,lower,57.0,133.0,78.0,78.0,133.0,57.0,1,8.863027811050415,None,,,,,0,0,0,0,0,16,16,80,234.11912322044373,,,,,,,,,,,,,,,,,,,,,,,,,,,,,,,,,,,,,,,,,,,,,,,,,,,,,,,,,,,,,,,,,,,,,,,,,,,,,,,,,57.0,133.0,78.0,78.0,133.0,57.0,3.0,3.1,-202,271,0,19,164,-273,234.10517287254333,234.10527801513672,234.1083927154541,234.11912322044373,234.2605185508728,234.2605185508728,234.2605185508728,234.2605185508728,234.2605185508728,234.2605185508728,234.2605185508728,242.98796248435974,1,8.863027811050415,None,,,,,,,,,,,,,,,,,,166,2,2025-02-28_14h18.28.277,comp,2024.2.4,None,2025-02-28 14h18.44.509451 -0500,
17,17,0,filler_square,None,None,None,None,None,None,None,None,None,None,3,4.247063636779785,None,,,,,0,0,0,0,0,17,17,199,243.0058126449585,,,,,,,,,,,,,,,,,,,,,,,,,,,,,,,,,,,,,,,,,,,,,,,,,,,,,,,,,,,,,,,,,,,,,,,,,,,,,,,,,72.88391632197374,100.09690283349964,93.0646579500976,91.27601931466813,122.90319067347228,122.90319067347228,1.0,1.3,288,-271,480,-254,683,-263,242.98968744277954,242.98976874351501,242.9929096698761,243.0058126449585,243.15708875656128,243.15708875656128,243.15708875656128,243.15708875656128,243.15708875656128,243.15708875656128,243.15708875656128,247.2581536769867,3,4.247063636779785,None,,,,,,,,,,,,,,,,,,166,2,2025-02-28_14h18.28.277,comp,2024.2.4,None,2025-02-28 14h18.44.509451 -0500,
18,18,0,critical,wdh,20.0,4.0,upper,125.0,200.0,141.0,141.0,200.0,125.0,1,3.1697299480438232,None,,,,,0,0,0,0,0,18,18,83,247.27440524101257,,,,,,,,,,,,,,,,,,,,,,,,,,,,,,,,,,,,,,,,,,,,,,,,,,,,,,,,,,,,,,,,,,,,,,,,,,,,,,,,,125.0,200.0,141.0,141.0,200.0,125.0,4.0,4.2,-266,12,0,-258,229,5,247.25980496406555,247.25991106033325,247.26347589492798,247.27440524101257,247.42274451255798,247.42274451255798,247.42274451255798,247.42274451255798,247.42274451255798,247.42274451255798,247.42274451255798,250.45950317382812,1,3.1697299480438232,None,,,,,,,,,,,,,,,,,,166,2,2025-02-28_14h18.28.277,comp,2024.2.4,None,2025-02-28 14h18.44.509451 -0500,
19,19,0,critical,whd,20.0,2.1,upper,125.0,200.0,200.0,125.0,141.0,141.0,1,2.4104175567626953,None,,,,,0,0,0,0,0,19,19,39,250.47511076927185,,,,,,,,,,,,,,,,,,,,,,,,,,,,,,,,,,,,,,,,,,,,,,,,,,,,,,,,,,,,,,,,,,,,,,,,,,,,,,,,,125.0,200.0,200.0,125.0,141.0,141.0,2.1,2.12,-258,-287,0,-254,229,287,250.46111583709717,250.46124458312988,250.464537858963,250.47511076927185,250.62414479255676,250.62414479255676,250.62414479255676,250.62414479255676,250.62414479255676,250.62414479255676,250.62414479255676,252.8902623653412,1,2.4104175567626953,None,,,,,,,,,,,,,,,,,,166,2,2025-02-28_14h18.28.277,comp,2024.2.4,None,2025-02-28 14h18.44.509451 -0500,
20,20,0,critical,hwd,35.0,1.0,lower,133.0,57.0,57.0,133.0,70.0,70.0,2,5.242138862609863,None,,,,,0,0,0,0,0,20,20,96,252.906085729599,,,,,,,,,,,,,,,,,,,,,,,,,,,,,,,,,,,,,,,,,,,,,,,,,,,,,,,,,,,,,,,,,,,,,,,,,,,,,,,,,133.0,57.0,57.0,133.0,70.0,70.0,1.0,1.1,-671,258,-480,258,-282,251,252.89177107810974,252.8918526172638,252.89473915100098,252.906085729599,253.05919432640076,253.05919432640076,253.05919432640076,253.05919432640076,253.05919432640076,253.05919432640076,253.05919432640076,258.1613492965698,2,5.242138862609863,None,,,,,,,,,,,,,,,,,,166,2,2025-02-28_14h18.28.277,comp,2024.2.4,None,2025-02-28 14h18.44.509451 -0500,
21,21,0,filler_random,None,None,None,None,None,None,None,None,None,None,3,5.027635097503662,None,,,,,0,0,0,0,0,21,21,160,258.17715072631836,,,,,,,,,,,,,,,,,,,,,,,,,,,,,,,,,,,,,,,,,,,,,,,,,,,,,,,,,,,,,,,,,,,,,,,,,,,,,,,,,178.3195320680744,111.71067718842598,124.84438078922729,77.09133920533947,187.96049618741472,113.47411396295506,4.0,4.1,-190,-277,0,13,191,-279,258.16313648223877,258.1632490158081,258.16670966148376,258.17715072631836,258.33492159843445,258.33492159843445,258.33492159843445,258.33492159843445,258.33492159843445,258.33492159843445,258.33492159843445,263.2103657722473,3,5.027635097503662,None,,,,,,,,,,,,,,,,,,166,2,2025-02-28_14h18.28.277,comp,2024.2.4,None,2025-02-28 14h18.44.509451 -0500,
22,22,0,filler_random,None,None,None,None,None,None,None,None,None,None,2,1.7972614765167236,None,,,,,0,0,0,0,0,22,22,156,263.2311499118805,,,,,,,,,,,,,,,,,,,,,,,,,,,,,,,,,,,,,,,,,,,,,,,,,,,,,,,,,,,,,,,,,,,,,,,,,,,,,,,,,114.84069332851088,112.04177737079092,164.05654479816434,151.17244723428104,81.29544169169813,132.0087828750568,3.0,3.2,-228,-274,0,20,238,271,263.21209192276,263.21218729019165,263.21543192863464,263.2311499118805,263.3809742927551,263.3809742927551,263.3809742927551,263.3809742927551,263.3809742927551,263.3809742927551,263.3809742927551,265.0304160118103,2,1.7972614765167236,None,,,,,,,,,,,,,,,,,,166,2,2025-02-28_14h18.28.277,comp,2024.2.4,None,2025-02-28 14h18.44.509451 -0500,
23,23,0,filler_square,None,None,None,None,None,None,None,None,None,None,2,2.651916742324829,None,,,,,0,0,0,0,0,23,23,200,265.0479369163513,,,,,,,,,,,,,,,,,,,,,,,,,,,,,,,,,,,,,,,,,,,,,,,,,,,,,,,,,,,,,,,,,,,,,,,,,,,,,,,,,87.48740666968054,62.11331228081028,102.90701442680594,102.90701442680594,90.86402043990475,96.03850849461041,3.0,3.1,-179,261,0,-7,195,-253,265.0325610637665,265.0326895713806,265.0363492965698,265.0479369163513,265.1951084136963,265.1951084136963,265.1951084136963,265.1951084136963,265.1951084136963,265.1951084136963,265.1951084136963,267.71232891082764,2,2.651916742324829,None,,,,,,,,,,,,,,,,,,166,2,2025-02-28_14h18.28.277,comp,2024.2.4,None,2025-02-28 14h18.44.509451 -0500,
24,24,0,critical,hwd,35.0,2.1,lower,133.0,57.0,57.0,133.0,70.0,70.0,2,3.7166507244110107,None,,,,,0,0,0,0,0,24,24,16,267.72816705703735,,,,,,,,,,,,,,,,,,,,,,,,,,,,,,,,,,,,,,,,,,,,,,,,,,,,,,,,,,,,,,,,,,,,,,,,,,,,,,,,,133.0,57.0,57.0,133.0,70.0,70.0,2.1,2.11,-191,268,0,287,198,-282,267.71292543411255,267.7129542827606,267.7140758037567,267.72816705703735,267.8832380771637,267.8832380771637,267.8832380771637,267.8832380771637,267.8832380771637,267.8832380771637,267.8832380771637,271.4478816986084,2,3.7166507244110107,None,,,,,,,,,,,,,,,,,,166,2,2025-02-28_14h18.28.277,comp,2024.2.4,None,2025-02-28 14h18.44.509451 -0500,
25,25,0,critical,hdw,20.0,4.0,lower,133.0,57.0,78.0,78.0,57.0,133.0,3,3.2599780559539795,None,,,,,0,0,0,0,0,25,25,118,271.46417260169983,,,,,,,,,,,,,,,,,,,,,,,,,,,,,,,,,,,,,,,,,,,,,,,,,,,,,,,,,,,,,,,,,,,,,,,,,,,,,,,,,133.0,57.0,78.0,78.0,57.0,133.0,4.0,4.2,-164,-10,0,-265,202,-20,271.4494118690491,271.449494600296,271.45300126075745,271.46417260169983,271.6030991077423,271.6030991077423,271.6030991077423,271.6030991077423,271.6030991077423,271.6030991077423,271.6030991077423,274.73350977897644,3,3.2599780559539795,None,,,,,,,,,,,,,,,,,,166,2,2025-02-28_14h18.28.277,comp,2024.2.4,None,2025-02-28 14h18.44.509451 -0500,
26,26,0,filler_random,None,None,None,None,None,None,None,None,None,None,1,2.13424015045166,None,,,,,0,0,0,0,0,26,26,166,274.74989891052246,,,,,,,,,,,,,,,,,,,,,,,,,,,,,,,,,,,,,,,,,,,,,,,,,,,,,,,,,,,,,,,,,,,,,,,,,,,,,,,,,91.57597787987683,172.64297666872073,112.77213885954974,76.72990636345087,115.47510392910311,134.66379523202278,1.0,1.2,-221,-17,0,-18,202,16,274.7353582382202,274.7354648113251,274.7389175891876,274.74989891052246,274.89964628219604,274.89964628219604,274.89964628219604,274.89964628219604,274.89964628219604,274.89964628219604,274.89964628219604,276.89804434776306,1,2.13424015045166,None,,,,,,,,,,,,,,,,,,166,2,2025-02-28_14h18.28.277,comp,2024.2.4,None,2025-02-28 14h18.44.509451 -0500,
27,27,0,critical,whd,20.0,1.0,lower,57.0,133.0,133.0,57.0,78.0,78.0,1,7.05214786529541,None,,,,,0,0,0,0,0,27,27,90,276.9129364490509,,,,,,,,,,,,,,,,,,,,,,,,,,,,,,,,,,,,,,,,,,,,,,,,,,,,,,,,,,,,,,,,,,,,,,,,,,,,,,,,,57.0,133.0,133.0,57.0,78.0,78.0,1.0,1.3,289,-265,480,-282,644,-289,276.8995711803436,276.8996546268463,276.90266728401184,276.9129364490509,277.06599521636963,277.06599521636963,277.06599521636963,277.06599521636963,277.06599521636963,277.06599521636963,277.06599521636963,283.96997332572937,1,7.05214786529541,None,,,,,,,,,,,,,,,,,,166,2,2025-02-28_14h18.28.277,comp,2024.2.4,None,2025-02-28 14h18.44.509451 -0500,
28,28,0,filler_random,None,None,None,None,None,None,None,None,None,None,1,2.0493197441101074,None,,,,,0,0,0,0,0,28,28,150,283.9868514537811,,,,,,,,,,,,,,,,,,,,,,,,,,,,,,,,,,,,,,,,,,,,,,,,,,,,,,,,,,,,,,,,,,,,,,,,,,,,,,,,,140.8247826624109,188.9112478563038,147.15464465083835,70.30210938457758,167.922796969876,87.92937823081128,2.1,2.12,-226,-287,0,-289,175,266,283.9719514846802,283.9720776081085,283.9759051799774,283.9868514537811,284.1368534564972,284.1368534564972,284.1368534564972,284.1368534564972,284.1368534564972,284.1368534564972,284.1368534564972,286.0526530742645,1,2.0493197441101074,None,,,,,,,,,,,,,,,,,,166,2,2025-02-28_14h18.28.277,comp,2024.2.4,None,2025-02-28 14h18.44.509451 -0500,
29,29,0,critical,dhw,20.0,1.0,lower,78.0,78.0,133.0,57.0,57.0,133.0,3,4.008379697799683,None,,,,,0,0,0,0,0,29,29,54,286.06851053237915,,,,,,,,,,,,,,,,,,,,,,,,,,,,,,,,,,,,,,,,,,,,,,,,,,,,,,,,,,,,,,,,,,,,,,,,,,,,,,,,,78.0,78.0,133.0,57.0,57.0,133.0,1.0,1.3,316,-258,480,-254,671,-284,286.05411076545715,286.0541889667511,286.05819272994995,286.06851053237915,286.21689891815186,286.21689891815186,286.21689891815186,286.21689891815186,286.21689891815186,286.21689891815186,286.21689891815186,290.08733320236206,3,4.008379697799683,None,,,,,,,,,,,,,,,,,,166,2,2025-02-28_14h18.28.277,comp,2024.2.4,None,2025-02-28 14h18.44.509451 -0500,
30,30,0,critical,hwd,35.0,1.0,upper,200.0,125.0,125.0,200.0,127.0,127.0,2,2.412846088409424,None,,,,,0,0,0,0,0,30,30,97,290.10377311706543,,,,,,,,,,,,,,,,,,,,,,,,,,,,,,,,,,,,,,,,,,,,,,,,,,,,,,,,,,,,,,,,,,,,,,,,,,,,,,,,,200.0,125.0,125.0,200.0,127.0,127.0,1.0,1.3,222,-283,480,-282,740,-266,290.0891230106354,290.08922934532166,290.0927767753601,290.10377311706543,290.2541494369507,290.2541494369507,290.2541494369507,290.2541494369507,290.2541494369507,290.2541494369507,290.2541494369507,292.5202898979187,2,2.412846088409424,None,,,,,,,,,,,,,,,,,,166,2,2025-02-28_14h18.28.277,comp,2024.2.4,None,2025-02-28 14h18.44.509451 -0500,
31,31,0,filler_square,None,None,None,None,None,None,None,None,None,None,3,3.875383138656616,None,,,,,0,0,0,0,0,31,31,207,292.5368194580078,,,,,,,,,,,,,,,,,,,,,,,,,,,,,,,,,,,,,,,,,,,,,,,,,,,,,,,,,,,,,,,,,,,,,,,,,,,,,,,,,186.4280717412411,183.49203663641316,132.40444833227144,189.62004567591924,190.16613447982598,190.16613447982598,4.0,4.1,-283,-253,0,10,286,-287,292.5220408439636,292.52212500572205,292.5252060890198,292.5368194580078,292.68788170814514,292.68788170814514,292.68788170814514,292.68788170814514,292.68788170814514,292.68788170814514,292.68788170814514,296.4274547100067,3,3.875383138656616,None,,,,,,,,,,,,,,,,,,166,2,2025-02-28_14h18.28.277,comp,2024.2.4,None,2025-02-28 14h18.44.509451 -0500,
32,32,0,filler_square,None,None,None,None,None,None,None,None,None,None,1,4.937753677368164,None,,,,,0,0,0,0,0,32,32,172,296.44340896606445,,,,,,,,,,,,,,,,,,,,,,,,,,,,,,,,,,,,,,,,,,,,,,,,,,,,,,,,,,,,,,,,,,,,,,,,,,,,,,,,,87.02061551732774,87.02061551732774,62.62336871563307,59.09973558966638,81.03426845800834,70.92792900575053,3.0,3.2,-169,-255,0,3,161,279,296.429580450058,296.4297049045563,296.4331405162811,296.44340896606445,296.58875370025635,296.58875370025635,296.58875370025635,296.58875370025635,296.58875370025635,296.58875370025635,296.58875370025635,301.3887357711792,1,4.937753677368164,None,,,,,,,,,,,,,,,,,,166,2,2025-02-28_14h18.28.277,comp,2024.2.4,None,2025-02-28 14h18.44.509451 -0500,
33,33,0,critical,wdh,35.0,2.1,upper,125.0,200.0,127.0,127.0,200.0,125.0,1,5.856225490570068,None,,,,,0,0,0,0,0,33,33,9,301.40407371520996,,,,,,,,,,,,,,,,,,,,,,,,,,,,,,,,,,,,,,,,,,,,,,,,,,,,,,,,,,,,,,,,,,,,,,,,,,,,,,,,,125.0,200.0,127.0,127.0,200.0,125.0,2.1,2.12,-260,-263,0,-280,222,262,301.39026379585266,301.39034509658813,301.39322090148926,301.40407371520996,301.54589653015137,301.54589653015137,301.54589653015137,301.54589653015137,301.54589653015137,301.54589653015137,301.54589653015137,307.2802424430847,1,5.856225490570068,None,,,,,,,,,,,,,,,,,,166,2,2025-02-28_14h18.28.277,comp,2024.2.4,None,2025-02-28 14h18.44.509451 -0500,
34,34,0,filler_random,None,None,None,None,None,None,None,None,None,None,2,1.8879015445709229,None,,,,,0,0,0,0,0,34,34,162,307.3009479045868,,,,,,,,,,,,,,,,,,,,,,,,,,,,,,,,,,,,,,,,,,,,,,,,,,,,,,,,,,,,,,,,,,,,,,,,,,,,,,,,,164.07177714347807,157.48373820746153,193.5040992759059,152.06301845595198,134.7547375979477,100.39492629437342,4.0,4.2,-251,-9,0,-287,222,-1,307.28223180770874,307.2823705673218,307.2856864929199,307.3009479045868,307.4428515434265,307.4428515434265,307.4428515434265,307.4428515434265,307.4428515434265,307.4428515434265,307.4428515434265,309.1977069377899,2,1.8879015445709229,None,,,,,,,,,,,,,,,,,,166,2,2025-02-28_14h18.28.277,comp,2024.2.4,None,2025-02-28 14h18.44.509451 -0500,
35,35,0,filler_random,None,None,None,None,None,None,None,None,None,None,1,6.052978277206421,None,,,,,0,0,0,0,0,35,35,153,309.21525835990906,,,,,,,,,,,,,,,,,,,,,,,,,,,,,,,,,,,,,,,,,,,,,,,,,,,,,,,,,,,,,,,,,,,,,,,,,,,,,,,,,62.32570296241853,132.17701351440573,63.81518634557568,104.02057382081964,97.27932253323314,101.30081218894392,4.0,4.2,-214,9,0,-270,199,-8,309.19933128356934,309.1994125843048,309.20228123664856,309.21525835990906,309.3610849380493,309.3610849380493,309.3610849380493,309.3610849380493,309.3610849380493,309.3610849380493,309.3610849380493,315.2843909263611,1,6.052978277206421,None,,,,,,,,,,,,,,,,,,166,2,2025-02-28_14h18.28.277,comp,2024.2.4,None,2025-02-28 14h18.44.509451 -0500,
36,36,0,critical,wdh,20.0,2.1,upper,125.0,200.0,141.0,141.0,200.0,125.0,1,2.373934507369995,None,,,,,0,0,0,0,0,36,36,11,315.30294847488403,,,,,,,,,,,,,,,,,,,,,,,,,,,,,,,,,,,,,,,,,,,,,,,,,,,,,,,,,,,,,,,,,,,,,,,,,,,,,,,,,125.0,200.0,141.0,141.0,200.0,125.0,2.1,2.11,-266,278,0,252,229,-271,315.28591442108154,315.28599786758423,315.28895115852356,315.30294847488403,315.4434516429901,315.4434516429901,315.4434516429901,315.4434516429901,315.4434516429901,315.4434516429901,315.4434516429901,317.6865050792694,1,2.373934507369995,None,,,,,,,,,,,,,,,,,,166,2,2025-02-28_14h18.28.277,comp,2024.2.4,None,2025-02-28 14h18.44.509451 -0500,
37,37,0,filler_square,None,None,None,None,None,None,None,None,None,None,1,3.767902374267578,None,,,,,0,0,0,0,0,37,37,179,317.7021164894104,,,,,,,,,,,,,,,,,,,,,,,,,,,,,,,,,,,,,,,,,,,,,,,,,,,,,,,,,,,,,,,,,,,,,,,,,,,,,,,,,115.81289611799257,115.81289611799257,69.96330696434316,113.07641936693676,97.00436998953222,103.82565672255703,1.0,1.2,-210,-12,0,19,204,-10,317.6882953643799,317.68837881088257,317.6912941932678,317.7021164894104,317.84694361686707,317.84694361686707,317.84694361686707,317.84694361686707,317.84694361686707,317.84694361686707,317.84694361686707,321.480486869812,1,3.767902374267578,None,,,,,,,,,,,,,,,,,,166,2,2025-02-28_14h18.28.277,comp,2024.2.4,None,2025-02-28 14h18.44.509451 -0500,
38,38,0,filler_random,None,None,None,None,None,None,None,None,None,None,2,5.403500556945801,None,,,,,0,0,0,0,0,38,38,130,321.49684739112854,,,,,,,,,,,,,,,,,,,,,,,,,,,,,,,,,,,,,,,,,,,,,,,,,,,,,,,,,,,,,,,,,,,,,,,,,,,,,,,,,137.90142744677598,152.1980002968965,106.2765688539152,183.61757305853877,113.83160914031049,133.88181120490856,2.2,2.22,-264,281,0,-268,255,-275,321.4823229312897,321.48246932029724,321.4858739376068,321.49684739112854,321.64583587646484,321.64583587646484,321.64583587646484,321.64583587646484,321.64583587646484,321.64583587646484,321.64583587646484,326.91693687438965,2,5.403500556945801,None,,,,,,,,,,,,,,,,,,166,2,2025-02-28_14h18.28.277,comp,2024.2.4,None,2025-02-28 14h18.44.509451 -0500,
39,39,0,critical,dhw,35.0,4.0,upper,127.0,127.0,200.0,125.0,125.0,200.0,3,3.459714651107788,None,,,,,0,0,0,0,0,39,39,53,326.9371201992035,,,,,,,,,,,,,,,,,,,,,,,,,,,,,,,,,,,,,,,,,,,,,,,,,,,,,,,,,,,,,,,,,,,,,,,,,,,,,,,,,127.0,127.0,200.0,125.0,125.0,200.0,4.0,4.2,-222,-9,0,-268,258,18,326.91857528686523,326.9186658859253,326.9219563007355,326.9371201992035,327.0696511268616,327.0696511268616,327.0696511268616,327.0696511268616,327.0696511268616,327.0696511268616,327.0696511268616,330.4033453464508,3,3.459714651107788,None,,,,,,,,,,,,,,,,,,166,2,2025-02-28_14h18.28.277,comp,2024.2.4,None,2025-02-28 14h18.44.509451 -0500,
40,40,0,filler_random,None,None,None,None,None,None,None,None,None,None,2,7.105405330657959,None,,,,,0,0,0,0,0,40,40,144,330.41963624954224,,,,,,,,,,,,,,,,,,,,,,,,,,,,,,,,,,,,,,,,,,,,,,,,,,,,,,,,,,,,,,,,,,,,,,,,,,,,,,,,,124.76553766498196,111.41232667546666,134.16328632241863,152.09624808010363,182.42220694384577,88.23385137418707,1.0,1.1,-708,264,-480,273,-264,270,330.4050874710083,330.4052143096924,330.408882856369,330.41963624954224,330.5666742324829,330.5666742324829,330.5666742324829,330.5666742324829,330.5666742324829,330.5666742324829,330.5666742324829,337.5365324020386,2,7.105405330657959,None,,,,,,,,,,,,,,,,,,166,2,2025-02-28_14h18.28.277,comp,2024.2.4,None,2025-02-28 14h18.44.509451 -0500,
41,41,0,critical,hdw,35.0,3.0,lower,133.0,57.0,70.0,70.0,57.0,133.0,3,7.988099813461304,None,,,,,0,0,0,0,0,41,41,110,337.552223443985,,,,,,,,,,,,,,,,,,,,,,,,,,,,,,,,,,,,,,,,,,,,,,,,,,,,,,,,,,,,,,,,,,,,,,,,,,,,,,,,,133.0,57.0,70.0,70.0,57.0,133.0,3.0,3.1,-160,263,0,7,198,-255,337.5379934310913,337.5380964279175,337.54143834114075,337.552223443985,337.7058627605438,337.7058627605438,337.7058627605438,337.7058627605438,337.7058627605438,337.7058627605438,337.7058627605438,345.55584621429443,3,7.988099813461304,None,,,,,,,,,,,,,,,,,,166,2,2025-02-28_14h18.28.277,comp,2024.2.4,None,2025-02-28 14h18.44.509451 -0500,
42,42,0,catch,None,None,None,None,None,None,None,None,None,None,3,1.6257696151733398,None,,,,,0,0,0,0,0,42,42,128,345.57343769073486,,,,,,,,,,,,,,,,,,,,,,,,,,,,,,,,,,,,,,,,,,,,,,,,,,,,,,,,,,,,,,,,,,,,,,,,,,,,,,,,,105,85,127,63,172,153,4.0,4.1,-170,-265,0,10,204,-281,345.5578615665436,345.5579442977905,345.56084728240967,345.57343769073486,345.72182607650757,345.72182607650757,345.72182607650757,345.72182607650757,345.72182607650757,345.72182607650757,345.72182607650757,347.2021324634552,3,1.6257696151733398,None,,,,,,,,,,,,,,,,,,166,2,2025-02-28_14h18.28.277,comp,2024.2.4,None,2025-02-28 14h18.44.509451 -0500,
43,43,0,critical,hdw,20.0,3.0,lower,133.0,57.0,78.0,78.0,57.0,133.0,3,5.922307014465332,None,,,,,0,0,0,0,0,43,43,116,347.2183895111084,,,,,,,,,,,,,,,,,,,,,,,,,,,,,,,,,,,,,,,,,,,,,,,,,,,,,,,,,,,,,,,,,,,,,,,,,,,,,,,,,133.0,57.0,78.0,78.0,57.0,133.0,3.0,3.1,-164,268,0,17,202,-274,347.2036530971527,347.2037355899811,347.206716299057,347.2183895111084,347.3591649532318,347.3591649532318,347.3591649532318,347.3591649532318,347.3591649532318,347.3591649532318,347.3591649532318,353.1519227027893,3,5.922307014465332,None,,,,,,,,,,,,,,,,,,166,2,2025-02-28_14h18.28.277,comp,2024.2.4,None,2025-02-28 14h18.44.509451 -0500,
44,44,0,critical,hwd,20.0,1.0,lower,133.0,57.0,57.0,133.0,78.0,78.0,2,2.537122964859009,None,,,,,0,0,0,0,0,44,44,102,353.1707806587219,,,,,,,,,,,,,,,,,,,,,,,,,,,,,,,,,,,,,,,,,,,,,,,,,,,,,,,,,,,,,,,,,,,,,,,,,,,,,,,,,133.0,57.0,57.0,133.0,78.0,78.0,1.0,1.2,-191,15,0,8,202,20,353.1533706188202,353.1534516811371,353.1563379764557,353.1707806587219,353.30678248405457,353.30678248405457,353.30678248405457,353.30678248405457,353.30678248405457,353.30678248405457,353.30678248405457,355.72255301475525,2,2.537122964859009,None,,,,,,,,,,,,,,,,,,166,2,2025-02-28_14h18.28.277,comp,2024.2.4,None,2025-02-28 14h18.44.509451 -0500,
45,45,0,filler_random,None,None,None,None,None,None,None,None,None,None,2,2.851807117462158,None,,,,,0,0,0,0,0,45,45,151,355.73731756210327,,,,,,,,,,,,,,,,,,,,,,,,,,,,,,,,,,,,,,,,,,,,,,,,,,,,,,,,,,,,,,,,,,,,,,,,,,,,,,,,,97.30058340994492,142.44785598864797,105.58814187044649,161.75608562735812,83.03821029923702,75.38303931826024,4.0,4.2,-248,6,0,-258,215,16,355.72358322143555,355.7236294746399,355.7252745628357,355.73731756210327,355.8747696876526,355.8747696876526,355.8747696876526,355.8747696876526,355.8747696876526,355.8747696876526,355.8747696876526,358.5946888923645,2,2.851807117462158,None,,,,,,,,,,,,,,,,,,166,2,2025-02-28_14h18.28.277,comp,2024.2.4,None,2025-02-28 14h18.44.509451 -0500,
46,46,0,filler_square,None,None,None,None,None,None,None,None,None,None,1,2.1056318283081055,None,,,,,0,0,0,0,0,46,46,197,358.6110734939575,,,,,,,,,,,,,,,,,,,,,,,,,,,,,,,,,,,,,,,,,,,,,,,,,,,,,,,,,,,,,,,,,,,,,,,,,,,,,,,,,192.6442020953623,192.6442020953623,174.7962953283911,121.94424172135783,110.36980165905652,96.05334336353968,1.0,1.1,-733,278,-480,257,-275,273,358.5966942310333,358.5967810153961,358.600293636322,358.6110734939575,358.7591986656189,358.7591986656189,358.7591986656189,358.7591986656189,358.7591986656189,358.7591986656189,358.7591986656189,360.72828245162964,1,2.1056318283081055,None,,,,,,,,,,,,,,,,,,166,2,2025-02-28_14h18.28.277,comp,2024.2.4,None,2025-02-28 14h18.44.509451 -0500,
47,47,0,catch,None,None,None,None,None,None,None,None,None,None,1,2.003086805343628,None,,,,,0,0,0,0,0,47,47,123,360.74539256095886,,,,,,,,,,,,,,,,,,,,,,,,,,,,,,,,,,,,,,,,,,,,,,,,,,,,,,,,,,,,,,,,,,,,,,,,,,,,,,,,,195,130,110,80,86,104,2.1,2.11,-201,255,0,288,188,-268,360.7304570674896,360.7305438518524,360.73448371887207,360.74539256095886,360.89340925216675,360.89340925216675,360.89340925216675,360.89340925216675,360.89340925216675,360.89340925216675,360.89340925216675,362.76239037513733,1,2.003086805343628,None,,,,,,,,,,,,,,,,,,166,2,2025-02-28_14h18.28.277,comp,2024.2.4,None,2025-02-28 14h18.44.509451 -0500,
48,48,0,critical,hdw,35.0,3.0,upper,200.0,125.0,127.0,127.0,125.0,200.0,3,2.769930124282837,None,,,,,0,0,0,0,0,48,48,111,362.77857398986816,,,,,,,,,,,,,,,,,,,,,,,,,,,,,,,,,,,,,,,,,,,,,,,,,,,,,,,,,,,,,,,,,,,,,,,,,,,,,,,,,200.0,125.0,127.0,127.0,125.0,200.0,3.0,3.1,-222,283,0,9,260,-279,362.7639853954315,362.764093875885,362.7673649787903,362.77857398986816,362.92649507522583,362.92649507522583,362.92649507522583,362.92649507522583,362.92649507522583,362.92649507522583,362.92649507522583,365.5615408420563,3,2.769930124282837,None,,,,,,,,,,,,,,,,,,166,2,2025-02-28_14h18.28.277,comp,2024.2.4,None,2025-02-28 14h18.44.509451 -0500,
49,49,0,critical,dhw,35.0,4.0,lower,70.0,70.0,133.0,57.0,57.0,133.0,3,2.2112584114074707,None,,,,,0,0,0,0,0,49,49,52,365.57712411880493,,,,,,,,,,,,,,,,,,,,,,,,,,,,,,,,,,,,,,,,,,,,,,,,,,,,,,,,,,,,,,,,,,,,,,,,,,,,,,,,,70.0,70.0,133.0,57.0,57.0,133.0,4.0,4.2,-160,14,0,-255,191,11,365.56303429603577,365.5631241798401,365.56622552871704,365.57712411880493,365.7279522418976,365.7279522418976,365.7279522418976,365.7279522418976,365.7279522418976,365.7279522418976,365.7279522418976,367.7993907928467,3,2.2112584114074707,None,,,,,,,,,,,,,,,,,,166,2,2025-02-28_14h18.28.277,comp,2024.2.4,None,2025-02-28 14h18.44.509451 -0500,
50,50,0,critical,hdw,20.0,1.0,lower,133.0,57.0,78.0,78.0,57.0,133.0,3,2.3799517154693604,None,,,,,0,0,0,0,0,50,50,114,367.8166115283966,,,,,,,,,,,,,,,,,,,,,,,,,,,,,,,,,,,,,,,,,,,,,,,,,,,,,,,,,,,,,,,,,,,,,,,,,,,,,,,,,133.0,57.0,78.0,78.0,57.0,133.0,1.0,1.2,-164,-14,0,-6,202,7,367.80094146728516,367.80105662345886,367.805059671402,367.8166115283966,367.9659974575043,367.9659974575043,367.9659974575043,367.9659974575043,367.9659974575043,367.9659974575043,367.9659974575043,370.20137548446655,3,2.3799517154693604,None,,,,,,,,,,,,,,,,,,166,2,2025-02-28_14h18.28.277,comp,2024.2.4,None,2025-02-28 14h18.44.509451 -0500,
51,51,0,catch,None,None,None,None,None,None,None,None,None,None,2,5.2828049659729,None,,,,,0,0,0,0,0,51,51,124,370.2178132534027,,,,,,,,,,,,,,,,,,,,,,,,,,,,,,,,,,,,,,,,,,,,,,,,,,,,,,,,,,,,,,,,,,,,,,,,,,,,,,,,,70,120,134,191,67,123,2.2,2.21,-252,-264,0,262,253,272,370.2034819126129,370.20356488227844,370.20684456825256,370.2178132534027,370.3626708984375,370.3626708984375,370.3626708984375,370.3626708984375,370.3626708984375,370.3626708984375,370.3626708984375,375.5178687572479,2,5.2828049659729,None,,,,,,,,,,,,,,,,,,166,2,2025-02-28_14h18.28.277,comp,2024.2.4,None,2025-02-28 14h18.44.509451 -0500,
52,52,0,filler_random,None,None,None,None,None,None,None,None,None,None,3,3.08192777633667,None,,,,,0,0,0,0,0,52,52,164,375.5385673046112,,,,,,,,,,,,,,,,,,,,,,,,,,,,,,,,,,,,,,,,,,,,,,,,,,,,,,,,,,,,,,,,,,,,,,,,,,,,,,,,,111.40145150387931,102.61994255205829,198.54152224032424,180.9611029873535,199.05451915750993,171.93808810755047,4.0,4.2,-238,16,0,-274,272,-1,375.5196690559387,375.5198051929474,375.5231716632843,375.5385673046112,375.6871371269226,375.6871371269226,375.6871371269226,375.6871371269226,375.6871371269226,375.6871371269226,375.6871371269226,378.6339602470398,3,3.08192777633667,None,,,,,,,,,,,,,,,,,,166,2,2025-02-28_14h18.28.277,comp,2024.2.4,None,2025-02-28 14h18.44.509451 -0500,
53,53,0,filler_square,None,None,None,None,None,None,None,None,None,None,2,2.7546651363372803,None,,,,,0,0,0,0,0,53,53,178,378.64982891082764,,,,,,,,,,,,,,,,,,,,,,,,,,,,,,,,,,,,,,,,,,,,,,,,,,,,,,,,,,,,,,,,,,,,,,,,,,,,,,,,,77.35959644534822,92.76100480052307,98.82104198011959,98.82104198011959,90.9364249270912,86.25246778598111,3.0,3.2,-192,-276,0,11,189,276,378.63648748397827,378.636598110199,378.63955330848694,378.64982891082764,378.7992718219757,378.7992718219757,378.7992718219757,378.7992718219757,378.7992718219757,378.7992718219757,378.7992718219757,381.41478180885315,2,2.7546651363372803,None,,,,,,,,,,,,,,,,,,166,2,2025-02-28_14h18.28.277,comp,2024.2.4,None,2025-02-28 14h18.44.509451 -0500,
54,54,0,critical,hwd,35.0,3.0,upper,200.0,125.0,125.0,200.0,127.0,127.0,2,5.0378334522247314,None,,,,,0,0,0,0,0,54,54,99,381.4308559894562,,,,,,,,,,,,,,,,,,,,,,,,,,,,,,,,,,,,,,,,,,,,,,,,,,,,,,,,,,,,,,,,,,,,,,,,,,,,,,,,,200.0,125.0,125.0,200.0,127.0,127.0,3.0,3.1,-258,255,0,-15,260,-279,381.4162857532501,381.4163661003113,381.41959524154663,381.4308559894562,381.58558344841003,381.58558344841003,381.58558344841003,381.58558344841003,381.58558344841003,381.58558344841003,381.58558344841003,386.4713842868805,2,5.0378334522247314,None,,,,,,,,,,,,,,,,,,166,2,2025-02-28_14h18.28.277,comp,2024.2.4,None,2025-02-28 14h18.44.509451 -0500,
55,55,0,catch,None,None,None,None,None,None,None,None,None,None,1,1.3953659534454346,None,,,,,0,0,0,0,0,55,55,122,386.48949694633484,,,,,,,,,,,,,,,,,,,,,,,,,,,,,,,,,,,,,,,,,,,,,,,,,,,,,,,,,,,,,,,,,,,,,,,,,,,,,,,,,145,180,108,82,125,65,3.0,3.1,-227,251,0,-15,170,-282,386.47339153289795,386.4734740257263,386.47636795043945,386.48949694633484,386.6338152885437,386.6338152885437,386.6338152885437,386.6338152885437,386.6338152885437,386.6338152885437,386.6338152885437,387.8913757801056,1,1.3953659534454346,None,,,,,,,,,,,,,,,,,,166,2,2025-02-28_14h18.28.277,comp,2024.2.4,None,2025-02-28 14h18.44.509451 -0500,
56,56,0,filler_square,None,None,None,None,None,None,None,None,None,None,3,1.423398494720459,None,,,,,0,0,0,0,0,56,56,183,387.90914392471313,,,,,,,,,,,,,,,,,,,,,,,,,,,,,,,,,,,,,,,,,,,,,,,,,,,,,,,,,,,,,,,,,,,,,,,,,,,,,,,,,127.64453324216267,134.29893635621437,93.96316401063828,107.87909538350272,184.7203817502986,184.7203817502986,3.0,3.1,-217,290,0,-14,242,-264,387.89312267303467,387.8932032585144,387.89605951309204,387.90914392471313,388.0498251914978,388.0498251914978,388.0498251914978,388.0498251914978,388.0498251914978,388.0498251914978,388.0498251914978,389.3358178138733,3,1.423398494720459,None,,,,,,,,,,,,,,,,,,166,2,2025-02-28_14h18.28.277,comp,2024.2.4,None,2025-02-28 14h18.44.509451 -0500,
57,57,0,filler_square,None,None,None,None,None,None,None,None,None,None,1,2.092725992202759,None,,,,,0,0,0,0,0,57,57,181,389.3517336845398,,,,,,,,,,,,,,,,,,,,,,,,,,,,,,,,,,,,,,,,,,,,,,,,,,,,,,,,,,,,,,,,,,,,,,,,,,,,,,,,,128.18836941495152,128.18836941495152,57.14780830304771,73.02182939071251,94.12348768621004,94.54906220378385,2.1,2.11,-197,268,0,260,180,-270,389.33760833740234,389.3376910686493,389.34095072746277,389.3517336845398,389.5016767978668,389.5016767978668,389.5016767978668,389.5016767978668,389.5016767978668,389.5016767978668,389.5016767978668,391.4609875679016,1,2.092725992202759,None,,,,,,,,,,,,,,,,,,166,2,2025-02-28_14h18.28.277,comp,2024.2.4,None,2025-02-28 14h18.44.509451 -0500,
58,58,0,critical,dwh,20.0,2.1,lower,78.0,78.0,57.0,133.0,133.0,57.0,2,1.6383187770843506,None,,,,,0,0,0,0,0,58,58,30,391.47813391685486,,,,,,,,,,,,,,,,,,,,,,,,,,,,,,,,,,,,,,,,,,,,,,,,,,,,,,,,,,,,,,,,,,,,,,,,,,,,,,,,,78.0,78.0,57.0,133.0,133.0,57.0,2.1,2.11,-202,250,0,272,191,-279,391.4625165462494,391.4625964164734,391.465491771698,391.47813391685486,391.6187732219696,391.6187732219696,391.6187732219696,391.6187732219696,391.6187732219696,391.6187732219696,391.6187732219696,393.12088441848755,2,1.6383187770843506,None,,,,,,,,,,,,,,,,,,166,2,2025-02-28_14h18.28.277,comp,2024.2.4,None,2025-02-28 14h18.44.509451 -0500,
59,59,0,filler_square,None,None,None,None,None,None,None,None,None,None,3,1.0511407852172852,None,,,,,0,0,0,0,0,59,59,209,393.13749384880066,,,,,,,,,,,,,,,,,,,,,,,,,,,,,,,,,,,,,,,,,,,,,,,,,,,,,,,,,,,,,,,,,,,,,,,,,,,,,,,,,83.07041080372603,133.28248781856752,141.60246702118167,101.33378003324292,153.34161514059724,153.34161514059724,2.1,2.11,-213,269,0,268,223,-256,393.122967004776,393.1230809688568,393.12677001953125,393.13749384880066,393.28613114356995,393.28613114356995,393.28613114356995,393.28613114356995,393.28613114356995,393.28613114356995,393.28613114356995,394.20313906669617,3,1.0511407852172852,None,,,,,,,,,,,,,,,,,,166,2,2025-02-28_14h18.28.277,comp,2024.2.4,None,2025-02-28 14h18.44.509451 -0500,
60,60,0,critical,hdw,20.0,2.1,upper,200.0,125.0,141.0,141.0,125.0,200.0,1,2.577268123626709,None,,,,,0,0,0,0,0,60,60,47,394.21920442581177,,,,,,,,,,,,,,,,,,,,,,,,,,,,,,,,,,,,,,,,,,,,,,,,,,,,,,,,,,,,,,,,,,,,,,,,,,,,,,,,,200.0,125.0,141.0,141.0,125.0,200.0,2.1,2.11,-229,262,0,274,266,-268,394.20467948913574,394.20476269721985,394.20820021629333,394.21920442581177,394.3759994506836,394.3759994506836,394.3759994506836,394.3759994506836,394.3759994506836,394.3759994506836,394.3759994506836,396.8081624507904,1,2.577268123626709,None,,,,,,,,,,,,,,,,,,166,2,2025-02-28_14h18.28.277,comp,2024.2.4,None,2025-02-28 14h18.44.509451 -0500,
61,61,0,filler_random,None,None,None,None,None,None,None,None,None,None,3,4.395759344100952,None,,,,,0,0,0,0,0,61,61,139,396.82487964630127,,,,,,,,,,,,,,,,,,,,,,,,,,,,,,,,,,,,,,,,,,,,,,,,,,,,,,,,,,,,,,,,,,,,,,,,,,,,,,,,,88.71937589751295,126.98124941710262,129.1778526383385,82.1968136434482,174.1194645814465,108.75630350602599,3.0,3.2,-201,-265,0,-14,191,262,396.8102135658264,396.8102996349335,396.813618183136,396.82487964630127,396.9704053401947,396.9704053401947,396.9704053401947,396.9704053401947,396.9704053401947,396.9704053401947,396.9704053401947,401.2233326435089,3,4.395759344100952,None,,,,,,,,,,,,,,,,,,166,2,2025-02-28_14h18.28.277,comp,2024.2.4,None,2025-02-28 14h18.44.509451 -0500,
62,62,0,filler_random,None,None,None,None,None,None,None,None,None,None,3,1.4193964004516602,None,,,,,0,0,0,0,0,62,62,168,401.241450548172,,,,,,,,,,,,,,,,,,,,,,,,,,,,,,,,,,,,,,,,,,,,,,,,,,,,,,,,,,,,,,,,,,,,,,,,,,,,,,,,,179.0835861506094,61.40945173876824,176.98529651140606,113.63094260064052,176.21751216914885,125.12270488234228,1.0,1.1,-664,275,-480,260,-265,272,401.2251522541046,401.2252998352051,401.2285170555115,401.241450548172,401.3884074687958,401.3884074687958,401.3884074687958,401.3884074687958,401.3884074687958,401.3884074687958,401.3884074687958,402.68076515197754,3,1.4193964004516602,None,,,,,,,,,,,,,,,,,,166,2,2025-02-28_14h18.28.277,comp,2024.2.4,None,2025-02-28 14h18.44.509451 -0500,
63,63,0,critical,wdh,20.0,3.0,upper,125.0,200.0,141.0,141.0,200.0,125.0,1,1.801520824432373,None,,,,,0,0,0,0,0,63,63,81,402.69928455352783,,,,,,,,,,,,,,,,,,,,,,,,,,,,,,,,,,,,,,,,,,,,,,,,,,,,,,,,,,,,,,,,,,,,,,,,,,,,,,,,,125.0,200.0,141.0,141.0,200.0,125.0,3.0,3.1,-266,260,0,-10,229,-271,402.68230271339417,402.682386636734,402.6852843761444,402.69928455352783,402.84017419815063,402.84017419815063,402.84017419815063,402.84017419815063,402.84017419815063,402.84017419815063,402.84017419815063,404.51639699935913,1,1.801520824432373,None,,,,,,,,,,,,,,,,,,166,2,2025-02-28_14h18.28.277,comp,2024.2.4,None,2025-02-28 14h18.44.509451 -0500,
64,64,0,filler_square,None,None,None,None,None,None,None,None,None,None,2,5.040141820907593,None,,,,,0,0,0,0,0,64,64,195,404.53305101394653,,,,,,,,,,,,,,,,,,,,,,,,,,,,,,,,,,,,,,,,,,,,,,,,,,,,,,,,,,,,,,,,,,,,,,,,,,,,,,,,,87.49254603826274,63.35306362539626,88.64280623678906,88.64280623678906,58.18929924739615,77.61159438547267,2.2,2.22,-172,264,0,-279,179,-261,404.5183002948761,404.5184121131897,404.5216586589813,404.53305101394653,404.6737687587738,404.6737687587738,404.6737687587738,404.6737687587738,404.6737687587738,404.6737687587738,404.6737687587738,409.5886025428772,2,5.040141820907593,None,,,,,,,,,,,,,,,,,,166,2,2025-02-28_14h18.28.277,comp,2024.2.4,None,2025-02-28 14h18.44.509451 -0500,
65,65,0,critical,dwh,35.0,1.0,upper,127.0,127.0,125.0,200.0,200.0,125.0,2,2.535585641860962,None,,,,,0,0,0,0,0,65,65,61,409.6053385734558,,,,,,,,,,,,,,,,,,,,,,,,,,,,,,,,,,,,,,,,,,,,,,,,,,,,,,,,,,,,,,,,,,,,,,,,,,,,,,,,,127.0,127.0,125.0,200.0,200.0,125.0,1.0,1.1,-740,277,-480,252,-222,258,409.5902609825134,409.59039306640625,409.5937223434448,409.6053385734558,409.74755024909973,409.74755024909973,409.74755024909973,409.74755024909973,409.74755024909973,409.74755024909973,409.74755024909973,412.1433758735657,2,2.535585641860962,None,,,,,,,,,,,,,,,,,,166,2,2025-02-28_14h18.28.277,comp,2024.2.4,None,2025-02-28 14h18.44.509451 -0500,
66,66,0,filler_square,None,None,None,None,None,None,None,None,None,None,1,2.7086081504821777,None,,,,,0,0,0,0,0,66,66,204,412.1602327823639,,,,,,,,,,,,,,,,,,,,,,,,,,,,,,,,,,,,,,,,,,,,,,,,,,,,,,,,,,,,,,,,,,,,,,,,,,,,,,,,,141.6763353403955,141.6763353403955,119.83785477120881,125.48601583094346,121.40523868656412,72.8861861437479,3.0,3.1,-230,277,0,-11,195,-275,412.1453721523285,412.14551877975464,412.1494617462158,412.1602327823639,412.3094198703766,412.3094198703766,412.3094198703766,412.3094198703766,412.3094198703766,412.3094198703766,412.3094198703766,414.87940549850464,1,2.7086081504821777,None,,,,,,,,,,,,,,,,,,166,2,2025-02-28_14h18.28.277,comp,2024.2.4,None,2025-02-28 14h18.44.509451 -0500,
67,67,0,critical,wdh,35.0,1.0,lower,57.0,133.0,70.0,70.0,133.0,57.0,1,4.434375047683716,None,,,,,0,0,0,0,0,67,67,72,414.8983201980591,,,,,,,,,,,,,,,,,,,,,,,,,,,,,,,,,,,,,,,,,,,,,,,,,,,,,,,,,,,,,,,,,,,,,,,,,,,,,,,,,57.0,133.0,70.0,70.0,133.0,57.0,1.0,1.1,-678,276,-480,280,-320,257,414.8809907436371,414.8811023235321,414.8846056461334,414.8983201980591,415.04309153556824,415.04309153556824,415.04309153556824,415.04309153556824,415.04309153556824,415.04309153556824,415.04309153556824,419.34585404396057,1,4.434375047683716,None,,,,,,,,,,,,,,,,,,166,2,2025-02-28_14h18.28.277,comp,2024.2.4,None,2025-02-28 14h18.44.509451 -0500,
68,68,0,filler_random,None,None,None,None,None,None,None,None,None,None,2,2.8268373012542725,None,,,,,0,0,0,0,0,68,68,140,419.3624196052551,,,,,,,,,,,,,,,,,,,,,,,,,,,,,,,,,,,,,,,,,,,,,,,,,,,,,,,,,,,,,,,,,,,,,,,,,,,,,,,,,69.48033854409806,174.08909938722883,93.0211671582282,191.16452963417973,160.47460079090985,151.969713968998,2.2,2.21,-279,-289,0,285,268,251,419.34787583351135,419.34798645973206,419.3519084453583,419.3624196052551,419.50336050987244,419.50336050987244,419.50336050987244,419.50336050987244,419.50336050987244,419.50336050987244,419.50336050987244,422.19908571243286,2,2.8268373012542725,None,,,,,,,,,,,,,,,,,,166,2,2025-02-28_14h18.28.277,comp,2024.2.4,None,2025-02-28 14h18.44.509451 -0500,
69,69,0,filler_random,None,None,None,None,None,None,None,None,None,None,2,3.6622519493103027,None,,,,,0,0,0,0,0,69,69,149,422.2152724266052,,,,,,,,,,,,,,,,,,,,,,,,,,,,,,,,,,,,,,,,,,,,,,,,,,,,,,,,,,,,,,,,,,,,,,,,,,,,,,,,,73.13794234874024,136.0706934969353,165.15277139072373,100.41386751070516,154.95131579242832,117.91188531834469,4.0,4.2,-214,0,0,-254,205,3,422.2008981704712,422.2010385990143,422.2044174671173,422.2152724266052,422.36025500297546,422.36025500297546,422.36025500297546,422.36025500297546,422.36025500297546,422.36025500297546,422.36025500297546,425.88012886047363,2,3.6622519493103027,None,,,,,,,,,,,,,,,,,,166,2,2025-02-28_14h18.28.277,comp,2024.2.4,None,2025-02-28 14h18.44.509451 -0500,
70,70,0,filler_random,None,None,None,None,None,None,None,None,None,None,3,1.6522550582885742,None,,,,,0,0,0,0,0,70,70,159,425.8963694572449,,,,,,,,,,,,,,,,,,,,,,,,,,,,,,,,,,,,,,,,,,,,,,,,,,,,,,,,,,,,,,,,,,,,,,,,,,,,,,,,,57.998735432771,197.53858199573645,102.7510536828062,199.59610999178065,147.70353260567632,190.95234855558556,1.0,1.3,185,-270,480,-279,771,-269,425.88186717033386,425.8819501399994,425.88546442985535,425.8963694572449,426.0469160079956,426.0469160079956,426.0469160079956,426.0469160079956,426.0469160079956,426.0469160079956,426.0469160079956,427.5680613517761,3,1.6522550582885742,None,,,,,,,,,,,,,,,,,,166,2,2025-02-28_14h18.28.277,comp,2024.2.4,None,2025-02-28 14h18.44.509451 -0500,
71,71,0,filler_random,None,None,None,None,None,None,None,None,None,None,3,2.5938191413879395,None,,,,,0,0,0,0,0,71,71,142,427.586816072464,,,,,,,,,,,,,,,,,,,,,,,,,,,,,,,,,,,,,,,,,,,,,,,,,,,,,,,,,,,,,,,,,,,,,,,,,,,,,,,,,63.43579931902145,73.40044741134236,101.73250033038585,187.798169939819,187.89381621927234,121.5199315184361,4.0,4.1,-227,-276,0,-17,251,-263,427.5698938369751,427.57005429267883,427.57345843315125,427.586816072464,427.73034048080444,427.73034048080444,427.73034048080444,427.73034048080444,427.73034048080444,427.73034048080444,427.73034048080444,430.1971263885498,3,2.5938191413879395,None,,,,,,,,,,,,,,,,,,166,2,2025-02-28_14h18.28.277,comp,2024.2.4,None,2025-02-28 14h18.44.509451 -0500,
72,72,0,critical,dhw,35.0,2.1,lower,70.0,70.0,133.0,57.0,57.0,133.0,3,2.743866443634033,None,,,,,0,0,0,0,0,72,72,0,430.2133128643036,,,,,,,,,,,,,,,,,,,,,,,,,,,,,,,,,,,,,,,,,,,,,,,,,,,,,,,,,,,,,,,,,,,,,,,,,,,,,,,,,70.0,70.0,133.0,57.0,57.0,133.0,2.1,2.12,-160,-287,0,-270,191,262,430.1986904144287,430.1987690925598,430.202139377594,430.2133128643036,430.369824886322,430.369824886322,430.369824886322,430.369824886322,430.369824886322,430.369824886322,430.369824886322,432.96787190437317,3,2.743866443634033,None,,,,,,,,,,,,,,,,,,166,2,2025-02-28_14h18.28.277,comp,2024.2.4,None,2025-02-28 14h18.44.509451 -0500,
73,73,0,critical,dhw,20.0,4.0,lower,78.0,78.0,133.0,57.0,57.0,133.0,3,2.21323823928833,None,,,,,0,0,0,0,0,73,73,58,432.98395586013794,,,,,,,,,,,,,,,,,,,,,,,,,,,,,,,,,,,,,,,,,,,,,,,,,,,,,,,,,,,,,,,,,,,,,,,,,,,,,,,,,78.0,78.0,133.0,57.0,57.0,133.0,4.0,4.2,-164,-19,0,-276,191,11,432.96957659721375,432.96966218948364,432.9728229045868,432.98395586013794,433.13527607917786,433.13527607917786,433.13527607917786,433.13527607917786,433.13527607917786,433.13527607917786,433.13527607917786,435.2045707702637,3,2.21323823928833,None,,,,,,,,,,,,,,,,,,166,2,2025-02-28_14h18.28.277,comp,2024.2.4,None,2025-02-28 14h18.44.509451 -0500,
74,74,0,critical,dhw,20.0,1.0,upper,141.0,141.0,200.0,125.0,125.0,200.0,2,2.1407856941223145,None,,,,,0,0,0,0,0,74,74,55,435.22463297843933,,,,,,,,,,,,,,,,,,,,,,,,,,,,,,,,,,,,,,,,,,,,,,,,,,,,,,,,,,,,,,,,,,,,,,,,,,,,,,,,,141.0,141.0,200.0,125.0,125.0,200.0,1.0,1.2,-229,2,0,19,258,-1,435.2060465812683,435.2061285972595,435.2089786529541,435.22463297843933,435.3653256893158,435.3653256893158,435.3653256893158,435.3653256893158,435.3653256893158,435.3653256893158,435.3653256893158,437.37278842926025,2,2.1407856941223145,None,,,,,,,,,,,,,,,,,,166,2,2025-02-28_14h18.28.277,comp,2024.2.4,None,2025-02-28 14h18.44.509451 -0500,
75,75,0,filler_random,None,None,None,None,None,None,None,None,None,None,1,3.4875707626342773,None,,,,,0,0,0,0,0,75,75,158,437.3890974521637,,,,,,,,,,,,,,,,,,,,,,,,,,,,,,,,,,,,,,,,,,,,,,,,,,,,,,,,,,,,,,,,,,,,,,,,,,,,,,,,,103.29926538362832,168.8147129628751,163.06932675673846,99.59256048369849,81.49748886332597,170.46861360112308,3.0,3.2,-230,-287,0,-16,231,287,437.3745141029358,437.3745951652527,437.3774604797363,437.3890974521637,437.53391671180725,437.53391671180725,437.53391671180725,437.53391671180725,437.53391671180725,437.53391671180725,437.53391671180725,440.88666319847107,1,3.4875707626342773,None,,,,,,,,,,,,,,,,,,166,2,2025-02-28_14h18.28.277,comp,2024.2.4,None,2025-02-28 14h18.44.509451 -0500,
76,76,0,critical,dhw,35.0,3.0,lower,70.0,70.0,133.0,57.0,57.0,133.0,3,3.2624402046203613,None,,,,,0,0,0,0,0,76,76,50,440.9021968841553,,,,,,,,,,,,,,,,,,,,,,,,,,,,,,,,,,,,,,,,,,,,,,,,,,,,,,,,,,,,,,,,,,,,,,,,,,,,,,,,,70.0,70.0,133.0,57.0,57.0,133.0,3.0,3.1,-160,277,0,-6,191,-271,440.8882620334625,440.8883454799652,440.89145398139954,440.9021968841553,441.05155658721924,441.05155658721924,441.05155658721924,441.05155658721924,441.05155658721924,441.05155658721924,441.05155658721924,444.16885232925415,3,3.2624402046203613,None,,,,,,,,,,,,,,,,,,166,2,2025-02-28_14h18.28.277,comp,2024.2.4,None,2025-02-28 14h18.44.509451 -0500,
77,77,0,critical,dhw,20.0,2.1,lower,78.0,78.0,133.0,57.0,57.0,133.0,3,3.083707809448242,None,,,,,0,0,0,0,0,77,77,2,444.184912443161,,,,,,,,,,,,,,,,,,,,,,,,,,,,,,,,,,,,,,,,,,,,,,,,,,,,,,,,,,,,,,,,,,,,,,,,,,,,,,,,,78.0,78.0,133.0,57.0,57.0,133.0,2.1,2.12,-164,-268,0,-250,191,250,444.1704683303833,444.17054986953735,444.1739852428436,444.184912443161,444.3385007381439,444.3385007381439,444.3385007381439,444.3385007381439,444.3385007381439,444.3385007381439,444.3385007381439,447.2706458568573,3,3.083707809448242,None,,,,,,,,,,,,,,,,,,166,2,2025-02-28_14h18.28.277,comp,2024.2.4,None,2025-02-28 14h18.44.509451 -0500,
78,78,0,critical,dhw,20.0,2.1,lower,78.0,78.0,133.0,57.0,57.0,133.0,3,2.984126329421997,None,,,,,0,0,0,0,0,78,78,26,447.2851152420044,,,,,,,,,,,,,,,,,,,,,,,,,,,,,,,,,,,,,,,,,,,,,,,,,,,,,,,,,,,,,,,,,,,,,,,,,,,,,,,,,78.0,78.0,133.0,57.0,57.0,133.0,2.1,2.11,-164,255,0,282,191,-287,447.2722098827362,447.2722933292389,447.27548813819885,447.2851152420044,447.439444065094,447.439444065094,447.439444065094,447.439444065094,447.439444065094,447.439444065094,447.439444065094,450.27756214141846,3,2.984126329421997,None,,,,,,,,,,,,,,,,,,166,2,2025-02-28_14h18.28.277,comp,2024.2.4,None,2025-02-28 14h18.44.509451 -0500,
79,79,0,filler_square,None,None,None,None,None,None,None,None,None,None,1,2.00488543510437,None,,,,,0,0,0,0,0,79,79,202,450.2966103553772,,,,,,,,,,,,,,,,,,,,,,,,,,,,,,,,,,,,,,,,,,,,,,,,,,,,,,,,,,,,,,,,,,,,,,,,,,,,,,,,,73.6860014826988,73.6860014826988,63.455873585323815,61.500714928587456,68.62059003394339,71.12056235189979,4.0,4.1,-164,-289,0,-5,162,-257,450.2796688079834,450.27975368499756,450.2830593585968,450.2966103553772,450.4410488605499,450.4410488605499,450.4410488605499,450.4410488605499,450.4410488605499,450.4410488605499,450.4410488605499,452.3078501224518,1,2.00488543510437,None,,,,,,,,,,,,,,,,,,166,2,2025-02-28_14h18.28.277,comp,2024.2.4,None,2025-02-28 14h18.44.509451 -0500,
80,80,0,critical,hwd,20.0,1.0,upper,200.0,125.0,125.0,200.0,141.0,141.0,2,2.860863208770752,None,,,,,0,0,0,0,0,80,80,103,452.32826375961304,,,,,,,,,,,,,,,,,,,,,,,,,,,,,,,,,,,,,,,,,,,,,,,,,,,,,,,,,,,,,,,,,,,,,,,,,,,,,,,,,200.0,125.0,125.0,200.0,141.0,141.0,1.0,1.3,222,-267,480,-268,746,-270,452.3095154762268,452.3096024990082,452.31253576278687,452.32826375961304,452.471568107605,452.471568107605,452.471568107605,452.471568107605,452.471568107605,452.471568107605,452.471568107605,455.1930549144745,2,2.860863208770752,None,,,,,,,,,,,,,,,,,,166,2,2025-02-28_14h18.28.277,comp,2024.2.4,None,2025-02-28 14h18.44.509451 -0500,
81,81,0,filler_square,None,None,None,None,None,None,None,None,None,None,2,1.5112669467926025,None,,,,,0,0,0,0,0,81,81,170,455.2134189605713,,,,,,,,,,,,,,,,,,,,,,,,,,,,,,,,,,,,,,,,,,,,,,,,,,,,,,,,,,,,,,,,,,,,,,,,,,,,,,,,,108.35566785044657,68.18245159048256,182.40430824004392,182.40430824004392,59.42614789468315,94.11805968238781,4.0,4.1,-221,-281,0,-20,234,-261,455.1950454711914,455.19513726234436,455.19841051101685,455.2134189605713,455.35683822631836,455.35683822631836,455.35683822631836,455.35683822631836,455.35683822631836,455.35683822631836,455.35683822631836,456.7392966747284,2,1.5112669467926025,None,,,,,,,,,,,,,,,,,,166,2,2025-02-28_14h18.28.277,comp,2024.2.4,None,2025-02-28 14h18.44.509451 -0500,
82,82,0,critical,hdw,35.0,4.0,upper,200.0,125.0,127.0,127.0,125.0,200.0,3,1.7060768604278564,None,,,,,0,0,0,0,0,82,82,113,456.7547187805176,,,,,,,,,,,,,,,,,,,,,,,,,,,,,,,,,,,,,,,,,,,,,,,,,,,,,,,,,,,,,,,,,,,,,,,,,,,,,,,,,200.0,125.0,127.0,127.0,125.0,200.0,4.0,4.2,-222,-20,0,-266,260,19,456.74073672294617,456.7408149242401,456.7437574863434,456.7547187805176,456.90588545799255,456.90588545799255,456.90588545799255,456.90588545799255,456.90588545799255,456.90588545799255,456.90588545799255,458.4737968444824,3,1.7060768604278564,None,,,,,,,,,,,,,,,,,,166,2,2025-02-28_14h18.28.277,comp,2024.2.4,None,2025-02-28 14h18.44.509451 -0500,
83,83,0,critical,whd,35.0,1.0,lower,57.0,133.0,133.0,57.0,70.0,70.0,1,6.613078355789185,None,,,,,0,0,0,0,0,83,83,84,458.48829102516174,,,,,,,,,,,,,,,,,,,,,,,,,,,,,,,,,,,,,,,,,,,,,,,,,,,,,,,,,,,,,,,,,,,,,,,,,,,,,,,,,57.0,133.0,133.0,57.0,70.0,70.0,1.0,1.3,289,-271,480,-277,640,-256,458.47542905807495,458.47551012039185,458.4790530204773,458.48829102516174,458.6404674053192,458.6404674053192,458.6404674053192,458.6404674053192,458.6404674053192,458.6404674053192,458.6404674053192,465.10897278785706,1,6.613078355789185,None,,,,,,,,,,,,,,,,,,166,2,2025-02-28_14h18.28.277,comp,2024.2.4,None,2025-02-28 14h18.44.509451 -0500,
84,84,0,critical,dhw,35.0,1.0,upper,127.0,127.0,200.0,125.0,125.0,200.0,3,1.703777551651001,None,,,,,0,0,0,0,0,84,84,49,465.1248848438263,,,,,,,,,,,,,,,,,,,,,,,,,,,,,,,,,,,,,,,,,,,,,,,,,,,,,,,,,,,,,,,,,,,,,,,,,,,,,,,,,127.0,127.0,200.0,125.0,125.0,200.0,1.0,1.1,-702,280,-480,254,-222,278,465.11061811447144,465.1107020378113,465.11414194107056,465.1248848438263,465.2759037017822,465.2759037017822,465.2759037017822,465.2759037017822,465.2759037017822,465.2759037017822,465.2759037017822,466.8495726585388,3,1.703777551651001,None,,,,,,,,,,,,,,,,,,166,2,2025-02-28_14h18.28.277,comp,2024.2.4,None,2025-02-28 14h18.44.509451 -0500,
85,85,0,filler_square,None,None,None,None,None,None,None,None,None,None,3,1.9829449653625488,None,,,,,0,0,0,0,0,85,85,192,466.86969900131226,,,,,,,,,,,,,,,,,,,,,,,,,,,,,,,,,,,,,,,,,,,,,,,,,,,,,,,,,,,,,,,,,,,,,,,,,,,,,,,,,67.4967357204483,67.29287525883852,91.27103857064655,90.65906651106167,102.22769732056719,102.22769732056719,3.0,3.2,-175,-285,0,7,192,275,466.8514075279236,466.8514928817749,466.8544034957886,466.86969900131226,467.0070731639862,467.0070731639862,467.0070731639862,467.0070731639862,467.0070731639862,467.0070731639862,467.0070731639862,468.86262130737305,3,1.9829449653625488,None,,,,,,,,,,,,,,,,,,166,2,2025-02-28_14h18.28.277,comp,2024.2.4,None,2025-02-28 14h18.44.509451 -0500,
86,86,0,critical,whd,20.0,3.0,upper,125.0,200.0,200.0,125.0,141.0,141.0,1,2.7501347064971924,None,,,,,0,0,0,0,0,86,86,93,468.87864661216736,,,,,,,,,,,,,,,,,,,,,,,,,,,,,,,,,,,,,,,,,,,,,,,,,,,,,,,,,,,,,,,,,,,,,,,,,,,,,,,,,125.0,200.0,200.0,125.0,141.0,141.0,3.0,3.2,-258,-277,0,13,229,265,468.864284992218,468.8643674850464,468.8678228855133,468.87864661216736,469.0308156013489,469.0308156013489,469.0308156013489,469.0308156013489,469.0308156013489,469.0308156013489,469.0308156013489,471.63093972206116,1,2.7501347064971924,None,,,,,,,,,,,,,,,,,,166,2,2025-02-28_14h18.28.277,comp,2024.2.4,None,2025-02-28 14h18.44.509451 -0500,
87,87,0,catch,None,None,None,None,None,None,None,None,None,None,2,3.795490026473999,None,,,,,0,0,0,0,0,87,87,125,471.64937019348145,,,,,,,,,,,,,,,,,,,,,,,,,,,,,,,,,,,,,,,,,,,,,,,,,,,,,,,,,,,,,,,,,,,,,,,,,,,,,,,,,111,79,126,199,133,57,1.0,1.2,-235,-2,0,-5,224,6,471.63304805755615,471.63313388824463,471.6360001564026,471.64937019348145,471.7949492931366,471.7949492931366,471.7949492931366,471.7949492931366,471.7949492931366,471.7949492931366,471.7949492931366,475.4476487636566,2,3.795490026473999,None,,,,,,,,,,,,,,,,,,166,2,2025-02-28_14h18.28.277,comp,2024.2.4,None,2025-02-28 14h18.44.509451 -0500,
88,88,0,filler_square,None,None,None,None,None,None,None,None,None,None,3,1.5647516250610352,None,,,,,0,0,0,0,0,88,88,175,475.46440529823303,,,,,,,,,,,,,,,,,,,,,,,,,,,,,,,,,,,,,,,,,,,,,,,,,,,,,,,,,,,,,,,,,,,,,,,,,,,,,,,,,72.75949336534882,122.20773046273976,75.78519963056394,123.25595452843426,194.27593667369828,194.27593667369828,3.0,3.2,-219,-254,0,-14,255,252,475.449711561203,475.4498267173767,475.4535970687866,475.46440529823303,475.61266565322876,475.61266565322876,475.61266565322876,475.61266565322876,475.61266565322876,475.61266565322876,475.61266565322876,477.04616141319275,3,1.5647516250610352,None,,,,,,,,,,,,,,,,,,166,2,2025-02-28_14h18.28.277,comp,2024.2.4,None,2025-02-28 14h18.44.509451 -0500,
89,89,0,critical,hdw,20.0,2.1,lower,133.0,57.0,78.0,78.0,57.0,133.0,3,2.4546680450439453,None,,,,,0,0,0,0,0,89,89,46,477.06211519241333,,,,,,,,,,,,,,,,,,,,,,,,,,,,,,,,,,,,,,,,,,,,,,,,,,,,,,,,,,,,,,,,,,,,,,,,,,,,,,,,,133.0,57.0,78.0,78.0,57.0,133.0,2.1,2.12,-164,-277,0,-288,202,279,477.0476243495941,477.047705411911,477.0518434047699,477.06211519241333,477.2141869068146,477.2141869068146,477.2141869068146,477.2141869068146,477.2141869068146,477.2141869068146,477.2141869068146,479.52954602241516,3,2.4546680450439453,None,,,,,,,,,,,,,,,,,,166,2,2025-02-28_14h18.28.277,comp,2024.2.4,None,2025-02-28 14h18.44.509451 -0500,
90,90,0,filler_square,None,None,None,None,None,None,None,None,None,None,2,1.9476490020751953,None,,,,,0,0,0,0,0,90,90,206,479.54576992988586,,,,,,,,,,,,,,,,,,,,,,,,,,,,,,,,,,,,,,,,,,,,,,,,,,,,,,,,,,,,,,,,,,,,,,,,,,,,,,,,,77.40176938690135,112.95786861911748,121.34538091300134,121.34538091300134,98.08969467672463,118.10497348117883,3.0,3.1,-213,270,0,11,216,-281,479.5313677787781,479.53145027160645,479.5344817638397,479.54576992988586,479.70056915283203,479.70056915283203,479.70056915283203,479.70056915283203,479.70056915283203,479.70056915283203,479.70056915283203,481.49741792678833,2,1.9476490020751953,None,,,,,,,,,,,,,,,,,,166,2,2025-02-28_14h18.28.277,comp,2024.2.4,None,2025-02-28 14h18.44.509451 -0500,
91,91,0,critical,wdh,35.0,4.0,upper,125.0,200.0,127.0,127.0,200.0,125.0,3,1.7629766464233398,None,,,,,0,0,0,0,0,91,91,77,481.5137343406677,,,,,,,,,,,,,,,,,,,,,,,,,,,,,,,,,,,,,,,,,,,,,,,,,,,,,,,,,,,,,,,,,,,,,,,,,,,,,,,,,125.0,200.0,127.0,127.0,200.0,125.0,4.0,4.1,-260,-254,0,-16,222,-282,481.49893617630005,481.49904322624207,481.5025084018707,481.5137343406677,481.6663475036621,481.6663475036621,481.6663475036621,481.6663475036621,481.6663475036621,481.6663475036621,481.6663475036621,483.28899025917053,3,1.7629766464233398,None,,,,,,,,,,,,,,,,,,166,2,2025-02-28_14h18.28.277,comp,2024.2.4,None,2025-02-28 14h18.44.509451 -0500,
92,92,0,critical,dwh,35.0,3.0,lower,70.0,70.0,57.0,133.0,133.0,57.0,2,3.6423850059509277,None,,,,,0,0,0,0,0,92,92,62,483.30632042884827,,,,,,,,,,,,,,,,,,,,,,,,,,,,,,,,,,,,,,,,,,,,,,,,,,,,,,,,,,,,,,,,,,,,,,,,,,,,,,,,,70.0,70.0,57.0,133.0,133.0,57.0,3.0,3.2,-198,-286,0,-3,191,256,483.29047203063965,483.29055309295654,483.293475151062,483.30632042884827,483.4477198123932,483.4477198123932,483.4477198123932,483.4477198123932,483.4477198123932,483.4477198123932,483.4477198123932,486.9651062488556,2,3.6423850059509277,None,,,,,,,,,,,,,,,,,,166,2,2025-02-28_14h18.28.277,comp,2024.2.4,None,2025-02-28 14h18.44.509451 -0500,
93,93,0,critical,hwd,20.0,2.1,lower,133.0,57.0,57.0,133.0,78.0,78.0,2,4.231554746627808,None,,,,,0,0,0,0,0,93,93,42,486.9815847873688,,,,,,,,,,,,,,,,,,,,,,,,,,,,,,,,,,,,,,,,,,,,,,,,,,,,,,,,,,,,,,,,,,,,,,,,,,,,,,,,,133.0,57.0,57.0,133.0,78.0,78.0,2.1,2.12,-191,-287,0,-288,202,275,486.96659803390503,486.96668100357056,486.9700436592102,486.9815847873688,487.13893461227417,487.13893461227417,487.13893461227417,487.13893461227417,487.13893461227417,487.13893461227417,487.13893461227417,491.2153081893921,2,4.231554746627808,None,,,,,,,,,,,,,,,,,,166,2,2025-02-28_14h18.28.277,comp,2024.2.4,None,2025-02-28 14h18.44.509451 -0500,
94,94,0,filler_random,None,None,None,None,None,None,None,None,None,None,3,1.77260422706604,None,,,,,0,0,0,0,0,94,94,148,491.2323031425476,,,,,,,,,,,,,,,,,,,,,,,,,,,,,,,,,,,,,,,,,,,,,,,,,,,,,,,,,,,,,,,,,,,,,,,,,,,,,,,,,120.9675755310684,64.01447444634707,129.59664663812748,95.55326743897133,100.38948102391345,163.8986277903224,1.0,1.3,304,-268,480,-283,706,-265,491.2170956134796,491.21721506118774,491.22053122520447,491.2323031425476,491.38374280929565,491.38374280929565,491.38374280929565,491.38374280929565,491.38374280929565,491.38374280929565,491.38374280929565,493.01913022994995,3,1.77260422706604,None,,,,,,,,,,,,,,,,,,166,2,2025-02-28_14h18.28.277,comp,2024.2.4,None,2025-02-28 14h18.44.509451 -0500,
95,95,0,filler_square,None,None,None,None,None,None,None,None,None,None,1,2.6108925342559814,None,,,,,0,0,0,0,0,95,95,205,493.03443145751953,,,,,,,,,,,,,,,,,,,,,,,,,,,,,,,,,,,,,,,,,,,,,,,,,,,,,,,,,,,,,,,,,,,,,,,,,,,,,,,,,142.61123799145713,142.61123799145713,67.22840749428886,75.12347529842155,94.70041504477743,132.9744225707447,4.0,4.2,-205,0,0,-285,200,3,493.0208659172058,493.02098393440247,493.0241746902466,493.03443145751953,493.18323493003845,493.18323493003845,493.18323493003845,493.18323493003845,493.18323493003845,493.18323493003845,493.18323493003845,495.6535096168518,1,2.6108925342559814,None,,,,,,,,,,,,,,,,,,166,2,2025-02-28_14h18.28.277,comp,2024.2.4,None,2025-02-28 14h18.44.509451 -0500,
96,96,0,critical,hwd,20.0,4.0,lower,133.0,57.0,57.0,133.0,78.0,78.0,2,3.4785871505737305,None,,,,,0,0,0,0,0,96,96,106,495.67012214660645,,,,,,,,,,,,,,,,,,,,,,,,,,,,,,,,,,,,,,,,,,,,,,,,,,,,,,,,,,,,,,,,,,,,,,,,,,,,,,,,,133.0,57.0,57.0,133.0,78.0,78.0,4.0,4.2,-191,6,0,-262,202,-4,495.6553292274475,495.6554157733917,495.65936040878296,495.67012214660645,495.8188428878784,495.8188428878784,495.8188428878784,495.8188428878784,495.8188428878784,495.8188428878784,495.8188428878784,499.152836561203,2,3.4785871505737305,None,,,,,,,,,,,,,,,,,,166,2,2025-02-28_14h18.28.277,comp,2024.2.4,None,2025-02-28 14h18.44.509451 -0500,
97,97,0,filler_square,None,None,None,None,None,None,None,None,None,None,3,1.0201084613800049,None,,,,,0,0,0,0,0,97,97,203,499.1688299179077,,,,,,,,,,,,,,,,,,,,,,,,,,,,,,,,,,,,,,,,,,,,,,,,,,,,,,,,,,,,,,,,,,,,,,,,,,,,,,,,,90.0012442955387,88.85447692043003,87.56058215081603,58.095603871752104,139.80279524459783,139.80279524459783,3.0,3.1,-169,262,0,19,195,-271,499.15464091300964,499.154718875885,499.1581392288208,499.1688299179077,499.31846809387207,499.31846809387207,499.31846809387207,499.31846809387207,499.31846809387207,499.31846809387207,499.31846809387207,500.20328187942505,3,1.0201084613800049,None,,,,,,,,,,,,,,,,,,166,2,2025-02-28_14h18.28.277,comp,2024.2.4,None,2025-02-28 14h18.44.509451 -0500,
98,98,0,critical,hdw,35.0,2.1,lower,133.0,57.0,70.0,70.0,57.0,133.0,1,2.8101577758789062,None,,,,,0,0,0,0,0,98,98,20,500.2185573577881,,,,,,,,,,,,,,,,,,,,,,,,,,,,,,,,,,,,,,,,,,,,,,,,,,,,,,,,,,,,,,,,,,,,,,,,,,,,,,,,,133.0,57.0,70.0,70.0,57.0,133.0,2.1,2.12,-160,-253,0,-280,198,251,500.20484805107117,500.20492815971375,500.20829129219055,500.2185573577881,500.37499380111694,500.37499380111694,500.37499380111694,500.37499380111694,500.37499380111694,500.37499380111694,500.37499380111694,503.03950905799866,1,2.8101577758789062,None,,,,,,,,,,,,,,,,,,166,2,2025-02-28_14h18.28.277,comp,2024.2.4,None,2025-02-28 14h18.44.509451 -0500,
99,99,0,critical,hdw,35.0,2.1,upper,200.0,125.0,127.0,127.0,125.0,200.0,1,2.8138575553894043,None,,,,,0,0,0,0,0,99,99,45,503.05581498146057,,,,,,,,,,,,,,,,,,,,,,,,,,,,,,,,,,,,,,,,,,,,,,,,,,,,,,,,,,,,,,,,,,,,,,,,,,,,,,,,,200.0,125.0,127.0,127.0,125.0,200.0,2.1,2.12,-222,-280,0,-250,260,271,503.0412232875824,503.04136085510254,503.04488372802734,503.05581498146057,503.2051622867584,503.2051622867584,503.2051622867584,503.2051622867584,503.2051622867584,503.2051622867584,503.2051622867584,505.8741202354431,1,2.8138575553894043,None,,,,,,,,,,,,,,,,,,166,2,2025-02-28_14h18.28.277,comp,2024.2.4,None,2025-02-28 14h18.44.509451 -0500,
100,100,0,filler_square,None,None,None,None,None,None,None,None,None,None,3,2.1059625148773193,None,,,,,0,0,0,0,0,100,100,186,505.8908975124359,,,,,,,,,,,,,,,,,,,,,,,,,,,,,,,,,,,,,,,,,,,,,,,,,,,,,,,,,,,,,,,,,,,,,,,,,,,,,,,,,139.1817825656123,101.56648360512557,155.78038315008297,89.1696277071369,158.35076389964695,158.35076389964695,2.2,2.22,-191,285,0,-260,220,-275,505.8762695789337,505.87635231018066,505.87960386276245,505.8908975124359,506.036119222641,506.036119222641,506.036119222641,506.036119222641,506.036119222641,506.036119222641,506.036119222641,508.01024055480957,3,2.1059625148773193,None,,,,,,,,,,,,,,,,,,166,2,2025-02-28_14h18.28.277,comp,2024.2.4,None,2025-02-28 14h18.44.509451 -0500,
101,101,0,critical,hdw,35.0,1.0,lower,133.0,57.0,70.0,70.0,57.0,133.0,1,3.4989612102508545,None,,,,,0,0,0,0,0,101,101,108,508.02588295936584,,,,,,,,,,,,,,,,,,,,,,,,,,,,,,,,,,,,,,,,,,,,,,,,,,,,,,,,,,,,,,,,,,,,,,,,,,,,,,,,,133.0,57.0,70.0,70.0,57.0,133.0,1.0,1.3,320,-274,480,-289,678,-260,508.01192140579224,508.0120520591736,508.0155313014984,508.02588295936584,508.1730773448944,508.1730773448944,508.1730773448944,508.1730773448944,508.1730773448944,508.1730773448944,508.1730773448944,511.53877091407776,1,3.4989612102508545,None,,,,,,,,,,,,,,,,,,166,2,2025-02-28_14h18.28.277,comp,2024.2.4,None,2025-02-28 14h18.44.509451 -0500,
102,102,0,critical,wdh,35.0,2.1,lower,57.0,133.0,70.0,70.0,133.0,57.0,3,1.5539610385894775,None,,,,,0,0,0,0,0,102,102,8,511.554847240448,,,,,,,,,,,,,,,,,,,,,,,,,,,,,,,,,,,,,,,,,,,,,,,,,,,,,,,,,,,,,,,,,,,,,,,,,,,,,,,,,57.0,133.0,70.0,70.0,133.0,57.0,2.1,2.11,-198,258,0,283,160,-288,511.54033303260803,511.5404124259949,511.5434248447418,511.554847240448,511.7107961177826,511.7107961177826,511.7107961177826,511.7107961177826,511.7107961177826,511.7107961177826,511.7107961177826,513.1108787059784,3,1.5539610385894775,None,,,,,,,,,,,,,,,,,,166,2,2025-02-28_14h18.28.277,comp,2024.2.4,None,2025-02-28 14h18.44.509451 -0500,
103,103,0,filler_random,None,None,None,None,None,None,None,None,None,None,1,2.7751283645629883,None,,,,,0,0,0,0,0,103,103,147,513.1273674964905,,,,,,,,,,,,,,,,,,,,,,,,,,,,,,,,,,,,,,,,,,,,,,,,,,,,,,,,,,,,,,,,,,,,,,,,,,,,,,,,,86.84240644760467,190.2573297074279,164.45752459019695,126.70215104322436,172.03267506383037,68.43356703253478,2.1,2.11,-254,286,0,274,194,-265,513.1128442287445,513.112934589386,513.1164238452911,513.1273674964905,513.2800705432892,513.2800705432892,513.2800705432892,513.2800705432892,513.2800705432892,513.2800705432892,513.2800705432892,515.9065234661102,1,2.7751283645629883,None,,,,,,,,,,,,,,,,,,166,2,2025-02-28_14h18.28.277,comp,2024.2.4,None,2025-02-28 14h18.44.509451 -0500,
104,104,0,critical,hwd,35.0,2.1,upper,200.0,125.0,125.0,200.0,127.0,127.0,1,2.201788902282715,None,,,,,0,0,0,0,0,104,104,41,515.9229838848114,,,,,,,,,,,,,,,,,,,,,,,,,,,,,,,,,,,,,,,,,,,,,,,,,,,,,,,,,,,,,,,,,,,,,,,,,,,,,,,,,200.0,125.0,125.0,200.0,127.0,127.0,2.1,2.12,-258,-250,0,-255,260,265,515.9079785346985,515.9080853462219,515.9109437465668,515.9229838848114,516.076678276062,516.076678276062,516.076678276062,516.076678276062,516.076678276062,516.076678276062,516.076678276062,518.1418738365173,1,2.201788902282715,None,,,,,,,,,,,,,,,,,,166,2,2025-02-28_14h18.28.277,comp,2024.2.4,None,2025-02-28 14h18.44.509451 -0500,
105,105,0,critical,hdw,35.0,2.1,lower,133.0,57.0,70.0,70.0,57.0,133.0,1,2.3621537685394287,None,,,,,0,0,0,0,0,105,105,44,518.1574382781982,,,,,,,,,,,,,,,,,,,,,,,,,,,,,,,,,,,,,,,,,,,,,,,,,,,,,,,,,,,,,,,,,,,,,,,,,,,,,,,,,133.0,57.0,70.0,70.0,57.0,133.0,2.1,2.12,-160,-269,0,-262,198,266,518.1434495449066,518.1435315608978,518.1466665267944,518.1574382781982,518.311537027359,518.311537027359,518.311537027359,518.311537027359,518.311537027359,518.311537027359,518.311537027359,520.5254595279694,1,2.3621537685394287,None,,,,,,,,,,,,,,,,,,166,2,2025-02-28_14h18.28.277,comp,2024.2.4,None,2025-02-28 14h18.44.509451 -0500,
106,106,0,critical,wdh,20.0,1.0,lower,57.0,133.0,78.0,78.0,133.0,57.0,1,2.3711705207824707,None,,,,,0,0,0,0,0,106,106,78,520.5455946922302,,,,,,,,,,,,,,,,,,,,,,,,,,,,,,,,,,,,,,,,,,,,,,,,,,,,,,,,,,,,,,,,,,,,,,,,,,,,,,,,,57.0,133.0,78.0,78.0,133.0,57.0,1.0,1.2,-202,7,0,-13,164,1,520.5269176959991,520.5269963741302,520.5302407741547,520.5455946922302,520.693309545517,520.693309545517,520.693309545517,520.693309545517,520.693309545517,520.693309545517,520.693309545517,522.9263663291931,1,2.3711705207824707,None,,,,,,,,,,,,,,,,,,166,2,2025-02-28_14h18.28.277,comp,2024.2.4,None,2025-02-28 14h18.44.509451 -0500,
107,107,0,critical,dwh,20.0,2.1,upper,141.0,141.0,125.0,200.0,200.0,125.0,2,2.631023645401001,None,,,,,0,0,0,0,0,107,107,7,522.9425392150879,,,,,,,,,,,,,,,,,,,,,,,,,,,,,,,,,,,,,,,,,,,,,,,,,,,,,,,,,,,,,,,,,,,,,,,,,,,,,,,,,141.0,141.0,125.0,200.0,200.0,125.0,2.1,2.11,-266,258,0,283,258,-253,522.9278998374939,522.9279825687408,522.9313704967499,522.9425392150879,523.1010041236877,523.1010041236877,523.1010041236877,523.1010041236877,523.1010041236877,523.1010041236877,523.1010041236877,525.5803124904633,2,2.631023645401001,None,,,,,,,,,,,,,,,,,,166,2,2025-02-28_14h18.28.277,comp,2024.2.4,None,2025-02-28 14h18.44.509451 -0500,
108,108,0,critical,hwd,20.0,2.1,upper,200.0,125.0,125.0,200.0,141.0,141.0,2,3.0157570838928223,None,,,,,0,0,0,0,0,108,108,19,525.597570180893,,,,,,,,,,,,,,,,,,,,,,,,,,,,,,,,,,,,,,,,,,,,,,,,,,,,,,,,,,,,,,,,,,,,,,,,,,,,,,,,,200.0,125.0,125.0,200.0,141.0,141.0,2.1,2.12,-258,-265,0,-257,266,280,525.5820593833923,525.5821435451508,525.5851075649261,525.597570180893,525.7437767982483,525.7437767982483,525.7437767982483,525.7437767982483,525.7437767982483,525.7437767982483,525.7437767982483,528.6325571537018,2,3.0157570838928223,None,,,,,,,,,,,,,,,,,,166,2,2025-02-28_14h18.28.277,comp,2024.2.4,None,2025-02-28 14h18.44.509451 -0500,
109,109,0,critical,whd,35.0,3.0,lower,57.0,133.0,133.0,57.0,70.0,70.0,1,2.498530149459839,None,,,,,0,0,0,0,0,109,109,86,528.6502804756165,,,,,,,,,,,,,,,,,,,,,,,,,,,,,,,,,,,,,,,,,,,,,,,,,,,,,,,,,,,,,,,,,,,,,,,,,,,,,,,,,57.0,133.0,133.0,57.0,70.0,70.0,3.0,3.1,-191,275,0,-1,160,-267,528.6343488693237,528.6344804763794,528.637640953064,528.6502804756165,528.7967252731323,528.7967252731323,528.7967252731323,528.7967252731323,528.7967252731323,528.7967252731323,528.7967252731323,531.1652474403381,1,2.498530149459839,None,,,,,,,,,,,,,,,,,,166,2,2025-02-28_14h18.28.277,comp,2024.2.4,None,2025-02-28 14h18.44.509451 -0500,
110,110,0,critical,hdw,35.0,1.0,upper,200.0,125.0,127.0,127.0,125.0,200.0,1,3.167311906814575,None,,,,,0,0,0,0,0,110,110,109,531.1810536384583,,,,,,,,,,,,,,,,,,,,,,,,,,,,,,,,,,,,,,,,,,,,,,,,,,,,,,,,,,,,,,,,,,,,,,,,,,,,,,,,,200.0,125.0,127.0,127.0,125.0,200.0,1.0,1.2,-222,0,0,1,260,18,531.1668717861176,531.1669535636902,531.1705658435822,531.1810536384583,531.3304755687714,531.3304755687714,531.3304755687714,531.3304755687714,531.3304755687714,531.3304755687714,531.3304755687714,534.3528318405151,1,3.167311906814575,None,,,,,,,,,,,,,,,,,,166,2,2025-02-28_14h18.28.277,comp,2024.2.4,None,2025-02-28 14h18.44.509451 -0500,
111,111,0,filler_random,None,None,None,None,None,None,None,None,None,None,1,6.892424821853638,None,,,,,0,0,0,0,0,111,111,137,534.3692030906677,,,,,,,,,,,,,,,,,,,,,,,,,,,,,,,,,,,,,,,,,,,,,,,,,,,,,,,,,,,,,,,,,,,,,,,,,,,,,,,,,176.2416263546841,133.6103585075962,189.91391534993645,87.62427874741029,165.03553678958679,139.86540540154468,2.1,2.11,-207,254,0,256,210,-254,534.3547692298889,534.3549029827118,534.3584384918213,534.3692030906677,534.5168962478638,534.5168962478638,534.5168962478638,534.5168962478638,534.5168962478638,534.5168962478638,534.5168962478638,541.2701795101166,1,6.892424821853638,None,,,,,,,,,,,,,,,,,,166,2,2025-02-28_14h18.28.277,comp,2024.2.4,None,2025-02-28 14h18.44.509451 -0500,
112,112,0,critical,hwd,20.0,4.0,upper,200.0,125.0,125.0,200.0,141.0,141.0,2,3.4199252128601074,None,,,,,0,0,0,0,0,112,112,107,541.2896916866302,,,,,,,,,,,,,,,,,,,,,,,,,,,,,,,,,,,,,,,,,,,,,,,,,,,,,,,,,,,,,,,,,,,,,,,,,,,,,,,,,200.0,125.0,125.0,200.0,141.0,141.0,4.0,4.2,-258,-14,0,-272,266,12,541.2717399597168,541.2718195915222,541.2747240066528,541.2896916866302,541.4335343837738,541.4335343837738,541.4335343837738,541.4335343837738,541.4335343837738,541.4335343837738,541.4335343837738,544.7166275978088,2,3.4199252128601074,None,,,,,,,,,,,,,,,,,,166,2,2025-02-28_14h18.28.277,comp,2024.2.4,None,2025-02-28 14h18.44.509451 -0500,
113,113,0,critical,dwh,35.0,3.0,upper,127.0,127.0,125.0,200.0,200.0,125.0,2,6.498266935348511,None,,,,,0,0,0,0,0,113,113,63,544.7386500835419,,,,,,,,,,,,,,,,,,,,,,,,,,,,,,,,,,,,,,,,,,,,,,,,,,,,,,,,,,,,,,,,,,,,,,,,,,,,,,,,,127.0,127.0,125.0,200.0,200.0,125.0,3.0,3.2,-260,-259,0,-19,258,274,544.7182338237762,544.7183406352997,544.7217497825623,544.7386500835419,544.8842635154724,544.8842635154724,544.8842635154724,544.8842635154724,544.8842635154724,544.8842635154724,544.8842635154724,551.2552673816681,2,6.498266935348511,None,,,,,,,,,,,,,,,,,,166,2,2025-02-28_14h18.28.277,comp,2024.2.4,None,2025-02-28 14h18.44.509451 -0500,
114,114,0,critical,wdh,35.0,2.1,upper,125.0,200.0,127.0,127.0,200.0,125.0,1,3.1331374645233154,None,,,,,0,0,0,0,0,114,114,33,551.2717790603638,,,,,,,,,,,,,,,,,,,,,,,,,,,,,,,,,,,,,,,,,,,,,,,,,,,,,,,,,,,,,,,,,,,,,,,,,,,,,,,,,125.0,200.0,127.0,127.0,200.0,125.0,2.1,2.12,-260,-270,0,-284,222,283,551.2569172382355,551.2569971084595,551.2598698139191,551.2717790603638,551.4207046031952,551.4207046031952,551.4207046031952,551.4207046031952,551.4207046031952,551.4207046031952,551.4207046031952,554.4194555282593,1,3.1331374645233154,None,,,,,,,,,,,,,,,,,,166,2,2025-02-28_14h18.28.277,comp,2024.2.4,None,2025-02-28 14h18.44.509451 -0500,
115,115,0,critical,dhw,20.0,2.1,upper,141.0,141.0,200.0,125.0,125.0,200.0,3,2.0737273693084717,None,,,,,0,0,0,0,0,115,115,27,554.435613155365,,,,,,,,,,,,,,,,,,,,,,,,,,,,,,,,,,,,,,,,,,,,,,,,,,,,,,,,,,,,,,,,,,,,,,,,,,,,,,,,,141.0,141.0,200.0,125.0,125.0,200.0,2.1,2.11,-229,251,0,267,258,-250,554.4209580421448,554.4210591316223,554.4242517948151,554.435613155365,554.5728557109833,554.5728557109833,554.5728557109833,554.5728557109833,554.5728557109833,554.5728557109833,554.5728557109833,556.5209903717041,3,2.0737273693084717,None,,,,,,,,,,,,,,,,,,166,2,2025-02-28_14h18.28.277,comp,2024.2.4,None,2025-02-28 14h18.44.509451 -0500,
116,116,0,critical,hwd,35.0,2.1,lower,133.0,57.0,57.0,133.0,70.0,70.0,1,4.0036656856536865,None,,,,,0,0,0,0,0,116,116,40,556.5375244617462,,,,,,,,,,,,,,,,,,,,,,,,,,,,,,,,,,,,,,,,,,,,,,,,,,,,,,,,,,,,,,,,,,,,,,,,,,,,,,,,,133.0,57.0,57.0,133.0,70.0,70.0,2.1,2.11,-191,256,0,286,198,-259,556.5224897861481,556.522572517395,556.5265538692474,556.5375244617462,556.6897759437561,556.6897759437561,556.6897759437561,556.6897759437561,556.6897759437561,556.6897759437561,556.6897759437561,560.5440895557404,1,4.0036656856536865,None,,,,,,,,,,,,,,,,,,166,2,2025-02-28_14h18.28.277,comp,2024.2.4,None,2025-02-28 14h18.44.509451 -0500,
117,117,0,filler_random,None,None,None,None,None,None,None,None,None,None,2,2.4683544635772705,None,,,,,0,0,0,0,0,117,117,135,560.5605850219727,,,,,,,,,,,,,,,,,,,,,,,,,,,,,,,,,,,,,,,,,,,,,,,,,,,,,,,,,,,,,,,,,,,,,,,,,,,,,,,,,100.43739884002522,169.245870888668,154.23243317896902,168.61761761674512,146.50355934021772,66.99655184402219,2.2,2.21,-265,-289,0,251,214,281,560.5458226203918,560.5459055900574,560.5489611625671,560.5605850219727,560.7083899974823,560.7083899974823,560.7083899974823,560.7083899974823,560.7083899974823,560.7083899974823,560.7083899974823,563.0422163009644,2,2.4683544635772705,None,,,,,,,,,,,,,,,,,,166,2,2025-02-28_14h18.28.277,comp,2024.2.4,None,2025-02-28 14h18.44.509451 -0500,
118,118,0,critical,hwd,35.0,3.0,lower,133.0,57.0,57.0,133.0,70.0,70.0,2,2.4509692192077637,None,,,,,0,0,0,0,0,118,118,98,563.058057308197,,,,,,,,,,,,,,,,,,,,,,,,,,,,,,,,,,,,,,,,,,,,,,,,,,,,,,,,,,,,,,,,,,,,,,,,,,,,,,,,,133.0,57.0,57.0,133.0,70.0,70.0,3.0,3.2,-191,-253,0,-14,198,284,563.0439269542694,563.0440721511841,563.0470898151398,563.058057308197,563.2082245349884,563.2082245349884,563.2082245349884,563.2082245349884,563.2082245349884,563.2082245349884,563.2082245349884,565.5252346992493,2,2.4509692192077637,None,,,,,,,,,,,,,,,,,,166,2,2025-02-28_14h18.28.277,comp,2024.2.4,None,2025-02-28 14h18.44.509451 -0500,
119,119,0,catch,None,None,None,None,None,None,None,None,None,None,2,1.4303719997406006,None,,,,,0,0,0,0,0,119,119,127,565.5429217815399,,,,,,,,,,,,,,,,,,,,,,,,,,,,,,,,,,,,,,,,,,,,,,,,,,,,,,,,,,,,,,,,,,,,,,,,,,,,,,,,,110,80,138,187,75,115,4.0,4.1,-230,-278,0,-8,247,-275,565.5272898674011,565.5273725986481,565.5303239822388,565.5429217815399,565.6903424263,565.6903424263,565.6903424263,565.6903424263,565.6903424263,565.6903424263,565.6903424263,566.990790605545,2,1.4303719997406006,None,,,,,,,,,,,,,,,,,,166,2,2025-02-28_14h18.28.277,comp,2024.2.4,None,2025-02-28 14h18.44.509451 -0500,
120,120,0,critical,dwh,20.0,3.0,upper,141.0,141.0,125.0,200.0,200.0,125.0,3,3.0151124000549316,None,,,,,0,0,0,0,0,120,120,69,567.0066089630127,,,,,,,,,,,,,,,,,,,,,,,,,,,,,,,,,,,,,,,,,,,,,,,,,,,,,,,,,,,,,,,,,,,,,,,,,,,,,,,,,141.0,141.0,125.0,200.0,200.0,125.0,3.0,3.2,-266,-269,0,4,258,281,566.992440700531,566.9925243854523,566.996034860611,567.0066089630127,567.1604418754578,567.1604418754578,567.1604418754578,567.1604418754578,567.1604418754578,567.1604418754578,567.1604418754578,570.0302171707153,3,3.0151124000549316,None,,,,,,,,,,,,,,,,,,166,2,2025-02-28_14h18.28.277,comp,2024.2.4,None,2025-02-28 14h18.44.509451 -0500,
121,121,0,critical,dwh,35.0,2.1,lower,70.0,70.0,57.0,133.0,133.0,57.0,2,4.0298497676849365,None,,,,,0,0,0,0,0,121,121,4,570.0478296279907,,,,,,,,,,,,,,,,,,,,,,,,,,,,,,,,,,,,,,,,,,,,,,,,,,,,,,,,,,,,,,,,,,,,,,,,,,,,,,,,,70.0,70.0,57.0,133.0,133.0,57.0,2.1,2.11,-198,275,0,289,191,-251,570.0316984653473,570.0317804813385,570.0346829891205,570.0478296279907,570.192538022995,570.192538022995,570.192538022995,570.192538022995,570.192538022995,570.192538022995,570.192538022995,574.099279165268,2,4.0298497676849365,None,,,,,,,,,,,,,,,,,,166,2,2025-02-28_14h18.28.277,comp,2024.2.4,None,2025-02-28 14h18.44.509451 -0500,
122,122,0,critical,whd,20.0,2.1,lower,57.0,133.0,133.0,57.0,78.0,78.0,1,3.5186052322387695,None,,,,,0,0,0,0,0,122,122,38,574.1191093921661,,,,,,,,,,,,,,,,,,,,,,,,,,,,,,,,,,,,,,,,,,,,,,,,,,,,,,,,,,,,,,,,,,,,,,,,,,,,,,,,,57.0,133.0,133.0,57.0,78.0,78.0,2.1,2.12,-191,-253,0,-252,164,283,574.1008422374725,574.1009244918823,574.1038537025452,574.1191093921661,574.2612619400024,574.2612619400024,574.2612619400024,574.2612619400024,574.2612619400024,574.2612619400024,574.2612619400024,577.6481046676636,1,3.5186052322387695,None,,,,,,,,,,,,,,,,,,166,2,2025-02-28_14h18.28.277,comp,2024.2.4,None,2025-02-28 14h18.44.509451 -0500,
123,123,0,critical,dwh,20.0,3.0,lower,78.0,78.0,57.0,133.0,133.0,57.0,3,2.077186346054077,None,,,,,0,0,0,0,0,123,123,68,577.664267539978,,,,,,,,,,,,,,,,,,,,,,,,,,,,,,,,,,,,,,,,,,,,,,,,,,,,,,,,,,,,,,,,,,,,,,,,,,,,,,,,,78.0,78.0,57.0,133.0,133.0,57.0,3.0,3.2,-202,-282,0,-18,191,278,577.6497557163239,577.6498920917511,577.6535234451294,577.664267539978,577.8114144802094,577.8114144802094,577.8114144802094,577.8114144802094,577.8114144802094,577.8114144802094,577.8114144802094,579.7605264186859,3,2.077186346054077,None,,,,,,,,,,,,,,,,,,166,2,2025-02-28_14h18.28.277,comp,2024.2.4,None,2025-02-28 14h18.44.509451 -0500,
124,124,0,critical,dhw,35.0,2.1,lower,70.0,70.0,133.0,57.0,57.0,133.0,2,2.4611239433288574,None,,,,,0,0,0,0,0,124,124,24,579.7766301631927,,,,,,,,,,,,,,,,,,,,,,,,,,,,,,,,,,,,,,,,,,,,,,,,,,,,,,,,,,,,,,,,,,,,,,,,,,,,,,,,,70.0,70.0,133.0,57.0,57.0,133.0,2.1,2.12,-160,-266,0,-286,191,272,579.7620077133179,579.7621104717255,579.765308380127,579.7766301631927,579.9246075153351,579.9246075153351,579.9246075153351,579.9246075153351,579.9246075153351,579.9246075153351,579.9246075153351,582.2460951805115,2,2.4611239433288574,None,,,,,,,,,,,,,,,,,,166,2,2025-02-28_14h18.28.277,comp,2024.2.4,None,2025-02-28 14h18.44.509451 -0500,
125,125,0,critical,whd,35.0,1.0,upper,125.0,200.0,200.0,125.0,127.0,127.0,2,2.5934104919433594,None,,,,,0,0,0,0,0,125,125,85,582.260479927063,,,,,,,,,,,,,,,,,,,,,,,,,,,,,,,,,,,,,,,,,,,,,,,,,,,,,,,,,,,,,,,,,,,,,,,,,,,,,,,,,125.0,200.0,200.0,125.0,127.0,127.0,1.0,1.1,-738,285,-480,253,-258,257,582.2476432323456,582.2477271556854,582.2509191036224,582.260479927063,582.4158430099487,582.4158430099487,582.4158430099487,582.4158430099487,582.4158430099487,582.4158430099487,582.4158430099487,584.8618619441986,2,2.5934104919433594,None,,,,,,,,,,,,,,,,,,166,2,2025-02-28_14h18.28.277,comp,2024.2.4,None,2025-02-28 14h18.44.509451 -0500,
126,126,0,filler_random,None,None,None,None,None,None,None,None,None,None,3,5.487591743469238,None,,,,,0,0,0,0,0,126,126,146,584.8784177303314,,,,,,,,,,,,,,,,,,,,,,,,,,,,,,,,,,,,,,,,,,,,,,,,,,,,,,,,,,,,,,,,,,,,,,,,,,,,,,,,,199.38731454058293,63.97612742711213,110.8434181469353,116.91726579837982,123.88376818368756,131.25409943599772,2.2,2.21,-186,-251,0,275,220,289,584.8634338378906,584.8635110855103,584.8665442466736,584.8784177303314,585.0150458812714,585.0150458812714,585.0150458812714,585.0150458812714,585.0150458812714,585.0150458812714,585.0150458812714,590.3690936565399,3,5.487591743469238,None,,,,,,,,,,,,,,,,,,166,2,2025-02-28_14h18.28.277,comp,2024.2.4,None,2025-02-28 14h18.44.509451 -0500,
127,127,0,filler_square,None,None,None,None,None,None,None,None,None,None,1,2.3158490657806396,None,,,,,0,0,0,0,0,127,127,177,590.3851709365845,,,,,,,,,,,,,,,,,,,,,,,,,,,,,,,,,,,,,,,,,,,,,,,,,,,,,,,,,,,,,,,,,,,,,,,,,,,,,,,,,126.10936385871022,126.10936385871022,87.82791930993244,111.54830737359447,117.90385389171965,97.30834664024695,4.0,4.1,-215,-264,0,-8,200,-285,590.3710708618164,590.3711533546448,590.3743371963501,590.3851709365845,590.5316836833954,590.5316836833954,590.5316836833954,590.5316836833954,590.5316836833954,590.5316836833954,590.5316836833954,592.7167885303497,1,2.3158490657806396,None,,,,,,,,,,,,,,,,,,166,2,2025-02-28_14h18.28.277,comp,2024.2.4,None,2025-02-28 14h18.44.509451 -0500,
128,128,0,critical,whd,35.0,2.1,upper,125.0,200.0,200.0,125.0,127.0,127.0,2,1.2903168201446533,None,,,,,0,0,0,0,0,128,128,13,592.7320866584778,,,,,,,,,,,,,,,,,,,,,,,,,,,,,,,,,,,,,,,,,,,,,,,,,,,,,,,,,,,,,,,,,,,,,,,,,,,,,,,,,125.0,200.0,200.0,125.0,127.0,127.0,2.1,2.11,-258,270,0,289,222,-268,592.7183611392975,592.7184422016144,592.7217881679535,592.7320866584778,592.8752067089081,592.8752067089081,592.8752067089081,592.8752067089081,592.8752067089081,592.8752067089081,592.8752067089081,594.033171415329,2,1.2903168201446533,None,,,,,,,,,,,,,,,,,,166,2,2025-02-28_14h18.28.277,comp,2024.2.4,None,2025-02-28 14h18.44.509451 -0500,
129,129,0,critical,whd,35.0,2.1,lower,57.0,133.0,133.0,57.0,70.0,70.0,2,1.900012493133545,None,,,,,0,0,0,0,0,129,129,12,594.0492107868195,,,,,,,,,,,,,,,,,,,,,,,,,,,,,,,,,,,,,,,,,,,,,,,,,,,,,,,,,,,,,,,,,,,,,,,,,,,,,,,,,57.0,133.0,133.0,57.0,70.0,70.0,2.1,2.12,-191,-279,0,-258,160,253,594.0347168445587,594.034797668457,594.0380039215088,594.0492107868195,594.2007234096527,594.2007234096527,594.2007234096527,594.2007234096527,594.2007234096527,594.2007234096527,594.2007234096527,595.9555058479309,2,1.900012493133545,None,,,,,,,,,,,,,,,,,,166,2,2025-02-28_14h18.28.277,comp,2024.2.4,None,2025-02-28 14h18.44.509451 -0500,
130,130,0,critical,wdh,20.0,2.1,lower,57.0,133.0,78.0,78.0,133.0,57.0,1,2.776026487350464,None,,,,,0,0,0,0,0,130,130,10,595.973081111908,,,,,,,,,,,,,,,,,,,,,,,,,,,,,,,,,,,,,,,,,,,,,,,,,,,,,,,,,,,,,,,,,,,,,,,,,,,,,,,,,57.0,133.0,78.0,78.0,133.0,57.0,2.1,2.11,-202,268,0,259,164,-256,595.9569869041443,595.957102060318,595.9599249362946,595.973081111908,596.1169662475586,596.1169662475586,596.1169662475586,596.1169662475586,596.1169662475586,596.1169662475586,596.1169662475586,598.7644209861755,1,2.776026487350464,None,,,,,,,,,,,,,,,,,,166,2,2025-02-28_14h18.28.277,comp,2024.2.4,None,2025-02-28 14h18.44.509451 -0500,
131,131,0,filler_random,None,None,None,None,None,None,None,None,None,None,2,1.0968916416168213,None,,,,,0,0,0,0,0,131,131,141,598.7801752090454,,,,,,,,,,,,,,,,,,,,,,,,,,,,,,,,,,,,,,,,,,,,,,,,,,,,,,,,,,,,,,,,,,,,,,,,,,,,,,,,,57.0077493650395,95.67555186434478,162.43812143062024,77.48567772628296,103.18708101116322,58.498883042577816,3.0,3.2,-183,-264,0,-4,164,285,598.7661085128784,598.7661907672882,598.7690930366516,598.7801752090454,598.9179191589355,598.9179191589355,598.9179191589355,598.9179191589355,598.9179191589355,598.9179191589355,598.9179191589355,599.8921377658844,2,1.0968916416168213,None,,,,,,,,,,,,,,,,,,166,2,2025-02-28_14h18.28.277,comp,2024.2.4,None,2025-02-28 14h18.44.509451 -0500,
132,132,0,critical,hdw,35.0,4.0,lower,133.0,57.0,70.0,70.0,57.0,133.0,3,2.087939500808716,None,,,,,0,0,0,0,0,132,132,112,599.909416437149,,,,,,,,,,,,,,,,,,,,,,,,,,,,,,,,,,,,,,,,,,,,,,,,,,,,,,,,,,,,,,,,,,,,,,,,,,,,,,,,,133.0,57.0,70.0,70.0,57.0,133.0,4.0,4.2,-160,4,0,-273,198,-15,599.8936858177185,599.8937649726868,599.8967080116272,599.909416437149,600.050674200058,600.050674200058,600.050674200058,600.050674200058,600.050674200058,600.050674200058,600.050674200058,602.0008852481842,3,2.087939500808716,None,,,,,,,,,,,,,,,,,,166,2,2025-02-28_14h18.28.277,comp,2024.2.4,None,2025-02-28 14h18.44.509451 -0500,
133,133,0,critical,hdw,35.0,2.1,upper,200.0,125.0,127.0,127.0,125.0,200.0,3,3.186516761779785,None,,,,,0,0,0,0,0,133,133,21,602.0186786651611,,,,,,,,,,,,,,,,,,,,,,,,,,,,,,,,,,,,,,,,,,,,,,,,,,,,,,,,,,,,,,,,,,,,,,,,,,,,,,,,,200.0,125.0,127.0,127.0,125.0,200.0,2.1,2.11,-222,277,0,262,260,-281,602.0024039745331,602.00248503685,602.0057320594788,602.0186786651611,602.1763634681702,602.1763634681702,602.1763634681702,602.1763634681702,602.1763634681702,602.1763634681702,602.1763634681702,605.21963763237,3,3.186516761779785,None,,,,,,,,,,,,,,,,,,166,2,2025-02-28_14h18.28.277,comp,2024.2.4,None,2025-02-28 14h18.44.509451 -0500,
134,134,0,filler_random,None,None,None,None,None,None,None,None,None,None,3,1.441812515258789,None,,,,,0,0,0,0,0,134,134,143,605.2359342575073,,,,,,,,,,,,,,,,,,,,,,,,,,,,,,,,,,,,,,,,,,,,,,,,,,,,,,,,,,,,,,,,,,,,,,,,,,,,,,,,,194.1433115782694,57.63927687184973,95.9792281959223,101.70086617955451,140.49662274149722,191.22795146077698,4.0,4.2,-176,-17,0,-272,242,-12,605.2213628292084,605.2214410305023,605.2247817516327,605.2359342575073,605.3849742412567,605.3849742412567,605.3849742412567,605.3849742412567,605.3849742412567,605.3849742412567,605.3849742412567,606.6873188018799,3,1.441812515258789,None,,,,,,,,,,,,,,,,,,166,2,2025-02-28_14h18.28.277,comp,2024.2.4,None,2025-02-28 14h18.44.509451 -0500,
135,135,0,catch,None,None,None,None,None,None,None,None,None,None,3,1.207258701324463,None,,,,,0,0,0,0,0,135,135,121,606.7039976119995,,,,,,,,,,,,,,,,,,,,,,,,,,,,,,,,,,,,,,,,,,,,,,,,,,,,,,,,,,,,,,,,,,,,,,,,,,,,,,,,,74,116,133,57,134,191,2.2,2.21,-182,-261,0,278,220,264,606.6894435882568,606.6895263195038,606.6930460929871,606.7039976119995,606.8542821407318,606.8542821407318,606.8542821407318,606.8542821407318,606.8542821407318,606.8542821407318,606.8542821407318,607.9217312335968,3,1.207258701324463,None,,,,,,,,,,,,,,,,,,166,2,2025-02-28_14h18.28.277,comp,2024.2.4,None,2025-02-28 14h18.44.509451 -0500,
136,136,0,critical,dhw,35.0,1.0,lower,70.0,70.0,133.0,57.0,57.0,133.0,2,2.2136318683624268,None,,,,,0,0,0,0,0,136,136,48,607.9360041618347,,,,,,,,,,,,,,,,,,,,,,,,,,,,,,,,,,,,,,,,,,,,,,,,,,,,,,,,,,,,,,,,,,,,,,,,,,,,,,,,,70.0,70.0,133.0,57.0,57.0,133.0,1.0,1.2,-160,7,0,-1,191,4,607.9232966899872,607.9233796596527,607.9265580177307,607.9360041618347,608.0873255729675,608.0873255729675,608.0873255729675,608.0873255729675,608.0873255729675,608.0873255729675,608.0873255729675,610.1577525138855,2,2.2136318683624268,None,,,,,,,,,,,,,,,,,,166,2,2025-02-28_14h18.28.277,comp,2024.2.4,None,2025-02-28 14h18.44.509451 -0500,
137,137,0,filler_random,None,None,None,None,None,None,None,None,None,None,2,2.0214357376098633,None,,,,,0,0,0,0,0,137,137,136,610.176983833313,,,,,,,,,,,,,,,,,,,,,,,,,,,,,,,,,,,,,,,,,,,,,,,,,,,,,,,,,,,,,,,,,,,,,,,,,,,,,,,,,141.17023389826537,115.14198768978906,175.0503263452814,188.08010441951575,158.0535116528762,130.30122460352686,3.0,3.1,-248,289,0,19,255,-286,610.1596088409424,610.1597447395325,610.1630642414093,610.176983833313,610.3221845626831,610.3221845626831,610.3221845626831,610.3221845626831,610.3221845626831,610.3221845626831,610.3221845626831,612.2040898799896,2,2.0214357376098633,None,,,,,,,,,,,,,,,,,,166,2,2025-02-28_14h18.28.277,comp,2024.2.4,None,2025-02-28 14h18.44.509451 -0500,
138,138,0,filler_random,None,None,None,None,None,None,None,None,None,None,1,2.0805234909057617,None,,,,,0,0,0,0,0,138,138,154,612.2206354141235,,,,,,,,,,,,,,,,,,,,,,,,,,,,,,,,,,,,,,,,,,,,,,,,,,,,,,,,,,,,,,,,,,,,,,,,,,,,,,,,,199.2989843434006,126.92211247480935,113.29397114792741,179.86714747361515,101.76462385322768,102.8108361400181,2.1,2.11,-249,278,0,285,237,-283,612.205730676651,612.2058107852936,612.208958864212,612.2206354141235,612.3757607936859,612.3757607936859,612.3757607936859,612.3757607936859,612.3757607936859,612.3757607936859,612.3757607936859,614.3102917671204,1,2.0805234909057617,None,,,,,,,,,,,,,,,,,,166,2,2025-02-28_14h18.28.277,comp,2024.2.4,None,2025-02-28 14h18.44.509451 -0500,
139,139,0,critical,whd,20.0,4.0,lower,57.0,133.0,133.0,57.0,78.0,78.0,1,4.448789596557617,None,,,,,0,0,0,0,0,139,139,94,614.3245089054108,,,,,,,,,,,,,,,,,,,,,,,,,,,,,,,,,,,,,,,,,,,,,,,,,,,,,,,,,,,,,,,,,,,,,,,,,,,,,,,,,57.0,133.0,133.0,57.0,78.0,78.0,4.0,4.1,-191,-272,0,-13,164,-272,614.3118085861206,614.3118922710419,614.314914226532,614.3245089054108,614.4721343517303,614.4721343517303,614.4721343517303,614.4721343517303,614.4721343517303,614.4721343517303,614.4721343517303,618.7916321754456,1,4.448789596557617,None,,,,,,,,,,,,,,,,,,166,2,2025-02-28_14h18.28.277,comp,2024.2.4,None,2025-02-28 14h18.44.509451 -0500,
140,140,0,filler_square,None,None,None,None,None,None,None,None,None,None,1,1.7728242874145508,None,,,,,0,0,0,0,0,140,140,201,618.8084433078766,,,,,,,,,,,,,,,,,,,,,,,,,,,,,,,,,,,,,,,,,,,,,,,,,,,,,,,,,,,,,,,,,,,,,,,,,,,,,,,,,176.80655867212016,176.80655867212016,76.28529292434064,79.18778668508543,156.6263097795407,146.6455124400421,1.0,1.1,-704,259,-480,266,-271,282,618.7933804988861,618.7934708595276,618.7973330020905,618.8084433078766,618.9592802524567,618.9592802524567,618.9592802524567,618.9592802524567,618.9592802524567,618.9592802524567,618.9592802524567,620.5906221866608,1,1.7728242874145508,None,,,,,,,,,,,,,,,,,,166,2,2025-02-28_14h18.28.277,comp,2024.2.4,None,2025-02-28 14h18.44.509451 -0500,
141,141,0,critical,hdw,20.0,2.1,lower,133.0,57.0,78.0,78.0,57.0,133.0,1,3.6318917274475098,None,,,,,0,0,0,0,0,141,141,22,620.6058731079102,,,,,,,,,,,,,,,,,,,,,,,,,,,,,,,,,,,,,,,,,,,,,,,,,,,,,,,,,,,,,,,,,,,,,,,,,,,,,,,,,133.0,57.0,78.0,78.0,57.0,133.0,2.1,2.11,-164,278,0,282,202,-253,620.5920660495758,620.5921468734741,620.5950284004211,620.6058731079102,620.7589643001556,620.7589643001556,620.7589643001556,620.7589643001556,620.7589643001556,620.7589643001556,620.7589643001556,624.244960308075,1,3.6318917274475098,None,,,,,,,,,,,,,,,,,,166,2,2025-02-28_14h18.28.277,comp,2024.2.4,None,2025-02-28 14h18.44.509451 -0500,
142,142,0,critical,dwh,35.0,1.0,lower,70.0,70.0,57.0,133.0,133.0,57.0,3,1.6957848072052002,None,,,,,0,0,0,0,0,142,142,60,624.2615053653717,,,,,,,,,,,,,,,,,,,,,,,,,,,,,,,,,,,,,,,,,,,,,,,,,,,,,,,,,,,,,,,,,,,,,,,,,,,,,,,,,70.0,70.0,57.0,133.0,133.0,57.0,1.0,1.1,-678,282,-480,260,-289,282,624.2467851638794,624.2468707561493,624.2507524490356,624.2615053653717,624.4098427295685,624.4098427295685,624.4098427295685,624.4098427295685,624.4098427295685,624.4098427295685,624.4098427295685,625.9591946601868,3,1.6957848072052002,None,,,,,,,,,,,,,,,,,,166,2,2025-02-28_14h18.28.277,comp,2024.2.4,None,2025-02-28 14h18.44.509451 -0500,
143,143,0,critical,hdw,20.0,3.0,upper,200.0,125.0,141.0,141.0,125.0,200.0,1,2.2546162605285645,None,,,,,0,0,0,0,0,143,143,117,625.9745807647705,,,,,,,,,,,,,,,,,,,,,,,,,,,,,,,,,,,,,,,,,,,,,,,,,,,,,,,,,,,,,,,,,,,,,,,,,,,,,,,,,200.0,125.0,141.0,141.0,125.0,200.0,3.0,3.1,-229,272,0,11,266,-288,625.9605987071991,625.9606795310974,625.9637169837952,625.9745807647705,626.128110408783,626.128110408783,626.128110408783,626.128110408783,626.128110408783,626.128110408783,626.128110408783,628.2436232566833,1,2.2546162605285645,None,,,,,,,,,,,,,,,,,,166,2,2025-02-28_14h18.28.277,comp,2024.2.4,None,2025-02-28 14h18.44.509451 -0500,
