thisN,thisTrialN,thisRepN,effect,order,distance,config,diag,h_1,w_1,h_2,w_2,h_3,w_3,rect_choice.keys,rect_choice.rt,rect_choice.duration,instructions_loop.thisRepN,instructions_loop.thisTrialN,instructions_loop.thisN,instructions_loop.thisIndex,blocks.thisRepN,blocks.thisTrialN,blocks.thisN,blocks.thisIndex,trials.thisRepN,trials.thisTrialN,trials.thisN,trials.thisIndex,thisRow.t,notes,consent.started,agree_button.started,decline_button.started,consent_img.started,mouse.started,consent.stopped,agree_button.numClicks,agree_button.timesOn,agree_button.timesOff,decline_button.numClicks,decline_button.timesOn,decline_button.timesOff,mouse.x,mouse.y,mouse.leftButton,mouse.midButton,mouse.rightButton,mouse.time,mouse.clicked_name,exp_params.started,exp_params.stopped,welcome.started,welcome_text.started,welcome.stopped,instructions_1.started,instructions_1_text_1.started,instructions_1_text_2.started,key_resp.started,instructions_1.stopped,instructions_loop.key_resp.keys,instructions_loop.key_resp.rt,instructions_loop.key_resp.duration,instructions_2.started,instructions_2_text_1.started,instructions_2_text_2.started,key_resp_2.started,instructions_2.stopped,instructions_loop.key_resp_2.keys,instructions_loop.key_resp_2.rt,instructions_loop.key_resp_2.duration,instructions_3.started,instructions_3_text_1.started,r1_instr3.started,r2_instr3.started,r3_instr3.started,r1_instr3_label.started,r2_instr3_label.started,r3_instr3_label.started,instructions_3_text_3.started,instructions_3_text_4.started,key_resp_3.started,instructions_3.stopped,instructions_loop.key_resp_3.keys,instructions_loop.key_resp_3.rt,instructions_loop.key_resp_3.duration,instructions_4.started,instructions_4_text_1.started,instructions_4_text_3.started,instructions_4_text_2.started,key_resp_4.started,instructions_4.stopped,instructions_loop.key_resp_4.keys,instructions_loop.key_resp_4.rt,instructions_loop.key_resp_4.duration,instructions_5.started,instructions_5_text_1.started,instructions_5_text_2.started,key_resp_5.started,instructions_5.stopped,instructions_loop.key_resp_5.keys,instructions_loop.key_resp_5.rt,instructions_loop.key_resp_5.duration,start_exp.started,start_exp_text.started,key_resp_6.started,start_exp.stopped,key_resp_6.keys,key_resp_6.rt,key_resp_6.duration,h_1_tmp,w_1_tmp,h_2_tmp,w_2_tmp,h_3_tmp,w_3_tmp,config_tmp,config_tmp_1,r_1_x,r_1_y,r_2_x,r_2_y,r_3_x,r_3_y,pre_trial.started,pre_trial.stopped,choice_trial.started,rect_choice.started,r_1.started,r_2.started,r_3.started,r_1_label.started,r_2_label.started,r_3_label.started,prompt.started,choice_trial.stopped,trials.rect_choice.keys,trials.rect_choice.rt,trials.rect_choice.duration,end_block.started,end_block_text.started,end_block.stopped,end.started,end_text.started,key_resp_7.started,end.stopped,key_resp_7.keys,key_resp_7.rt,key_resp_7.duration,debriefing.started,debrief_form.started,end_debrief.started,debriefing.stopped,end_debrief.keys,end_debrief.rt,end_debrief.duration,participant,computer,date,expName,psychopyVersion,frameRate,expStart,
,,,,,,,,,,,,,,,,,,,,,,,,,,,,,,,0.015613079071044922,0.041875600814819336,0.041875600814819336,0.041875600814819336,0.015175104141235352,46.52385663986206,1,[46.48073601722717],[46.48074769973755],0,,,[-82.0],[-508.0],[1],[0],[0],[46.507712602615356],['agree_button'],,,,,,,,,,,,,,,,,,,,,,,,,,,,,,,,,,,,,,,,,,,,,,,,,,,,,,,,,,,,,,,,,,,,,,,,,,,,,,,,,,,,,,,,,,,,,,,,,,,,,,,,,,,167,3,2025-02-28_14h22.04.797,comp,2024.2.4,60.9344936295091,2025-02-28 14h22.19.064710 -0500,
,,,,,,,,,,,,,,,,,,,,,,,,,,,,,,,,,,,,,,,,,,,,,,,,,,46.52412152290344,46.52415704727173,,,,,,,,,,,,,,,,,,,,,,,,,,,,,,,,,,,,,,,,,,,,,,,,,,,,,,,,,,,,,,,,,,,,,,,,,,,,,,,,,,,,,,,,,,,,,,,,,,,,,,,,,167,3,2025-02-28_14h22.04.797,comp,2024.2.4,60.9344936295091,2025-02-28 14h22.19.064710 -0500,
,,,,,,,,,,,,,,,,,,,,,,,,,,,,,,,,,,,,,,,,,,,,,,,,,,,,46.5241801738739,46.537806034088135,48.52589964866638,,,,,,,,,,,,,,,,,,,,,,,,,,,,,,,,,,,,,,,,,,,,,,,,,,,,,,,,,,,,,,,,,,,,,,,,,,,,,,,,,,,,,,,,,,,,,,,,,,,,,,167,3,2025-02-28_14h22.04.797,comp,2024.2.4,60.9344936295091,2025-02-28 14h22.19.064710 -0500,
0,0,0,,,,,,,,,,,,,,,0,0,0,0,,,,,,,,,48.54263114929199,,,,,,,,,,,,,,,,,,,,,,,,,,48.526477098464966,48.54263114929199,48.54263114929199,50.02618193626404,54.24390506744385,space,4.200237274169922,None,54.243988275527954,54.259361028671265,54.259361028671265,55.759151220321655,63.22693371772766,space,7.450965166091919,None,63.22701859474182,63.250319719314575,63.250319719314575,63.250319719314575,63.250319719314575,63.250319719314575,63.250319719314575,63.250319719314575,63.250319719314575,63.250319719314575,64.72626090049744,70.59414505958557,space,5.8518288135528564,None,70.59425640106201,70.60930037498474,70.60930037498474,70.60930037498474,72.10913944244385,79.74346995353699,space,7.621216297149658,None,79.74355626106262,79.75900483131409,79.75900483131409,81.25896120071411,82.87661695480347,space,1.6002967357635498,None,82.87672972679138,82.89223623275757,82.89223623275757,84.15991473197937,space,1.2626914978027344,None,,,,,,,,,,,,,,,,,,,,,,,,,,,,,,,,,,,,,,,,,,,,,,,167,3,2025-02-28_14h22.04.797,comp,2024.2.4,60.9344936295091,2025-02-28 14h22.19.064710 -0500,
0,0,0,critical,dwh,35.0,3.0,lower,70.0,70.0,57.0,133.0,133.0,57.0,3,15.711783170700073,None,,,,,0,0,0,0,0,0,0,62,84.21840977668762,,,,,,,,,,,,,,,,,,,,,,,,,,,,,,,,,,,,,,,,,,,,,,,,,,,,,,,,,,,,,,,,,,,,,,,,,,,,,,,,,70.0,70.0,57.0,133.0,133.0,57.0,3.0,3.1,-198,285,0,19,191,-261,84.20451831817627,84.2045648097992,84.20657134056091,84.21840977668762,84.36544680595398,84.36544680595398,84.36544680595398,84.36544680595398,84.36544680595398,84.36544680595398,84.36544680595398,99.94331240653992,3,15.711783170700073,None,,,,,,,,,,,,,,,,,,167,3,2025-02-28_14h22.04.797,comp,2024.2.4,60.9344936295091,2025-02-28 14h22.19.064710 -0500,
1,1,0,filler_square,None,None,None,None,None,None,None,None,None,None,1,4.8438496589660645,None,,,,,0,0,0,0,0,1,1,206,99.95881485939026,,,,,,,,,,,,,,,,,,,,,,,,,,,,,,,,,,,,,,,,,,,,,,,,,,,,,,,,,,,,,,,,,,,,,,,,,,,,,,,,,82.98386015291919,82.98386015291919,58.081554496477985,65.6168442731021,60.239229303730696,69.57049110569486,3.0,3.1,-170,287,0,-15,164,-258,99.94428730010986,99.94432759284973,99.94671177864075,99.95881485939026,100.10884046554565,100.10884046554565,100.10884046554565,100.10884046554565,100.10884046554565,100.10884046554565,100.10884046554565,104.81007194519043,1,4.8438496589660645,None,,,,,,,,,,,,,,,,,,167,3,2025-02-28_14h22.04.797,comp,2024.2.4,60.9344936295091,2025-02-28 14h22.19.064710 -0500,
2,2,0,critical,dhw,20.0,1.0,upper,141.0,141.0,200.0,125.0,125.0,200.0,3,10.344685077667236,None,,,,,0,0,0,0,0,2,2,55,104.82576942443848,,,,,,,,,,,,,,,,,,,,,,,,,,,,,,,,,,,,,,,,,,,,,,,,,,,,,,,,,,,,,,,,,,,,,,,,,,,,,,,,,141.0,141.0,200.0,125.0,125.0,200.0,1.0,1.3,251,-251,480,-259,738,-267,104.8108742237091,104.81091475486755,104.81349325180054,104.82576942443848,104.97575831413269,104.97575831413269,104.97575831413269,104.97575831413269,104.97575831413269,104.97575831413269,104.97575831413269,115.17701148986816,3,10.344685077667236,None,,,,,,,,,,,,,,,,,,167,3,2025-02-28_14h22.04.797,comp,2024.2.4,60.9344936295091,2025-02-28 14h22.19.064710 -0500,
3,3,0,critical,dhw,20.0,2.1,lower,78.0,78.0,133.0,57.0,57.0,133.0,2,6.36933159828186,None,,,,,0,0,0,0,0,3,3,26,115.19232988357544,,,,,,,,,,,,,,,,,,,,,,,,,,,,,,,,,,,,,,,,,,,,,,,,,,,,,,,,,,,,,,,,,,,,,,,,,,,,,,,,,78.0,78.0,133.0,57.0,57.0,133.0,2.1,2.12,-164,-285,0,-272,191,268,115.17786145210266,115.17790365219116,115.18051624298096,115.19232988357544,115.34215140342712,115.34215140342712,115.34215140342712,115.34215140342712,115.34215140342712,115.34215140342712,115.34215140342712,121.57673382759094,2,6.36933159828186,None,,,,,,,,,,,,,,,,,,167,3,2025-02-28_14h22.04.797,comp,2024.2.4,60.9344936295091,2025-02-28 14h22.19.064710 -0500,
4,4,0,critical,hdw,35.0,2.1,lower,133.0,57.0,70.0,70.0,57.0,133.0,1,4.618700265884399,None,,,,,0,0,0,0,0,4,4,44,121.59204173088074,,,,,,,,,,,,,,,,,,,,,,,,,,,,,,,,,,,,,,,,,,,,,,,,,,,,,,,,,,,,,,,,,,,,,,,,,,,,,,,,,133.0,57.0,70.0,70.0,57.0,133.0,2.1,2.11,-160,264,0,251,198,-269,121.57759404182434,121.57763648033142,121.5797827243805,121.59204173088074,121.74216556549072,121.74216556549072,121.74216556549072,121.74216556549072,121.74216556549072,121.74216556549072,121.74216556549072,126.22665190696716,1,4.618700265884399,None,,,,,,,,,,,,,,,,,,167,3,2025-02-28_14h22.04.797,comp,2024.2.4,60.9344936295091,2025-02-28 14h22.19.064710 -0500,
5,5,0,critical,wdh,20.0,3.0,upper,125.0,200.0,141.0,141.0,200.0,125.0,3,4.192323923110962,None,,,,,0,0,0,0,0,5,5,81,126.24197459220886,,,,,,,,,,,,,,,,,,,,,,,,,,,,,,,,,,,,,,,,,,,,,,,,,,,,,,,,,,,,,,,,,,,,,,,,,,,,,,,,,125.0,200.0,141.0,141.0,200.0,125.0,3.0,3.2,-266,-271,0,6,229,273,126.22746348381042,126.22750520706177,126.22995471954346,126.24197459220886,126.39229249954224,126.39229249954224,126.39229249954224,126.39229249954224,126.39229249954224,126.39229249954224,126.39229249954224,130.44340205192566,3,4.192323923110962,None,,,,,,,,,,,,,,,,,,167,3,2025-02-28_14h22.04.797,comp,2024.2.4,60.9344936295091,2025-02-28 14h22.19.064710 -0500,
6,6,0,critical,dwh,20.0,4.0,upper,141.0,141.0,125.0,200.0,200.0,125.0,2,7.534375190734863,None,,,,,0,0,0,0,0,6,6,71,130.45911598205566,,,,,,,,,,,,,,,,,,,,,,,,,,,,,,,,,,,,,,,,,,,,,,,,,,,,,,,,,,,,,,,,,,,,,,,,,,,,,,,,,141.0,141.0,125.0,200.0,200.0,125.0,4.0,4.2,-266,6,0,-267,258,4,130.44433903694153,130.4443805217743,130.4465136528015,130.45911598205566,130.6089026927948,130.6089026927948,130.6089026927948,130.6089026927948,130.6089026927948,130.6089026927948,130.6089026927948,138.01002192497253,2,7.534375190734863,None,,,,,,,,,,,,,,,,,,167,3,2025-02-28_14h22.04.797,comp,2024.2.4,60.9344936295091,2025-02-28 14h22.19.064710 -0500,
7,7,0,critical,hwd,35.0,2.1,lower,133.0,57.0,57.0,133.0,70.0,70.0,1,6.455952882766724,None,,,,,0,0,0,0,0,7,7,40,138.0252661705017,,,,,,,,,,,,,,,,,,,,,,,,,,,,,,,,,,,,,,,,,,,,,,,,,,,,,,,,,,,,,,,,,,,,,,,,,,,,,,,,,133.0,57.0,57.0,133.0,70.0,70.0,2.1,2.12,-191,-279,0,-270,198,259,138.01083517074585,138.01087641716003,138.0134437084198,138.0252661705017,138.17529034614563,138.17529034614563,138.17529034614563,138.17529034614563,138.17529034614563,138.17529034614563,138.17529034614563,144.49349999427795,1,6.455952882766724,None,,,,,,,,,,,,,,,,,,167,3,2025-02-28_14h22.04.797,comp,2024.2.4,60.9344936295091,2025-02-28 14h22.19.064710 -0500,
8,8,0,critical,hdw,20.0,2.1,lower,133.0,57.0,78.0,78.0,57.0,133.0,1,4.35869836807251,None,,,,,0,0,0,0,0,8,8,22,144.50857758522034,,,,,,,,,,,,,,,,,,,,,,,,,,,,,,,,,,,,,,,,,,,,,,,,,,,,,,,,,,,,,,,,,,,,,,,,,,,,,,,,,133.0,57.0,78.0,78.0,57.0,133.0,2.1,2.12,-164,-278,0,-282,202,253,144.4943072795868,144.4943482875824,144.49644899368286,144.50857758522034,144.65873765945435,144.65873765945435,144.65873765945435,144.65873765945435,144.65873765945435,144.65873765945435,144.65873765945435,148.87648510932922,1,4.35869836807251,None,,,,,,,,,,,,,,,,,,167,3,2025-02-28_14h22.04.797,comp,2024.2.4,60.9344936295091,2025-02-28 14h22.19.064710 -0500,
9,9,0,filler_random,None,None,None,None,None,None,None,None,None,None,1,6.599814176559448,None,,,,,0,0,0,0,0,9,9,151,148.89216208457947,,,,,,,,,,,,,,,,,,,,,,,,,,,,,,,,,,,,,,,,,,,,,,,,,,,,,,,,,,,,,,,,,,,,,,,,,,,,,,,,,154.47573081572457,160.1164812353858,130.26213718392142,175.6499679172615,140.510763061634,107.40552359436535,4.0,4.2,-264,16,0,-281,238,-15,148.8773853778839,148.87742733955383,148.8798325061798,148.89216208457947,149.04223561286926,149.04223561286926,149.04223561286926,149.04223561286926,149.04223561286926,149.04223561286926,149.04223561286926,155.4934287071228,1,6.599814176559448,None,,,,,,,,,,,,,,,,,,167,3,2025-02-28_14h22.04.797,comp,2024.2.4,60.9344936295091,2025-02-28 14h22.19.064710 -0500,
10,10,0,filler_square,None,None,None,None,None,None,None,None,None,None,1,3.1579973697662354,None,,,,,0,0,0,0,0,10,10,209,155.50869464874268,,,,,,,,,,,,,,,,,,,,,,,,,,,,,,,,,,,,,,,,,,,,,,,,,,,,,,,,,,,,,,,,,,,,,,,,,,,,,,,,,153.74836577288232,153.74836577288232,66.98580248754686,150.03667684283417,112.72223730352559,58.755396528318286,3.0,3.2,-248,-256,0,18,200,260,155.49438381195068,155.4944257736206,155.49654412269592,155.50869464874268,155.65877556800842,155.65877556800842,155.65877556800842,155.65877556800842,155.65877556800842,155.65877556800842,155.65877556800842,158.6764268875122,1,3.1579973697662354,None,,,,,,,,,,,,,,,,,,167,3,2025-02-28_14h22.04.797,comp,2024.2.4,60.9344936295091,2025-02-28 14h22.19.064710 -0500,
11,11,0,catch,None,None,None,None,None,None,None,None,None,None,3,2.3500847816467285,None,,,,,0,0,0,0,0,11,11,124,158.69232368469238,,,,,,,,,,,,,,,,,,,,,,,,,,,,,,,,,,,,,,,,,,,,,,,,,,,,,,,,,,,,,,,,,,,,,,,,,,,,,,,,,120,70,88,102,145,180,4.0,4.2,-182,8,0,-264,237,-16,158.67743825912476,158.67747831344604,158.67961597442627,158.69232368469238,158.8419954776764,158.8419954776764,158.8419954776764,158.8419954776764,158.8419954776764,158.8419954776764,158.8419954776764,161.0598328113556,3,2.3500847816467285,None,,,,,,,,,,,,,,,,,,167,3,2025-02-28_14h22.04.797,comp,2024.2.4,60.9344936295091,2025-02-28 14h22.19.064710 -0500,
12,12,0,critical,wdh,35.0,2.1,upper,125.0,200.0,127.0,127.0,200.0,125.0,1,3.095048427581787,None,,,,,0,0,0,0,0,12,12,33,161.07513689994812,,,,,,,,,,,,,,,,,,,,,,,,,,,,,,,,,,,,,,,,,,,,,,,,,,,,,,,,,,,,,,,,,,,,,,,,,,,,,,,,,125.0,200.0,127.0,127.0,200.0,125.0,2.1,2.12,-260,-287,0,-282,222,253,161.0606451034546,161.0606861114502,161.06324648857117,161.07513689994812,161.2253828048706,161.2253828048706,161.2253828048706,161.2253828048706,161.2253828048706,161.2253828048706,161.2253828048706,164.17687916755676,1,3.095048427581787,None,,,,,,,,,,,,,,,,,,167,3,2025-02-28_14h22.04.797,comp,2024.2.4,60.9344936295091,2025-02-28 14h22.19.064710 -0500,
13,13,0,critical,hdw,20.0,1.0,upper,200.0,125.0,141.0,141.0,125.0,200.0,1,3.768709897994995,None,,,,,0,0,0,0,0,13,13,115,164.19303059577942,,,,,,,,,,,,,,,,,,,,,,,,,,,,,,,,,,,,,,,,,,,,,,,,,,,,,,,,,,,,,,,,,,,,,,,,,,,,,,,,,200.0,125.0,141.0,141.0,125.0,200.0,1.0,1.2,-229,3,0,-4,266,-9,164.1776556968689,164.1776978969574,164.17998337745667,164.19303059577942,164.34207725524902,164.34207725524902,164.34207725524902,164.34207725524902,164.34207725524902,164.34207725524902,164.34207725524902,167.97657251358032,1,3.768709897994995,None,,,,,,,,,,,,,,,,,,167,3,2025-02-28_14h22.04.797,comp,2024.2.4,60.9344936295091,2025-02-28 14h22.19.064710 -0500,
14,14,0,critical,hdw,20.0,1.0,lower,133.0,57.0,78.0,78.0,57.0,133.0,1,5.417324781417847,None,,,,,0,0,0,0,0,14,14,114,167.99196815490723,,,,,,,,,,,,,,,,,,,,,,,,,,,,,,,,,,,,,,,,,,,,,,,,,,,,,,,,,,,,,,,,,,,,,,,,,,,,,,,,,133.0,57.0,78.0,78.0,57.0,133.0,1.0,1.1,-644,258,-480,280,-278,269,167.97742319107056,167.97746682167053,167.9796245098114,167.99196815490723,168.14177441596985,168.14177441596985,168.14177441596985,168.14177441596985,168.14177441596985,168.14177441596985,168.14177441596985,173.42629265785217,1,5.417324781417847,None,,,,,,,,,,,,,,,,,,167,3,2025-02-28_14h22.04.797,comp,2024.2.4,60.9344936295091,2025-02-28 14h22.19.064710 -0500,
15,15,0,filler_square,None,None,None,None,None,None,None,None,None,None,3,9.335288047790527,None,,,,,0,0,0,0,0,15,15,189,173.44192457199097,,,,,,,,,,,,,,,,,,,,,,,,,,,,,,,,,,,,,,,,,,,,,,,,,,,,,,,,,,,,,,,,,,,,,,,,,,,,,,,,,68.29736551293325,69.00534781334355,65.2690238873819,70.57016663620556,72.24598533336372,72.24598533336372,2.1,2.12,-166,-277,0,-258,167,256,173.4272665977478,173.42730736732483,173.43054676055908,173.44192457199097,173.59175634384155,173.59175634384155,173.59175634384155,173.59175634384155,173.59175634384155,173.59175634384155,173.59175634384155,182.79274773597717,3,9.335288047790527,None,,,,,,,,,,,,,,,,,,167,3,2025-02-28_14h22.04.797,comp,2024.2.4,60.9344936295091,2025-02-28 14h22.19.064710 -0500,
16,16,0,critical,whd,20.0,1.0,upper,125.0,200.0,200.0,125.0,141.0,141.0,1,6.617324590682983,None,,,,,0,0,0,0,0,16,16,91,182.80821418762207,,,,,,,,,,,,,,,,,,,,,,,,,,,,,,,,,,,,,,,,,,,,,,,,,,,,,,,,,,,,,,,,,,,,,,,,,,,,,,,,,125.0,200.0,200.0,125.0,141.0,141.0,1.0,1.3,222,-267,480,-271,709,-251,182.7935266494751,182.79356575012207,182.79602432250977,182.80821418762207,182.95922207832336,182.95922207832336,182.95922207832336,182.95922207832336,182.95922207832336,182.95922207832336,182.95922207832336,189.4429473876953,1,6.617324590682983,None,,,,,,,,,,,,,,,,,,167,3,2025-02-28_14h22.04.797,comp,2024.2.4,60.9344936295091,2025-02-28 14h22.19.064710 -0500,
17,17,0,critical,wdh,20.0,2.1,lower,57.0,133.0,78.0,78.0,133.0,57.0,3,11.334894180297852,None,,,,,0,0,0,0,0,17,17,10,189.4581859111786,,,,,,,,,,,,,,,,,,,,,,,,,,,,,,,,,,,,,,,,,,,,,,,,,,,,,,,,,,,,,,,,,,,,,,,,,,,,,,,,,57.0,133.0,78.0,78.0,133.0,57.0,2.1,2.12,-202,-271,0,-290,164,284,189.4437735080719,189.44381403923035,189.4463381767273,189.4581859111786,189.60831570625305,189.60831570625305,189.60831570625305,189.60831570625305,189.60831570625305,189.60831570625305,189.60831570625305,200.80932235717773,3,11.334894180297852,None,,,,,,,,,,,,,,,,,,167,3,2025-02-28_14h22.04.797,comp,2024.2.4,60.9344936295091,2025-02-28 14h22.19.064710 -0500,
18,18,0,filler_random,None,None,None,None,None,None,None,None,None,None,3,4.4827680587768555,None,,,,,0,0,0,0,0,18,18,139,200.82476139068604,,,,,,,,,,,,,,,,,,,,,,,,,,,,,,,,,,,,,,,,,,,,,,,,,,,,,,,,,,,,,,,,,,,,,,,,,,,,,,,,,68.2301550578705,127.49526978862124,146.68798105844354,103.50581253464871,141.54668736778783,122.84057906292449,3.0,3.1,-212,263,0,13,209,-268,200.81025552749634,200.81029796600342,200.8126311302185,200.82476139068604,200.97505569458008,200.97505569458008,200.97505569458008,200.97505569458008,200.97505569458008,200.97505569458008,200.97505569458008,205.3095464706421,3,4.4827680587768555,None,,,,,,,,,,,,,,,,,,167,3,2025-02-28_14h22.04.797,comp,2024.2.4,60.9344936295091,2025-02-28 14h22.19.064710 -0500,
19,19,0,filler_random,None,None,None,None,None,None,None,None,None,None,3,2.987921953201294,None,,,,,0,0,0,0,0,19,19,162,205.3250322341919,,,,,,,,,,,,,,,,,,,,,,,,,,,,,,,,,,,,,,,,,,,,,,,,,,,,,,,,,,,,,,,,,,,,,,,,,,,,,,,,,131.61601415837714,166.37427701442272,107.35235153240386,154.33773344400734,162.4546768484518,180.99387160187652,2.1,2.12,-256,-252,0,-277,264,284,205.31046652793884,205.31050753593445,205.31266808509827,205.3250322341919,205.47513008117676,205.47513008117676,205.47513008117676,205.47513008117676,205.47513008117676,205.47513008117676,205.47513008117676,208.32675313949585,3,2.987921953201294,None,,,,,,,,,,,,,,,,,,167,3,2025-02-28_14h22.04.797,comp,2024.2.4,60.9344936295091,2025-02-28 14h22.19.064710 -0500,
20,20,0,critical,dhw,35.0,2.1,upper,127.0,127.0,200.0,125.0,125.0,200.0,3,10.30800986289978,None,,,,,0,0,0,0,0,20,20,25,208.3418333530426,,,,,,,,,,,,,,,,,,,,,,,,,,,,,,,,,,,,,,,,,,,,,,,,,,,,,,,,,,,,,,,,,,,,,,,,,,,,,,,,,127.0,127.0,200.0,125.0,125.0,200.0,2.1,2.11,-222,266,0,257,258,-254,208.32756447792053,208.32760620117188,208.32958555221558,208.3418333530426,208.4924054145813,208.4924054145813,208.4924054145813,208.4924054145813,208.4924054145813,208.4924054145813,208.4924054145813,218.65938901901245,3,10.30800986289978,None,,,,,,,,,,,,,,,,,,167,3,2025-02-28_14h22.04.797,comp,2024.2.4,60.9344936295091,2025-02-28 14h22.19.064710 -0500,
21,21,0,catch,None,None,None,None,None,None,None,None,None,None,1,1.8638694286346436,None,,,,,0,0,0,0,0,21,21,125,218.67506790161133,,,,,,,,,,,,,,,,,,,,,,,,,,,,,,,,,,,,,,,,,,,,,,,,,,,,,,,,,,,,,,,,,,,,,,,,,,,,,,,,,129,196,127,63,84,106,2.2,2.22,-226,272,0,-251,180,-277,218.66044116020203,218.66048383712769,218.66260194778442,218.67506790161133,218.82475638389587,218.82475638389587,218.82475638389587,218.82475638389587,218.82475638389587,218.82475638389587,218.82475638389587,220.54296398162842,1,1.8638694286346436,None,,,,,,,,,,,,,,,,,,167,3,2025-02-28_14h22.04.797,comp,2024.2.4,60.9344936295091,2025-02-28 14h22.19.064710 -0500,
22,22,0,filler_random,None,None,None,None,None,None,None,None,None,None,1,1.6111066341400146,None,,,,,0,0,0,0,0,22,22,155,220.55857849121094,,,,,,,,,,,,,,,,,,,,,,,,,,,,,,,,,,,,,,,,,,,,,,,,,,,,,,,,,,,,,,,,,,,,,,,,,,,,,,,,,166.113445143303,131.6324401751946,125.86137126256088,65.38204338176872,78.94816092574536,73.78028069759209,2.1,2.12,-195,-259,0,-277,166,275,220.5438849925995,220.54392766952515,220.54720759391785,220.55857849121094,220.70824003219604,220.70824003219604,220.70824003219604,220.70824003219604,220.70824003219604,220.70824003219604,220.70824003219604,222.17593598365784,1,1.6111066341400146,None,,,,,,,,,,,,,,,,,,167,3,2025-02-28_14h22.04.797,comp,2024.2.4,60.9344936295091,2025-02-28 14h22.19.064710 -0500,
23,23,0,filler_random,None,None,None,None,None,None,None,None,None,None,1,3.601447343826294,None,,,,,0,0,0,0,0,23,23,164,222.19147157669067,,,,,,,,,,,,,,,,,,,,,,,,,,,,,,,,,,,,,,,,,,,,,,,,,,,,,,,,,,,,,,,,,,,,,,,,,,,,,,,,,182.8986440467242,109.35130715220086,122.64192489907833,124.4213503222201,92.75436617322947,157.5004014910384,3.0,3.2,-213,-288,0,-18,237,288,222.17686700820923,222.1769082546234,222.17950701713562,222.19147157669067,222.34148478507996,222.34148478507996,222.34148478507996,222.34148478507996,222.34148478507996,222.34148478507996,222.34148478507996,225.8093729019165,1,3.601447343826294,None,,,,,,,,,,,,,,,,,,167,3,2025-02-28_14h22.04.797,comp,2024.2.4,60.9344936295091,2025-02-28 14h22.19.064710 -0500,
24,24,0,critical,wdh,20.0,1.0,upper,125.0,200.0,141.0,141.0,200.0,125.0,1,5.728914737701416,None,,,,,0,0,0,0,0,24,24,79,225.82471108436584,,,,,,,,,,,,,,,,,,,,,,,,,,,,,,,,,,,,,,,,,,,,,,,,,,,,,,,,,,,,,,,,,,,,,,,,,,,,,,,,,125.0,200.0,141.0,141.0,200.0,125.0,1.0,1.2,-266,-10,0,7,229,16,225.81017684936523,225.8102297782898,225.8135163784027,225.82471108436584,225.9752869606018,225.9752869606018,225.9752869606018,225.9752869606018,225.9752869606018,225.9752869606018,225.9752869606018,231.5594379901886,1,5.728914737701416,None,,,,,,,,,,,,,,,,,,167,3,2025-02-28_14h22.04.797,comp,2024.2.4,60.9344936295091,2025-02-28 14h22.19.064710 -0500,
25,25,0,critical,whd,20.0,2.1,lower,57.0,133.0,133.0,57.0,78.0,78.0,2,8.169986724853516,None,,,,,0,0,0,0,0,25,25,14,231.57494068145752,,,,,,,,,,,,,,,,,,,,,,,,,,,,,,,,,,,,,,,,,,,,,,,,,,,,,,,,,,,,,,,,,,,,,,,,,,,,,,,,,57.0,133.0,133.0,57.0,78.0,78.0,2.1,2.12,-191,-264,0,-255,164,263,231.56025385856628,231.5602958202362,231.5624225139618,231.57494068145752,231.72495484352112,231.72495484352112,231.72495484352112,231.72495484352112,231.72495484352112,231.72495484352112,231.72495484352112,239.75909638404846,2,8.169986724853516,None,,,,,,,,,,,,,,,,,,167,3,2025-02-28_14h22.04.797,comp,2024.2.4,60.9344936295091,2025-02-28 14h22.19.064710 -0500,
26,26,0,critical,hdw,20.0,3.0,upper,200.0,125.0,141.0,141.0,125.0,200.0,1,11.354642391204834,None,,,,,0,0,0,0,0,26,26,117,239.77455711364746,,,,,,,,,,,,,,,,,,,,,,,,,,,,,,,,,,,,,,,,,,,,,,,,,,,,,,,,,,,,,,,,,,,,,,,,,,,,,,,,,200.0,125.0,141.0,141.0,125.0,200.0,3.0,3.2,-229,-271,0,-17,266,270,239.7599217891693,239.75996446609497,239.76204252243042,239.77455711364746,239.9248194694519,239.9248194694519,239.9248194694519,239.9248194694519,239.9248194694519,239.9248194694519,239.9248194694519,251.14251470565796,1,11.354642391204834,None,,,,,,,,,,,,,,,,,,167,3,2025-02-28_14h22.04.797,comp,2024.2.4,60.9344936295091,2025-02-28 14h22.19.064710 -0500,
27,27,0,critical,dhw,20.0,4.0,upper,141.0,141.0,200.0,125.0,125.0,200.0,2,7.003265142440796,None,,,,,0,0,0,0,0,27,27,59,251.15778040885925,,,,,,,,,,,,,,,,,,,,,,,,,,,,,,,,,,,,,,,,,,,,,,,,,,,,,,,,,,,,,,,,,,,,,,,,,,,,,,,,,141.0,141.0,200.0,125.0,125.0,200.0,4.0,4.2,-229,5,0,-286,258,9,251.14330506324768,251.14334511756897,251.14573550224304,251.15778040885925,251.30800819396973,251.30800819396973,251.30800819396973,251.30800819396973,251.30800819396973,251.30800819396973,251.30800819396973,258.1758019924164,2,7.003265142440796,None,,,,,,,,,,,,,,,,,,167,3,2025-02-28_14h22.04.797,comp,2024.2.4,60.9344936295091,2025-02-28 14h22.19.064710 -0500,
28,28,0,filler_square,None,None,None,None,None,None,None,None,None,None,3,3.9943325519561768,None,,,,,0,0,0,0,0,28,28,177,258.1910789012909,,,,,,,,,,,,,,,,,,,,,,,,,,,,,,,,,,,,,,,,,,,,,,,,,,,,,,,,,,,,,,,,,,,,,,,,,,,,,,,,,153.63486742846374,148.88123688596005,87.31099305757571,60.46603977598615,160.8311615532793,160.8311615532793,1.0,1.3,279,-287,480,-279,687,-272,258.1767854690552,258.1768271923065,258.17935252189636,258.1910789012909,258.3413178920746,258.3413178920746,258.3413178920746,258.3413178920746,258.3413178920746,258.3413178920746,258.3413178920746,262.19245886802673,3,3.9943325519561768,None,,,,,,,,,,,,,,,,,,167,3,2025-02-28_14h22.04.797,comp,2024.2.4,60.9344936295091,2025-02-28 14h22.19.064710 -0500,
29,29,0,critical,hwd,20.0,2.1,lower,133.0,57.0,57.0,133.0,78.0,78.0,1,5.961440563201904,None,,,,,0,0,0,0,0,29,29,18,262.2081763744354,,,,,,,,,,,,,,,,,,,,,,,,,,,,,,,,,,,,,,,,,,,,,,,,,,,,,,,,,,,,,,,,,,,,,,,,,,,,,,,,,133.0,57.0,57.0,133.0,78.0,78.0,2.1,2.12,-191,-284,0,-271,202,280,262.1932752132416,262.1933169364929,262.1954514980316,262.2081763744354,262.35798811912537,262.35798811912537,262.35798811912537,262.35798811912537,262.35798811912537,262.35798811912537,262.35798811912537,268.1756432056427,1,5.961440563201904,None,,,,,,,,,,,,,,,,,,167,3,2025-02-28_14h22.04.797,comp,2024.2.4,60.9344936295091,2025-02-28 14h22.19.064710 -0500,
30,30,0,critical,wdh,35.0,4.0,upper,125.0,200.0,127.0,127.0,200.0,125.0,3,10.52121114730835,None,,,,,0,0,0,0,0,30,30,77,268.19125270843506,,,,,,,,,,,,,,,,,,,,,,,,,,,,,,,,,,,,,,,,,,,,,,,,,,,,,,,,,,,,,,,,,,,,,,,,,,,,,,,,,125.0,200.0,127.0,127.0,200.0,125.0,4.0,4.1,-260,-262,0,-10,222,-284,268.17646861076355,268.1765089035034,268.1789412498474,268.19125270843506,268.34142875671387,268.34142875671387,268.34142875671387,268.34142875671387,268.34142875671387,268.34142875671387,268.34142875671387,278.7257628440857,3,10.52121114730835,None,,,,,,,,,,,,,,,,,,167,3,2025-02-28_14h22.04.797,comp,2024.2.4,60.9344936295091,2025-02-28 14h22.19.064710 -0500,
31,31,0,filler_random,None,None,None,None,None,None,None,None,None,None,2,1.5080442428588867,None,,,,,0,0,0,0,0,31,31,146,278.7412586212158,,,,,,,,,,,,,,,,,,,,,,,,,,,,,,,,,,,,,,,,,,,,,,,,,,,,,,,,,,,,,,,,,,,,,,,,,,,,,,,,,75.89087734226831,170.4826139570726,162.50307066389485,198.51434989091672,116.0056657209911,115.12820625830979,2.1,2.12,-280,-265,0,-263,253,255,278.72669553756714,278.7267372608185,278.730188369751,278.7412586212158,278.89143776893616,278.89143776893616,278.89143776893616,278.89143776893616,278.89143776893616,278.89143776893616,278.89143776893616,280.25900411605835,2,1.5080442428588867,None,,,,,,,,,,,,,,,,,,167,3,2025-02-28_14h22.04.797,comp,2024.2.4,60.9344936295091,2025-02-28 14h22.19.064710 -0500,
32,32,0,critical,hwd,20.0,2.1,upper,200.0,125.0,125.0,200.0,141.0,141.0,1,7.400529861450195,None,,,,,0,0,0,0,0,32,32,19,280.27448868751526,,,,,,,,,,,,,,,,,,,,,,,,,,,,,,,,,,,,,,,,,,,,,,,,,,,,,,,,,,,,,,,,,,,,,,,,,,,,,,,,,200.0,125.0,125.0,200.0,141.0,141.0,2.1,2.12,-258,-273,0,-264,266,252,280.25981521606445,280.25985622406006,280.2625594139099,280.27448868751526,280.4245479106903,280.4245479106903,280.4245479106903,280.4245479106903,280.4245479106903,280.4245479106903,280.4245479106903,287.6923174858093,1,7.400529861450195,None,,,,,,,,,,,,,,,,,,167,3,2025-02-28_14h22.04.797,comp,2024.2.4,60.9344936295091,2025-02-28 14h22.19.064710 -0500,
33,33,0,critical,dhw,20.0,1.0,lower,78.0,78.0,133.0,57.0,57.0,133.0,2,5.783422470092773,None,,,,,0,0,0,0,0,33,33,54,287.707466840744,,,,,,,,,,,,,,,,,,,,,,,,,,,,,,,,,,,,,,,,,,,,,,,,,,,,,,,,,,,,,,,,,,,,,,,,,,,,,,,,,78.0,78.0,133.0,57.0,57.0,133.0,1.0,1.3,316,-253,480,-252,671,-286,287.6931128501892,287.6931531429291,287.6955351829529,287.707466840744,287.85768461227417,287.85768461227417,287.85768461227417,287.85768461227417,287.85768461227417,287.85768461227417,287.85768461227417,293.5087559223175,2,5.783422470092773,None,,,,,,,,,,,,,,,,,,167,3,2025-02-28_14h22.04.797,comp,2024.2.4,60.9344936295091,2025-02-28 14h22.19.064710 -0500,
34,34,0,filler_square,None,None,None,None,None,None,None,None,None,None,2,1.893129587173462,None,,,,,0,0,0,0,0,34,34,180,293.52414989471436,,,,,,,,,,,,,,,,,,,,,,,,,,,,,,,,,,,,,,,,,,,,,,,,,,,,,,,,,,,,,,,,,,,,,,,,,,,,,,,,,67.61541755079195,103.00578558183828,147.7289261222508,147.7289261222508,96.07076005223857,88.49185894298842,2.1,2.11,-221,283,0,253,214,-268,293.50973105430603,293.50977206230164,293.51228880882263,293.52414989471436,293.6747000217438,293.6747000217438,293.6747000217438,293.6747000217438,293.6747000217438,293.6747000217438,293.6747000217438,295.4254412651062,2,1.893129587173462,None,,,,,,,,,,,,,,,,,,167,3,2025-02-28_14h22.04.797,comp,2024.2.4,60.9344936295091,2025-02-28 14h22.19.064710 -0500,
35,35,0,critical,hdw,20.0,4.0,lower,133.0,57.0,78.0,78.0,57.0,133.0,1,6.119614839553833,None,,,,,0,0,0,0,0,35,35,118,295.441029548645,,,,,,,,,,,,,,,,,,,,,,,,,,,,,,,,,,,,,,,,,,,,,,,,,,,,,,,,,,,,,,,,,,,,,,,,,,,,,,,,,133.0,57.0,78.0,78.0,57.0,133.0,4.0,4.1,-164,-284,0,6,202,-284,295.42623496055603,295.426274061203,295.4286720752716,295.441029548645,295.5909175872803,295.5909175872803,295.5909175872803,295.5909175872803,295.5909175872803,295.5909175872803,295.5909175872803,301.57537364959717,1,6.119614839553833,None,,,,,,,,,,,,,,,,,,167,3,2025-02-28_14h22.04.797,comp,2024.2.4,60.9344936295091,2025-02-28 14h22.19.064710 -0500,
36,36,0,critical,whd,35.0,2.1,upper,125.0,200.0,200.0,125.0,127.0,127.0,2,5.5624470710754395,None,,,,,0,0,0,0,0,36,36,13,301.59066820144653,,,,,,,,,,,,,,,,,,,,,,,,,,,,,,,,,,,,,,,,,,,,,,,,,,,,,,,,,,,,,,,,,,,,,,,,,,,,,,,,,125.0,200.0,200.0,125.0,127.0,127.0,2.1,2.11,-258,271,0,252,222,-266,301.576158285141,301.57621240615845,301.5786147117615,301.59066820144653,301.7411630153656,301.7411630153656,301.7411630153656,301.7411630153656,301.7411630153656,301.7411630153656,301.7411630153656,307.1588759422302,2,5.5624470710754395,None,,,,,,,,,,,,,,,,,,167,3,2025-02-28_14h22.04.797,comp,2024.2.4,60.9344936295091,2025-02-28 14h22.19.064710 -0500,
37,37,0,filler_random,None,None,None,None,None,None,None,None,None,None,1,3.4180595874786377,None,,,,,0,0,0,0,0,37,37,136,307.17427587509155,,,,,,,,,,,,,,,,,,,,,,,,,,,,,,,,,,,,,,,,,,,,,,,,,,,,,,,,,,,,,,,,,,,,,,,,,,,,,,,,,153.92967861441724,89.13170997272397,109.61450897182274,124.14164011366046,100.9649307454421,86.97526233421833,3.0,3.2,-203,-280,0,20,202,264,307.1597566604614,307.1597969532013,307.16184735298157,307.17427587509155,307.32426857948303,307.32426857948303,307.32426857948303,307.32426857948303,307.32426857948303,307.32426857948303,307.32426857948303,310.6086986064911,1,3.4180595874786377,None,,,,,,,,,,,,,,,,,,167,3,2025-02-28_14h22.04.797,comp,2024.2.4,60.9344936295091,2025-02-28 14h22.19.064710 -0500,
38,38,0,critical,hwd,20.0,2.1,lower,133.0,57.0,57.0,133.0,78.0,78.0,3,11.800285577774048,None,,,,,0,0,0,0,0,38,38,42,310.62410974502563,,,,,,,,,,,,,,,,,,,,,,,,,,,,,,,,,,,,,,,,,,,,,,,,,,,,,,,,,,,,,,,,,,,,,,,,,,,,,,,,,133.0,57.0,57.0,133.0,78.0,78.0,2.1,2.11,-191,284,0,264,202,-268,310.60950326919556,310.6095449924469,310.6119930744171,310.62410974502563,310.77429962158203,310.77429962158203,310.77429962158203,310.77429962158203,310.77429962158203,310.77429962158203,310.77429962158203,322.44212913513184,3,11.800285577774048,None,,,,,,,,,,,,,,,,,,167,3,2025-02-28_14h22.04.797,comp,2024.2.4,60.9344936295091,2025-02-28 14h22.19.064710 -0500,
39,39,0,filler_random,None,None,None,None,None,None,None,None,None,None,3,1.3838634490966797,None,,,,,0,0,0,0,0,39,39,158,322.45731806755066,,,,,,,,,,,,,,,,,,,,,,,,,,,,,,,,,,,,,,,,,,,,,,,,,,,,,,,,,,,,,,,,,,,,,,,,,,,,,,,,,61.200898827562476,81.34659438632825,170.3761980801134,90.86896655571432,166.97868798370342,178.71958843446578,3.0,3.1,-182,257,0,-10,231,-256,322.4430480003357,322.4430904388428,322.4456555843353,322.45731806755066,322.6077971458435,322.6077971458435,322.6077971458435,322.6077971458435,322.6077971458435,322.6077971458435,322.6077971458435,323.85856461524963,3,1.3838634490966797,None,,,,,,,,,,,,,,,,,,167,3,2025-02-28_14h22.04.797,comp,2024.2.4,60.9344936295091,2025-02-28 14h22.19.064710 -0500,
40,40,0,critical,dhw,35.0,4.0,lower,70.0,70.0,133.0,57.0,57.0,133.0,3,3.5506432056427,None,,,,,0,0,0,0,0,40,40,52,323.87393021583557,,,,,,,,,,,,,,,,,,,,,,,,,,,,,,,,,,,,,,,,,,,,,,,,,,,,,,,,,,,,,,,,,,,,,,,,,,,,,,,,,70.0,70.0,133.0,57.0,57.0,133.0,4.0,4.1,-160,-258,0,-7,191,-253,323.8593678474426,323.85940885543823,323.8620126247406,323.87393021583557,324.02406764030457,324.02406764030457,324.02406764030457,324.02406764030457,324.02406764030457,324.02406764030457,324.02406764030457,327.4418296813965,3,3.5506432056427,None,,,,,,,,,,,,,,,,,,167,3,2025-02-28_14h22.04.797,comp,2024.2.4,60.9344936295091,2025-02-28 14h22.19.064710 -0500,
41,41,0,critical,wdh,20.0,3.0,lower,57.0,133.0,78.0,78.0,133.0,57.0,1,10.654697895050049,None,,,,,0,0,0,0,0,41,41,80,327.4573242664337,,,,,,,,,,,,,,,,,,,,,,,,,,,,,,,,,,,,,,,,,,,,,,,,,,,,,,,,,,,,,,,,,,,,,,,,,,,,,,,,,57.0,133.0,78.0,78.0,133.0,57.0,3.0,3.2,-202,-267,0,12,164,288,327.4426386356354,327.4426791667938,327.4451825618744,327.4573242664337,327.6075370311737,327.6075370311737,327.6075370311737,327.6075370311737,327.6075370311737,327.6075370311737,327.6075370311737,338.1251358985901,1,10.654697895050049,None,,,,,,,,,,,,,,,,,,167,3,2025-02-28_14h22.04.797,comp,2024.2.4,60.9344936295091,2025-02-28 14h22.19.064710 -0500,
42,42,0,filler_random,None,None,None,None,None,None,None,None,None,None,2,8.20360541343689,None,,,,,0,0,0,0,0,42,42,167,338.1405327320099,,,,,,,,,,,,,,,,,,,,,,,,,,,,,,,,,,,,,,,,,,,,,,,,,,,,,,,,,,,,,,,,,,,,,,,,,,,,,,,,,90.4598180850976,94.3921200748892,153.94388201845408,157.12834878430573,160.32251683187607,170.44753948879188,2.1,2.12,-222,-266,0,-262,260,261,338.12603783607483,338.1260781288147,338.1281433105469,338.1405327320099,338.29095435142517,338.29095435142517,338.29095435142517,338.29095435142517,338.29095435142517,338.29095435142517,338.29095435142517,346.3585298061371,2,8.20360541343689,None,,,,,,,,,,,,,,,,,,167,3,2025-02-28_14h22.04.797,comp,2024.2.4,60.9344936295091,2025-02-28 14h22.19.064710 -0500,
43,43,0,critical,hdw,35.0,4.0,lower,133.0,57.0,70.0,70.0,57.0,133.0,1,3.1951963901519775,None,,,,,0,0,0,0,0,43,43,112,346.37382459640503,,,,,,,,,,,,,,,,,,,,,,,,,,,,,,,,,,,,,,,,,,,,,,,,,,,,,,,,,,,,,,,,,,,,,,,,,,,,,,,,,133.0,57.0,70.0,70.0,57.0,133.0,4.0,4.1,-160,-283,0,9,198,-265,346.35933661460876,346.3593764305115,346.36175084114075,346.37382459640503,346.523952960968,346.523952960968,346.523952960968,346.523952960968,346.523952960968,346.523952960968,346.523952960968,349.57501673698425,1,3.1951963901519775,None,,,,,,,,,,,,,,,,,,167,3,2025-02-28_14h22.04.797,comp,2024.2.4,60.9344936295091,2025-02-28 14h22.19.064710 -0500,
44,44,0,filler_random,None,None,None,None,None,None,None,None,None,None,1,2.1213033199310303,None,,,,,0,0,0,0,0,44,44,165,349.5906229019165,,,,,,,,,,,,,,,,,,,,,,,,,,,,,,,,,,,,,,,,,,,,,,,,,,,,,,,,,,,,,,,,,,,,,,,,,,,,,,,,,132.10960059040048,169.92418619568008,107.55295372590527,77.83614904961281,129.7503482730138,126.06888573547066,2.2,2.21,-220,-270,0,258,198,263,349.57591342926025,349.5759539604187,349.5781786441803,349.5906229019165,349.74118971824646,349.74118971824646,349.74118971824646,349.74118971824646,349.74118971824646,349.74118971824646,349.74118971824646,351.7250940799713,1,2.1213033199310303,None,,,,,,,,,,,,,,,,,,167,3,2025-02-28_14h22.04.797,comp,2024.2.4,60.9344936295091,2025-02-28 14h22.19.064710 -0500,
45,45,0,critical,hdw,35.0,1.0,lower,133.0,57.0,70.0,70.0,57.0,133.0,3,4.219780206680298,None,,,,,0,0,0,0,0,45,45,108,351.74043703079224,,,,,,,,,,,,,,,,,,,,,,,,,,,,,,,,,,,,,,,,,,,,,,,,,,,,,,,,,,,,,,,,,,,,,,,,,,,,,,,,,133.0,57.0,70.0,70.0,57.0,133.0,1.0,1.3,320,-260,480,-290,678,-286,351.7259030342102,351.7259430885315,351.72852516174316,351.74043703079224,351.8907461166382,351.8907461166382,351.8907461166382,351.8907461166382,351.8907461166382,351.8907461166382,351.8907461166382,355.9753427505493,3,4.219780206680298,None,,,,,,,,,,,,,,,,,,167,3,2025-02-28_14h22.04.797,comp,2024.2.4,60.9344936295091,2025-02-28 14h22.19.064710 -0500,
46,46,0,critical,dhw,35.0,3.0,upper,127.0,127.0,200.0,125.0,125.0,200.0,3,6.45846962928772,None,,,,,0,0,0,0,0,46,46,51,355.9904000759125,,,,,,,,,,,,,,,,,,,,,,,,,,,,,,,,,,,,,,,,,,,,,,,,,,,,,,,,,,,,,,,,,,,,,,,,,,,,,,,,,127.0,127.0,200.0,125.0,125.0,200.0,3.0,3.1,-222,255,0,-18,258,-259,355.9761321544647,355.9761714935303,355.97877287864685,355.9904000759125,356.14071917533875,356.14071917533875,356.14071917533875,356.14071917533875,356.14071917533875,356.14071917533875,356.14071917533875,362.4585118293762,3,6.45846962928772,None,,,,,,,,,,,,,,,,,,167,3,2025-02-28_14h22.04.797,comp,2024.2.4,60.9344936295091,2025-02-28 14h22.19.064710 -0500,
47,47,0,filler_random,None,None,None,None,None,None,None,None,None,None,1,5.094716787338257,None,,,,,0,0,0,0,0,47,47,144,362.47397327423096,,,,,,,,,,,,,,,,,,,,,,,,,,,,,,,,,,,,,,,,,,,,,,,,,,,,,,,,,,,,,,,,,,,,,,,,,,,,,,,,,125.52211914144816,140.77147564680138,86.72005017448674,135.48792325586416,121.81754449665304,110.41265209765959,1.0,1.1,-714,290,-480,282,-261,279,362.45938539505005,362.459424495697,362.46172857284546,362.47397327423096,362.6242182254791,362.6242182254791,362.6242182254791,362.6242182254791,362.6242182254791,362.6242182254791,362.6242182254791,367.5749821662903,1,5.094716787338257,None,,,,,,,,,,,,,,,,,,167,3,2025-02-28_14h22.04.797,comp,2024.2.4,60.9344936295091,2025-02-28 14h22.19.064710 -0500,
48,48,0,critical,hdw,35.0,2.1,lower,133.0,57.0,70.0,70.0,57.0,133.0,1,12.705185413360596,None,,,,,0,0,0,0,0,48,48,20,367.59053802490234,,,,,,,,,,,,,,,,,,,,,,,,,,,,,,,,,,,,,,,,,,,,,,,,,,,,,,,,,,,,,,,,,,,,,,,,,,,,,,,,,133.0,57.0,70.0,70.0,57.0,133.0,2.1,2.12,-160,-286,0,-256,198,258,367.5757944583893,367.57583475112915,367.57784056663513,367.59053802490234,367.74042677879333,367.74042677879333,367.74042677879333,367.74042677879333,367.74042677879333,367.74042677879333,367.74042677879333,380.3085186481476,1,12.705185413360596,None,,,,,,,,,,,,,,,,,,167,3,2025-02-28_14h22.04.797,comp,2024.2.4,60.9344936295091,2025-02-28 14h22.19.064710 -0500,
49,49,0,filler_square,None,None,None,None,None,None,None,None,None,None,1,1.2450811862945557,None,,,,,0,0,0,0,0,49,49,172,380.32352566719055,,,,,,,,,,,,,,,,,,,,,,,,,,,,,,,,,,,,,,,,,,,,,,,,,,,,,,,,,,,,,,,,,,,,,,,,,,,,,,,,,186.10606982815133,186.10606982815133,109.18583647032403,150.94633660789344,97.84065931813171,113.04493871575085,4.0,4.2,-265,8,0,-286,228,13,380.3094804286957,380.30952286720276,380.3120129108429,380.32352566719055,380.4739775657654,380.4739775657654,380.4739775657654,380.4739775657654,380.4739775657654,380.4739775657654,380.4739775657654,381.57497787475586,1,1.2450811862945557,None,,,,,,,,,,,,,,,,,,167,3,2025-02-28_14h22.04.797,comp,2024.2.4,60.9344936295091,2025-02-28 14h22.19.064710 -0500,
50,50,0,critical,hdw,20.0,2.1,upper,200.0,125.0,141.0,141.0,125.0,200.0,3,11.93791651725769,None,,,,,0,0,0,0,0,50,50,47,381.590398311615,,,,,,,,,,,,,,,,,,,,,,,,,,,,,,,,,,,,,,,,,,,,,,,,,,,,,,,,,,,,,,,,,,,,,,,,,,,,,,,,,200.0,125.0,141.0,141.0,125.0,200.0,2.1,2.11,-229,282,0,261,266,-271,381.57578015327454,381.5758216381073,381.57837080955505,381.590398311615,381.74075198173523,381.74075198173523,381.74075198173523,381.74075198173523,381.74075198173523,381.74075198173523,381.74075198173523,393.54160809516907,3,11.93791651725769,None,,,,,,,,,,,,,,,,,,167,3,2025-02-28_14h22.04.797,comp,2024.2.4,60.9344936295091,2025-02-28 14h22.19.064710 -0500,
51,51,0,critical,dhw,20.0,3.0,upper,141.0,141.0,200.0,125.0,125.0,200.0,2,11.627681970596313,None,,,,,0,0,0,0,0,51,51,57,393.556791305542,,,,,,,,,,,,,,,,,,,,,,,,,,,,,,,,,,,,,,,,,,,,,,,,,,,,,,,,,,,,,,,,,,,,,,,,,,,,,,,,,141.0,141.0,200.0,125.0,125.0,200.0,3.0,3.2,-229,-275,0,-3,258,284,393.5424110889435,393.54245233535767,393.54490303993225,393.556791305542,393.70741748809814,393.70741748809814,393.70741748809814,393.70741748809814,393.70741748809814,393.70741748809814,393.70741748809814,405.1914601325989,2,11.627681970596313,None,,,,,,,,,,,,,,,,,,167,3,2025-02-28_14h22.04.797,comp,2024.2.4,60.9344936295091,2025-02-28 14h22.19.064710 -0500,
52,52,0,critical,dwh,20.0,2.1,upper,141.0,141.0,125.0,200.0,200.0,125.0,2,5.784748315811157,None,,,,,0,0,0,0,0,52,52,31,405.20696115493774,,,,,,,,,,,,,,,,,,,,,,,,,,,,,,,,,,,,,,,,,,,,,,,,,,,,,,,,,,,,,,,,,,,,,,,,,,,,,,,,,141.0,141.0,125.0,200.0,200.0,125.0,2.1,2.11,-266,272,0,251,258,-267,405.19223642349243,405.192275762558,405.19431042671204,405.20696115493774,405.35712695121765,405.35712695121765,405.35712695121765,405.35712695121765,405.35712695121765,405.35712695121765,405.35712695121765,411.0082674026489,2,5.784748315811157,None,,,,,,,,,,,,,,,,,,167,3,2025-02-28_14h22.04.797,comp,2024.2.4,60.9344936295091,2025-02-28 14h22.19.064710 -0500,
53,53,0,filler_random,None,None,None,None,None,None,None,None,None,None,2,2.3369686603546143,None,,,,,0,0,0,0,0,53,53,131,411.0233781337738,,,,,,,,,,,,,,,,,,,,,,,,,,,,,,,,,,,,,,,,,,,,,,,,,,,,,,,,,,,,,,,,,,,,,,,,,,,,,,,,,171.87430822606484,117.7432358281864,112.78648866445519,192.5640685076747,97.38525140374097,72.49898900819566,1.0,1.3,229,-280,480,-278,709,-268,411.00915789604187,411.0092091560364,411.0114846229553,411.0233781337738,411.1736559867859,411.1736559867859,411.1736559867859,411.1736559867859,411.1736559867859,411.1736559867859,411.1736559867859,413.3747980594635,2,2.3369686603546143,None,,,,,,,,,,,,,,,,,,167,3,2025-02-28_14h22.04.797,comp,2024.2.4,60.9344936295091,2025-02-28 14h22.19.064710 -0500,
54,54,0,filler_square,None,None,None,None,None,None,None,None,None,None,3,9.369422197341919,None,,,,,0,0,0,0,0,54,54,198,413.3901786804199,,,,,,,,,,,,,,,,,,,,,,,,,,,,,,,,,,,,,,,,,,,,,,,,,,,,,,,,,,,,,,,,,,,,,,,,,,,,,,,,,58.34157075653132,59.50192715394363,57.669356091600484,59.5354204507568,59.715943875708156,59.715943875708156,1.0,1.3,324,-265,480,-270,636,-275,413.37578988075256,413.3758313655853,413.37838196754456,413.3901786804199,413.540189743042,413.540189743042,413.540189743042,413.540189743042,413.540189743042,413.540189743042,413.540189743042,422.77474761009216,3,9.369422197341919,None,,,,,,,,,,,,,,,,,,167,3,2025-02-28_14h22.04.797,comp,2024.2.4,60.9344936295091,2025-02-28 14h22.19.064710 -0500,
55,55,0,filler_random,None,None,None,None,None,None,None,None,None,None,2,2.1215085983276367,None,,,,,0,0,0,0,0,55,55,134,422.7898986339569,,,,,,,,,,,,,,,,,,,,,,,,,,,,,,,,,,,,,,,,,,,,,,,,,,,,,,,,,,,,,,,,,,,,,,,,,,,,,,,,,155.5879468635217,105.06407139970773,198.08136768047382,156.9045913568516,198.73797309330186,62.85087073176881,2.1,2.12,-227,-256,0,-279,206,253,422.77567958831787,422.7757215499878,422.7782347202301,422.7898986339569,422.94062089920044,422.94062089920044,422.94062089920044,422.94062089920044,422.94062089920044,422.94062089920044,422.94062089920044,424.9246594905853,2,2.1215085983276367,None,,,,,,,,,,,,,,,,,,167,3,2025-02-28_14h22.04.797,comp,2024.2.4,60.9344936295091,2025-02-28 14h22.19.064710 -0500,
56,56,0,critical,dwh,35.0,2.1,lower,70.0,70.0,57.0,133.0,133.0,57.0,3,5.635600328445435,None,,,,,0,0,0,0,0,56,56,4,424.93989992141724,,,,,,,,,,,,,,,,,,,,,,,,,,,,,,,,,,,,,,,,,,,,,,,,,,,,,,,,,,,,,,,,,,,,,,,,,,,,,,,,,70.0,70.0,57.0,133.0,133.0,57.0,2.1,2.12,-198,-257,0,-281,191,261,424.92549562454224,424.9255361557007,424.9279909133911,424.93989992141724,425.0900263786316,425.0900263786316,425.0900263786316,425.0900263786316,425.0900263786316,425.0900263786316,425.0900263786316,430.591055393219,3,5.635600328445435,None,,,,,,,,,,,,,,,,,,167,3,2025-02-28_14h22.04.797,comp,2024.2.4,60.9344936295091,2025-02-28 14h22.19.064710 -0500,
57,57,0,filler_square,None,None,None,None,None,None,None,None,None,None,2,1.2671716213226318,None,,,,,0,0,0,0,0,57,57,184,430.6065785884857,,,,,,,,,,,,,,,,,,,,,,,,,,,,,,,,,,,,,,,,,,,,,,,,,,,,,,,,,,,,,,,,,,,,,,,,,,,,,,,,,141.85916775954007,63.29549310667169,192.9691192687748,192.9691192687748,152.63511946244125,75.20491592473428,2.1,2.11,-224,273,0,289,230,-270,430.59201216697693,430.5920526981354,430.5946488380432,430.6065785884857,430.75688648223877,430.75688648223877,430.75688648223877,430.75688648223877,430.75688648223877,430.75688648223877,430.75688648223877,431.89128279685974,2,1.2671716213226318,None,,,,,,,,,,,,,,,,,,167,3,2025-02-28_14h22.04.797,comp,2024.2.4,60.9344936295091,2025-02-28 14h22.19.064710 -0500,
58,58,0,critical,dwh,20.0,3.0,lower,78.0,78.0,57.0,133.0,133.0,57.0,2,4.988844633102417,None,,,,,0,0,0,0,0,58,58,68,431.9065444469452,,,,,,,,,,,,,,,,,,,,,,,,,,,,,,,,,,,,,,,,,,,,,,,,,,,,,,,,,,,,,,,,,,,,,,,,,,,,,,,,,78.0,78.0,57.0,133.0,133.0,57.0,3.0,3.2,-202,-272,0,12,191,279,431.8920695781708,431.8921101093292,431.89421677589417,431.9065444469452,432.05692648887634,432.05692648887634,432.05692648887634,432.05692648887634,432.05692648887634,432.05692648887634,432.05692648887634,436.90775442123413,2,4.988844633102417,None,,,,,,,,,,,,,,,,,,167,3,2025-02-28_14h22.04.797,comp,2024.2.4,60.9344936295091,2025-02-28 14h22.19.064710 -0500,
59,59,0,filler_random,None,None,None,None,None,None,None,None,None,None,1,5.068285226821899,None,,,,,0,0,0,0,0,59,59,163,436.9231777191162,,,,,,,,,,,,,,,,,,,,,,,,,,,,,,,,,,,,,,,,,,,,,,,,,,,,,,,,,,,,,,,,,,,,,,,,,,,,,,,,,127.45596512299416,131.8088961676868,159.66589681687276,73.69194840081856,76.22554038248593,177.57114978164614,1.0,1.2,-199,17,0,12,222,18,436.9086060523987,436.9086444377899,436.911110162735,436.9231777191162,437.0737223625183,437.0737223625183,437.0737223625183,437.0737223625183,437.0737223625183,437.0737223625183,437.0737223625183,442.00780034065247,1,5.068285226821899,None,,,,,,,,,,,,,,,,,,167,3,2025-02-28_14h22.04.797,comp,2024.2.4,60.9344936295091,2025-02-28 14h22.19.064710 -0500,
60,60,0,filler_random,None,None,None,None,None,None,None,None,None,None,3,8.304715394973755,None,,,,,0,0,0,0,0,60,60,145,442.0231673717499,,,,,,,,,,,,,,,,,,,,,,,,,,,,,,,,,,,,,,,,,,,,,,,,,,,,,,,,,,,,,,,,,,,,,,,,,,,,,,,,,103.70097627374548,159.49738952799788,156.64057161759268,66.66686208496557,88.07318615221331,184.92340722474378,2.1,2.11,-209,278,0,282,222,-256,442.0087265968323,442.0087673664093,442.01125049591064,442.0231673717499,442.1734013557434,442.1734013557434,442.1734013557434,442.1734013557434,442.1734013557434,442.1734013557434,442.1734013557434,450.341135263443,3,8.304715394973755,None,,,,,,,,,,,,,,,,,,167,3,2025-02-28_14h22.04.797,comp,2024.2.4,60.9344936295091,2025-02-28 14h22.19.064710 -0500,
61,61,0,critical,wdh,20.0,2.1,lower,57.0,133.0,78.0,78.0,133.0,57.0,1,8.90796709060669,None,,,,,0,0,0,0,0,61,61,34,450.35635638237,,,,,,,,,,,,,,,,,,,,,,,,,,,,,,,,,,,,,,,,,,,,,,,,,,,,,,,,,,,,,,,,,,,,,,,,,,,,,,,,,57.0,133.0,78.0,78.0,133.0,57.0,2.1,2.11,-202,256,0,280,164,-289,450.3418960571289,450.3419346809387,450.3441197872162,450.35635638237,450.5065755844116,450.5065755844116,450.5065755844116,450.5065755844116,450.5065755844116,450.5065755844116,450.5065755844116,459.2743284702301,1,8.90796709060669,None,,,,,,,,,,,,,,,,,,167,3,2025-02-28_14h22.04.797,comp,2024.2.4,60.9344936295091,2025-02-28 14h22.19.064710 -0500,
62,62,0,catch,None,None,None,None,None,None,None,None,None,None,2,1.383434534072876,None,,,,,0,0,0,0,0,62,62,120,459.29005694389343,,,,,,,,,,,,,,,,,,,,,,,,,,,,,,,,,,,,,,,,,,,,,,,,,,,,,,,,,,,,,,,,,,,,,,,,,,,,,,,,,69,121,171,154,67,123,2.2,2.22,-234,288,0,-263,234,-285,459.2753803730011,459.2754228115082,459.27755975723267,459.29005694389343,459.43992590904236,459.43992590904236,459.43992590904236,459.43992590904236,459.43992590904236,459.43992590904236,459.43992590904236,460.69118452072144,2,1.383434534072876,None,,,,,,,,,,,,,,,,,,167,3,2025-02-28_14h22.04.797,comp,2024.2.4,60.9344936295091,2025-02-28 14h22.19.064710 -0500,
63,63,0,filler_square,None,None,None,None,None,None,None,None,None,None,1,1.815843105316162,None,,,,,0,0,0,0,0,63,63,186,460.70638251304626,,,,,,,,,,,,,,,,,,,,,,,,,,,,,,,,,,,,,,,,,,,,,,,,,,,,,,,,,,,,,,,,,,,,,,,,,,,,,,,,,129.65601465777692,129.65601465777692,88.63310867269561,126.66449089662888,83.45953521877763,89.92578965046374,4.0,4.2,-224,18,0,-284,204,10,460.69209837913513,460.69213819503784,460.6943998336792,460.70638251304626,460.8566551208496,460.8566551208496,460.8566551208496,460.8566551208496,460.8566551208496,460.8566551208496,460.8566551208496,462.5245912075043,1,1.815843105316162,None,,,,,,,,,,,,,,,,,,167,3,2025-02-28_14h22.04.797,comp,2024.2.4,60.9344936295091,2025-02-28 14h22.19.064710 -0500,
64,64,0,critical,dhw,35.0,4.0,upper,127.0,127.0,200.0,125.0,125.0,200.0,2,3.371245861053467,None,,,,,0,0,0,0,0,64,64,53,462.53994965553284,,,,,,,,,,,,,,,,,,,,,,,,,,,,,,,,,,,,,,,,,,,,,,,,,,,,,,,,,,,,,,,,,,,,,,,,,,,,,,,,,127.0,127.0,200.0,125.0,125.0,200.0,4.0,4.2,-222,9,0,-277,258,-4,462.52551651000977,462.5255582332611,462.5277132987976,462.53994965553284,462.6900825500488,462.6900825500488,462.6900825500488,462.6900825500488,462.6900825500488,462.6900825500488,462.6900825500488,465.9244749546051,2,3.371245861053467,None,,,,,,,,,,,,,,,,,,167,3,2025-02-28_14h22.04.797,comp,2024.2.4,60.9344936295091,2025-02-28 14h22.19.064710 -0500,
65,65,0,critical,hwd,35.0,1.0,lower,133.0,57.0,57.0,133.0,70.0,70.0,2,8.06742548942566,None,,,,,0,0,0,0,0,65,65,96,465.9397768974304,,,,,,,,,,,,,,,,,,,,,,,,,,,,,,,,,,,,,,,,,,,,,,,,,,,,,,,,,,,,,,,,,,,,,,,,,,,,,,,,,133.0,57.0,57.0,133.0,70.0,70.0,1.0,1.3,289,-264,480,-260,678,-263,465.9252951145172,465.9253349304199,465.9286286830902,465.9397768974304,466.08977341651917,466.08977341651917,466.08977341651917,466.08977341651917,466.08977341651917,466.08977341651917,466.08977341651917,474.0242483615875,2,8.06742548942566,None,,,,,,,,,,,,,,,,,,167,3,2025-02-28_14h22.04.797,comp,2024.2.4,60.9344936295091,2025-02-28 14h22.19.064710 -0500,
66,66,0,filler_square,None,None,None,None,None,None,None,None,None,None,1,3.2501604557037354,None,,,,,0,0,0,0,0,66,66,174,474.03965878486633,,,,,,,,,,,,,,,,,,,,,,,,,,,,,,,,,,,,,,,,,,,,,,,,,,,,,,,,,,,,,,,,,,,,,,,,,,,,,,,,,117.75777858092506,117.75777858092506,110.8412925365287,109.00827702916453,78.32058814994309,80.9598371934262,1.0,1.3,271,-259,480,-260,671,-280,474.0251634120941,474.02522349357605,474.027227640152,474.03965878486633,474.18987560272217,474.18987560272217,474.18987560272217,474.18987560272217,474.18987560272217,474.18987560272217,474.18987560272217,477.2911705970764,1,3.2501604557037354,None,,,,,,,,,,,,,,,,,,167,3,2025-02-28_14h22.04.797,comp,2024.2.4,60.9344936295091,2025-02-28 14h22.19.064710 -0500,
67,67,0,critical,wdh,35.0,1.0,lower,57.0,133.0,70.0,70.0,133.0,57.0,1,8.04550552368164,None,,,,,0,0,0,0,0,67,67,72,477.3065001964569,,,,,,,,,,,,,,,,,,,,,,,,,,,,,,,,,,,,,,,,,,,,,,,,,,,,,,,,,,,,,,,,,,,,,,,,,,,,,,,,,57.0,133.0,70.0,70.0,133.0,57.0,1.0,1.1,-678,256,-480,263,-320,271,477.29199504852295,477.29203820228577,477.2942292690277,477.3065001964569,477.4566431045532,477.4566431045532,477.4566431045532,477.4566431045532,477.4566431045532,477.4566431045532,477.4566431045532,485.3575141429901,1,8.04550552368164,None,,,,,,,,,,,,,,,,,,167,3,2025-02-28_14h22.04.797,comp,2024.2.4,60.9344936295091,2025-02-28 14h22.19.064710 -0500,
68,68,0,critical,dhw,35.0,2.1,lower,70.0,70.0,133.0,57.0,57.0,133.0,3,3.9864985942840576,None,,,,,0,0,0,0,0,68,68,0,485.37303161621094,,,,,,,,,,,,,,,,,,,,,,,,,,,,,,,,,,,,,,,,,,,,,,,,,,,,,,,,,,,,,,,,,,,,,,,,,,,,,,,,,70.0,70.0,133.0,57.0,57.0,133.0,2.1,2.11,-160,266,0,253,191,-277,485.3583106994629,485.3583517074585,485.36076259613037,485.37303161621094,485.52301049232483,485.52301049232483,485.52301049232483,485.52301049232483,485.52301049232483,485.52301049232483,485.52301049232483,489.37406063079834,3,3.9864985942840576,None,,,,,,,,,,,,,,,,,,167,3,2025-02-28_14h22.04.797,comp,2024.2.4,60.9344936295091,2025-02-28 14h22.19.064710 -0500,
69,69,0,filler_square,None,None,None,None,None,None,None,None,None,None,1,1.721400260925293,None,,,,,0,0,0,0,0,69,69,175,489.389536857605,,,,,,,,,,,,,,,,,,,,,,,,,,,,,,,,,,,,,,,,,,,,,,,,,,,,,,,,,,,,,,,,,,,,,,,,,,,,,,,,,124.5569667043395,124.5569667043395,108.40627697734081,92.85107930541001,80.03748783585544,114.83904443041583,1.0,1.2,-205,-13,0,9,200,8,489.37501287460327,489.3750536441803,489.3771562576294,489.389536857605,489.5397129058838,489.5397129058838,489.5397129058838,489.5397129058838,489.5397129058838,489.5397129058838,489.5397129058838,491.1240882873535,1,1.721400260925293,None,,,,,,,,,,,,,,,,,,167,3,2025-02-28_14h22.04.797,comp,2024.2.4,60.9344936295091,2025-02-28 14h22.19.064710 -0500,
70,70,0,critical,dwh,20.0,4.0,lower,78.0,78.0,57.0,133.0,133.0,57.0,2,1.860560655593872,None,,,,,0,0,0,0,0,70,70,70,491.13945841789246,,,,,,,,,,,,,,,,,,,,,,,,,,,,,,,,,,,,,,,,,,,,,,,,,,,,,,,,,,,,,,,,,,,,,,,,,,,,,,,,,78.0,78.0,57.0,133.0,133.0,57.0,4.0,4.1,-202,-277,0,-16,191,-285,491.12490129470825,491.12494254112244,491.12701892852783,491.13945841789246,491.28955268859863,491.28955268859863,491.28955268859863,491.28955268859863,491.28955268859863,491.28955268859863,491.28955268859863,493.0074231624603,2,1.860560655593872,None,,,,,,,,,,,,,,,,,,167,3,2025-02-28_14h22.04.797,comp,2024.2.4,60.9344936295091,2025-02-28 14h22.19.064710 -0500,
71,71,0,critical,dhw,20.0,3.0,lower,78.0,78.0,133.0,57.0,57.0,133.0,2,8.28245997428894,None,,,,,0,0,0,0,0,71,71,56,493.023108959198,,,,,,,,,,,,,,,,,,,,,,,,,,,,,,,,,,,,,,,,,,,,,,,,,,,,,,,,,,,,,,,,,,,,,,,,,,,,,,,,,78.0,78.0,133.0,57.0,57.0,133.0,3.0,3.2,-164,-271,0,18,191,259,493.00818729400635,493.0082437992096,493.01061940193176,493.023108959198,493.1730020046234,493.1730020046234,493.1730020046234,493.1730020046234,493.1730020046234,493.1730020046234,493.1730020046234,501.3240156173706,2,8.28245997428894,None,,,,,,,,,,,,,,,,,,167,3,2025-02-28_14h22.04.797,comp,2024.2.4,60.9344936295091,2025-02-28 14h22.19.064710 -0500,
72,72,0,catch,None,None,None,None,None,None,None,None,None,None,3,1.2840964794158936,None,,,,,0,0,0,0,0,72,72,126,501.33945631980896,,,,,,,,,,,,,,,,,,,,,,,,,,,,,,,,,,,,,,,,,,,,,,,,,,,,,,,,,,,,,,,,,,,,,,,,,,,,,,,,,101,89,129,61,164,161,1.0,1.1,-651,255,-480,270,-273,276,501.3250696659088,501.325110912323,501.327303647995,501.33945631980896,501.48964762687683,501.48964762687683,501.48964762687683,501.48964762687683,501.48964762687683,501.48964762687683,501.48964762687683,502.6407868862152,3,1.2840964794158936,None,,,,,,,,,,,,,,,,,,167,3,2025-02-28_14h22.04.797,comp,2024.2.4,60.9344936295091,2025-02-28 14h22.19.064710 -0500,
73,73,0,filler_square,None,None,None,None,None,None,None,None,None,None,3,1.4496009349822998,None,,,,,0,0,0,0,0,73,73,181,502.6561555862427,,,,,,,,,,,,,,,,,,,,,,,,,,,,,,,,,,,,,,,,,,,,,,,,,,,,,,,,,,,,,,,,,,,,,,,,,,,,,,,,,62.863872421517186,69.71773569179823,69.02009523781636,58.66848461399631,88.71555451833605,88.71555451833605,4.0,4.1,-160,-261,0,-19,170,-268,502.64176201820374,502.6418025493622,502.6439461708069,502.6561555862427,502.8063111305237,502.8063111305237,502.8063111305237,502.8063111305237,502.8063111305237,502.8063111305237,502.8063111305237,504.123863697052,3,1.4496009349822998,None,,,,,,,,,,,,,,,,,,167,3,2025-02-28_14h22.04.797,comp,2024.2.4,60.9344936295091,2025-02-28 14h22.19.064710 -0500,
74,74,0,critical,hdw,20.0,4.0,upper,200.0,125.0,141.0,141.0,125.0,200.0,1,4.508737325668335,None,,,,,0,0,0,0,0,74,74,119,504.1393835544586,,,,,,,,,,,,,,,,,,,,,,,,,,,,,,,,,,,,,,,,,,,,,,,,,,,,,,,,,,,,,,,,,,,,,,,,,,,,,,,,,200.0,125.0,141.0,141.0,125.0,200.0,4.0,4.2,-229,-14,0,-289,266,17,504.12466287612915,504.1247036457062,504.12710976600647,504.1393835544586,504.2898232936859,504.2898232936859,504.2898232936859,504.2898232936859,504.2898232936859,504.2898232936859,504.2898232936859,508.6582248210907,1,4.508737325668335,None,,,,,,,,,,,,,,,,,,167,3,2025-02-28_14h22.04.797,comp,2024.2.4,60.9344936295091,2025-02-28 14h22.19.064710 -0500,
75,75,0,critical,hwd,35.0,2.1,upper,200.0,125.0,125.0,200.0,127.0,127.0,1,4.685832500457764,None,,,,,0,0,0,0,0,75,75,17,508.67360067367554,,,,,,,,,,,,,,,,,,,,,,,,,,,,,,,,,,,,,,,,,,,,,,,,,,,,,,,,,,,,,,,,,,,,,,,,,,,,,,,,,200.0,125.0,125.0,200.0,127.0,127.0,2.1,2.12,-258,-287,0,-270,260,252,508.65906620025635,508.6591076850891,508.6610732078552,508.67360067367554,508.823694229126,508.823694229126,508.823694229126,508.823694229126,508.823694229126,508.823694229126,508.823694229126,513.3741416931152,1,4.685832500457764,None,,,,,,,,,,,,,,,,,,167,3,2025-02-28_14h22.04.797,comp,2024.2.4,60.9344936295091,2025-02-28 14h22.19.064710 -0500,
76,76,0,critical,dwh,20.0,1.0,lower,78.0,78.0,57.0,133.0,133.0,57.0,3,3.6173832416534424,None,,,,,0,0,0,0,0,76,76,66,513.3895106315613,,,,,,,,,,,,,,,,,,,,,,,,,,,,,,,,,,,,,,,,,,,,,,,,,,,,,,,,,,,,,,,,,,,,,,,,,,,,,,,,,78.0,78.0,57.0,133.0,133.0,57.0,1.0,1.1,-682,285,-480,252,-289,260,513.374947309494,513.3749871253967,513.3771834373474,513.3895106315613,513.5393695831299,513.5393695831299,513.5393695831299,513.5393695831299,513.5393695831299,513.5393695831299,513.5393695831299,517.0239632129669,3,3.6173832416534424,None,,,,,,,,,,,,,,,,,,167,3,2025-02-28_14h22.04.797,comp,2024.2.4,60.9344936295091,2025-02-28 14h22.19.064710 -0500,
77,77,0,critical,wdh,35.0,2.1,upper,125.0,200.0,127.0,127.0,200.0,125.0,3,3.282024383544922,None,,,,,0,0,0,0,0,77,77,9,517.0393416881561,,,,,,,,,,,,,,,,,,,,,,,,,,,,,,,,,,,,,,,,,,,,,,,,,,,,,,,,,,,,,,,,,,,,,,,,,,,,,,,,,125.0,200.0,127.0,127.0,200.0,125.0,2.1,2.11,-260,262,0,259,222,-259,517.024796962738,517.0248386859894,517.0273740291595,517.0393416881561,517.1895980834961,517.1895980834961,517.1895980834961,517.1895980834961,517.1895980834961,517.1895980834961,517.1895980834961,520.3242990970612,3,3.282024383544922,None,,,,,,,,,,,,,,,,,,167,3,2025-02-28_14h22.04.797,comp,2024.2.4,60.9344936295091,2025-02-28 14h22.19.064710 -0500,
78,78,0,filler_square,None,None,None,None,None,None,None,None,None,None,2,1.5082628726959229,None,,,,,0,0,0,0,0,78,78,187,520.3395204544067,,,,,,,,,,,,,,,,,,,,,,,,,,,,,,,,,,,,,,,,,,,,,,,,,,,,,,,,,,,,,,,,,,,,,,,,,,,,,,,,,95.67491759308668,82.71344905744763,115.30851419356509,115.30851419356509,86.07523656360044,78.85365817226338,1.0,1.3,285,-264,480,-253,673,-252,520.3252832889557,520.3253240585327,520.3277688026428,520.3395204544067,520.4894464015961,520.4894464015961,520.4894464015961,520.4894464015961,520.4894464015961,520.4894464015961,520.4894464015961,521.8571350574493,2,1.5082628726959229,None,,,,,,,,,,,,,,,,,,167,3,2025-02-28_14h22.04.797,comp,2024.2.4,60.9344936295091,2025-02-28 14h22.19.064710 -0500,
79,79,0,critical,dhw,35.0,1.0,upper,127.0,127.0,200.0,125.0,125.0,200.0,3,5.286431789398193,None,,,,,0,0,0,0,0,79,79,49,521.8729016780853,,,,,,,,,,,,,,,,,,,,,,,,,,,,,,,,,,,,,,,,,,,,,,,,,,,,,,,,,,,,,,,,,,,,,,,,,,,,,,,,,127.0,127.0,200.0,125.0,125.0,200.0,1.0,1.1,-702,276,-480,285,-222,271,521.8579394817352,521.8579807281494,521.8600606918335,521.8729016780853,522.0230009555817,522.0230009555817,522.0230009555817,522.0230009555817,522.0230009555817,522.0230009555817,522.0230009555817,527.1739935874939,3,5.286431789398193,None,,,,,,,,,,,,,,,,,,167,3,2025-02-28_14h22.04.797,comp,2024.2.4,60.9344936295091,2025-02-28 14h22.19.064710 -0500,
80,80,0,critical,whd,20.0,1.0,lower,57.0,133.0,133.0,57.0,78.0,78.0,2,14.267035007476807,None,,,,,0,0,0,0,0,80,80,90,527.189208984375,,,,,,,,,,,,,,,,,,,,,,,,,,,,,,,,,,,,,,,,,,,,,,,,,,,,,,,,,,,,,,,,,,,,,,,,,,,,,,,,,57.0,133.0,133.0,57.0,78.0,78.0,1.0,1.1,-671,273,-480,274,-316,271,527.1748003959656,527.1748416423798,527.1774127483368,527.189208984375,527.3393225669861,527.3393225669861,527.3393225669861,527.3393225669861,527.3393225669861,527.3393225669861,527.3393225669861,541.4738004207611,2,14.267035007476807,None,,,,,,,,,,,,,,,,,,167,3,2025-02-28_14h22.04.797,comp,2024.2.4,60.9344936295091,2025-02-28 14h22.19.064710 -0500,
81,81,0,critical,hwd,35.0,2.1,upper,200.0,125.0,125.0,200.0,127.0,127.0,1,7.117558240890503,None,,,,,0,0,0,0,0,81,81,41,541.4891707897186,,,,,,,,,,,,,,,,,,,,,,,,,,,,,,,,,,,,,,,,,,,,,,,,,,,,,,,,,,,,,,,,,,,,,,,,,,,,,,,,,200.0,125.0,125.0,200.0,127.0,127.0,2.1,2.12,-258,-251,0,-280,260,277,541.4745910167694,541.4746315479279,541.4770958423615,541.4891707897186,541.6393518447876,541.6393518447876,541.6393518447876,541.6393518447876,541.6393518447876,541.6393518447876,541.6393518447876,548.6238493919373,1,7.117558240890503,None,,,,,,,,,,,,,,,,,,167,3,2025-02-28_14h22.04.797,comp,2024.2.4,60.9344936295091,2025-02-28 14h22.19.064710 -0500,
82,82,0,critical,wdh,20.0,2.1,upper,125.0,200.0,141.0,141.0,200.0,125.0,3,7.984100818634033,None,,,,,0,0,0,0,0,82,82,11,548.6391355991364,,,,,,,,,,,,,,,,,,,,,,,,,,,,,,,,,,,,,,,,,,,,,,,,,,,,,,,,,,,,,,,,,,,,,,,,,,,,,,,,,125.0,200.0,141.0,141.0,200.0,125.0,2.1,2.12,-266,-273,0,-257,229,250,548.6246645450592,548.6247050762177,548.6271548271179,548.6391355991364,548.789502620697,548.789502620697,548.789502620697,548.789502620697,548.789502620697,548.789502620697,548.789502620697,556.6405172348022,3,7.984100818634033,None,,,,,,,,,,,,,,,,,,167,3,2025-02-28_14h22.04.797,comp,2024.2.4,60.9344936295091,2025-02-28 14h22.19.064710 -0500,
83,83,0,critical,dwh,35.0,2.1,lower,70.0,70.0,57.0,133.0,133.0,57.0,2,3.9189040660858154,None,,,,,0,0,0,0,0,83,83,28,556.6557259559631,,,,,,,,,,,,,,,,,,,,,,,,,,,,,,,,,,,,,,,,,,,,,,,,,,,,,,,,,,,,,,,,,,,,,,,,,,,,,,,,,70.0,70.0,57.0,133.0,133.0,57.0,2.1,2.11,-198,263,0,255,191,-258,556.6413567066193,556.6413969993591,556.6437900066376,556.6557259559631,556.8058454990387,556.8058454990387,556.8058454990387,556.8058454990387,556.8058454990387,556.8058454990387,556.8058454990387,560.5904366970062,2,3.9189040660858154,None,,,,,,,,,,,,,,,,,,167,3,2025-02-28_14h22.04.797,comp,2024.2.4,60.9344936295091,2025-02-28 14h22.19.064710 -0500,
84,84,0,critical,hwd,20.0,3.0,lower,133.0,57.0,57.0,133.0,78.0,78.0,2,7.033747434616089,None,,,,,0,0,0,0,0,84,84,104,560.6057164669037,,,,,,,,,,,,,,,,,,,,,,,,,,,,,,,,,,,,,,,,,,,,,,,,,,,,,,,,,,,,,,,,,,,,,,,,,,,,,,,,,133.0,57.0,57.0,133.0,78.0,78.0,3.0,3.1,-191,270,0,-8,202,-265,560.5912523269653,560.5912909507751,560.593663930893,560.6057164669037,560.7559583187103,560.7559583187103,560.7559583187103,560.7559583187103,560.7559583187103,560.7559583187103,560.7559583187103,567.6569278240204,2,7.033747434616089,None,,,,,,,,,,,,,,,,,,167,3,2025-02-28_14h22.04.797,comp,2024.2.4,60.9344936295091,2025-02-28 14h22.19.064710 -0500,
85,85,0,filler_random,None,None,None,None,None,None,None,None,None,None,2,1.2222895622253418,None,,,,,0,0,0,0,0,85,85,135,567.6723546981812,,,,,,,,,,,,,,,,,,,,,,,,,,,,,,,,,,,,,,,,,,,,,,,,,,,,,,,,,,,,,,,,,,,,,,,,,,,,,,,,,162.94083878979697,117.50057007979565,144.36727352980577,174.50243401767892,124.85413896420975,82.57731912435321,2.2,2.22,-242,261,0,-276,225,-280,567.6578447818756,567.6578855514526,567.6606476306915,567.6723546981812,567.8225636482239,567.8225636482239,567.8225636482239,567.8225636482239,567.8225636482239,567.8225636482239,567.8225636482239,568.9072184562683,2,1.2222895622253418,None,,,,,,,,,,,,,,,,,,167,3,2025-02-28_14h22.04.797,comp,2024.2.4,60.9344936295091,2025-02-28 14h22.19.064710 -0500,
86,86,0,filler_square,None,None,None,None,None,None,None,None,None,None,1,1.268251895904541,None,,,,,0,0,0,0,0,86,86,202,568.9223477840424,,,,,,,,,,,,,,,,,,,,,,,,,,,,,,,,,,,,,,,,,,,,,,,,,,,,,,,,,,,,,,,,,,,,,,,,,,,,,,,,,149.75189276438772,149.75189276438772,90.20792973646002,120.13976143927837,93.02938970957868,118.3202846281221,2.1,2.12,-231,-257,0,-250,215,271,568.9082119464874,568.9082536697388,568.9104735851288,568.9223477840424,569.0725736618042,569.0725736618042,569.0725736618042,569.0725736618042,569.0725736618042,569.0725736618042,569.0725736618042,570.2069590091705,1,1.268251895904541,None,,,,,,,,,,,,,,,,,,167,3,2025-02-28_14h22.04.797,comp,2024.2.4,60.9344936295091,2025-02-28 14h22.19.064710 -0500,
87,87,0,critical,whd,35.0,4.0,upper,125.0,200.0,200.0,125.0,127.0,127.0,2,2.9289188385009766,None,,,,,0,0,0,0,0,87,87,89,570.2224867343903,,,,,,,,,,,,,,,,,,,,,,,,,,,,,,,,,,,,,,,,,,,,,,,,,,,,,,,,,,,,,,,,,,,,,,,,,,,,,,,,,125.0,200.0,200.0,125.0,127.0,127.0,4.0,4.2,-258,-8,0,-290,222,0,570.2077360153198,570.2077744007111,570.2103044986725,570.2224867343903,570.3725435733795,570.3725435733795,570.3725435733795,570.3725435733795,570.3725435733795,570.3725435733795,570.3725435733795,573.1571865081787,2,2.9289188385009766,None,,,,,,,,,,,,,,,,,,167,3,2025-02-28_14h22.04.797,comp,2024.2.4,60.9344936295091,2025-02-28 14h22.19.064710 -0500,
88,88,0,catch,None,None,None,None,None,None,None,None,None,None,3,1.2339820861816406,None,,,,,0,0,0,0,0,88,88,121,573.172554731369,,,,,,,,,,,,,,,,,,,,,,,,,,,,,,,,,,,,,,,,,,,,,,,,,,,,,,,,,,,,,,,,,,,,,,,,,,,,,,,,,132,58,98,92,176,149,2.2,2.21,-171,-274,0,276,216,263,573.158260345459,573.1583030223846,573.1605844497681,573.172554731369,573.3224384784698,573.3224384784698,573.3224384784698,573.3224384784698,573.3224384784698,573.3224384784698,573.3224384784698,574.4235572814941,3,1.2339820861816406,None,,,,,,,,,,,,,,,,,,167,3,2025-02-28_14h22.04.797,comp,2024.2.4,60.9344936295091,2025-02-28 14h22.19.064710 -0500,
89,89,0,filler_square,None,None,None,None,None,None,None,None,None,None,3,3.735642433166504,None,,,,,0,0,0,0,0,89,89,197,574.4388537406921,,,,,,,,,,,,,,,,,,,,,,,,,,,,,,,,,,,,,,,,,,,,,,,,,,,,,,,,,,,,,,,,,,,,,,,,,,,,,,,,,63.87284392162838,70.87440656245724,78.94359295263101,86.95590471555337,105.5690914449421,105.5690914449421,2.1,2.12,-175,-283,0,-281,192,254,574.4245114326477,574.4245522022247,574.4270303249359,574.4388537406921,574.5891556739807,574.5891556739807,574.5891556739807,574.5891556739807,574.5891556739807,574.5891556739807,574.5891556739807,578.1900992393494,3,3.735642433166504,None,,,,,,,,,,,,,,,,,,167,3,2025-02-28_14h22.04.797,comp,2024.2.4,60.9344936295091,2025-02-28 14h22.19.064710 -0500,
90,90,0,critical,hwd,35.0,3.0,lower,133.0,57.0,57.0,133.0,70.0,70.0,2,4.384926080703735,None,,,,,0,0,0,0,0,90,90,98,578.2055611610413,,,,,,,,,,,,,,,,,,,,,,,,,,,,,,,,,,,,,,,,,,,,,,,,,,,,,,,,,,,,,,,,,,,,,,,,,,,,,,,,,133.0,57.0,57.0,133.0,70.0,70.0,3.0,3.1,-191,256,0,-13,198,-289,578.1908836364746,578.1909229755402,578.1929612159729,578.2055611610413,578.3557677268982,578.3557677268982,578.3557677268982,578.3557677268982,578.3557677268982,578.3557677268982,578.3557677268982,582.6068711280823,2,4.384926080703735,None,,,,,,,,,,,,,,,,,,167,3,2025-02-28_14h22.04.797,comp,2024.2.4,60.9344936295091,2025-02-28 14h22.19.064710 -0500,
91,91,0,critical,wdh,20.0,2.1,upper,125.0,200.0,141.0,141.0,200.0,125.0,3,2.593085289001465,None,,,,,0,0,0,0,0,91,91,35,582.622234582901,,,,,,,,,,,,,,,,,,,,,,,,,,,,,,,,,,,,,,,,,,,,,,,,,,,,,,,,,,,,,,,,,,,,,,,,,,,,,,,,,125.0,200.0,141.0,141.0,200.0,125.0,2.1,2.11,-266,273,0,287,229,-258,582.6077134609222,582.6077535152435,582.610360622406,582.622234582901,582.7725586891174,582.7725586891174,582.7725586891174,582.7725586891174,582.7725586891174,582.7725586891174,582.7725586891174,585.2237150669098,3,2.593085289001465,None,,,,,,,,,,,,,,,,,,167,3,2025-02-28_14h22.04.797,comp,2024.2.4,60.9344936295091,2025-02-28 14h22.19.064710 -0500,
92,92,0,filler_square,None,None,None,None,None,None,None,None,None,None,3,1.833282470703125,None,,,,,0,0,0,0,0,92,92,182,585.2391636371613,,,,,,,,,,,,,,,,,,,,,,,,,,,,,,,,,,,,,,,,,,,,,,,,,,,,,,,,,,,,,,,,,,,,,,,,,,,,,,,,,77.02408250216487,81.15035046262554,65.01291345972426,79.87056779840505,84.2780198305802,84.2780198305802,1.0,1.1,-657,257,-480,264,-302,258,585.224705696106,585.2247476577759,585.2274143695831,585.2391636371613,585.3892168998718,585.3892168998718,585.3892168998718,585.3892168998718,585.3892168998718,585.3892168998718,585.3892168998718,587.0901639461517,3,1.833282470703125,None,,,,,,,,,,,,,,,,,,167,3,2025-02-28_14h22.04.797,comp,2024.2.4,60.9344936295091,2025-02-28 14h22.19.064710 -0500,
93,93,0,critical,dwh,35.0,4.0,upper,127.0,127.0,125.0,200.0,200.0,125.0,2,3.230956792831421,None,,,,,0,0,0,0,0,93,93,65,587.1055572032928,,,,,,,,,,,,,,,,,,,,,,,,,,,,,,,,,,,,,,,,,,,,,,,,,,,,,,,,,,,,,,,,,,,,,,,,,,,,,,,,,127.0,127.0,125.0,200.0,200.0,125.0,4.0,4.2,-260,-10,0,-255,258,-16,587.0909595489502,587.0910000801086,587.0931720733643,587.1055572032928,587.2558605670929,587.2558605670929,587.2558605670929,587.2558605670929,587.2558605670929,587.2558605670929,587.2558605670929,590.3405787944794,2,3.230956792831421,None,,,,,,,,,,,,,,,,,,167,3,2025-02-28_14h22.04.797,comp,2024.2.4,60.9344936295091,2025-02-28 14h22.19.064710 -0500,
94,94,0,critical,hdw,35.0,2.1,upper,200.0,125.0,127.0,127.0,125.0,200.0,3,1.9330670833587646,None,,,,,0,0,0,0,0,94,94,45,590.3557903766632,,,,,,,,,,,,,,,,,,,,,,,,,,,,,,,,,,,,,,,,,,,,,,,,,,,,,,,,,,,,,,,,,,,,,,,,,,,,,,,,,200.0,125.0,127.0,127.0,125.0,200.0,2.1,2.11,-222,269,0,268,260,-262,590.3413822650909,590.3414220809937,590.3435192108154,590.3557903766632,590.5058443546295,590.5058443546295,590.5058443546295,590.5058443546295,590.5058443546295,590.5058443546295,590.5058443546295,592.2905178070068,3,1.9330670833587646,None,,,,,,,,,,,,,,,,,,167,3,2025-02-28_14h22.04.797,comp,2024.2.4,60.9344936295091,2025-02-28 14h22.19.064710 -0500,
95,95,0,critical,dhw,35.0,3.0,lower,70.0,70.0,133.0,57.0,57.0,133.0,2,6.735216856002808,None,,,,,0,0,0,0,0,95,95,50,592.3056807518005,,,,,,,,,,,,,,,,,,,,,,,,,,,,,,,,,,,,,,,,,,,,,,,,,,,,,,,,,,,,,,,,,,,,,,,,,,,,,,,,,70.0,70.0,133.0,57.0,57.0,133.0,3.0,3.1,-160,273,0,-2,191,-277,592.2914106845856,592.2914516925812,592.2937052249908,592.3056807518005,592.455938577652,592.455938577652,592.455938577652,592.455938577652,592.455938577652,592.455938577652,592.455938577652,599.0566720962524,2,6.735216856002808,None,,,,,,,,,,,,,,,,,,167,3,2025-02-28_14h22.04.797,comp,2024.2.4,60.9344936295091,2025-02-28 14h22.19.064710 -0500,
96,96,0,filler_random,None,None,None,None,None,None,None,None,None,None,1,5.416745901107788,None,,,,,0,0,0,0,0,96,96,152,599.0723965167999,,,,,,,,,,,,,,,,,,,,,,,,,,,,,,,,,,,,,,,,,,,,,,,,,,,,,,,,,,,,,,,,,,,,,,,,,,,,,,,,,117.76682908936579,183.5274826984077,72.46494544307494,195.43700551330903,57.241345440015266,66.8274570368464,1.0,1.1,-765,258,-480,274,-253,287,599.0575032234192,599.0575411319733,599.0593364238739,599.0723965167999,599.2068946361542,599.2068946361542,599.2068946361542,599.2068946361542,599.2068946361542,599.2068946361542,599.2068946361542,604.4904358386993,1,5.416745901107788,None,,,,,,,,,,,,,,,,,,167,3,2025-02-28_14h22.04.797,comp,2024.2.4,60.9344936295091,2025-02-28 14h22.19.064710 -0500,
97,97,0,critical,hwd,35.0,3.0,upper,200.0,125.0,125.0,200.0,127.0,127.0,1,3.8773834705352783,None,,,,,0,0,0,0,0,97,97,99,604.5057189464569,,,,,,,,,,,,,,,,,,,,,,,,,,,,,,,,,,,,,,,,,,,,,,,,,,,,,,,,,,,,,,,,,,,,,,,,,,,,,,,,,200.0,125.0,125.0,200.0,127.0,127.0,3.0,3.1,-258,266,0,-10,260,-286,604.4912378787994,604.4912793636322,604.4934017658234,604.5057189464569,604.6557464599609,604.6557464599609,604.6557464599609,604.6557464599609,604.6557464599609,604.6557464599609,604.6557464599609,608.3901691436768,1,3.8773834705352783,None,,,,,,,,,,,,,,,,,,167,3,2025-02-28_14h22.04.797,comp,2024.2.4,60.9344936295091,2025-02-28 14h22.19.064710 -0500,
98,98,0,critical,whd,20.0,4.0,upper,125.0,200.0,200.0,125.0,141.0,141.0,2,4.088479042053223,None,,,,,0,0,0,0,0,98,98,95,608.4056537151337,,,,,,,,,,,,,,,,,,,,,,,,,,,,,,,,,,,,,,,,,,,,,,,,,,,,,,,,,,,,,,,,,,,,,,,,,,,,,,,,,125.0,200.0,200.0,125.0,141.0,141.0,4.0,4.2,-258,6,0,-267,229,-16,608.3910484313965,608.3910880088806,608.3931543827057,608.4056537151337,608.5556967258453,608.5556967258453,608.5556967258453,608.5556967258453,608.5556967258453,608.5556967258453,608.5556967258453,612.5068850517273,2,4.088479042053223,None,,,,,,,,,,,,,,,,,,167,3,2025-02-28_14h22.04.797,comp,2024.2.4,60.9344936295091,2025-02-28 14h22.19.064710 -0500,
99,99,0,catch,None,None,None,None,None,None,None,None,None,None,2,1.0361909866333008,None,,,,,0,0,0,0,0,99,99,127,612.5221030712128,,,,,,,,,,,,,,,,,,,,,,,,,,,,,,,,,,,,,,,,,,,,,,,,,,,,,,,,,,,,,,,,,,,,,,,,,,,,,,,,,72,118,148,177,120,70,2.1,2.11,-244,279,0,287,220,-264,612.5079355239868,612.5079760551453,612.5106389522552,612.5221030712128,612.6723613739014,612.6723613739014,612.6723613739014,612.6723613739014,612.6723613739014,612.6723613739014,612.6723613739014,613.573349237442,2,1.0361909866333008,None,,,,,,,,,,,,,,,,,,167,3,2025-02-28_14h22.04.797,comp,2024.2.4,60.9344936295091,2025-02-28 14h22.19.064710 -0500,
100,100,0,critical,hwd,20.0,3.0,upper,200.0,125.0,125.0,200.0,141.0,141.0,1,5.275001049041748,None,,,,,0,0,0,0,0,100,100,105,613.5886287689209,,,,,,,,,,,,,,,,,,,,,,,,,,,,,,,,,,,,,,,,,,,,,,,,,,,,,,,,,,,,,,,,,,,,,,,,,,,,,,,,,200.0,125.0,125.0,200.0,141.0,141.0,3.0,3.1,-258,287,0,11,266,-279,613.5741541385651,613.5742082595825,613.5765545368195,613.5886287689209,613.7390701770782,613.7390701770782,613.7390701770782,613.7390701770782,613.7390701770782,613.7390701770782,613.7390701770782,618.8733425140381,1,5.275001049041748,None,,,,,,,,,,,,,,,,,,167,3,2025-02-28_14h22.04.797,comp,2024.2.4,60.9344936295091,2025-02-28 14h22.19.064710 -0500,
101,101,0,filler_random,None,None,None,None,None,None,None,None,None,None,1,3.5665698051452637,None,,,,,0,0,0,0,0,101,101,138,618.8891713619232,,,,,,,,,,,,,,,,,,,,,,,,,,,,,,,,,,,,,,,,,,,,,,,,,,,,,,,,,,,,,,,,,,,,,,,,,,,,,,,,,180.68702222708538,102.54488145661131,104.57571180760732,119.34477225389702,122.57003096098882,153.50626427693766,1.0,1.1,-687,265,-480,250,-248,279,618.8742594718933,618.874302148819,618.87642121315,618.8891713619232,619.0389590263367,619.0389590263367,619.0389590263367,619.0389590263367,619.0389590263367,619.0389590263367,619.0389590263367,622.4733653068542,1,3.5665698051452637,None,,,,,,,,,,,,,,,,,,167,3,2025-02-28_14h22.04.797,comp,2024.2.4,60.9344936295091,2025-02-28 14h22.19.064710 -0500,
102,102,0,critical,dhw,20.0,2.1,upper,141.0,141.0,200.0,125.0,125.0,200.0,2,3.6055119037628174,None,,,,,0,0,0,0,0,102,102,27,622.4885952472687,,,,,,,,,,,,,,,,,,,,,,,,,,,,,,,,,,,,,,,,,,,,,,,,,,,,,,,,,,,,,,,,,,,,,,,,,,,,,,,,,141.0,141.0,200.0,125.0,125.0,200.0,2.1,2.12,-229,-263,0,-280,258,284,622.4741463661194,622.4741871356964,622.4774737358093,622.4885952472687,622.6393158435822,622.6393158435822,622.6393158435822,622.6393158435822,622.6393158435822,622.6393158435822,622.6393158435822,626.1067748069763,2,3.6055119037628174,None,,,,,,,,,,,,,,,,,,167,3,2025-02-28_14h22.04.797,comp,2024.2.4,60.9344936295091,2025-02-28 14h22.19.064710 -0500,
103,103,0,critical,dwh,20.0,3.0,upper,141.0,141.0,125.0,200.0,200.0,125.0,2,1.8682680130004883,None,,,,,0,0,0,0,0,103,103,69,626.1219372749329,,,,,,,,,,,,,,,,,,,,,,,,,,,,,,,,,,,,,,,,,,,,,,,,,,,,,,,,,,,,,,,,,,,,,,,,,,,,,,,,,141.0,141.0,125.0,200.0,200.0,125.0,3.0,3.1,-266,280,0,-1,258,-278,626.1075994968414,626.1076402664185,626.1101815700531,626.1219372749329,626.2724528312683,626.2724528312683,626.2724528312683,626.2724528312683,626.2724528312683,626.2724528312683,626.2724528312683,628.0067164897919,2,1.8682680130004883,None,,,,,,,,,,,,,,,,,,167,3,2025-02-28_14h22.04.797,comp,2024.2.4,60.9344936295091,2025-02-28 14h22.19.064710 -0500,
104,104,0,filler_random,None,None,None,None,None,None,None,None,None,None,1,1.4881107807159424,None,,,,,0,0,0,0,0,104,104,160,628.0219359397888,,,,,,,,,,,,,,,,,,,,,,,,,,,,,,,,,,,,,,,,,,,,,,,,,,,,,,,,,,,,,,,,,,,,,,,,,,,,,,,,,149.43861157927412,196.24526781124223,116.37519224534154,100.12561328973702,63.491446420833455,174.29485144163374,3.0,3.2,-244,-271,0,-16,233,251,628.0076553821564,628.007696390152,628.0102639198303,628.0219359397888,628.1721541881561,628.1721541881561,628.1721541881561,628.1721541881561,628.1721541881561,628.1721541881561,628.1721541881561,629.5231516361237,1,1.4881107807159424,None,,,,,,,,,,,,,,,,,,167,3,2025-02-28_14h22.04.797,comp,2024.2.4,60.9344936295091,2025-02-28 14h22.19.064710 -0500,
105,105,0,filler_square,None,None,None,None,None,None,None,None,None,None,3,2.755554437637329,None,,,,,0,0,0,0,0,105,105,185,629.5385491847992,,,,,,,,,,,,,,,,,,,,,,,,,,,,,,,,,,,,,,,,,,,,,,,,,,,,,,,,,,,,,,,,,,,,,,,,,,,,,,,,,58.214208581861925,65.75035227457437,58.88612941880341,67.25444279894221,67.85366934325472,67.85366934325472,3.0,3.2,-163,-261,0,12,164,260,629.5241227149963,629.524162530899,629.5262756347656,629.5385491847992,629.6886975765228,629.6886975765228,629.6886975765228,629.6886975765228,629.6886975765228,629.6886975765228,629.6886975765228,632.3064379692078,3,2.755554437637329,None,,,,,,,,,,,,,,,,,,167,3,2025-02-28_14h22.04.797,comp,2024.2.4,60.9344936295091,2025-02-28 14h22.19.064710 -0500,
106,106,0,filler_random,None,None,None,None,None,None,None,None,None,None,2,3.2842624187469482,None,,,,,0,0,0,0,0,106,106,141,632.3218665122986,,,,,,,,,,,,,,,,,,,,,,,,,,,,,,,,,,,,,,,,,,,,,,,,,,,,,,,,,,,,,,,,,,,,,,,,,,,,,,,,,110.52206040892452,73.47577815033864,125.88036038394101,159.24459320401806,138.7643473925724,142.0245494089127,4.0,4.2,-212,19,0,-272,247,12,632.3073310852051,632.3073728084564,632.3097887039185,632.3218665122986,632.472293138504,632.472293138504,632.472293138504,632.472293138504,632.472293138504,632.472293138504,632.472293138504,635.6232311725616,2,3.2842624187469482,None,,,,,,,,,,,,,,,,,,167,3,2025-02-28_14h22.04.797,comp,2024.2.4,60.9344936295091,2025-02-28 14h22.19.064710 -0500,
107,107,0,critical,hwd,35.0,2.1,lower,133.0,57.0,57.0,133.0,70.0,70.0,2,4.0819411277771,None,,,,,0,0,0,0,0,107,107,16,635.6386065483093,,,,,,,,,,,,,,,,,,,,,,,,,,,,,,,,,,,,,,,,,,,,,,,,,,,,,,,,,,,,,,,,,,,,,,,,,,,,,,,,,133.0,57.0,57.0,133.0,70.0,70.0,2.1,2.12,-191,-268,0,-251,198,258,635.6240470409393,635.6240870952606,635.6261768341064,635.6386065483093,635.7885894775391,635.7885894775391,635.7885894775391,635.7885894775391,635.7885894775391,635.7885894775391,635.7885894775391,639.7233083248138,2,4.0819411277771,None,,,,,,,,,,,,,,,,,,167,3,2025-02-28_14h22.04.797,comp,2024.2.4,60.9344936295091,2025-02-28 14h22.19.064710 -0500,
108,108,0,filler_square,None,None,None,None,None,None,None,None,None,None,3,1.6441543102264404,None,,,,,0,0,0,0,0,108,108,204,639.7387452125549,,,,,,,,,,,,,,,,,,,,,,,,,,,,,,,,,,,,,,,,,,,,,,,,,,,,,,,,,,,,,,,,,,,,,,,,,,,,,,,,,65.94024251653872,73.975432830392,57.4232258566981,74.33669982630528,76.49800599736167,76.49800599736167,3.0,3.1,-170,275,0,11,171,-287,639.7242610454559,639.7243015766144,639.7264602184296,639.7387452125549,639.8886384963989,639.8886384963989,639.8886384963989,639.8886384963989,639.8886384963989,639.8886384963989,639.8886384963989,641.3896565437317,3,1.6441543102264404,None,,,,,,,,,,,,,,,,,,167,3,2025-02-28_14h22.04.797,comp,2024.2.4,60.9344936295091,2025-02-28 14h22.19.064710 -0500,
109,109,0,filler_square,None,None,None,None,None,None,None,None,None,None,3,1.3614675998687744,None,,,,,0,0,0,0,0,109,109,176,641.4053957462311,,,,,,,,,,,,,,,,,,,,,,,,,,,,,,,,,,,,,,,,,,,,,,,,,,,,,,,,,,,,,,,,,,,,,,,,,,,,,,,,,63.65899192789956,165.1861445651038,87.59138089774447,132.11898135710953,180.61827670828745,180.61827670828745,2.1,2.12,-245,-258,0,-264,252,252,641.3906147480011,641.3906559944153,641.3930695056915,641.4053957462311,641.5554525852203,641.5554525852203,641.5554525852203,641.5554525852203,641.5554525852203,641.5554525852203,641.5554525852203,642.773229598999,3,1.3614675998687744,None,,,,,,,,,,,,,,,,,,167,3,2025-02-28_14h22.04.797,comp,2024.2.4,60.9344936295091,2025-02-28 14h22.19.064710 -0500,
110,110,0,critical,hwd,35.0,4.0,lower,133.0,57.0,57.0,133.0,70.0,70.0,1,5.178634881973267,None,,,,,0,0,0,0,0,110,110,100,642.7887234687805,,,,,,,,,,,,,,,,,,,,,,,,,,,,,,,,,,,,,,,,,,,,,,,,,,,,,,,,,,,,,,,,,,,,,,,,,,,,,,,,,133.0,57.0,57.0,133.0,70.0,70.0,4.0,4.1,-191,-282,0,6,198,-267,642.7739682197571,642.7740082740784,642.7761726379395,642.7887234687805,642.9386520385742,642.9386520385742,642.9386520385742,642.9386520385742,642.9386520385742,642.9386520385742,642.9386520385742,647.9731433391571,1,5.178634881973267,None,,,,,,,,,,,,,,,,,,167,3,2025-02-28_14h22.04.797,comp,2024.2.4,60.9344936295091,2025-02-28 14h22.19.064710 -0500,
111,111,0,filler_random,None,None,None,None,None,None,None,None,None,None,3,2.9696502685546875,None,,,,,0,0,0,0,0,111,111,156,647.9886193275452,,,,,,,,,,,,,,,,,,,,,,,,,,,,,,,,,,,,,,,,,,,,,,,,,,,,,,,,,,,,,,,,,,,,,,,,,,,,,,,,,97.8076558583546,151.46718750503135,58.670034227811385,134.94518412612751,125.46316792988134,152.51748512435944,3.0,3.2,-239,-281,0,17,240,267,647.9740519523621,647.9740929603577,647.9762301445007,647.9886193275452,648.1387348175049,648.1387348175049,648.1387348175049,648.1387348175049,648.1387348175049,648.1387348175049,648.1387348175049,650.9735105037689,3,2.9696502685546875,None,,,,,,,,,,,,,,,,,,167,3,2025-02-28_14h22.04.797,comp,2024.2.4,60.9344936295091,2025-02-28 14h22.19.064710 -0500,
112,112,0,filler_square,None,None,None,None,None,None,None,None,None,None,3,1.3213722705841064,None,,,,,0,0,0,0,0,112,112,207,650.9885606765747,,,,,,,,,,,,,,,,,,,,,,,,,,,,,,,,,,,,,,,,,,,,,,,,,,,,,,,,,,,,,,,,,,,,,,,,,,,,,,,,,60.14511758241775,64.37624953525224,59.31480031963016,63.19265668571245,72.61955815822373,72.61955815822373,2.2,2.22,-160,275,0,-267,164,-268,650.974538564682,650.9745802879333,650.9769086837769,650.9885606765747,651.1389157772064,651.1389157772064,651.1389157772064,651.1389157772064,651.1389157772064,651.1389157772064,651.1389157772064,652.3228962421417,3,1.3213722705841064,None,,,,,,,,,,,,,,,,,,167,3,2025-02-28_14h22.04.797,comp,2024.2.4,60.9344936295091,2025-02-28 14h22.19.064710 -0500,
113,113,0,filler_square,None,None,None,None,None,None,None,None,None,None,2,1.3337681293487549,None,,,,,0,0,0,0,0,113,113,188,652.3384082317352,,,,,,,,,,,,,,,,,,,,,,,,,,,,,,,,,,,,,,,,,,,,,,,,,,,,,,,,,,,,,,,,,,,,,,,,,,,,,,,,,81.53133207687227,145.078149415057,173.05182368403678,173.05182368403678,91.09875993966703,171.02296784847016,2.1,2.12,-255,-265,0,-285,268,263,652.3238482475281,652.3238883018494,652.3264374732971,652.3384082317352,652.488707780838,652.488707780838,652.488707780838,652.488707780838,652.488707780838,652.488707780838,652.488707780838,653.6897015571594,2,1.3337681293487549,None,,,,,,,,,,,,,,,,,,167,3,2025-02-28_14h22.04.797,comp,2024.2.4,60.9344936295091,2025-02-28 14h22.19.064710 -0500,
114,114,0,filler_random,None,None,None,None,None,None,None,None,None,None,2,2.061676025390625,None,,,,,0,0,0,0,0,114,114,147,653.7051649093628,,,,,,,,,,,,,,,,,,,,,,,,,,,,,,,,,,,,,,,,,,,,,,,,,,,,,,,,,,,,,,,,,,,,,,,,,,,,,,,,,155.4278558539914,60.750555604047065,104.19357207415288,107.20273877354387,95.66944306641153,109.461951159248,2.2,2.22,-180,285,0,-275,204,-285,653.6905851364136,653.6906230449677,653.6931099891663,653.7051649093628,653.8553750514984,653.8553750514984,653.8553750514984,653.8553750514984,653.8553750514984,653.8553750514984,653.8553750514984,655.7749106884003,2,2.061676025390625,None,,,,,,,,,,,,,,,,,,167,3,2025-02-28_14h22.04.797,comp,2024.2.4,60.9344936295091,2025-02-28 14h22.19.064710 -0500,
115,115,0,filler_square,None,None,None,None,None,None,None,None,None,None,2,1.3360230922698975,None,,,,,0,0,0,0,0,115,115,194,655.7901744842529,,,,,,,,,,,,,,,,,,,,,,,,,,,,,,,,,,,,,,,,,,,,,,,,,,,,,,,,,,,,,,,,,,,,,,,,,,,,,,,,,85.81784294960974,82.87689087574401,102.05534546336133,102.05534546336133,83.78895932254437,80.44350301589617,2.2,2.22,-188,269,0,-268,187,-284,655.7764432430267,655.7765004634857,655.7788410186768,655.7901744842529,655.9384922981262,655.9384922981262,655.9384922981262,655.9384922981262,655.9384922981262,655.9384922981262,655.9384922981262,657.1395502090454,2,1.3360230922698975,None,,,,,,,,,,,,,,,,,,167,3,2025-02-28_14h22.04.797,comp,2024.2.4,60.9344936295091,2025-02-28 14h22.19.064710 -0500,
116,116,0,filler_square,None,None,None,None,None,None,None,None,None,None,2,1.6278865337371826,None,,,,,0,0,0,0,0,116,116,201,657.1551330089569,,,,,,,,,,,,,,,,,,,,,,,,,,,,,,,,,,,,,,,,,,,,,,,,,,,,,,,,,,,,,,,,,,,,,,,,,,,,,,,,,142.23843476120618,82.09939952352276,191.97352529952434,191.97352529952434,102.0037102390866,100.46484023794487,3.0,3.2,-233,-253,0,-16,242,262,657.1405234336853,657.1405646800995,657.143072605133,657.1551330089569,657.3053431510925,657.3053431510925,657.3053431510925,657.3053431510925,657.3053431510925,657.3053431510925,657.3053431510925,658.7898502349854,2,1.6278865337371826,None,,,,,,,,,,,,,,,,,,167,3,2025-02-28_14h22.04.797,comp,2024.2.4,60.9344936295091,2025-02-28 14h22.19.064710 -0500,
117,117,0,critical,dwh,35.0,2.1,upper,127.0,127.0,125.0,200.0,200.0,125.0,3,3.730088710784912,None,,,,,0,0,0,0,0,117,117,29,658.8054101467133,,,,,,,,,,,,,,,,,,,,,,,,,,,,,,,,,,,,,,,,,,,,,,,,,,,,,,,,,,,,,,,,,,,,,,,,,,,,,,,,,127.0,127.0,125.0,200.0,200.0,125.0,2.1,2.11,-260,265,0,287,258,-267,658.7906489372253,658.7906906604767,658.7931394577026,658.8054101467133,658.9554350376129,658.9554350376129,658.9554350376129,658.9554350376129,658.9554350376129,658.9554350376129,658.9554350376129,662.5398833751678,3,3.730088710784912,None,,,,,,,,,,,,,,,,,,167,3,2025-02-28_14h22.04.797,comp,2024.2.4,60.9344936295091,2025-02-28 14h22.19.064710 -0500,
118,118,0,filler_square,None,None,None,None,None,None,None,None,None,None,1,1.4032506942749023,None,,,,,0,0,0,0,0,118,118,208,662.5555760860443,,,,,,,,,,,,,,,,,,,,,,,,,,,,,,,,,,,,,,,,,,,,,,,,,,,,,,,,,,,,,,,,,,,,,,,,,,,,,,,,,134.4650262416726,134.4650262416726,122.56416510190284,121.20960922393809,71.12861285983854,97.17902419360689,3.0,3.2,-224,-274,0,13,205,261,662.5408928394318,662.5409348011017,662.5431220531464,662.5555760860443,662.7052958011627,662.7052958011627,662.7052958011627,662.7052958011627,662.7052958011627,662.7052958011627,662.7052958011627,663.9731125831604,1,1.4032506942749023,None,,,,,,,,,,,,,,,,,,167,3,2025-02-28_14h22.04.797,comp,2024.2.4,60.9344936295091,2025-02-28 14h22.19.064710 -0500,
119,119,0,critical,hwd,35.0,1.0,upper,200.0,125.0,125.0,200.0,127.0,127.0,2,5.6890788078308105,None,,,,,0,0,0,0,0,119,119,97,663.9887888431549,,,,,,,,,,,,,,,,,,,,,,,,,,,,,,,,,,,,,,,,,,,,,,,,,,,,,,,,,,,,,,,,,,,,,,,,,,,,,,,,,200.0,125.0,125.0,200.0,127.0,127.0,1.0,1.3,222,-259,480,-254,740,-258,663.974041223526,663.9740805625916,663.977705001831,663.9887888431549,664.1385989189148,664.1385989189148,664.1385989189148,664.1385989189148,664.1385989189148,664.1385989189148,664.1385989189148,669.6900010108948,2,5.6890788078308105,None,,,,,,,,,,,,,,,,,,167,3,2025-02-28_14h22.04.797,comp,2024.2.4,60.9344936295091,2025-02-28 14h22.19.064710 -0500,
120,120,0,critical,hwd,20.0,4.0,upper,200.0,125.0,125.0,200.0,141.0,141.0,1,2.4537949562072754,None,,,,,0,0,0,0,0,120,120,107,669.7050063610077,,,,,,,,,,,,,,,,,,,,,,,,,,,,,,,,,,,,,,,,,,,,,,,,,,,,,,,,,,,,,,,,,,,,,,,,,,,,,,,,,200.0,125.0,125.0,200.0,141.0,141.0,4.0,4.1,-258,-274,0,-20,266,-261,669.6908252239227,669.6908662319183,669.6933915615082,669.7050063610077,669.8552129268646,669.8552129268646,669.8552129268646,669.8552129268646,669.8552129268646,669.8552129268646,669.8552129268646,672.1731629371643,1,2.4537949562072754,None,,,,,,,,,,,,,,,,,,167,3,2025-02-28_14h22.04.797,comp,2024.2.4,60.9344936295091,2025-02-28 14h22.19.064710 -0500,
121,121,0,critical,wdh,35.0,1.0,upper,125.0,200.0,127.0,127.0,200.0,125.0,1,2.1005709171295166,None,,,,,0,0,0,0,0,121,121,73,672.1882636547089,,,,,,,,,,,,,,,,,,,,,,,,,,,,,,,,,,,,,,,,,,,,,,,,,,,,,,,,,,,,,,,,,,,,,,,,,,,,,,,,,125.0,200.0,127.0,127.0,200.0,125.0,1.0,1.3,220,-280,480,-256,702,-269,672.1739702224731,672.1740102767944,672.1763036251068,672.1882636547089,672.3385944366455,672.3385944366455,672.3385944366455,672.3385944366455,672.3385944366455,672.3385944366455,672.3385944366455,674.2900657653809,1,2.1005709171295166,None,,,,,,,,,,,,,,,,,,167,3,2025-02-28_14h22.04.797,comp,2024.2.4,60.9344936295091,2025-02-28 14h22.19.064710 -0500,
122,122,0,critical,hdw,20.0,2.1,lower,133.0,57.0,78.0,78.0,57.0,133.0,1,2.749924898147583,None,,,,,0,0,0,0,0,122,122,46,674.3052983283997,,,,,,,,,,,,,,,,,,,,,,,,,,,,,,,,,,,,,,,,,,,,,,,,,,,,,,,,,,,,,,,,,,,,,,,,,,,,,,,,,133.0,57.0,78.0,78.0,57.0,133.0,2.1,2.11,-164,263,0,288,202,-279,674.2908804416656,674.2909209728241,674.2929539680481,674.3052983283997,674.4550831317902,674.4550831317902,674.4550831317902,674.4550831317902,674.4550831317902,674.4550831317902,674.4550831317902,677.0728361606598,1,2.749924898147583,None,,,,,,,,,,,,,,,,,,167,3,2025-02-28_14h22.04.797,comp,2024.2.4,60.9344936295091,2025-02-28 14h22.19.064710 -0500,
123,123,0,critical,wdh,35.0,2.1,lower,57.0,133.0,70.0,70.0,133.0,57.0,1,5.133838176727295,None,,,,,0,0,0,0,0,123,123,8,677.0882284641266,,,,,,,,,,,,,,,,,,,,,,,,,,,,,,,,,,,,,,,,,,,,,,,,,,,,,,,,,,,,,,,,,,,,,,,,,,,,,,,,,57.0,133.0,70.0,70.0,133.0,57.0,2.1,2.12,-198,-286,0,-271,160,286,677.0736558437347,677.073695898056,677.0761802196503,677.0882284641266,677.2386901378632,677.2386901378632,677.2386901378632,677.2386901378632,677.2386901378632,677.2386901378632,677.2386901378632,682.2397501468658,1,5.133838176727295,None,,,,,,,,,,,,,,,,,,167,3,2025-02-28_14h22.04.797,comp,2024.2.4,60.9344936295091,2025-02-28 14h22.19.064710 -0500,
124,124,0,filler_square,None,None,None,None,None,None,None,None,None,None,3,1.2715353965759277,None,,,,,0,0,0,0,0,124,124,173,682.2548141479492,,,,,,,,,,,,,,,,,,,,,,,,,,,,,,,,,,,,,,,,,,,,,,,,,,,,,,,,,,,,,,,,,,,,,,,,,,,,,,,,,78.04584961296315,137.3866412731473,140.13776235643547,82.69082104139261,194.39454204624815,194.39454204624815,3.0,3.2,-206,-280,0,14,235,276,682.2407426834106,682.2407841682434,682.2432463169098,682.2548141479492,682.4052999019623,682.4052999019623,682.4052999019623,682.4052999019623,682.4052999019623,682.4052999019623,682.4052999019623,683.5395596027374,3,1.2715353965759277,None,,,,,,,,,,,,,,,,,,167,3,2025-02-28_14h22.04.797,comp,2024.2.4,60.9344936295091,2025-02-28 14h22.19.064710 -0500,
125,125,0,critical,dhw,35.0,2.1,upper,127.0,127.0,200.0,125.0,125.0,200.0,2,2.6601016521453857,None,,,,,0,0,0,0,0,125,125,1,683.5547158718109,,,,,,,,,,,,,,,,,,,,,,,,,,,,,,,,,,,,,,,,,,,,,,,,,,,,,,,,,,,,,,,,,,,,,,,,,,,,,,,,,127.0,127.0,200.0,125.0,125.0,200.0,2.1,2.12,-222,-251,0,-261,258,264,683.5403392314911,683.5403814315796,683.542736530304,683.5547158718109,683.7052319049835,683.7052319049835,683.7052319049835,683.7052319049835,683.7052319049835,683.7052319049835,683.7052319049835,686.2231278419495,2,2.6601016521453857,None,,,,,,,,,,,,,,,,,,167,3,2025-02-28_14h22.04.797,comp,2024.2.4,60.9344936295091,2025-02-28 14h22.19.064710 -0500,
126,126,0,critical,hdw,35.0,1.0,upper,200.0,125.0,127.0,127.0,125.0,200.0,3,2.9597904682159424,None,,,,,0,0,0,0,0,126,126,109,686.2388741970062,,,,,,,,,,,,,,,,,,,,,,,,,,,,,,,,,,,,,,,,,,,,,,,,,,,,,,,,,,,,,,,,,,,,,,,,,,,,,,,,,200.0,125.0,127.0,127.0,125.0,200.0,1.0,1.3,258,-262,480,-282,740,-289,686.2239515781403,686.2239916324615,686.2275705337524,686.2388741970062,686.3888053894043,686.3888053894043,686.3888053894043,686.3888053894043,686.3888053894043,686.3888053894043,686.3888053894043,689.206577539444,3,2.9597904682159424,None,,,,,,,,,,,,,,,,,,167,3,2025-02-28_14h22.04.797,comp,2024.2.4,60.9344936295091,2025-02-28 14h22.19.064710 -0500,
127,127,0,filler_square,None,None,None,None,None,None,None,None,None,None,2,2.5518269538879395,None,,,,,0,0,0,0,0,127,127,199,689.221982717514,,,,,,,,,,,,,,,,,,,,,,,,,,,,,,,,,,,,,,,,,,,,,,,,,,,,,,,,,,,,,,,,,,,,,,,,,,,,,,,,,57.22163454090753,107.05414465037353,123.98332129376965,123.98332129376965,57.71092809213067,67.98829959370099,2.2,2.21,-212,-261,0,260,192,272,689.207545042038,689.2075860500336,689.2097411155701,689.221982717514,689.3717169761658,689.3717169761658,689.3717169761658,689.3717169761658,689.3717169761658,689.3717169761658,689.3717169761658,691.7894089221954,2,2.5518269538879395,None,,,,,,,,,,,,,,,,,,167,3,2025-02-28_14h22.04.797,comp,2024.2.4,60.9344936295091,2025-02-28 14h22.19.064710 -0500,
128,128,0,filler_square,None,None,None,None,None,None,None,None,None,None,3,1.5689334869384766,None,,,,,0,0,0,0,0,128,128,192,691.8047876358032,,,,,,,,,,,,,,,,,,,,,,,,,,,,,,,,,,,,,,,,,,,,,,,,,,,,,,,,,,,,,,,,,,,,,,,,,,,,,,,,,78.11780148152314,91.55105864803264,60.799278044390974,87.2697623572691,105.61116478971988,105.61116478971988,2.1,2.12,-185,-284,0,-267,192,280,691.7903666496277,691.7904088497162,691.7927706241608,691.8047876358032,691.9549105167389,691.9549105167389,691.9549105167389,691.9549105167389,691.9549105167389,691.9549105167389,691.9549105167389,693.3894908428192,3,1.5689334869384766,None,,,,,,,,,,,,,,,,,,167,3,2025-02-28_14h22.04.797,comp,2024.2.4,60.9344936295091,2025-02-28 14h22.19.064710 -0500,
129,129,0,critical,dwh,20.0,2.1,upper,141.0,141.0,125.0,200.0,200.0,125.0,3,3.547255277633667,None,,,,,0,0,0,0,0,129,129,7,693.4047522544861,,,,,,,,,,,,,,,,,,,,,,,,,,,,,,,,,,,,,,,,,,,,,,,,,,,,,,,,,,,,,,,,,,,,,,,,,,,,,,,,,141.0,141.0,125.0,200.0,200.0,125.0,2.1,2.12,-266,-282,0,-289,258,269,693.3902907371521,693.3903305530548,693.3927779197693,693.4047522544861,693.5551116466522,693.5551116466522,693.5551116466522,693.5551116466522,693.5551116466522,693.5551116466522,693.5551116466522,696.9543588161469,3,3.547255277633667,None,,,,,,,,,,,,,,,,,,167,3,2025-02-28_14h22.04.797,comp,2024.2.4,60.9344936295091,2025-02-28 14h22.19.064710 -0500,
130,130,0,critical,dwh,20.0,2.1,lower,78.0,78.0,57.0,133.0,133.0,57.0,1,3.36598539352417,None,,,,,0,0,0,0,0,130,130,30,696.9693059921265,,,,,,,,,,,,,,,,,,,,,,,,,,,,,,,,,,,,,,,,,,,,,,,,,,,,,,,,,,,,,,,,,,,,,,,,,,,,,,,,,78.0,78.0,57.0,133.0,133.0,57.0,2.1,2.11,-202,276,0,271,191,-283,696.9551413059235,696.9551823139191,696.9571578502655,696.9693059921265,697.1059854030609,697.1059854030609,697.1059854030609,697.1059854030609,697.1059854030609,697.1059854030609,697.1059854030609,700.3394393920898,1,3.36598539352417,None,,,,,,,,,,,,,,,,,,167,3,2025-02-28_14h22.04.797,comp,2024.2.4,60.9344936295091,2025-02-28 14h22.19.064710 -0500,
131,131,0,catch,None,None,None,None,None,None,None,None,None,None,2,1.195493221282959,None,,,,,0,0,0,0,0,131,131,128,700.3550398349762,,,,,,,,,,,,,,,,,,,,,,,,,,,,,,,,,,,,,,,,,,,,,,,,,,,,,,,,,,,,,,,,,,,,,,,,,,,,,,,,,95,95,168,157,79,111,3.0,3.1,-222,280,0,-7,230,-269,700.3404960632324,700.3405365943909,700.3426790237427,700.3550398349762,700.5051064491272,700.5051064491272,700.5051064491272,700.5051064491272,700.5051064491272,700.5051064491272,700.5051064491272,701.5562760829926,2,1.195493221282959,None,,,,,,,,,,,,,,,,,,167,3,2025-02-28_14h22.04.797,comp,2024.2.4,60.9344936295091,2025-02-28 14h22.19.064710 -0500,
132,132,0,critical,dhw,35.0,2.1,lower,70.0,70.0,133.0,57.0,57.0,133.0,2,3.6668901443481445,None,,,,,0,0,0,0,0,132,132,24,701.5716247558594,,,,,,,,,,,,,,,,,,,,,,,,,,,,,,,,,,,,,,,,,,,,,,,,,,,,,,,,,,,,,,,,,,,,,,,,,,,,,,,,,70.0,70.0,133.0,57.0,57.0,133.0,2.1,2.11,-160,261,0,284,191,-271,701.5570566654205,701.5570979118347,701.5594618320465,701.5716247558594,701.7220628261566,701.7220628261566,701.7220628261566,701.7220628261566,701.7220628261566,701.7220628261566,701.7220628261566,705.2559885978699,2,3.6668901443481445,None,,,,,,,,,,,,,,,,,,167,3,2025-02-28_14h22.04.797,comp,2024.2.4,60.9344936295091,2025-02-28 14h22.19.064710 -0500,
133,133,0,critical,dhw,35.0,1.0,lower,70.0,70.0,133.0,57.0,57.0,133.0,2,2.0062263011932373,None,,,,,0,0,0,0,0,133,133,48,705.2713768482208,,,,,,,,,,,,,,,,,,,,,,,,,,,,,,,,,,,,,,,,,,,,,,,,,,,,,,,,,,,,,,,,,,,,,,,,,,,,,,,,,70.0,70.0,133.0,57.0,57.0,133.0,1.0,1.2,-160,5,0,-11,191,13,705.2567431926727,705.2567830085754,705.2593574523926,705.2713768482208,705.4218997955322,705.4218997955322,705.4218997955322,705.4218997955322,705.4218997955322,705.4218997955322,705.4218997955322,707.289449930191,2,2.0062263011932373,None,,,,,,,,,,,,,,,,,,167,3,2025-02-28_14h22.04.797,comp,2024.2.4,60.9344936295091,2025-02-28 14h22.19.064710 -0500,
134,134,0,critical,hwd,35.0,4.0,upper,200.0,125.0,125.0,200.0,127.0,127.0,1,4.604754686355591,None,,,,,0,0,0,0,0,134,134,101,707.3048486709595,,,,,,,,,,,,,,,,,,,,,,,,,,,,,,,,,,,,,,,,,,,,,,,,,,,,,,,,,,,,,,,,,,,,,,,,,,,,,,,,,200.0,125.0,125.0,200.0,127.0,127.0,4.0,4.1,-258,-258,0,17,260,-270,707.2902481555939,707.2902886867523,707.2927691936493,707.3048486709595,707.455005645752,707.455005645752,707.455005645752,707.455005645752,707.455005645752,707.455005645752,707.455005645752,711.9229924678802,1,4.604754686355591,None,,,,,,,,,,,,,,,,,,167,3,2025-02-28_14h22.04.797,comp,2024.2.4,60.9344936295091,2025-02-28 14h22.19.064710 -0500,
135,135,0,critical,whd,20.0,2.1,upper,125.0,200.0,200.0,125.0,141.0,141.0,1,3.6034984588623047,None,,,,,0,0,0,0,0,135,135,39,711.938178062439,,,,,,,,,,,,,,,,,,,,,,,,,,,,,,,,,,,,,,,,,,,,,,,,,,,,,,,,,,,,,,,,,,,,,,,,,,,,,,,,,125.0,200.0,200.0,125.0,141.0,141.0,2.1,2.12,-258,-279,0,-265,229,273,711.9237928390503,711.9238338470459,711.9259617328644,711.938178062439,712.0883574485779,712.0883574485779,712.0883574485779,712.0883574485779,712.0883574485779,712.0883574485779,712.0883574485779,715.5562226772308,1,3.6034984588623047,None,,,,,,,,,,,,,,,,,,167,3,2025-02-28_14h22.04.797,comp,2024.2.4,60.9344936295091,2025-02-28 14h22.19.064710 -0500,
136,136,0,catch,None,None,None,None,None,None,None,None,None,None,1,1.1645638942718506,None,,,,,0,0,0,0,0,136,136,123,715.571252822876,,,,,,,,,,,,,,,,,,,,,,,,,,,,,,,,,,,,,,,,,,,,,,,,,,,,,,,,,,,,,,,,,,,,,,,,,,,,,,,,,132,193,94,96,130,60,1.0,1.3,240,-261,480,-257,654,-263,715.5572679042816,715.5573091506958,715.5596561431885,715.571252822876,715.721538066864,715.721538066864,715.721538066864,715.721538066864,715.721538066864,715.721538066864,715.721538066864,716.7395341396332,1,1.1645638942718506,None,,,,,,,,,,,,,,,,,,167,3,2025-02-28_14h22.04.797,comp,2024.2.4,60.9344936295091,2025-02-28 14h22.19.064710 -0500,
137,137,0,critical,whd,35.0,2.1,lower,57.0,133.0,133.0,57.0,70.0,70.0,2,4.571136474609375,None,,,,,0,0,0,0,0,137,137,36,716.7549195289612,,,,,,,,,,,,,,,,,,,,,,,,,,,,,,,,,,,,,,,,,,,,,,,,,,,,,,,,,,,,,,,,,,,,,,,,,,,,,,,,,57.0,133.0,133.0,57.0,70.0,70.0,2.1,2.12,-191,-275,0,-280,160,285,716.740353345871,716.7403938770294,716.7425420284271,716.7549195289612,716.9048101902008,716.9048101902008,716.9048101902008,716.9048101902008,716.9048101902008,716.9048101902008,716.9048101902008,721.33913230896,2,4.571136474609375,None,,,,,,,,,,,,,,,,,,167,3,2025-02-28_14h22.04.797,comp,2024.2.4,60.9344936295091,2025-02-28 14h22.19.064710 -0500,
138,138,0,critical,hdw,35.0,4.0,upper,200.0,125.0,127.0,127.0,125.0,200.0,1,3.7387969493865967,None,,,,,0,0,0,0,0,138,138,113,721.3545823097229,,,,,,,,,,,,,,,,,,,,,,,,,,,,,,,,,,,,,,,,,,,,,,,,,,,,,,,,,,,,,,,,,,,,,,,,,,,,,,,,,200.0,125.0,127.0,127.0,125.0,200.0,4.0,4.1,-222,-254,0,-16,260,-263,721.3399510383606,721.3399918079376,721.3432185649872,721.3545823097229,721.5051610469818,721.5051610469818,721.5051610469818,721.5051610469818,721.5051610469818,721.5051610469818,721.5051610469818,725.1060726642609,1,3.7387969493865967,None,,,,,,,,,,,,,,,,,,167,3,2025-02-28_14h22.04.797,comp,2024.2.4,60.9344936295091,2025-02-28 14h22.19.064710 -0500,
139,139,0,filler_random,None,None,None,None,None,None,None,None,None,None,2,3.5503451824188232,None,,,,,0,0,0,0,0,139,139,168,725.1211891174316,,,,,,,,,,,,,,,,,,,,,,,,,,,,,,,,,,,,,,,,,,,,,,,,,,,,,,,,,,,,,,,,,,,,,,,,,,,,,,,,,87.8413753223927,129.27454969875652,102.27279177751886,119.39963775137826,82.17328677707371,76.65067870198072,1.0,1.3,260,-266,480,-251,674,-251,725.1069691181183,725.1070094108582,725.1093780994415,725.1211891174316,725.2715396881104,725.2715396881104,725.2715396881104,725.2715396881104,725.2715396881104,725.2715396881104,725.2715396881104,728.6891150474548,2,3.5503451824188232,None,,,,,,,,,,,,,,,,,,167,3,2025-02-28_14h22.04.797,comp,2024.2.4,60.9344936295091,2025-02-28 14h22.19.064710 -0500,
140,140,0,filler_square,None,None,None,None,None,None,None,None,None,None,1,3.1669554710388184,None,,,,,0,0,0,0,0,140,140,195,728.7045664787292,,,,,,,,,,,,,,,,,,,,,,,,,,,,,,,,,,,,,,,,,,,,,,,,,,,,,,,,,,,,,,,,,,,,,,,,,,,,,,,,,111.86595424044751,111.86595424044751,99.83365515999802,102.11287039767808,88.01913476779335,81.8137524599489,2.2,2.22,-203,269,0,-283,188,-290,728.6901009082794,728.6901423931122,728.6922590732574,728.7045664787292,728.8548402786255,728.8548402786255,728.8548402786255,728.8548402786255,728.8548402786255,728.8548402786255,728.8548402786255,731.8891434669495,1,3.1669554710388184,None,,,,,,,,,,,,,,,,,,167,3,2025-02-28_14h22.04.797,comp,2024.2.4,60.9344936295091,2025-02-28 14h22.19.064710 -0500,
