thisN,thisTrialN,thisRepN,effect,order,distance,config,diag,h_1,w_1,h_2,w_2,h_3,w_3,rect_choice.keys,rect_choice.rt,rect_choice.duration,instructions_loop.thisRepN,instructions_loop.thisTrialN,instructions_loop.thisN,instructions_loop.thisIndex,blocks.thisRepN,blocks.thisTrialN,blocks.thisN,blocks.thisIndex,trials.thisRepN,trials.thisTrialN,trials.thisN,trials.thisIndex,thisRow.t,notes,consent.started,agree_button.started,decline_button.started,consent_img.started,mouse.started,consent.stopped,agree_button.numClicks,agree_button.timesOn,agree_button.timesOff,decline_button.numClicks,decline_button.timesOn,decline_button.timesOff,mouse.x,mouse.y,mouse.leftButton,mouse.midButton,mouse.rightButton,mouse.time,mouse.clicked_name,exp_params.started,exp_params.stopped,welcome.started,welcome_text.started,welcome.stopped,instructions_1.started,instructions_1_text_1.started,instructions_1_text_2.started,key_resp.started,instructions_1.stopped,instructions_loop.key_resp.keys,instructions_loop.key_resp.rt,instructions_loop.key_resp.duration,instructions_2.started,instructions_2_text_1.started,instructions_2_text_2.started,key_resp_2.started,instructions_2.stopped,instructions_loop.key_resp_2.keys,instructions_loop.key_resp_2.rt,instructions_loop.key_resp_2.duration,instructions_3.started,instructions_3_text_1.started,r1_instr3.started,r2_instr3.started,r3_instr3.started,r1_instr3_label.started,r2_instr3_label.started,r3_instr3_label.started,instructions_3_text_3.started,instructions_3_text_4.started,key_resp_3.started,instructions_3.stopped,instructions_loop.key_resp_3.keys,instructions_loop.key_resp_3.rt,instructions_loop.key_resp_3.duration,instructions_4.started,instructions_4_text_1.started,instructions_4_text_3.started,instructions_4_text_2.started,key_resp_4.started,instructions_4.stopped,instructions_loop.key_resp_4.keys,instructions_loop.key_resp_4.rt,instructions_loop.key_resp_4.duration,instructions_5.started,instructions_5_text_1.started,instructions_5_text_2.started,key_resp_5.started,instructions_5.stopped,instructions_loop.key_resp_5.keys,instructions_loop.key_resp_5.rt,instructions_loop.key_resp_5.duration,start_exp.started,start_exp_text.started,key_resp_6.started,start_exp.stopped,key_resp_6.keys,key_resp_6.rt,key_resp_6.duration,h_1_tmp,w_1_tmp,h_2_tmp,w_2_tmp,h_3_tmp,w_3_tmp,config_tmp,config_tmp_1,r_1_x,r_1_y,r_2_x,r_2_y,r_3_x,r_3_y,pre_trial.started,pre_trial.stopped,choice_trial.started,rect_choice.started,r_1.started,r_2.started,r_3.started,r_1_label.started,r_2_label.started,r_3_label.started,prompt.started,choice_trial.stopped,trials.rect_choice.keys,trials.rect_choice.rt,trials.rect_choice.duration,end_block.started,end_block_text.started,end_block.stopped,end.started,end_text.started,key_resp_7.started,end.stopped,key_resp_7.keys,key_resp_7.rt,key_resp_7.duration,debriefing.started,debrief_form.started,end_debrief.started,debriefing.stopped,end_debrief.keys,end_debrief.rt,end_debrief.duration,participant,computer,date,expName,psychopyVersion,frameRate,expStart,
,,,,,,,,,,,,,,,,,,,,,,,,,,,,,,,0.014221668243408203,0.036714792251586914,0.036714792251586914,0.036714792251586914,0.013986825942993164,429.24893260002136,1,[429.20973944664],[429.2097644805908],0,,,[-78.0],[-497.0],[1],[0],[0],[429.2342953681946],['agree_button'],,,,,,,,,,,,,,,,,,,,,,,,,,,,,,,,,,,,,,,,,,,,,,,,,,,,,,,,,,,,,,,,,,,,,,,,,,,,,,,,,,,,,,,,,,,,,,,,,,,,,,,,,,,168,4,2025-02-28_14h27.45.505,comp,2024.2.4,54.10280852425098,2025-02-28 14h27.55.713123 -0500,
,,,,,,,,,,,,,,,,,,,,,,,,,,,,,,,,,,,,,,,,,,,,,,,,,,429.2494125366211,429.24947786331177,,,,,,,,,,,,,,,,,,,,,,,,,,,,,,,,,,,,,,,,,,,,,,,,,,,,,,,,,,,,,,,,,,,,,,,,,,,,,,,,,,,,,,,,,,,,,,,,,,,,,,,,,168,4,2025-02-28_14h27.45.505,comp,2024.2.4,54.10280852425098,2025-02-28 14h27.55.713123 -0500,
,,,,,,,,,,,,,,,,,,,,,,,,,,,,,,,,,,,,,,,,,,,,,,,,,,,,429.2495198249817,429.26614809036255,431.2681233882904,,,,,,,,,,,,,,,,,,,,,,,,,,,,,,,,,,,,,,,,,,,,,,,,,,,,,,,,,,,,,,,,,,,,,,,,,,,,,,,,,,,,,,,,,,,,,,,,,,,,,,168,4,2025-02-28_14h27.45.505,comp,2024.2.4,54.10280852425098,2025-02-28 14h27.55.713123 -0500,
0,0,0,,,,,,,,,,,,,,,0,0,0,0,,,,,,,,,431.2865653038025,,,,,,,,,,,,,,,,,,,,,,,,,,431.2690396308899,431.2865653038025,431.2865653038025,432.7496802806854,434.0850257873535,space,1.321800947189331,None,434.0851709842682,434.10023021698,434.10023021698,435.59774255752563,440.9023292064667,space,5.2980639934539795,None,440.9024848937988,440.9368522167206,440.9368522167206,440.9368522167206,440.9368522167206,440.9368522167206,440.9368522167206,440.9368522167206,440.9368522167206,440.9368522167206,442.40741777420044,443.7002971172333,space,1.2883398532867432,None,443.7004623413086,443.7167785167694,443.7167785167694,443.7167785167694,445.20069670677185,446.5061149597168,space,1.3026018142700195,None,446.50627160072327,446.52311992645264,446.52311992645264,448.0183391571045,450.6732256412506,space,2.6452059745788574,None,450.6734206676483,450.68855452537537,450.68855452537537,454.32619071006775,space,3.6308541297912598,None,,,,,,,,,,,,,,,,,,,,,,,,,,,,,,,,,,,,,,,,,,,,,,,168,4,2025-02-28_14h27.45.505,comp,2024.2.4,54.10280852425098,2025-02-28 14h27.55.713123 -0500,
0,0,0,filler_random,None,None,None,None,None,None,None,None,None,None,3,5.70928168296814,None,,,,,0,0,0,0,0,0,0,153,454.4017536640167,,,,,,,,,,,,,,,,,,,,,,,,,,,,,,,,,,,,,,,,,,,,,,,,,,,,,,,,,,,,,,,,,,,,,,,,,,,,,,,,,67.8443733214712,112.55014794025736,85.30380242185956,114.60034934560258,83.5582690359476,142.95803516807325,1.0,1.2,-210,10,0,-4,225,0,454.3853874206543,454.38541746139526,454.3863651752472,454.4017536640167,454.54909920692444,454.54909920692444,454.54909920692444,454.54909920692444,454.54909920692444,454.54909920692444,454.54909920692444,460.12557721138,3,5.70928168296814,None,,,,,,,,,,,,,,,,,,168,4,2025-02-28_14h27.45.505,comp,2024.2.4,54.10280852425098,2025-02-28 14h27.55.713123 -0500,
1,1,0,filler_square,None,None,None,None,None,None,None,None,None,None,3,2.4026854038238525,None,,,,,0,0,0,0,0,1,1,201,460.14037585258484,,,,,,,,,,,,,,,,,,,,,,,,,,,,,,,,,,,,,,,,,,,,,,,,,,,,,,,,,,,,,,,,,,,,,,,,,,,,,,,,,72.49948542502177,112.23321682191377,83.3627388234327,103.57982926259878,183.23108062476436,183.23108062476436,2.1,2.11,-204,269,0,276,239,-285,460.12699341773987,460.12702560424805,460.12821555137634,460.14037585258484,460.3042950630188,460.3042950630188,460.3042950630188,460.3042950630188,460.3042950630188,460.3042950630188,460.3042950630188,462.559800863266,3,2.4026854038238525,None,,,,,,,,,,,,,,,,,,168,4,2025-02-28_14h27.45.505,comp,2024.2.4,54.10280852425098,2025-02-28 14h27.55.713123 -0500,
2,2,0,critical,hwd,35.0,2.1,upper,200.0,125.0,125.0,200.0,127.0,127.0,2,9.984348058700562,None,,,,,0,0,0,0,0,2,2,17,462.5746943950653,,,,,,,,,,,,,,,,,,,,,,,,,,,,,,,,,,,,,,,,,,,,,,,,,,,,,,,,,,,,,,,,,,,,,,,,,,,,,,,,,200.0,125.0,125.0,200.0,127.0,127.0,2.1,2.12,-258,-253,0,-263,260,270,462.5611960887909,462.56125235557556,462.56369137763977,462.5746943950653,462.7324767112732,462.7324767112732,462.7324767112732,462.7324767112732,462.7324767112732,462.7324767112732,462.7324767112732,472.56892490386963,2,9.984348058700562,None,,,,,,,,,,,,,,,,,,168,4,2025-02-28_14h27.45.505,comp,2024.2.4,54.10280852425098,2025-02-28 14h27.55.713123 -0500,
3,3,0,filler_random,None,None,None,None,None,None,None,None,None,None,2,3.645439863204956,None,,,,,0,0,0,0,0,3,3,130,472.5859365463257,,,,,,,,,,,,,,,,,,,,,,,,,,,,,,,,,,,,,,,,,,,,,,,,,,,,,,,,,,,,,,,,,,,,,,,,,,,,,,,,,183.4417819554652,105.86269003401388,115.08618736928844,180.6138927382434,82.43802512416464,83.24339142551905,2.2,2.22,-239,266,0,-261,228,-286,472.57079243659973,472.57088708877563,472.5741617679596,472.5859365463257,472.7308292388916,472.7308292388916,472.7308292388916,472.7308292388916,472.7308292388916,472.7308292388916,472.7308292388916,476.2363510131836,2,3.645439863204956,None,,,,,,,,,,,,,,,,,,168,4,2025-02-28_14h27.45.505,comp,2024.2.4,54.10280852425098,2025-02-28 14h27.55.713123 -0500,
4,4,0,critical,hdw,35.0,4.0,lower,133.0,57.0,70.0,70.0,57.0,133.0,3,5.832513093948364,None,,,,,0,0,0,0,0,4,4,112,476.25474309921265,,,,,,,,,,,,,,,,,,,,,,,,,,,,,,,,,,,,,,,,,,,,,,,,,,,,,,,,,,,,,,,,,,,,,,,,,,,,,,,,,133.0,57.0,70.0,70.0,57.0,133.0,4.0,4.1,-160,-261,0,11,198,-279,476.23792004585266,476.23799896240234,476.2409152984619,476.25474309921265,476.39776158332825,476.39776158332825,476.39776158332825,476.39776158332825,476.39776158332825,476.39776158332825,476.39776158332825,482.10156178474426,3,5.832513093948364,None,,,,,,,,,,,,,,,,,,168,4,2025-02-28_14h27.45.505,comp,2024.2.4,54.10280852425098,2025-02-28 14h27.55.713123 -0500,
5,5,0,catch,None,None,None,None,None,None,None,None,None,None,1,2.15952467918396,None,,,,,0,0,0,0,0,5,5,121,482.12039494514465,,,,,,,,,,,,,,,,,,,,,,,,,,,,,,,,,,,,,,,,,,,,,,,,,,,,,,,,,,,,,,,,,,,,,,,,,,,,,,,,,138,187,94,96,80,110,2.1,2.11,-238,278,0,271,199,-283,482.10382890701294,482.10390853881836,482.10715675354004,482.12039494514465,482.26627469062805,482.26627469062805,482.26627469062805,482.26627469062805,482.26627469062805,482.26627469062805,482.26627469062805,484.28387427330017,1,2.15952467918396,None,,,,,,,,,,,,,,,,,,168,4,2025-02-28_14h27.45.505,comp,2024.2.4,54.10280852425098,2025-02-28 14h27.55.713123 -0500,
6,6,0,critical,hwd,35.0,2.1,upper,200.0,125.0,125.0,200.0,127.0,127.0,1,9.122957468032837,None,,,,,0,0,0,0,0,6,6,41,484.30035161972046,,,,,,,,,,,,,,,,,,,,,,,,,,,,,,,,,,,,,,,,,,,,,,,,,,,,,,,,,,,,,,,,,,,,,,,,,,,,,,,,,200.0,125.0,125.0,200.0,127.0,127.0,2.1,2.11,-258,260,0,272,260,-259,484.2854526042938,484.2855324745178,484.2896103858948,484.30035161972046,484.44760370254517,484.44760370254517,484.44760370254517,484.44760370254517,484.44760370254517,484.44760370254517,484.44760370254517,493.43701243400574,1,9.122957468032837,None,,,,,,,,,,,,,,,,,,168,4,2025-02-28_14h27.45.505,comp,2024.2.4,54.10280852425098,2025-02-28 14h27.55.713123 -0500,
7,7,0,critical,wdh,35.0,2.1,upper,125.0,200.0,127.0,127.0,200.0,125.0,1,1.6751573085784912,None,,,,,0,0,0,0,0,7,7,33,493.4529926776886,,,,,,,,,,,,,,,,,,,,,,,,,,,,,,,,,,,,,,,,,,,,,,,,,,,,,,,,,,,,,,,,,,,,,,,,,,,,,,,,,125.0,200.0,127.0,127.0,200.0,125.0,2.1,2.11,-260,271,0,279,222,-287,493.4385795593262,493.43867659568787,493.4427523612976,493.4529926776886,493.6048409938812,493.6048409938812,493.6048409938812,493.6048409938812,493.6048409938812,493.6048409938812,493.6048409938812,495.13478899002075,1,1.6751573085784912,None,,,,,,,,,,,,,,,,,,168,4,2025-02-28_14h27.45.505,comp,2024.2.4,54.10280852425098,2025-02-28 14h27.55.713123 -0500,
8,8,0,critical,hwd,35.0,4.0,upper,200.0,125.0,125.0,200.0,127.0,127.0,2,4.127655744552612,None,,,,,0,0,0,0,0,8,8,101,495.1514446735382,,,,,,,,,,,,,,,,,,,,,,,,,,,,,,,,,,,,,,,,,,,,,,,,,,,,,,,,,,,,,,,,,,,,,,,,,,,,,,,,,200.0,125.0,125.0,200.0,127.0,127.0,4.0,4.1,-258,-259,0,-17,260,-256,495.1363971233368,495.1365010738373,495.1398024559021,495.1514446735382,495.28968620300293,495.28968620300293,495.28968620300293,495.28968620300293,495.28968620300293,495.28968620300293,495.28968620300293,499.29269075393677,2,4.127655744552612,None,,,,,,,,,,,,,,,,,,168,4,2025-02-28_14h27.45.505,comp,2024.2.4,54.10280852425098,2025-02-28 14h27.55.713123 -0500,
9,9,0,filler_square,None,None,None,None,None,None,None,None,None,None,3,3.1923673152923584,None,,,,,0,0,0,0,0,9,9,204,499.31081795692444,,,,,,,,,,,,,,,,,,,,,,,,,,,,,,,,,,,,,,,,,,,,,,,,,,,,,,,,,,,,,,,,,,,,,,,,,,,,,,,,,109.17277297920205,66.59636643497893,119.25232346885554,110.32681048482385,124.13246869607384,124.13246869607384,2.2,2.22,-184,252,0,-278,213,-280,499.2945568561554,499.29463720321655,499.2976143360138,499.31081795692444,499.4554681777954,499.4554681777954,499.4554681777954,499.4554681777954,499.4554681777954,499.4554681777954,499.4554681777954,502.5090136528015,3,3.1923673152923584,None,,,,,,,,,,,,,,,,,,168,4,2025-02-28_14h27.45.505,comp,2024.2.4,54.10280852425098,2025-02-28 14h27.55.713123 -0500,
10,10,0,filler_square,None,None,None,None,None,None,None,None,None,None,3,1.7358136177062988,None,,,,,0,0,0,0,0,10,10,177,502.528165102005,,,,,,,,,,,,,,,,,,,,,,,,,,,,,,,,,,,,,,,,,,,,,,,,,,,,,,,,,,,,,,,,,,,,,,,,,,,,,,,,,190.19721239109725,113.45890795475813,97.97576615128838,175.74933028626822,192.71520652937957,192.71520652937957,2.1,2.11,-241,252,0,252,280,-288,502.5114758014679,502.5115592479706,502.514440536499,502.528165102005,502.67332768440247,502.67332768440247,502.67332768440247,502.67332768440247,502.67332768440247,502.67332768440247,502.67332768440247,504.27400612831116,3,1.7358136177062988,None,,,,,,,,,,,,,,,,,,168,4,2025-02-28_14h27.45.505,comp,2024.2.4,54.10280852425098,2025-02-28 14h27.55.713123 -0500,
11,11,0,critical,hdw,20.0,1.0,upper,200.0,125.0,141.0,141.0,125.0,200.0,1,12.26724886894226,None,,,,,0,0,0,0,0,11,11,115,504.2920181751251,,,,,,,,,,,,,,,,,,,,,,,,,,,,,,,,,,,,,,,,,,,,,,,,,,,,,,,,,,,,,,,,,,,,,,,,,,,,,,,,,200.0,125.0,141.0,141.0,125.0,200.0,1.0,1.1,-709,275,-480,286,-214,266,504.2755126953125,504.27558970451355,504.2784879207611,504.2920181751251,504.4399309158325,504.4399309158325,504.4399309158325,504.4399309158325,504.4399309158325,504.4399309158325,504.4399309158325,516.574465751648,1,12.26724886894226,None,,,,,,,,,,,,,,,,,,168,4,2025-02-28_14h27.45.505,comp,2024.2.4,54.10280852425098,2025-02-28 14h27.55.713123 -0500,
12,12,0,filler_random,None,None,None,None,None,None,None,None,None,None,2,1.9632844924926758,None,,,,,0,0,0,0,0,12,12,157,516.5900552272797,,,,,,,,,,,,,,,,,,,,,,,,,,,,,,,,,,,,,,,,,,,,,,,,,,,,,,,,,,,,,,,,,,,,,,,,,,,,,,,,,129.6152625532672,64.81351965710837,161.73987070280583,125.3625592043421,108.21671856606248,123.23435004108586,1.0,1.1,-671,280,-480,267,-260,251,516.576212644577,516.5762906074524,516.5791869163513,516.5900552272797,516.7309491634369,516.7309491634369,516.7309491634369,516.7309491634369,516.7309491634369,516.7309491634369,516.7309491634369,518.56014585495,2,1.9632844924926758,None,,,,,,,,,,,,,,,,,,168,4,2025-02-28_14h27.45.505,comp,2024.2.4,54.10280852425098,2025-02-28 14h27.55.713123 -0500,
13,13,0,filler_random,None,None,None,None,None,None,None,None,None,None,2,2.2545206546783447,None,,,,,0,0,0,0,0,13,13,148,518.5765635967255,,,,,,,,,,,,,,,,,,,,,,,,,,,,,,,,,,,,,,,,,,,,,,,,,,,,,,,,,,,,,,,,,,,,,,,,,,,,,,,,,158.74773294273223,139.25823795487054,174.6203093202639,144.60731632459536,113.48179306748526,97.86876280427185,3.0,3.1,-238,259,0,4,217,-264,518.5619120597839,518.5619912147522,518.5650293827057,518.5765635967255,518.7271704673767,518.7271704673767,518.7271704673767,518.7271704673767,518.7271704673767,518.7271704673767,518.7271704673767,520.8446190357208,2,2.2545206546783447,None,,,,,,,,,,,,,,,,,,168,4,2025-02-28_14h27.45.505,comp,2024.2.4,54.10280852425098,2025-02-28 14h27.55.713123 -0500,
14,14,0,critical,hwd,35.0,3.0,upper,200.0,125.0,125.0,200.0,127.0,127.0,1,16.410364389419556,None,,,,,0,0,0,0,0,14,14,99,520.860778093338,,,,,,,,,,,,,,,,,,,,,,,,,,,,,,,,,,,,,,,,,,,,,,,,,,,,,,,,,,,,,,,,,,,,,,,,,,,,,,,,,200.0,125.0,125.0,200.0,127.0,127.0,3.0,3.2,-258,-259,0,-16,260,263,520.846165895462,520.8462445735931,520.8494646549225,520.860778093338,521.0008456707001,521.0008456707001,521.0008456707001,521.0008456707001,521.0008456707001,521.0008456707001,521.0008456707001,537.2834005355835,1,16.410364389419556,None,,,,,,,,,,,,,,,,,,168,4,2025-02-28_14h27.45.505,comp,2024.2.4,54.10280852425098,2025-02-28 14h27.55.713123 -0500,
15,15,0,critical,hdw,20.0,2.1,lower,133.0,57.0,78.0,78.0,57.0,133.0,2,5.819137334823608,None,,,,,0,0,0,0,0,15,15,22,537.3000440597534,,,,,,,,,,,,,,,,,,,,,,,,,,,,,,,,,,,,,,,,,,,,,,,,,,,,,,,,,,,,,,,,,,,,,,,,,,,,,,,,,133.0,57.0,78.0,78.0,57.0,133.0,2.1,2.12,-164,-287,0,-265,202,289,537.2850162982941,537.2850956916809,537.2883794307709,537.3000440597534,537.4505338668823,537.4505338668823,537.4505338668823,537.4505338668823,537.4505338668823,537.4505338668823,537.4505338668823,543.1345298290253,2,5.819137334823608,None,,,,,,,,,,,,,,,,,,168,4,2025-02-28_14h27.45.505,comp,2024.2.4,54.10280852425098,2025-02-28 14h27.55.713123 -0500,
16,16,0,critical,hwd,20.0,4.0,lower,133.0,57.0,57.0,133.0,78.0,78.0,3,5.792459487915039,None,,,,,0,0,0,0,0,16,16,106,543.1506116390228,,,,,,,,,,,,,,,,,,,,,,,,,,,,,,,,,,,,,,,,,,,,,,,,,,,,,,,,,,,,,,,,,,,,,,,,,,,,,,,,,133.0,57.0,57.0,133.0,78.0,78.0,4.0,4.2,-191,1,0,-287,202,-12,543.1361582279205,543.1362578868866,543.1395030021667,543.1506116390228,543.3017315864563,543.3017315864563,543.3017315864563,543.3017315864563,543.3017315864563,543.3017315864563,543.3017315864563,548.9570462703705,3,5.792459487915039,None,,,,,,,,,,,,,,,,,,168,4,2025-02-28_14h27.45.505,comp,2024.2.4,54.10280852425098,2025-02-28 14h27.55.713123 -0500,
17,17,0,critical,dhw,35.0,2.1,lower,70.0,70.0,133.0,57.0,57.0,133.0,2,3.3220508098602295,None,,,,,0,0,0,0,0,17,17,24,548.9730589389801,,,,,,,,,,,,,,,,,,,,,,,,,,,,,,,,,,,,,,,,,,,,,,,,,,,,,,,,,,,,,,,,,,,,,,,,,,,,,,,,,70.0,70.0,133.0,57.0,57.0,133.0,2.1,2.12,-160,-282,0,-277,191,255,548.9588978290558,548.9590346813202,548.9622857570648,548.9730589389801,549.1214153766632,549.1214153766632,549.1214153766632,549.1214153766632,549.1214153766632,549.1214153766632,549.1214153766632,552.3082513809204,2,3.3220508098602295,None,,,,,,,,,,,,,,,,,,168,4,2025-02-28_14h27.45.505,comp,2024.2.4,54.10280852425098,2025-02-28 14h27.55.713123 -0500,
18,18,0,filler_random,None,None,None,None,None,None,None,None,None,None,1,1.9635510444641113,None,,,,,0,0,0,0,0,18,18,151,552.3245205879211,,,,,,,,,,,,,,,,,,,,,,,,,,,,,,,,,,,,,,,,,,,,,,,,,,,,,,,,,,,,,,,,,,,,,,,,,,,,,,,,,183.89710931522538,183.5690966467799,184.15783989347253,100.55428332600903,107.10295213874625,66.23191484736431,2.1,2.12,-238,-257,0,-254,179,263,552.3103313446045,552.3104128837585,552.3136308193207,552.3245205879211,552.4719088077545,552.4719088077545,552.4719088077545,552.4719088077545,552.4719088077545,552.4719088077545,552.4719088077545,554.2935509681702,1,1.9635510444641113,None,,,,,,,,,,,,,,,,,,168,4,2025-02-28_14h27.45.505,comp,2024.2.4,54.10280852425098,2025-02-28 14h27.55.713123 -0500,
19,19,0,critical,hwd,20.0,4.0,upper,200.0,125.0,125.0,200.0,141.0,141.0,1,3.2092084884643555,None,,,,,0,0,0,0,0,19,19,107,554.3099253177643,,,,,,,,,,,,,,,,,,,,,,,,,,,,,,,,,,,,,,,,,,,,,,,,,,,,,,,,,,,,,,,,,,,,,,,,,,,,,,,,,200.0,125.0,125.0,200.0,141.0,141.0,4.0,4.1,-258,-289,0,-19,266,-267,554.2951452732086,554.2952244281769,554.2982730865479,554.3099253177643,554.4610161781311,554.4610161781311,554.4610161781311,554.4610161781311,554.4610161781311,554.4610161781311,554.4610161781311,557.5305178165436,1,3.2092084884643555,None,,,,,,,,,,,,,,,,,,168,4,2025-02-28_14h27.45.505,comp,2024.2.4,54.10280852425098,2025-02-28 14h27.55.713123 -0500,
20,20,0,critical,dhw,20.0,3.0,lower,78.0,78.0,133.0,57.0,57.0,133.0,1,2.2603633403778076,None,,,,,0,0,0,0,0,20,20,56,557.5468029975891,,,,,,,,,,,,,,,,,,,,,,,,,,,,,,,,,,,,,,,,,,,,,,,,,,,,,,,,,,,,,,,,,,,,,,,,,,,,,,,,,78.0,78.0,133.0,57.0,57.0,133.0,3.0,3.2,-164,-289,0,0,191,265,557.5321688652039,557.5322780609131,557.5355002880096,557.5468029975891,557.6955559253693,557.6955559253693,557.6955559253693,557.6955559253693,557.6955559253693,557.6955559253693,557.6955559253693,559.8250167369843,1,2.2603633403778076,None,,,,,,,,,,,,,,,,,,168,4,2025-02-28_14h27.45.505,comp,2024.2.4,54.10280852425098,2025-02-28 14h27.55.713123 -0500,
21,21,0,critical,dwh,20.0,3.0,upper,141.0,141.0,125.0,200.0,200.0,125.0,2,5.254228591918945,None,,,,,0,0,0,0,0,21,21,69,559.8409335613251,,,,,,,,,,,,,,,,,,,,,,,,,,,,,,,,,,,,,,,,,,,,,,,,,,,,,,,,,,,,,,,,,,,,,,,,,,,,,,,,,141.0,141.0,125.0,200.0,200.0,125.0,3.0,3.2,-266,-288,0,5,258,282,559.8267550468445,559.8268966674805,559.8305397033691,559.8409335613251,559.9926195144653,559.9926195144653,559.9926195144653,559.9926195144653,559.9926195144653,559.9926195144653,559.9926195144653,565.1103444099426,2,5.254228591918945,None,,,,,,,,,,,,,,,,,,168,4,2025-02-28_14h27.45.505,comp,2024.2.4,54.10280852425098,2025-02-28 14h27.55.713123 -0500,
22,22,0,filler_random,None,None,None,None,None,None,None,None,None,None,1,1.5209791660308838,None,,,,,0,0,0,0,0,22,22,162,565.1268630027771,,,,,,,,,,,,,,,,,,,,,,,,,,,,,,,,,,,,,,,,,,,,,,,,,,,,,,,,,,,,,,,,,,,,,,,,,,,,,,,,,156.72674629484484,194.03926649113433,125.79191445695685,86.28647136327568,145.87039563144066,121.35792031495966,2.1,2.11,-236,290,0,259,200,-287,565.1122403144836,565.112363576889,565.1162359714508,565.1268630027771,565.2774884700775,565.2774884700775,565.2774884700775,565.2774884700775,565.2774884700775,565.2774884700775,565.2774884700775,566.6593899726868,1,1.5209791660308838,None,,,,,,,,,,,,,,,,,,168,4,2025-02-28_14h27.45.505,comp,2024.2.4,54.10280852425098,2025-02-28 14h27.55.713123 -0500,
23,23,0,critical,hdw,35.0,3.0,lower,133.0,57.0,70.0,70.0,57.0,133.0,2,6.115178346633911,None,,,,,0,0,0,0,0,23,23,110,566.676034450531,,,,,,,,,,,,,,,,,,,,,,,,,,,,,,,,,,,,,,,,,,,,,,,,,,,,,,,,,,,,,,,,,,,,,,,,,,,,,,,,,133.0,57.0,70.0,70.0,57.0,133.0,3.0,3.1,-160,264,0,4,198,-259,566.6610186100006,566.6611156463623,566.6652891635895,566.676034450531,566.8247003555298,566.8247003555298,566.8247003555298,566.8247003555298,566.8247003555298,566.8247003555298,566.8247003555298,572.7945592403412,2,6.115178346633911,None,,,,,,,,,,,,,,,,,,168,4,2025-02-28_14h27.45.505,comp,2024.2.4,54.10280852425098,2025-02-28 14h27.55.713123 -0500,
24,24,0,critical,whd,20.0,3.0,lower,57.0,133.0,133.0,57.0,78.0,78.0,3,3.3005878925323486,None,,,,,0,0,0,0,0,24,24,92,572.8105862140656,,,,,,,,,,,,,,,,,,,,,,,,,,,,,,,,,,,,,,,,,,,,,,,,,,,,,,,,,,,,,,,,,,,,,,,,,,,,,,,,,57.0,133.0,133.0,57.0,78.0,78.0,3.0,3.2,-191,-258,0,14,164,275,572.7961227893829,572.7962050437927,572.7997694015503,572.8105862140656,572.9615714550018,572.9615714550018,572.9615714550018,572.9615714550018,572.9615714550018,572.9615714550018,572.9615714550018,576.1149835586548,3,3.3005878925323486,None,,,,,,,,,,,,,,,,,,168,4,2025-02-28_14h27.45.505,comp,2024.2.4,54.10280852425098,2025-02-28 14h27.55.713123 -0500,
25,25,0,filler_square,None,None,None,None,None,None,None,None,None,None,1,2.531351327896118,None,,,,,0,0,0,0,0,25,25,187,576.1317842006683,,,,,,,,,,,,,,,,,,,,,,,,,,,,,,,,,,,,,,,,,,,,,,,,,,,,,,,,,,,,,,,,,,,,,,,,,,,,,,,,,153.91514525272993,153.91514525272993,109.68186664031217,122.13872848263786,132.87019150852615,132.84371232166197,3.0,3.1,-234,283,0,15,223,-262,576.1171417236328,576.1172230243683,576.1210691928864,576.1317842006683,576.2827572822571,576.2827572822571,576.2827572822571,576.2827572822571,576.2827572822571,576.2827572822571,576.2827572822571,578.6788408756256,1,2.531351327896118,None,,,,,,,,,,,,,,,,,,168,4,2025-02-28_14h27.45.505,comp,2024.2.4,54.10280852425098,2025-02-28 14h27.55.713123 -0500,
26,26,0,catch,None,None,None,None,None,None,None,None,None,None,1,1.5195229053497314,None,,,,,0,0,0,0,0,26,26,122,578.6957218647003,,,,,,,,,,,,,,,,,,,,,,,,,,,,,,,,,,,,,,,,,,,,,,,,,,,,,,,,,,,,,,,,,,,,,,,,,,,,,,,,,172,153,128,62,67,123,4.0,4.1,-204,-269,0,1,188,-263,578.6810245513916,578.6811029911041,578.6842956542969,578.6957218647003,578.8337512016296,578.8337512016296,578.8337512016296,578.8337512016296,578.8337512016296,578.8337512016296,578.8337512016296,580.2302918434143,1,1.5195229053497314,None,,,,,,,,,,,,,,,,,,168,4,2025-02-28_14h27.45.505,comp,2024.2.4,54.10280852425098,2025-02-28 14h27.55.713123 -0500,
27,27,0,filler_random,None,None,None,None,None,None,None,None,None,None,1,2.1464011669158936,None,,,,,0,0,0,0,0,27,27,164,580.2457318305969,,,,,,,,,,,,,,,,,,,,,,,,,,,,,,,,,,,,,,,,,,,,,,,,,,,,,,,,,,,,,,,,,,,,,,,,,,,,,,,,,158.81748275651233,177.68357644436065,67.84484209672749,191.59425723788172,139.13376486997652,147.94861421322753,2.1,2.12,-281,-283,0,-267,266,272,580.2319185733795,580.2319958209991,580.2354674339294,580.2457318305969,580.3982400894165,580.3982400894165,580.3982400894165,580.3982400894165,580.3982400894165,580.3982400894165,580.3982400894165,582.3973269462585,1,2.1464011669158936,None,,,,,,,,,,,,,,,,,,168,4,2025-02-28_14h27.45.505,comp,2024.2.4,54.10280852425098,2025-02-28 14h27.55.713123 -0500,
28,28,0,filler_square,None,None,None,None,None,None,None,None,None,None,3,1.4569759368896484,None,,,,,0,0,0,0,0,28,28,174,582.4151754379272,,,,,,,,,,,,,,,,,,,,,,,,,,,,,,,,,,,,,,,,,,,,,,,,,,,,,,,,,,,,,,,,,,,,,,,,,,,,,,,,,130.86291411410306,90.30141412719783,91.44334401402192,80.3596056391304,171.5900050517663,171.5900050517663,2.2,2.21,-181,-281,0,286,222,279,582.3991396427155,582.399219751358,582.4020888805389,582.4151754379272,582.5657916069031,582.5657916069031,582.5657916069031,582.5657916069031,582.5657916069031,582.5657916069031,582.5657916069031,583.882364988327,3,1.4569759368896484,None,,,,,,,,,,,,,,,,,,168,4,2025-02-28_14h27.45.505,comp,2024.2.4,54.10280852425098,2025-02-28 14h27.55.713123 -0500,
29,29,0,critical,hdw,20.0,1.0,lower,133.0,57.0,78.0,78.0,57.0,133.0,2,2.1312334537506104,None,,,,,0,0,0,0,0,29,29,114,583.9001784324646,,,,,,,,,,,,,,,,,,,,,,,,,,,,,,,,,,,,,,,,,,,,,,,,,,,,,,,,,,,,,,,,,,,,,,,,,,,,,,,,,133.0,57.0,78.0,78.0,57.0,133.0,1.0,1.2,-164,12,0,-2,202,8,583.8839082717896,583.8839859962463,583.8872644901276,583.9001784324646,584.0467607975006,584.0467607975006,584.0467607975006,584.0467607975006,584.0467607975006,584.0467607975006,584.0467607975006,586.0336186885834,2,2.1312334537506104,None,,,,,,,,,,,,,,,,,,168,4,2025-02-28_14h27.45.505,comp,2024.2.4,54.10280852425098,2025-02-28 14h27.55.713123 -0500,
30,30,0,filler_square,None,None,None,None,None,None,None,None,None,None,1,2.411252737045288,None,,,,,0,0,0,0,0,30,30,203,586.0523872375488,,,,,,,,,,,,,,,,,,,,,,,,,,,,,,,,,,,,,,,,,,,,,,,,,,,,,,,,,,,,,,,,,,,,,,,,,,,,,,,,,120.32244907169019,120.32244907169019,57.41236948903081,87.80964191313855,101.56438704187055,86.80167299024062,2.2,2.22,-200,252,0,-263,183,-250,586.0358235836029,586.0359034538269,586.0395665168762,586.0523872375488,586.199791431427,586.199791431427,586.199791431427,586.199791431427,586.199791431427,586.199791431427,586.199791431427,588.4658501148224,1,2.411252737045288,None,,,,,,,,,,,,,,,,,,168,4,2025-02-28_14h27.45.505,comp,2024.2.4,54.10280852425098,2025-02-28 14h27.55.713123 -0500,
31,31,0,filler_random,None,None,None,None,None,None,None,None,None,None,1,1.977616310119629,None,,,,,0,0,0,0,0,31,31,163,588.4860320091248,,,,,,,,,,,,,,,,,,,,,,,,,,,,,,,,,,,,,,,,,,,,,,,,,,,,,,,,,,,,,,,,,,,,,,,,,,,,,,,,,198.17879282011955,130.1587243706711,124.5804665791491,60.99547743094141,122.88412595825169,169.09926513437946,3.0,3.2,-192,-286,0,6,211,254,588.4675333499908,588.4676129817963,588.4705145359039,588.4860320091248,588.6331079006195,588.6331079006195,588.6331079006195,588.6331079006195,588.6331079006195,588.6331079006195,588.6331079006195,590.465833902359,1,1.977616310119629,None,,,,,,,,,,,,,,,,,,168,4,2025-02-28_14h27.45.505,comp,2024.2.4,54.10280852425098,2025-02-28 14h27.55.713123 -0500,
32,32,0,filler_random,None,None,None,None,None,None,None,None,None,None,2,4.036612510681152,None,,,,,0,0,0,0,0,32,32,165,590.482563495636,,,,,,,,,,,,,,,,,,,,,,,,,,,,,,,,,,,,,,,,,,,,,,,,,,,,,,,,,,,,,,,,,,,,,,,,,,,,,,,,,155.25100984128483,177.0451438012201,174.55346326944573,171.77346149998579,131.9385857869467,187.61921054460865,3.0,3.2,-270,-269,0,14,276,254,590.4675211906433,590.4675984382629,590.4707951545715,590.482563495636,590.621927022934,590.621927022934,590.621927022934,590.621927022934,590.621927022934,590.621927022934,590.621927022934,594.531037569046,2,4.036612510681152,None,,,,,,,,,,,,,,,,,,168,4,2025-02-28_14h27.45.505,comp,2024.2.4,54.10280852425098,2025-02-28 14h27.55.713123 -0500,
33,33,0,critical,wdh,20.0,2.1,lower,57.0,133.0,78.0,78.0,133.0,57.0,2,1.5042147636413574,None,,,,,0,0,0,0,0,33,33,10,594.5509986877441,,,,,,,,,,,,,,,,,,,,,,,,,,,,,,,,,,,,,,,,,,,,,,,,,,,,,,,,,,,,,,,,,,,,,,,,,,,,,,,,,57.0,133.0,78.0,78.0,133.0,57.0,2.1,2.11,-202,264,0,266,164,-285,594.5327079296112,594.532844543457,594.5361697673798,594.5509986877441,594.6848723888397,594.6848723888397,594.6848723888397,594.6848723888397,594.6848723888397,594.6848723888397,594.6848723888397,596.0679647922516,2,1.5042147636413574,None,,,,,,,,,,,,,,,,,,168,4,2025-02-28_14h27.45.505,comp,2024.2.4,54.10280852425098,2025-02-28 14h27.55.713123 -0500,
34,34,0,catch,None,None,None,None,None,None,None,None,None,None,2,1.1706044673919678,None,,,,,0,0,0,0,0,34,34,128,596.0846879482269,,,,,,,,,,,,,,,,,,,,,,,,,,,,,,,,,,,,,,,,,,,,,,,,,,,,,,,,,,,,,,,,,,,,,,,,,,,,,,,,,119,71,143,182,78,112,1.0,1.1,-702,265,-480,283,-237,276,596.0699059963226,596.069985628128,596.0731337070465,596.0846879482269,596.2353918552399,596.2353918552399,596.2353918552399,596.2353918552399,596.2353918552399,596.2353918552399,596.2353918552399,597.269052028656,2,1.1706044673919678,None,,,,,,,,,,,,,,,,,,168,4,2025-02-28_14h27.45.505,comp,2024.2.4,54.10280852425098,2025-02-28 14h27.55.713123 -0500,
35,35,0,catch,None,None,None,None,None,None,None,None,None,None,2,1.7865173816680908,None,,,,,0,0,0,0,0,35,35,129,597.2848534584045,,,,,,,,,,,,,,,,,,,,,,,,,,,,,,,,,,,,,,,,,,,,,,,,,,,,,,,,,,,,,,,,,,,,,,,,,,,,,,,,,79,111,165,160,61,129,2.2,2.22,-232,256,0,-267,240,-258,597.2711284160614,597.2712099552155,597.2746272087097,597.2848534584045,597.4353806972504,597.4353806972504,597.4353806972504,597.4353806972504,597.4353806972504,597.4353806972504,597.4353806972504,599.0872542858124,2,1.7865173816680908,None,,,,,,,,,,,,,,,,,,168,4,2025-02-28_14h27.45.505,comp,2024.2.4,54.10280852425098,2025-02-28 14h27.55.713123 -0500,
36,36,0,catch,None,None,None,None,None,None,None,None,None,None,3,1.8317043781280518,None,,,,,0,0,0,0,0,36,36,123,599.1036124229431,,,,,,,,,,,,,,,,,,,,,,,,,,,,,,,,,,,,,,,,,,,,,,,,,,,,,,,,,,,,,,,,,,,,,,,,,,,,,,,,,117,73,91,99,149,176,1.0,1.1,-662,263,-480,286,-246,264,599.0895249843597,599.0896036624908,599.0932414531708,599.1036124229431,599.2460889816284,599.2460889816284,599.2460889816284,599.2460889816284,599.2460889816284,599.2460889816284,599.2460889816284,600.9540095329285,3,1.8317043781280518,None,,,,,,,,,,,,,,,,,,168,4,2025-02-28_14h27.45.505,comp,2024.2.4,54.10280852425098,2025-02-28 14h27.55.713123 -0500,
37,37,0,critical,whd,35.0,4.0,lower,57.0,133.0,133.0,57.0,70.0,70.0,3,3.7470247745513916,None,,,,,0,0,0,0,0,37,37,88,600.9726040363312,,,,,,,,,,,,,,,,,,,,,,,,,,,,,,,,,,,,,,,,,,,,,,,,,,,,,,,,,,,,,,,,,,,,,,,,,,,,,,,,,57.0,133.0,133.0,57.0,70.0,70.0,4.0,4.1,-191,-263,0,-17,160,-271,600.9549715518951,600.9550518989563,600.9581453800201,600.9726040363312,601.1101315021515,601.1101315021515,601.1101315021515,601.1101315021515,601.1101315021515,601.1101315021515,601.1101315021515,604.725159406662,3,3.7470247745513916,None,,,,,,,,,,,,,,,,,,168,4,2025-02-28_14h27.45.505,comp,2024.2.4,54.10280852425098,2025-02-28 14h27.55.713123 -0500,
38,38,0,filler_square,None,None,None,None,None,None,None,None,None,None,2,1.498659372329712,None,,,,,0,0,0,0,0,38,38,170,604.7406985759735,,,,,,,,,,,,,,,,,,,,,,,,,,,,,,,,,,,,,,,,,,,,,,,,,,,,,,,,,,,,,,,,,,,,,,,,,,,,,,,,,85.65318525080676,66.45287186242238,132.1193749491839,132.1193749491839,66.69191252165193,105.30082454744688,1.0,1.2,-195,-5,0,-9,215,12,604.7270603179932,604.7271437644958,604.7299952507019,604.7406985759735,604.8883938789368,604.8883938789368,604.8883938789368,604.8883938789368,604.8883938789368,604.8883938789368,604.8883938789368,606.2550842761993,2,1.498659372329712,None,,,,,,,,,,,,,,,,,,168,4,2025-02-28_14h27.45.505,comp,2024.2.4,54.10280852425098,2025-02-28 14h27.55.713123 -0500,
39,39,0,critical,dwh,20.0,1.0,lower,78.0,78.0,57.0,133.0,133.0,57.0,1,1.8728125095367432,None,,,,,0,0,0,0,0,39,39,66,606.270919084549,,,,,,,,,,,,,,,,,,,,,,,,,,,,,,,,,,,,,,,,,,,,,,,,,,,,,,,,,,,,,,,,,,,,,,,,,,,,,,,,,78.0,78.0,57.0,133.0,133.0,57.0,1.0,1.1,-682,285,-480,275,-289,274,606.2567460536957,606.2568259239197,606.2602243423462,606.270919084549,606.4206111431122,606.4206111431122,606.4206111431122,606.4206111431122,606.4206111431122,606.4206111431122,606.4206111431122,608.1595809459686,1,1.8728125095367432,None,,,,,,,,,,,,,,,,,,168,4,2025-02-28_14h27.45.505,comp,2024.2.4,54.10280852425098,2025-02-28 14h27.55.713123 -0500,
40,40,0,critical,dwh,20.0,2.1,lower,78.0,78.0,57.0,133.0,133.0,57.0,1,2.9870855808258057,None,,,,,0,0,0,0,0,40,40,6,608.1802470684052,,,,,,,,,,,,,,,,,,,,,,,,,,,,,,,,,,,,,,,,,,,,,,,,,,,,,,,,,,,,,,,,,,,,,,,,,,,,,,,,,78.0,78.0,57.0,133.0,133.0,57.0,2.1,2.11,-202,261,0,257,191,-274,608.1612532138824,608.1613328456879,608.1647732257843,608.1802470684052,608.3236110210419,608.3236110210419,608.3236110210419,608.3236110210419,608.3236110210419,608.3236110210419,608.3236110210419,611.183009147644,1,2.9870855808258057,None,,,,,,,,,,,,,,,,,,168,4,2025-02-28_14h27.45.505,comp,2024.2.4,54.10280852425098,2025-02-28 14h27.55.713123 -0500,
41,41,0,filler_square,None,None,None,None,None,None,None,None,None,None,2,2.0549848079681396,None,,,,,0,0,0,0,0,41,41,207,611.2004525661469,,,,,,,,,,,,,,,,,,,,,,,,,,,,,,,,,,,,,,,,,,,,,,,,,,,,,,,,,,,,,,,,,,,,,,,,,,,,,,,,,67.48164056012732,128.4695396943434,139.35398245747055,139.35398245747055,125.88053761194793,126.42221376703182,4.0,4.2,-230,19,0,-281,229,3,611.1847500801086,611.1848270893097,611.1877558231354,611.2004525661469,611.3392970561981,611.3392970561981,611.3392970561981,611.3392970561981,611.3392970561981,611.3392970561981,611.3392970561981,613.2579877376556,2,2.0549848079681396,None,,,,,,,,,,,,,,,,,,168,4,2025-02-28_14h27.45.505,comp,2024.2.4,54.10280852425098,2025-02-28 14h27.55.713123 -0500,
42,42,0,critical,dwh,35.0,3.0,lower,70.0,70.0,57.0,133.0,133.0,57.0,1,2.6657161712646484,None,,,,,0,0,0,0,0,42,42,62,613.2775812149048,,,,,,,,,,,,,,,,,,,,,,,,,,,,,,,,,,,,,,,,,,,,,,,,,,,,,,,,,,,,,,,,,,,,,,,,,,,,,,,,,70.0,70.0,57.0,133.0,133.0,57.0,3.0,3.2,-198,-263,0,20,191,287,613.2594556808472,613.2595331668854,613.2625513076782,613.2775812149048,613.4249074459076,613.4249074459076,613.4249074459076,613.4249074459076,613.4249074459076,613.4249074459076,613.4249074459076,615.958685874939,1,2.6657161712646484,None,,,,,,,,,,,,,,,,,,168,4,2025-02-28_14h27.45.505,comp,2024.2.4,54.10280852425098,2025-02-28 14h27.55.713123 -0500,
43,43,0,critical,hdw,35.0,2.1,upper,200.0,125.0,127.0,127.0,125.0,200.0,3,2.466187000274658,None,,,,,0,0,0,0,0,43,43,45,615.9731776714325,,,,,,,,,,,,,,,,,,,,,,,,,,,,,,,,,,,,,,,,,,,,,,,,,,,,,,,,,,,,,,,,,,,,,,,,,,,,,,,,,200.0,125.0,127.0,127.0,125.0,200.0,2.1,2.11,-222,255,0,271,260,-267,615.9603700637817,615.9605054855347,615.9636709690094,615.9731776714325,616.1249017715454,616.1249017715454,616.1249017715454,616.1249017715454,616.1249017715454,616.1249017715454,616.1249017715454,618.4530403614044,3,2.466187000274658,None,,,,,,,,,,,,,,,,,,168,4,2025-02-28_14h27.45.505,comp,2024.2.4,54.10280852425098,2025-02-28 14h27.55.713123 -0500,
44,44,0,filler_random,None,None,None,None,None,None,None,None,None,None,1,7.033774137496948,None,,,,,0,0,0,0,0,44,44,144,618.4715104103088,,,,,,,,,,,,,,,,,,,,,,,,,,,,,,,,,,,,,,,,,,,,,,,,,,,,,,,,,,,,,,,,,,,,,,,,,,,,,,,,,196.38296112479446,100.8801695410007,109.34238727978442,126.4897612690787,134.46141121397147,114.21918982629509,3.0,3.2,-210,-282,0,4,216,254,618.4548327922821,618.4549360275269,618.4581387042999,618.4715104103088,618.6079807281494,618.6079807281494,618.6079807281494,618.6079807281494,618.6079807281494,618.6079807281494,618.6079807281494,625.5099010467529,1,7.033774137496948,None,,,,,,,,,,,,,,,,,,168,4,2025-02-28_14h27.45.505,comp,2024.2.4,54.10280852425098,2025-02-28 14h27.55.713123 -0500,
45,45,0,filler_random,None,None,None,None,None,None,None,None,None,None,3,1.3533272743225098,None,,,,,0,0,0,0,0,45,45,156,625.526759147644,,,,,,,,,,,,,,,,,,,,,,,,,,,,,,,,,,,,,,,,,,,,,,,,,,,,,,,,,,,,,,,,,,,,,,,,,,,,,,,,,122.79054779976177,60.19711078351271,79.70495749036645,61.66142226709965,167.25371546328827,103.70575659932094,1.0,1.1,-637,276,-480,279,-301,269,625.5116329193115,625.5117313861847,625.5149435997009,625.526759147644,625.6805112361908,625.6805112361908,625.6805112361908,625.6805112361908,625.6805112361908,625.6805112361908,625.6805112361908,626.8825619220734,3,1.3533272743225098,None,,,,,,,,,,,,,,,,,,168,4,2025-02-28_14h27.45.505,comp,2024.2.4,54.10280852425098,2025-02-28 14h27.55.713123 -0500,
46,46,0,filler_square,None,None,None,None,None,None,None,None,None,None,1,3.5961174964904785,None,,,,,0,0,0,0,0,46,46,186,626.8997824192047,,,,,,,,,,,,,,,,,,,,,,,,,,,,,,,,,,,,,,,,,,,,,,,,,,,,,,,,,,,,,,,,,,,,,,,,,,,,,,,,,71.80190752325545,71.80190752325545,61.53247584736969,61.881827029770925,59.2479683742185,61.980152560480356,2.1,2.12,-163,-272,0,-261,158,281,626.8847215175629,626.884806394577,626.8880693912506,626.8997824192047,627.04452252388,627.04452252388,627.04452252388,627.04452252388,627.04452252388,627.04452252388,627.04452252388,630.5021133422852,1,3.5961174964904785,None,,,,,,,,,,,,,,,,,,168,4,2025-02-28_14h27.45.505,comp,2024.2.4,54.10280852425098,2025-02-28 14h27.55.713123 -0500,
47,47,0,critical,dwh,35.0,2.1,upper,127.0,127.0,125.0,200.0,200.0,125.0,1,8.921712398529053,None,,,,,0,0,0,0,0,47,47,5,630.5175189971924,,,,,,,,,,,,,,,,,,,,,,,,,,,,,,,,,,,,,,,,,,,,,,,,,,,,,,,,,,,,,,,,,,,,,,,,,,,,,,,,,127.0,127.0,125.0,200.0,200.0,125.0,2.1,2.12,-260,-288,0,-262,258,277,630.5037050247192,630.5037846565247,630.5066182613373,630.5175189971924,630.6680459976196,630.6680459976196,630.6680459976196,630.6680459976196,630.6680459976196,630.6680459976196,630.6680459976196,639.4542689323425,1,8.921712398529053,None,,,,,,,,,,,,,,,,,,168,4,2025-02-28_14h27.45.505,comp,2024.2.4,54.10280852425098,2025-02-28 14h27.55.713123 -0500,
48,48,0,critical,whd,20.0,1.0,lower,57.0,133.0,133.0,57.0,78.0,78.0,3,1.961716651916504,None,,,,,0,0,0,0,0,48,48,90,639.4697921276093,,,,,,,,,,,,,,,,,,,,,,,,,,,,,,,,,,,,,,,,,,,,,,,,,,,,,,,,,,,,,,,,,,,,,,,,,,,,,,,,,57.0,133.0,133.0,57.0,78.0,78.0,1.0,1.1,-671,257,-480,283,-316,259,639.4559082984924,639.4560401439667,639.4594337940216,639.4697921276093,639.6171958446503,639.6171958446503,639.6171958446503,639.6171958446503,639.6171958446503,639.6171958446503,639.6171958446503,641.4496920108795,3,1.961716651916504,None,,,,,,,,,,,,,,,,,,168,4,2025-02-28_14h27.45.505,comp,2024.2.4,54.10280852425098,2025-02-28 14h27.55.713123 -0500,
49,49,0,filler_square,None,None,None,None,None,None,None,None,None,None,1,1.2783806324005127,None,,,,,0,0,0,0,0,49,49,196,641.4654531478882,,,,,,,,,,,,,,,,,,,,,,,,,,,,,,,,,,,,,,,,,,,,,,,,,,,,,,,,,,,,,,,,,,,,,,,,,,,,,,,,,164.28666750725773,164.28666750725773,67.96438787494631,129.13779359575793,66.60532434702235,66.37550574881112,2.2,2.21,-243,-253,0,280,194,275,641.4515843391418,641.4516882896423,641.4551348686218,641.4654531478882,641.6174421310425,641.6174421310425,641.6174421310425,641.6174421310425,641.6174421310425,641.6174421310425,641.6174421310425,642.7535994052887,1,1.2783806324005127,None,,,,,,,,,,,,,,,,,,168,4,2025-02-28_14h27.45.505,comp,2024.2.4,54.10280852425098,2025-02-28 14h27.55.713123 -0500,
50,50,0,catch,None,None,None,None,None,None,None,None,None,None,1,1.0362238883972168,None,,,,,0,0,0,0,0,50,50,120,642.7720265388489,,,,,,,,,,,,,,,,,,,,,,,,,,,,,,,,,,,,,,,,,,,,,,,,,,,,,,,,,,,,,,,,,,,,,,,,,,,,,,,,,197,128,109,81,117,73,2.1,2.12,-200,-290,0,-261,173,265,642.7560141086578,642.7560937404633,642.7590088844299,642.7720265388489,642.9169113636017,642.9169113636017,642.9169113636017,642.9169113636017,642.9169113636017,642.9169113636017,642.9169113636017,643.8176000118256,1,1.0362238883972168,None,,,,,,,,,,,,,,,,,,168,4,2025-02-28_14h27.45.505,comp,2024.2.4,54.10280852425098,2025-02-28 14h27.55.713123 -0500,
51,51,0,filler_random,None,None,None,None,None,None,None,None,None,None,1,1.968963861465454,None,,,,,0,0,0,0,0,51,51,152,643.8387076854706,,,,,,,,,,,,,,,,,,,,,,,,,,,,,,,,,,,,,,,,,,,,,,,,,,,,,,,,,,,,,,,,,,,,,,,,,,,,,,,,,179.5222631506037,148.5773588521534,121.52181001731655,199.31342879301624,119.46697595132524,139.59229743875835,2.1,2.11,-270,261,0,286,265,-269,643.8194675445557,643.81960272789,643.8228526115417,643.8387076854706,643.9869420528412,643.9869420528412,643.9869420528412,643.9869420528412,643.9869420528412,643.9869420528412,643.9869420528412,645.8159127235413,1,1.968963861465454,None,,,,,,,,,,,,,,,,,,168,4,2025-02-28_14h27.45.505,comp,2024.2.4,54.10280852425098,2025-02-28 14h27.55.713123 -0500,
52,52,0,critical,hwd,35.0,3.0,lower,133.0,57.0,57.0,133.0,70.0,70.0,3,1.9517159461975098,None,,,,,0,0,0,0,0,52,52,98,645.8316996097565,,,,,,,,,,,,,,,,,,,,,,,,,,,,,,,,,,,,,,,,,,,,,,,,,,,,,,,,,,,,,,,,,,,,,,,,,,,,,,,,,133.0,57.0,57.0,133.0,70.0,70.0,3.0,3.1,-191,278,0,16,198,-266,645.8173949718475,645.817474603653,645.820390701294,645.8316996097565,645.9825413227081,645.9825413227081,645.9825413227081,645.9825413227081,645.9825413227081,645.9825413227081,645.9825413227081,647.8005859851837,3,1.9517159461975098,None,,,,,,,,,,,,,,,,,,168,4,2025-02-28_14h27.45.505,comp,2024.2.4,54.10280852425098,2025-02-28 14h27.55.713123 -0500,
53,53,0,filler_random,None,None,None,None,None,None,None,None,None,None,2,1.1506407260894775,None,,,,,0,0,0,0,0,53,53,160,647.8166420459747,,,,,,,,,,,,,,,,,,,,,,,,,,,,,,,,,,,,,,,,,,,,,,,,,,,,,,,,,,,,,,,,,,,,,,,,,,,,,,,,,111.73554679103867,89.9020083002767,187.6810086126948,142.46134658323504,168.4844807463339,105.34759078527563,1.0,1.1,-692,254,-480,257,-260,281,647.8023362159729,647.8024129867554,647.8054049015045,647.8166420459747,647.9568901062012,647.9568901062012,647.9568901062012,647.9568901062012,647.9568901062012,647.9568901062012,647.9568901062012,648.984795331955,2,1.1506407260894775,None,,,,,,,,,,,,,,,,,,168,4,2025-02-28_14h27.45.505,comp,2024.2.4,54.10280852425098,2025-02-28 14h27.55.713123 -0500,
54,54,0,critical,hdw,20.0,4.0,upper,200.0,125.0,141.0,141.0,125.0,200.0,2,4.348685026168823,None,,,,,0,0,0,0,0,54,54,119,649.0025930404663,,,,,,,,,,,,,,,,,,,,,,,,,,,,,,,,,,,,,,,,,,,,,,,,,,,,,,,,,,,,,,,,,,,,,,,,,,,,,,,,,200.0,125.0,141.0,141.0,125.0,200.0,4.0,4.1,-229,-272,0,5,266,-268,648.9863579273224,648.9864358901978,648.9898416996002,649.0025930404663,649.1526327133179,649.1526327133179,649.1526327133179,649.1526327133179,649.1526327133179,649.1526327133179,649.1526327133179,653.3546452522278,2,4.348685026168823,None,,,,,,,,,,,,,,,,,,168,4,2025-02-28_14h27.45.505,comp,2024.2.4,54.10280852425098,2025-02-28 14h27.55.713123 -0500,
55,55,0,critical,dwh,20.0,3.0,lower,78.0,78.0,57.0,133.0,133.0,57.0,1,1.018683910369873,None,,,,,0,0,0,0,0,55,55,68,653.3725035190582,,,,,,,,,,,,,,,,,,,,,,,,,,,,,,,,,,,,,,,,,,,,,,,,,,,,,,,,,,,,,,,,,,,,,,,,,,,,,,,,,78.0,78.0,57.0,133.0,133.0,57.0,3.0,3.2,-202,-278,0,-6,191,283,653.3561935424805,653.3563039302826,653.3593237400055,653.3725035190582,653.5229816436768,653.5229816436768,653.5229816436768,653.5229816436768,653.5229816436768,653.5229816436768,653.5229816436768,654.4059545993805,1,1.018683910369873,None,,,,,,,,,,,,,,,,,,168,4,2025-02-28_14h27.45.505,comp,2024.2.4,54.10280852425098,2025-02-28 14h27.55.713123 -0500,
56,56,0,critical,dhw,35.0,2.1,lower,70.0,70.0,133.0,57.0,57.0,133.0,1,2.378119707107544,None,,,,,0,0,0,0,0,56,56,0,654.4217245578766,,,,,,,,,,,,,,,,,,,,,,,,,,,,,,,,,,,,,,,,,,,,,,,,,,,,,,,,,,,,,,,,,,,,,,,,,,,,,,,,,70.0,70.0,133.0,57.0,57.0,133.0,2.1,2.11,-160,258,0,267,191,-275,654.4075164794922,654.4075963497162,654.4105670452118,654.4217245578766,654.5696139335632,654.5696139335632,654.5696139335632,654.5696139335632,654.5696139335632,654.5696139335632,654.5696139335632,656.8045914173126,1,2.378119707107544,None,,,,,,,,,,,,,,,,,,168,4,2025-02-28_14h27.45.505,comp,2024.2.4,54.10280852425098,2025-02-28 14h27.55.713123 -0500,
57,57,0,filler_square,None,None,None,None,None,None,None,None,None,None,3,2.0766191482543945,None,,,,,0,0,0,0,0,57,57,175,656.8208677768707,,,,,,,,,,,,,,,,,,,,,,,,,,,,,,,,,,,,,,,,,,,,,,,,,,,,,,,,,,,,,,,,,,,,,,,,,,,,,,,,,67.42916707374097,75.69683724376284,73.9607534026515,65.63296717787665,86.6441898911828,86.6441898911828,2.1,2.12,-167,-262,0,-266,172,285,656.8065135478973,656.8065950870514,656.8100399971008,656.8208677768707,656.9682748317719,656.9682748317719,656.9682748317719,656.9682748317719,656.9682748317719,656.9682748317719,656.9682748317719,658.9020366668701,3,2.0766191482543945,None,,,,,,,,,,,,,,,,,,168,4,2025-02-28_14h27.45.505,comp,2024.2.4,54.10280852425098,2025-02-28 14h27.55.713123 -0500,
58,58,0,critical,dwh,35.0,3.0,upper,127.0,127.0,125.0,200.0,200.0,125.0,3,5.984405517578125,None,,,,,0,0,0,0,0,58,58,63,658.9195139408112,,,,,,,,,,,,,,,,,,,,,,,,,,,,,,,,,,,,,,,,,,,,,,,,,,,,,,,,,,,,,,,,,,,,,,,,,,,,,,,,,127.0,127.0,125.0,200.0,200.0,125.0,3.0,3.1,-260,259,0,2,258,-281,658.9036128520966,658.9037191867828,658.9070219993591,658.9195139408112,659.0552184581757,659.0552184581757,659.0552184581757,659.0552184581757,659.0552184581757,659.0552184581757,659.0552184581757,664.9075067043304,3,5.984405517578125,None,,,,,,,,,,,,,,,,,,168,4,2025-02-28_14h27.45.505,comp,2024.2.4,54.10280852425098,2025-02-28 14h27.55.713123 -0500,
59,59,0,critical,dhw,20.0,3.0,upper,141.0,141.0,200.0,125.0,125.0,200.0,3,1.6193101406097412,None,,,,,0,0,0,0,0,59,59,57,664.9241981506348,,,,,,,,,,,,,,,,,,,,,,,,,,,,,,,,,,,,,,,,,,,,,,,,,,,,,,,,,,,,,,,,,,,,,,,,,,,,,,,,,141.0,141.0,200.0,125.0,125.0,200.0,3.0,3.2,-229,-270,0,15,258,284,664.9091377258301,664.9092149734497,664.9125258922577,664.9241981506348,665.076587677002,665.076587677002,665.076587677002,665.076587677002,665.076587677002,665.076587677002,665.076587677002,666.5598032474518,3,1.6193101406097412,None,,,,,,,,,,,,,,,,,,168,4,2025-02-28_14h27.45.505,comp,2024.2.4,54.10280852425098,2025-02-28 14h27.55.713123 -0500,
60,60,0,filler_square,None,None,None,None,None,None,None,None,None,None,3,1.1446833610534668,None,,,,,0,0,0,0,0,60,60,205,666.5751688480377,,,,,,,,,,,,,,,,,,,,,,,,,,,,,,,,,,,,,,,,,,,,,,,,,,,,,,,,,,,,,,,,,,,,,,,,,,,,,,,,,94.75232961054643,90.75085385561978,66.12092652506367,133.61146203171165,151.035967072659,151.035967072659,2.2,2.21,-208,-253,0,251,238,282,666.5618255138397,666.5619072914124,666.5649251937866,666.5751688480377,666.7238597869873,666.7238597869873,666.7238597869873,666.7238597869873,666.7238597869873,666.7238597869873,666.7238597869873,667.7235000133514,3,1.1446833610534668,None,,,,,,,,,,,,,,,,,,168,4,2025-02-28_14h27.45.505,comp,2024.2.4,54.10280852425098,2025-02-28 14h27.55.713123 -0500,
61,61,0,critical,wdh,20.0,2.1,upper,125.0,200.0,141.0,141.0,200.0,125.0,1,2.542107343673706,None,,,,,0,0,0,0,0,61,61,11,667.7398219108582,,,,,,,,,,,,,,,,,,,,,,,,,,,,,,,,,,,,,,,,,,,,,,,,,,,,,,,,,,,,,,,,,,,,,,,,,,,,,,,,,125.0,200.0,141.0,141.0,200.0,125.0,2.1,2.12,-266,-273,0,-253,229,280,667.7250764369965,667.7251546382904,667.7281408309937,667.7398219108582,667.8913841247559,667.8913841247559,667.8913841247559,667.8913841247559,667.8913841247559,667.8913841247559,667.8913841247559,670.2928745746613,1,2.542107343673706,None,,,,,,,,,,,,,,,,,,168,4,2025-02-28_14h27.45.505,comp,2024.2.4,54.10280852425098,2025-02-28 14h27.55.713123 -0500,
62,62,0,critical,whd,20.0,2.1,lower,57.0,133.0,133.0,57.0,78.0,78.0,3,1.3699886798858643,None,,,,,0,0,0,0,0,62,62,38,670.3094341754913,,,,,,,,,,,,,,,,,,,,,,,,,,,,,,,,,,,,,,,,,,,,,,,,,,,,,,,,,,,,,,,,,,,,,,,,,,,,,,,,,57.0,133.0,133.0,57.0,78.0,78.0,2.1,2.11,-191,270,0,280,164,-262,670.2944867610931,670.2945692539215,670.298593044281,670.3094341754913,670.460058927536,670.460058927536,670.460058927536,670.460058927536,670.460058927536,670.460058927536,670.460058927536,671.6930763721466,3,1.3699886798858643,None,,,,,,,,,,,,,,,,,,168,4,2025-02-28_14h27.45.505,comp,2024.2.4,54.10280852425098,2025-02-28 14h27.55.713123 -0500,
63,63,0,critical,wdh,35.0,2.1,lower,57.0,133.0,70.0,70.0,133.0,57.0,2,1.3472774028778076,None,,,,,0,0,0,0,0,63,63,32,671.7085189819336,,,,,,,,,,,,,,,,,,,,,,,,,,,,,,,,,,,,,,,,,,,,,,,,,,,,,,,,,,,,,,,,,,,,,,,,,,,,,,,,,57.0,133.0,70.0,70.0,133.0,57.0,2.1,2.12,-198,-277,0,-256,160,266,671.6947546005249,671.6948335170746,671.6982729434967,671.7085189819336,671.8561046123505,671.8561046123505,671.8561046123505,671.8561046123505,671.8561046123505,671.8561046123505,671.8561046123505,673.0750858783722,2,1.3472774028778076,None,,,,,,,,,,,,,,,,,,168,4,2025-02-28_14h27.45.505,comp,2024.2.4,54.10280852425098,2025-02-28 14h27.55.713123 -0500,
64,64,0,critical,whd,20.0,1.0,upper,125.0,200.0,200.0,125.0,141.0,141.0,3,4.110491991043091,None,,,,,0,0,0,0,0,64,64,91,673.0910716056824,,,,,,,,,,,,,,,,,,,,,,,,,,,,,,,,,,,,,,,,,,,,,,,,,,,,,,,,,,,,,,,,,,,,,,,,,,,,,,,,,125.0,200.0,200.0,125.0,141.0,141.0,1.0,1.3,222,-270,480,-266,709,-284,673.0766768455505,673.0767576694489,673.079803943634,673.0910716056824,673.2391872406006,673.2391872406006,673.2391872406006,673.2391872406006,673.2391872406006,673.2391872406006,673.2391872406006,677.2121150493622,3,4.110491991043091,None,,,,,,,,,,,,,,,,,,168,4,2025-02-28_14h27.45.505,comp,2024.2.4,54.10280852425098,2025-02-28 14h27.55.713123 -0500,
65,65,0,critical,wdh,35.0,2.1,upper,125.0,200.0,127.0,127.0,200.0,125.0,1,1.8751537799835205,None,,,,,0,0,0,0,0,65,65,9,677.228105545044,,,,,,,,,,,,,,,,,,,,,,,,,,,,,,,,,,,,,,,,,,,,,,,,,,,,,,,,,,,,,,,,,,,,,,,,,,,,,,,,,125.0,200.0,127.0,127.0,200.0,125.0,2.1,2.11,-260,258,0,255,222,-279,677.2137098312378,677.2137899398804,677.2172672748566,677.228105545044,677.3678936958313,677.3678936958313,677.3678936958313,677.3678936958313,677.3678936958313,677.3678936958313,677.3678936958313,679.1135983467102,1,1.8751537799835205,None,,,,,,,,,,,,,,,,,,168,4,2025-02-28_14h27.45.505,comp,2024.2.4,54.10280852425098,2025-02-28 14h27.55.713123 -0500,
66,66,0,critical,dhw,35.0,4.0,upper,127.0,127.0,200.0,125.0,125.0,200.0,1,5.861516714096069,None,,,,,0,0,0,0,0,66,66,53,679.1300570964813,,,,,,,,,,,,,,,,,,,,,,,,,,,,,,,,,,,,,,,,,,,,,,,,,,,,,,,,,,,,,,,,,,,,,,,,,,,,,,,,,127.0,127.0,200.0,125.0,125.0,200.0,4.0,4.2,-222,-7,0,-278,258,-20,679.1153090000153,679.1153907775879,679.1192796230316,679.1300570964813,679.277277469635,679.277277469635,679.277277469635,679.277277469635,679.277277469635,679.277277469635,679.277277469635,684.9967906475067,1,5.861516714096069,None,,,,,,,,,,,,,,,,,,168,4,2025-02-28_14h27.45.505,comp,2024.2.4,54.10280852425098,2025-02-28 14h27.55.713123 -0500,
67,67,0,filler_random,None,None,None,None,None,None,None,None,None,None,1,1.1311097145080566,None,,,,,0,0,0,0,0,67,67,143,685.0201992988586,,,,,,,,,,,,,,,,,,,,,,,,,,,,,,,,,,,,,,,,,,,,,,,,,,,,,,,,,,,,,,,,,,,,,,,,,,,,,,,,,130.58506217759827,189.5897571836096,175.53812701807885,114.41668036264258,154.40748739073308,88.6063408912056,3.0,3.1,-248,275,0,-11,198,-272,684.9985003471375,684.99857878685,685.0018203258514,685.0201992988586,685.1630930900574,685.1630930900574,685.1630930900574,685.1630930900574,685.1630930900574,685.1630930900574,685.1630930900574,686.1670999526978,1,1.1311097145080566,None,,,,,,,,,,,,,,,,,,168,4,2025-02-28_14h27.45.505,comp,2024.2.4,54.10280852425098,2025-02-28 14h27.55.713123 -0500,
68,68,0,filler_square,None,None,None,None,None,None,None,None,None,None,3,1.0643134117126465,None,,,,,0,0,0,0,0,68,68,182,686.1830499172211,,,,,,,,,,,,,,,,,,,,,,,,,,,,,,,,,,,,,,,,,,,,,,,,,,,,,,,,,,,,,,,,,,,,,,,,,,,,,,,,,57.993935230229944,120.204000061481,95.2973559088137,71.03879748381806,168.0135397344617,168.0135397344617,3.0,3.1,-192,270,0,-20,216,-250,686.1690647602081,686.1691510677338,686.1721723079681,686.1830499172211,686.3313436508179,686.3313436508179,686.3313436508179,686.3313436508179,686.3313436508179,686.3313436508179,686.3313436508179,687.263189792633,3,1.0643134117126465,None,,,,,,,,,,,,,,,,,,168,4,2025-02-28_14h27.45.505,comp,2024.2.4,54.10280852425098,2025-02-28 14h27.55.713123 -0500,
69,69,0,critical,dwh,35.0,1.0,upper,127.0,127.0,125.0,200.0,200.0,125.0,1,4.6966657638549805,None,,,,,0,0,0,0,0,69,69,61,687.2793018817902,,,,,,,,,,,,,,,,,,,,,,,,,,,,,,,,,,,,,,,,,,,,,,,,,,,,,,,,,,,,,,,,,,,,,,,,,,,,,,,,,127.0,127.0,125.0,200.0,200.0,125.0,1.0,1.2,-260,-14,0,-6,258,20,687.2647082805634,687.2647888660431,687.2679915428162,687.2793018817902,687.4378309249878,687.4378309249878,687.4378309249878,687.4378309249878,687.4378309249878,687.4378309249878,687.4378309249878,691.9841575622559,1,4.6966657638549805,None,,,,,,,,,,,,,,,,,,168,4,2025-02-28_14h27.45.505,comp,2024.2.4,54.10280852425098,2025-02-28 14h27.55.713123 -0500,
70,70,0,critical,dhw,20.0,1.0,upper,141.0,141.0,200.0,125.0,125.0,200.0,1,2.1110434532165527,None,,,,,0,0,0,0,0,70,70,55,692.0003957748413,,,,,,,,,,,,,,,,,,,,,,,,,,,,,,,,,,,,,,,,,,,,,,,,,,,,,,,,,,,,,,,,,,,,,,,,,,,,,,,,,141.0,141.0,200.0,125.0,125.0,200.0,1.0,1.3,251,-278,480,-271,738,-274,691.9857487678528,691.9858272075653,691.9888029098511,692.0003957748413,692.1483378410339,692.1483378410339,692.1483378410339,692.1483378410339,692.1483378410339,692.1483378410339,692.1483378410339,694.1169548034668,1,2.1110434532165527,None,,,,,,,,,,,,,,,,,,168,4,2025-02-28_14h27.45.505,comp,2024.2.4,54.10280852425098,2025-02-28 14h27.55.713123 -0500,
71,71,0,filler_random,None,None,None,None,None,None,None,None,None,None,3,1.2013270854949951,None,,,,,0,0,0,0,0,71,71,138,694.1348204612732,,,,,,,,,,,,,,,,,,,,,,,,,,,,,,,,,,,,,,,,,,,,,,,,,,,,,,,,,,,,,,,,,,,,,,,,,,,,,,,,,102.70352786191496,173.8854774730276,59.80995890772327,87.81562779906815,188.4123557602628,195.3521687555271,2.2,2.21,-227,-272,0,267,238,281,694.1185998916626,694.118711233139,694.1219244003296,694.1348204612732,694.2827935218811,694.2827935218811,694.2827935218811,694.2827935218811,694.2827935218811,694.2827935218811,694.2827935218811,695.3436253070831,3,1.2013270854949951,None,,,,,,,,,,,,,,,,,,168,4,2025-02-28_14h27.45.505,comp,2024.2.4,54.10280852425098,2025-02-28 14h27.55.713123 -0500,
72,72,0,filler_random,None,None,None,None,None,None,None,None,None,None,3,1.0288667678833008,None,,,,,0,0,0,0,0,72,72,137,695.3624444007874,,,,,,,,,,,,,,,,,,,,,,,,,,,,,,,,,,,,,,,,,,,,,,,,,,,,,,,,,,,,,,,,,,,,,,,,,,,,,,,,,169.1440343083607,114.08767357999417,157.73670054015216,99.02054707668529,179.0960676690761,159.5787074248598,3.0,3.1,-203,255,0,15,225,-280,695.3455917835236,695.3457210063934,695.3489844799042,695.3624444007874,695.5009908676147,695.5009908676147,695.5009908676147,695.5009908676147,695.5009908676147,695.5009908676147,695.5009908676147,696.40571641922,3,1.0288667678833008,None,,,,,,,,,,,,,,,,,,168,4,2025-02-28_14h27.45.505,comp,2024.2.4,54.10280852425098,2025-02-28 14h27.55.713123 -0500,
73,73,0,filler_square,None,None,None,None,None,None,None,None,None,None,1,0.8666152954101562,None,,,,,0,0,0,0,0,73,73,191,696.4207580089569,,,,,,,,,,,,,,,,,,,,,,,,,,,,,,,,,,,,,,,,,,,,,,,,,,,,,,,,,,,,,,,,,,,,,,,,,,,,,,,,,162.6902219235945,162.6902219235945,108.54908332462118,117.18098945712478,110.55410342935058,148.88939900299502,3.0,3.1,-236,266,0,0,229,-265,696.4074981212616,696.4075782299042,696.410448551178,696.4207580089569,696.5659759044647,696.5659759044647,696.5659759044647,696.5659759044647,696.5659759044647,696.5659759044647,696.5659759044647,697.3007762432098,1,0.8666152954101562,None,,,,,,,,,,,,,,,,,,168,4,2025-02-28_14h27.45.505,comp,2024.2.4,54.10280852425098,2025-02-28 14h27.55.713123 -0500,
74,74,0,critical,dwh,35.0,2.1,upper,127.0,127.0,125.0,200.0,200.0,125.0,1,3.0615644454956055,None,,,,,0,0,0,0,0,74,74,29,697.3167796134949,,,,,,,,,,,,,,,,,,,,,,,,,,,,,,,,,,,,,,,,,,,,,,,,,,,,,,,,,,,,,,,,,,,,,,,,,,,,,,,,,127.0,127.0,125.0,200.0,200.0,125.0,2.1,2.11,-260,271,0,271,258,-253,697.3022990226746,697.3023743629456,697.3064861297607,697.3167796134949,697.4652059078217,697.4652059078217,697.4652059078217,697.4652059078217,697.4652059078217,697.4652059078217,697.4652059078217,700.3840796947479,1,3.0615644454956055,None,,,,,,,,,,,,,,,,,,168,4,2025-02-28_14h27.45.505,comp,2024.2.4,54.10280852425098,2025-02-28 14h27.55.713123 -0500,
75,75,0,filler_random,None,None,None,None,None,None,None,None,None,None,3,1.1763851642608643,None,,,,,0,0,0,0,0,75,75,161,700.4003434181213,,,,,,,,,,,,,,,,,,,,,,,,,,,,,,,,,,,,,,,,,,,,,,,,,,,,,,,,,,,,,,,,,,,,,,,,,,,,,,,,,180.41116260968315,98.74298778341625,128.92347474610605,157.63091349391362,193.56008885029857,143.21934546628103,1.0,1.2,-224,17,0,0,246,6,700.3857955932617,700.3858757019043,700.3887548446655,700.4003434181213,700.5510952472687,700.5510952472687,700.5510952472687,700.5510952472687,700.5510952472687,700.5510952472687,700.5510952472687,701.5842180252075,3,1.1763851642608643,None,,,,,,,,,,,,,,,,,,168,4,2025-02-28_14h27.45.505,comp,2024.2.4,54.10280852425098,2025-02-28 14h27.55.713123 -0500,
76,76,0,filler_square,None,None,None,None,None,None,None,None,None,None,3,2.7506697177886963,None,,,,,0,0,0,0,0,76,76,194,701.6007223129272,,,,,,,,,,,,,,,,,,,,,,,,,,,,,,,,,,,,,,,,,,,,,,,,,,,,,,,,,,,,,,,,,,,,,,,,,,,,,,,,,101.94692259459266,97.07613847751722,100.50725931728411,65.43037716680207,108.41025705332343,108.41025705332343,2.2,2.22,-177,280,0,-273,183,-253,701.5860688686371,701.5861477851868,701.589361667633,701.6007223129272,701.7569088935852,701.7569088935852,701.7569088935852,701.7569088935852,701.7569088935852,701.7569088935852,701.7569088935852,704.365912437439,3,2.7506697177886963,None,,,,,,,,,,,,,,,,,,168,4,2025-02-28_14h27.45.505,comp,2024.2.4,54.10280852425098,2025-02-28 14h27.55.713123 -0500,
77,77,0,critical,hwd,20.0,2.1,upper,200.0,125.0,125.0,200.0,141.0,141.0,3,2.6656880378723145,None,,,,,0,0,0,0,0,77,77,43,704.384245634079,,,,,,,,,,,,,,,,,,,,,,,,,,,,,,,,,,,,,,,,,,,,,,,,,,,,,,,,,,,,,,,,,,,,,,,,,,,,,,,,,200.0,125.0,125.0,200.0,141.0,141.0,2.1,2.12,-258,-277,0,-260,266,269,704.367579460144,704.3677361011505,704.3709933757782,704.384245634079,704.5213186740875,704.5213186740875,704.5213186740875,704.5213186740875,704.5213186740875,704.5213186740875,704.5213186740875,707.0549278259277,3,2.6656880378723145,None,,,,,,,,,,,,,,,,,,168,4,2025-02-28_14h27.45.505,comp,2024.2.4,54.10280852425098,2025-02-28 14h27.55.713123 -0500,
78,78,0,critical,hdw,20.0,3.0,upper,200.0,125.0,141.0,141.0,125.0,200.0,2,2.8162033557891846,None,,,,,0,0,0,0,0,78,78,117,707.071123123169,,,,,,,,,,,,,,,,,,,,,,,,,,,,,,,,,,,,,,,,,,,,,,,,,,,,,,,,,,,,,,,,,,,,,,,,,,,,,,,,,200.0,125.0,141.0,141.0,125.0,200.0,3.0,3.1,-229,286,0,-16,266,-270,707.0564954280853,707.0565736293793,707.0594758987427,707.071123123169,707.2199676036835,707.2199676036835,707.2199676036835,707.2199676036835,707.2199676036835,707.2199676036835,707.2199676036835,709.9039740562439,2,2.8162033557891846,None,,,,,,,,,,,,,,,,,,168,4,2025-02-28_14h27.45.505,comp,2024.2.4,54.10280852425098,2025-02-28 14h27.55.713123 -0500,
79,79,0,critical,dhw,35.0,4.0,lower,70.0,70.0,133.0,57.0,57.0,133.0,1,0.9178097248077393,None,,,,,0,0,0,0,0,79,79,52,709.9224016666412,,,,,,,,,,,,,,,,,,,,,,,,,,,,,,,,,,,,,,,,,,,,,,,,,,,,,,,,,,,,,,,,,,,,,,,,,,,,,,,,,70.0,70.0,133.0,57.0,57.0,133.0,4.0,4.1,-160,-283,0,9,191,-277,709.9054429531097,709.9055194854736,709.9085574150085,709.9224016666412,710.0783588886261,710.0783588886261,710.0783588886261,710.0783588886261,710.0783588886261,710.0783588886261,710.0783588886261,710.8455054759979,1,0.9178097248077393,None,,,,,,,,,,,,,,,,,,168,4,2025-02-28_14h27.45.505,comp,2024.2.4,54.10280852425098,2025-02-28 14h27.55.713123 -0500,
80,80,0,critical,dhw,35.0,2.1,upper,127.0,127.0,200.0,125.0,125.0,200.0,1,4.987020492553711,None,,,,,0,0,0,0,0,80,80,25,710.8611724376678,,,,,,,,,,,,,,,,,,,,,,,,,,,,,,,,,,,,,,,,,,,,,,,,,,,,,,,,,,,,,,,,,,,,,,,,,,,,,,,,,127.0,127.0,200.0,125.0,125.0,200.0,2.1,2.11,-222,255,0,278,258,-261,710.8470838069916,710.8471615314484,710.8503818511963,710.8611724376678,711.0028805732727,711.0028805732727,711.0028805732727,711.0028805732727,711.0028805732727,711.0028805732727,711.0028805732727,715.8569176197052,1,4.987020492553711,None,,,,,,,,,,,,,,,,,,168,4,2025-02-28_14h27.45.505,comp,2024.2.4,54.10280852425098,2025-02-28 14h27.55.713123 -0500,
81,81,0,critical,whd,35.0,1.0,lower,57.0,133.0,133.0,57.0,70.0,70.0,3,2.1664271354675293,None,,,,,0,0,0,0,0,81,81,84,715.8728682994843,,,,,,,,,,,,,,,,,,,,,,,,,,,,,,,,,,,,,,,,,,,,,,,,,,,,,,,,,,,,,,,,,,,,,,,,,,,,,,,,,57.0,133.0,133.0,57.0,70.0,70.0,1.0,1.2,-191,8,0,-1,160,-15,715.8584764003754,715.8585603237152,715.8620448112488,715.8728682994843,716.023754119873,716.023754119873,716.023754119873,716.023754119873,716.023754119873,716.023754119873,716.023754119873,718.0564048290253,3,2.1664271354675293,None,,,,,,,,,,,,,,,,,,168,4,2025-02-28_14h27.45.505,comp,2024.2.4,54.10280852425098,2025-02-28 14h27.55.713123 -0500,
82,82,0,filler_square,None,None,None,None,None,None,None,None,None,None,2,1.765005350112915,None,,,,,0,0,0,0,0,82,82,180,718.0743589401245,,,,,,,,,,,,,,,,,,,,,,,,,,,,,,,,,,,,,,,,,,,,,,,,,,,,,,,,,,,,,,,,,,,,,,,,,,,,,,,,,165.49624666602767,117.2884959697318,185.16675936392403,185.16675936392403,160.1533570076113,174.78405006474645,2.1,2.12,-247,-282,0,-281,276,273,718.0583710670471,718.0584671497345,718.0617935657501,718.0743589401245,718.2242336273193,718.2242336273193,718.2242336273193,718.2242336273193,718.2242336273193,718.2242336273193,718.2242336273193,719.8435924053192,2,1.765005350112915,None,,,,,,,,,,,,,,,,,,168,4,2025-02-28_14h27.45.505,comp,2024.2.4,54.10280852425098,2025-02-28 14h27.55.713123 -0500,
83,83,0,filler_random,None,None,None,None,None,None,None,None,None,None,2,2.4601545333862305,None,,,,,0,0,0,0,0,83,83,140,719.8599078655243,,,,,,,,,,,,,,,,,,,,,,,,,,,,,,,,,,,,,,,,,,,,,,,,,,,,,,,,,,,,,,,,,,,,,,,,,,,,,,,,,190.53178139059258,74.12705237714653,123.75448976897545,186.84751169168993,109.54352038207153,70.96278727931275,3.0,3.2,-226,-271,0,20,225,283,719.8455791473389,719.8457038402557,719.8490543365479,719.8599078655243,720.006466627121,720.006466627121,720.006466627121,720.006466627121,720.006466627121,720.006466627121,720.006466627121,722.3254022598267,2,2.4601545333862305,None,,,,,,,,,,,,,,,,,,168,4,2025-02-28_14h27.45.505,comp,2024.2.4,54.10280852425098,2025-02-28 14h27.55.713123 -0500,
84,84,0,filler_square,None,None,None,None,None,None,None,None,None,None,3,1.1778020858764648,None,,,,,0,0,0,0,0,84,84,172,722.3421602249146,,,,,,,,,,,,,,,,,,,,,,,,,,,,,,,,,,,,,,,,,,,,,,,,,,,,,,,,,,,,,,,,,,,,,,,,,,,,,,,,,88.78579460788345,126.68163652616687,57.772052404327255,110.35913048352187,142.56628895320443,142.56628895320443,4.0,4.1,-215,-269,0,-13,222,-264,722.327246427536,722.3273267745972,722.3313066959381,722.3421602249146,722.4892597198486,722.4892597198486,722.4892597198486,722.4892597198486,722.4892597198486,722.4892597198486,722.4892597198486,723.5287621021271,3,1.1778020858764648,None,,,,,,,,,,,,,,,,,,168,4,2025-02-28_14h27.45.505,comp,2024.2.4,54.10280852425098,2025-02-28 14h27.55.713123 -0500,
85,85,0,critical,whd,35.0,2.1,lower,57.0,133.0,133.0,57.0,70.0,70.0,3,1.3008084297180176,None,,,,,0,0,0,0,0,85,85,36,723.5465016365051,,,,,,,,,,,,,,,,,,,,,,,,,,,,,,,,,,,,,,,,,,,,,,,,,,,,,,,,,,,,,,,,,,,,,,,,,,,,,,,,,57.0,133.0,133.0,57.0,70.0,70.0,2.1,2.11,-191,266,0,272,160,-264,723.5303318500519,723.5304148197174,723.5333616733551,723.5465016365051,723.6911067962646,723.6911067962646,723.6911067962646,723.6911067962646,723.6911067962646,723.6911067962646,723.6911067962646,724.861967086792,3,1.3008084297180176,None,,,,,,,,,,,,,,,,,,168,4,2025-02-28_14h27.45.505,comp,2024.2.4,54.10280852425098,2025-02-28 14h27.55.713123 -0500,
86,86,0,critical,wdh,35.0,3.0,lower,57.0,133.0,70.0,70.0,133.0,57.0,2,1.575606346130371,None,,,,,0,0,0,0,0,86,86,74,724.8802711963654,,,,,,,,,,,,,,,,,,,,,,,,,,,,,,,,,,,,,,,,,,,,,,,,,,,,,,,,,,,,,,,,,,,,,,,,,,,,,,,,,57.0,133.0,70.0,70.0,133.0,57.0,3.0,3.1,-198,272,0,-1,160,-264,724.8639726638794,724.8641037940979,724.8670721054077,724.8802711963654,725.0260071754456,725.0260071754456,725.0260071754456,725.0260071754456,725.0260071754456,725.0260071754456,725.0260071754456,726.4757940769196,2,1.575606346130371,None,,,,,,,,,,,,,,,,,,168,4,2025-02-28_14h27.45.505,comp,2024.2.4,54.10280852425098,2025-02-28 14h27.55.713123 -0500,
87,87,0,critical,dhw,35.0,1.0,upper,127.0,127.0,200.0,125.0,125.0,200.0,1,21.656368494033813,None,,,,,0,0,0,0,0,87,87,49,726.494973897934,,,,,,,,,,,,,,,,,,,,,,,,,,,,,,,,,,,,,,,,,,,,,,,,,,,,,,,,,,,,,,,,,,,,,,,,,,,,,,,,,127.0,127.0,200.0,125.0,125.0,200.0,1.0,1.3,258,-252,480,-254,738,-272,726.4774136543274,726.477490901947,726.4808628559113,726.494973897934,726.6427631378174,726.6427631378174,726.6427631378174,726.6427631378174,726.6427631378174,726.6427631378174,726.6427631378174,748.1684753894806,1,21.656368494033813,None,,,,,,,,,,,,,,,,,,168,4,2025-02-28_14h27.45.505,comp,2024.2.4,54.10280852425098,2025-02-28 14h27.55.713123 -0500,
88,88,0,critical,whd,35.0,2.1,lower,57.0,133.0,133.0,57.0,70.0,70.0,3,1.5596585273742676,None,,,,,0,0,0,0,0,88,88,12,748.184327840805,,,,,,,,,,,,,,,,,,,,,,,,,,,,,,,,,,,,,,,,,,,,,,,,,,,,,,,,,,,,,,,,,,,,,,,,,,,,,,,,,57.0,133.0,133.0,57.0,70.0,70.0,2.1,2.12,-191,-253,0,-289,160,287,748.1701126098633,748.170193195343,748.1740725040436,748.184327840805,748.3400685787201,748.3400685787201,748.3400685787201,748.3400685787201,748.3400685787201,748.3400685787201,748.3400685787201,749.7490785121918,3,1.5596585273742676,None,,,,,,,,,,,,,,,,,,168,4,2025-02-28_14h27.45.505,comp,2024.2.4,54.10280852425098,2025-02-28 14h27.55.713123 -0500,
89,89,0,filler_random,None,None,None,None,None,None,None,None,None,None,3,0.8821933269500732,None,,,,,0,0,0,0,0,89,89,141,749.7656145095825,,,,,,,,,,,,,,,,,,,,,,,,,,,,,,,,,,,,,,,,,,,,,,,,,,,,,,,,,,,,,,,,,,,,,,,,,,,,,,,,,86.53723824547521,120.83958177434204,105.74574361878206,194.35508641473356,192.48848544157707,156.9600700153817,1.0,1.1,-734,286,-480,269,-208,253,749.7506923675537,749.750771522522,749.7539315223694,749.7656145095825,749.9194905757904,749.9194905757904,749.9194905757904,749.9194905757904,749.9194905757904,749.9194905757904,749.9194905757904,750.651716709137,3,0.8821933269500732,None,,,,,,,,,,,,,,,,,,168,4,2025-02-28_14h27.45.505,comp,2024.2.4,54.10280852425098,2025-02-28 14h27.55.713123 -0500,
90,90,0,critical,wdh,35.0,1.0,lower,57.0,133.0,70.0,70.0,133.0,57.0,2,1.2361276149749756,None,,,,,0,0,0,0,0,90,90,72,750.6677739620209,,,,,,,,,,,,,,,,,,,,,,,,,,,,,,,,,,,,,,,,,,,,,,,,,,,,,,,,,,,,,,,,,,,,,,,,,,,,,,,,,57.0,133.0,70.0,70.0,133.0,57.0,1.0,1.2,-198,-5,0,5,160,4,750.6533823013306,750.6534640789032,750.656968832016,750.6677739620209,750.8196928501129,750.8196928501129,750.8196928501129,750.8196928501129,750.8196928501129,750.8196928501129,750.8196928501129,751.9215838909149,2,1.2361276149749756,None,,,,,,,,,,,,,,,,,,168,4,2025-02-28_14h27.45.505,comp,2024.2.4,54.10280852425098,2025-02-28 14h27.55.713123 -0500,
91,91,0,critical,dwh,35.0,2.1,lower,70.0,70.0,57.0,133.0,133.0,57.0,1,1.962019443511963,None,,,,,0,0,0,0,0,91,91,28,751.9414372444153,,,,,,,,,,,,,,,,,,,,,,,,,,,,,,,,,,,,,,,,,,,,,,,,,,,,,,,,,,,,,,,,,,,,,,,,,,,,,,,,,70.0,70.0,57.0,133.0,133.0,57.0,2.1,2.11,-198,278,0,274,191,-267,751.9232611656189,751.9233794212341,751.9266951084137,751.9414372444153,752.0884966850281,752.0884966850281,752.0884966850281,752.0884966850281,752.0884966850281,752.0884966850281,752.0884966850281,753.9182057380676,1,1.962019443511963,None,,,,,,,,,,,,,,,,,,168,4,2025-02-28_14h27.45.505,comp,2024.2.4,54.10280852425098,2025-02-28 14h27.55.713123 -0500,
92,92,0,filler_square,None,None,None,None,None,None,None,None,None,None,2,1.0175142288208008,None,,,,,0,0,0,0,0,92,92,192,753.9338381290436,,,,,,,,,,,,,,,,,,,,,,,,,,,,,,,,,,,,,,,,,,,,,,,,,,,,,,,,,,,,,,,,,,,,,,,,,,,,,,,,,69.22282817142495,77.58088270166493,105.19228531409792,105.19228531409792,73.84282980810634,96.19428452880689,2.2,2.21,-187,-287,0,271,197,275,753.920000076294,753.9200758934021,753.9235010147095,753.9338381290436,754.0820400714874,754.0820400714874,754.0820400714874,754.0820400714874,754.0820400714874,754.0820400714874,754.0820400714874,754.9677562713623,2,1.0175142288208008,None,,,,,,,,,,,,,,,,,,168,4,2025-02-28_14h27.45.505,comp,2024.2.4,54.10280852425098,2025-02-28 14h27.55.713123 -0500,
93,93,0,critical,hdw,35.0,2.1,lower,133.0,57.0,70.0,70.0,57.0,133.0,2,1.5680243968963623,None,,,,,0,0,0,0,0,93,93,44,754.9832563400269,,,,,,,,,,,,,,,,,,,,,,,,,,,,,,,,,,,,,,,,,,,,,,,,,,,,,,,,,,,,,,,,,,,,,,,,,,,,,,,,,133.0,57.0,70.0,70.0,57.0,133.0,2.1,2.12,-160,-260,0,-282,198,287,754.9692485332489,754.9693264961243,754.9722259044647,754.9832563400269,755.1350083351135,755.1350083351135,755.1350083351135,755.1350083351135,755.1350083351135,755.1350083351135,755.1350083351135,756.5690734386444,2,1.5680243968963623,None,,,,,,,,,,,,,,,,,,168,4,2025-02-28_14h27.45.505,comp,2024.2.4,54.10280852425098,2025-02-28 14h27.55.713123 -0500,
94,94,0,critical,wdh,35.0,3.0,upper,125.0,200.0,127.0,127.0,200.0,125.0,1,4.374021291732788,None,,,,,0,0,0,0,0,94,94,75,756.5852870941162,,,,,,,,,,,,,,,,,,,,,,,,,,,,,,,,,,,,,,,,,,,,,,,,,,,,,,,,,,,,,,,,,,,,,,,,,,,,,,,,,125.0,200.0,127.0,127.0,200.0,125.0,3.0,3.1,-260,262,0,-19,222,-251,756.5705599784851,756.570636510849,756.5747103691101,756.5852870941162,756.734405040741,756.734405040741,756.734405040741,756.734405040741,756.734405040741,756.734405040741,756.734405040741,760.9695544242859,1,4.374021291732788,None,,,,,,,,,,,,,,,,,,168,4,2025-02-28_14h27.45.505,comp,2024.2.4,54.10280852425098,2025-02-28 14h27.55.713123 -0500,
95,95,0,critical,whd,35.0,3.0,lower,57.0,133.0,133.0,57.0,70.0,70.0,3,1.517455816268921,None,,,,,0,0,0,0,0,95,95,86,760.9859631061554,,,,,,,,,,,,,,,,,,,,,,,,,,,,,,,,,,,,,,,,,,,,,,,,,,,,,,,,,,,,,,,,,,,,,,,,,,,,,,,,,57.0,133.0,133.0,57.0,70.0,70.0,3.0,3.2,-191,-279,0,-4,160,277,760.9711761474609,760.9712655544281,760.9744956493378,760.9859631061554,761.1411418914795,761.1411418914795,761.1411418914795,761.1411418914795,761.1411418914795,761.1411418914795,761.1411418914795,762.5201244354248,3,1.517455816268921,None,,,,,,,,,,,,,,,,,,168,4,2025-02-28_14h27.45.505,comp,2024.2.4,54.10280852425098,2025-02-28 14h27.55.713123 -0500,
96,96,0,critical,hdw,20.0,4.0,lower,133.0,57.0,78.0,78.0,57.0,133.0,2,1.3871748447418213,None,,,,,0,0,0,0,0,96,96,118,762.5401813983917,,,,,,,,,,,,,,,,,,,,,,,,,,,,,,,,,,,,,,,,,,,,,,,,,,,,,,,,,,,,,,,,,,,,,,,,,,,,,,,,,133.0,57.0,78.0,78.0,57.0,133.0,4.0,4.2,-164,-9,0,-265,202,13,762.5217182636261,762.5217971801758,762.5252335071564,762.5401813983917,762.6874577999115,762.6874577999115,762.6874577999115,762.6874577999115,762.6874577999115,762.6874577999115,762.6874577999115,763.9381115436554,2,1.3871748447418213,None,,,,,,,,,,,,,,,,,,168,4,2025-02-28_14h27.45.505,comp,2024.2.4,54.10280852425098,2025-02-28 14h27.55.713123 -0500,
97,97,0,filler_random,None,None,None,None,None,None,None,None,None,None,1,0.9334886074066162,None,,,,,0,0,0,0,0,97,97,131,763.9547553062439,,,,,,,,,,,,,,,,,,,,,,,,,,,,,,,,,,,,,,,,,,,,,,,,,,,,,,,,,,,,,,,,,,,,,,,,,,,,,,,,,184.0681133113648,161.4375554715518,79.77381478297582,105.53284023439562,121.30145334074825,92.19486623206714,4.0,4.1,-229,-271,0,-4,195,-263,763.9398238658905,763.9399020671844,763.9440169334412,763.9547553062439,764.1029553413391,764.1029553413391,764.1029553413391,764.1029553413391,764.1029553413391,764.1029553413391,764.1029553413391,764.8927509784698,1,0.9334886074066162,None,,,,,,,,,,,,,,,,,,168,4,2025-02-28_14h27.45.505,comp,2024.2.4,54.10280852425098,2025-02-28 14h27.55.713123 -0500,
98,98,0,filler_square,None,None,None,None,None,None,None,None,None,None,2,0.9382114410400391,None,,,,,0,0,0,0,0,98,98,188,764.9092004299164,,,,,,,,,,,,,,,,,,,,,,,,,,,,,,,,,,,,,,,,,,,,,,,,,,,,,,,,,,,,,,,,,,,,,,,,,,,,,,,,,142.28793422339484,66.78956816219136,196.70271150687734,196.70271150687734,165.5969095633825,100.84887460730828,2.2,2.21,-228,-275,0,272,245,271,764.8946239948273,764.8947248458862,764.8975496292114,764.9092004299164,765.0560534000397,765.0560534000397,765.0560534000397,765.0560534000397,765.0560534000397,765.0560534000397,765.0560534000397,765.8595192432404,2,0.9382114410400391,None,,,,,,,,,,,,,,,,,,168,4,2025-02-28_14h27.45.505,comp,2024.2.4,54.10280852425098,2025-02-28 14h27.55.713123 -0500,
99,99,0,filler_square,None,None,None,None,None,None,None,None,None,None,1,2.5564465522766113,None,,,,,0,0,0,0,0,99,99,181,765.8755865097046,,,,,,,,,,,,,,,,,,,,,,,,,,,,,,,,,,,,,,,,,,,,,,,,,,,,,,,,,,,,,,,,,,,,,,,,,,,,,,,,,72.01735943945134,72.01735943945134,67.41023100763917,59.443549934237936,66.65740981775686,63.20637051494128,2.2,2.21,-162,-277,0,250,157,275,765.8613572120667,765.8614370822906,765.8645021915436,765.8755865097046,766.0265476703644,766.0265476703644,766.0265476703644,766.0265476703644,766.0265476703644,766.0265476703644,766.0265476703644,768.4402446746826,1,2.5564465522766113,None,,,,,,,,,,,,,,,,,,168,4,2025-02-28_14h27.45.505,comp,2024.2.4,54.10280852425098,2025-02-28 14h27.55.713123 -0500,
100,100,0,filler_square,None,None,None,None,None,None,None,None,None,None,3,1.8957254886627197,None,,,,,0,0,0,0,0,100,100,185,768.4561910629272,,,,,,,,,,,,,,,,,,,,,,,,,,,,,,,,,,,,,,,,,,,,,,,,,,,,,,,,,,,,,,,,,,,,,,,,,,,,,,,,,60.65551464853294,68.43260699821879,61.81998947591598,69.69674412474102,69.87615156759512,69.87615156759512,4.0,4.1,-165,-260,0,-2,166,-269,768.4420096874237,768.4420893192291,768.4454753398895,768.4561910629272,768.61119556427,768.61119556427,768.61119556427,768.61119556427,768.61119556427,768.61119556427,768.61119556427,770.3620102405548,3,1.8957254886627197,None,,,,,,,,,,,,,,,,,,168,4,2025-02-28_14h27.45.505,comp,2024.2.4,54.10280852425098,2025-02-28 14h27.55.713123 -0500,
101,101,0,critical,whd,20.0,2.1,upper,125.0,200.0,200.0,125.0,141.0,141.0,1,2.995114803314209,None,,,,,0,0,0,0,0,101,101,15,770.3803195953369,,,,,,,,,,,,,,,,,,,,,,,,,,,,,,,,,,,,,,,,,,,,,,,,,,,,,,,,,,,,,,,,,,,,,,,,,,,,,,,,,125.0,200.0,200.0,125.0,141.0,141.0,2.1,2.12,-258,-289,0,-261,229,274,770.3636901378632,770.3637888431549,770.3671061992645,770.3803195953369,770.5231385231018,770.5231385231018,770.5231385231018,770.5231385231018,770.5231385231018,770.5231385231018,770.5231385231018,773.394690990448,1,2.995114803314209,None,,,,,,,,,,,,,,,,,,168,4,2025-02-28_14h27.45.505,comp,2024.2.4,54.10280852425098,2025-02-28 14h27.55.713123 -0500,
102,102,0,critical,wdh,35.0,1.0,upper,125.0,200.0,127.0,127.0,200.0,125.0,1,2.018526315689087,None,,,,,0,0,0,0,0,102,102,73,773.4146203994751,,,,,,,,,,,,,,,,,,,,,,,,,,,,,,,,,,,,,,,,,,,,,,,,,,,,,,,,,,,,,,,,,,,,,,,,,,,,,,,,,125.0,200.0,127.0,127.0,200.0,125.0,1.0,1.1,-740,268,-480,277,-258,252,773.3962247371674,773.3963055610657,773.3992829322815,773.4146203994751,773.5628430843353,773.5628430843353,773.5628430843353,773.5628430843353,773.5628430843353,773.5628430843353,773.5628430843353,775.4453184604645,1,2.018526315689087,None,,,,,,,,,,,,,,,,,,168,4,2025-02-28_14h27.45.505,comp,2024.2.4,54.10280852425098,2025-02-28 14h27.55.713123 -0500,
103,103,0,filler_random,None,None,None,None,None,None,None,None,None,None,2,1.0425560474395752,None,,,,,0,0,0,0,0,103,103,132,775.4613707065582,,,,,,,,,,,,,,,,,,,,,,,,,,,,,,,,,,,,,,,,,,,,,,,,,,,,,,,,,,,,,,,,,,,,,,,,,,,,,,,,,174.57319390144218,143.26674413825907,165.0059247656136,198.02821231400563,61.31934481245039,175.14100593473302,2.2,2.21,-267,-287,0,254,283,269,775.447114944458,775.4471991062164,775.4504809379578,775.4613707065582,775.6081390380859,775.6081390380859,775.6081390380859,775.6081390380859,775.6081390380859,775.6081390380859,775.6081390380859,776.5087175369263,2,1.0425560474395752,None,,,,,,,,,,,,,,,,,,168,4,2025-02-28_14h27.45.505,comp,2024.2.4,54.10280852425098,2025-02-28 14h27.55.713123 -0500,
104,104,0,filler_random,None,None,None,None,None,None,None,None,None,None,1,0.9066236019134521,None,,,,,0,0,0,0,0,104,104,158,776.5247566699982,,,,,,,,,,,,,,,,,,,,,,,,,,,,,,,,,,,,,,,,,,,,,,,,,,,,,,,,,,,,,,,,,,,,,,,,,,,,,,,,,156.33595873745844,168.8145029432501,79.54596017906492,184.09219647457874,85.15182031851468,115.06100014367382,1.0,1.1,-752,262,-480,285,-234,270,776.5104937553406,776.510627746582,776.5141470432281,776.5247566699982,776.676367521286,776.676367521286,776.676367521286,776.676367521286,776.676367521286,776.676367521286,776.676367521286,777.441308259964,1,0.9066236019134521,None,,,,,,,,,,,,,,,,,,168,4,2025-02-28_14h27.45.505,comp,2024.2.4,54.10280852425098,2025-02-28 14h27.55.713123 -0500,
105,105,0,critical,whd,20.0,3.0,upper,125.0,200.0,200.0,125.0,141.0,141.0,1,6.998784780502319,None,,,,,0,0,0,0,0,105,105,93,777.457355260849,,,,,,,,,,,,,,,,,,,,,,,,,,,,,,,,,,,,,,,,,,,,,,,,,,,,,,,,,,,,,,,,,,,,,,,,,,,,,,,,,125.0,200.0,200.0,125.0,141.0,141.0,3.0,3.1,-258,270,0,-5,229,-256,777.4429385662079,777.4430179595947,777.4463906288147,777.457355260849,777.6109263896942,777.6109263896942,777.6109263896942,777.6109263896942,777.6109263896942,777.6109263896942,777.6109263896942,784.4594185352325,1,6.998784780502319,None,,,,,,,,,,,,,,,,,,168,4,2025-02-28_14h27.45.505,comp,2024.2.4,54.10280852425098,2025-02-28 14h27.55.713123 -0500,
106,106,0,critical,hdw,35.0,4.0,upper,200.0,125.0,127.0,127.0,125.0,200.0,3,1.9067473411560059,None,,,,,0,0,0,0,0,106,106,113,784.4765517711639,,,,,,,,,,,,,,,,,,,,,,,,,,,,,,,,,,,,,,,,,,,,,,,,,,,,,,,,,,,,,,,,,,,,,,,,,,,,,,,,,200.0,125.0,127.0,127.0,125.0,200.0,4.0,4.1,-222,-273,0,16,260,-272,784.4610612392426,784.4611625671387,784.4645683765411,784.4765517711639,784.6280319690704,784.6280319690704,784.6280319690704,784.6280319690704,784.6280319690704,784.6280319690704,784.6280319690704,786.3985240459442,3,1.9067473411560059,None,,,,,,,,,,,,,,,,,,168,4,2025-02-28_14h27.45.505,comp,2024.2.4,54.10280852425098,2025-02-28 14h27.55.713123 -0500,
107,107,0,critical,dhw,20.0,1.0,lower,78.0,78.0,133.0,57.0,57.0,133.0,1,0.9940240383148193,None,,,,,0,0,0,0,0,107,107,54,786.414300441742,,,,,,,,,,,,,,,,,,,,,,,,,,,,,,,,,,,,,,,,,,,,,,,,,,,,,,,,,,,,,,,,,,,,,,,,,,,,,,,,,78.0,78.0,133.0,57.0,57.0,133.0,1.0,1.2,-164,-2,0,-20,191,5,786.4001598358154,786.4002571105957,786.4037022590637,786.414300441742,786.560793876648,786.560793876648,786.560793876648,786.560793876648,786.560793876648,786.560793876648,786.560793876648,787.4136152267456,1,0.9940240383148193,None,,,,,,,,,,,,,,,,,,168,4,2025-02-28_14h27.45.505,comp,2024.2.4,54.10280852425098,2025-02-28 14h27.55.713123 -0500,
108,108,0,critical,dhw,20.0,4.0,upper,141.0,141.0,200.0,125.0,125.0,200.0,1,5.129591464996338,None,,,,,0,0,0,0,0,108,108,59,787.4300377368927,,,,,,,,,,,,,,,,,,,,,,,,,,,,,,,,,,,,,,,,,,,,,,,,,,,,,,,,,,,,,,,,,,,,,,,,,,,,,,,,,141.0,141.0,200.0,125.0,125.0,200.0,4.0,4.1,-229,-283,0,5,258,-262,787.4154117107391,787.4154944419861,787.4193708896637,787.4300377368927,787.5790593624115,787.5790593624115,787.5790593624115,787.5790593624115,787.5790593624115,787.5790593624115,787.5790593624115,792.5667810440063,1,5.129591464996338,None,,,,,,,,,,,,,,,,,,168,4,2025-02-28_14h27.45.505,comp,2024.2.4,54.10280852425098,2025-02-28 14h27.55.713123 -0500,
109,109,0,filler_random,None,None,None,None,None,None,None,None,None,None,1,1.726517915725708,None,,,,,0,0,0,0,0,109,109,159,792.5858268737793,,,,,,,,,,,,,,,,,,,,,,,,,,,,,,,,,,,,,,,,,,,,,,,,,,,,,,,,,,,,,,,,,,,,,,,,,,,,,,,,,99.85527832571503,160.60121368985222,140.00481259680072,70.55010615764034,152.73826014005715,94.20681241040619,2.1,2.12,-212,-260,0,-272,178,257,792.5684857368469,792.5685691833496,792.5715548992157,792.5858268737793,792.7380294799805,792.7380294799805,792.7380294799805,792.7380294799805,792.7380294799805,792.7380294799805,792.7380294799805,794.3146283626556,1,1.726517915725708,None,,,,,,,,,,,,,,,,,,168,4,2025-02-28_14h27.45.505,comp,2024.2.4,54.10280852425098,2025-02-28 14h27.55.713123 -0500,
110,110,0,critical,wdh,20.0,2.1,lower,57.0,133.0,78.0,78.0,133.0,57.0,2,1.084876298904419,None,,,,,0,0,0,0,0,110,110,34,794.3304665088654,,,,,,,,,,,,,,,,,,,,,,,,,,,,,,,,,,,,,,,,,,,,,,,,,,,,,,,,,,,,,,,,,,,,,,,,,,,,,,,,,57.0,133.0,78.0,78.0,133.0,57.0,2.1,2.12,-202,-253,0,-269,164,260,794.3162150382996,794.3162941932678,794.3196864128113,794.3304665088654,794.4816987514496,794.4816987514496,794.4816987514496,794.4816987514496,794.4816987514496,794.4816987514496,794.4816987514496,795.4305233955383,2,1.084876298904419,None,,,,,,,,,,,,,,,,,,168,4,2025-02-28_14h27.45.505,comp,2024.2.4,54.10280852425098,2025-02-28 14h27.55.713123 -0500,
111,111,0,critical,hwd,20.0,1.0,upper,200.0,125.0,125.0,200.0,141.0,141.0,3,1.7458770275115967,None,,,,,0,0,0,0,0,111,111,103,795.4462432861328,,,,,,,,,,,,,,,,,,,,,,,,,,,,,,,,,,,,,,,,,,,,,,,,,,,,,,,,,,,,,,,,,,,,,,,,,,,,,,,,,200.0,125.0,125.0,200.0,141.0,141.0,1.0,1.1,-738,264,-480,287,-214,264,795.4321789741516,795.4322550296783,795.4355309009552,795.4462432861328,795.5970270633698,795.5970270633698,795.5970270633698,795.5970270633698,795.5970270633698,795.5970270633698,795.5970270633698,797.1986830234528,3,1.7458770275115967,None,,,,,,,,,,,,,,,,,,168,4,2025-02-28_14h27.45.505,comp,2024.2.4,54.10280852425098,2025-02-28 14h27.55.713123 -0500,
112,112,0,catch,None,None,None,None,None,None,None,None,None,None,1,0.8172268867492676,None,,,,,0,0,0,0,0,112,112,126,797.2151093482971,,,,,,,,,,,,,,,,,,,,,,,,,,,,,,,,,,,,,,,,,,,,,,,,,,,,,,,,,,,,,,,,,,,,,,,,,,,,,,,,,133,192,133,57,107,83,4.0,4.2,-220,12,0,-288,166,13,797.200576543808,797.2006728649139,797.2040433883667,797.2151093482971,797.3690104484558,797.3690104484558,797.3690104484558,797.3690104484558,797.3690104484558,797.3690104484558,797.3690104484558,798.0377714633942,1,0.8172268867492676,None,,,,,,,,,,,,,,,,,,168,4,2025-02-28_14h27.45.505,comp,2024.2.4,54.10280852425098,2025-02-28 14h27.55.713123 -0500,
113,113,0,critical,dwh,20.0,2.1,upper,141.0,141.0,125.0,200.0,200.0,125.0,1,1.681718111038208,None,,,,,0,0,0,0,0,113,113,31,798.0547120571136,,,,,,,,,,,,,,,,,,,,,,,,,,,,,,,,,,,,,,,,,,,,,,,,,,,,,,,,,,,,,,,,,,,,,,,,,,,,,,,,,141.0,141.0,125.0,200.0,200.0,125.0,2.1,2.11,-266,274,0,273,258,-286,798.039265871048,798.0393445491791,798.0431544780731,798.0547120571136,798.2053081989288,798.2053081989288,798.2053081989288,798.2053081989288,798.2053081989288,798.2053081989288,798.2053081989288,799.7431883811951,1,1.681718111038208,None,,,,,,,,,,,,,,,,,,168,4,2025-02-28_14h27.45.505,comp,2024.2.4,54.10280852425098,2025-02-28 14h27.55.713123 -0500,
114,114,0,critical,dhw,20.0,4.0,lower,78.0,78.0,133.0,57.0,57.0,133.0,1,1.176206350326538,None,,,,,0,0,0,0,0,114,114,58,799.7593472003937,,,,,,,,,,,,,,,,,,,,,,,,,,,,,,,,,,,,,,,,,,,,,,,,,,,,,,,,,,,,,,,,,,,,,,,,,,,,,,,,,78.0,78.0,133.0,57.0,57.0,133.0,4.0,4.1,-164,-261,0,2,191,-268,799.7447144985199,799.744793176651,799.7476963996887,799.7593472003937,799.8974199295044,799.8974199295044,799.8974199295044,799.8974199295044,799.8974199295044,799.8974199295044,799.8974199295044,800.9518940448761,1,1.176206350326538,None,,,,,,,,,,,,,,,,,,168,4,2025-02-28_14h27.45.505,comp,2024.2.4,54.10280852425098,2025-02-28 14h27.55.713123 -0500,
115,115,0,filler_random,None,None,None,None,None,None,None,None,None,None,3,1.22481369972229,None,,,,,0,0,0,0,0,115,115,155,800.967422246933,,,,,,,,,,,,,,,,,,,,,,,,,,,,,,,,,,,,,,,,,,,,,,,,,,,,,,,,,,,,,,,,,,,,,,,,,,,,,,,,,84.14102058842889,136.6764940750249,72.8267408979656,113.55079616213634,198.3901882545012,115.25699556705013,2.1,2.11,-221,259,0,268,210,-275,800.9536783695221,800.9537589550018,800.9569644927979,800.967422246933,801.1144206523895,801.1144206523895,801.1144206523895,801.1144206523895,801.1144206523895,801.1144206523895,801.1144206523895,802.1992688179016,3,1.22481369972229,None,,,,,,,,,,,,,,,,,,168,4,2025-02-28_14h27.45.505,comp,2024.2.4,54.10280852425098,2025-02-28 14h27.55.713123 -0500,
116,116,0,critical,dwh,35.0,4.0,upper,127.0,127.0,125.0,200.0,200.0,125.0,2,1.3609137535095215,None,,,,,0,0,0,0,0,116,116,65,802.2155940532684,,,,,,,,,,,,,,,,,,,,,,,,,,,,,,,,,,,,,,,,,,,,,,,,,,,,,,,,,,,,,,,,,,,,,,,,,,,,,,,,,127.0,127.0,125.0,200.0,200.0,125.0,4.0,4.1,-260,-275,0,10,258,-256,802.2007999420166,802.2008774280548,802.203958272934,802.2155940532684,802.365710735321,802.365710735321,802.365710735321,802.365710735321,802.365710735321,802.365710735321,802.365710735321,803.5842790603638,2,1.3609137535095215,None,,,,,,,,,,,,,,,,,,168,4,2025-02-28_14h27.45.505,comp,2024.2.4,54.10280852425098,2025-02-28 14h27.55.713123 -0500,
117,117,0,filler_random,None,None,None,None,None,None,None,None,None,None,2,1.3785247802734375,None,,,,,0,0,0,0,0,117,117,136,803.6048908233643,,,,,,,,,,,,,,,,,,,,,,,,,,,,,,,,,,,,,,,,,,,,,,,,,,,,,,,,,,,,,,,,,,,,,,,,,,,,,,,,,107.48766419323161,105.05953640209987,189.83067687933763,138.85672309171008,152.83900681763097,165.8809782697552,2.2,2.22,-218,274,0,-258,248,-276,803.5859742164612,803.5860524177551,803.5891518592834,803.6048908233643,803.7527861595154,803.7527861595154,803.7527861595154,803.7527861595154,803.7527861595154,803.7527861595154,803.7527861595154,805.0002541542053,2,1.3785247802734375,None,,,,,,,,,,,,,,,,,,168,4,2025-02-28_14h27.45.505,comp,2024.2.4,54.10280852425098,2025-02-28 14h27.55.713123 -0500,
118,118,0,critical,dhw,35.0,1.0,lower,70.0,70.0,133.0,57.0,57.0,133.0,1,0.9603414535522461,None,,,,,0,0,0,0,0,118,118,48,805.0160870552063,,,,,,,,,,,,,,,,,,,,,,,,,,,,,,,,,,,,,,,,,,,,,,,,,,,,,,,,,,,,,,,,,,,,,,,,,,,,,,,,,70.0,70.0,133.0,57.0,57.0,133.0,1.0,1.3,320,-281,480,-271,671,-270,805.0017154216766,805.0017955303192,805.0050492286682,805.0160870552063,805.1708569526672,805.1708569526672,805.1708569526672,805.1708569526672,805.1708569526672,805.1708569526672,805.1708569526672,805.9853181838989,1,0.9603414535522461,None,,,,,,,,,,,,,,,,,,168,4,2025-02-28_14h27.45.505,comp,2024.2.4,54.10280852425098,2025-02-28 14h27.55.713123 -0500,
119,119,0,filler_square,None,None,None,None,None,None,None,None,None,None,2,1.0838189125061035,None,,,,,0,0,0,0,0,119,119,189,806.0036242008209,,,,,,,,,,,,,,,,,,,,,,,,,,,,,,,,,,,,,,,,,,,,,,,,,,,,,,,,,,,,,,,,,,,,,,,,,,,,,,,,,94.88282708811846,137.32476036110683,178.70701193654594,178.70701193654594,140.68564520921788,170.7819030274277,2.2,2.22,-254,287,0,-281,271,-255,805.9871289730072,805.9872069358826,805.9903316497803,806.0036242008209,806.152592420578,806.152592420578,806.152592420578,806.152592420578,806.152592420578,806.152592420578,806.152592420578,807.1034486293793,2,1.0838189125061035,None,,,,,,,,,,,,,,,,,,168,4,2025-02-28_14h27.45.505,comp,2024.2.4,54.10280852425098,2025-02-28 14h27.55.713123 -0500,
120,120,0,critical,dwh,35.0,4.0,lower,70.0,70.0,57.0,133.0,133.0,57.0,1,1.1756527423858643,None,,,,,0,0,0,0,0,120,120,64,807.120688199997,,,,,,,,,,,,,,,,,,,,,,,,,,,,,,,,,,,,,,,,,,,,,,,,,,,,,,,,,,,,,,,,,,,,,,,,,,,,,,,,,70.0,70.0,57.0,133.0,133.0,57.0,4.0,4.1,-198,-254,0,-4,191,-258,807.1050112247467,807.1050930023193,807.1079998016357,807.120688199997,807.2610371112823,807.2610371112823,807.2610371112823,807.2610371112823,807.2610371112823,807.2610371112823,807.2610371112823,808.3010277748108,1,1.1756527423858643,None,,,,,,,,,,,,,,,,,,168,4,2025-02-28_14h27.45.505,comp,2024.2.4,54.10280852425098,2025-02-28 14h27.55.713123 -0500,
121,121,0,filler_random,None,None,None,None,None,None,None,None,None,None,1,0.9547069072723389,None,,,,,0,0,0,0,0,121,121,154,808.3168354034424,,,,,,,,,,,,,,,,,,,,,,,,,,,,,,,,,,,,,,,,,,,,,,,,,,,,,,,,,,,,,,,,,,,,,,,,,,,,,,,,,167.9498196936542,178.31022089980783,140.74345251641546,136.9943641164781,105.79301274729974,137.84041109323545,2.1,2.12,-254,-281,0,-251,233,254,808.3027410507202,808.3028173446655,808.3060159683228,808.3168354034424,808.4741168022156,808.4741168022156,808.4741168022156,808.4741168022156,808.4741168022156,808.4741168022156,808.4741168022156,809.285614490509,1,0.9547069072723389,None,,,,,,,,,,,,,,,,,,168,4,2025-02-28_14h27.45.505,comp,2024.2.4,54.10280852425098,2025-02-28 14h27.55.713123 -0500,
122,122,0,critical,dwh,20.0,4.0,upper,141.0,141.0,125.0,200.0,200.0,125.0,1,1.5861353874206543,None,,,,,0,0,0,0,0,122,122,71,809.3015232086182,,,,,,,,,,,,,,,,,,,,,,,,,,,,,,,,,,,,,,,,,,,,,,,,,,,,,,,,,,,,,,,,,,,,,,,,,,,,,,,,,141.0,141.0,125.0,200.0,200.0,125.0,4.0,4.2,-266,1,0,-282,258,-11,809.2871434688568,809.2872214317322,809.291225194931,809.3015232086182,809.449383020401,809.449383020401,809.449383020401,809.449383020401,809.449383020401,809.449383020401,809.449383020401,810.9047729969025,1,1.5861353874206543,None,,,,,,,,,,,,,,,,,,168,4,2025-02-28_14h27.45.505,comp,2024.2.4,54.10280852425098,2025-02-28 14h27.55.713123 -0500,
123,123,0,critical,whd,20.0,2.1,upper,125.0,200.0,200.0,125.0,141.0,141.0,3,1.9599761962890625,None,,,,,0,0,0,0,0,123,123,39,810.9201416969299,,,,,,,,,,,,,,,,,,,,,,,,,,,,,,,,,,,,,,,,,,,,,,,,,,,,,,,,,,,,,,,,,,,,,,,,,,,,,,,,,125.0,200.0,200.0,125.0,141.0,141.0,2.1,2.12,-258,-288,0,-277,229,257,810.9063632488251,810.9064440727234,810.9097864627838,810.9201416969299,811.0698971748352,811.0698971748352,811.0698971748352,811.0698971748352,811.0698971748352,811.0698971748352,811.0698971748352,812.8884975910187,3,1.9599761962890625,None,,,,,,,,,,,,,,,,,,168,4,2025-02-28_14h27.45.505,comp,2024.2.4,54.10280852425098,2025-02-28 14h27.55.713123 -0500,
124,124,0,critical,wdh,20.0,3.0,lower,57.0,133.0,78.0,78.0,133.0,57.0,2,1.0912387371063232,None,,,,,0,0,0,0,0,124,124,80,812.9089844226837,,,,,,,,,,,,,,,,,,,,,,,,,,,,,,,,,,,,,,,,,,,,,,,,,,,,,,,,,,,,,,,,,,,,,,,,,,,,,,,,,57.0,133.0,78.0,78.0,133.0,57.0,3.0,3.2,-202,-269,0,-13,164,290,812.890038728714,812.8901400566101,812.8933310508728,812.9089844226837,813.0540914535522,813.0540914535522,813.0540914535522,813.0540914535522,813.0540914535522,813.0540914535522,813.0540914535522,814.0058755874634,2,1.0912387371063232,None,,,,,,,,,,,,,,,,,,168,4,2025-02-28_14h27.45.505,comp,2024.2.4,54.10280852425098,2025-02-28 14h27.55.713123 -0500,
125,125,0,critical,dwh,20.0,4.0,lower,78.0,78.0,57.0,133.0,133.0,57.0,1,0.8897631168365479,None,,,,,0,0,0,0,0,125,125,70,814.0218646526337,,,,,,,,,,,,,,,,,,,,,,,,,,,,,,,,,,,,,,,,,,,,,,,,,,,,,,,,,,,,,,,,,,,,,,,,,,,,,,,,,78.0,78.0,57.0,133.0,133.0,57.0,4.0,4.1,-202,-287,0,4,191,-252,814.0075843334198,814.0077469348907,814.0112113952637,814.0218646526337,814.1609919071198,814.1609919071198,814.1609919071198,814.1609919071198,814.1609919071198,814.1609919071198,814.1609919071198,814.914642572403,1,0.8897631168365479,None,,,,,,,,,,,,,,,,,,168,4,2025-02-28_14h27.45.505,comp,2024.2.4,54.10280852425098,2025-02-28 14h27.55.713123 -0500,
126,126,0,critical,wdh,35.0,4.0,lower,57.0,133.0,70.0,70.0,133.0,57.0,2,1.798384189605713,None,,,,,0,0,0,0,0,126,126,76,814.9300620555878,,,,,,,,,,,,,,,,,,,,,,,,,,,,,,,,,,,,,,,,,,,,,,,,,,,,,,,,,,,,,,,,,,,,,,,,,,,,,,,,,57.0,133.0,70.0,70.0,133.0,57.0,4.0,4.2,-198,8,0,-276,160,-7,814.9161510467529,814.9162271022797,814.9191584587097,814.9300620555878,815.0710997581482,815.0710997581482,815.0710997581482,815.0710997581482,815.0710997581482,815.0710997581482,815.0710997581482,816.73597240448,2,1.798384189605713,None,,,,,,,,,,,,,,,,,,168,4,2025-02-28_14h27.45.505,comp,2024.2.4,54.10280852425098,2025-02-28 14h27.55.713123 -0500,
127,127,0,critical,wdh,20.0,4.0,upper,125.0,200.0,141.0,141.0,200.0,125.0,1,1.6549723148345947,None,,,,,0,0,0,0,0,127,127,83,816.7524094581604,,,,,,,,,,,,,,,,,,,,,,,,,,,,,,,,,,,,,,,,,,,,,,,,,,,,,,,,,,,,,,,,,,,,,,,,,,,,,,,,,125.0,200.0,141.0,141.0,200.0,125.0,4.0,4.2,-266,19,0,-257,229,-5,816.7374877929688,816.7375648021698,816.7404487133026,816.7524094581604,816.9061706066132,816.9061706066132,816.9061706066132,816.9061706066132,816.9061706066132,816.9061706066132,816.9061706066132,818.4211754798889,1,1.6549723148345947,None,,,,,,,,,,,,,,,,,,168,4,2025-02-28_14h27.45.505,comp,2024.2.4,54.10280852425098,2025-02-28 14h27.55.713123 -0500,
128,128,0,critical,hdw,35.0,2.1,upper,200.0,125.0,127.0,127.0,125.0,200.0,3,3.0913193225860596,None,,,,,0,0,0,0,0,128,128,21,818.4363250732422,,,,,,,,,,,,,,,,,,,,,,,,,,,,,,,,,,,,,,,,,,,,,,,,,,,,,,,,,,,,,,,,,,,,,,,,,,,,,,,,,200.0,125.0,127.0,127.0,125.0,200.0,2.1,2.12,-222,-272,0,-265,260,270,818.4227430820465,818.4228210449219,818.4259021282196,818.4363250732422,818.5913093090057,818.5913093090057,818.5913093090057,818.5913093090057,818.5913093090057,818.5913093090057,818.5913093090057,821.5382301807404,3,3.0913193225860596,None,,,,,,,,,,,,,,,,,,168,4,2025-02-28_14h27.45.505,comp,2024.2.4,54.10280852425098,2025-02-28 14h27.55.713123 -0500,
129,129,0,critical,dhw,20.0,2.1,lower,78.0,78.0,133.0,57.0,57.0,133.0,1,0.9247066974639893,None,,,,,0,0,0,0,0,129,129,2,821.5554738044739,,,,,,,,,,,,,,,,,,,,,,,,,,,,,,,,,,,,,,,,,,,,,,,,,,,,,,,,,,,,,,,,,,,,,,,,,,,,,,,,,78.0,78.0,133.0,57.0,57.0,133.0,2.1,2.12,-164,-286,0,-287,191,276,821.5398762226105,821.5399799346924,821.5433397293091,821.5554738044739,821.7066009044647,821.7066009044647,821.7066009044647,821.7066009044647,821.7066009044647,821.7066009044647,821.7066009044647,822.4900612831116,1,0.9247066974639893,None,,,,,,,,,,,,,,,,,,168,4,2025-02-28_14h27.45.505,comp,2024.2.4,54.10280852425098,2025-02-28 14h27.55.713123 -0500,
130,130,0,critical,hdw,20.0,2.1,upper,200.0,125.0,141.0,141.0,125.0,200.0,1,1.9100885391235352,None,,,,,0,0,0,0,0,130,130,47,822.5059428215027,,,,,,,,,,,,,,,,,,,,,,,,,,,,,,,,,,,,,,,,,,,,,,,,,,,,,,,,,,,,,,,,,,,,,,,,,,,,,,,,,200.0,125.0,141.0,141.0,125.0,200.0,2.1,2.12,-229,-264,0,-269,266,284,822.4916400909424,822.4917738437653,822.495254278183,822.5059428215027,822.6560144424438,822.6560144424438,822.6560144424438,822.6560144424438,822.6560144424438,822.6560144424438,822.6560144424438,824.4247996807098,1,1.9100885391235352,None,,,,,,,,,,,,,,,,,,168,4,2025-02-28_14h27.45.505,comp,2024.2.4,54.10280852425098,2025-02-28 14h27.55.713123 -0500,
131,131,0,filler_random,None,None,None,None,None,None,None,None,None,None,3,4.031185865402222,None,,,,,0,0,0,0,0,131,131,134,824.4412620067596,,,,,,,,,,,,,,,,,,,,,,,,,,,,,,,,,,,,,,,,,,,,,,,,,,,,,,,,,,,,,,,,,,,,,,,,,,,,,,,,,111.16014097038392,128.34697308377008,181.7635856139514,144.55649483739984,135.62804264687185,195.72410220277632,2.1,2.12,-232,-289,0,-257,266,275,824.4267761707306,824.4268581867218,824.4303090572357,824.4412620067596,824.5951247215271,824.5951247215271,824.5951247215271,824.5951247215271,824.5951247215271,824.5951247215271,824.5951247215271,828.4792547225952,3,4.031185865402222,None,,,,,,,,,,,,,,,,,,168,4,2025-02-28_14h27.45.505,comp,2024.2.4,54.10280852425098,2025-02-28 14h27.55.713123 -0500,
132,132,0,filler_square,None,None,None,None,None,None,None,None,None,None,3,1.0004570484161377,None,,,,,0,0,0,0,0,132,132,195,828.4961240291595,,,,,,,,,,,,,,,,,,,,,,,,,,,,,,,,,,,,,,,,,,,,,,,,,,,,,,,,,,,,,,,,,,,,,,,,,,,,,,,,,60.64658595082616,102.77476135143894,105.64765255441748,110.22347401824582,180.15459680154916,180.15459680154916,1.0,1.2,-202,-10,0,0,241,13,828.4810955524445,828.4811766147614,828.4850995540619,828.4961240291595,828.6419296264648,828.6419296264648,828.6419296264648,828.6419296264648,828.6419296264648,828.6419296264648,828.6419296264648,829.5009877681732,3,1.0004570484161377,None,,,,,,,,,,,,,,,,,,168,4,2025-02-28_14h27.45.505,comp,2024.2.4,54.10280852425098,2025-02-28 14h27.55.713123 -0500,
133,133,0,filler_square,None,None,None,None,None,None,None,None,None,None,1,0.98641037940979,None,,,,,0,0,0,0,0,133,133,208,829.5170152187347,,,,,,,,,,,,,,,,,,,,,,,,,,,,,,,,,,,,,,,,,,,,,,,,,,,,,,,,,,,,,,,,,,,,,,,,,,,,,,,,,196.96729889821898,196.96729889821898,111.85101800592727,108.95775767950406,148.4841916763464,157.27873613252987,2.2,2.21,-249,-258,0,284,229,254,829.5027778148651,829.5028872489929,829.5061569213867,829.5170152187347,829.6574397087097,829.6574397087097,829.6574397087097,829.6574397087097,829.6574397087097,829.6574397087097,829.6574397087097,830.5156197547913,1,0.98641037940979,None,,,,,,,,,,,,,,,,,,168,4,2025-02-28_14h27.45.505,comp,2024.2.4,54.10280852425098,2025-02-28 14h27.55.713123 -0500,
134,134,0,filler_square,None,None,None,None,None,None,None,None,None,None,3,1.2441504001617432,None,,,,,0,0,0,0,0,134,134,179,830.5312979221344,,,,,,,,,,,,,,,,,,,,,,,,,,,,,,,,,,,,,,,,,,,,,,,,,,,,,,,,,,,,,,,,,,,,,,,,,,,,,,,,,92.67265281082126,109.95505007256486,73.33185380258232,73.0535383406214,139.62737976563665,139.62737976563665,4.0,4.2,-188,-8,0,-287,202,-5,830.5173830986023,830.5174634456635,830.5205018520355,830.5312979221344,830.6750869750977,830.6750869750977,830.6750869750977,830.6750869750977,830.6750869750977,830.6750869750977,830.6750869750977,831.7777593135834,3,1.2441504001617432,None,,,,,,,,,,,,,,,,,,168,4,2025-02-28_14h27.45.505,comp,2024.2.4,54.10280852425098,2025-02-28 14h27.55.713123 -0500,
135,135,0,critical,hdw,35.0,1.0,upper,200.0,125.0,127.0,127.0,125.0,200.0,1,8.229468584060669,None,,,,,0,0,0,0,0,135,135,109,831.7939925193787,,,,,,,,,,,,,,,,,,,,,,,,,,,,,,,,,,,,,,,,,,,,,,,,,,,,,,,,,,,,,,,,,,,,,,,,,,,,,,,,,200.0,125.0,127.0,127.0,125.0,200.0,1.0,1.1,-702,281,-480,265,-220,277,831.7793304920197,831.779465675354,831.782961845398,831.7939925193787,831.9427177906036,831.9427177906036,831.9427177906036,831.9427177906036,831.9427177906036,831.9427177906036,831.9427177906036,840.0289335250854,1,8.229468584060669,None,,,,,,,,,,,,,,,,,,168,4,2025-02-28_14h27.45.505,comp,2024.2.4,54.10280852425098,2025-02-28 14h27.55.713123 -0500,
136,136,0,filler_random,None,None,None,None,None,None,None,None,None,None,1,1.272432804107666,None,,,,,0,0,0,0,0,136,136,146,840.0557324886322,,,,,,,,,,,,,,,,,,,,,,,,,,,,,,,,,,,,,,,,,,,,,,,,,,,,,,,,,,,,,,,,,,,,,,,,,,,,,,,,,138.2715050096321,180.10850149831117,134.00878567144218,71.90072075732405,118.95726168690085,161.7851722932553,3.0,3.1,-222,259,0,-15,213,-285,840.0306267738342,840.0307447910309,840.0339579582214,840.0557324886322,840.1967403888702,840.1967403888702,840.1967403888702,840.1967403888702,840.1967403888702,840.1967403888702,840.1967403888702,841.3314819335938,1,1.272432804107666,None,,,,,,,,,,,,,,,,,,168,4,2025-02-28_14h27.45.505,comp,2024.2.4,54.10280852425098,2025-02-28 14h27.55.713123 -0500,
137,137,0,filler_square,None,None,None,None,None,None,None,None,None,None,3,1.8344874382019043,None,,,,,0,0,0,0,0,137,137,184,841.3489499092102,,,,,,,,,,,,,,,,,,,,,,,,,,,,,,,,,,,,,,,,,,,,,,,,,,,,,,,,,,,,,,,,,,,,,,,,,,,,,,,,,84.39206673695513,67.68707416152063,74.52903256527102,74.0218481792741,84.50232783245262,84.50232783245262,2.2,2.21,-167,-283,0,284,175,252,841.3335292339325,841.3336081504822,841.3375606536865,841.3489499092102,841.4971652030945,841.4971652030945,841.4971652030945,841.4971652030945,841.4971652030945,841.4971652030945,841.4971652030945,843.1980736255646,3,1.8344874382019043,None,,,,,,,,,,,,,,,,,,168,4,2025-02-28_14h27.45.505,comp,2024.2.4,54.10280852425098,2025-02-28 14h27.55.713123 -0500,
138,138,0,critical,dhw,35.0,2.1,upper,127.0,127.0,200.0,125.0,125.0,200.0,2,2.9687910079956055,None,,,,,0,0,0,0,0,138,138,1,843.2147300243378,,,,,,,,,,,,,,,,,,,,,,,,,,,,,,,,,,,,,,,,,,,,,,,,,,,,,,,,,,,,,,,,,,,,,,,,,,,,,,,,,127.0,127.0,200.0,125.0,125.0,200.0,2.1,2.12,-222,-262,0,-283,258,276,843.1997561454773,843.1998355388641,843.2035248279572,843.2147300243378,843.3622140884399,843.3622140884399,843.3622140884399,843.3622140884399,843.3622140884399,843.3622140884399,843.3622140884399,846.1991641521454,2,2.9687910079956055,None,,,,,,,,,,,,,,,,,,168,4,2025-02-28_14h27.45.505,comp,2024.2.4,54.10280852425098,2025-02-28 14h27.55.713123 -0500,
139,139,0,filler_square,None,None,None,None,None,None,None,None,None,None,3,2.1685314178466797,None,,,,,0,0,0,0,0,139,139,197,846.2153930664062,,,,,,,,,,,,,,,,,,,,,,,,,,,,,,,,,,,,,,,,,,,,,,,,,,,,,,,,,,,,,,,,,,,,,,,,,,,,,,,,,57.056336348590406,65.92576635332728,66.42629228730172,60.17255139536893,71.91707654993468,71.91707654993468,3.0,3.2,-159,-284,0,-7,162,275,846.2011830806732,846.2012639045715,846.2051138877869,846.2153930664062,846.363689661026,846.363689661026,846.363689661026,846.363689661026,846.363689661026,846.363689661026,846.363689661026,848.3860957622528,3,2.1685314178466797,None,,,,,,,,,,,,,,,,,,168,4,2025-02-28_14h27.45.505,comp,2024.2.4,54.10280852425098,2025-02-28 14h27.55.713123 -0500,
140,140,0,filler_random,None,None,None,None,None,None,None,None,None,None,3,1.247197151184082,None,,,,,0,0,0,0,0,140,140,150,848.4015095233917,,,,,,,,,,,,,,,,,,,,,,,,,,,,,,,,,,,,,,,,,,,,,,,,,,,,,,,,,,,,,,,,,,,,,,,,,,,,,,,,,110.23662330128226,61.33463723241708,138.90064222752363,57.14476858777461,186.91693469627904,152.11410267243718,2.2,2.22,-155,267,0,-283,201,-251,848.387823343277,848.3879005908966,848.3907916545868,848.4015095233917,848.5473170280457,848.5473170280457,848.5473170280457,848.5473170280457,848.5473170280457,848.5473170280457,848.5473170280457,849.6529068946838,3,1.247197151184082,None,,,,,,,,,,,,,,,,,,168,4,2025-02-28_14h27.45.505,comp,2024.2.4,54.10280852425098,2025-02-28 14h27.55.713123 -0500,
