thisN,thisTrialN,thisRepN,effect,order,distance,config,diag,h_1,w_1,h_2,w_2,h_3,w_3,rect_choice.keys,rect_choice.rt,rect_choice.duration,instructions_loop.thisRepN,instructions_loop.thisTrialN,instructions_loop.thisN,instructions_loop.thisIndex,blocks.thisRepN,blocks.thisTrialN,blocks.thisN,blocks.thisIndex,trials.thisRepN,trials.thisTrialN,trials.thisN,trials.thisIndex,thisRow.t,notes,consent.started,agree_button.started,decline_button.started,consent_img.started,mouse.started,consent.stopped,agree_button.numClicks,agree_button.timesOn,agree_button.timesOff,decline_button.numClicks,decline_button.timesOn,decline_button.timesOff,mouse.x,mouse.y,mouse.leftButton,mouse.midButton,mouse.rightButton,mouse.time,mouse.clicked_name,exp_params.started,exp_params.stopped,welcome.started,welcome_text.started,welcome.stopped,instructions_1.started,instructions_1_text_1.started,instructions_1_text_2.started,key_resp.started,instructions_1.stopped,instructions_loop.key_resp.keys,instructions_loop.key_resp.rt,instructions_loop.key_resp.duration,instructions_2.started,instructions_2_text_1.started,instructions_2_text_2.started,key_resp_2.started,instructions_2.stopped,instructions_loop.key_resp_2.keys,instructions_loop.key_resp_2.rt,instructions_loop.key_resp_2.duration,instructions_3.started,instructions_3_text_1.started,r1_instr3.started,r2_instr3.started,r3_instr3.started,r1_instr3_label.started,r2_instr3_label.started,r3_instr3_label.started,instructions_3_text_3.started,instructions_3_text_4.started,key_resp_3.started,instructions_3.stopped,instructions_loop.key_resp_3.keys,instructions_loop.key_resp_3.rt,instructions_loop.key_resp_3.duration,instructions_4.started,instructions_4_text_1.started,instructions_4_text_3.started,instructions_4_text_2.started,key_resp_4.started,instructions_4.stopped,instructions_loop.key_resp_4.keys,instructions_loop.key_resp_4.rt,instructions_loop.key_resp_4.duration,instructions_5.started,instructions_5_text_1.started,instructions_5_text_2.started,key_resp_5.started,instructions_5.stopped,instructions_loop.key_resp_5.keys,instructions_loop.key_resp_5.rt,instructions_loop.key_resp_5.duration,start_exp.started,start_exp_text.started,key_resp_6.started,start_exp.stopped,key_resp_6.keys,key_resp_6.rt,key_resp_6.duration,h_1_tmp,w_1_tmp,h_2_tmp,w_2_tmp,h_3_tmp,w_3_tmp,config_tmp,config_tmp_1,r_1_x,r_1_y,r_2_x,r_2_y,r_3_x,r_3_y,pre_trial.started,pre_trial.stopped,choice_trial.started,rect_choice.started,r_1.started,r_2.started,r_3.started,r_1_label.started,r_2_label.started,r_3_label.started,prompt.started,choice_trial.stopped,trials.rect_choice.keys,trials.rect_choice.rt,trials.rect_choice.duration,end_block.started,end_block_text.started,end_block.stopped,end.started,end_text.started,key_resp_7.started,end.stopped,key_resp_7.keys,key_resp_7.rt,key_resp_7.duration,debriefing.started,debrief_form.started,end_debrief.started,debriefing.stopped,end_debrief.keys,end_debrief.rt,end_debrief.duration,participant,computer,date,expName,psychopyVersion,frameRate,expStart,
,,,,,,,,,,,,,,,,,,,,,,,,,,,,,,,0.015348434448242188,0.03608989715576172,0.03608989715576172,0.03608989715576172,0.015149831771850586,26.25842785835266,1,[26.21961736679077],[26.2196524143219],0,,,[-70.0],[-489.0],[1],[0],[0],[26.24244999885559],['agree_button'],,,,,,,,,,,,,,,,,,,,,,,,,,,,,,,,,,,,,,,,,,,,,,,,,,,,,,,,,,,,,,,,,,,,,,,,,,,,,,,,,,,,,,,,,,,,,,,,,,,,,,,,,,,169,,2025-03-03_11h01.44.830,comp,2024.2.4,57.318576076900264,2025-03-03 11h02.01.970749 -0500,
,,,,,,,,,,,,,,,,,,,,,,,,,,,,,,,,,,,,,,,,,,,,,,,,,,26.258978843688965,26.25904679298401,,,,,,,,,,,,,,,,,,,,,,,,,,,,,,,,,,,,,,,,,,,,,,,,,,,,,,,,,,,,,,,,,,,,,,,,,,,,,,,,,,,,,,,,,,,,,,,,,,,,,,,,,169,,2025-03-03_11h01.44.830,comp,2024.2.4,57.318576076900264,2025-03-03 11h02.01.970749 -0500,
,,,,,,,,,,,,,,,,,,,,,,,,,,,,,,,,,,,,,,,,,,,,,,,,,,,,26.2590913772583,26.27444577217102,28.259831428527832,,,,,,,,,,,,,,,,,,,,,,,,,,,,,,,,,,,,,,,,,,,,,,,,,,,,,,,,,,,,,,,,,,,,,,,,,,,,,,,,,,,,,,,,,,,,,,,,,,,,,,169,,2025-03-03_11h01.44.830,comp,2024.2.4,57.318576076900264,2025-03-03 11h02.01.970749 -0500,
0,0,0,,,,,,,,,,,,,,,0,0,0,0,,,,,,,,,28.27744221687317,,,,,,,,,,,,,,,,,,,,,,,,,,28.260730266571045,28.27744221687317,28.27744221687317,29.76189136505127,34.83584380149841,space,5.054162263870239,None,34.836021900177,34.85404682159424,34.85404682159424,36.345173597335815,55.20488500595093,space,18.855255842208862,None,55.20503902435303,55.23600959777832,55.23600959777832,55.23600959777832,55.23600959777832,55.23600959777832,55.23600959777832,55.23600959777832,55.23600959777832,55.23600959777832,56.71689510345459,60.40515375137329,space,3.683321475982666,None,60.40530872344971,60.42757201194763,60.42757201194763,60.42757201194763,61.90595507621765,71.67705702781677,space,9.760419368743896,None,71.67721509933472,71.69270133972168,71.69270133972168,73.1927011013031,74.76168417930603,space,1.559528112411499,None,74.76191806793213,74.77666664123535,74.77666664123535,76.09454107284546,space,1.3037984371185303,None,,,,,,,,,,,,,,,,,,,,,,,,,,,,,,,,,,,,,,,,,,,,,,,169,,2025-03-03_11h01.44.830,comp,2024.2.4,57.318576076900264,2025-03-03 11h02.01.970749 -0500,
0,0,0,filler_square,None,None,None,None,None,None,None,None,None,None,3,1.8042805194854736,None,,,,,0,0,0,0,0,0,0,192,76.17251181602478,,,,,,,,,,,,,,,,,,,,,,,,,,,,,,,,,,,,,,,,,,,,,,,,,,,,,,,,,,,,,,,,,,,,,,,,,,,,,,,,,178.60007698993638,69.16671559084261,153.17661720963503,77.18450131557664,197.64481812678238,197.64481812678238,2.2,2.21,-169,-258,0,288,233,263,76.15567922592163,76.15572381019592,76.15763545036316,76.17251181602478,76.31654095649719,76.31654095649719,76.31654095649719,76.31654095649719,76.31654095649719,76.31654095649719,76.31654095649719,77.994619846344,3,1.8042805194854736,None,,,,,,,,,,,,,,,,,,169,,2025-03-03_11h01.44.830,comp,2024.2.4,57.318576076900264,2025-03-03 11h02.01.970749 -0500,
1,1,0,critical,hdw,35.0,2.1,upper,200.0,125.0,127.0,127.0,125.0,200.0,1,2.1425840854644775,None,,,,,0,0,0,0,0,1,1,45,78.01085877418518,,,,,,,,,,,,,,,,,,,,,,,,,,,,,,,,,,,,,,,,,,,,,,,,,,,,,,,,,,,,,,,,,,,,,,,,,,,,,,,,,200.0,125.0,127.0,127.0,125.0,200.0,2.1,2.11,-222,279,0,257,260,-270,77.99620318412781,77.99626994132996,77.99959397315979,78.01085877418518,78.16592860221863,78.16592860221863,78.16592860221863,78.16592860221863,78.16592860221863,78.16592860221863,78.16592860221863,80.16319179534912,1,2.1425840854644775,None,,,,,,,,,,,,,,,,,,169,,2025-03-03_11h01.44.830,comp,2024.2.4,57.318576076900264,2025-03-03 11h02.01.970749 -0500,
2,2,0,critical,hdw,20.0,2.1,upper,200.0,125.0,141.0,141.0,125.0,200.0,1,3.347775459289551,None,,,,,0,0,0,0,0,2,2,47,80.18051552772522,,,,,,,,,,,,,,,,,,,,,,,,,,,,,,,,,,,,,,,,,,,,,,,,,,,,,,,,,,,,,,,,,,,,,,,,,,,,,,,,,200.0,125.0,141.0,141.0,125.0,200.0,2.1,2.12,-229,-282,0,-264,266,265,80.16491866111755,80.16505861282349,80.16896867752075,80.18051552772522,80.33163356781006,80.33163356781006,80.33163356781006,80.33163356781006,80.33163356781006,80.33163356781006,80.33163356781006,83.53985261917114,1,3.347775459289551,None,,,,,,,,,,,,,,,,,,169,,2025-03-03_11h01.44.830,comp,2024.2.4,57.318576076900264,2025-03-03 11h02.01.970749 -0500,
3,3,0,filler_random,None,None,None,None,None,None,None,None,None,None,1,2.2582194805145264,None,,,,,0,0,0,0,0,3,3,140,83.55794930458069,,,,,,,,,,,,,,,,,,,,,,,,,,,,,,,,,,,,,,,,,,,,,,,,,,,,,,,,,,,,,,,,,,,,,,,,,,,,,,,,,171.16851065803036,146.04838222937838,156.6875424425976,60.62020743400692,74.21423182521063,189.8573728319916,2.2,2.22,-199,251,0,-279,221,-255,83.54157280921936,83.5416510105133,83.5448203086853,83.55794930458069,83.6947124004364,83.6947124004364,83.6947124004364,83.6947124004364,83.6947124004364,83.6947124004364,83.6947124004364,85.83024597167969,1,2.2582194805145264,None,,,,,,,,,,,,,,,,,,169,,2025-03-03_11h01.44.830,comp,2024.2.4,57.318576076900264,2025-03-03 11h02.01.970749 -0500,
4,4,0,filler_random,None,None,None,None,None,None,None,None,None,None,1,1.1214473247528076,None,,,,,0,0,0,0,0,4,4,150,85.84707164764404,,,,,,,,,,,,,,,,,,,,,,,,,,,,,,,,,,,,,,,,,,,,,,,,,,,,,,,,,,,,,,,,,,,,,,,,,,,,,,,,,139.34629442523624,171.7671447990186,71.89876359099446,174.78556494508828,126.84645984412109,109.5024090595381,2.1,2.11,-269,275,0,280,238,-252,85.83206343650818,85.83218240737915,85.83580470085144,85.84707164764404,86.00056433677673,86.00056433677673,86.00056433677673,86.00056433677673,86.00056433677673,86.00056433677673,86.00056433677673,86.98699712753296,1,1.1214473247528076,None,,,,,,,,,,,,,,,,,,169,,2025-03-03_11h01.44.830,comp,2024.2.4,57.318576076900264,2025-03-03 11h02.01.970749 -0500,
5,5,0,critical,whd,20.0,1.0,lower,57.0,133.0,133.0,57.0,78.0,78.0,1,10.436047315597534,None,,,,,0,0,0,0,0,5,5,90,87.00417256355286,,,,,,,,,,,,,,,,,,,,,,,,,,,,,,,,,,,,,,,,,,,,,,,,,,,,,,,,,,,,,,,,,,,,,,,,,,,,,,,,,57.0,133.0,133.0,57.0,78.0,78.0,1.0,1.1,-671,268,-480,258,-316,257,86.9884843826294,86.98856163024902,86.9916296005249,87.00417256355286,87.14967584609985,87.14967584609985,87.14967584609985,87.14967584609985,87.14967584609985,87.14967584609985,87.14967584609985,97.44988298416138,1,10.436047315597534,None,,,,,,,,,,,,,,,,,,169,,2025-03-03_11h01.44.830,comp,2024.2.4,57.318576076900264,2025-03-03 11h02.01.970749 -0500,
6,6,0,critical,hdw,35.0,2.1,upper,200.0,125.0,127.0,127.0,125.0,200.0,3,2.245861291885376,None,,,,,0,0,0,0,0,6,6,21,97.46652126312256,,,,,,,,,,,,,,,,,,,,,,,,,,,,,,,,,,,,,,,,,,,,,,,,,,,,,,,,,,,,,,,,,,,,,,,,,,,,,,,,,200.0,125.0,127.0,127.0,125.0,200.0,2.1,2.11,-222,288,0,260,260,-280,97.45141291618347,97.4514901638031,97.45470762252808,97.46652126312256,97.62075209617615,97.62075209617615,97.62075209617615,97.62075209617615,97.62075209617615,97.62075209617615,97.62075209617615,99.71447348594666,3,2.245861291885376,None,,,,,,,,,,,,,,,,,,169,,2025-03-03_11h01.44.830,comp,2024.2.4,57.318576076900264,2025-03-03 11h02.01.970749 -0500,
7,7,0,filler_square,None,None,None,None,None,None,None,None,None,None,3,0.9945461750030518,None,,,,,0,0,0,0,0,7,7,206,99.73365378379822,,,,,,,,,,,,,,,,,,,,,,,,,,,,,,,,,,,,,,,,,,,,,,,,,,,,,,,,,,,,,,,,,,,,,,,,,,,,,,,,,68.42912333430577,167.8445480901596,63.06005672966181,161.41868389134254,177.91818715477177,177.91818715477177,2.2,2.22,-261,286,0,-258,266,-252,99.71630930900574,99.71638894081116,99.71951174736023,99.73365378379822,99.87464427947998,99.87464427947998,99.87464427947998,99.87464427947998,99.87464427947998,99.87464427947998,99.87464427947998,100.7382082939148,3,0.9945461750030518,None,,,,,,,,,,,,,,,,,,169,,2025-03-03_11h01.44.830,comp,2024.2.4,57.318576076900264,2025-03-03 11h02.01.970749 -0500,
8,8,0,filler_square,None,None,None,None,None,None,None,None,None,None,2,1.461362361907959,None,,,,,0,0,0,0,0,8,8,177,100.75488424301147,,,,,,,,,,,,,,,,,,,,,,,,,,,,,,,,,,,,,,,,,,,,,,,,,,,,,,,,,,,,,,,,,,,,,,,,,,,,,,,,,73.21943100577434,94.97850405566356,114.67133911915496,114.67133911915496,98.55342715183122,94.64852022638703,2.2,2.22,-201,255,0,-252,201,-287,100.74018859863281,100.74027228355408,100.74429678916931,100.75488424301147,100.90295577049255,100.90295577049255,100.90295577049255,100.90295577049255,100.90295577049255,100.90295577049255,100.90295577049255,102.21989488601685,2,1.461362361907959,None,,,,,,,,,,,,,,,,,,169,,2025-03-03_11h01.44.830,comp,2024.2.4,57.318576076900264,2025-03-03 11h02.01.970749 -0500,
9,9,0,critical,hwd,20.0,1.0,lower,133.0,57.0,57.0,133.0,78.0,78.0,2,3.65220308303833,None,,,,,0,0,0,0,0,9,9,102,102.23681139945984,,,,,,,,,,,,,,,,,,,,,,,,,,,,,,,,,,,,,,,,,,,,,,,,,,,,,,,,,,,,,,,,,,,,,,,,,,,,,,,,,133.0,57.0,57.0,133.0,78.0,78.0,1.0,1.2,-191,18,0,-12,202,17,102.22149515151978,102.22157549858093,102.22583651542664,102.23681139945984,102.38508892059326,102.38508892059326,102.38508892059326,102.38508892059326,102.38508892059326,102.38508892059326,102.38508892059326,105.89531350135803,2,3.65220308303833,None,,,,,,,,,,,,,,,,,,169,,2025-03-03_11h01.44.830,comp,2024.2.4,57.318576076900264,2025-03-03 11h02.01.970749 -0500,
10,10,0,critical,dwh,35.0,4.0,upper,127.0,127.0,125.0,200.0,200.0,125.0,3,1.5286405086517334,None,,,,,0,0,0,0,0,10,10,65,105.9118480682373,,,,,,,,,,,,,,,,,,,,,,,,,,,,,,,,,,,,,,,,,,,,,,,,,,,,,,,,,,,,,,,,,,,,,,,,,,,,,,,,,127.0,127.0,125.0,200.0,200.0,125.0,4.0,4.1,-260,-287,0,15,258,-261,105.89691686630249,105.89699840545654,105.90022230148315,105.9118480682373,106.05390048027039,106.05390048027039,106.05390048027039,106.05390048027039,106.05390048027039,106.05390048027039,106.05390048027039,107.45408177375793,3,1.5286405086517334,None,,,,,,,,,,,,,,,,,,169,,2025-03-03_11h01.44.830,comp,2024.2.4,57.318576076900264,2025-03-03 11h02.01.970749 -0500,
11,11,0,filler_random,None,None,None,None,None,None,None,None,None,None,2,4.050245046615601,None,,,,,0,0,0,0,0,11,11,152,107.47011160850525,,,,,,,,,,,,,,,,,,,,,,,,,,,,,,,,,,,,,,,,,,,,,,,,,,,,,,,,,,,,,,,,,,,,,,,,,,,,,,,,,135.33534092535348,76.4179414494513,91.24044183608035,155.3164066584469,153.74791962405112,98.83658909877168,2.2,2.21,-212,-273,0,256,223,281,107.45601987838745,107.45609664916992,107.45968461036682,107.47011160850525,107.62146711349487,107.62146711349487,107.62146711349487,107.62146711349487,107.62146711349487,107.62146711349487,107.62146711349487,111.52364444732666,2,4.050245046615601,None,,,,,,,,,,,,,,,,,,169,,2025-03-03_11h01.44.830,comp,2024.2.4,57.318576076900264,2025-03-03 11h02.01.970749 -0500,
12,12,0,catch,None,None,None,None,None,None,None,None,None,None,3,1.0104360580444336,None,,,,,0,0,0,0,0,12,12,122,111.54210686683655,,,,,,,,,,,,,,,,,,,,,,,,,,,,,,,,,,,,,,,,,,,,,,,,,,,,,,,,,,,,,,,,,,,,,,,,,,,,,,,,,71,119,132,58,133,192,1.0,1.1,-664,282,-480,259,-259,259,111.52560710906982,111.52569031715393,111.5289216041565,111.54210686683655,111.69197058677673,111.69197058677673,111.69197058677673,111.69197058677673,111.69197058677673,111.69197058677673,111.69197058677673,112.55629515647888,3,1.0104360580444336,None,,,,,,,,,,,,,,,,,,169,,2025-03-03_11h01.44.830,comp,2024.2.4,57.318576076900264,2025-03-03 11h02.01.970749 -0500,
13,13,0,critical,dhw,20.0,4.0,lower,78.0,78.0,133.0,57.0,57.0,133.0,3,4.1326916217803955,None,,,,,0,0,0,0,0,13,13,58,112.57226133346558,,,,,,,,,,,,,,,,,,,,,,,,,,,,,,,,,,,,,,,,,,,,,,,,,,,,,,,,,,,,,,,,,,,,,,,,,,,,,,,,,78.0,78.0,133.0,57.0,57.0,133.0,4.0,4.1,-164,-268,0,-12,191,-286,112.5578031539917,112.55789113044739,112.5615005493164,112.57226133346558,112.7132933139801,112.7132933139801,112.7132933139801,112.7132933139801,112.7132933139801,112.7132933139801,112.7132933139801,116.7069742679596,3,4.1326916217803955,None,,,,,,,,,,,,,,,,,,169,,2025-03-03_11h01.44.830,comp,2024.2.4,57.318576076900264,2025-03-03 11h02.01.970749 -0500,
14,14,0,filler_square,None,None,None,None,None,None,None,None,None,None,3,1.4904305934906006,None,,,,,0,0,0,0,0,14,14,203,116.7258312702179,,,,,,,,,,,,,,,,,,,,,,,,,,,,,,,,,,,,,,,,,,,,,,,,,,,,,,,,,,,,,,,,,,,,,,,,,,,,,,,,,114.46791795018942,160.5540529661829,87.65237866439223,126.70076501145098,199.24696876109525,199.24696876109525,2.1,2.11,-240,252,0,253,259,-267,116.70877027511597,116.70888543128967,116.71224522590637,116.7258312702179,116.87607550621033,116.87607550621033,116.87607550621033,116.87607550621033,116.87607550621033,116.87607550621033,116.87607550621033,118.22810459136963,3,1.4904305934906006,None,,,,,,,,,,,,,,,,,,169,,2025-03-03_11h01.44.830,comp,2024.2.4,57.318576076900264,2025-03-03 11h02.01.970749 -0500,
15,15,0,critical,hwd,20.0,4.0,lower,133.0,57.0,57.0,133.0,78.0,78.0,1,3.722486972808838,None,,,,,0,0,0,0,0,15,15,106,118.2459409236908,,,,,,,,,,,,,,,,,,,,,,,,,,,,,,,,,,,,,,,,,,,,,,,,,,,,,,,,,,,,,,,,,,,,,,,,,,,,,,,,,133.0,57.0,57.0,133.0,78.0,78.0,4.0,4.1,-191,-288,0,-7,202,-275,118.22972512245178,118.229825258255,118.232919216156,118.2459409236908,118.39190411567688,118.39190411567688,118.39190411567688,118.39190411567688,118.39190411567688,118.39190411567688,118.39190411567688,121.97721886634827,1,3.722486972808838,None,,,,,,,,,,,,,,,,,,169,,2025-03-03_11h01.44.830,comp,2024.2.4,57.318576076900264,2025-03-03 11h02.01.970749 -0500,
16,16,0,filler_random,None,None,None,None,None,None,None,None,None,None,1,1.0935463905334473,None,,,,,0,0,0,0,0,16,16,166,121.99487900733948,,,,,,,,,,,,,,,,,,,,,,,,,,,,,,,,,,,,,,,,,,,,,,,,,,,,,,,,,,,,,,,,,,,,,,,,,,,,,,,,,123.78552345402433,147.54151511062872,170.089702239193,67.53722448060911,123.7166354452098,64.66939109525785,2.2,2.21,-204,-281,0,257,162,281,121.97910070419312,121.97923469543457,121.9833574295044,121.99487900733948,122.13080549240112,122.13080549240112,122.13080549240112,122.13080549240112,122.13080549240112,122.13080549240112,122.13080549240112,123.09997725486755,1,1.0935463905334473,None,,,,,,,,,,,,,,,,,,169,,2025-03-03_11h01.44.830,comp,2024.2.4,57.318576076900264,2025-03-03 11h02.01.970749 -0500,
17,17,0,critical,dhw,35.0,1.0,upper,127.0,127.0,200.0,125.0,125.0,200.0,2,2.225273609161377,None,,,,,0,0,0,0,0,17,17,49,123.11955451965332,,,,,,,,,,,,,,,,,,,,,,,,,,,,,,,,,,,,,,,,,,,,,,,,,,,,,,,,,,,,,,,,,,,,,,,,,,,,,,,,,127.0,127.0,200.0,125.0,125.0,200.0,1.0,1.1,-702,265,-480,266,-222,288,123.1015830039978,123.10168766975403,123.10523796081543,123.11955451965332,123.25968217849731,123.25968217849731,123.25968217849731,123.25968217849731,123.25968217849731,123.25968217849731,123.25968217849731,125.3479208946228,2,2.225273609161377,None,,,,,,,,,,,,,,,,,,169,,2025-03-03_11h01.44.830,comp,2024.2.4,57.318576076900264,2025-03-03 11h02.01.970749 -0500,
18,18,0,critical,dwh,35.0,2.1,lower,70.0,70.0,57.0,133.0,133.0,57.0,2,1.7448463439941406,None,,,,,0,0,0,0,0,18,18,28,125.36771726608276,,,,,,,,,,,,,,,,,,,,,,,,,,,,,,,,,,,,,,,,,,,,,,,,,,,,,,,,,,,,,,,,,,,,,,,,,,,,,,,,,70.0,70.0,57.0,133.0,133.0,57.0,2.1,2.11,-198,267,0,252,191,-283,125.35044455528259,125.35058450698853,125.35667061805725,125.36771726608276,125.51089286804199,125.51089286804199,125.51089286804199,125.51089286804199,125.51089286804199,125.51089286804199,125.51089286804199,127.11706900596619,2,1.7448463439941406,None,,,,,,,,,,,,,,,,,,169,,2025-03-03_11h01.44.830,comp,2024.2.4,57.318576076900264,2025-03-03 11h02.01.970749 -0500,
19,19,0,filler_square,None,None,None,None,None,None,None,None,None,None,1,1.3064446449279785,None,,,,,0,0,0,0,0,19,19,202,127.13387107849121,,,,,,,,,,,,,,,,,,,,,,,,,,,,,,,,,,,,,,,,,,,,,,,,,,,,,,,,,,,,,,,,,,,,,,,,,,,,,,,,,175.7070359616667,175.7070359616667,124.49349103554903,66.89486887460681,136.45267664588027,154.10146716337476,1.0,1.1,-697,278,-480,287,-274,260,127.1189534664154,127.11903309822083,127.12217211723328,127.13387107849121,127.2775411605835,127.2775411605835,127.2775411605835,127.2775411605835,127.2775411605835,127.2775411605835,127.2775411605835,128.4544882774353,1,1.3064446449279785,None,,,,,,,,,,,,,,,,,,169,,2025-03-03_11h01.44.830,comp,2024.2.4,57.318576076900264,2025-03-03 11h02.01.970749 -0500,
20,20,0,critical,wdh,35.0,2.1,upper,125.0,200.0,127.0,127.0,200.0,125.0,1,2.3306050300598145,None,,,,,0,0,0,0,0,20,20,33,128.46974110603333,,,,,,,,,,,,,,,,,,,,,,,,,,,,,,,,,,,,,,,,,,,,,,,,,,,,,,,,,,,,,,,,,,,,,,,,,,,,,,,,,125.0,200.0,127.0,127.0,200.0,125.0,2.1,2.11,-260,257,0,284,222,-273,128.4560902118683,128.45616793632507,128.459331035614,128.46974110603333,128.61028027534485,128.61028027534485,128.61028027534485,128.61028027534485,128.61028027534485,128.61028027534485,128.61028027534485,130.8145661354065,1,2.3306050300598145,None,,,,,,,,,,,,,,,,,,169,,2025-03-03_11h01.44.830,comp,2024.2.4,57.318576076900264,2025-03-03 11h02.01.970749 -0500,
21,21,0,filler_square,None,None,None,None,None,None,None,None,None,None,1,1.3616204261779785,None,,,,,0,0,0,0,0,21,21,178,130.83080291748047,,,,,,,,,,,,,,,,,,,,,,,,,,,,,,,,,,,,,,,,,,,,,,,,,,,,,,,,,,,,,,,,,,,,,,,,,,,,,,,,,103.07184756789258,103.07184756789258,68.8946727205352,83.23460356107798,71.01241770458054,71.77639084120722,4.0,4.1,-189,-256,0,7,174,-272,130.816668510437,130.81675910949707,130.82048797607422,130.83080291748047,130.9787392616272,130.9787392616272,130.9787392616272,130.9787392616272,130.9787392616272,130.9787392616272,130.9787392616272,132.19573426246643,1,1.3616204261779785,None,,,,,,,,,,,,,,,,,,169,,2025-03-03_11h01.44.830,comp,2024.2.4,57.318576076900264,2025-03-03 11h02.01.970749 -0500,
22,22,0,critical,hwd,20.0,2.1,upper,200.0,125.0,125.0,200.0,141.0,141.0,1,3.8291478157043457,None,,,,,0,0,0,0,0,22,22,19,132.2117359638214,,,,,,,,,,,,,,,,,,,,,,,,,,,,,,,,,,,,,,,,,,,,,,,,,,,,,,,,,,,,,,,,,,,,,,,,,,,,,,,,,200.0,125.0,125.0,200.0,141.0,141.0,2.1,2.12,-258,-285,0,-250,266,272,132.19733428955078,132.1974115371704,132.20108819007874,132.2117359638214,132.3632674217224,132.3632674217224,132.3632674217224,132.3632674217224,132.3632674217224,132.3632674217224,132.3632674217224,136.0462784767151,1,3.8291478157043457,None,,,,,,,,,,,,,,,,,,169,,2025-03-03_11h01.44.830,comp,2024.2.4,57.318576076900264,2025-03-03 11h02.01.970749 -0500,
23,23,0,critical,hdw,20.0,2.1,upper,200.0,125.0,141.0,141.0,125.0,200.0,3,1.3488121032714844,None,,,,,0,0,0,0,0,23,23,23,136.06752514839172,,,,,,,,,,,,,,,,,,,,,,,,,,,,,,,,,,,,,,,,,,,,,,,,,,,,,,,,,,,,,,,,,,,,,,,,,,,,,,,,,200.0,125.0,141.0,141.0,125.0,200.0,2.1,2.11,-229,280,0,271,266,-253,136.04796242713928,136.0480935573578,136.05171632766724,136.06752514839172,136.21390652656555,136.21390652656555,136.21390652656555,136.21390652656555,136.21390652656555,136.21390652656555,136.21390652656555,137.43491220474243,3,1.3488121032714844,None,,,,,,,,,,,,,,,,,,169,,2025-03-03_11h01.44.830,comp,2024.2.4,57.318576076900264,2025-03-03 11h02.01.970749 -0500,
24,24,0,filler_random,None,None,None,None,None,None,None,None,None,None,1,0.9813523292541504,None,,,,,0,0,0,0,0,24,24,132,137.45102405548096,,,,,,,,,,,,,,,,,,,,,,,,,,,,,,,,,,,,,,,,,,,,,,,,,,,,,,,,,,,,,,,,,,,,,,,,,,,,,,,,,168.93698026648627,163.14099245914835,79.64815478127814,183.24633832961243,72.77085060109256,94.54499025103422,1.0,1.2,-269,-12,0,1,235,1,137.43685626983643,137.43695902824402,137.44075298309326,137.45102405548096,137.6040415763855,137.6040415763855,137.6040415763855,137.6040415763855,137.6040415763855,137.6040415763855,137.6040415763855,138.43448162078857,1,0.9813523292541504,None,,,,,,,,,,,,,,,,,,169,,2025-03-03_11h01.44.830,comp,2024.2.4,57.318576076900264,2025-03-03 11h02.01.970749 -0500,
25,25,0,critical,whd,35.0,2.1,upper,125.0,200.0,200.0,125.0,127.0,127.0,1,1.261974811553955,None,,,,,0,0,0,0,0,25,25,13,138.45081186294556,,,,,,,,,,,,,,,,,,,,,,,,,,,,,,,,,,,,,,,,,,,,,,,,,,,,,,,,,,,,,,,,,,,,,,,,,,,,,,,,,125.0,200.0,200.0,125.0,127.0,127.0,2.1,2.11,-258,268,0,289,222,-267,138.43622374534607,138.4363031387329,138.44014286994934,138.45081186294556,138.5986328125,138.5986328125,138.5986328125,138.5986328125,138.5986328125,138.5986328125,138.5986328125,139.71466612815857,1,1.261974811553955,None,,,,,,,,,,,,,,,,,,169,,2025-03-03_11h01.44.830,comp,2024.2.4,57.318576076900264,2025-03-03 11h02.01.970749 -0500,
26,26,0,critical,wdh,35.0,4.0,lower,57.0,133.0,70.0,70.0,133.0,57.0,3,1.1733014583587646,None,,,,,0,0,0,0,0,26,26,76,139.7317430973053,,,,,,,,,,,,,,,,,,,,,,,,,,,,,,,,,,,,,,,,,,,,,,,,,,,,,,,,,,,,,,,,,,,,,,,,,,,,,,,,,57.0,133.0,70.0,70.0,133.0,57.0,4.0,4.1,-198,-260,0,-4,160,-276,139.7162594795227,139.7163369655609,139.7199285030365,139.7317430973053,139.8896963596344,139.8896963596344,139.8896963596344,139.8896963596344,139.8896963596344,139.8896963596344,139.8896963596344,140.9155023097992,3,1.1733014583587646,None,,,,,,,,,,,,,,,,,,169,,2025-03-03_11h01.44.830,comp,2024.2.4,57.318576076900264,2025-03-03 11h02.01.970749 -0500,
27,27,0,critical,dwh,20.0,1.0,lower,78.0,78.0,57.0,133.0,133.0,57.0,3,4.6845481395721436,None,,,,,0,0,0,0,0,27,27,66,140.93201661109924,,,,,,,,,,,,,,,,,,,,,,,,,,,,,,,,,,,,,,,,,,,,,,,,,,,,,,,,,,,,,,,,,,,,,,,,,,,,,,,,,78.0,78.0,57.0,133.0,133.0,57.0,1.0,1.1,-682,261,-480,275,-289,266,140.9172341823578,140.91731333732605,140.92134547233582,140.93201661109924,141.08798551559448,141.08798551559448,141.08798551559448,141.08798551559448,141.08798551559448,141.08798551559448,141.08798551559448,145.63238668441772,3,4.6845481395721436,None,,,,,,,,,,,,,,,,,,169,,2025-03-03_11h01.44.830,comp,2024.2.4,57.318576076900264,2025-03-03 11h02.01.970749 -0500,
28,28,0,critical,whd,35.0,3.0,upper,125.0,200.0,200.0,125.0,127.0,127.0,1,0.8473896980285645,None,,,,,0,0,0,0,0,28,28,87,145.64904022216797,,,,,,,,,,,,,,,,,,,,,,,,,,,,,,,,,,,,,,,,,,,,,,,,,,,,,,,,,,,,,,,,,,,,,,,,,,,,,,,,,125.0,200.0,200.0,125.0,127.0,127.0,3.0,3.1,-258,271,0,3,222,-267,145.63403987884521,145.6341199874878,145.6378583908081,145.64904022216797,145.79004549980164,145.79004549980164,145.79004549980164,145.79004549980164,145.79004549980164,145.79004549980164,145.79004549980164,146.50118255615234,1,0.8473896980285645,None,,,,,,,,,,,,,,,,,,169,,2025-03-03_11h01.44.830,comp,2024.2.4,57.318576076900264,2025-03-03 11h02.01.970749 -0500,
29,29,0,filler_random,None,None,None,None,None,None,None,None,None,None,2,1.0353729724884033,None,,,,,0,0,0,0,0,29,29,154,146.51747703552246,,,,,,,,,,,,,,,,,,,,,,,,,,,,,,,,,,,,,,,,,,,,,,,,,,,,,,,,,,,,,,,,,,,,,,,,,,,,,,,,,64.68918299618629,95.98744392473792,188.06779215377026,107.66646311400514,106.1571441046589,67.35652645345095,2.2,2.22,-198,281,0,-282,184,-287,146.50306606292725,146.50316524505615,146.5067422389984,146.51747703552246,146.66666913032532,146.66666913032532,146.66666913032532,146.66666913032532,146.66666913032532,146.66666913032532,146.66666913032532,147.55663418769836,2,1.0353729724884033,None,,,,,,,,,,,,,,,,,,169,,2025-03-03_11h01.44.830,comp,2024.2.4,57.318576076900264,2025-03-03 11h02.01.970749 -0500,
30,30,0,critical,whd,20.0,1.0,upper,125.0,200.0,200.0,125.0,141.0,141.0,2,2.4352238178253174,None,,,,,0,0,0,0,0,30,30,91,147.57309436798096,,,,,,,,,,,,,,,,,,,,,,,,,,,,,,,,,,,,,,,,,,,,,,,,,,,,,,,,,,,,,,,,,,,,,,,,,,,,,,,,,125.0,200.0,200.0,125.0,141.0,141.0,1.0,1.2,-258,8,0,-17,229,12,147.55818557739258,147.5582640171051,147.56146788597107,147.57309436798096,147.7169759273529,147.7169759273529,147.7169759273529,147.7169759273529,147.7169759273529,147.7169759273529,147.7169759273529,150.01812767982483,2,2.4352238178253174,None,,,,,,,,,,,,,,,,,,169,,2025-03-03_11h01.44.830,comp,2024.2.4,57.318576076900264,2025-03-03 11h02.01.970749 -0500,
31,31,0,filler_square,None,None,None,None,None,None,None,None,None,None,3,2.445467233657837,None,,,,,0,0,0,0,0,31,31,187,150.03532433509827,,,,,,,,,,,,,,,,,,,,,,,,,,,,,,,,,,,,,,,,,,,,,,,,,,,,,,,,,,,,,,,,,,,,,,,,,,,,,,,,,110.11541390952036,87.55192836359771,98.12432994986034,102.74356867988962,121.03050549996497,121.03050549996497,2.2,2.21,-191,-275,0,254,208,262,150.02002024650574,150.02010035514832,150.0237421989441,150.03532433509827,150.18373370170593,150.18373370170593,150.18373370170593,150.18373370170593,150.18373370170593,150.18373370170593,150.18373370170593,152.48457407951355,3,2.445467233657837,None,,,,,,,,,,,,,,,,,,169,,2025-03-03_11h01.44.830,comp,2024.2.4,57.318576076900264,2025-03-03 11h02.01.970749 -0500,
32,32,0,critical,hdw,20.0,3.0,lower,133.0,57.0,78.0,78.0,57.0,133.0,3,1.2657268047332764,None,,,,,0,0,0,0,0,32,32,116,152.50281381607056,,,,,,,,,,,,,,,,,,,,,,,,,,,,,,,,,,,,,,,,,,,,,,,,,,,,,,,,,,,,,,,,,,,,,,,,,,,,,,,,,133.0,57.0,78.0,78.0,57.0,133.0,3.0,3.1,-164,284,0,16,202,-262,152.4861183166504,152.4861946105957,152.48961567878723,152.50281381607056,152.65351366996765,152.65351366996765,152.65351366996765,152.65351366996765,152.65351366996765,152.65351366996765,152.65351366996765,153.77789115905762,3,1.2657268047332764,None,,,,,,,,,,,,,,,,,,169,,2025-03-03_11h01.44.830,comp,2024.2.4,57.318576076900264,2025-03-03 11h02.01.970749 -0500,
33,33,0,critical,dwh,20.0,2.1,lower,78.0,78.0,57.0,133.0,133.0,57.0,3,5.854043245315552,None,,,,,0,0,0,0,0,33,33,30,153.7949116230011,,,,,,,,,,,,,,,,,,,,,,,,,,,,,,,,,,,,,,,,,,,,,,,,,,,,,,,,,,,,,,,,,,,,,,,,,,,,,,,,,78.0,78.0,57.0,133.0,133.0,57.0,2.1,2.11,-202,283,0,257,191,-274,153.77949047088623,153.7795696258545,153.7831301689148,153.7949116230011,153.93301105499268,153.93301105499268,153.93301105499268,153.93301105499268,153.93301105499268,153.93301105499268,153.93301105499268,159.65629363059998,3,5.854043245315552,None,,,,,,,,,,,,,,,,,,169,,2025-03-03_11h01.44.830,comp,2024.2.4,57.318576076900264,2025-03-03 11h02.01.970749 -0500,
34,34,0,critical,hwd,20.0,2.1,upper,200.0,125.0,125.0,200.0,141.0,141.0,1,2.666196823120117,None,,,,,0,0,0,0,0,34,34,43,159.6701967716217,,,,,,,,,,,,,,,,,,,,,,,,,,,,,,,,,,,,,,,,,,,,,,,,,,,,,,,,,,,,,,,,,,,,,,,,,,,,,,,,,200.0,125.0,125.0,200.0,141.0,141.0,2.1,2.12,-258,-258,0,-258,266,263,159.6569504737854,159.6569812297821,159.6583709716797,159.6701967716217,159.8206648826599,159.8206648826599,159.8206648826599,159.8206648826599,159.8206648826599,159.8206648826599,159.8206648826599,162.33990001678467,1,2.666196823120117,None,,,,,,,,,,,,,,,,,,169,,2025-03-03_11h01.44.830,comp,2024.2.4,57.318576076900264,2025-03-03 11h02.01.970749 -0500,
35,35,0,filler_square,None,None,None,None,None,None,None,None,None,None,2,2.227851629257202,None,,,,,0,0,0,0,0,35,35,196,162.35665607452393,,,,,,,,,,,,,,,,,,,,,,,,,,,,,,,,,,,,,,,,,,,,,,,,,,,,,,,,,,,,,,,,,,,,,,,,,,,,,,,,,88.68981859973881,74.06321527602393,121.10431376494356,133.09578420743628,140.53319008222843,140.53319008222843,4.0,4.2,-200,5,0,-272,233,-18,162.34200382232666,162.3420844078064,162.34586477279663,162.35665607452393,162.5055365562439,162.5055365562439,162.5055365562439,162.5055365562439,162.5055365562439,162.5055365562439,162.5055365562439,164.59720182418823,2,2.227851629257202,None,,,,,,,,,,,,,,,,,,169,,2025-03-03_11h01.44.830,comp,2024.2.4,57.318576076900264,2025-03-03 11h02.01.970749 -0500,
36,36,0,filler_square,None,None,None,None,None,None,None,None,None,None,1,1.3994054794311523,None,,,,,0,0,0,0,0,36,36,174,164.61760330200195,,,,,,,,,,,,,,,,,,,,,,,,,,,,,,,,,,,,,,,,,,,,,,,,,,,,,,,,,,,,,,,,,,,,,,,,,,,,,,,,,117.98413578740224,117.98413578740224,69.92998092728529,76.77889106224725,70.78452256696809,90.78418899811221,4.0,4.2,-193,-5,0,-253,180,19,164.59908890724182,164.59918522834778,164.6023440361023,164.61760330200195,164.75695204734802,164.75695204734802,164.75695204734802,164.75695204734802,164.75695204734802,164.75695204734802,164.75695204734802,166.02403712272644,1,1.3994054794311523,None,,,,,,,,,,,,,,,,,,169,,2025-03-03_11h01.44.830,comp,2024.2.4,57.318576076900264,2025-03-03 11h02.01.970749 -0500,
37,37,0,critical,hdw,20.0,3.0,upper,200.0,125.0,141.0,141.0,125.0,200.0,1,1.6100184917449951,None,,,,,0,0,0,0,0,37,37,117,166.04060173034668,,,,,,,,,,,,,,,,,,,,,,,,,,,,,,,,,,,,,,,,,,,,,,,,,,,,,,,,,,,,,,,,,,,,,,,,,,,,,,,,,200.0,125.0,141.0,141.0,125.0,200.0,3.0,3.2,-229,-256,0,-4,266,286,166.02575874328613,166.02592420578003,166.02975368499756,166.04060173034668,166.19273328781128,166.19273328781128,166.19273328781128,166.19273328781128,166.19273328781128,166.19273328781128,166.19273328781128,167.65622544288635,1,1.6100184917449951,None,,,,,,,,,,,,,,,,,,169,,2025-03-03_11h01.44.830,comp,2024.2.4,57.318576076900264,2025-03-03 11h02.01.970749 -0500,
38,38,0,filler_random,None,None,None,None,None,None,None,None,None,None,2,0.9012677669525146,None,,,,,0,0,0,0,0,38,38,130,167.675151348114,,,,,,,,,,,,,,,,,,,,,,,,,,,,,,,,,,,,,,,,,,,,,,,,,,,,,,,,,,,,,,,,,,,,,,,,,,,,,,,,,142.612133431764,85.50524596493028,199.50358587207265,161.23804040579128,156.2852728107859,170.5476338375754,1.0,1.3,261,-252,480,-289,742,-278,167.65822744369507,167.65836215019226,167.66211605072021,167.675151348114,167.82452249526978,167.82452249526978,167.82452249526978,167.82452249526978,167.82452249526978,167.82452249526978,167.82452249526978,168.59298014640808,2,0.9012677669525146,None,,,,,,,,,,,,,,,,,,169,,2025-03-03_11h01.44.830,comp,2024.2.4,57.318576076900264,2025-03-03 11h02.01.970749 -0500,
39,39,0,catch,None,None,None,None,None,None,None,None,None,None,3,1.2548315525054932,None,,,,,0,0,0,0,0,39,39,125,168.61027336120605,,,,,,,,,,,,,,,,,,,,,,,,,,,,,,,,,,,,,,,,,,,,,,,,,,,,,,,,,,,,,,,,,,,,,,,,,,,,,,,,,86,104,113,77,126,199,1.0,1.3,294,-273,480,-271,714,-267,168.59509444236755,168.59517312049866,168.59881901741028,168.61027336120605,168.76212906837463,168.76212906837463,168.76212906837463,168.76212906837463,168.76212906837463,168.76212906837463,168.76212906837463,169.87469029426575,3,1.2548315525054932,None,,,,,,,,,,,,,,,,,,169,,2025-03-03_11h01.44.830,comp,2024.2.4,57.318576076900264,2025-03-03 11h02.01.970749 -0500,
40,40,0,critical,whd,35.0,1.0,upper,125.0,200.0,200.0,125.0,127.0,127.0,1,1.5823776721954346,None,,,,,0,0,0,0,0,40,40,85,169.8907675743103,,,,,,,,,,,,,,,,,,,,,,,,,,,,,,,,,,,,,,,,,,,,,,,,,,,,,,,,,,,,,,,,,,,,,,,,,,,,,,,,,125.0,200.0,200.0,125.0,127.0,127.0,1.0,1.3,222,-262,480,-267,702,-268,169.87628364562988,169.87636637687683,169.8801236152649,169.8907675743103,170.04143834114075,170.04143834114075,170.04143834114075,170.04143834114075,170.04143834114075,170.04143834114075,170.04143834114075,171.47719812393188,1,1.5823776721954346,None,,,,,,,,,,,,,,,,,,169,,2025-03-03_11h01.44.830,comp,2024.2.4,57.318576076900264,2025-03-03 11h02.01.970749 -0500,
41,41,0,filler_random,None,None,None,None,None,None,None,None,None,None,3,1.299304723739624,None,,,,,0,0,0,0,0,41,41,148,171.49349856376648,,,,,,,,,,,,,,,,,,,,,,,,,,,,,,,,,,,,,,,,,,,,,,,,,,,,,,,,,,,,,,,,,,,,,,,,,,,,,,,,,105.88876423871197,143.69243414715518,115.56929888392307,191.26201169055557,186.20585670701766,169.5579056563007,2.2,2.21,-263,-252,0,260,276,251,171.4794156551361,171.4795525074005,171.4828085899353,171.49349856376648,171.64162755012512,171.64162755012512,171.64162755012512,171.64162755012512,171.64162755012512,171.64162755012512,171.64162755012512,172.79543828964233,3,1.299304723739624,None,,,,,,,,,,,,,,,,,,169,,2025-03-03_11h01.44.830,comp,2024.2.4,57.318576076900264,2025-03-03 11h02.01.970749 -0500,
42,42,0,critical,whd,20.0,2.1,upper,125.0,200.0,200.0,125.0,141.0,141.0,1,1.65877366065979,None,,,,,0,0,0,0,0,42,42,15,172.81361365318298,,,,,,,,,,,,,,,,,,,,,,,,,,,,,,,,,,,,,,,,,,,,,,,,,,,,,,,,,,,,,,,,,,,,,,,,,,,,,,,,,125.0,200.0,200.0,125.0,141.0,141.0,2.1,2.11,-258,258,0,271,229,-273,172.79719257354736,172.79727625846863,172.80049467086792,172.81361365318298,172.9592478275299,172.9592478275299,172.9592478275299,172.9592478275299,172.9592478275299,172.9592478275299,172.9592478275299,174.4899661540985,1,1.65877366065979,None,,,,,,,,,,,,,,,,,,169,,2025-03-03_11h01.44.830,comp,2024.2.4,57.318576076900264,2025-03-03 11h02.01.970749 -0500,
43,43,0,critical,wdh,35.0,3.0,lower,57.0,133.0,70.0,70.0,133.0,57.0,1,2.1551308631896973,None,,,,,0,0,0,0,0,43,43,74,174.50999116897583,,,,,,,,,,,,,,,,,,,,,,,,,,,,,,,,,,,,,,,,,,,,,,,,,,,,,,,,,,,,,,,,,,,,,,,,,,,,,,,,,57.0,133.0,70.0,70.0,133.0,57.0,3.0,3.1,-198,274,0,-5,160,-261,174.49146914482117,174.4915463924408,174.49468755722046,174.50999116897583,174.6421492099762,174.6421492099762,174.6421492099762,174.6421492099762,174.6421492099762,174.6421492099762,174.6421492099762,176.6763813495636,1,2.1551308631896973,None,,,,,,,,,,,,,,,,,,169,,2025-03-03_11h01.44.830,comp,2024.2.4,57.318576076900264,2025-03-03 11h02.01.970749 -0500,
44,44,0,filler_square,None,None,None,None,None,None,None,None,None,None,1,1.0829744338989258,None,,,,,0,0,0,0,0,44,44,182,176.69346499443054,,,,,,,,,,,,,,,,,,,,,,,,,,,,,,,,,,,,,,,,,,,,,,,,,,,,,,,,,,,,,,,,,,,,,,,,,,,,,,,,,192.1860516904821,192.1860516904821,120.06279850128956,128.70223790475325,186.5368361028113,109.70236020545471,1.0,1.3,224,-279,480,-262,695,-276,176.6782124042511,176.67829060554504,176.6819245815277,176.69346499443054,176.8443582057953,176.8443582057953,176.8443582057953,176.8443582057953,176.8443582057953,176.8443582057953,176.8443582057953,177.79162073135376,1,1.0829744338989258,None,,,,,,,,,,,,,,,,,,169,,2025-03-03_11h01.44.830,comp,2024.2.4,57.318576076900264,2025-03-03 11h02.01.970749 -0500,
45,45,0,critical,wdh,35.0,2.1,lower,57.0,133.0,70.0,70.0,133.0,57.0,1,1.5301308631896973,None,,,,,0,0,0,0,0,45,45,8,177.80701613426208,,,,,,,,,,,,,,,,,,,,,,,,,,,,,,,,,,,,,,,,,,,,,,,,,,,,,,,,,,,,,,,,,,,,,,,,,,,,,,,,,57.0,133.0,70.0,70.0,133.0,57.0,2.1,2.12,-198,-252,0,-274,160,252,177.79312181472778,177.7931990623474,177.7963478565216,177.80701613426208,177.96407461166382,177.96407461166382,177.96407461166382,177.96407461166382,177.96407461166382,177.96407461166382,177.96407461166382,179.34293150901794,1,1.5301308631896973,None,,,,,,,,,,,,,,,,,,169,,2025-03-03_11h01.44.830,comp,2024.2.4,57.318576076900264,2025-03-03 11h02.01.970749 -0500,
46,46,0,critical,dhw,35.0,4.0,upper,127.0,127.0,200.0,125.0,125.0,200.0,2,1.9623301029205322,None,,,,,0,0,0,0,0,46,46,53,179.35963034629822,,,,,,,,,,,,,,,,,,,,,,,,,,,,,,,,,,,,,,,,,,,,,,,,,,,,,,,,,,,,,,,,,,,,,,,,,,,,,,,,,127.0,127.0,200.0,125.0,125.0,200.0,4.0,4.2,-222,17,0,-271,258,7,179.34449100494385,179.34457087516785,179.34801054000854,179.35963034629822,179.51459527015686,179.51459527015686,179.51459527015686,179.51459527015686,179.51459527015686,179.51459527015686,179.51459527015686,181.32486820220947,2,1.9623301029205322,None,,,,,,,,,,,,,,,,,,169,,2025-03-03_11h01.44.830,comp,2024.2.4,57.318576076900264,2025-03-03 11h02.01.970749 -0500,
47,47,0,filler_random,None,None,None,None,None,None,None,None,None,None,2,2.163300037384033,None,,,,,0,0,0,0,0,47,47,143,181.34191632270813,,,,,,,,,,,,,,,,,,,,,,,,,,,,,,,,,,,,,,,,,,,,,,,,,,,,,,,,,,,,,,,,,,,,,,,,,,,,,,,,,189.4276900306182,74.03743242882395,125.51301120918026,150.65771280915055,194.47991779773432,82.01197992583336,4.0,4.2,-208,19,0,-271,212,16,181.32667303085327,181.32681107521057,181.33030128479004,181.34191632270813,181.4939079284668,181.4939079284668,181.4939079284668,181.4939079284668,181.4939079284668,181.4939079284668,181.4939079284668,183.509535074234,2,2.163300037384033,None,,,,,,,,,,,,,,,,,,169,,2025-03-03_11h01.44.830,comp,2024.2.4,57.318576076900264,2025-03-03 11h02.01.970749 -0500,
48,48,0,critical,whd,20.0,4.0,lower,57.0,133.0,133.0,57.0,78.0,78.0,1,5.6906514167785645,None,,,,,0,0,0,0,0,48,48,94,183.52604389190674,,,,,,,,,,,,,,,,,,,,,,,,,,,,,,,,,,,,,,,,,,,,,,,,,,,,,,,,,,,,,,,,,,,,,,,,,,,,,,,,,57.0,133.0,133.0,57.0,78.0,78.0,4.0,4.2,-191,-3,0,-257,164,2,183.51111912727356,183.51119542121887,183.51430988311768,183.52604389190674,183.66748309135437,183.66748309135437,183.66748309135437,183.66748309135437,183.66748309135437,183.66748309135437,183.66748309135437,189.23285937309265,1,5.6906514167785645,None,,,,,,,,,,,,,,,,,,169,,2025-03-03_11h01.44.830,comp,2024.2.4,57.318576076900264,2025-03-03 11h02.01.970749 -0500,
49,49,0,filler_random,None,None,None,None,None,None,None,None,None,None,1,0.958972692489624,None,,,,,0,0,0,0,0,49,49,146,189.24988842010498,,,,,,,,,,,,,,,,,,,,,,,,,,,,,,,,,,,,,,,,,,,,,,,,,,,,,,,,,,,,,,,,,,,,,,,,,,,,,,,,,156.35580773688133,188.53731104677814,72.89535976269404,68.03786068934603,76.58400069127308,132.9943820097829,4.0,4.1,-224,-275,0,10,197,-285,189.2346956729889,189.2347707748413,189.23876857757568,189.24988842010498,189.40305042266846,189.40305042266846,189.40305042266846,189.40305042266846,189.40305042266846,189.40305042266846,189.40305042266846,190.2130365371704,1,0.958972692489624,None,,,,,,,,,,,,,,,,,,169,,2025-03-03_11h01.44.830,comp,2024.2.4,57.318576076900264,2025-03-03 11h02.01.970749 -0500,
50,50,0,filler_random,None,None,None,None,None,None,None,None,None,None,3,0.963407039642334,None,,,,,0,0,0,0,0,50,50,145,190.229594707489,,,,,,,,,,,,,,,,,,,,,,,,,,,,,,,,,,,,,,,,,,,,,,,,,,,,,,,,,,,,,,,,,,,,,,,,,,,,,,,,,94.25606177060038,175.739999604692,189.80459214615752,72.47588839520145,194.69562007625865,138.19432611841626,4.0,4.1,-220,-257,0,-10,201,-256,190.21475768089294,190.21486043930054,190.2181158065796,190.229594707489,190.38198351860046,190.38198351860046,190.38198351860046,190.38198351860046,190.38198351860046,190.38198351860046,190.38198351860046,191.19883179664612,3,0.963407039642334,None,,,,,,,,,,,,,,,,,,169,,2025-03-03_11h01.44.830,comp,2024.2.4,57.318576076900264,2025-03-03 11h02.01.970749 -0500,
51,51,0,filler_square,None,None,None,None,None,None,None,None,None,None,2,0.7375705242156982,None,,,,,0,0,0,0,0,51,51,180,191.21487069129944,,,,,,,,,,,,,,,,,,,,,,,,,,,,,,,,,,,,,,,,,,,,,,,,,,,,,,,,,,,,,,,,,,,,,,,,,,,,,,,,,117.79472403915823,59.83269485200252,192.86605363692064,192.86605363692064,105.9984009264077,123.03918816960253,1.0,1.2,-222,15,0,0,254,1,191.20070147514343,191.20080614089966,191.204163312912,191.21487069129944,191.37353706359863,191.37353706359863,191.37353706359863,191.37353706359863,191.37353706359863,191.37353706359863,191.37353706359863,191.96367502212524,2,0.7375705242156982,None,,,,,,,,,,,,,,,,,,169,,2025-03-03_11h01.44.830,comp,2024.2.4,57.318576076900264,2025-03-03 11h02.01.970749 -0500,
52,52,0,critical,hwd,35.0,3.0,lower,133.0,57.0,57.0,133.0,70.0,70.0,2,2.984055995941162,None,,,,,0,0,0,0,0,52,52,98,191.9844925403595,,,,,,,,,,,,,,,,,,,,,,,,,,,,,,,,,,,,,,,,,,,,,,,,,,,,,,,,,,,,,,,,,,,,,,,,,,,,,,,,,133.0,57.0,57.0,133.0,70.0,70.0,3.0,3.1,-191,251,0,-2,198,-265,191.96537256240845,191.9654541015625,191.96907472610474,191.9844925403595,192.13142704963684,192.13142704963684,192.13142704963684,192.13142704963684,192.13142704963684,192.13142704963684,192.13142704963684,194.98232078552246,2,2.984055995941162,None,,,,,,,,,,,,,,,,,,169,,2025-03-03_11h01.44.830,comp,2024.2.4,57.318576076900264,2025-03-03 11h02.01.970749 -0500,
53,53,0,critical,dhw,35.0,4.0,lower,70.0,70.0,133.0,57.0,57.0,133.0,3,2.1533915996551514,None,,,,,0,0,0,0,0,53,53,52,194.99915480613708,,,,,,,,,,,,,,,,,,,,,,,,,,,,,,,,,,,,,,,,,,,,,,,,,,,,,,,,,,,,,,,,,,,,,,,,,,,,,,,,,70.0,70.0,133.0,57.0,57.0,133.0,4.0,4.2,-160,19,0,-268,191,-14,194.98380517959595,194.98388051986694,194.9880633354187,194.99915480613708,195.14887380599976,195.14887380599976,195.14887380599976,195.14887380599976,195.14887380599976,195.14887380599976,195.14887380599976,197.16570472717285,3,2.1533915996551514,None,,,,,,,,,,,,,,,,,,169,,2025-03-03_11h01.44.830,comp,2024.2.4,57.318576076900264,2025-03-03 11h02.01.970749 -0500,
54,54,0,catch,None,None,None,None,None,None,None,None,None,None,1,0.8711206912994385,None,,,,,0,0,0,0,0,54,54,123,197.18547344207764,,,,,,,,,,,,,,,,,,,,,,,,,,,,,,,,,,,,,,,,,,,,,,,,,,,,,,,,,,,,,,,,,,,,,,,,,,,,,,,,,185,140,58,132,69,121,3.0,3.2,-232,-262,0,-13,222,259,197.16766333580017,197.16774249076843,197.17102980613708,197.18547344207764,197.3335177898407,197.3335177898407,197.3335177898407,197.3335177898407,197.3335177898407,197.3335177898407,197.3335177898407,198.0664701461792,1,0.8711206912994385,None,,,,,,,,,,,,,,,,,,169,,2025-03-03_11h01.44.830,comp,2024.2.4,57.318576076900264,2025-03-03 11h02.01.970749 -0500,
55,55,0,critical,dhw,20.0,2.1,lower,78.0,78.0,133.0,57.0,57.0,133.0,1,4.679790019989014,None,,,,,0,0,0,0,0,55,55,26,198.08149480819702,,,,,,,,,,,,,,,,,,,,,,,,,,,,,,,,,,,,,,,,,,,,,,,,,,,,,,,,,,,,,,,,,,,,,,,,,,,,,,,,,78.0,78.0,133.0,57.0,57.0,133.0,2.1,2.12,-164,-255,0,-259,191,289,198.06816005706787,198.06829380989075,198.07195901870728,198.08149480819702,198.23460912704468,198.23460912704468,198.23460912704468,198.23460912704468,198.23460912704468,198.23460912704468,198.23460912704468,202.76718282699585,1,4.679790019989014,None,,,,,,,,,,,,,,,,,,169,,2025-03-03_11h01.44.830,comp,2024.2.4,57.318576076900264,2025-03-03 11h02.01.970749 -0500,
56,56,0,filler_square,None,None,None,None,None,None,None,None,None,None,2,1.643636703491211,None,,,,,0,0,0,0,0,56,56,200,202.78889274597168,,,,,,,,,,,,,,,,,,,,,,,,,,,,,,,,,,,,,,,,,,,,,,,,,,,,,,,,,,,,,,,,,,,,,,,,,,,,,,,,,81.55962070311779,132.64873323221465,139.41479435754027,139.41479435754027,85.47127445437762,63.206915278910884,1.0,1.1,-712,286,-480,272,-283,289,202.76921272277832,202.769291639328,202.77313804626465,202.78889274597168,202.93803095817566,202.93803095817566,202.93803095817566,202.93803095817566,202.93803095817566,202.93803095817566,202.93803095817566,204.4443280696869,2,1.643636703491211,None,,,,,,,,,,,,,,,,,,169,,2025-03-03_11h01.44.830,comp,2024.2.4,57.318576076900264,2025-03-03 11h02.01.970749 -0500,
57,57,0,critical,hwd,20.0,3.0,upper,200.0,125.0,125.0,200.0,141.0,141.0,2,4.4127280712127686,None,,,,,0,0,0,0,0,57,57,105,204.45992827415466,,,,,,,,,,,,,,,,,,,,,,,,,,,,,,,,,,,,,,,,,,,,,,,,,,,,,,,,,,,,,,,,,,,,,,,,,,,,,,,,,200.0,125.0,125.0,200.0,141.0,141.0,3.0,3.1,-258,255,0,10,266,-278,204.44584965705872,204.44592881202698,204.44909000396729,204.45992827415466,204.60248351097107,204.60248351097107,204.60248351097107,204.60248351097107,204.60248351097107,204.60248351097107,204.60248351097107,208.88619256019592,2,4.4127280712127686,None,,,,,,,,,,,,,,,,,,169,,2025-03-03_11h01.44.830,comp,2024.2.4,57.318576076900264,2025-03-03 11h02.01.970749 -0500,
58,58,0,catch,None,None,None,None,None,None,None,None,None,None,1,0.7066972255706787,None,,,,,0,0,0,0,0,58,58,129,208.90329813957214,,,,,,,,,,,,,,,,,,,,,,,,,,,,,,,,,,,,,,,,,,,,,,,,,,,,,,,,,,,,,,,,,,,,,,,,,,,,,,,,,168,157,115,75,102,88,2.1,2.12,-212,-256,0,-285,178,253,208.8883819580078,208.88846278190613,208.89221572875977,208.90329813957214,209.0593273639679,209.0593273639679,209.0593273639679,209.0593273639679,209.0593273639679,209.0593273639679,209.0593273639679,209.6214644908905,1,0.7066972255706787,None,,,,,,,,,,,,,,,,,,169,,2025-03-03_11h01.44.830,comp,2024.2.4,57.318576076900264,2025-03-03 11h02.01.970749 -0500,
59,59,0,filler_random,None,None,None,None,None,None,None,None,None,None,3,0.8978621959686279,None,,,,,0,0,0,0,0,59,59,165,209.63866996765137,,,,,,,,,,,,,,,,,,,,,,,,,,,,,,,,,,,,,,,,,,,,,,,,,,,,,,,,,,,,,,,,,,,,,,,,,,,,,,,,,80.20933499402385,153.19404963890537,73.93087519047279,94.34636363150645,195.00889680913906,155.87567636857233,2.1,2.12,-220,-275,0,-281,221,277,209.62361979484558,209.62370491027832,209.627774477005,209.63866996765137,209.78750348091125,209.78750348091125,209.78750348091125,209.78750348091125,209.78750348091125,209.78750348091125,209.78750348091125,210.54022812843323,3,0.8978621959686279,None,,,,,,,,,,,,,,,,,,169,,2025-03-03_11h01.44.830,comp,2024.2.4,57.318576076900264,2025-03-03 11h02.01.970749 -0500,
60,60,0,critical,dwh,35.0,2.1,upper,127.0,127.0,125.0,200.0,200.0,125.0,2,1.5009729862213135,None,,,,,0,0,0,0,0,60,60,29,210.5563645362854,,,,,,,,,,,,,,,,,,,,,,,,,,,,,,,,,,,,,,,,,,,,,,,,,,,,,,,,,,,,,,,,,,,,,,,,,,,,,,,,,127.0,127.0,125.0,200.0,200.0,125.0,2.1,2.12,-260,-286,0,-263,258,265,210.54188323020935,210.54196190834045,210.54556894302368,210.5563645362854,210.70483255386353,210.70483255386353,210.70483255386353,210.70483255386353,210.70483255386353,210.70483255386353,210.70483255386353,212.06559896469116,2,1.5009729862213135,None,,,,,,,,,,,,,,,,,,169,,2025-03-03_11h01.44.830,comp,2024.2.4,57.318576076900264,2025-03-03 11h02.01.970749 -0500,
61,61,0,critical,dwh,20.0,1.0,upper,141.0,141.0,125.0,200.0,200.0,125.0,2,6.046924829483032,None,,,,,0,0,0,0,0,61,61,67,212.0816535949707,,,,,,,,,,,,,,,,,,,,,,,,,,,,,,,,,,,,,,,,,,,,,,,,,,,,,,,,,,,,,,,,,,,,,,,,,,,,,,,,,141.0,141.0,125.0,200.0,200.0,125.0,1.0,1.2,-266,-15,0,9,258,-13,212.06712293624878,212.06720209121704,212.07039093971252,212.0816535949707,212.22489023208618,212.22489023208618,212.22489023208618,212.22489023208618,212.22489023208618,212.22489023208618,212.22489023208618,218.13957333564758,2,6.046924829483032,None,,,,,,,,,,,,,,,,,,169,,2025-03-03_11h01.44.830,comp,2024.2.4,57.318576076900264,2025-03-03 11h02.01.970749 -0500,
62,62,0,critical,hwd,35.0,4.0,lower,133.0,57.0,57.0,133.0,70.0,70.0,2,3.106609582901001,None,,,,,0,0,0,0,0,62,62,100,218.15794968605042,,,,,,,,,,,,,,,,,,,,,,,,,,,,,,,,,,,,,,,,,,,,,,,,,,,,,,,,,,,,,,,,,,,,,,,,,,,,,,,,,133.0,57.0,57.0,133.0,70.0,70.0,4.0,4.1,-191,-281,0,-10,198,-254,218.14121770858765,218.1412971019745,218.14573073387146,218.15794968605042,218.30584716796875,218.30584716796875,218.30584716796875,218.30584716796875,218.30584716796875,218.30584716796875,218.30584716796875,221.27690649032593,2,3.106609582901001,None,,,,,,,,,,,,,,,,,,169,,2025-03-03_11h01.44.830,comp,2024.2.4,57.318576076900264,2025-03-03 11h02.01.970749 -0500,
63,63,0,filler_square,None,None,None,None,None,None,None,None,None,None,2,2.0343847274780273,None,,,,,0,0,0,0,0,63,63,208,221.29413676261902,,,,,,,,,,,,,,,,,,,,,,,,,,,,,,,,,,,,,,,,,,,,,,,,,,,,,,,,,,,,,,,,,,,,,,,,,,,,,,,,,65.99666866164551,64.52557173221565,93.33527227697262,93.33527227697262,88.70935223059055,60.478063575426845,1.0,1.1,-655,275,-480,280,-307,277,221.2793004512787,221.2793791294098,221.28250813484192,221.29413676261902,221.4404799938202,221.4404799938202,221.4404799938202,221.4404799938202,221.4404799938202,221.4404799938202,221.4404799938202,223.34024167060852,2,2.0343847274780273,None,,,,,,,,,,,,,,,,,,169,,2025-03-03_11h01.44.830,comp,2024.2.4,57.318576076900264,2025-03-03 11h02.01.970749 -0500,
64,64,0,filler_random,None,None,None,None,None,None,None,None,None,None,3,2.139362335205078,None,,,,,0,0,0,0,0,64,64,144,223.35713863372803,,,,,,,,,,,,,,,,,,,,,,,,,,,,,,,,,,,,,,,,,,,,,,,,,,,,,,,,,,,,,,,,,,,,,,,,,,,,,,,,,148.94221291373896,91.6626115198994,89.88735407234967,80.49680110171707,129.7299639246226,185.82462652211694,3.0,3.1,-182,261,0,-14,229,-272,223.34199929237366,223.3421335220337,223.3455798625946,223.35713863372803,223.51373505592346,223.51373505592346,223.51373505592346,223.51373505592346,223.51373505592346,223.51373505592346,223.51373505592346,225.50748419761658,3,2.139362335205078,None,,,,,,,,,,,,,,,,,,169,,2025-03-03_11h01.44.830,comp,2024.2.4,57.318576076900264,2025-03-03 11h02.01.970749 -0500,
65,65,0,filler_random,None,None,None,None,None,None,None,None,None,None,1,1.6841425895690918,None,,,,,0,0,0,0,0,65,65,168,225.52439785003662,,,,,,,,,,,,,,,,,,,,,,,,,,,,,,,,,,,,,,,,,,,,,,,,,,,,,,,,,,,,,,,,,,,,,,,,,,,,,,,,,148.91752057025377,123.64339755632841,136.67011613152388,119.51922798476906,76.27087081147744,143.9151940546269,3.0,3.2,-218,-272,0,-13,228,262,225.50926804542542,225.50934672355652,225.51270008087158,225.52439785003662,225.67819118499756,225.67819118499756,225.67819118499756,225.67819118499756,225.67819118499756,225.67819118499756,225.67819118499756,227.22655200958252,1,1.6841425895690918,None,,,,,,,,,,,,,,,,,,169,,2025-03-03_11h01.44.830,comp,2024.2.4,57.318576076900264,2025-03-03 11h02.01.970749 -0500,
66,66,0,filler_random,None,None,None,None,None,None,None,None,None,None,3,1.5412158966064453,None,,,,,0,0,0,0,0,66,66,139,227.2440116405487,,,,,,,,,,,,,,,,,,,,,,,,,,,,,,,,,,,,,,,,,,,,,,,,,,,,,,,,,,,,,,,,,,,,,,,,,,,,,,,,,77.40763482252171,62.03928235617057,97.33055669299537,178.064969290571,170.75685811244767,121.23212867666403,2.1,2.12,-216,-288,0,-253,246,252,227.2283046245575,227.2283833026886,227.23176217079163,227.2440116405487,227.39794278144836,227.39794278144836,227.39794278144836,227.39794278144836,227.39794278144836,227.39794278144836,227.39794278144836,228.79301023483276,3,1.5412158966064453,None,,,,,,,,,,,,,,,,,,169,,2025-03-03_11h01.44.830,comp,2024.2.4,57.318576076900264,2025-03-03 11h02.01.970749 -0500,
67,67,0,critical,dwh,35.0,4.0,lower,70.0,70.0,57.0,133.0,133.0,57.0,2,1.3515551090240479,None,,,,,0,0,0,0,0,67,67,64,228.80902075767517,,,,,,,,,,,,,,,,,,,,,,,,,,,,,,,,,,,,,,,,,,,,,,,,,,,,,,,,,,,,,,,,,,,,,,,,,,,,,,,,,70.0,70.0,57.0,133.0,133.0,57.0,4.0,4.2,-198,2,0,-283,191,14,228.79457020759583,228.79465126991272,228.79830265045166,228.80902075767517,228.95736718177795,228.95736718177795,228.95736718177795,228.95736718177795,228.95736718177795,228.95736718177795,228.95736718177795,230.17643547058105,2,1.3515551090240479,None,,,,,,,,,,,,,,,,,,169,,2025-03-03_11h01.44.830,comp,2024.2.4,57.318576076900264,2025-03-03 11h02.01.970749 -0500,
68,68,0,filler_random,None,None,None,None,None,None,None,None,None,None,1,1.2578630447387695,None,,,,,0,0,0,0,0,68,68,142,230.1923623085022,,,,,,,,,,,,,,,,,,,,,,,,,,,,,,,,,,,,,,,,,,,,,,,,,,,,,,,,,,,,,,,,,,,,,,,,,,,,,,,,,159.70137026025776,185.8156301886717,94.70315897669386,83.00580386598286,97.08758454283853,61.685892712715784,4.0,4.1,-230,-274,0,4,168,-283,230.17819595336914,230.1782763004303,230.18190789222717,230.1923623085022,230.3420214653015,230.3420214653015,230.3420214653015,230.3420214653015,230.3420214653015,230.3420214653015,230.3420214653015,231.46096849441528,1,1.2578630447387695,None,,,,,,,,,,,,,,,,,,169,,2025-03-03_11h01.44.830,comp,2024.2.4,57.318576076900264,2025-03-03 11h02.01.970749 -0500,
69,69,0,critical,wdh,20.0,1.0,lower,57.0,133.0,78.0,78.0,133.0,57.0,2,2.3954827785491943,None,,,,,0,0,0,0,0,69,69,78,231.47788619995117,,,,,,,,,,,,,,,,,,,,,,,,,,,,,,,,,,,,,,,,,,,,,,,,,,,,,,,,,,,,,,,,,,,,,,,,,,,,,,,,,57.0,133.0,78.0,78.0,133.0,57.0,1.0,1.3,278,-267,480,-271,644,-273,231.46257996559143,231.46266102790833,231.46695232391357,231.47788619995117,231.6257483959198,231.6257483959198,231.6257483959198,231.6257483959198,231.6257483959198,231.6257483959198,231.6257483959198,233.87796187400818,2,2.3954827785491943,None,,,,,,,,,,,,,,,,,,169,,2025-03-03_11h01.44.830,comp,2024.2.4,57.318576076900264,2025-03-03 11h02.01.970749 -0500,
70,70,0,critical,wdh,35.0,2.1,upper,125.0,200.0,127.0,127.0,200.0,125.0,1,1.8991286754608154,None,,,,,0,0,0,0,0,70,70,9,233.8948254585266,,,,,,,,,,,,,,,,,,,,,,,,,,,,,,,,,,,,,,,,,,,,,,,,,,,,,,,,,,,,,,,,,,,,,,,,,,,,,,,,,125.0,200.0,127.0,127.0,200.0,125.0,2.1,2.11,-260,282,0,257,222,-254,233.87950921058655,233.87958645820618,233.8831810951233,233.8948254585266,234.04468607902527,234.04468607902527,234.04468607902527,234.04468607902527,234.04468607902527,234.04468607902527,234.04468607902527,235.81128978729248,1,1.8991286754608154,None,,,,,,,,,,,,,,,,,,169,,2025-03-03_11h01.44.830,comp,2024.2.4,57.318576076900264,2025-03-03 11h02.01.970749 -0500,
71,71,0,filler_random,None,None,None,None,None,None,None,None,None,None,2,1.0002460479736328,None,,,,,0,0,0,0,0,71,71,155,235.8323528766632,,,,,,,,,,,,,,,,,,,,,,,,,,,,,,,,,,,,,,,,,,,,,,,,,,,,,,,,,,,,,,,,,,,,,,,,,,,,,,,,,183.38387784092993,144.42811180014206,143.36763948184486,175.00278622100365,178.390661075997,115.97438670516104,3.0,3.2,-256,-285,0,-6,241,251,235.8132245540619,235.8133053779602,235.81703114509583,235.8323528766632,235.97836065292358,235.97836065292358,235.97836065292358,235.97836065292358,235.97836065292358,235.97836065292358,235.97836065292358,236.84528970718384,2,1.0002460479736328,None,,,,,,,,,,,,,,,,,,169,,2025-03-03_11h01.44.830,comp,2024.2.4,57.318576076900264,2025-03-03 11h02.01.970749 -0500,
72,72,0,critical,hdw,35.0,2.1,lower,133.0,57.0,70.0,70.0,57.0,133.0,1,5.6197264194488525,None,,,,,0,0,0,0,0,72,72,20,236.86144161224365,,,,,,,,,,,,,,,,,,,,,,,,,,,,,,,,,,,,,,,,,,,,,,,,,,,,,,,,,,,,,,,,,,,,,,,,,,,,,,,,,133.0,57.0,70.0,70.0,57.0,133.0,2.1,2.11,-160,261,0,269,198,-253,236.8468542098999,236.84693241119385,236.85024046897888,236.86144161224365,237.01634097099304,237.01634097099304,237.01634097099304,237.01634097099304,237.01634097099304,237.01634097099304,237.01634097099304,242.48470759391785,1,5.6197264194488525,None,,,,,,,,,,,,,,,,,,169,,2025-03-03_11h01.44.830,comp,2024.2.4,57.318576076900264,2025-03-03 11h02.01.970749 -0500,
73,73,0,filler_random,None,None,None,None,None,None,None,None,None,None,3,1.1229732036590576,None,,,,,0,0,0,0,0,73,73,133,242.50228214263916,,,,,,,,,,,,,,,,,,,,,,,,,,,,,,,,,,,,,,,,,,,,,,,,,,,,,,,,,,,,,,,,,,,,,,,,,,,,,,,,,77.27189638085856,142.09251398075855,77.22707967652231,139.27074306000324,148.1235926418518,130.13865843526116,4.0,4.1,-237,-288,0,-11,231,-286,242.48668909072876,242.48677015304565,242.4906029701233,242.50228214263916,242.65077543258667,242.65077543258667,242.65077543258667,242.65077543258667,242.65077543258667,242.65077543258667,242.65077543258667,243.63100790977478,3,1.1229732036590576,None,,,,,,,,,,,,,,,,,,169,,2025-03-03_11h01.44.830,comp,2024.2.4,57.318576076900264,2025-03-03 11h02.01.970749 -0500,
74,74,0,critical,hwd,35.0,2.1,upper,200.0,125.0,125.0,200.0,127.0,127.0,2,1.081653356552124,None,,,,,0,0,0,0,0,74,74,17,243.6478397846222,,,,,,,,,,,,,,,,,,,,,,,,,,,,,,,,,,,,,,,,,,,,,,,,,,,,,,,,,,,,,,,,,,,,,,,,,,,,,,,,,200.0,125.0,125.0,200.0,127.0,127.0,2.1,2.11,-258,257,0,253,260,-251,243.63270807266235,243.63281226158142,243.63704776763916,243.6478397846222,243.80020785331726,243.80020785331726,243.80020785331726,243.80020785331726,243.80020785331726,243.80020785331726,243.80020785331726,244.73193383216858,2,1.081653356552124,None,,,,,,,,,,,,,,,,,,169,,2025-03-03_11h01.44.830,comp,2024.2.4,57.318576076900264,2025-03-03 11h02.01.970749 -0500,
75,75,0,critical,whd,35.0,4.0,lower,57.0,133.0,133.0,57.0,70.0,70.0,1,1.5263848304748535,None,,,,,0,0,0,0,0,75,75,88,244.7469789981842,,,,,,,,,,,,,,,,,,,,,,,,,,,,,,,,,,,,,,,,,,,,,,,,,,,,,,,,,,,,,,,,,,,,,,,,,,,,,,,,,57.0,133.0,133.0,57.0,70.0,70.0,4.0,4.2,-191,13,0,-258,160,15,244.73352217674255,244.7336027622223,244.73719310760498,244.7469789981842,244.8979949951172,244.8979949951172,244.8979949951172,244.8979949951172,244.8979949951172,244.8979949951172,244.8979949951172,246.2836046218872,1,1.5263848304748535,None,,,,,,,,,,,,,,,,,,169,,2025-03-03_11h01.44.830,comp,2024.2.4,57.318576076900264,2025-03-03 11h02.01.970749 -0500,
76,76,0,critical,dhw,35.0,3.0,upper,127.0,127.0,200.0,125.0,125.0,200.0,2,1.2123997211456299,None,,,,,0,0,0,0,0,76,76,51,246.30022597312927,,,,,,,,,,,,,,,,,,,,,,,,,,,,,,,,,,,,,,,,,,,,,,,,,,,,,,,,,,,,,,,,,,,,,,,,,,,,,,,,,127.0,127.0,200.0,125.0,125.0,200.0,3.0,3.2,-222,-261,0,15,258,255,246.28538942337036,246.28552675247192,246.28942131996155,246.30022597312927,246.44906544685364,246.44906544685364,246.44906544685364,246.44906544685364,246.44906544685364,246.44906544685364,246.44906544685364,247.5154309272766,2,1.2123997211456299,None,,,,,,,,,,,,,,,,,,169,,2025-03-03_11h01.44.830,comp,2024.2.4,57.318576076900264,2025-03-03 11h02.01.970749 -0500,
77,77,0,critical,hwd,20.0,2.1,lower,133.0,57.0,57.0,133.0,78.0,78.0,2,2.629530191421509,None,,,,,0,0,0,0,0,77,77,18,247.53165769577026,,,,,,,,,,,,,,,,,,,,,,,,,,,,,,,,,,,,,,,,,,,,,,,,,,,,,,,,,,,,,,,,,,,,,,,,,,,,,,,,,133.0,57.0,57.0,133.0,78.0,78.0,2.1,2.12,-191,-282,0,-285,202,250,247.5169656276703,247.5170452594757,247.52081203460693,247.53165769577026,247.67146706581116,247.67146706581116,247.67146706581116,247.67146706581116,247.67146706581116,247.67146706581116,247.67146706581116,250.16652631759644,2,2.629530191421509,None,,,,,,,,,,,,,,,,,,169,,2025-03-03_11h01.44.830,comp,2024.2.4,57.318576076900264,2025-03-03 11h02.01.970749 -0500,
78,78,0,filler_square,None,None,None,None,None,None,None,None,None,None,1,1.0661091804504395,None,,,,,0,0,0,0,0,78,78,204,250.18276357650757,,,,,,,,,,,,,,,,,,,,,,,,,,,,,,,,,,,,,,,,,,,,,,,,,,,,,,,,,,,,,,,,,,,,,,,,,,,,,,,,,180.96677524858904,180.96677524858904,147.01455699533096,137.19048589826048,154.7104117259277,57.78662483016067,3.0,3.1,-255,282,0,16,193,-255,250.16838836669922,250.1684696674347,250.1720519065857,250.18276357650757,250.33301496505737,250.33301496505737,250.33301496505737,250.33301496505737,250.33301496505737,250.33301496505737,250.33301496505737,251.26674389839172,1,1.0661091804504395,None,,,,,,,,,,,,,,,,,,169,,2025-03-03_11h01.44.830,comp,2024.2.4,57.318576076900264,2025-03-03 11h02.01.970749 -0500,
79,79,0,filler_square,None,None,None,None,None,None,None,None,None,None,1,2.021791458129883,None,,,,,0,0,0,0,0,79,79,181,251.2827582359314,,,,,,,,,,,,,,,,,,,,,,,,,,,,,,,,,,,,,,,,,,,,,,,,,,,,,,,,,,,,,,,,,,,,,,,,,,,,,,,,,138.71204110567453,138.71204110567453,115.60897085019332,76.8792979172379,107.2684972152639,108.76601029618472,2.1,2.11,-204,283,0,264,189,-268,251.268723487854,251.26883602142334,251.2724907398224,251.2827582359314,251.42359471321106,251.42359471321106,251.42359471321106,251.42359471321106,251.42359471321106,251.42359471321106,251.42359471321106,253.31644916534424,1,2.021791458129883,None,,,,,,,,,,,,,,,,,,169,,2025-03-03_11h01.44.830,comp,2024.2.4,57.318576076900264,2025-03-03 11h02.01.970749 -0500,
80,80,0,critical,dhw,35.0,2.1,upper,127.0,127.0,200.0,125.0,125.0,200.0,3,2.4793145656585693,None,,,,,0,0,0,0,0,80,80,25,253.33726286888123,,,,,,,,,,,,,,,,,,,,,,,,,,,,,,,,,,,,,,,,,,,,,,,,,,,,,,,,,,,,,,,,,,,,,,,,,,,,,,,,,127.0,127.0,200.0,125.0,125.0,200.0,2.1,2.11,-222,273,0,258,258,-286,253.31800508499146,253.31808423995972,253.32142305374146,253.33726286888123,253.4882824420929,253.4882824420929,253.4882824420929,253.4882824420929,253.4882824420929,253.4882824420929,253.4882824420929,255.81845426559448,3,2.4793145656585693,None,,,,,,,,,,,,,,,,,,169,,2025-03-03_11h01.44.830,comp,2024.2.4,57.318576076900264,2025-03-03 11h02.01.970749 -0500,
81,81,0,filler_square,None,None,None,None,None,None,None,None,None,None,2,1.1017591953277588,None,,,,,0,0,0,0,0,81,81,185,255.83486223220825,,,,,,,,,,,,,,,,,,,,,,,,,,,,,,,,,,,,,,,,,,,,,,,,,,,,,,,,,,,,,,,,,,,,,,,,,,,,,,,,,66.17164298722359,78.64347250138383,89.49765177010562,89.49765177010562,61.376904502020444,72.17646386160789,2.1,2.12,-180,-255,0,-280,177,260,255.8204152584076,255.8204996585846,255.82418203353882,255.83486223220825,255.9912486076355,255.9912486076355,255.9912486076355,255.9912486076355,255.9912486076355,255.9912486076355,255.9912486076355,256.9525797367096,2,1.1017591953277588,None,,,,,,,,,,,,,,,,,,169,,2025-03-03_11h01.44.830,comp,2024.2.4,57.318576076900264,2025-03-03 11h02.01.970749 -0500,
82,82,0,critical,whd,35.0,2.1,upper,125.0,200.0,200.0,125.0,127.0,127.0,1,1.7821385860443115,None,,,,,0,0,0,0,0,82,82,37,256.97043108940125,,,,,,,,,,,,,,,,,,,,,,,,,,,,,,,,,,,,,,,,,,,,,,,,,,,,,,,,,,,,,,,,,,,,,,,,,,,,,,,,,125.0,200.0,200.0,125.0,127.0,127.0,2.1,2.12,-258,-261,0,-285,222,272,256.9541914463043,256.95426750183105,256.9577479362488,256.97043108940125,257.1183979511261,257.1183979511261,257.1183979511261,257.1183979511261,257.1183979511261,257.1183979511261,257.1183979511261,258.76838088035583,1,1.7821385860443115,None,,,,,,,,,,,,,,,,,,169,,2025-03-03_11h01.44.830,comp,2024.2.4,57.318576076900264,2025-03-03 11h02.01.970749 -0500,
83,83,0,critical,hdw,35.0,2.1,lower,133.0,57.0,70.0,70.0,57.0,133.0,3,1.4007148742675781,None,,,,,0,0,0,0,0,83,83,44,258.7844395637512,,,,,,,,,,,,,,,,,,,,,,,,,,,,,,,,,,,,,,,,,,,,,,,,,,,,,,,,,,,,,,,,,,,,,,,,,,,,,,,,,133.0,57.0,70.0,70.0,57.0,133.0,2.1,2.11,-160,288,0,260,198,-278,258.769891500473,258.76996541023254,258.7732286453247,258.7844395637512,258.94090604782104,258.94090604782104,258.94090604782104,258.94090604782104,258.94090604782104,258.94090604782104,258.94090604782104,260.2026834487915,3,1.4007148742675781,None,,,,,,,,,,,,,,,,,,169,,2025-03-03_11h01.44.830,comp,2024.2.4,57.318576076900264,2025-03-03 11h02.01.970749 -0500,
84,84,0,filler_square,None,None,None,None,None,None,None,None,None,None,3,1.101546049118042,None,,,,,0,0,0,0,0,84,84,189,260.21905493736267,,,,,,,,,,,,,,,,,,,,,,,,,,,,,,,,,,,,,,,,,,,,,,,,,,,,,,,,,,,,,,,,,,,,,,,,,,,,,,,,,82.5328956735527,62.1059995651809,63.50964628457828,80.50294337539134,84.3236581451963,84.3236581451963,3.0,3.1,-167,250,0,-10,178,-256,260.2047505378723,260.20486330986023,260.20868945121765,260.21905493736267,260.37045526504517,260.37045526504517,260.37045526504517,260.37045526504517,260.37045526504517,260.37045526504517,260.37045526504517,261.3358132839203,3,1.101546049118042,None,,,,,,,,,,,,,,,,,,169,,2025-03-03_11h01.44.830,comp,2024.2.4,57.318576076900264,2025-03-03 11h02.01.970749 -0500,
85,85,0,critical,dwh,20.0,3.0,upper,141.0,141.0,125.0,200.0,200.0,125.0,2,2.576761245727539,None,,,,,0,0,0,0,0,85,85,69,261.3546221256256,,,,,,,,,,,,,,,,,,,,,,,,,,,,,,,,,,,,,,,,,,,,,,,,,,,,,,,,,,,,,,,,,,,,,,,,,,,,,,,,,141.0,141.0,125.0,200.0,200.0,125.0,3.0,3.1,-266,286,0,8,258,-251,261.3372850418091,261.3373637199402,261.3407588005066,261.3546221256256,261.50861501693726,261.50861501693726,261.50861501693726,261.50861501693726,261.50861501693726,261.50861501693726,261.50861501693726,263.9363822937012,2,2.576761245727539,None,,,,,,,,,,,,,,,,,,169,,2025-03-03_11h01.44.830,comp,2024.2.4,57.318576076900264,2025-03-03 11h02.01.970749 -0500,
86,86,0,filler_square,None,None,None,None,None,None,None,None,None,None,3,1.095787763595581,None,,,,,0,0,0,0,0,86,86,198,263.95334911346436,,,,,,,,,,,,,,,,,,,,,,,,,,,,,,,,,,,,,,,,,,,,,,,,,,,,,,,,,,,,,,,,,,,,,,,,,,,,,,,,,101.36481693270576,86.80594383019988,141.21934172318734,103.18637634943092,167.78749875883074,167.78749875883074,2.2,2.21,-191,-266,0,271,231,287,263.9382417201996,263.9383761882782,263.94183111190796,263.95334911346436,264.1109755039215,264.1109755039215,264.1109755039215,264.1109755039215,264.1109755039215,264.1109755039215,264.1109755039215,265.0533721446991,3,1.095787763595581,None,,,,,,,,,,,,,,,,,,169,,2025-03-03_11h01.44.830,comp,2024.2.4,57.318576076900264,2025-03-03 11h02.01.970749 -0500,
87,87,0,critical,whd,20.0,4.0,upper,125.0,200.0,200.0,125.0,141.0,141.0,1,0.9717624187469482,None,,,,,0,0,0,0,0,87,87,95,265.06884717941284,,,,,,,,,,,,,,,,,,,,,,,,,,,,,,,,,,,,,,,,,,,,,,,,,,,,,,,,,,,,,,,,,,,,,,,,,,,,,,,,,125.0,200.0,200.0,125.0,141.0,141.0,4.0,4.1,-258,-255,0,10,229,-268,265.0549008846283,265.0549786090851,265.05831813812256,265.06884717941284,265.22271251678467,265.22271251678467,265.22271251678467,265.22271251678467,265.22271251678467,265.22271251678467,265.22271251678467,266.05532693862915,1,0.9717624187469482,None,,,,,,,,,,,,,,,,,,169,,2025-03-03_11h01.44.830,comp,2024.2.4,57.318576076900264,2025-03-03 11h02.01.970749 -0500,
88,88,0,critical,dhw,20.0,2.1,upper,141.0,141.0,200.0,125.0,125.0,200.0,3,1.049119234085083,None,,,,,0,0,0,0,0,88,88,3,266.0716927051544,,,,,,,,,,,,,,,,,,,,,,,,,,,,,,,,,,,,,,,,,,,,,,,,,,,,,,,,,,,,,,,,,,,,,,,,,,,,,,,,,141.0,141.0,200.0,125.0,125.0,200.0,2.1,2.11,-229,286,0,254,258,-283,266.05686044692993,266.05693888664246,266.06102681159973,266.0716927051544,266.223584651947,266.223584651947,266.223584651947,266.223584651947,266.223584651947,266.223584651947,266.223584651947,267.13719630241394,3,1.049119234085083,None,,,,,,,,,,,,,,,,,,169,,2025-03-03_11h01.44.830,comp,2024.2.4,57.318576076900264,2025-03-03 11h02.01.970749 -0500,
89,89,0,filler_random,None,None,None,None,None,None,None,None,None,None,2,0.7444603443145752,None,,,,,0,0,0,0,0,89,89,136,267.1527421474457,,,,,,,,,,,,,,,,,,,,,,,,,,,,,,,,,,,,,,,,,,,,,,,,,,,,,,,,,,,,,,,,,,,,,,,,,,,,,,,,,67.50627093344536,77.97097299359149,156.40458529368183,149.48454330531368,64.05089406605504,179.17059619952187,2.2,2.21,-210,-263,0,280,260,278,267.1388943195343,267.13897156715393,267.1422839164734,267.1527421474457,267.2944667339325,267.2944667339325,267.2944667339325,267.2944667339325,267.2944667339325,267.2944667339325,267.2944667339325,267.90604758262634,2,0.7444603443145752,None,,,,,,,,,,,,,,,,,,169,,2025-03-03_11h01.44.830,comp,2024.2.4,57.318576076900264,2025-03-03 11h02.01.970749 -0500,
90,90,0,critical,dwh,20.0,2.1,lower,78.0,78.0,57.0,133.0,133.0,57.0,1,1.6868910789489746,None,,,,,0,0,0,0,0,90,90,6,267.92192673683167,,,,,,,,,,,,,,,,,,,,,,,,,,,,,,,,,,,,,,,,,,,,,,,,,,,,,,,,,,,,,,,,,,,,,,,,,,,,,,,,,78.0,78.0,57.0,133.0,133.0,57.0,2.1,2.11,-202,273,0,251,191,-277,267.90761137008667,267.90769386291504,267.9114022254944,267.92192673683167,268.0706181526184,268.0706181526184,268.0706181526184,268.0706181526184,268.0706181526184,268.0706181526184,268.0706181526184,269.62114667892456,1,1.6868910789489746,None,,,,,,,,,,,,,,,,,,169,,2025-03-03_11h01.44.830,comp,2024.2.4,57.318576076900264,2025-03-03 11h02.01.970749 -0500,
91,91,0,critical,hdw,20.0,2.1,lower,133.0,57.0,78.0,78.0,57.0,133.0,3,2.292046070098877,None,,,,,0,0,0,0,0,91,91,46,269.6369683742523,,,,,,,,,,,,,,,,,,,,,,,,,,,,,,,,,,,,,,,,,,,,,,,,,,,,,,,,,,,,,,,,,,,,,,,,,,,,,,,,,133.0,57.0,78.0,78.0,57.0,133.0,2.1,2.12,-164,-264,0,-278,202,287,269.622674703598,269.6227526664734,269.6261007785797,269.6369683742523,269.78874921798706,269.78874921798706,269.78874921798706,269.78874921798706,269.78874921798706,269.78874921798706,269.78874921798706,271.9443106651306,3,2.292046070098877,None,,,,,,,,,,,,,,,,,,169,,2025-03-03_11h01.44.830,comp,2024.2.4,57.318576076900264,2025-03-03 11h02.01.970749 -0500,
92,92,0,critical,wdh,20.0,2.1,lower,57.0,133.0,78.0,78.0,133.0,57.0,2,1.2222480773925781,None,,,,,0,0,0,0,0,92,92,34,271.9625515937805,,,,,,,,,,,,,,,,,,,,,,,,,,,,,,,,,,,,,,,,,,,,,,,,,,,,,,,,,,,,,,,,,,,,,,,,,,,,,,,,,57.0,133.0,78.0,78.0,133.0,57.0,2.1,2.11,-202,260,0,284,164,-254,271.9462101459503,271.94629311561584,271.94986629486084,271.9625515937805,272.10849046707153,272.10849046707153,272.10849046707153,272.10849046707153,272.10849046707153,272.10849046707153,272.10849046707153,273.19462490081787,2,1.2222480773925781,None,,,,,,,,,,,,,,,,,,169,,2025-03-03_11h01.44.830,comp,2024.2.4,57.318576076900264,2025-03-03 11h02.01.970749 -0500,
93,93,0,filler_random,None,None,None,None,None,None,None,None,None,None,3,2.957448959350586,None,,,,,0,0,0,0,0,93,93,167,273.2116572856903,,,,,,,,,,,,,,,,,,,,,,,,,,,,,,,,,,,,,,,,,,,,,,,,,,,,,,,,,,,,,,,,,,,,,,,,,,,,,,,,,86.74015772488063,59.910639634101074,66.89715650055126,168.89499620173757,122.47805973786141,172.81592248362057,2.2,2.22,-210,265,0,-265,267,-262,273.1963551044464,273.1964318752289,273.19960498809814,273.2116572856903,273.35935497283936,273.35935497283936,273.35935497283936,273.35935497283936,273.35935497283936,273.35935497283936,273.35935497283936,276.17519974708557,3,2.957448959350586,None,,,,,,,,,,,,,,,,,,169,,2025-03-03_11h01.44.830,comp,2024.2.4,57.318576076900264,2025-03-03 11h02.01.970749 -0500,
94,94,0,filler_random,None,None,None,None,None,None,None,None,None,None,1,1.949625015258789,None,,,,,0,0,0,0,0,94,94,163,276.1955761909485,,,,,,,,,,,,,,,,,,,,,,,,,,,,,,,,,,,,,,,,,,,,,,,,,,,,,,,,,,,,,,,,,,,,,,,,,,,,,,,,,182.43391171714813,125.58040092545427,165.22450506924883,101.40364774579574,109.12262274841711,142.71361354826405,1.0,1.2,-209,3,0,-11,218,-12,276.17698669433594,276.17711782455444,276.1806104183197,276.1955761909485,276.34084701538086,276.34084701538086,276.34084701538086,276.34084701538086,276.34084701538086,276.34084701538086,276.34084701538086,278.1484935283661,1,1.949625015258789,None,,,,,,,,,,,,,,,,,,169,,2025-03-03_11h01.44.830,comp,2024.2.4,57.318576076900264,2025-03-03 11h02.01.970749 -0500,
95,95,0,critical,hwd,35.0,1.0,lower,133.0,57.0,57.0,133.0,70.0,70.0,1,5.372318267822266,None,,,,,0,0,0,0,0,95,95,96,278.1650004386902,,,,,,,,,,,,,,,,,,,,,,,,,,,,,,,,,,,,,,,,,,,,,,,,,,,,,,,,,,,,,,,,,,,,,,,,,,,,,,,,,133.0,57.0,57.0,133.0,70.0,70.0,1.0,1.1,-671,254,-480,263,-282,284,278.1501135826111,278.15019488334656,278.1533987522125,278.1650004386902,278.30824089050293,278.30824089050293,278.30824089050293,278.30824089050293,278.30824089050293,278.30824089050293,278.30824089050293,283.5441269874573,1,5.372318267822266,None,,,,,,,,,,,,,,,,,,169,,2025-03-03_11h01.44.830,comp,2024.2.4,57.318576076900264,2025-03-03 11h02.01.970749 -0500,
96,96,0,critical,hwd,35.0,2.1,lower,133.0,57.0,57.0,133.0,70.0,70.0,2,1.2804858684539795,None,,,,,0,0,0,0,0,96,96,16,283.5608603954315,,,,,,,,,,,,,,,,,,,,,,,,,,,,,,,,,,,,,,,,,,,,,,,,,,,,,,,,,,,,,,,,,,,,,,,,,,,,,,,,,133.0,57.0,57.0,133.0,70.0,70.0,2.1,2.12,-191,-252,0,-280,198,285,283.545866727829,283.5459773540497,283.55008339881897,283.5608603954315,283.7158246040344,283.7158246040344,283.7158246040344,283.7158246040344,283.7158246040344,283.7158246040344,283.7158246040344,284.8499610424042,2,1.2804858684539795,None,,,,,,,,,,,,,,,,,,169,,2025-03-03_11h01.44.830,comp,2024.2.4,57.318576076900264,2025-03-03 11h02.01.970749 -0500,
97,97,0,critical,wdh,35.0,4.0,upper,125.0,200.0,127.0,127.0,200.0,125.0,1,1.2104945182800293,None,,,,,0,0,0,0,0,97,97,77,284.8703455924988,,,,,,,,,,,,,,,,,,,,,,,,,,,,,,,,,,,,,,,,,,,,,,,,,,,,,,,,,,,,,,,,,,,,,,,,,,,,,,,,,125.0,200.0,127.0,127.0,200.0,125.0,4.0,4.1,-260,-268,0,17,222,-251,284.8515591621399,284.85163927078247,284.8548526763916,284.8703455924988,285.0078308582306,285.0078308582306,285.0078308582306,285.0078308582306,285.0078308582306,285.0078308582306,285.0078308582306,286.0959494113922,1,1.2104945182800293,None,,,,,,,,,,,,,,,,,,169,,2025-03-03_11h01.44.830,comp,2024.2.4,57.318576076900264,2025-03-03 11h02.01.970749 -0500,
98,98,0,filler_random,None,None,None,None,None,None,None,None,None,None,2,1.3211798667907715,None,,,,,0,0,0,0,0,98,98,160,286.1116626262665,,,,,,,,,,,,,,,,,,,,,,,,,,,,,,,,,,,,,,,,,,,,,,,,,,,,,,,,,,,,,,,,,,,,,,,,,,,,,,,,,160.57076280653186,140.78033529800487,161.38604441189048,175.0991424681108,157.45843945014505,114.50128520160402,3.0,3.2,-254,-279,0,-14,241,282,286.09772300720215,286.0978412628174,286.1011667251587,286.1116626262665,286.2598056793213,286.2598056793213,286.2598056793213,286.2598056793213,286.2598056793213,286.2598056793213,286.2598056793213,287.44386982917786,2,1.3211798667907715,None,,,,,,,,,,,,,,,,,,169,,2025-03-03_11h01.44.830,comp,2024.2.4,57.318576076900264,2025-03-03 11h02.01.970749 -0500,
99,99,0,critical,whd,35.0,2.1,lower,57.0,133.0,133.0,57.0,70.0,70.0,1,1.646730899810791,None,,,,,0,0,0,0,0,99,99,36,287.45984530448914,,,,,,,,,,,,,,,,,,,,,,,,,,,,,,,,,,,,,,,,,,,,,,,,,,,,,,,,,,,,,,,,,,,,,,,,,,,,,,,,,57.0,133.0,133.0,57.0,70.0,70.0,2.1,2.11,-191,272,0,273,160,-273,287.4453728199005,287.4454517364502,287.4487683773041,287.45984530448914,287.61489963531494,287.61489963531494,287.61489963531494,287.61489963531494,287.61489963531494,287.61489963531494,287.61489963531494,289.10986137390137,1,1.646730899810791,None,,,,,,,,,,,,,,,,,,169,,2025-03-03_11h01.44.830,comp,2024.2.4,57.318576076900264,2025-03-03 11h02.01.970749 -0500,
100,100,0,critical,dwh,35.0,3.0,lower,70.0,70.0,57.0,133.0,133.0,57.0,3,1.5798914432525635,None,,,,,0,0,0,0,0,100,100,62,289.1256294250488,,,,,,,,,,,,,,,,,,,,,,,,,,,,,,,,,,,,,,,,,,,,,,,,,,,,,,,,,,,,,,,,,,,,,,,,,,,,,,,,,70.0,70.0,57.0,133.0,133.0,57.0,3.0,3.2,-198,-276,0,16,191,280,289.1114249229431,289.111531496048,289.1151354312897,289.1256294250488,289.27719163894653,289.27719163894653,289.27719163894653,289.27719163894653,289.27719163894653,289.27719163894653,289.27719163894653,290.7128415107727,3,1.5798914432525635,None,,,,,,,,,,,,,,,,,,169,,2025-03-03_11h01.44.830,comp,2024.2.4,57.318576076900264,2025-03-03 11h02.01.970749 -0500,
101,101,0,filler_random,None,None,None,None,None,None,None,None,None,None,1,1.0160374641418457,None,,,,,0,0,0,0,0,101,101,153,290.7286469936371,,,,,,,,,,,,,,,,,,,,,,,,,,,,,,,,,,,,,,,,,,,,,,,,,,,,,,,,,,,,,,,,,,,,,,,,,,,,,,,,,158.70876716815357,171.33935619524868,160.22965990460023,116.75840574507205,199.95745822475482,65.56466765123804,2.2,2.22,-240,286,0,-280,187,-273,290.7145082950592,290.71458554267883,290.71809339523315,290.7286469936371,290.8803267478943,290.8803267478943,290.8803267478943,290.8803267478943,290.8803267478943,290.8803267478943,290.8803267478943,291.76024889945984,1,1.0160374641418457,None,,,,,,,,,,,,,,,,,,169,,2025-03-03_11h01.44.830,comp,2024.2.4,57.318576076900264,2025-03-03 11h02.01.970749 -0500,
102,102,0,critical,hdw,35.0,3.0,upper,200.0,125.0,127.0,127.0,125.0,200.0,1,1.4249942302703857,None,,,,,0,0,0,0,0,102,102,111,291.7757444381714,,,,,,,,,,,,,,,,,,,,,,,,,,,,,,,,,,,,,,,,,,,,,,,,,,,,,,,,,,,,,,,,,,,,,,,,,,,,,,,,,200.0,125.0,127.0,127.0,125.0,200.0,3.0,3.1,-222,258,0,-10,260,-289,291.76182866096497,291.7619061470032,291.76540184020996,291.7757444381714,291.92889380455017,291.92889380455017,291.92889380455017,291.92889380455017,291.92889380455017,291.92889380455017,291.92889380455017,293.2104082107544,1,1.4249942302703857,None,,,,,,,,,,,,,,,,,,169,,2025-03-03_11h01.44.830,comp,2024.2.4,57.318576076900264,2025-03-03 11h02.01.970749 -0500,
103,103,0,filler_square,None,None,None,None,None,None,None,None,None,None,2,4.165459156036377,None,,,,,0,0,0,0,0,103,103,179,293.2276887893677,,,,,,,,,,,,,,,,,,,,,,,,,,,,,,,,,,,,,,,,,,,,,,,,,,,,,,,,,,,,,,,,,,,,,,,,,,,,,,,,,62.36784924484393,62.36784924484393,58.46534719107201,60.28573207363081,57.83328484741796,59.32467378070212,3.0,3.1,-157,274,0,5,156,-282,293.2123279571533,293.2124271392822,293.2159779071808,293.2276887893677,293.38309931755066,293.38309931755066,293.38309931755066,293.38309931755066,293.38309931755066,293.38309931755066,293.38309931755066,297.39784240722656,2,4.165459156036377,None,,,,,,,,,,,,,,,,,,169,,2025-03-03_11h01.44.830,comp,2024.2.4,57.318576076900264,2025-03-03 11h02.01.970749 -0500,
104,104,0,filler_random,None,None,None,None,None,None,None,None,None,None,1,1.9313666820526123,None,,,,,0,0,0,0,0,104,104,134,297.41414761543274,,,,,,,,,,,,,,,,,,,,,,,,,,,,,,,,,,,,,,,,,,,,,,,,,,,,,,,,,,,,,,,,,,,,,,,,,,,,,,,,,152.32794283220517,170.45266160074362,101.29025609227321,179.2390487804487,82.47875018164804,95.91263300189775,2.2,2.22,-271,284,0,-259,234,-265,297.3997142314911,297.3998339176178,297.4033169746399,297.41414761543274,297.56350445747375,297.56350445747375,297.56350445747375,297.56350445747375,297.56350445747375,297.56350445747375,297.56350445747375,299.35076427459717,1,1.9313666820526123,None,,,,,,,,,,,,,,,,,,169,,2025-03-03_11h01.44.830,comp,2024.2.4,57.318576076900264,2025-03-03 11h02.01.970749 -0500,
105,105,0,critical,dhw,20.0,1.0,lower,78.0,78.0,133.0,57.0,57.0,133.0,3,4.897873878479004,None,,,,,0,0,0,0,0,105,105,54,299.3671336174011,,,,,,,,,,,,,,,,,,,,,,,,,,,,,,,,,,,,,,,,,,,,,,,,,,,,,,,,,,,,,,,,,,,,,,,,,,,,,,,,,78.0,78.0,133.0,57.0,57.0,133.0,1.0,1.2,-164,-1,0,18,191,-12,299.3524503707886,299.3525321483612,299.35657787323,299.3671336174011,299.51549220085144,299.51549220085144,299.51549220085144,299.51549220085144,299.51549220085144,299.51549220085144,299.51549220085144,304.2824881076813,3,4.897873878479004,None,,,,,,,,,,,,,,,,,,169,,2025-03-03_11h01.44.830,comp,2024.2.4,57.318576076900264,2025-03-03 11h02.01.970749 -0500,
106,106,0,critical,hdw,20.0,1.0,upper,200.0,125.0,141.0,141.0,125.0,200.0,3,1.8345565795898438,None,,,,,0,0,0,0,0,106,106,115,304.30224418640137,,,,,,,,,,,,,,,,,,,,,,,,,,,,,,,,,,,,,,,,,,,,,,,,,,,,,,,,,,,,,,,,,,,,,,,,,,,,,,,,,200.0,125.0,141.0,141.0,125.0,200.0,1.0,1.3,251,-283,480,-282,746,-280,304.28404712677,304.28412222862244,304.28745126724243,304.30224418640137,304.4503195285797,304.4503195285797,304.4503195285797,304.4503195285797,304.4503195285797,304.4503195285797,304.4503195285797,306.1502637863159,3,1.8345565795898438,None,,,,,,,,,,,,,,,,,,169,,2025-03-03_11h01.44.830,comp,2024.2.4,57.318576076900264,2025-03-03 11h02.01.970749 -0500,
107,107,0,filler_random,None,None,None,None,None,None,None,None,None,None,3,1.142514944076538,None,,,,,0,0,0,0,0,107,107,141,306.17095255851746,,,,,,,,,,,,,,,,,,,,,,,,,,,,,,,,,,,,,,,,,,,,,,,,,,,,,,,,,,,,,,,,,,,,,,,,,,,,,,,,,158.0454384602869,63.82771695498491,90.86006497521197,73.63158789655745,91.52163155953174,186.61822904468917,4.0,4.2,-165,-6,0,-251,226,-16,306.1519811153412,306.15210914611816,306.1555926799774,306.17095255851746,306.3184356689453,306.3184356689453,306.3184356689453,306.3184356689453,306.3184356689453,306.3184356689453,306.3184356689453,307.3203377723694,3,1.142514944076538,None,,,,,,,,,,,,,,,,,,169,,2025-03-03_11h01.44.830,comp,2024.2.4,57.318576076900264,2025-03-03 11h02.01.970749 -0500,
108,108,0,critical,wdh,35.0,3.0,upper,125.0,200.0,127.0,127.0,200.0,125.0,1,1.2567112445831299,None,,,,,0,0,0,0,0,108,108,75,307.33690333366394,,,,,,,,,,,,,,,,,,,,,,,,,,,,,,,,,,,,,,,,,,,,,,,,,,,,,,,,,,,,,,,,,,,,,,,,,,,,,,,,,125.0,200.0,127.0,127.0,200.0,125.0,3.0,3.2,-260,-281,0,-19,222,254,307.3221127986908,307.32219529151917,307.32628107070923,307.33690333366394,307.48446822166443,307.48446822166443,307.48446822166443,307.48446822166443,307.48446822166443,307.48446822166443,307.48446822166443,308.60256361961365,1,1.2567112445831299,None,,,,,,,,,,,,,,,,,,169,,2025-03-03_11h01.44.830,comp,2024.2.4,57.318576076900264,2025-03-03 11h02.01.970749 -0500,
109,109,0,filler_square,None,None,None,None,None,None,None,None,None,None,2,1.5739521980285645,None,,,,,0,0,0,0,0,109,109,175,308.6188042163849,,,,,,,,,,,,,,,,,,,,,,,,,,,,,,,,,,,,,,,,,,,,,,,,,,,,,,,,,,,,,,,,,,,,,,,,,,,,,,,,,67.10621609305247,62.16842463375544,71.68802934665058,71.68802934665058,60.14679247345931,66.46305892939627,4.0,4.2,-163,-14,0,-267,165,-9,308.6044683456421,308.60455417633057,308.6080906391144,308.6188042163849,308.76588320732117,308.76588320732117,308.76588320732117,308.76588320732117,308.76588320732117,308.76588320732117,308.76588320732117,310.2117531299591,2,1.5739521980285645,None,,,,,,,,,,,,,,,,,,169,,2025-03-03_11h01.44.830,comp,2024.2.4,57.318576076900264,2025-03-03 11h02.01.970749 -0500,
110,110,0,filler_random,None,None,None,None,None,None,None,None,None,None,1,1.2669262886047363,None,,,,,0,0,0,0,0,110,110,164,310.23027300834656,,,,,,,,,,,,,,,,,,,,,,,,,,,,,,,,,,,,,,,,,,,,,,,,,,,,,,,,,,,,,,,,,,,,,,,,,,,,,,,,,197.32822329310014,125.63092673255365,155.56086576155457,61.761820942195776,134.07989400061194,166.3501191720911,1.0,1.1,-670,289,-480,253,-270,266,310.2136723995209,310.21375274658203,310.2172899246216,310.23027300834656,310.3686418533325,310.3686418533325,310.3686418533325,310.3686418533325,310.3686418533325,310.3686418533325,310.3686418533325,311.5013644695282,1,1.2669262886047363,None,,,,,,,,,,,,,,,,,,169,,2025-03-03_11h01.44.830,comp,2024.2.4,57.318576076900264,2025-03-03 11h02.01.970749 -0500,
111,111,0,critical,hwd,35.0,1.0,upper,200.0,125.0,125.0,200.0,127.0,127.0,2,0.8337118625640869,None,,,,,0,0,0,0,0,111,111,97,311.5192279815674,,,,,,,,,,,,,,,,,,,,,,,,,,,,,,,,,,,,,,,,,,,,,,,,,,,,,,,,,,,,,,,,,,,,,,,,,,,,,,,,,200.0,125.0,125.0,200.0,127.0,127.0,1.0,1.2,-258,3,0,-4,260,-8,311.50288105010986,311.5029625892639,311.5062804222107,311.5192279815674,311.6564016342163,311.6564016342163,311.6564016342163,311.6564016342163,311.6564016342163,311.6564016342163,311.6564016342163,312.37173986434937,2,0.8337118625640869,None,,,,,,,,,,,,,,,,,,169,,2025-03-03_11h01.44.830,comp,2024.2.4,57.318576076900264,2025-03-03 11h02.01.970749 -0500,
112,112,0,critical,dhw,35.0,3.0,lower,70.0,70.0,133.0,57.0,57.0,133.0,2,4.2771782875061035,None,,,,,0,0,0,0,0,112,112,50,312.38766074180603,,,,,,,,,,,,,,,,,,,,,,,,,,,,,,,,,,,,,,,,,,,,,,,,,,,,,,,,,,,,,,,,,,,,,,,,,,,,,,,,,70.0,70.0,133.0,57.0,57.0,133.0,3.0,3.1,-160,278,0,3,191,-288,312.3733971118927,312.37347531318665,312.37685203552246,312.38766074180603,312.5367784500122,312.5367784500122,312.5367784500122,312.5367784500122,312.5367784500122,312.5367784500122,312.5367784500122,316.6792092323303,2,4.2771782875061035,None,,,,,,,,,,,,,,,,,,169,,2025-03-03_11h01.44.830,comp,2024.2.4,57.318576076900264,2025-03-03 11h02.01.970749 -0500,
113,113,0,critical,dwh,20.0,2.1,upper,141.0,141.0,125.0,200.0,200.0,125.0,2,2.25000262260437,None,,,,,0,0,0,0,0,113,113,31,316.69533348083496,,,,,,,,,,,,,,,,,,,,,,,,,,,,,,,,,,,,,,,,,,,,,,,,,,,,,,,,,,,,,,,,,,,,,,,,,,,,,,,,,141.0,141.0,125.0,200.0,200.0,125.0,2.1,2.11,-266,269,0,264,258,-276,316.6807165145874,316.68083596229553,316.6840970516205,316.69533348083496,316.8400774002075,316.8400774002075,316.8400774002075,316.8400774002075,316.8400774002075,316.8400774002075,316.8400774002075,318.96215653419495,2,2.25000262260437,None,,,,,,,,,,,,,,,,,,169,,2025-03-03_11h01.44.830,comp,2024.2.4,57.318576076900264,2025-03-03 11h02.01.970749 -0500,
114,114,0,critical,dwh,20.0,2.1,upper,141.0,141.0,125.0,200.0,200.0,125.0,2,1.0683908462524414,None,,,,,0,0,0,0,0,114,114,7,318.9814624786377,,,,,,,,,,,,,,,,,,,,,,,,,,,,,,,,,,,,,,,,,,,,,,,,,,,,,,,,,,,,,,,,,,,,,,,,,,,,,,,,,141.0,141.0,125.0,200.0,200.0,125.0,2.1,2.11,-266,256,0,266,258,-285,318.96360421180725,318.9636790752411,318.96676754951477,318.9814624786377,319.11765718460083,319.11765718460083,319.11765718460083,319.11765718460083,319.11765718460083,319.11765718460083,319.11765718460083,320.05519461631775,2,1.0683908462524414,None,,,,,,,,,,,,,,,,,,169,,2025-03-03_11h01.44.830,comp,2024.2.4,57.318576076900264,2025-03-03 11h02.01.970749 -0500,
115,115,0,critical,dwh,20.0,3.0,lower,78.0,78.0,57.0,133.0,133.0,57.0,2,5.322232484817505,None,,,,,0,0,0,0,0,115,115,68,320.0710594654083,,,,,,,,,,,,,,,,,,,,,,,,,,,,,,,,,,,,,,,,,,,,,,,,,,,,,,,,,,,,,,,,,,,,,,,,,,,,,,,,,78.0,78.0,57.0,133.0,133.0,57.0,3.0,3.2,-202,-251,0,-13,191,272,320.05676674842834,320.05687952041626,320.060498714447,320.0710594654083,320.22149324417114,320.22149324417114,320.22149324417114,320.22149324417114,320.22149324417114,320.22149324417114,320.22149324417114,325.3966374397278,2,5.322232484817505,None,,,,,,,,,,,,,,,,,,169,,2025-03-03_11h01.44.830,comp,2024.2.4,57.318576076900264,2025-03-03 11h02.01.970749 -0500,
116,116,0,critical,wdh,35.0,2.1,lower,57.0,133.0,70.0,70.0,133.0,57.0,1,1.612877607345581,None,,,,,0,0,0,0,0,116,116,32,325.42053174972534,,,,,,,,,,,,,,,,,,,,,,,,,,,,,,,,,,,,,,,,,,,,,,,,,,,,,,,,,,,,,,,,,,,,,,,,,,,,,,,,,57.0,133.0,70.0,70.0,133.0,57.0,2.1,2.11,-198,255,0,275,160,-290,325.39846086502075,325.39857482910156,325.4042184352875,325.42053174972534,325.5595118999481,325.5595118999481,325.5595118999481,325.5595118999481,325.5595118999481,325.5595118999481,325.5595118999481,327.0395917892456,1,1.612877607345581,None,,,,,,,,,,,,,,,,,,169,,2025-03-03_11h01.44.830,comp,2024.2.4,57.318576076900264,2025-03-03 11h02.01.970749 -0500,
117,117,0,critical,hdw,20.0,2.1,lower,133.0,57.0,78.0,78.0,57.0,133.0,1,2.2177059650421143,None,,,,,0,0,0,0,0,117,117,22,327.0551769733429,,,,,,,,,,,,,,,,,,,,,,,,,,,,,,,,,,,,,,,,,,,,,,,,,,,,,,,,,,,,,,,,,,,,,,,,,,,,,,,,,133.0,57.0,78.0,78.0,57.0,133.0,2.1,2.12,-164,-263,0,-269,202,267,327.04117250442505,327.04124999046326,327.0444986820221,327.0551769733429,327.2079658508301,327.2079658508301,327.2079658508301,327.2079658508301,327.2079658508301,327.2079658508301,327.2079658508301,329.27475142478943,1,2.2177059650421143,None,,,,,,,,,,,,,,,,,,169,,2025-03-03_11h01.44.830,comp,2024.2.4,57.318576076900264,2025-03-03 11h02.01.970749 -0500,
118,118,0,critical,dwh,20.0,4.0,lower,78.0,78.0,57.0,133.0,133.0,57.0,2,3.061985969543457,None,,,,,0,0,0,0,0,118,118,70,329.29143810272217,,,,,,,,,,,,,,,,,,,,,,,,,,,,,,,,,,,,,,,,,,,,,,,,,,,,,,,,,,,,,,,,,,,,,,,,,,,,,,,,,78.0,78.0,57.0,133.0,133.0,57.0,4.0,4.1,-202,-289,0,16,191,-254,329.27647066116333,329.27656412124634,329.2806074619293,329.29143810272217,329.44347071647644,329.44347071647644,329.44347071647644,329.44347071647644,329.44347071647644,329.44347071647644,329.44347071647644,332.36122822761536,2,3.061985969543457,None,,,,,,,,,,,,,,,,,,169,,2025-03-03_11h01.44.830,comp,2024.2.4,57.318576076900264,2025-03-03 11h02.01.970749 -0500,
119,119,0,critical,whd,20.0,2.1,lower,57.0,133.0,133.0,57.0,78.0,78.0,2,1.0311992168426514,None,,,,,0,0,0,0,0,119,119,14,332.37777638435364,,,,,,,,,,,,,,,,,,,,,,,,,,,,,,,,,,,,,,,,,,,,,,,,,,,,,,,,,,,,,,,,,,,,,,,,,,,,,,,,,57.0,133.0,133.0,57.0,78.0,78.0,2.1,2.11,-191,284,0,284,164,-252,332.3629081249237,332.3629891872406,332.3671088218689,332.37777638435364,332.53266763687134,332.53266763687134,332.53266763687134,332.53266763687134,332.53266763687134,332.53266763687134,332.53266763687134,333.41461539268494,2,1.0311992168426514,None,,,,,,,,,,,,,,,,,,169,,2025-03-03_11h01.44.830,comp,2024.2.4,57.318576076900264,2025-03-03 11h02.01.970749 -0500,
120,120,0,critical,whd,35.0,3.0,lower,57.0,133.0,133.0,57.0,70.0,70.0,1,1.9943218231201172,None,,,,,0,0,0,0,0,120,120,86,333.43063163757324,,,,,,,,,,,,,,,,,,,,,,,,,,,,,,,,,,,,,,,,,,,,,,,,,,,,,,,,,,,,,,,,,,,,,,,,,,,,,,,,,57.0,133.0,133.0,57.0,70.0,70.0,3.0,3.1,-191,253,0,8,160,-285,333.416220664978,333.4162971973419,333.41975569725037,333.43063163757324,333.5759246349335,333.5759246349335,333.5759246349335,333.5759246349335,333.5759246349335,333.5759246349335,333.5759246349335,335.4431383609772,1,1.9943218231201172,None,,,,,,,,,,,,,,,,,,169,,2025-03-03_11h01.44.830,comp,2024.2.4,57.318576076900264,2025-03-03 11h02.01.970749 -0500,
121,121,0,filler_square,None,None,None,None,None,None,None,None,None,None,1,1.017695665359497,None,,,,,0,0,0,0,0,121,121,190,335.4635841846466,,,,,,,,,,,,,,,,,,,,,,,,,,,,,,,,,,,,,,,,,,,,,,,,,,,,,,,,,,,,,,,,,,,,,,,,,,,,,,,,,91.04008089891258,91.04008089891258,69.79341910587193,79.50632729939615,78.10771457537271,69.58672758028037,1.0,1.3,299,-279,480,-269,651,-285,335.4449231624603,335.4450011253357,335.4482932090759,335.4635841846466,335.6099102497101,335.6099102497101,335.6099102497101,335.6099102497101,335.6099102497101,335.6099102497101,335.6099102497101,336.4968202114105,1,1.017695665359497,None,,,,,,,,,,,,,,,,,,169,,2025-03-03_11h01.44.830,comp,2024.2.4,57.318576076900264,2025-03-03 11h02.01.970749 -0500,
122,122,0,critical,hwd,35.0,2.1,lower,133.0,57.0,57.0,133.0,70.0,70.0,2,2.095637559890747,None,,,,,0,0,0,0,0,122,122,40,336.51349925994873,,,,,,,,,,,,,,,,,,,,,,,,,,,,,,,,,,,,,,,,,,,,,,,,,,,,,,,,,,,,,,,,,,,,,,,,,,,,,,,,,133.0,57.0,57.0,133.0,70.0,70.0,2.1,2.12,-191,-265,0,-262,198,276,336.4985444545746,336.49868083000183,336.5022933483124,336.51349925994873,336.6664686203003,336.6664686203003,336.6664686203003,336.6664686203003,336.6664686203003,336.6664686203003,336.6664686203003,338.6152560710907,2,2.095637559890747,None,,,,,,,,,,,,,,,,,,169,,2025-03-03_11h01.44.830,comp,2024.2.4,57.318576076900264,2025-03-03 11h02.01.970749 -0500,
123,123,0,critical,hdw,20.0,1.0,lower,133.0,57.0,78.0,78.0,57.0,133.0,2,3.540875196456909,None,,,,,0,0,0,0,0,123,123,114,338.6362462043762,,,,,,,,,,,,,,,,,,,,,,,,,,,,,,,,,,,,,,,,,,,,,,,,,,,,,,,,,,,,,,,,,,,,,,,,,,,,,,,,,133.0,57.0,78.0,78.0,57.0,133.0,1.0,1.3,316,-263,480,-289,682,-286,338.61682510375977,338.6169054508209,338.6204786300659,338.6362462043762,338.7780728340149,338.7780728340149,338.7780728340149,338.7780728340149,338.7780728340149,338.7780728340149,338.7780728340149,342.1943542957306,2,3.540875196456909,None,,,,,,,,,,,,,,,,,,169,,2025-03-03_11h01.44.830,comp,2024.2.4,57.318576076900264,2025-03-03 11h02.01.970749 -0500,
124,124,0,filler_random,None,None,None,None,None,None,None,None,None,None,3,1.6068456172943115,None,,,,,0,0,0,0,0,124,124,158,342.2106056213379,,,,,,,,,,,,,,,,,,,,,,,,,,,,,,,,,,,,,,,,,,,,,,,,,,,,,,,,,,,,,,,,,,,,,,,,,,,,,,,,,85.72333455424311,114.48144339263709,74.47697303222449,139.14984312465006,104.24175651260259,152.27933994764496,3.0,3.1,-223,258,0,-3,242,-258,342.1960859298706,342.1961627006531,342.19951272010803,342.2106056213379,342.36164951324463,342.36164951324463,342.36164951324463,342.36164951324463,342.36164951324463,342.36164951324463,342.36164951324463,343.83087944984436,3,1.6068456172943115,None,,,,,,,,,,,,,,,,,,169,,2025-03-03_11h01.44.830,comp,2024.2.4,57.318576076900264,2025-03-03 11h02.01.970749 -0500,
125,125,0,filler_square,None,None,None,None,None,None,None,None,None,None,3,1.044644832611084,None,,,,,0,0,0,0,0,125,125,193,343.85220766067505,,,,,,,,,,,,,,,,,,,,,,,,,,,,,,,,,,,,,,,,,,,,,,,,,,,,,,,,,,,,,,,,,,,,,,,,,,,,,,,,,70.62649498142248,90.21922957975232,133.49013295302356,78.29921409398872,178.70991408947714,178.70991408947714,2.2,2.22,-180,270,0,-288,225,-260,343.8330433368683,343.83312606811523,343.8364658355713,343.85220766067505,343.9988052845001,343.9988052845001,343.9988052845001,343.9988052845001,343.9988052845001,343.9988052845001,343.9988052845001,344.91216015815735,3,1.044644832611084,None,,,,,,,,,,,,,,,,,,169,,2025-03-03_11h01.44.830,comp,2024.2.4,57.318576076900264,2025-03-03 11h02.01.970749 -0500,
126,126,0,filler_square,None,None,None,None,None,None,None,None,None,None,2,0.8171274662017822,None,,,,,0,0,0,0,0,126,126,176,344.9285316467285,,,,,,,,,,,,,,,,,,,,,,,,,,,,,,,,,,,,,,,,,,,,,,,,,,,,,,,,,,,,,,,,,,,,,,,,,,,,,,,,,96.77172801829475,62.79981401807265,153.0491998066264,153.0491998066264,94.21550561519703,125.58279325059287,1.0,1.3,276,-289,480,-262,715,-257,344.9139964580536,344.91407680511475,344.91745257377625,344.9285316467285,345.0858907699585,345.0858907699585,345.0858907699585,345.0858907699585,345.0858907699585,345.0858907699585,345.0858907699585,345.7505578994751,2,0.8171274662017822,None,,,,,,,,,,,,,,,,,,169,,2025-03-03_11h01.44.830,comp,2024.2.4,57.318576076900264,2025-03-03 11h02.01.970749 -0500,
127,127,0,critical,hdw,35.0,3.0,lower,133.0,57.0,70.0,70.0,57.0,133.0,3,1.5617988109588623,None,,,,,0,0,0,0,0,127,127,110,345.76710271835327,,,,,,,,,,,,,,,,,,,,,,,,,,,,,,,,,,,,,,,,,,,,,,,,,,,,,,,,,,,,,,,,,,,,,,,,,,,,,,,,,133.0,57.0,70.0,70.0,57.0,133.0,3.0,3.2,-160,-282,0,11,198,259,345.75229835510254,345.7523829936981,345.7555751800537,345.76710271835327,345.9187502861023,345.9187502861023,345.9187502861023,345.9187502861023,345.9187502861023,345.9187502861023,345.9187502861023,347.33112359046936,3,1.5617988109588623,None,,,,,,,,,,,,,,,,,,169,,2025-03-03_11h01.44.830,comp,2024.2.4,57.318576076900264,2025-03-03 11h02.01.970749 -0500,
128,128,0,filler_square,None,None,None,None,None,None,None,None,None,None,2,1.542374610900879,None,,,,,0,0,0,0,0,128,128,207,347.34723806381226,,,,,,,,,,,,,,,,,,,,,,,,,,,,,,,,,,,,,,,,,,,,,,,,,,,,,,,,,,,,,,,,,,,,,,,,,,,,,,,,,57.219443795769024,58.06978171175865,59.99348821168909,57.123068022024306,60.46115248282763,60.46115248282763,1.0,1.2,-154,-4,0,-15,155,15,347.3330075740814,347.33308959007263,347.3366553783417,347.34723806381226,347.4955687522888,347.4955687522888,347.4955687522888,347.4955687522888,347.4955687522888,347.4955687522888,347.4955687522888,348.8958566188812,2,1.542374610900879,None,,,,,,,,,,,,,,,,,,169,,2025-03-03_11h01.44.830,comp,2024.2.4,57.318576076900264,2025-03-03 11h02.01.970749 -0500,
129,129,0,critical,dhw,20.0,4.0,upper,141.0,141.0,200.0,125.0,125.0,200.0,3,3.7685749530792236,None,,,,,0,0,0,0,0,129,129,59,348.9129285812378,,,,,,,,,,,,,,,,,,,,,,,,,,,,,,,,,,,,,,,,,,,,,,,,,,,,,,,,,,,,,,,,,,,,,,,,,,,,,,,,,141.0,141.0,200.0,125.0,125.0,200.0,4.0,4.1,-229,-265,0,-3,258,-271,348.89738845825195,348.8974680900574,348.9010946750641,348.9129285812378,349.0649371147156,349.0649371147156,349.0649371147156,349.0649371147156,349.0649371147156,349.0649371147156,349.0649371147156,352.69967460632324,3,3.7685749530792236,None,,,,,,,,,,,,,,,,,,169,,2025-03-03_11h01.44.830,comp,2024.2.4,57.318576076900264,2025-03-03 11h02.01.970749 -0500,
130,130,0,critical,dhw,35.0,1.0,lower,70.0,70.0,133.0,57.0,57.0,133.0,3,1.2934412956237793,None,,,,,0,0,0,0,0,130,130,48,352.71544575691223,,,,,,,,,,,,,,,,,,,,,,,,,,,,,,,,,,,,,,,,,,,,,,,,,,,,,,,,,,,,,,,,,,,,,,,,,,,,,,,,,70.0,70.0,133.0,57.0,57.0,133.0,1.0,1.3,320,-279,480,-270,671,-253,352.70132327079773,352.7014033794403,352.7051420211792,352.71544575691223,352.8652584552765,352.8652584552765,352.8652584552765,352.8652584552765,352.8652584552765,352.8652584552765,352.8652584552765,354.0217196941376,3,1.2934412956237793,None,,,,,,,,,,,,,,,,,,169,,2025-03-03_11h01.44.830,comp,2024.2.4,57.318576076900264,2025-03-03 11h02.01.970749 -0500,
131,131,0,critical,whd,20.0,3.0,lower,57.0,133.0,133.0,57.0,78.0,78.0,2,4.552845478057861,None,,,,,0,0,0,0,0,131,131,92,354.04036831855774,,,,,,,,,,,,,,,,,,,,,,,,,,,,,,,,,,,,,,,,,,,,,,,,,,,,,,,,,,,,,,,,,,,,,,,,,,,,,,,,,57.0,133.0,133.0,57.0,78.0,78.0,3.0,3.1,-191,283,0,5,164,-282,354.0232892036438,354.02336525917053,354.02650451660156,354.04036831855774,354.18221044540405,354.18221044540405,354.18221044540405,354.18221044540405,354.18221044540405,354.18221044540405,354.18221044540405,358.6018636226654,2,4.552845478057861,None,,,,,,,,,,,,,,,,,,169,,2025-03-03_11h01.44.830,comp,2024.2.4,57.318576076900264,2025-03-03 11h02.01.970749 -0500,
132,132,0,filler_square,None,None,None,None,None,None,None,None,None,None,1,1.1022357940673828,None,,,,,0,0,0,0,0,132,132,184,358.6188864707947,,,,,,,,,,,,,,,,,,,,,,,,,,,,,,,,,,,,,,,,,,,,,,,,,,,,,,,,,,,,,,,,,,,,,,,,,,,,,,,,,121.89258679329004,121.89258679329004,70.11355161253721,94.37892343687244,114.61819543694644,109.64435179437658,3.0,3.1,-204,277,0,-11,198,-275,358.6041314601898,358.6042721271515,358.60808205604553,358.6188864707947,358.76818776130676,358.76818776130676,358.76818776130676,358.76818776130676,358.76818776130676,358.76818776130676,358.76818776130676,359.734423160553,1,1.1022357940673828,None,,,,,,,,,,,,,,,,,,169,,2025-03-03_11h01.44.830,comp,2024.2.4,57.318576076900264,2025-03-03 11h02.01.970749 -0500,
133,133,0,critical,dhw,35.0,2.1,lower,70.0,70.0,133.0,57.0,57.0,133.0,3,2.690477132797241,None,,,,,0,0,0,0,0,133,133,24,359.750479221344,,,,,,,,,,,,,,,,,,,,,,,,,,,,,,,,,,,,,,,,,,,,,,,,,,,,,,,,,,,,,,,,,,,,,,,,,,,,,,,,,70.0,70.0,133.0,57.0,57.0,133.0,2.1,2.12,-160,-263,0,-277,191,283,359.7359402179718,359.7360363006592,359.7402379512787,359.750479221344,359.9017233848572,359.9017233848572,359.9017233848572,359.9017233848572,359.9017233848572,359.9017233848572,359.9017233848572,362.4541244506836,3,2.690477132797241,None,,,,,,,,,,,,,,,,,,169,,2025-03-03_11h01.44.830,comp,2024.2.4,57.318576076900264,2025-03-03 11h02.01.970749 -0500,
134,134,0,filler_random,None,None,None,None,None,None,None,None,None,None,3,1.7312166690826416,None,,,,,0,0,0,0,0,134,134,135,362.4700527191162,,,,,,,,,,,,,,,,,,,,,,,,,,,,,,,,,,,,,,,,,,,,,,,,,,,,,,,,,,,,,,,,,,,,,,,,,,,,,,,,,119.58619276409061,89.94802416020329,100.18385622952653,186.66439618601595,164.17100673410408,99.50207524878803,2.2,2.21,-234,-280,0,274,239,288,362.4559540748596,362.4560308456421,362.45941853523254,362.4700527191162,362.6188294887543,362.6188294887543,362.6188294887543,362.6188294887543,362.6188294887543,362.6188294887543,362.6188294887543,364.20962047576904,3,1.7312166690826416,None,,,,,,,,,,,,,,,,,,169,,2025-03-03_11h01.44.830,comp,2024.2.4,57.318576076900264,2025-03-03 11h02.01.970749 -0500,
135,135,0,critical,wdh,20.0,2.1,upper,125.0,200.0,141.0,141.0,200.0,125.0,1,0.8710310459136963,None,,,,,0,0,0,0,0,135,135,35,364.2264497280121,,,,,,,,,,,,,,,,,,,,,,,,,,,,,,,,,,,,,,,,,,,,,,,,,,,,,,,,,,,,,,,,,,,,,,,,,,,,,,,,,125.0,200.0,141.0,141.0,200.0,125.0,2.1,2.11,-266,269,0,271,229,-251,364.2112867832184,364.211364030838,364.21503233909607,364.2264497280121,364.36864018440247,364.36864018440247,364.36864018440247,364.36864018440247,364.36864018440247,364.36864018440247,364.36864018440247,365.1069927215576,1,0.8710310459136963,None,,,,,,,,,,,,,,,,,,169,,2025-03-03_11h01.44.830,comp,2024.2.4,57.318576076900264,2025-03-03 11h02.01.970749 -0500,
136,136,0,critical,dwh,35.0,1.0,upper,127.0,127.0,125.0,200.0,200.0,125.0,2,1.5061967372894287,None,,,,,0,0,0,0,0,136,136,61,365.1270706653595,,,,,,,,,,,,,,,,,,,,,,,,,,,,,,,,,,,,,,,,,,,,,,,,,,,,,,,,,,,,,,,,,,,,,,,,,,,,,,,,,127.0,127.0,125.0,200.0,200.0,125.0,1.0,1.1,-740,287,-480,273,-222,282,365.10855412483215,365.10863161087036,365.11217856407166,365.1270706653595,365.2701897621155,365.2701897621155,365.2701897621155,365.2701897621155,365.2701897621155,365.2701897621155,365.2701897621155,366.6364252567291,2,1.5061967372894287,None,,,,,,,,,,,,,,,,,,169,,2025-03-03_11h01.44.830,comp,2024.2.4,57.318576076900264,2025-03-03 11h02.01.970749 -0500,
137,137,0,critical,dhw,20.0,2.1,upper,141.0,141.0,200.0,125.0,125.0,200.0,2,2.208872079849243,None,,,,,0,0,0,0,0,137,137,27,366.6566216945648,,,,,,,,,,,,,,,,,,,,,,,,,,,,,,,,,,,,,,,,,,,,,,,,,,,,,,,,,,,,,,,,,,,,,,,,,,,,,,,,,141.0,141.0,200.0,125.0,125.0,200.0,2.1,2.12,-229,-277,0,-255,258,257,366.63797068595886,366.63804817199707,366.64153718948364,366.6566216945648,366.80253076553345,366.80253076553345,366.80253076553345,366.80253076553345,366.80253076553345,366.80253076553345,366.80253076553345,368.8695397377014,2,2.208872079849243,None,,,,,,,,,,,,,,,,,,169,,2025-03-03_11h01.44.830,comp,2024.2.4,57.318576076900264,2025-03-03 11h02.01.970749 -0500,
138,138,0,filler_square,None,None,None,None,None,None,None,None,None,None,1,2.295146942138672,None,,,,,0,0,0,0,0,138,138,199,368.8900957107544,,,,,,,,,,,,,,,,,,,,,,,,,,,,,,,,,,,,,,,,,,,,,,,,,,,,,,,,,,,,,,,,,,,,,,,,,,,,,,,,,66.88694178407096,67.720944066957,70.51266440593132,70.51266440593132,65.95229587342635,61.508148661734516,3.0,3.1,-165,289,0,-1,162,-261,368.87126660346985,368.8713445663452,368.8747138977051,368.8900957107544,369.04434609413147,369.04434609413147,369.04434609413147,369.04434609413147,369.04434609413147,369.04434609413147,369.04434609413147,371.2039337158203,1,2.295146942138672,None,,,,,,,,,,,,,,,,,,169,,2025-03-03_11h01.44.830,comp,2024.2.4,57.318576076900264,2025-03-03 11h02.01.970749 -0500,
139,139,0,critical,dhw,35.0,2.1,lower,70.0,70.0,133.0,57.0,57.0,133.0,2,2.0284032821655273,None,,,,,0,0,0,0,0,139,139,0,371.22097277641296,,,,,,,,,,,,,,,,,,,,,,,,,,,,,,,,,,,,,,,,,,,,,,,,,,,,,,,,,,,,,,,,,,,,,,,,,,,,,,,,,70.0,70.0,133.0,57.0,57.0,133.0,2.1,2.11,-160,274,0,268,191,-262,371.2055563926697,371.2056350708008,371.2091908454895,371.22097277641296,371.37212920188904,371.37212920188904,371.37212920188904,371.37212920188904,371.37212920188904,371.37212920188904,371.37212920188904,373.2562005519867,2,2.0284032821655273,None,,,,,,,,,,,,,,,,,,169,,2025-03-03_11h01.44.830,comp,2024.2.4,57.318576076900264,2025-03-03 11h02.01.970749 -0500,
