thisN,thisTrialN,thisRepN,effect,order,distance,config,diag,h_1,w_1,h_2,w_2,h_3,w_3,rect_choice.keys,rect_choice.rt,rect_choice.duration,instructions_loop.thisRepN,instructions_loop.thisTrialN,instructions_loop.thisN,instructions_loop.thisIndex,blocks.thisRepN,blocks.thisTrialN,blocks.thisN,blocks.thisIndex,trials.thisRepN,trials.thisTrialN,trials.thisN,trials.thisIndex,thisRow.t,notes,consent.started,agree_button.started,decline_button.started,consent_img.started,mouse.started,consent.stopped,agree_button.numClicks,agree_button.timesOn,agree_button.timesOff,decline_button.numClicks,decline_button.timesOn,decline_button.timesOff,mouse.x,mouse.y,mouse.leftButton,mouse.midButton,mouse.rightButton,mouse.time,mouse.clicked_name,exp_params.started,exp_params.stopped,welcome.started,welcome_text.started,welcome.stopped,instructions_1.started,instructions_1_text_1.started,instructions_1_text_2.started,key_resp.started,instructions_1.stopped,instructions_loop.key_resp.keys,instructions_loop.key_resp.rt,instructions_loop.key_resp.duration,instructions_2.started,instructions_2_text_1.started,instructions_2_text_2.started,key_resp_2.started,instructions_2.stopped,instructions_loop.key_resp_2.keys,instructions_loop.key_resp_2.rt,instructions_loop.key_resp_2.duration,instructions_3.started,instructions_3_text_1.started,r1_instr3.started,r2_instr3.started,r3_instr3.started,r1_instr3_label.started,r2_instr3_label.started,r3_instr3_label.started,instructions_3_text_3.started,instructions_3_text_4.started,key_resp_3.started,instructions_3.stopped,instructions_loop.key_resp_3.keys,instructions_loop.key_resp_3.rt,instructions_loop.key_resp_3.duration,instructions_4.started,instructions_4_text_1.started,instructions_4_text_3.started,instructions_4_text_2.started,key_resp_4.started,instructions_4.stopped,instructions_loop.key_resp_4.keys,instructions_loop.key_resp_4.rt,instructions_loop.key_resp_4.duration,instructions_5.started,instructions_5_text_1.started,instructions_5_text_2.started,key_resp_5.started,instructions_5.stopped,instructions_loop.key_resp_5.keys,instructions_loop.key_resp_5.rt,instructions_loop.key_resp_5.duration,start_exp.started,start_exp_text.started,key_resp_6.started,start_exp.stopped,key_resp_6.keys,key_resp_6.rt,key_resp_6.duration,h_1_tmp,w_1_tmp,h_2_tmp,w_2_tmp,h_3_tmp,w_3_tmp,config_tmp,config_tmp_1,r_1_x,r_1_y,r_2_x,r_2_y,r_3_x,r_3_y,pre_trial.started,pre_trial.stopped,choice_trial.started,rect_choice.started,r_1.started,r_2.started,r_3.started,r_1_label.started,r_2_label.started,r_3_label.started,prompt.started,choice_trial.stopped,trials.rect_choice.keys,trials.rect_choice.rt,trials.rect_choice.duration,end_block.started,end_block_text.started,end_block.stopped,end.started,end_text.started,key_resp_7.started,end.stopped,key_resp_7.keys,key_resp_7.rt,key_resp_7.duration,debriefing.started,debrief_form.started,end_debrief.started,debriefing.stopped,end_debrief.keys,end_debrief.rt,end_debrief.duration,participant,computer,date,expName,psychopyVersion,frameRate,expStart,
,,,,,,,,,,,,,,,,,,,,,,,,,,,,,,,0.015289068222045898,0.04181051254272461,0.04181051254272461,0.04181051254272461,0.014942646026611328,44.43056321144104,1,[44.38751769065857],[44.38752818107605],0,,,"[323.0, -89.0]","[237.0, -504.0]","[1, 1]","[0, 0]","[0, 0]","[30.259183168411255, 44.41424369812012]","[None, 'agree_button']",,,,,,,,,,,,,,,,,,,,,,,,,,,,,,,,,,,,,,,,,,,,,,,,,,,,,,,,,,,,,,,,,,,,,,,,,,,,,,,,,,,,,,,,,,,,,,,,,,,,,,,,,,,16,5,2025-02-18_14h06.17.019,comp,2024.2.4,60.05091215219812,2025-02-18 14h06.24.783075 -0500,
,,,,,,,,,,,,,,,,,,,,,,,,,,,,,,,,,,,,,,,,,,,,,,,,,,44.43090605735779,44.43094348907471,,,,,,,,,,,,,,,,,,,,,,,,,,,,,,,,,,,,,,,,,,,,,,,,,,,,,,,,,,,,,,,,,,,,,,,,,,,,,,,,,,,,,,,,,,,,,,,,,,,,,,,,,16,5,2025-02-18_14h06.17.019,comp,2024.2.4,60.05091215219812,2025-02-18 14h06.24.783075 -0500,
,,,,,,,,,,,,,,,,,,,,,,,,,,,,,,,,,,,,,,,,,,,,,,,,,,,,44.430967807769775,44.44419264793396,46.44240379333496,,,,,,,,,,,,,,,,,,,,,,,,,,,,,,,,,,,,,,,,,,,,,,,,,,,,,,,,,,,,,,,,,,,,,,,,,,,,,,,,,,,,,,,,,,,,,,,,,,,,,,16,5,2025-02-18_14h06.17.019,comp,2024.2.4,60.05091215219812,2025-02-18 14h06.24.783075 -0500,
0,0,0,,,,,,,,,,,,,,,0,0,0,0,,,,,,,,,46.459120750427246,,,,,,,,,,,,,,,,,,,,,,,,,,46.44296455383301,46.459120750427246,46.459120750427246,47.94242858886719,50.27708959579468,space,2.31674861907959,None,50.27717185020447,50.29245138168335,50.29245138168335,51.80956959724426,68.8604326248169,space,17.038705348968506,None,68.86051654815674,68.88402676582336,68.88402676582336,68.88402676582336,68.88402676582336,68.88402676582336,68.88402676582336,68.88402676582336,68.88402676582336,68.88402676582336,70.37571620941162,74.0769898891449,space,3.6885180473327637,None,74.0770754814148,74.09230613708496,74.09230613708496,74.09230613708496,75.5920684337616,81.14302062988281,space,5.536347150802612,None,81.14310550689697,81.15865325927734,81.15865325927734,82.65857458114624,83.87623357772827,space,1.200153112411499,None,83.87634515762329,83.89202094078064,83.89202094078064,85.009512424469,space,1.1003649234771729,None,,,,,,,,,,,,,,,,,,,,,,,,,,,,,,,,,,,,,,,,,,,,,,,16,5,2025-02-18_14h06.17.019,comp,2024.2.4,60.05091215219812,2025-02-18 14h06.24.783075 -0500,
0,0,0,critical,wdh,35.0,2.1,upper,125.0,200.0,127.0,127.0,200.0,125.0,1,42.140432596206665,None,,,,,0,0,0,0,0,0,0,33,85.06832385063171,,,,,,,,,,,,,,,,,,,,,,,,,,,,,,,,,,,,,,,,,,,,,,,,,,,,,,,,,,,,,,,,,,,,,,,,,,,,,,,,,125.0,200.0,127.0,127.0,200.0,125.0,2.1,2.12,-260,-250,0,-250,222,274,85.05494451522827,85.05499076843262,85.05699467658997,85.06832385063171,85.21180725097656,85.21180725097656,85.21180725097656,85.21180725097656,85.21180725097656,85.21180725097656,85.21180725097656,127.22599959373474,1,42.140432596206665,None,,,,,,,,,,,,,,,,,,16,5,2025-02-18_14h06.17.019,comp,2024.2.4,60.05091215219812,2025-02-18 14h06.24.783075 -0500,
1,1,0,critical,wdh,35.0,3.0,lower,57.0,133.0,70.0,70.0,133.0,57.0,3,10.0220947265625,None,,,,,0,0,0,0,0,1,1,74,127.241286277771,,,,,,,,,,,,,,,,,,,,,,,,,,,,,,,,,,,,,,,,,,,,,,,,,,,,,,,,,,,,,,,,,,,,,,,,,,,,,,,,,57.0,133.0,70.0,70.0,133.0,57.0,3.0,3.1,-198,267,0,11,160,-250,127.22679400444031,127.22683310508728,127.22913646697998,127.241286277771,127.39132165908813,127.39132165908813,127.39132165908813,127.39132165908813,127.39132165908813,127.39132165908813,127.39132165908813,137.2757818698883,3,10.0220947265625,None,,,,,,,,,,,,,,,,,,16,5,2025-02-18_14h06.17.019,comp,2024.2.4,60.05091215219812,2025-02-18 14h06.24.783075 -0500,
2,2,0,critical,dhw,35.0,1.0,lower,70.0,70.0,133.0,57.0,57.0,133.0,2,15.388168573379517,None,,,,,0,0,0,0,0,2,2,48,137.2910978794098,,,,,,,,,,,,,,,,,,,,,,,,,,,,,,,,,,,,,,,,,,,,,,,,,,,,,,,,,,,,,,,,,,,,,,,,,,,,,,,,,70.0,70.0,133.0,57.0,57.0,133.0,1.0,1.2,-160,-1,0,-11,191,8,137.27655363082886,137.27659606933594,137.27861261367798,137.2910978794098,137.441171169281,137.441171169281,137.441171169281,137.441171169281,137.441171169281,137.441171169281,137.441171169281,152.69235038757324,2,15.388168573379517,None,,,,,,,,,,,,,,,,,,16,5,2025-02-18_14h06.17.019,comp,2024.2.4,60.05091215219812,2025-02-18 14h06.24.783075 -0500,
3,3,0,critical,hdw,20.0,2.1,upper,200.0,125.0,141.0,141.0,125.0,200.0,1,25.66731572151184,None,,,,,0,0,0,0,0,3,3,47,152.70763325691223,,,,,,,,,,,,,,,,,,,,,,,,,,,,,,,,,,,,,,,,,,,,,,,,,,,,,,,,,,,,,,,,,,,,,,,,,,,,,,,,,200.0,125.0,141.0,141.0,125.0,200.0,2.1,2.11,-229,260,0,289,266,-254,152.69317984580994,152.6932237148285,152.69588422775269,152.70763325691223,152.85788869857788,152.85788869857788,152.85788869857788,152.85788869857788,152.85788869857788,152.85788869857788,152.85788869857788,178.39189291000366,1,25.66731572151184,None,,,,,,,,,,,,,,,,,,16,5,2025-02-18_14h06.17.019,comp,2024.2.4,60.05091215219812,2025-02-18 14h06.24.783075 -0500,
4,4,0,critical,wdh,20.0,4.0,lower,57.0,133.0,78.0,78.0,133.0,57.0,3,5.144753456115723,None,,,,,0,0,0,0,0,4,4,82,178.407160282135,,,,,,,,,,,,,,,,,,,,,,,,,,,,,,,,,,,,,,,,,,,,,,,,,,,,,,,,,,,,,,,,,,,,,,,,,,,,,,,,,57.0,133.0,78.0,78.0,133.0,57.0,4.0,4.1,-202,-257,0,-13,164,-269,178.39267349243164,178.39271545410156,178.39501285552979,178.407160282135,178.55733799934387,178.55733799934387,178.55733799934387,178.55733799934387,178.55733799934387,178.55733799934387,178.55733799934387,183.5585868358612,3,5.144753456115723,None,,,,,,,,,,,,,,,,,,16,5,2025-02-18_14h06.17.019,comp,2024.2.4,60.05091215219812,2025-02-18 14h06.24.783075 -0500,
5,5,0,critical,dwh,20.0,4.0,lower,78.0,78.0,57.0,133.0,133.0,57.0,3,19.761316537857056,None,,,,,0,0,0,0,0,5,5,70,183.57422399520874,,,,,,,,,,,,,,,,,,,,,,,,,,,,,,,,,,,,,,,,,,,,,,,,,,,,,,,,,,,,,,,,,,,,,,,,,,,,,,,,,78.0,78.0,57.0,133.0,133.0,57.0,4.0,4.1,-202,-276,0,11,191,-272,183.55942130088806,183.5594642162323,183.56197690963745,183.57422399520874,183.72396087646484,183.72396087646484,183.72396087646484,183.72396087646484,183.72396087646484,183.72396087646484,183.72396087646484,203.34144639968872,3,19.761316537857056,None,,,,,,,,,,,,,,,,,,16,5,2025-02-18_14h06.17.019,comp,2024.2.4,60.05091215219812,2025-02-18 14h06.24.783075 -0500,
6,6,0,critical,whd,35.0,2.1,upper,125.0,200.0,200.0,125.0,127.0,127.0,2,30.688889503479004,None,,,,,0,0,0,0,0,6,6,37,203.35712718963623,,,,,,,,,,,,,,,,,,,,,,,,,,,,,,,,,,,,,,,,,,,,,,,,,,,,,,,,,,,,,,,,,,,,,,,,,,,,,,,,,125.0,200.0,200.0,125.0,127.0,127.0,2.1,2.12,-258,-267,0,-280,222,281,203.34225845336914,203.34230017662048,203.34473204612732,203.35712718963623,203.50737643241882,203.50737643241882,203.50737643241882,203.50737643241882,203.50737643241882,203.50737643241882,203.50737643241882,234.0584671497345,2,30.688889503479004,None,,,,,,,,,,,,,,,,,,16,5,2025-02-18_14h06.17.019,comp,2024.2.4,60.05091215219812,2025-02-18 14h06.24.783075 -0500,
7,7,0,filler_random,None,None,None,None,None,None,None,None,None,None,2,1.661914348602295,None,,,,,0,0,0,0,0,7,7,161,234.07320499420166,,,,,,,,,,,,,,,,,,,,,,,,,,,,,,,,,,,,,,,,,,,,,,,,,,,,,,,,,,,,,,,,,,,,,,,,,,,,,,,,,102.25129252778112,64.83276469123524,96.207897508668,196.12907745699,72.9747931196767,120.99481428915732,1.0,1.2,-226,-3,0,16,255,-16,234.05936312675476,234.0594036579132,234.06185507774353,234.07320499420166,234.22344279289246,234.22344279289246,234.22344279289246,234.22344279289246,234.22344279289246,234.22344279289246,234.22344279289246,235.74125957489014,2,1.661914348602295,None,,,,,,,,,,,,,,,,,,16,5,2025-02-18_14h06.17.019,comp,2024.2.4,60.05091215219812,2025-02-18 14h06.24.783075 -0500,
8,8,0,critical,dwh,35.0,2.1,upper,127.0,127.0,125.0,200.0,200.0,125.0,3,6.938008546829224,None,,,,,0,0,0,0,0,8,8,5,235.75666904449463,,,,,,,,,,,,,,,,,,,,,,,,,,,,,,,,,,,,,,,,,,,,,,,,,,,,,,,,,,,,,,,,,,,,,,,,,,,,,,,,,127.0,127.0,125.0,200.0,200.0,125.0,2.1,2.11,-260,254,0,282,258,-274,235.74206638336182,235.74210810661316,235.7445206642151,235.75666904449463,235.90703558921814,235.90703558921814,235.90703558921814,235.90703558921814,235.90703558921814,235.90703558921814,235.90703558921814,242.70786118507385,3,6.938008546829224,None,,,,,,,,,,,,,,,,,,16,5,2025-02-18_14h06.17.019,comp,2024.2.4,60.05091215219812,2025-02-18 14h06.24.783075 -0500,
9,9,0,filler_square,None,None,None,None,None,None,None,None,None,None,1,8.571601390838623,None,,,,,0,0,0,0,0,9,9,180,242.72310781478882,,,,,,,,,,,,,,,,,,,,,,,,,,,,,,,,,,,,,,,,,,,,,,,,,,,,,,,,,,,,,,,,,,,,,,,,,,,,,,,,,72.55974279329388,64.47630839846455,57.38464935656231,58.162683632848534,74.7307126297623,74.7307126297623,3.0,3.2,-157,-282,0,11,162,263,242.708815574646,242.7088577747345,242.71202611923218,242.72310781478882,242.87312030792236,242.87312030792236,242.87312030792236,242.87312030792236,242.87312030792236,242.87312030792236,242.87312030792236,251.30742526054382,1,8.571601390838623,None,,,,,,,,,,,,,,,,,,16,5,2025-02-18_14h06.17.019,comp,2024.2.4,60.05091215219812,2025-02-18 14h06.24.783075 -0500,
10,10,0,filler_random,None,None,None,None,None,None,None,None,None,None,1,1.771676778793335,None,,,,,0,0,0,0,0,10,10,168,251.32288527488708,,,,,,,,,,,,,,,,,,,,,,,,,,,,,,,,,,,,,,,,,,,,,,,,,,,,,,,,,,,,,,,,,,,,,,,,,,,,,,,,,197.40081537627185,179.23872587218125,80.22327245647948,143.4614427518179,190.7383232955103,64.73588755498074,1.0,1.3,223,-289,480,-271,680,-282,251.30834889411926,251.30839228630066,251.31095933914185,251.32288527488708,251.47323346138,251.47323346138,251.47323346138,251.47323346138,251.47323346138,251.47323346138,251.47323346138,253.1076033115387,1,1.771676778793335,None,,,,,,,,,,,,,,,,,,16,5,2025-02-18_14h06.17.019,comp,2024.2.4,60.05091215219812,2025-02-18 14h06.24.783075 -0500,
11,11,0,filler_square,None,None,None,None,None,None,None,None,None,None,1,1.9228570461273193,None,,,,,0,0,0,0,0,11,11,181,253.1229112148285,,,,,,,,,,,,,,,,,,,,,,,,,,,,,,,,,,,,,,,,,,,,,,,,,,,,,,,,,,,,,,,,,,,,,,,,,,,,,,,,,196.61720778731646,196.61720778731646,130.20091732639364,192.8795731469526,102.61549285313839,146.5850367736897,3.0,3.2,-291,-287,0,-14,266,286,253.1086070537567,253.10864925384521,253.11121320724487,253.1229112148285,253.27326726913452,253.27326726913452,253.27326726913452,253.27326726913452,253.27326726913452,253.27326726913452,253.27326726913452,255.05819749832153,1,1.9228570461273193,None,,,,,,,,,,,,,,,,,,16,5,2025-02-18_14h06.17.019,comp,2024.2.4,60.05091215219812,2025-02-18 14h06.24.783075 -0500,
12,12,0,critical,hdw,20.0,3.0,lower,133.0,57.0,78.0,78.0,57.0,133.0,1,4.3836352825164795,None,,,,,0,0,0,0,0,12,12,116,255.0728898048401,,,,,,,,,,,,,,,,,,,,,,,,,,,,,,,,,,,,,,,,,,,,,,,,,,,,,,,,,,,,,,,,,,,,,,,,,,,,,,,,,133.0,57.0,78.0,78.0,57.0,133.0,3.0,3.2,-164,-271,0,12,202,262,255.0590238571167,255.05906653404236,255.06120538711548,255.0728898048401,255.22309184074402,255.22309184074402,255.22309184074402,255.22309184074402,255.22309184074402,255.22309184074402,255.22309184074402,259.47416973114014,1,4.3836352825164795,None,,,,,,,,,,,,,,,,,,16,5,2025-02-18_14h06.17.019,comp,2024.2.4,60.05091215219812,2025-02-18 14h06.24.783075 -0500,
13,13,0,critical,hwd,20.0,2.1,upper,200.0,125.0,125.0,200.0,141.0,141.0,1,5.213889837265015,None,,,,,0,0,0,0,0,13,13,43,259.4896490573883,,,,,,,,,,,,,,,,,,,,,,,,,,,,,,,,,,,,,,,,,,,,,,,,,,,,,,,,,,,,,,,,,,,,,,,,,,,,,,,,,200.0,125.0,125.0,200.0,141.0,141.0,2.1,2.12,-258,-281,0,-274,266,271,259.47497844696045,259.4750211238861,259.47747445106506,259.4896490573883,259.6398561000824,259.6398561000824,259.6398561000824,259.6398561000824,259.6398561000824,259.6398561000824,259.6398561000824,264.70772981643677,1,5.213889837265015,None,,,,,,,,,,,,,,,,,,16,5,2025-02-18_14h06.17.019,comp,2024.2.4,60.05091215219812,2025-02-18 14h06.24.783075 -0500,
14,14,0,critical,hdw,35.0,2.1,lower,133.0,57.0,70.0,70.0,57.0,133.0,1,3.850785255432129,None,,,,,0,0,0,0,0,14,14,20,264.723046541214,,,,,,,,,,,,,,,,,,,,,,,,,,,,,,,,,,,,,,,,,,,,,,,,,,,,,,,,,,,,,,,,,,,,,,,,,,,,,,,,,133.0,57.0,70.0,70.0,57.0,133.0,2.1,2.12,-160,-261,0,-285,198,265,264.70855259895325,264.70859575271606,264.71107935905457,264.723046541214,264.872838973999,264.872838973999,264.872838973999,264.872838973999,264.872838973999,264.872838973999,264.872838973999,268.5906949043274,1,3.850785255432129,None,,,,,,,,,,,,,,,,,,16,5,2025-02-18_14h06.17.019,comp,2024.2.4,60.05091215219812,2025-02-18 14h06.24.783075 -0500,
15,15,0,critical,dwh,20.0,1.0,upper,141.0,141.0,125.0,200.0,200.0,125.0,3,7.039570569992065,None,,,,,0,0,0,0,0,15,15,67,268.60602927207947,,,,,,,,,,,,,,,,,,,,,,,,,,,,,,,,,,,,,,,,,,,,,,,,,,,,,,,,,,,,,,,,,,,,,,,,,,,,,,,,,141.0,141.0,125.0,200.0,200.0,125.0,1.0,1.3,214,-265,480,-269,738,-254,268.59151339530945,268.59155654907227,268.59357047080994,268.60602927207947,268.7563614845276,268.7563614845276,268.7563614845276,268.7563614845276,268.7563614845276,268.7563614845276,268.7563614845276,275.65785455703735,3,7.039570569992065,None,,,,,,,,,,,,,,,,,,16,5,2025-02-18_14h06.17.019,comp,2024.2.4,60.05091215219812,2025-02-18 14h06.24.783075 -0500,
16,16,0,critical,dwh,35.0,3.0,upper,127.0,127.0,125.0,200.0,200.0,125.0,2,2.861882448196411,None,,,,,0,0,0,0,0,16,16,63,275.672664642334,,,,,,,,,,,,,,,,,,,,,,,,,,,,,,,,,,,,,,,,,,,,,,,,,,,,,,,,,,,,,,,,,,,,,,,,,,,,,,,,,127.0,127.0,125.0,200.0,200.0,125.0,3.0,3.2,-260,-260,0,10,258,288,275.6586763858795,275.65872049331665,275.6608397960663,275.672664642334,275.8232846260071,275.8232846260071,275.8232846260071,275.8232846260071,275.8232846260071,275.8232846260071,275.8232846260071,278.5407121181488,2,2.861882448196411,None,,,,,,,,,,,,,,,,,,16,5,2025-02-18_14h06.17.019,comp,2024.2.4,60.05091215219812,2025-02-18 14h06.24.783075 -0500,
17,17,0,critical,wdh,35.0,2.1,upper,125.0,200.0,127.0,127.0,200.0,125.0,1,3.1854987144470215,None,,,,,0,0,0,0,0,17,17,9,278.55609679222107,,,,,,,,,,,,,,,,,,,,,,,,,,,,,,,,,,,,,,,,,,,,,,,,,,,,,,,,,,,,,,,,,,,,,,,,,,,,,,,,,125.0,200.0,127.0,127.0,200.0,125.0,2.1,2.11,-260,270,0,276,222,-285,278.5415301322937,278.54157185554504,278.54384565353394,278.55609679222107,278.7061839103699,278.7061839103699,278.7061839103699,278.7061839103699,278.7061839103699,278.7061839103699,278.7061839103699,281.7573010921478,1,3.1854987144470215,None,,,,,,,,,,,,,,,,,,16,5,2025-02-18_14h06.17.019,comp,2024.2.4,60.05091215219812,2025-02-18 14h06.24.783075 -0500,
18,18,0,critical,dwh,20.0,3.0,upper,141.0,141.0,125.0,200.0,200.0,125.0,2,3.6421263217926025,None,,,,,0,0,0,0,0,18,18,69,281.7726082801819,,,,,,,,,,,,,,,,,,,,,,,,,,,,,,,,,,,,,,,,,,,,,,,,,,,,,,,,,,,,,,,,,,,,,,,,,,,,,,,,,141.0,141.0,125.0,200.0,200.0,125.0,3.0,3.2,-266,-285,0,-3,258,286,281.7581145763397,281.75815773010254,281.7606294155121,281.7726082801819,281.9395258426666,281.9395258426666,281.9395258426666,281.9395258426666,281.9395258426666,281.9395258426666,281.9395258426666,285.4239649772644,2,3.6421263217926025,None,,,,,,,,,,,,,,,,,,16,5,2025-02-18_14h06.17.019,comp,2024.2.4,60.05091215219812,2025-02-18 14h06.24.783075 -0500,
19,19,0,critical,whd,35.0,2.1,lower,57.0,133.0,133.0,57.0,70.0,70.0,2,4.1110241413116455,None,,,,,0,0,0,0,0,19,19,12,285.43945360183716,,,,,,,,,,,,,,,,,,,,,,,,,,,,,,,,,,,,,,,,,,,,,,,,,,,,,,,,,,,,,,,,,,,,,,,,,,,,,,,,,57.0,133.0,133.0,57.0,70.0,70.0,2.1,2.11,-191,277,0,267,160,-280,285.4247612953186,285.4248044490814,285.4271767139435,285.43945360183716,285.58929109573364,285.58929109573364,285.58929109573364,285.58929109573364,285.58929109573364,285.58929109573364,285.58929109573364,289.5571675300598,2,4.1110241413116455,None,,,,,,,,,,,,,,,,,,16,5,2025-02-18_14h06.17.019,comp,2024.2.4,60.05091215219812,2025-02-18 14h06.24.783075 -0500,
20,20,0,critical,dhw,20.0,1.0,lower,78.0,78.0,133.0,57.0,57.0,133.0,2,1.8993051052093506,None,,,,,0,0,0,0,0,20,20,54,289.5727846622467,,,,,,,,,,,,,,,,,,,,,,,,,,,,,,,,,,,,,,,,,,,,,,,,,,,,,,,,,,,,,,,,,,,,,,,,,,,,,,,,,78.0,78.0,133.0,57.0,57.0,133.0,1.0,1.2,-164,-5,0,0,191,12,289.557984828949,289.5580267906189,289.56038880348206,289.5727846622467,289.72253584861755,289.72253584861755,289.72253584861755,289.72253584861755,289.72253584861755,289.72253584861755,289.72253584861755,291.4903676509857,2,1.8993051052093506,None,,,,,,,,,,,,,,,,,,16,5,2025-02-18_14h06.17.019,comp,2024.2.4,60.05091215219812,2025-02-18 14h06.24.783075 -0500,
21,21,0,filler_random,None,None,None,None,None,None,None,None,None,None,2,2.31709885597229,None,,,,,0,0,0,0,0,21,21,134,291.5058934688568,,,,,,,,,,,,,,,,,,,,,,,,,,,,,,,,,,,,,,,,,,,,,,,,,,,,,,,,,,,,,,,,,,,,,,,,,,,,,,,,,114.11738242803108,140.03903332916792,169.70702910301105,108.43081542308252,122.1844957085384,84.20990596553743,1.0,1.3,260,-269,480,-287,672,-261,291.4913139343262,291.4913578033447,291.4939215183258,291.5058934688568,291.65603518486023,291.65603518486023,291.65603518486023,291.65603518486023,291.65603518486023,291.65603518486023,291.65603518486023,293.8404862880707,2,2.31709885597229,None,,,,,,,,,,,,,,,,,,16,5,2025-02-18_14h06.17.019,comp,2024.2.4,60.05091215219812,2025-02-18 14h06.24.783075 -0500,
22,22,0,critical,dwh,20.0,1.0,lower,78.0,78.0,57.0,133.0,133.0,57.0,3,5.005497694015503,None,,,,,0,0,0,0,0,22,22,66,293.8556864261627,,,,,,,,,,,,,,,,,,,,,,,,,,,,,,,,,,,,,,,,,,,,,,,,,,,,,,,,,,,,,,,,,,,,,,,,,,,,,,,,,78.0,78.0,57.0,133.0,133.0,57.0,1.0,1.3,278,-252,480,-269,671,-273,293.8413007259369,293.8413438796997,293.84384512901306,293.8556864261627,294.0059130191803,294.0059130191803,294.0059130191803,294.0059130191803,294.0059130191803,294.0059130191803,294.0059130191803,298.87387704849243,3,5.005497694015503,None,,,,,,,,,,,,,,,,,,16,5,2025-02-18_14h06.17.019,comp,2024.2.4,60.05091215219812,2025-02-18 14h06.24.783075 -0500,
23,23,0,filler_square,None,None,None,None,None,None,None,None,None,None,2,1.4141011238098145,None,,,,,0,0,0,0,0,23,23,200,298.8889865875244,,,,,,,,,,,,,,,,,,,,,,,,,,,,,,,,,,,,,,,,,,,,,,,,,,,,,,,,,,,,,,,,,,,,,,,,,,,,,,,,,140.20498414193787,103.12968757485626,158.25249578381067,158.25249578381067,103.41267911658453,60.11633491145175,1.0,1.2,-227,-16,0,0,205,-12,298.87483954429626,298.87488079071045,298.8771710395813,298.8889865875244,299.03924584388733,299.03924584388733,299.03924584388733,299.03924584388733,299.03924584388733,299.03924584388733,299.03924584388733,300.3071458339691,2,1.4141011238098145,None,,,,,,,,,,,,,,,,,,16,5,2025-02-18_14h06.17.019,comp,2024.2.4,60.05091215219812,2025-02-18 14h06.24.783075 -0500,
24,24,0,critical,whd,35.0,1.0,lower,57.0,133.0,133.0,57.0,70.0,70.0,2,21.4917254447937,None,,,,,0,0,0,0,0,24,24,84,300.322381734848,,,,,,,,,,,,,,,,,,,,,,,,,,,,,,,,,,,,,,,,,,,,,,,,,,,,,,,,,,,,,,,,,,,,,,,,,,,,,,,,,57.0,133.0,133.0,57.0,70.0,70.0,1.0,1.1,-671,266,-480,257,-320,254,300.30794048309326,300.307981967926,300.3102819919586,300.322381734848,300.47239661216736,300.47239661216736,300.47239661216736,300.47239661216736,300.47239661216736,300.47239661216736,300.47239661216736,321.82310700416565,2,21.4917254447937,None,,,,,,,,,,,,,,,,,,16,5,2025-02-18_14h06.17.019,comp,2024.2.4,60.05091215219812,2025-02-18 14h06.24.783075 -0500,
25,25,0,critical,whd,20.0,3.0,lower,57.0,133.0,133.0,57.0,78.0,78.0,1,3.590985059738159,None,,,,,0,0,0,0,0,25,25,92,321.8389346599579,,,,,,,,,,,,,,,,,,,,,,,,,,,,,,,,,,,,,,,,,,,,,,,,,,,,,,,,,,,,,,,,,,,,,,,,,,,,,,,,,57.0,133.0,133.0,57.0,78.0,78.0,3.0,3.2,-191,-274,0,12,164,278,321.8239166736603,321.82395935058594,321.826287984848,321.8389346599579,321.98883843421936,321.98883843421936,321.98883843421936,321.98883843421936,321.98883843421936,321.98883843421936,321.98883843421936,325.4399645328522,1,3.590985059738159,None,,,,,,,,,,,,,,,,,,16,5,2025-02-18_14h06.17.019,comp,2024.2.4,60.05091215219812,2025-02-18 14h06.24.783075 -0500,
26,26,0,filler_square,None,None,None,None,None,None,None,None,None,None,2,2.8696401119232178,None,,,,,0,0,0,0,0,26,26,173,325.45556116104126,,,,,,,,,,,,,,,,,,,,,,,,,,,,,,,,,,,,,,,,,,,,,,,,,,,,,,,,,,,,,,,,,,,,,,,,,,,,,,,,,89.2678289594995,81.22502337643994,95.2665403289794,95.2665403289794,75.7197800295389,77.4021290727249,2.2,2.22,-184,260,0,-289,182,-285,325.4409463405609,325.4409909248352,325.4433693885803,325.45556116104126,325.6053991317749,325.6053991317749,325.6053991317749,325.6053991317749,325.6053991317749,325.6053991317749,325.6053991317749,328.3398480415344,2,2.8696401119232178,None,,,,,,,,,,,,,,,,,,16,5,2025-02-18_14h06.17.019,comp,2024.2.4,60.05091215219812,2025-02-18 14h06.24.783075 -0500,
27,27,0,filler_random,None,None,None,None,None,None,None,None,None,None,3,2.5537469387054443,None,,,,,0,0,0,0,0,27,27,141,328.35521125793457,,,,,,,,,,,,,,,,,,,,,,,,,,,,,,,,,,,,,,,,,,,,,,,,,,,,,,,,,,,,,,,,,,,,,,,,,,,,,,,,,92.26032046934563,72.22972644554795,165.99223653521733,87.33494570260189,135.61487291295919,185.1195037490335,4.0,4.2,-176,20,0,-257,232,15,328.34077072143555,328.34081411361694,328.3431787490845,328.35521125793457,328.5054268836975,328.5054268836975,328.5054268836975,328.5054268836975,328.5054268836975,328.5054268836975,328.5054268836975,330.9232165813446,3,2.5537469387054443,None,,,,,,,,,,,,,,,,,,16,5,2025-02-18_14h06.17.019,comp,2024.2.4,60.05091215219812,2025-02-18 14h06.24.783075 -0500,
28,28,0,critical,dwh,35.0,4.0,lower,70.0,70.0,57.0,133.0,133.0,57.0,3,2.7489657402038574,None,,,,,0,0,0,0,0,28,28,64,330.9385802745819,,,,,,,,,,,,,,,,,,,,,,,,,,,,,,,,,,,,,,,,,,,,,,,,,,,,,,,,,,,,,,,,,,,,,,,,,,,,,,,,,70.0,70.0,57.0,133.0,133.0,57.0,4.0,4.1,-198,-254,0,8,191,-287,330.9240097999573,330.92405223846436,330.9264888763428,330.9385802745819,331.08878445625305,331.08878445625305,331.08878445625305,331.08878445625305,331.08878445625305,331.08878445625305,331.08878445625305,333.69000601768494,3,2.7489657402038574,None,,,,,,,,,,,,,,,,,,16,5,2025-02-18_14h06.17.019,comp,2024.2.4,60.05091215219812,2025-02-18 14h06.24.783075 -0500,
29,29,0,critical,whd,35.0,2.1,lower,57.0,133.0,133.0,57.0,70.0,70.0,1,7.44443678855896,None,,,,,0,0,0,0,0,29,29,36,333.70543003082275,,,,,,,,,,,,,,,,,,,,,,,,,,,,,,,,,,,,,,,,,,,,,,,,,,,,,,,,,,,,,,,,,,,,,,,,,,,,,,,,,57.0,133.0,133.0,57.0,70.0,70.0,2.1,2.11,-191,278,0,259,160,-262,333.6908450126648,333.69088673591614,333.69330620765686,333.70543003082275,333.85539054870605,333.85539054870605,333.85539054870605,333.85539054870605,333.85539054870605,333.85539054870605,333.85539054870605,341.1565248966217,1,7.44443678855896,None,,,,,,,,,,,,,,,,,,16,5,2025-02-18_14h06.17.019,comp,2024.2.4,60.05091215219812,2025-02-18 14h06.24.783075 -0500,
30,30,0,critical,wdh,20.0,3.0,upper,125.0,200.0,141.0,141.0,200.0,125.0,3,12.721151113510132,None,,,,,0,0,0,0,0,30,30,81,341.17208909988403,,,,,,,,,,,,,,,,,,,,,,,,,,,,,,,,,,,,,,,,,,,,,,,,,,,,,,,,,,,,,,,,,,,,,,,,,,,,,,,,,125.0,200.0,141.0,141.0,200.0,125.0,3.0,3.1,-266,265,0,14,229,-270,341.1573579311371,341.15740060806274,341.15985131263733,341.17208909988403,341.3220748901367,341.3220748901367,341.3220748901367,341.3220748901367,341.3220748901367,341.3220748901367,341.3220748901367,353.9063024520874,3,12.721151113510132,None,,,,,,,,,,,,,,,,,,16,5,2025-02-18_14h06.17.019,comp,2024.2.4,60.05091215219812,2025-02-18 14h06.24.783075 -0500,
31,31,0,filler_square,None,None,None,None,None,None,None,None,None,None,3,1.2033791542053223,None,,,,,0,0,0,0,0,31,31,176,353.92161202430725,,,,,,,,,,,,,,,,,,,,,,,,,,,,,,,,,,,,,,,,,,,,,,,,,,,,,,,,,,,,,,,,,,,,,,,,,,,,,,,,,95.97301568389267,71.85867377807074,119.29347842484839,81.14980924489083,126.71370775559214,126.71370775559214,4.0,4.1,-173,-254,0,17,200,-273,353.90727734565735,353.90732169151306,353.90981006622314,353.92161202430725,354.07190322875977,354.07190322875977,354.07190322875977,354.07190322875977,354.07190322875977,354.07190322875977,354.07190322875977,355.1394567489624,3,1.2033791542053223,None,,,,,,,,,,,,,,,,,,16,5,2025-02-18_14h06.17.019,comp,2024.2.4,60.05091215219812,2025-02-18 14h06.24.783075 -0500,
32,32,0,filler_square,None,None,None,None,None,None,None,None,None,None,3,1.2105398178100586,None,,,,,0,0,0,0,0,32,32,188,355.1550145149231,,,,,,,,,,,,,,,,,,,,,,,,,,,,,,,,,,,,,,,,,,,,,,,,,,,,,,,,,,,,,,,,,,,,,,,,,,,,,,,,,65.95437978066013,135.82530988900015,116.81599453571175,94.77704250880748,194.35406053396,194.35406053396,3.0,3.1,-211,279,0,-15,241,-275,355.1404423713684,355.14048504829407,355.1430308818817,355.1550145149231,355.3052055835724,355.3052055835724,355.3052055835724,355.3052055835724,355.3052055835724,355.3052055835724,355.3052055835724,356.3729329109192,3,1.2105398178100586,None,,,,,,,,,,,,,,,,,,16,5,2025-02-18_14h06.17.019,comp,2024.2.4,60.05091215219812,2025-02-18 14h06.24.783075 -0500,
33,33,0,critical,dhw,35.0,2.1,upper,127.0,127.0,200.0,125.0,125.0,200.0,3,11.120131254196167,None,,,,,0,0,0,0,0,33,33,25,356.3884048461914,,,,,,,,,,,,,,,,,,,,,,,,,,,,,,,,,,,,,,,,,,,,,,,,,,,,,,,,,,,,,,,,,,,,,,,,,,,,,,,,,127.0,127.0,200.0,125.0,125.0,200.0,2.1,2.11,-222,267,0,281,258,-261,356.37376499176025,356.37380862236023,356.3760778903961,356.3884048461914,356.53855419158936,356.53855419158936,356.53855419158936,356.53855419158936,356.53855419158936,356.53855419158936,356.53855419158936,367.52296113967896,3,11.120131254196167,None,,,,,,,,,,,,,,,,,,16,5,2025-02-18_14h06.17.019,comp,2024.2.4,60.05091215219812,2025-02-18 14h06.24.783075 -0500,
34,34,0,critical,hwd,35.0,3.0,upper,200.0,125.0,125.0,200.0,127.0,127.0,1,3.2672364711761475,None,,,,,0,0,0,0,0,34,34,99,367.5381565093994,,,,,,,,,,,,,,,,,,,,,,,,,,,,,,,,,,,,,,,,,,,,,,,,,,,,,,,,,,,,,,,,,,,,,,,,,,,,,,,,,200.0,125.0,125.0,200.0,127.0,127.0,3.0,3.2,-258,-253,0,5,260,273,367.52375292778015,367.523797750473,367.5258893966675,367.5381565093994,367.6892080307007,367.6892080307007,367.6892080307007,367.6892080307007,367.6892080307007,367.6892080307007,367.6892080307007,370.8229911327362,1,3.2672364711761475,None,,,,,,,,,,,,,,,,,,16,5,2025-02-18_14h06.17.019,comp,2024.2.4,60.05091215219812,2025-02-18 14h06.24.783075 -0500,
35,35,0,critical,dhw,20.0,4.0,upper,141.0,141.0,200.0,125.0,125.0,200.0,2,3.967245101928711,None,,,,,0,0,0,0,0,35,35,59,370.8380961418152,,,,,,,,,,,,,,,,,,,,,,,,,,,,,,,,,,,,,,,,,,,,,,,,,,,,,,,,,,,,,,,,,,,,,,,,,,,,,,,,,141.0,141.0,200.0,125.0,125.0,200.0,4.0,4.2,-229,-8,0,-276,258,-16,370.82378935813904,370.8238317966461,370.8258934020996,370.8380961418152,370.98841094970703,370.98841094970703,370.98841094970703,370.98841094970703,370.98841094970703,370.98841094970703,370.98841094970703,374.8228976726532,2,3.967245101928711,None,,,,,,,,,,,,,,,,,,16,5,2025-02-18_14h06.17.019,comp,2024.2.4,60.05091215219812,2025-02-18 14h06.24.783075 -0500,
36,36,0,critical,dhw,20.0,3.0,lower,78.0,78.0,133.0,57.0,57.0,133.0,2,2.727308988571167,None,,,,,0,0,0,0,0,36,36,56,374.8380079269409,,,,,,,,,,,,,,,,,,,,,,,,,,,,,,,,,,,,,,,,,,,,,,,,,,,,,,,,,,,,,,,,,,,,,,,,,,,,,,,,,78.0,78.0,133.0,57.0,57.0,133.0,3.0,3.2,-164,-273,0,-5,191,255,374.8236880302429,374.8237307071686,374.8260464668274,374.8380079269409,374.9882137775421,374.9882137775421,374.9882137775421,374.9882137775421,374.9882137775421,374.9882137775421,374.9882137775421,377.57268476486206,2,2.727308988571167,None,,,,,,,,,,,,,,,,,,16,5,2025-02-18_14h06.17.019,comp,2024.2.4,60.05091215219812,2025-02-18 14h06.24.783075 -0500,
37,37,0,critical,dwh,35.0,1.0,lower,70.0,70.0,57.0,133.0,133.0,57.0,3,9.833293676376343,None,,,,,0,0,0,0,0,37,37,60,377.58827090263367,,,,,,,,,,,,,,,,,,,,,,,,,,,,,,,,,,,,,,,,,,,,,,,,,,,,,,,,,,,,,,,,,,,,,,,,,,,,,,,,,70.0,70.0,57.0,133.0,133.0,57.0,1.0,1.1,-678,278,-480,286,-289,267,377.5735309123993,377.57357382774353,377.5761275291443,377.58827090263367,377.7381136417389,377.7381136417389,377.7381136417389,377.7381136417389,377.7381136417389,377.7381136417389,377.7381136417389,387.4391279220581,3,9.833293676376343,None,,,,,,,,,,,,,,,,,,16,5,2025-02-18_14h06.17.019,comp,2024.2.4,60.05091215219812,2025-02-18 14h06.24.783075 -0500,
38,38,0,filler_random,None,None,None,None,None,None,None,None,None,None,1,2.4216110706329346,None,,,,,0,0,0,0,0,38,38,164,387.45456886291504,,,,,,,,,,,,,,,,,,,,,,,,,,,,,,,,,,,,,,,,,,,,,,,,,,,,,,,,,,,,,,,,,,,,,,,,,,,,,,,,,92.48147308669445,192.16324017436688,64.0482292342598,84.72602002313702,151.8608676915041,92.31590405170752,3.0,3.2,-234,-276,0,-12,185,281,387.4400508403778,387.44009232521057,387.4428451061249,387.45456886291504,387.6047611236572,387.6047611236572,387.6047611236572,387.6047611236572,387.6047611236572,387.6047611236572,387.6047611236572,389.88905119895935,1,2.4216110706329346,None,,,,,,,,,,,,,,,,,,16,5,2025-02-18_14h06.17.019,comp,2024.2.4,60.05091215219812,2025-02-18 14h06.24.783075 -0500,
39,39,0,filler_square,None,None,None,None,None,None,None,None,None,None,1,1.0294404029846191,None,,,,,0,0,0,0,0,39,39,203,389.90446615219116,,,,,,,,,,,,,,,,,,,,,,,,,,,,,,,,,,,,,,,,,,,,,,,,,,,,,,,,,,,,,,,,,,,,,,,,,,,,,,,,,170.84622347249672,170.84622347249672,66.19800422266266,146.24189342957595,135.08001379167519,138.3176813012721,3.0,3.2,-255,-280,0,19,238,288,389.8900055885315,389.89004778862,389.8924422264099,389.90446615219116,390.05483651161194,390.05483651161194,390.05483651161194,390.05483651161194,390.05483651161194,390.05483651161194,390.05483651161194,390.94156646728516,1,1.0294404029846191,None,,,,,,,,,,,,,,,,,,16,5,2025-02-18_14h06.17.019,comp,2024.2.4,60.05091215219812,2025-02-18 14h06.24.783075 -0500,
40,40,0,critical,hwd,20.0,4.0,upper,200.0,125.0,125.0,200.0,141.0,141.0,1,11.359382390975952,None,,,,,0,0,0,0,0,40,40,107,390.9575939178467,,,,,,,,,,,,,,,,,,,,,,,,,,,,,,,,,,,,,,,,,,,,,,,,,,,,,,,,,,,,,,,,,,,,,,,,,,,,,,,,,200.0,125.0,125.0,200.0,141.0,141.0,4.0,4.2,-258,-5,0,-282,266,-5,390.94278383255005,390.94282388687134,390.94557666778564,390.9575939178467,391.1053545475006,391.1053545475006,391.1053545475006,391.1053545475006,391.1053545475006,391.1053545475006,391.1053545475006,402.32246828079224,1,11.359382390975952,None,,,,,,,,,,,,,,,,,,16,5,2025-02-18_14h06.17.019,comp,2024.2.4,60.05091215219812,2025-02-18 14h06.24.783075 -0500,
41,41,0,filler_square,None,None,None,None,None,None,None,None,None,None,1,1.427072525024414,None,,,,,0,0,0,0,0,41,41,197,402.33784317970276,,,,,,,,,,,,,,,,,,,,,,,,,,,,,,,,,,,,,,,,,,,,,,,,,,,,,,,,,,,,,,,,,,,,,,,,,,,,,,,,,117.02628266683396,117.02628266683396,94.81521065761802,69.82091225291941,81.76600294867188,61.068512441557914,2.1,2.11,-189,275,0,276,161,-262,402.32341170310974,402.3234519958496,402.325923204422,402.33784317970276,402.4877655506134,402.4877655506134,402.4877655506134,402.4877655506134,402.4877655506134,402.4877655506134,402.4877655506134,403.7722511291504,1,1.427072525024414,None,,,,,,,,,,,,,,,,,,16,5,2025-02-18_14h06.17.019,comp,2024.2.4,60.05091215219812,2025-02-18 14h06.24.783075 -0500,
42,42,0,filler_random,None,None,None,None,None,None,None,None,None,None,3,1.2171266078948975,None,,,,,0,0,0,0,0,42,42,135,403.78781294822693,,,,,,,,,,,,,,,,,,,,,,,,,,,,,,,,,,,,,,,,,,,,,,,,,,,,,,,,,,,,,,,,,,,,,,,,,,,,,,,,,64.89018726775053,135.40128765060072,124.4988442448165,126.27016274894149,189.20060076812516,153.842667446807,3.0,3.2,-227,-275,0,17,236,266,403.7731668949127,403.7732107639313,403.7756633758545,403.78781294822693,403.9378569126129,403.9378569126129,403.9378569126129,403.9378569126129,403.9378569126129,403.9378569126129,403.9378569126129,405.0222387313843,3,1.2171266078948975,None,,,,,,,,,,,,,,,,,,16,5,2025-02-18_14h06.17.019,comp,2024.2.4,60.05091215219812,2025-02-18 14h06.24.783075 -0500,
43,43,0,critical,wdh,35.0,2.1,lower,57.0,133.0,70.0,70.0,133.0,57.0,1,59.93367028236389,None,,,,,0,0,0,0,0,43,43,8,405.0375735759735,,,,,,,,,,,,,,,,,,,,,,,,,,,,,,,,,,,,,,,,,,,,,,,,,,,,,,,,,,,,,,,,,,,,,,,,,,,,,,,,,57.0,133.0,70.0,70.0,133.0,57.0,2.1,2.12,-198,-253,0,-285,160,266,405.0230429172516,405.02308559417725,405.02558755874634,405.0375735759735,405.1877739429474,405.1877739429474,405.1877739429474,405.1877739429474,405.1877739429474,405.1877739429474,405.1877739429474,464.988169670105,1,59.93367028236389,None,,,,,,,,,,,,,,,,,,16,5,2025-02-18_14h06.17.019,comp,2024.2.4,60.05091215219812,2025-02-18 14h06.24.783075 -0500,
44,44,0,filler_square,None,None,None,None,None,None,None,None,None,None,2,1.6085288524627686,None,,,,,0,0,0,0,0,44,44,187,465.0035877227783,,,,,,,,,,,,,,,,,,,,,,,,,,,,,,,,,,,,,,,,,,,,,,,,,,,,,,,,,,,,,,,,,,,,,,,,,,,,,,,,,97.20133977838019,62.90724658800312,116.10507368763663,116.10507368763663,81.91336346734612,79.4865208815922,1.0,1.1,-666,267,-480,283,-286,272,464.98917150497437,464.98921513557434,464.9916641712189,465.0035877227783,465.1536602973938,465.1536602973938,465.1536602973938,465.1536602973938,465.1536602973938,465.1536602973938,465.1536602973938,466.6214509010315,2,1.6085288524627686,None,,,,,,,,,,,,,,,,,,16,5,2025-02-18_14h06.17.019,comp,2024.2.4,60.05091215219812,2025-02-18 14h06.24.783075 -0500,
45,45,0,critical,hwd,35.0,2.1,lower,133.0,57.0,57.0,133.0,70.0,70.0,1,3.9914844036102295,None,,,,,0,0,0,0,0,45,45,40,466.63716220855713,,,,,,,,,,,,,,,,,,,,,,,,,,,,,,,,,,,,,,,,,,,,,,,,,,,,,,,,,,,,,,,,,,,,,,,,,,,,,,,,,133.0,57.0,57.0,133.0,70.0,70.0,2.1,2.12,-191,-273,0,-289,198,289,466.62226366996765,466.62230682373047,466.6248369216919,466.63716220855713,466.7868049144745,466.7868049144745,466.7868049144745,466.7868049144745,466.7868049144745,466.7868049144745,466.7868049144745,470.63809299468994,1,3.9914844036102295,None,,,,,,,,,,,,,,,,,,16,5,2025-02-18_14h06.17.019,comp,2024.2.4,60.05091215219812,2025-02-18 14h06.24.783075 -0500,
46,46,0,filler_square,None,None,None,None,None,None,None,None,None,None,3,1.9888830184936523,None,,,,,0,0,0,0,0,46,46,194,470.654004573822,,,,,,,,,,,,,,,,,,,,,,,,,,,,,,,,,,,,,,,,,,,,,,,,,,,,,,,,,,,,,,,,,,,,,,,,,,,,,,,,,144.03105145208775,73.11199177505299,111.47180861848366,143.50429367921714,162.15870332651232,162.15870332651232,2.1,2.11,-204,286,0,260,249,-276,470.6390619277954,470.63910579681396,470.6412215232849,470.654004573822,470.80377531051636,470.80377531051636,470.80377531051636,470.80377531051636,470.80377531051636,470.80377531051636,470.80377531051636,472.65534019470215,3,1.9888830184936523,None,,,,,,,,,,,,,,,,,,16,5,2025-02-18_14h06.17.019,comp,2024.2.4,60.05091215219812,2025-02-18 14h06.24.783075 -0500,
47,47,0,critical,dhw,35.0,4.0,lower,70.0,70.0,133.0,57.0,57.0,133.0,2,4.999829530715942,None,,,,,0,0,0,0,0,47,47,52,472.6699502468109,,,,,,,,,,,,,,,,,,,,,,,,,,,,,,,,,,,,,,,,,,,,,,,,,,,,,,,,,,,,,,,,,,,,,,,,,,,,,,,,,70.0,70.0,133.0,57.0,57.0,133.0,4.0,4.1,-160,-262,0,0,191,-254,472.6561074256897,472.6561481952667,472.65864086151123,472.6699502468109,472.82015085220337,472.82015085220337,472.82015085220337,472.82015085220337,472.82015085220337,472.82015085220337,472.82015085220337,477.67142820358276,2,4.999829530715942,None,,,,,,,,,,,,,,,,,,16,5,2025-02-18_14h06.17.019,comp,2024.2.4,60.05091215219812,2025-02-18 14h06.24.783075 -0500,
48,48,0,filler_square,None,None,None,None,None,None,None,None,None,None,2,1.213857650756836,None,,,,,0,0,0,0,0,48,48,178,477.6869339942932,,,,,,,,,,,,,,,,,,,,,,,,,,,,,,,,,,,,,,,,,,,,,,,,,,,,,,,,,,,,,,,,,,,,,,,,,,,,,,,,,61.54528633568461,113.92580838961678,163.79948357611593,163.79948357611593,115.90210984924838,105.54762644934766,4.0,4.2,-235,16,0,-280,231,-3,477.6723918914795,477.67243361473083,477.6749429702759,477.6869339942932,477.83699440956116,477.83699440956116,477.83699440956116,477.83699440956116,477.83699440956116,477.83699440956116,477.83699440956116,478.904682636261,2,1.213857650756836,None,,,,,,,,,,,,,,,,,,16,5,2025-02-18_14h06.17.019,comp,2024.2.4,60.05091215219812,2025-02-18 14h06.24.783075 -0500,
49,49,0,critical,hwd,20.0,2.1,lower,133.0,57.0,57.0,133.0,78.0,78.0,1,7.0838329792022705,None,,,,,0,0,0,0,0,49,49,18,478.920113325119,,,,,,,,,,,,,,,,,,,,,,,,,,,,,,,,,,,,,,,,,,,,,,,,,,,,,,,,,,,,,,,,,,,,,,,,,,,,,,,,,133.0,57.0,57.0,133.0,78.0,78.0,2.1,2.11,-191,255,0,267,202,-281,478.90558528900146,478.9056272506714,478.9080083370209,478.920113325119,479.07005071640015,479.07005071640015,479.07005071640015,479.07005071640015,479.07005071640015,479.07005071640015,479.07005071640015,486.02113342285156,1,7.0838329792022705,None,,,,,,,,,,,,,,,,,,16,5,2025-02-18_14h06.17.019,comp,2024.2.4,60.05091215219812,2025-02-18 14h06.24.783075 -0500,
50,50,0,critical,whd,20.0,4.0,lower,57.0,133.0,133.0,57.0,78.0,78.0,2,2.816903829574585,None,,,,,0,0,0,0,0,50,50,94,486.03657054901123,,,,,,,,,,,,,,,,,,,,,,,,,,,,,,,,,,,,,,,,,,,,,,,,,,,,,,,,,,,,,,,,,,,,,,,,,,,,,,,,,57.0,133.0,133.0,57.0,78.0,78.0,4.0,4.2,-191,-12,0,-260,164,-9,486.02197885513306,486.0220217704773,486.02445101737976,486.03657054901123,486.18683099746704,486.18683099746704,486.18683099746704,486.18683099746704,486.18683099746704,486.18683099746704,486.18683099746704,488.8710961341858,2,2.816903829574585,None,,,,,,,,,,,,,,,,,,16,5,2025-02-18_14h06.17.019,comp,2024.2.4,60.05091215219812,2025-02-18 14h06.24.783075 -0500,
51,51,0,filler_random,None,None,None,None,None,None,None,None,None,None,2,33.47730541229248,None,,,,,0,0,0,0,0,51,51,148,488.8864302635193,,,,,,,,,,,,,,,,,,,,,,,,,,,,,,,,,,,,,,,,,,,,,,,,,,,,,,,,,,,,,,,,,,,,,,,,,,,,,,,,,172.34011583468637,83.44870665276426,96.7800212203079,143.21299149167407,120.77263049234313,87.22135666855804,2.1,2.11,-209,281,0,287,211,-254,488.87201380729675,488.8720576763153,488.8744869232178,488.8864302635193,489.03670263290405,489.03670263290405,489.03670263290405,489.03670263290405,489.03670263290405,489.03670263290405,489.03670263290405,522.3707840442657,2,33.47730541229248,None,,,,,,,,,,,,,,,,,,16,5,2025-02-18_14h06.17.019,comp,2024.2.4,60.05091215219812,2025-02-18 14h06.24.783075 -0500,
52,52,0,filler_random,None,None,None,None,None,None,None,None,None,None,1,2.104668378829956,None,,,,,0,0,0,0,0,52,52,166,522.386314868927,,,,,,,,,,,,,,,,,,,,,,,,,,,,,,,,,,,,,,,,,,,,,,,,,,,,,,,,,,,,,,,,,,,,,,,,,,,,,,,,,171.83263762467615,120.739231109412,81.58413490152797,178.5435369077922,58.18077057005119,192.49496948989267,3.0,3.1,-246,282,0,18,282,-266,522.3716716766357,522.3717155456543,522.3740494251251,522.386314868927,522.5362367630005,522.5362367630005,522.5362367630005,522.5362367630005,522.5362367630005,522.5362367630005,522.5362367630005,524.5042433738708,1,2.104668378829956,None,,,,,,,,,,,,,,,,,,16,5,2025-02-18_14h06.17.019,comp,2024.2.4,60.05091215219812,2025-02-18 14h06.24.783075 -0500,
53,53,0,critical,wdh,20.0,3.0,lower,57.0,133.0,78.0,78.0,133.0,57.0,3,5.003781318664551,None,,,,,0,0,0,0,0,53,53,80,524.519439458847,,,,,,,,,,,,,,,,,,,,,,,,,,,,,,,,,,,,,,,,,,,,,,,,,,,,,,,,,,,,,,,,,,,,,,,,,,,,,,,,,57.0,133.0,78.0,78.0,133.0,57.0,3.0,3.1,-202,288,0,-11,164,-259,524.5050439834595,524.5050852298737,524.507474899292,524.519439458847,524.6695415973663,524.6695415973663,524.6695415973663,524.6695415973663,524.6695415973663,524.6695415973663,524.6695415973663,529.5373466014862,3,5.003781318664551,None,,,,,,,,,,,,,,,,,,16,5,2025-02-18_14h06.17.019,comp,2024.2.4,60.05091215219812,2025-02-18 14h06.24.783075 -0500,
54,54,0,critical,hdw,35.0,4.0,lower,133.0,57.0,70.0,70.0,57.0,133.0,1,2.7695419788360596,None,,,,,0,0,0,0,0,54,54,112,529.5526630878448,,,,,,,,,,,,,,,,,,,,,,,,,,,,,,,,,,,,,,,,,,,,,,,,,,,,,,,,,,,,,,,,,,,,,,,,,,,,,,,,,133.0,57.0,70.0,70.0,57.0,133.0,4.0,4.2,-160,0,0,-266,198,0,529.5381500720978,529.5381927490234,529.5402891635895,529.5526630878448,529.7027957439423,529.7027957439423,529.7027957439423,529.7027957439423,529.7027957439423,529.7027957439423,529.7027957439423,532.3378779888153,1,2.7695419788360596,None,,,,,,,,,,,,,,,,,,16,5,2025-02-18_14h06.17.019,comp,2024.2.4,60.05091215219812,2025-02-18 14h06.24.783075 -0500,
55,55,0,critical,dwh,35.0,2.1,lower,70.0,70.0,57.0,133.0,133.0,57.0,3,2.483391284942627,None,,,,,0,0,0,0,0,55,55,4,532.3529081344604,,,,,,,,,,,,,,,,,,,,,,,,,,,,,,,,,,,,,,,,,,,,,,,,,,,,,,,,,,,,,,,,,,,,,,,,,,,,,,,,,70.0,70.0,57.0,133.0,133.0,57.0,2.1,2.11,-198,269,0,267,191,-261,532.3386707305908,532.3387124538422,532.3405928611755,532.3529081344604,532.5029411315918,532.5029411315918,532.5029411315918,532.5029411315918,532.5029411315918,532.5029411315918,532.5029411315918,534.8539221286774,3,2.483391284942627,None,,,,,,,,,,,,,,,,,,16,5,2025-02-18_14h06.17.019,comp,2024.2.4,60.05091215219812,2025-02-18 14h06.24.783075 -0500,
56,56,0,critical,whd,20.0,4.0,upper,125.0,200.0,200.0,125.0,141.0,141.0,2,16.00489592552185,None,,,,,0,0,0,0,0,56,56,95,534.869197845459,,,,,,,,,,,,,,,,,,,,,,,,,,,,,,,,,,,,,,,,,,,,,,,,,,,,,,,,,,,,,,,,,,,,,,,,,,,,,,,,,125.0,200.0,200.0,125.0,141.0,141.0,4.0,4.1,-258,-261,0,-16,229,-278,534.8547003269196,534.85475730896,534.8571102619171,534.869197845459,535.0195229053497,535.0195229053497,535.0195229053497,535.0195229053497,535.0195229053497,535.0195229053497,535.0195229053497,550.8872981071472,2,16.00489592552185,None,,,,,,,,,,,,,,,,,,16,5,2025-02-18_14h06.17.019,comp,2024.2.4,60.05091215219812,2025-02-18 14h06.24.783075 -0500,
57,57,0,critical,dhw,20.0,2.1,lower,78.0,78.0,133.0,57.0,57.0,133.0,3,7.235620498657227,None,,,,,0,0,0,0,0,57,57,2,550.9022958278656,,,,,,,,,,,,,,,,,,,,,,,,,,,,,,,,,,,,,,,,,,,,,,,,,,,,,,,,,,,,,,,,,,,,,,,,,,,,,,,,,78.0,78.0,133.0,57.0,57.0,133.0,2.1,2.11,-164,262,0,253,191,-253,550.8881175518036,550.8881607055664,550.8902606964111,550.9022958278656,551.0527551174164,551.0527551174164,551.0527551174164,551.0527551174164,551.0527551174164,551.0527551174164,551.0527551174164,558.1538844108582,3,7.235620498657227,None,,,,,,,,,,,,,,,,,,16,5,2025-02-18_14h06.17.019,comp,2024.2.4,60.05091215219812,2025-02-18 14h06.24.783075 -0500,
58,58,0,filler_square,None,None,None,None,None,None,None,None,None,None,2,0.9622914791107178,None,,,,,0,0,0,0,0,58,58,207,558.1689872741699,,,,,,,,,,,,,,,,,,,,,,,,,,,,,,,,,,,,,,,,,,,,,,,,,,,,,,,,,,,,,,,,,,,,,,,,,,,,,,,,,82.75461068915915,70.96974558327999,97.5570289921834,97.5570289921834,62.29509652454701,75.14995534343629,1.0,1.2,-180,4,0,8,182,-3,558.1548421382904,558.1548845767975,558.1569755077362,558.1689872741699,558.3193724155426,558.3193724155426,558.3193724155426,558.3193724155426,558.3193724155426,558.3193724155426,558.3193724155426,559.1368415355682,2,0.9622914791107178,None,,,,,,,,,,,,,,,,,,16,5,2025-02-18_14h06.17.019,comp,2024.2.4,60.05091215219812,2025-02-18 14h06.24.783075 -0500,
59,59,0,filler_square,None,None,None,None,None,None,None,None,None,None,3,1.233738899230957,None,,,,,0,0,0,0,0,59,59,193,559.1526761054993,,,,,,,,,,,,,,,,,,,,,,,,,,,,,,,,,,,,,,,,,,,,,,,,,,,,,,,,,,,,,,,,,,,,,,,,,,,,,,,,,120.59008125758864,143.37732758123133,79.15512197631867,82.44178046725897,147.1734045834451,147.1734045834451,1.0,1.3,271,-270,480,-256,691,-260,559.1377892494202,559.1378309726715,559.1398253440857,559.1526761054993,559.3024039268494,559.3024039268494,559.3024039268494,559.3024039268494,559.3024039268494,559.3024039268494,559.3024039268494,560.4035129547119,3,1.233738899230957,None,,,,,,,,,,,,,,,,,,16,5,2025-02-18_14h06.17.019,comp,2024.2.4,60.05091215219812,2025-02-18 14h06.24.783075 -0500,
60,60,0,critical,hwd,20.0,3.0,upper,200.0,125.0,125.0,200.0,141.0,141.0,1,5.3033905029296875,None,,,,,0,0,0,0,0,60,60,105,560.4188237190247,,,,,,,,,,,,,,,,,,,,,,,,,,,,,,,,,,,,,,,,,,,,,,,,,,,,,,,,,,,,,,,,,,,,,,,,,,,,,,,,,200.0,125.0,125.0,200.0,141.0,141.0,3.0,3.2,-258,-252,0,1,266,282,560.4043090343475,560.4043514728546,560.4069259166718,560.4188237190247,560.569406747818,560.569406747818,560.569406747818,560.569406747818,560.569406747818,560.569406747818,560.569406747818,565.737030506134,1,5.3033905029296875,None,,,,,,,,,,,,,,,,,,16,5,2025-02-18_14h06.17.019,comp,2024.2.4,60.05091215219812,2025-02-18 14h06.24.783075 -0500,
61,61,0,critical,dhw,35.0,2.1,lower,70.0,70.0,133.0,57.0,57.0,133.0,3,27.058441162109375,None,,,,,0,0,0,0,0,61,61,0,565.7521617412567,,,,,,,,,,,,,,,,,,,,,,,,,,,,,,,,,,,,,,,,,,,,,,,,,,,,,,,,,,,,,,,,,,,,,,,,,,,,,,,,,70.0,70.0,133.0,57.0,57.0,133.0,2.1,2.11,-160,259,0,251,191,-289,565.7378187179565,565.7378606796265,565.7398722171783,565.7521617412567,565.9022357463837,565.9022357463837,565.9022357463837,565.9022357463837,565.9022357463837,565.9022357463837,565.9022357463837,592.8197572231293,3,27.058441162109375,None,,,,,,,,,,,,,,,,,,16,5,2025-02-18_14h06.17.019,comp,2024.2.4,60.05091215219812,2025-02-18 14h06.24.783075 -0500,
62,62,0,filler_random,None,None,None,None,None,None,None,None,None,None,3,7.200140953063965,None,,,,,0,0,0,0,0,62,62,150,592.8353922367096,,,,,,,,,,,,,,,,,,,,,,,,,,,,,,,,,,,,,,,,,,,,,,,,,,,,,,,,,,,,,,,,,,,,,,,,,,,,,,,,,153.98804560052727,112.35687248122606,60.865845517388124,75.8451836278083,140.83281011242514,133.38638468427882,4.0,4.1,-190,-252,0,-11,201,-288,592.8206541538239,592.8206965923309,592.8230454921722,592.8353922367096,592.9854400157928,592.9854400157928,592.9854400157928,592.9854400157928,592.9854400157928,592.9854400157928,592.9854400157928,600.0531191825867,3,7.200140953063965,None,,,,,,,,,,,,,,,,,,16,5,2025-02-18_14h06.17.019,comp,2024.2.4,60.05091215219812,2025-02-18 14h06.24.783075 -0500,
63,63,0,critical,hdw,35.0,3.0,upper,200.0,125.0,127.0,127.0,125.0,200.0,3,4.109809398651123,None,,,,,0,0,0,0,0,63,63,111,600.0684480667114,,,,,,,,,,,,,,,,,,,,,,,,,,,,,,,,,,,,,,,,,,,,,,,,,,,,,,,,,,,,,,,,,,,,,,,,,,,,,,,,,200.0,125.0,127.0,127.0,125.0,200.0,3.0,3.1,-222,269,0,12,260,-258,600.0539500713348,600.0539922714233,600.0563764572144,600.0684480667114,600.2187683582306,600.2187683582306,600.2187683582306,600.2187683582306,600.2187683582306,600.2187683582306,600.2187683582306,604.1863396167755,3,4.109809398651123,None,,,,,,,,,,,,,,,,,,16,5,2025-02-18_14h06.17.019,comp,2024.2.4,60.05091215219812,2025-02-18 14h06.24.783075 -0500,
64,64,0,critical,dhw,20.0,1.0,upper,141.0,141.0,200.0,125.0,125.0,200.0,2,5.050314664840698,None,,,,,0,0,0,0,0,64,64,55,604.2017998695374,,,,,,,,,,,,,,,,,,,,,,,,,,,,,,,,,,,,,,,,,,,,,,,,,,,,,,,,,,,,,,,,,,,,,,,,,,,,,,,,,141.0,141.0,200.0,125.0,125.0,200.0,1.0,1.1,-709,260,-480,289,-222,269,604.1871552467346,604.1871976852417,604.1896719932556,604.2017998695374,604.352255821228,604.352255821228,604.352255821228,604.352255821228,604.352255821228,604.352255821228,604.352255821228,609.2533674240112,2,5.050314664840698,None,,,,,,,,,,,,,,,,,,16,5,2025-02-18_14h06.17.019,comp,2024.2.4,60.05091215219812,2025-02-18 14h06.24.783075 -0500,
65,65,0,filler_random,None,None,None,None,None,None,None,None,None,None,2,1.6367027759552002,None,,,,,0,0,0,0,0,65,65,137,609.2686283588409,,,,,,,,,,,,,,,,,,,,,,,,,,,,,,,,,,,,,,,,,,,,,,,,,,,,,,,,,,,,,,,,,,,,,,,,,,,,,,,,,140.2932855012694,64.09659229248619,144.2339321450172,189.03897051791412,73.52095260126238,154.35885987458596,2.1,2.12,-223,-257,0,-269,268,280,609.2543058395386,609.25434923172,609.256432056427,609.2686283588409,609.4184837341309,609.4184837341309,609.4184837341309,609.4184837341309,609.4184837341309,609.4184837341309,609.4184837341309,610.9195520877838,2,1.6367027759552002,None,,,,,,,,,,,,,,,,,,16,5,2025-02-18_14h06.17.019,comp,2024.2.4,60.05091215219812,2025-02-18 14h06.24.783075 -0500,
66,66,0,critical,whd,35.0,2.1,upper,125.0,200.0,200.0,125.0,127.0,127.0,2,8.33818507194519,None,,,,,0,0,0,0,0,66,66,13,610.9348418712616,,,,,,,,,,,,,,,,,,,,,,,,,,,,,,,,,,,,,,,,,,,,,,,,,,,,,,,,,,,,,,,,,,,,,,,,,,,,,,,,,125.0,200.0,200.0,125.0,127.0,127.0,2.1,2.11,-258,278,0,257,222,-253,610.9203770160675,610.9204204082489,610.9224863052368,610.9348418712616,611.085202217102,611.085202217102,611.085202217102,611.085202217102,611.085202217102,611.085202217102,611.085202217102,619.2861654758453,2,8.33818507194519,None,,,,,,,,,,,,,,,,,,16,5,2025-02-18_14h06.17.019,comp,2024.2.4,60.05091215219812,2025-02-18 14h06.24.783075 -0500,
67,67,0,catch,None,None,None,None,None,None,None,None,None,None,2,0.8287262916564941,None,,,,,0,0,0,0,0,67,67,121,619.3014192581177,,,,,,,,,,,,,,,,,,,,,,,,,,,,,,,,,,,,,,,,,,,,,,,,,,,,,,,,,,,,,,,,,,,,,,,,,,,,,,,,,107,83,171,154,97,93,3.0,3.1,-214,253,0,15,220,-268,619.2872045040131,619.2872467041016,619.2896962165833,619.3014192581177,619.4518032073975,619.4518032073975,619.4518032073975,619.4518032073975,619.4518032073975,619.4518032073975,619.4518032073975,620.1360802650452,2,0.8287262916564941,None,,,,,,,,,,,,,,,,,,16,5,2025-02-18_14h06.17.019,comp,2024.2.4,60.05091215219812,2025-02-18 14h06.24.783075 -0500,
68,68,0,critical,hdw,20.0,1.0,upper,200.0,125.0,141.0,141.0,125.0,200.0,1,33.921029806137085,None,,,,,0,0,0,0,0,68,68,115,620.1517159938812,,,,,,,,,,,,,,,,,,,,,,,,,,,,,,,,,,,,,,,,,,,,,,,,,,,,,,,,,,,,,,,,,,,,,,,,,,,,,,,,,200.0,125.0,141.0,141.0,125.0,200.0,1.0,1.2,-229,3,0,7,266,-12,620.136875629425,620.1369180679321,620.1390154361725,620.1517159938812,620.3019003868103,620.3019003868103,620.3019003868103,620.3019003868103,620.3019003868103,620.3019003868103,620.3019003868103,654.0858960151672,1,33.921029806137085,None,,,,,,,,,,,,,,,,,,16,5,2025-02-18_14h06.17.019,comp,2024.2.4,60.05091215219812,2025-02-18 14h06.24.783075 -0500,
69,69,0,filler_square,None,None,None,None,None,None,None,None,None,None,2,1.5086688995361328,None,,,,,0,0,0,0,0,69,69,206,654.1010766029358,,,,,,,,,,,,,,,,,,,,,,,,,,,,,,,,,,,,,,,,,,,,,,,,,,,,,,,,,,,,,,,,,,,,,,,,,,,,,,,,,78.4817092573117,123.1953171240856,157.36284232362067,157.36284232362067,106.78661927295383,108.48807977496432,1.0,1.3,244,-268,480,-261,709,-273,654.0868666172028,654.086911201477,654.0889847278595,654.1010766029358,654.2512826919556,654.2512826919556,654.2512826919556,654.2512826919556,654.2512826919556,654.2512826919556,654.2512826919556,655.6188843250275,2,1.5086688995361328,None,,,,,,,,,,,,,,,,,,16,5,2025-02-18_14h06.17.019,comp,2024.2.4,60.05091215219812,2025-02-18 14h06.24.783075 -0500,
70,70,0,critical,dhw,35.0,4.0,upper,127.0,127.0,200.0,125.0,125.0,200.0,2,13.983644962310791,None,,,,,0,0,0,0,0,70,70,53,655.6345212459564,,,,,,,,,,,,,,,,,,,,,,,,,,,,,,,,,,,,,,,,,,,,,,,,,,,,,,,,,,,,,,,,,,,,,,,,,,,,,,,,,127.0,127.0,200.0,125.0,125.0,200.0,4.0,4.1,-222,-267,0,13,258,-288,655.6196670532227,655.6197092533112,655.6220192909241,655.6345212459564,655.7846002578735,655.7846002578735,655.7846002578735,655.7846002578735,655.7846002578735,655.7846002578735,655.7846002578735,669.6357862949371,2,13.983644962310791,None,,,,,,,,,,,,,,,,,,16,5,2025-02-18_14h06.17.019,comp,2024.2.4,60.05091215219812,2025-02-18 14h06.24.783075 -0500,
71,71,0,critical,wdh,35.0,3.0,upper,125.0,200.0,127.0,127.0,200.0,125.0,1,1.8857612609863281,None,,,,,0,0,0,0,0,71,71,75,669.6507604122162,,,,,,,,,,,,,,,,,,,,,,,,,,,,,,,,,,,,,,,,,,,,,,,,,,,,,,,,,,,,,,,,,,,,,,,,,,,,,,,,,125.0,200.0,127.0,127.0,200.0,125.0,3.0,3.2,-260,-264,0,-12,222,289,669.6366930007935,669.636748790741,669.6390407085419,669.6507604122162,669.8009889125824,669.8009889125824,669.8009889125824,669.8009889125824,669.8009889125824,669.8009889125824,669.8009889125824,671.5521333217621,1,1.8857612609863281,None,,,,,,,,,,,,,,,,,,16,5,2025-02-18_14h06.17.019,comp,2024.2.4,60.05091215219812,2025-02-18 14h06.24.783075 -0500,
72,72,0,filler_random,None,None,None,None,None,None,None,None,None,None,3,1.2341320514678955,None,,,,,0,0,0,0,0,72,72,154,671.5674614906311,,,,,,,,,,,,,,,,,,,,,,,,,,,,,,,,,,,,,,,,,,,,,,,,,,,,,,,,,,,,,,,,,,,,,,,,,,,,,,,,,194.24887042279906,88.22546049997078,65.77948936039064,191.0494864259772,172.29166181297944,155.8868831018884,2.2,2.21,-236,-288,0,277,269,258,671.5530354976654,671.5530774593353,671.5555322170258,671.5674614906311,671.7177753448486,671.7177753448486,671.7177753448486,671.7177753448486,671.7177753448486,671.7177753448486,671.7177753448486,672.8187928199768,3,1.2341320514678955,None,,,,,,,,,,,,,,,,,,16,5,2025-02-18_14h06.17.019,comp,2024.2.4,60.05091215219812,2025-02-18 14h06.24.783075 -0500,
73,73,0,filler_square,None,None,None,None,None,None,None,None,None,None,2,0.864072322845459,None,,,,,0,0,0,0,0,73,73,191,672.8341584205627,,,,,,,,,,,,,,,,,,,,,,,,,,,,,,,,,,,,,,,,,,,,,,,,,,,,,,,,,,,,,,,,,,,,,,,,,,,,,,,,,111.64539553086047,76.23731629806447,118.71796359594293,118.71796359594293,84.28967784967493,98.88663188251131,1.0,1.1,-673,264,-480,284,-275,252,672.8197231292725,672.8197791576385,672.8217661380768,672.8341584205627,672.9843561649323,672.9843561649323,672.9843561649323,672.9843561649323,672.9843561649323,672.9843561649323,672.9843561649323,673.7020812034607,2,0.864072322845459,None,,,,,,,,,,,,,,,,,,16,5,2025-02-18_14h06.17.019,comp,2024.2.4,60.05091215219812,2025-02-18 14h06.24.783075 -0500,
74,74,0,critical,hwd,35.0,4.0,lower,133.0,57.0,57.0,133.0,70.0,70.0,1,3.8917808532714844,None,,,,,0,0,0,0,0,74,74,100,673.7175462245941,,,,,,,,,,,,,,,,,,,,,,,,,,,,,,,,,,,,,,,,,,,,,,,,,,,,,,,,,,,,,,,,,,,,,,,,,,,,,,,,,133.0,57.0,57.0,133.0,70.0,70.0,4.0,4.2,-191,-7,0,-289,198,6,673.7029826641083,673.7030253410339,673.7054920196533,673.7175462245941,673.8675501346588,673.8675501346588,673.8675501346588,673.8675501346588,673.8675501346588,673.8675501346588,673.8675501346588,677.6186401844025,1,3.8917808532714844,None,,,,,,,,,,,,,,,,,,16,5,2025-02-18_14h06.17.019,comp,2024.2.4,60.05091215219812,2025-02-18 14h06.24.783075 -0500,
75,75,0,filler_square,None,None,None,None,None,None,None,None,None,None,3,1.7110538482666016,None,,,,,0,0,0,0,0,75,75,196,677.634352684021,,,,,,,,,,,,,,,,,,,,,,,,,,,,,,,,,,,,,,,,,,,,,,,,,,,,,,,,,,,,,,,,,,,,,,,,,,,,,,,,,62.69074473174531,73.38317058570956,60.274977369462114,76.04157502743458,83.47076068160075,83.47076068160075,3.0,3.2,-171,-274,0,-1,176,269,677.6196086406708,677.6196541786194,677.6222097873688,677.634352684021,677.7844784259796,677.7844784259796,677.7844784259796,677.7844784259796,677.7844784259796,677.7844784259796,677.7844784259796,679.3519380092621,3,1.7110538482666016,None,,,,,,,,,,,,,,,,,,16,5,2025-02-18_14h06.17.019,comp,2024.2.4,60.05091215219812,2025-02-18 14h06.24.783075 -0500,
76,76,0,critical,hdw,35.0,2.1,upper,200.0,125.0,127.0,127.0,125.0,200.0,1,9.393375158309937,None,,,,,0,0,0,0,0,76,76,21,679.3678796291351,,,,,,,,,,,,,,,,,,,,,,,,,,,,,,,,,,,,,,,,,,,,,,,,,,,,,,,,,,,,,,,,,,,,,,,,,,,,,,,,,200.0,125.0,127.0,127.0,125.0,200.0,2.1,2.11,-222,288,0,288,260,-278,679.3527038097382,679.3527555465698,679.3547067642212,679.3678796291351,679.5176730155945,679.5176730155945,679.5176730155945,679.5176730155945,679.5176730155945,679.5176730155945,679.5176730155945,688.7686240673065,1,9.393375158309937,None,,,,,,,,,,,,,,,,,,16,5,2025-02-18_14h06.17.019,comp,2024.2.4,60.05091215219812,2025-02-18 14h06.24.783075 -0500,
77,77,0,filler_square,None,None,None,None,None,None,None,None,None,None,1,1.2719550132751465,None,,,,,0,0,0,0,0,77,77,202,688.7841486930847,,,,,,,,,,,,,,,,,,,,,,,,,,,,,,,,,,,,,,,,,,,,,,,,,,,,,,,,,,,,,,,,,,,,,,,,,,,,,,,,,153.61678910865373,153.61678910865373,94.58841476397234,102.73417172412658,117.12242599294459,98.57049049219842,3.0,3.1,-224,288,0,5,197,-266,688.7695980072021,688.7696409225464,688.772185087204,688.7841486930847,688.9341018199921,688.9341018199921,688.9341018199921,688.9341018199921,688.9341018199921,688.9341018199921,688.9341018199921,690.068648815155,1,1.2719550132751465,None,,,,,,,,,,,,,,,,,,16,5,2025-02-18_14h06.17.019,comp,2024.2.4,60.05091215219812,2025-02-18 14h06.24.783075 -0500,
78,78,0,critical,dhw,35.0,1.0,upper,127.0,127.0,200.0,125.0,125.0,200.0,2,3.7561256885528564,None,,,,,0,0,0,0,0,78,78,49,690.0839095115662,,,,,,,,,,,,,,,,,,,,,,,,,,,,,,,,,,,,,,,,,,,,,,,,,,,,,,,,,,,,,,,,,,,,,,,,,,,,,,,,,127.0,127.0,200.0,125.0,125.0,200.0,1.0,1.1,-702,265,-480,263,-222,253,690.0694463253021,690.069488286972,690.0730295181274,690.0839095115662,690.2343780994415,690.2343780994415,690.2343780994415,690.2343780994415,690.2343780994415,690.2343780994415,690.2343780994415,693.8523879051208,2,3.7561256885528564,None,,,,,,,,,,,,,,,,,,16,5,2025-02-18_14h06.17.019,comp,2024.2.4,60.05091215219812,2025-02-18 14h06.24.783075 -0500,
79,79,0,filler_random,None,None,None,None,None,None,None,None,None,None,3,1.98343825340271,None,,,,,0,0,0,0,0,79,79,155,693.8672337532043,,,,,,,,,,,,,,,,,,,,,,,,,,,,,,,,,,,,,,,,,,,,,,,,,,,,,,,,,,,,,,,,,,,,,,,,,,,,,,,,,110.42804466346169,189.93798297671654,86.34393422038102,165.31634149735433,119.80855412940585,199.41217410799834,4.0,4.1,-274,-283,0,3,278,-279,693.8533179759979,693.8533623218536,693.8557922840118,693.8672337532043,694.0175590515137,694.0175590515137,694.0175590515137,694.0175590515137,694.0175590515137,694.0175590515137,694.0175590515137,695.8520376682281,3,1.98343825340271,None,,,,,,,,,,,,,,,,,,16,5,2025-02-18_14h06.17.019,comp,2024.2.4,60.05091215219812,2025-02-18 14h06.24.783075 -0500,
80,80,0,filler_square,None,None,None,None,None,None,None,None,None,None,2,1.3257057666778564,None,,,,,0,0,0,0,0,80,80,204,695.867445230484,,,,,,,,,,,,,,,,,,,,,,,,,,,,,,,,,,,,,,,,,,,,,,,,,,,,,,,,,,,,,,,,,,,,,,,,,,,,,,,,,85.47111025202045,83.03359003719534,125.69660908754454,125.69660908754454,59.245955025242424,82.90271452704233,1.0,1.1,-680,286,-480,250,-280,255,695.8530204296112,695.8530628681183,695.855128288269,695.867445230484,696.0172626972198,696.0172626972198,696.0172626972198,696.0172626972198,696.0172626972198,696.0172626972198,696.0172626972198,697.201634645462,2,1.3257057666778564,None,,,,,,,,,,,,,,,,,,16,5,2025-02-18_14h06.17.019,comp,2024.2.4,60.05091215219812,2025-02-18 14h06.24.783075 -0500,
81,81,0,filler_square,None,None,None,None,None,None,None,None,None,None,1,2.7436118125915527,None,,,,,0,0,0,0,0,81,81,198,697.2174272537231,,,,,,,,,,,,,,,,,,,,,,,,,,,,,,,,,,,,,,,,,,,,,,,,,,,,,,,,,,,,,,,,,,,,,,,,,,,,,,,,,66.96389729481353,66.96389729481353,63.17002979243727,57.151349056912956,57.78021956075956,64.2055305813828,2.1,2.12,-158,-283,0,-273,157,288,697.2026093006134,697.2026538848877,697.2051482200623,697.2174272537231,697.3671758174896,697.3671758174896,697.3671758174896,697.3671758174896,697.3671758174896,697.3671758174896,697.3671758174896,699.9683651924133,1,2.7436118125915527,None,,,,,,,,,,,,,,,,,,16,5,2025-02-18_14h06.17.019,comp,2024.2.4,60.05091215219812,2025-02-18 14h06.24.783075 -0500,
82,82,0,critical,hwd,20.0,2.1,lower,133.0,57.0,57.0,133.0,78.0,78.0,1,23.776694297790527,None,,,,,0,0,0,0,0,82,82,42,699.9840912818909,,,,,,,,,,,,,,,,,,,,,,,,,,,,,,,,,,,,,,,,,,,,,,,,,,,,,,,,,,,,,,,,,,,,,,,,,,,,,,,,,133.0,57.0,57.0,133.0,78.0,78.0,2.1,2.12,-191,-272,0,-271,202,274,699.9691836833954,699.9692282676697,699.9717121124268,699.9840912818909,700.1341090202332,700.1341090202332,700.1341090202332,700.1341090202332,700.1341090202332,700.1341090202332,700.1341090202332,723.768098115921,1,23.776694297790527,None,,,,,,,,,,,,,,,,,,16,5,2025-02-18_14h06.17.019,comp,2024.2.4,60.05091215219812,2025-02-18 14h06.24.783075 -0500,
83,83,0,filler_square,None,None,None,None,None,None,None,None,None,None,3,2.4170050621032715,None,,,,,0,0,0,0,0,83,83,182,723.7837762832642,,,,,,,,,,,,,,,,,,,,,,,,,,,,,,,,,,,,,,,,,,,,,,,,,,,,,,,,,,,,,,,,,,,,,,,,,,,,,,,,,110.61989778052501,61.885308786840646,157.92126575808825,173.11904829670863,177.3657634603373,177.3657634603373,3.0,3.2,-214,-258,0,-15,271,260,723.7690567970276,723.769101858139,723.7715365886688,723.7837762832642,723.9337160587311,723.9337160587311,723.9337160587311,723.9337160587311,723.9337160587311,723.9337160587311,723.9337160587311,726.2182328701019,3,2.4170050621032715,None,,,,,,,,,,,,,,,,,,16,5,2025-02-18_14h06.17.019,comp,2024.2.4,60.05091215219812,2025-02-18 14h06.24.783075 -0500,
84,84,0,filler_square,None,None,None,None,None,None,None,None,None,None,1,1.664268970489502,None,,,,,0,0,0,0,0,84,84,192,726.2336368560791,,,,,,,,,,,,,,,,,,,,,,,,,,,,,,,,,,,,,,,,,,,,,,,,,,,,,,,,,,,,,,,,,,,,,,,,,,,,,,,,,75.75751412042213,75.75751412042213,65.34934172050379,62.1173834818444,69.07572689977226,62.66400462018491,1.0,1.2,-165,15,0,17,158,12,726.2191925048828,726.2192358970642,726.2216358184814,726.2336368560791,726.3834166526794,726.3834166526794,726.3834166526794,726.3834166526794,726.3834166526794,726.3834166526794,726.3834166526794,727.9014229774475,1,1.664268970489502,None,,,,,,,,,,,,,,,,,,16,5,2025-02-18_14h06.17.019,comp,2024.2.4,60.05091215219812,2025-02-18 14h06.24.783075 -0500,
85,85,0,filler_random,None,None,None,None,None,None,None,None,None,None,2,1.0921235084533691,None,,,,,0,0,0,0,0,85,85,138,727.9169318675995,,,,,,,,,,,,,,,,,,,,,,,,,,,,,,,,,,,,,,,,,,,,,,,,,,,,,,,,,,,,,,,,,,,,,,,,,,,,,,,,,194.92748365537548,125.23424026791243,189.22183209180733,198.02876994279652,142.19790032610086,82.19545969041626,2.1,2.12,-258,-270,0,-252,236,257,727.9023568630219,727.9024004936218,727.9049108028412,727.9169318675995,728.0672490596771,728.0672490596771,728.0672490596771,728.0672490596771,728.0672490596771,728.0672490596771,728.0672490596771,729.0182631015778,2,1.0921235084533691,None,,,,,,,,,,,,,,,,,,16,5,2025-02-18_14h06.17.019,comp,2024.2.4,60.05091215219812,2025-02-18 14h06.24.783075 -0500,
86,86,0,critical,hwd,35.0,2.1,upper,200.0,125.0,125.0,200.0,127.0,127.0,1,5.20595121383667,None,,,,,0,0,0,0,0,86,86,17,729.0336244106293,,,,,,,,,,,,,,,,,,,,,,,,,,,,,,,,,,,,,,,,,,,,,,,,,,,,,,,,,,,,,,,,,,,,,,,,,,,,,,,,,200.0,125.0,125.0,200.0,127.0,127.0,2.1,2.11,-258,290,0,290,260,-289,729.0190629959106,729.0191078186035,729.0217263698578,729.0336244106293,729.1836421489716,729.1836421489716,729.1836421489716,729.1836421489716,729.1836421489716,729.1836421489716,729.1836421489716,734.251583814621,1,5.20595121383667,None,,,,,,,,,,,,,,,,,,16,5,2025-02-18_14h06.17.019,comp,2024.2.4,60.05091215219812,2025-02-18 14h06.24.783075 -0500,
87,87,0,critical,hdw,35.0,2.1,upper,200.0,125.0,127.0,127.0,125.0,200.0,3,10.933825254440308,None,,,,,0,0,0,0,0,87,87,45,734.2666008472443,,,,,,,,,,,,,,,,,,,,,,,,,,,,,,,,,,,,,,,,,,,,,,,,,,,,,,,,,,,,,,,,,,,,,,,,,,,,,,,,,200.0,125.0,127.0,127.0,125.0,200.0,2.1,2.11,-222,253,0,254,260,-251,734.252388715744,734.2524311542511,734.2551264762878,734.2666008472443,734.4171929359436,734.4171929359436,734.4171929359436,734.4171929359436,734.4171929359436,734.4171929359436,734.4171929359436,745.2179250717163,3,10.933825254440308,None,,,,,,,,,,,,,,,,,,16,5,2025-02-18_14h06.17.019,comp,2024.2.4,60.05091215219812,2025-02-18 14h06.24.783075 -0500,
88,88,0,filler_random,None,None,None,None,None,None,None,None,None,None,2,1.2546796798706055,None,,,,,0,0,0,0,0,88,88,160,745.2333467006683,,,,,,,,,,,,,,,,,,,,,,,,,,,,,,,,,,,,,,,,,,,,,,,,,,,,,,,,,,,,,,,,,,,,,,,,,,,,,,,,,59.30395055586709,158.50354130248428,161.97152706085495,179.56163083296175,87.57828282599645,86.2014991988527,2.2,2.22,-265,265,0,-281,229,-279,745.2188627719879,745.2189066410065,745.2210323810577,745.2333467006683,745.38365650177,745.38365650177,745.38365650177,745.38365650177,745.38365650177,745.38365650177,745.38365650177,746.5011887550354,2,1.2546796798706055,None,,,,,,,,,,,,,,,,,,16,5,2025-02-18_14h06.17.019,comp,2024.2.4,60.05091215219812,2025-02-18 14h06.24.783075 -0500,
89,89,0,critical,whd,20.0,2.1,lower,57.0,133.0,133.0,57.0,78.0,78.0,2,14.818791151046753,None,,,,,0,0,0,0,0,89,89,38,746.5164625644684,,,,,,,,,,,,,,,,,,,,,,,,,,,,,,,,,,,,,,,,,,,,,,,,,,,,,,,,,,,,,,,,,,,,,,,,,,,,,,,,,57.0,133.0,133.0,57.0,78.0,78.0,2.1,2.12,-191,-278,0,-287,164,264,746.5019788742065,746.5020220279694,746.5044169425964,746.5164625644684,746.6665098667145,746.6665098667145,746.6665098667145,746.6665098667145,746.6665098667145,746.6665098667145,746.6665098667145,761.3508982658386,2,14.818791151046753,None,,,,,,,,,,,,,,,,,,16,5,2025-02-18_14h06.17.019,comp,2024.2.4,60.05091215219812,2025-02-18 14h06.24.783075 -0500,
90,90,0,critical,wdh,35.0,1.0,lower,57.0,133.0,70.0,70.0,133.0,57.0,3,12.483441829681396,None,,,,,0,0,0,0,0,90,90,72,761.3662297725677,,,,,,,,,,,,,,,,,,,,,,,,,,,,,,,,,,,,,,,,,,,,,,,,,,,,,,,,,,,,,,,,,,,,,,,,,,,,,,,,,57.0,133.0,70.0,70.0,133.0,57.0,1.0,1.2,-198,-13,0,3,160,-17,761.3516793251038,761.3517208099365,761.3538227081299,761.3662297725677,761.516722202301,761.516722202301,761.516722202301,761.516722202301,761.516722202301,761.516722202301,761.516722202301,773.8674857616425,3,12.483441829681396,None,,,,,,,,,,,,,,,,,,16,5,2025-02-18_14h06.17.019,comp,2024.2.4,60.05091215219812,2025-02-18 14h06.24.783075 -0500,
91,91,0,filler_square,None,None,None,None,None,None,None,None,None,None,2,0.999225378036499,None,,,,,0,0,0,0,0,91,91,175,773.8827061653137,,,,,,,,,,,,,,,,,,,,,,,,,,,,,,,,,,,,,,,,,,,,,,,,,,,,,,,,,,,,,,,,,,,,,,,,,,,,,,,,,62.82602370094084,77.08284419877627,108.42193122267186,108.42193122267186,68.22181887257885,72.25557701488005,2.1,2.12,-189,-281,0,-251,186,275,773.868447303772,773.8684923648834,773.8710496425629,773.8827061653137,774.0328769683838,774.0328769683838,774.0328769683838,774.0328769683838,774.0328769683838,774.0328769683838,774.0328769683838,774.8841626644135,2,0.999225378036499,None,,,,,,,,,,,,,,,,,,16,5,2025-02-18_14h06.17.019,comp,2024.2.4,60.05091215219812,2025-02-18 14h06.24.783075 -0500,
92,92,0,critical,hwd,20.0,1.0,upper,200.0,125.0,125.0,200.0,141.0,141.0,1,20.339032411575317,None,,,,,0,0,0,0,0,92,92,103,774.8996543884277,,,,,,,,,,,,,,,,,,,,,,,,,,,,,,,,,,,,,,,,,,,,,,,,,,,,,,,,,,,,,,,,,,,,,,,,,,,,,,,,,200.0,125.0,125.0,200.0,141.0,141.0,1.0,1.1,-738,267,-480,255,-214,282,774.8849987983704,774.8850426673889,774.8871738910675,774.8996543884277,775.049797296524,775.049797296524,775.049797296524,775.049797296524,775.049797296524,775.049797296524,775.049797296524,795.250962972641,1,20.339032411575317,None,,,,,,,,,,,,,,,,,,16,5,2025-02-18_14h06.17.019,comp,2024.2.4,60.05091215219812,2025-02-18 14h06.24.783075 -0500,
93,93,0,critical,dwh,35.0,1.0,upper,127.0,127.0,125.0,200.0,200.0,125.0,2,3.1339359283447266,None,,,,,0,0,0,0,0,93,93,61,795.2659056186676,,,,,,,,,,,,,,,,,,,,,,,,,,,,,,,,,,,,,,,,,,,,,,,,,,,,,,,,,,,,,,,,,,,,,,,,,,,,,,,,,127.0,127.0,125.0,200.0,200.0,125.0,1.0,1.1,-740,255,-480,288,-222,271,795.2517712116241,795.2518148422241,795.2538964748383,795.2659056186676,795.4164311885834,795.4164311885834,795.4164311885834,795.4164311885834,795.4164311885834,795.4164311885834,795.4164311885834,798.4171073436737,2,3.1339359283447266,None,,,,,,,,,,,,,,,,,,16,5,2025-02-18_14h06.17.019,comp,2024.2.4,60.05091215219812,2025-02-18 14h06.24.783075 -0500,
94,94,0,critical,wdh,35.0,4.0,upper,125.0,200.0,127.0,127.0,200.0,125.0,3,2.7921524047851562,None,,,,,0,0,0,0,0,94,94,77,798.4323217868805,,,,,,,,,,,,,,,,,,,,,,,,,,,,,,,,,,,,,,,,,,,,,,,,,,,,,,,,,,,,,,,,,,,,,,,,,,,,,,,,,125.0,200.0,127.0,127.0,200.0,125.0,4.0,4.2,-260,-5,0,-254,222,-6,798.4179103374481,798.4179518222809,798.4203932285309,798.4323217868805,798.5828683376312,798.5828683376312,798.5828683376312,798.5828683376312,798.5828683376312,798.5828683376312,798.5828683376312,801.2338337898254,3,2.7921524047851562,None,,,,,,,,,,,,,,,,,,16,5,2025-02-18_14h06.17.019,comp,2024.2.4,60.05091215219812,2025-02-18 14h06.24.783075 -0500,
95,95,0,critical,wdh,20.0,1.0,lower,57.0,133.0,78.0,78.0,133.0,57.0,1,15.789093494415283,None,,,,,0,0,0,0,0,95,95,78,801.2493357658386,,,,,,,,,,,,,,,,,,,,,,,,,,,,,,,,,,,,,,,,,,,,,,,,,,,,,,,,,,,,,,,,,,,,,,,,,,,,,,,,,57.0,133.0,78.0,78.0,133.0,57.0,1.0,1.1,-682,253,-480,257,-316,265,801.2347283363342,801.2347853183746,801.237143278122,801.2493357658386,801.3991696834564,801.3991696834564,801.3991696834564,801.3991696834564,801.3991696834564,801.3991696834564,801.3991696834564,817.0506067276001,1,15.789093494415283,None,,,,,,,,,,,,,,,,,,16,5,2025-02-18_14h06.17.019,comp,2024.2.4,60.05091215219812,2025-02-18 14h06.24.783075 -0500,
96,96,0,critical,hdw,20.0,2.1,upper,200.0,125.0,141.0,141.0,125.0,200.0,1,18.109665393829346,None,,,,,0,0,0,0,0,96,96,23,817.0656154155731,,,,,,,,,,,,,,,,,,,,,,,,,,,,,,,,,,,,,,,,,,,,,,,,,,,,,,,,,,,,,,,,,,,,,,,,,,,,,,,,,200.0,125.0,141.0,141.0,125.0,200.0,2.1,2.11,-229,287,0,263,266,-263,817.0514242649078,817.0514686107635,817.0541009902954,817.0656154155731,817.215993642807,817.215993642807,817.215993642807,817.215993642807,817.215993642807,817.215993642807,817.215993642807,835.1833457946777,1,18.109665393829346,None,,,,,,,,,,,,,,,,,,16,5,2025-02-18_14h06.17.019,comp,2024.2.4,60.05091215219812,2025-02-18 14h06.24.783075 -0500,
97,97,0,critical,hwd,20.0,1.0,lower,133.0,57.0,57.0,133.0,78.0,78.0,1,3.4500389099121094,None,,,,,0,0,0,0,0,97,97,102,835.1987743377686,,,,,,,,,,,,,,,,,,,,,,,,,,,,,,,,,,,,,,,,,,,,,,,,,,,,,,,,,,,,,,,,,,,,,,,,,,,,,,,,,133.0,57.0,57.0,133.0,78.0,78.0,1.0,1.3,289,-259,480,-277,682,-286,835.184161901474,835.1842060089111,835.1866841316223,835.1987743377686,835.348667383194,835.348667383194,835.348667383194,835.348667383194,835.348667383194,835.348667383194,835.348667383194,838.6665427684784,1,3.4500389099121094,None,,,,,,,,,,,,,,,,,,16,5,2025-02-18_14h06.17.019,comp,2024.2.4,60.05091215219812,2025-02-18 14h06.24.783075 -0500,
98,98,0,filler_square,None,None,None,None,None,None,None,None,None,None,2,1.6202998161315918,None,,,,,0,0,0,0,0,98,98,201,838.6820242404938,,,,,,,,,,,,,,,,,,,,,,,,,,,,,,,,,,,,,,,,,,,,,,,,,,,,,,,,,,,,,,,,,,,,,,,,,,,,,,,,,115.68501192749413,122.19512285975803,142.53919725502217,142.53919725502217,89.67571735225607,75.15404622330021,4.0,4.2,-228,-7,0,-271,205,8,838.6675279140472,838.6675698757172,838.670116186142,838.6820242404938,838.832288980484,838.832288980484,838.832288980484,838.832288980484,838.832288980484,838.832288980484,838.832288980484,840.3164916038513,2,1.6202998161315918,None,,,,,,,,,,,,,,,,,,16,5,2025-02-18_14h06.17.019,comp,2024.2.4,60.05091215219812,2025-02-18 14h06.24.783075 -0500,
99,99,0,filler_square,None,None,None,None,None,None,None,None,None,None,2,1.618525743484497,None,,,,,0,0,0,0,0,99,99,205,840.3318655490875,,,,,,,,,,,,,,,,,,,,,,,,,,,,,,,,,,,,,,,,,,,,,,,,,,,,,,,,,,,,,,,,,,,,,,,,,,,,,,,,,87.49893212583736,104.52074794737516,110.19520366921425,110.19520366921425,94.09178961889288,73.4673244737609,1.0,1.1,-683,269,-480,252,-292,289,840.3174545764923,840.3174977302551,840.3200223445892,840.3318655490875,840.4822590351105,840.4822590351105,840.4822590351105,840.4822590351105,840.4822590351105,840.4822590351105,840.4822590351105,841.966385602951,2,1.618525743484497,None,,,,,,,,,,,,,,,,,,16,5,2025-02-18_14h06.17.019,comp,2024.2.4,60.05091215219812,2025-02-18 14h06.24.783075 -0500,
100,100,0,filler_square,None,None,None,None,None,None,None,None,None,None,2,1.417250633239746,None,,,,,0,0,0,0,0,100,100,174,841.9819872379303,,,,,,,,,,,,,,,,,,,,,,,,,,,,,,,,,,,,,,,,,,,,,,,,,,,,,,,,,,,,,,,,,,,,,,,,,,,,,,,,,63.858999330626936,65.18385864317204,87.0512811424885,87.0512811424885,65.43220178773495,57.05473814798919,2.1,2.11,-172,264,0,262,168,-258,841.9673533439636,841.9673955440521,841.9699895381927,841.9819872379303,842.1320662498474,842.1320662498474,842.1320662498474,842.1320662498474,842.1320662498474,842.1320662498474,842.1320662498474,843.4164307117462,2,1.417250633239746,None,,,,,,,,,,,,,,,,,,16,5,2025-02-18_14h06.17.019,comp,2024.2.4,60.05091215219812,2025-02-18 14h06.24.783075 -0500,
101,101,0,critical,hdw,35.0,2.1,lower,133.0,57.0,70.0,70.0,57.0,133.0,1,12.616604328155518,None,,,,,0,0,0,0,0,101,101,44,843.4319450855255,,,,,,,,,,,,,,,,,,,,,,,,,,,,,,,,,,,,,,,,,,,,,,,,,,,,,,,,,,,,,,,,,,,,,,,,,,,,,,,,,133.0,57.0,70.0,70.0,57.0,133.0,2.1,2.11,-160,255,0,277,198,-263,843.417254447937,843.4172968864441,843.4198486804962,843.4319450855255,843.5819504261017,843.5819504261017,843.5819504261017,843.5819504261017,843.5819504261017,843.5819504261017,843.5819504261017,856.0665292739868,1,12.616604328155518,None,,,,,,,,,,,,,,,,,,16,5,2025-02-18_14h06.17.019,comp,2024.2.4,60.05091215219812,2025-02-18 14h06.24.783075 -0500,
102,102,0,critical,hwd,35.0,3.0,lower,133.0,57.0,57.0,133.0,70.0,70.0,1,2.8842368125915527,None,,,,,0,0,0,0,0,102,102,98,856.0817539691925,,,,,,,,,,,,,,,,,,,,,,,,,,,,,,,,,,,,,,,,,,,,,,,,,,,,,,,,,,,,,,,,,,,,,,,,,,,,,,,,,133.0,57.0,57.0,133.0,70.0,70.0,3.0,3.2,-191,-283,0,6,198,260,856.0673503875732,856.067394733429,856.0694711208344,856.0817539691925,856.2318840026855,856.2318840026855,856.2318840026855,856.2318840026855,856.2318840026855,856.2318840026855,856.2318840026855,858.9831163883209,1,2.8842368125915527,None,,,,,,,,,,,,,,,,,,16,5,2025-02-18_14h06.17.019,comp,2024.2.4,60.05091215219812,2025-02-18 14h06.24.783075 -0500,
103,103,0,filler_square,None,None,None,None,None,None,None,None,None,None,1,3.055535316467285,None,,,,,0,0,0,0,0,103,103,184,858.998304605484,,,,,,,,,,,,,,,,,,,,,,,,,,,,,,,,,,,,,,,,,,,,,,,,,,,,,,,,,,,,,,,,,,,,,,,,,,,,,,,,,172.85803832825584,172.85803832825584,156.83435426642433,84.1808276781641,172.33913466414754,78.1309399076062,2.2,2.21,-225,-259,0,261,177,255,858.9840891361237,858.9841330051422,858.9865479469299,858.998304605484,859.1485748291016,859.1485748291016,859.1485748291016,859.1485748291016,859.1485748291016,859.1485748291016,859.1485748291016,862.066403388977,1,3.055535316467285,None,,,,,,,,,,,,,,,,,,16,5,2025-02-18_14h06.17.019,comp,2024.2.4,60.05091215219812,2025-02-18 14h06.24.783075 -0500,
104,104,0,catch,None,None,None,None,None,None,None,None,None,None,1,1.2203340530395508,None,,,,,0,0,0,0,0,104,104,123,862.0816898345947,,,,,,,,,,,,,,,,,,,,,,,,,,,,,,,,,,,,,,,,,,,,,,,,,,,,,,,,,,,,,,,,,,,,,,,,,,,,,,,,,129,196,117,73,78,112,1.0,1.3,250,-262,480,-276,668,-285,862.0674576759338,862.0674996376038,862.0696074962616,862.0816898345947,862.2321739196777,862.2321739196777,862.2321739196777,862.2321739196777,862.2321739196777,862.2321739196777,862.2321739196777,863.3163406848907,1,1.2203340530395508,None,,,,,,,,,,,,,,,,,,16,5,2025-02-18_14h06.17.019,comp,2024.2.4,60.05091215219812,2025-02-18 14h06.24.783075 -0500,
105,105,0,catch,None,None,None,None,None,None,None,None,None,None,2,1.4272847175598145,None,,,,,0,0,0,0,0,105,105,120,863.331619977951,,,,,,,,,,,,,,,,,,,,,,,,,,,,,,,,,,,,,,,,,,,,,,,,,,,,,,,,,,,,,,,,,,,,,,,,,,,,,,,,,94,96,195,130,118,72,1.0,1.3,271,-280,480,-271,677,-257,863.3174047470093,863.3174476623535,863.3198885917664,863.331619977951,863.4819474220276,863.4819474220276,863.4819474220276,863.4819474220276,863.4819474220276,863.4819474220276,863.4819474220276,864.7660994529724,2,1.4272847175598145,None,,,,,,,,,,,,,,,,,,16,5,2025-02-18_14h06.17.019,comp,2024.2.4,60.05091215219812,2025-02-18 14h06.24.783075 -0500,
106,106,0,critical,dwh,20.0,2.1,upper,141.0,141.0,125.0,200.0,200.0,125.0,3,10.176952362060547,None,,,,,0,0,0,0,0,106,106,31,864.7818648815155,,,,,,,,,,,,,,,,,,,,,,,,,,,,,,,,,,,,,,,,,,,,,,,,,,,,,,,,,,,,,,,,,,,,,,,,,,,,,,,,,141.0,141.0,125.0,200.0,200.0,125.0,2.1,2.11,-266,253,0,258,258,-288,864.7669296264648,864.7669727802277,864.7693500518799,864.7818648815155,864.9319851398468,864.9319851398468,864.9319851398468,864.9319851398468,864.9319851398468,864.9319851398468,864.9319851398468,874.9663274288177,3,10.176952362060547,None,,,,,,,,,,,,,,,,,,16,5,2025-02-18_14h06.17.019,comp,2024.2.4,60.05091215219812,2025-02-18 14h06.24.783075 -0500,
107,107,0,filler_random,None,None,None,None,None,None,None,None,None,None,2,10.687664985656738,None,,,,,0,0,0,0,0,107,107,152,874.9818720817566,,,,,,,,,,,,,,,,,,,,,,,,,,,,,,,,,,,,,,,,,,,,,,,,,,,,,,,,,,,,,,,,,,,,,,,,,,,,,,,,,85.75242912901824,177.37879394680084,171.6296815146478,88.52752785271046,168.44488768265904,161.39886796932677,2.2,2.22,-229,281,0,-250,221,-256,874.9672405719757,874.96728515625,874.9697289466858,874.9818720817566,875.131799697876,875.131799697876,875.131799697876,875.131799697876,875.131799697876,875.131799697876,875.131799697876,885.7027606964111,2,10.687664985656738,None,,,,,,,,,,,,,,,,,,16,5,2025-02-18_14h06.17.019,comp,2024.2.4,60.05091215219812,2025-02-18 14h06.24.783075 -0500,
108,108,0,filler_random,None,None,None,None,None,None,None,None,None,None,2,9.457677125930786,None,,,,,0,0,0,0,0,108,108,146,885.7168414592743,,,,,,,,,,,,,,,,,,,,,,,,,,,,,,,,,,,,,,,,,,,,,,,,,,,,,,,,,,,,,,,,,,,,,,,,,,,,,,,,,142.39081961115448,94.7525314078765,195.61442617173697,83.8293921879512,146.85635289535176,69.62531006132711,1.0,1.2,-185,18,0,-3,173,-1,885.7036621570587,885.7037031650543,885.7056646347046,885.7168414592743,885.8653039932251,885.8653039932251,885.8653039932251,885.8653039932251,885.8653039932251,885.8653039932251,885.8653039932251,895.1825771331787,2,9.457677125930786,None,,,,,,,,,,,,,,,,,,16,5,2025-02-18_14h06.17.019,comp,2024.2.4,60.05091215219812,2025-02-18 14h06.24.783075 -0500,
109,109,0,filler_square,None,None,None,None,None,None,None,None,None,None,2,0.8880252838134766,None,,,,,0,0,0,0,0,109,109,179,895.1981165409088,,,,,,,,,,,,,,,,,,,,,,,,,,,,,,,,,,,,,,,,,,,,,,,,,,,,,,,,,,,,,,,,,,,,,,,,,,,,,,,,,74.3810886290441,108.12969273068151,170.1107963068519,170.1107963068519,71.54279235835484,80.05277607052555,3.0,3.1,-235,250,0,4,221,-276,895.1835794448853,895.1836235523224,895.1862626075745,895.1981165409088,895.3480713367462,895.3480713367462,895.3480713367462,895.3480713367462,895.3480713367462,895.3480713367462,895.3480713367462,896.0992052555084,2,0.8880252838134766,None,,,,,,,,,,,,,,,,,,16,5,2025-02-18_14h06.17.019,comp,2024.2.4,60.05091215219812,2025-02-18 14h06.24.783075 -0500,
110,110,0,critical,dwh,20.0,3.0,lower,78.0,78.0,57.0,133.0,133.0,57.0,2,10.68422269821167,None,,,,,0,0,0,0,0,110,110,68,896.1144094467163,,,,,,,,,,,,,,,,,,,,,,,,,,,,,,,,,,,,,,,,,,,,,,,,,,,,,,,,,,,,,,,,,,,,,,,,,,,,,,,,,78.0,78.0,57.0,133.0,133.0,57.0,3.0,3.2,-202,-277,0,7,191,273,896.1000258922577,896.1000692844391,896.1025221347809,896.1144094467163,896.2645959854126,896.2645959854126,896.2645959854126,896.2645959854126,896.2645959854126,896.2645959854126,896.2645959854126,906.8160634040833,2,10.68422269821167,None,,,,,,,,,,,,,,,,,,16,5,2025-02-18_14h06.17.019,comp,2024.2.4,60.05091215219812,2025-02-18 14h06.24.783075 -0500,
111,111,0,filler_random,None,None,None,None,None,None,None,None,None,None,1,4.033024787902832,None,,,,,0,0,0,0,0,111,111,149,906.8310763835907,,,,,,,,,,,,,,,,,,,,,,,,,,,,,,,,,,,,,,,,,,,,,,,,,,,,,,,,,,,,,,,,,,,,,,,,,,,,,,,,,87.21779359632097,171.47102172702,128.55412375912678,97.33927171935562,133.5439114520587,78.1471976052396,2.1,2.11,-230,289,0,286,184,-276,906.8169815540314,906.8170247077942,906.8191640377045,906.8310763835907,906.9813230037689,906.9813230037689,906.9813230037689,906.9813230037689,906.9813230037689,906.9813230037689,906.9813230037689,910.8657789230347,1,4.033024787902832,None,,,,,,,,,,,,,,,,,,16,5,2025-02-18_14h06.17.019,comp,2024.2.4,60.05091215219812,2025-02-18 14h06.24.783075 -0500,
112,112,0,filler_square,None,None,None,None,None,None,None,None,None,None,3,1.9987194538116455,None,,,,,0,0,0,0,0,112,112,177,910.8812470436096,,,,,,,,,,,,,,,,,,,,,,,,,,,,,,,,,,,,,,,,,,,,,,,,,,,,,,,,,,,,,,,,,,,,,,,,,,,,,,,,,61.276420675993855,85.90792713555432,122.29390829043169,74.61382264399417,124.86866828380623,124.86866828380623,2.2,2.21,-176,-274,0,264,196,269,910.8667085170746,910.8667647838593,910.8692858219147,910.8812470436096,911.0310328006744,911.0310328006744,911.0310328006744,911.0310328006744,911.0310328006744,911.0310328006744,911.0310328006744,912.8823845386505,3,1.9987194538116455,None,,,,,,,,,,,,,,,,,,16,5,2025-02-18_14h06.17.019,comp,2024.2.4,60.05091215219812,2025-02-18 14h06.24.783075 -0500,
113,113,0,filler_square,None,None,None,None,None,None,None,None,None,None,3,3.1552367210388184,None,,,,,0,0,0,0,0,113,113,183,912.8978862762451,,,,,,,,,,,,,,,,,,,,,,,,,,,,,,,,,,,,,,,,,,,,,,,,,,,,,,,,,,,,,,,,,,,,,,,,,,,,,,,,,57.11411288027036,59.90354159218021,73.9996393357609,60.48435256357388,74.82571676172982,74.82571676172982,2.1,2.11,-156,270,0,265,164,-282,912.8833525180817,912.8833954334259,912.8857550621033,912.8978862762451,913.0476679801941,913.0476679801941,913.0476679801941,913.0476679801941,913.0476679801941,913.0476679801941,913.0476679801941,916.0654883384705,3,3.1552367210388184,None,,,,,,,,,,,,,,,,,,16,5,2025-02-18_14h06.17.019,comp,2024.2.4,60.05091215219812,2025-02-18 14h06.24.783075 -0500,
114,114,0,critical,wdh,20.0,2.1,lower,57.0,133.0,78.0,78.0,133.0,57.0,1,11.277233839035034,None,,,,,0,0,0,0,0,114,114,10,916.0808713436127,,,,,,,,,,,,,,,,,,,,,,,,,,,,,,,,,,,,,,,,,,,,,,,,,,,,,,,,,,,,,,,,,,,,,,,,,,,,,,,,,57.0,133.0,78.0,78.0,133.0,57.0,2.1,2.12,-202,-254,0,-284,164,279,916.0663468837738,916.0663893222809,916.0689785480499,916.0808713436127,916.2311723232269,916.2311723232269,916.2311723232269,916.2311723232269,916.2311723232269,916.2311723232269,916.2311723232269,927.3653285503387,1,11.277233839035034,None,,,,,,,,,,,,,,,,,,16,5,2025-02-18_14h06.17.019,comp,2024.2.4,60.05091215219812,2025-02-18 14h06.24.783075 -0500,
115,115,0,filler_random,None,None,None,None,None,None,None,None,None,None,2,2.4417924880981445,None,,,,,0,0,0,0,0,115,115,142,927.3808972835541,,,,,,,,,,,,,,,,,,,,,,,,,,,,,,,,,,,,,,,,,,,,,,,,,,,,,,,,,,,,,,,,,,,,,,,,,,,,,,,,,74.00409486328849,86.55424356386371,135.89973225346154,171.77173373421618,83.45495761643923,186.11588015899991,2.2,2.22,-225,285,0,-273,275,-259,927.3662605285645,927.366304397583,927.3688318729401,927.3808972835541,927.5309474468231,927.5309474468231,927.5309474468231,927.5309474468231,927.5309474468231,927.5309474468231,927.5309474468231,929.8320925235748,2,2.4417924880981445,None,,,,,,,,,,,,,,,,,,16,5,2025-02-18_14h06.17.019,comp,2024.2.4,60.05091215219812,2025-02-18 14h06.24.783075 -0500,
116,116,0,critical,whd,35.0,1.0,upper,125.0,200.0,200.0,125.0,127.0,127.0,1,9.789012670516968,None,,,,,0,0,0,0,0,116,116,85,929.8478059768677,,,,,,,,,,,,,,,,,,,,,,,,,,,,,,,,,,,,,,,,,,,,,,,,,,,,,,,,,,,,,,,,,,,,,,,,,,,,,,,,,125.0,200.0,200.0,125.0,127.0,127.0,1.0,1.1,-738,257,-480,289,-258,283,929.8328886032104,929.8329315185547,929.8353579044342,929.8478059768677,929.9976394176483,929.9976394176483,929.9976394176483,929.9976394176483,929.9976394176483,929.9976394176483,929.9976394176483,939.6489658355713,1,9.789012670516968,None,,,,,,,,,,,,,,,,,,16,5,2025-02-18_14h06.17.019,comp,2024.2.4,60.05091215219812,2025-02-18 14h06.24.783075 -0500,
117,117,0,critical,dwh,35.0,2.1,lower,70.0,70.0,57.0,133.0,133.0,57.0,3,1.9587178230285645,None,,,,,0,0,0,0,0,117,117,28,939.6639533042908,,,,,,,,,,,,,,,,,,,,,,,,,,,,,,,,,,,,,,,,,,,,,,,,,,,,,,,,,,,,,,,,,,,,,,,,,,,,,,,,,70.0,70.0,57.0,133.0,133.0,57.0,2.1,2.11,-198,269,0,251,191,-264,939.6497654914856,939.6498084068298,939.6518948078156,939.6639533042908,939.8142201900482,939.8142201900482,939.8142201900482,939.8142201900482,939.8142201900482,939.8142201900482,939.8142201900482,941.6318471431732,3,1.9587178230285645,None,,,,,,,,,,,,,,,,,,16,5,2025-02-18_14h06.17.019,comp,2024.2.4,60.05091215219812,2025-02-18 14h06.24.783075 -0500,
118,118,0,critical,wdh,35.0,1.0,upper,125.0,200.0,127.0,127.0,200.0,125.0,3,14.669735193252563,None,,,,,0,0,0,0,0,118,118,73,941.6474266052246,,,,,,,,,,,,,,,,,,,,,,,,,,,,,,,,,,,,,,,,,,,,,,,,,,,,,,,,,,,,,,,,,,,,,,,,,,,,,,,,,125.0,200.0,127.0,127.0,200.0,125.0,1.0,1.3,220,-264,480,-280,702,-275,941.632675409317,941.6327180862427,941.6349997520447,941.6474266052246,941.7976951599121,941.7976951599121,941.7976951599121,941.7976951599121,941.7976951599121,941.7976951599121,941.7976951599121,956.3318054676056,3,14.669735193252563,None,,,,,,,,,,,,,,,,,,16,5,2025-02-18_14h06.17.019,comp,2024.2.4,60.05091215219812,2025-02-18 14h06.24.783075 -0500,
119,119,0,filler_random,None,None,None,None,None,None,None,None,None,None,3,1.7856667041778564,None,,,,,0,0,0,0,0,119,119,162,956.3470034599304,,,,,,,,,,,,,,,,,,,,,,,,,,,,,,,,,,,,,,,,,,,,,,,,,,,,,,,,,,,,,,,,,,,,,,,,,,,,,,,,,114.07324447448548,67.59833234256658,137.55571416740244,128.38325326618383,160.28298698833794,151.7772983291828,3.0,3.1,-194,255,0,-4,236,-284,956.3326780796051,956.3327207565308,956.3347535133362,956.3470034599304,956.497444152832,956.497444152832,956.497444152832,956.497444152832,956.497444152832,956.497444152832,956.497444152832,958.1483061313629,3,1.7856667041778564,None,,,,,,,,,,,,,,,,,,16,5,2025-02-18_14h06.17.019,comp,2024.2.4,60.05091215219812,2025-02-18 14h06.24.783075 -0500,
120,120,0,critical,hdw,20.0,2.1,lower,133.0,57.0,78.0,78.0,57.0,133.0,1,6.483530044555664,None,,,,,0,0,0,0,0,120,120,46,958.1636340618134,,,,,,,,,,,,,,,,,,,,,,,,,,,,,,,,,,,,,,,,,,,,,,,,,,,,,,,,,,,,,,,,,,,,,,,,,,,,,,,,,133.0,57.0,78.0,78.0,57.0,133.0,2.1,2.12,-164,-267,0,-276,202,289,958.1491103172302,958.1491515636444,958.1515970230103,958.1636340618134,958.3137156963348,958.3137156963348,958.3137156963348,958.3137156963348,958.3137156963348,958.3137156963348,958.3137156963348,964.6648535728455,1,6.483530044555664,None,,,,,,,,,,,,,,,,,,16,5,2025-02-18_14h06.17.019,comp,2024.2.4,60.05091215219812,2025-02-18 14h06.24.783075 -0500,
121,121,0,critical,dwh,20.0,2.1,upper,141.0,141.0,125.0,200.0,200.0,125.0,3,2.1273233890533447,None,,,,,0,0,0,0,0,121,121,7,964.6802892684937,,,,,,,,,,,,,,,,,,,,,,,,,,,,,,,,,,,,,,,,,,,,,,,,,,,,,,,,,,,,,,,,,,,,,,,,,,,,,,,,,141.0,141.0,125.0,200.0,200.0,125.0,2.1,2.11,-266,278,0,257,258,-269,964.6656458377838,964.665689945221,964.6679818630219,964.6802892684937,964.83056640625,964.83056640625,964.83056640625,964.83056640625,964.83056640625,964.83056640625,964.83056640625,966.8211379051208,3,2.1273233890533447,None,,,,,,,,,,,,,,,,,,16,5,2025-02-18_14h06.17.019,comp,2024.2.4,60.05091215219812,2025-02-18 14h06.24.783075 -0500,
122,122,0,critical,whd,20.0,2.1,upper,125.0,200.0,200.0,125.0,141.0,141.0,2,2.158963918685913,None,,,,,0,0,0,0,0,122,122,39,966.8471386432648,,,,,,,,,,,,,,,,,,,,,,,,,,,,,,,,,,,,,,,,,,,,,,,,,,,,,,,,,,,,,,,,,,,,,,,,,,,,,,,,,125.0,200.0,200.0,125.0,141.0,141.0,2.1,2.12,-258,-258,0,-257,229,256,966.8222272396088,966.822268486023,966.8241138458252,966.8471386432648,966.9817049503326,966.9817049503326,966.9817049503326,966.9817049503326,966.9817049503326,966.9817049503326,966.9817049503326,969.0150651931763,2,2.158963918685913,None,,,,,,,,,,,,,,,,,,16,5,2025-02-18_14h06.17.019,comp,2024.2.4,60.05091215219812,2025-02-18 14h06.24.783075 -0500,
123,123,0,filler_random,None,None,None,None,None,None,None,None,None,None,2,4.633052349090576,None,,,,,0,0,0,0,0,123,123,165,969.0304615497589,,,,,,,,,,,,,,,,,,,,,,,,,,,,,,,,,,,,,,,,,,,,,,,,,,,,,,,,,,,,,,,,,,,,,,,,,,,,,,,,,94.67961286113062,95.32953675885929,150.52315991961575,82.65672257102123,144.41042302479335,59.15160571678851,4.0,4.2,-185,18,0,-282,167,14,969.0159647464752,969.016007900238,969.0185425281525,969.0304615497589,969.1804141998291,969.1804141998291,969.1804141998291,969.1804141998291,969.1804141998291,969.1804141998291,969.1804141998291,973.665018081665,2,4.633052349090576,None,,,,,,,,,,,,,,,,,,16,5,2025-02-18_14h06.17.019,comp,2024.2.4,60.05091215219812,2025-02-18 14h06.24.783075 -0500,
124,124,0,critical,hdw,35.0,1.0,lower,133.0,57.0,70.0,70.0,57.0,133.0,3,3.2520601749420166,None,,,,,0,0,0,0,0,124,124,108,973.6804115772247,,,,,,,,,,,,,,,,,,,,,,,,,,,,,,,,,,,,,,,,,,,,,,,,,,,,,,,,,,,,,,,,,,,,,,,,,,,,,,,,,133.0,57.0,70.0,70.0,57.0,133.0,1.0,1.3,320,-257,480,-263,678,-286,973.6658411026001,973.6658847332001,973.6680362224579,973.6804115772247,973.8302359580994,973.8302359580994,973.8302359580994,973.8302359580994,973.8302359580994,973.8302359580994,973.8302359580994,976.9480609893799,3,3.2520601749420166,None,,,,,,,,,,,,,,,,,,16,5,2025-02-18_14h06.17.019,comp,2024.2.4,60.05091215219812,2025-02-18 14h06.24.783075 -0500,
125,125,0,critical,whd,35.0,4.0,lower,57.0,133.0,133.0,57.0,70.0,70.0,2,5.577859878540039,None,,,,,0,0,0,0,0,125,125,88,976.9634940624237,,,,,,,,,,,,,,,,,,,,,,,,,,,,,,,,,,,,,,,,,,,,,,,,,,,,,,,,,,,,,,,,,,,,,,,,,,,,,,,,,57.0,133.0,133.0,57.0,70.0,70.0,4.0,4.2,-191,6,0,-265,160,-3,976.9488623142242,976.9489052295685,976.9513649940491,976.9634940624237,977.1134793758392,977.1134793758392,977.1134793758392,977.1134793758392,977.1134793758392,977.1134793758392,977.1134793758392,982.5478892326355,2,5.577859878540039,None,,,,,,,,,,,,,,,,,,16,5,2025-02-18_14h06.17.019,comp,2024.2.4,60.05091215219812,2025-02-18 14h06.24.783075 -0500,
126,126,0,critical,hwd,20.0,4.0,lower,133.0,57.0,57.0,133.0,78.0,78.0,2,5.361698627471924,None,,,,,0,0,0,0,0,126,126,106,982.5635449886322,,,,,,,,,,,,,,,,,,,,,,,,,,,,,,,,,,,,,,,,,,,,,,,,,,,,,,,,,,,,,,,,,,,,,,,,,,,,,,,,,133.0,57.0,57.0,133.0,78.0,78.0,4.0,4.2,-191,17,0,-282,202,-10,982.5487010478973,982.5487565994263,982.5508143901825,982.5635449886322,982.7134964466095,982.7134964466095,982.7134964466095,982.7134964466095,982.7134964466095,982.7134964466095,982.7134964466095,987.931143283844,2,5.361698627471924,None,,,,,,,,,,,,,,,,,,16,5,2025-02-18_14h06.17.019,comp,2024.2.4,60.05091215219812,2025-02-18 14h06.24.783075 -0500,
127,127,0,critical,dwh,35.0,3.0,lower,70.0,70.0,57.0,133.0,133.0,57.0,3,3.0343098640441895,None,,,,,0,0,0,0,0,127,127,62,987.9468576908112,,,,,,,,,,,,,,,,,,,,,,,,,,,,,,,,,,,,,,,,,,,,,,,,,,,,,,,,,,,,,,,,,,,,,,,,,,,,,,,,,70.0,70.0,57.0,133.0,133.0,57.0,3.0,3.2,-198,-255,0,3,191,276,987.9319479465485,987.9319913387299,987.9343440532684,987.9468576908112,988.0968954563141,988.0968954563141,988.0968954563141,988.0968954563141,988.0968954563141,988.0968954563141,988.0968954563141,991.0002496242523,3,3.0343098640441895,None,,,,,,,,,,,,,,,,,,16,5,2025-02-18_14h06.17.019,comp,2024.2.4,60.05091215219812,2025-02-18 14h06.24.783075 -0500,
128,128,0,filler_square,None,None,None,None,None,None,None,None,None,None,2,0.846940279006958,None,,,,,0,0,0,0,0,128,128,208,991.016120672226,,,,,,,,,,,,,,,,,,,,,,,,,,,,,,,,,,,,,,,,,,,,,,,,,,,,,,,,,,,,,,,,,,,,,,,,,,,,,,,,,118.041806773927,117.76643292873526,170.59809513091994,170.59809513091994,66.57313377854216,147.84606508321554,3.0,3.1,-240,274,0,19,255,-260,991.0015983581543,991.0016388893127,991.0043036937714,991.016120672226,991.1638865470886,991.1638865470886,991.1638865470886,991.1638865470886,991.1638865470886,991.1638865470886,991.1638865470886,991.8646996021271,2,0.846940279006958,None,,,,,,,,,,,,,,,,,,16,5,2025-02-18_14h06.17.019,comp,2024.2.4,60.05091215219812,2025-02-18 14h06.24.783075 -0500,
129,129,0,critical,hwd,35.0,4.0,upper,200.0,125.0,125.0,200.0,127.0,127.0,2,1.5018937587738037,None,,,,,0,0,0,0,0,129,129,101,991.8799693584442,,,,,,,,,,,,,,,,,,,,,,,,,,,,,,,,,,,,,,,,,,,,,,,,,,,,,,,,,,,,,,,,,,,,,,,,,,,,,,,,,200.0,125.0,125.0,200.0,127.0,127.0,4.0,4.2,-258,-11,0,-269,260,-18,991.8655009269714,991.8655421733856,991.8675246238708,991.8799693584442,992.0302150249481,992.0302150249481,992.0302150249481,992.0302150249481,992.0302150249481,992.0302150249481,992.0302150249481,993.3979201316833,2,1.5018937587738037,None,,,,,,,,,,,,,,,,,,16,5,2025-02-18_14h06.17.019,comp,2024.2.4,60.05091215219812,2025-02-18 14h06.24.783075 -0500,
130,130,0,critical,hdw,20.0,4.0,upper,200.0,125.0,141.0,141.0,125.0,200.0,1,3.5034866333007812,None,,,,,0,0,0,0,0,130,130,119,993.4131917953491,,,,,,,,,,,,,,,,,,,,,,,,,,,,,,,,,,,,,,,,,,,,,,,,,,,,,,,,,,,,,,,,,,,,,,,,,,,,,,,,,200.0,125.0,141.0,141.0,125.0,200.0,4.0,4.1,-229,-286,0,-18,266,-257,993.3987309932709,993.3987858295441,993.4019825458527,993.4131917953491,993.5636253356934,993.5636253356934,993.5636253356934,993.5636253356934,993.5636253356934,993.5636253356934,993.5636253356934,996.9312603473663,1,3.5034866333007812,None,,,,,,,,,,,,,,,,,,16,5,2025-02-18_14h06.17.019,comp,2024.2.4,60.05091215219812,2025-02-18 14h06.24.783075 -0500,
131,131,0,critical,whd,20.0,1.0,upper,125.0,200.0,200.0,125.0,141.0,141.0,1,5.842500686645508,None,,,,,0,0,0,0,0,131,131,91,996.946573972702,,,,,,,,,,,,,,,,,,,,,,,,,,,,,,,,,,,,,,,,,,,,,,,,,,,,,,,,,,,,,,,,,,,,,,,,,,,,,,,,,125.0,200.0,200.0,125.0,141.0,141.0,1.0,1.1,-738,264,-480,268,-251,260,996.9320938587189,996.9321372509003,996.9345717430115,996.946573972702,997.0968387126923,997.0968387126923,997.0968387126923,997.0968387126923,997.0968387126923,997.0968387126923,997.0968387126923,1002.7978339195251,1,5.842500686645508,None,,,,,,,,,,,,,,,,,,16,5,2025-02-18_14h06.17.019,comp,2024.2.4,60.05091215219812,2025-02-18 14h06.24.783075 -0500,
132,132,0,filler_random,None,None,None,None,None,None,None,None,None,None,1,1.086571455001831,None,,,,,0,0,0,0,0,132,132,140,1002.8136470317841,,,,,,,,,,,,,,,,,,,,,,,,,,,,,,,,,,,,,,,,,,,,,,,,,,,,,,,,,,,,,,,,,,,,,,,,,,,,,,,,,168.73264038499747,186.36542928729486,72.45410774571461,123.84463571404139,88.094573002589,140.42913748785446,2.1,2.12,-251,-271,0,-276,228,280,1002.7987170219421,1002.7987720966339,1002.8008303642273,1002.8136470317841,1002.9632911682129,1002.9632911682129,1002.9632911682129,1002.9632911682129,1002.9632911682129,1002.9632911682129,1002.9632911682129,1003.9144439697266,1,1.086571455001831,None,,,,,,,,,,,,,,,,,,16,5,2025-02-18_14h06.17.019,comp,2024.2.4,60.05091215219812,2025-02-18 14h06.24.783075 -0500,
133,133,0,filler_square,None,None,None,None,None,None,None,None,None,None,2,1.1222631931304932,None,,,,,0,0,0,0,0,133,133,171,1003.9297592639923,,,,,,,,,,,,,,,,,,,,,,,,,,,,,,,,,,,,,,,,,,,,,,,,,,,,,,,,,,,,,,,,,,,,,,,,,,,,,,,,,80.23389476538895,145.7749594646911,192.0219459327153,192.0219459327153,70.12945365505553,120.90100054693758,2.2,2.21,-265,-264,0,254,252,251,1003.9154100418091,1003.9154536724091,1003.9179713726044,1003.9297592639923,1004.0799453258514,1004.0799453258514,1004.0799453258514,1004.0799453258514,1004.0799453258514,1004.0799453258514,1004.0799453258514,1005.0646240711212,2,1.1222631931304932,None,,,,,,,,,,,,,,,,,,16,5,2025-02-18_14h06.17.019,comp,2024.2.4,60.05091215219812,2025-02-18 14h06.24.783075 -0500,
134,134,0,critical,dwh,35.0,4.0,upper,127.0,127.0,125.0,200.0,200.0,125.0,3,3.7173492908477783,None,,,,,0,0,0,0,0,134,134,65,1005.0796875953674,,,,,,,,,,,,,,,,,,,,,,,,,,,,,,,,,,,,,,,,,,,,,,,,,,,,,,,,,,,,,,,,,,,,,,,,,,,,,,,,,127.0,127.0,125.0,200.0,200.0,125.0,4.0,4.2,-260,-20,0,-268,258,-5,1005.065425157547,1005.0654678344727,1005.0681056976318,1005.0796875953674,1005.2299430370331,1005.2299430370331,1005.2299430370331,1005.2299430370331,1005.2299430370331,1005.2299430370331,1005.2299430370331,1008.8145177364349,3,3.7173492908477783,None,,,,,,,,,,,,,,,,,,16,5,2025-02-18_14h06.17.019,comp,2024.2.4,60.05091215219812,2025-02-18 14h06.24.783075 -0500,
135,135,0,critical,hwd,35.0,1.0,upper,200.0,125.0,125.0,200.0,127.0,127.0,1,11.311334133148193,None,,,,,0,0,0,0,0,135,135,97,1008.8297252655029,,,,,,,,,,,,,,,,,,,,,,,,,,,,,,,,,,,,,,,,,,,,,,,,,,,,,,,,,,,,,,,,,,,,,,,,,,,,,,,,,200.0,125.0,125.0,200.0,127.0,127.0,1.0,1.1,-738,285,-480,253,-220,286,1008.8153281211853,1008.815370798111,1008.817852973938,1008.8297252655029,1008.9804151058197,1008.9804151058197,1008.9804151058197,1008.9804151058197,1008.9804151058197,1008.9804151058197,1008.9804151058197,1020.1476910114288,1,11.311334133148193,None,,,,,,,,,,,,,,,,,,16,5,2025-02-18_14h06.17.019,comp,2024.2.4,60.05091215219812,2025-02-18 14h06.24.783075 -0500,
136,136,0,filler_random,None,None,None,None,None,None,None,None,None,None,2,1.0259082317352295,None,,,,,0,0,0,0,0,136,136,169,1020.1631059646606,,,,,,,,,,,,,,,,,,,,,,,,,,,,,,,,,,,,,,,,,,,,,,,,,,,,,,,,,,,,,,,,,,,,,,,,,,,,,,,,,72.25406192591537,71.88188081155621,138.7442849773164,186.68723946542985,130.13525486720187,123.23835614852793,2.1,2.11,-225,263,0,267,251,-272,1020.1486079692841,1020.1486525535583,1020.150848865509,1020.1631059646606,1020.3130440711975,1020.3130440711975,1020.3130440711975,1020.3130440711975,1020.3130440711975,1020.3130440711975,1020.3130440711975,1021.1975281238556,2,1.0259082317352295,None,,,,,,,,,,,,,,,,,,16,5,2025-02-18_14h06.17.019,comp,2024.2.4,60.05091215219812,2025-02-18 14h06.24.783075 -0500,
137,137,0,filler_random,None,None,None,None,None,None,None,None,None,None,3,5.927716493606567,None,,,,,0,0,0,0,0,137,137,153,1021.213042974472,,,,,,,,,,,,,,,,,,,,,,,,,,,,,,,,,,,,,,,,,,,,,,,,,,,,,,,,,,,,,,,,,,,,,,,,,,,,,,,,,132.63897117685553,76.09111128662596,149.24897023669806,82.84305112765375,171.80559608807556,75.56000287656244,2.1,2.11,-175,253,0,289,175,-269,1021.1984491348267,1021.1984920501709,1021.2011294364929,1021.213042974472,1021.3630347251892,1021.3630347251892,1021.3630347251892,1021.3630347251892,1021.3630347251892,1021.3630347251892,1021.3630347251892,1027.1474010944366,3,5.927716493606567,None,,,,,,,,,,,,,,,,,,16,5,2025-02-18_14h06.17.019,comp,2024.2.4,60.05091215219812,2025-02-18 14h06.24.783075 -0500,
138,138,0,filler_square,None,None,None,None,None,None,None,None,None,None,3,5.72133469581604,None,,,,,0,0,0,0,0,138,138,190,1027.1630358695984,,,,,,,,,,,,,,,,,,,,,,,,,,,,,,,,,,,,,,,,,,,,,,,,,,,,,,,,,,,,,,,,,,,,,,,,,,,,,,,,,102.81197031768572,92.50346056377941,69.31268212508441,82.91023003202962,132.63683427102734,132.63683427102734,4.0,4.2,-184,14,0,-275,204,-16,1027.1483516693115,1027.1483945846558,1027.150552034378,1027.1630358695984,1027.3129251003265,1027.3129251003265,1027.3129251003265,1027.3129251003265,1027.3129251003265,1027.3129251003265,1027.3129251003265,1032.8974063396454,3,5.72133469581604,None,,,,,,,,,,,,,,,,,,16,5,2025-02-18_14h06.17.019,comp,2024.2.4,60.05091215219812,2025-02-18 14h06.24.783075 -0500,
139,139,0,critical,hwd,20.0,3.0,lower,133.0,57.0,57.0,133.0,78.0,78.0,1,6.435074806213379,None,,,,,0,0,0,0,0,139,139,104,1032.9126915931702,,,,,,,,,,,,,,,,,,,,,,,,,,,,,,,,,,,,,,,,,,,,,,,,,,,,,,,,,,,,,,,,,,,,,,,,,,,,,,,,,133.0,57.0,57.0,133.0,78.0,78.0,3.0,3.1,-191,268,0,-19,202,-271,1032.8982329368591,1032.8982770442963,1032.9008209705353,1032.9126915931702,1033.062745809555,1033.062745809555,1033.062745809555,1033.062745809555,1033.062745809555,1033.062745809555,1033.062745809555,1039.363891363144,1,6.435074806213379,None,,,,,,,,,,,,,,,,,,16,5,2025-02-18_14h06.17.019,comp,2024.2.4,60.05091215219812,2025-02-18 14h06.24.783075 -0500,
140,140,0,filler_square,None,None,None,None,None,None,None,None,None,None,3,2.314398765563965,None,,,,,0,0,0,0,0,140,140,170,1039.3792049884796,,,,,,,,,,,,,,,,,,,,,,,,,,,,,,,,,,,,,,,,,,,,,,,,,,,,,,,,,,,,,,,,,,,,,,,,,,,,,,,,,142.07366405668006,112.10060653061032,80.28606224161322,76.06172267679956,158.60078050187408,158.60078050187408,1.0,1.3,290,-253,480,-257,693,-254,1039.364822626114,1039.3648636341095,1039.3671748638153,1039.3792049884796,1039.5294318199158,1039.5294318199158,1039.5294318199158,1039.5294318199158,1039.5294318199158,1039.5294318199158,1039.5294318199158,1041.6974387168884,3,2.314398765563965,None,,,,,,,,,,,,,,,,,,16,5,2025-02-18_14h06.17.019,comp,2024.2.4,60.05091215219812,2025-02-18 14h06.24.783075 -0500,
