thisN,thisTrialN,thisRepN,effect,order,distance,config,diag,h_1,w_1,h_2,w_2,h_3,w_3,rect_choice.keys,rect_choice.rt,rect_choice.duration,instructions_loop.thisRepN,instructions_loop.thisTrialN,instructions_loop.thisN,instructions_loop.thisIndex,blocks.thisRepN,blocks.thisTrialN,blocks.thisN,blocks.thisIndex,trials.thisRepN,trials.thisTrialN,trials.thisN,trials.thisIndex,thisRow.t,notes,consent.started,agree_button.started,decline_button.started,consent_img.started,mouse.started,consent.stopped,agree_button.numClicks,agree_button.timesOn,agree_button.timesOff,decline_button.numClicks,decline_button.timesOn,decline_button.timesOff,mouse.x,mouse.y,mouse.leftButton,mouse.midButton,mouse.rightButton,mouse.time,mouse.clicked_name,exp_params.started,exp_params.stopped,welcome.started,welcome_text.started,welcome.stopped,instructions_1.started,instructions_1_text_1.started,instructions_1_text_2.started,key_resp.started,instructions_1.stopped,instructions_loop.key_resp.keys,instructions_loop.key_resp.rt,instructions_loop.key_resp.duration,instructions_2.started,instructions_2_text_1.started,instructions_2_text_2.started,key_resp_2.started,instructions_2.stopped,instructions_loop.key_resp_2.keys,instructions_loop.key_resp_2.rt,instructions_loop.key_resp_2.duration,instructions_3.started,instructions_3_text_1.started,r1_instr3.started,r2_instr3.started,r3_instr3.started,r1_instr3_label.started,r2_instr3_label.started,r3_instr3_label.started,instructions_3_text_3.started,instructions_3_text_4.started,key_resp_3.started,instructions_3.stopped,instructions_loop.key_resp_3.keys,instructions_loop.key_resp_3.rt,instructions_loop.key_resp_3.duration,instructions_4.started,instructions_4_text_1.started,instructions_4_text_3.started,instructions_4_text_2.started,key_resp_4.started,instructions_4.stopped,instructions_loop.key_resp_4.keys,instructions_loop.key_resp_4.rt,instructions_loop.key_resp_4.duration,instructions_5.started,instructions_5_text_1.started,instructions_5_text_2.started,key_resp_5.started,instructions_5.stopped,instructions_loop.key_resp_5.keys,instructions_loop.key_resp_5.rt,instructions_loop.key_resp_5.duration,start_exp.started,start_exp_text.started,key_resp_6.started,start_exp.stopped,key_resp_6.keys,key_resp_6.rt,key_resp_6.duration,h_1_tmp,w_1_tmp,h_2_tmp,w_2_tmp,h_3_tmp,w_3_tmp,config_tmp,config_tmp_1,r_1_x,r_1_y,r_2_x,r_2_y,r_3_x,r_3_y,pre_trial.started,pre_trial.stopped,choice_trial.started,rect_choice.started,r_1.started,r_2.started,r_3.started,r_1_label.started,r_2_label.started,r_3_label.started,prompt.started,choice_trial.stopped,trials.rect_choice.keys,trials.rect_choice.rt,trials.rect_choice.duration,end_block.started,end_block_text.started,end_block.stopped,end.started,end_text.started,key_resp_7.started,end.stopped,key_resp_7.keys,key_resp_7.rt,key_resp_7.duration,debriefing.started,debrief_form.started,end_debrief.started,debriefing.stopped,end_debrief.keys,end_debrief.rt,end_debrief.duration,participant,computer,date,expName,psychopyVersion,frameRate,expStart,
,,,,,,,,,,,,,,,,,,,,,,,,,,,,,,,0.014804601669311523,0.038890838623046875,0.038890838623046875,0.038890838623046875,0.01456904411315918,22.545228004455566,1,[22.503958702087402],[22.50398063659668],0,,,[-66.0],[-514.0],[1],[0],[0],[22.529855966567993],['agree_button'],,,,,,,,,,,,,,,,,,,,,,,,,,,,,,,,,,,,,,,,,,,,,,,,,,,,,,,,,,,,,,,,,,,,,,,,,,,,,,,,,,,,,,,,,,,,,,,,,,,,,,,,,,,170,4,2025-03-03_11h02.46.709,comp,2024.2.4,56.555285729117934,2025-03-03 11h02.57.663837 -0500,
,,,,,,,,,,,,,,,,,,,,,,,,,,,,,,,,,,,,,,,,,,,,,,,,,,22.54576277732849,22.545828342437744,,,,,,,,,,,,,,,,,,,,,,,,,,,,,,,,,,,,,,,,,,,,,,,,,,,,,,,,,,,,,,,,,,,,,,,,,,,,,,,,,,,,,,,,,,,,,,,,,,,,,,,,,170,4,2025-03-03_11h02.46.709,comp,2024.2.4,56.555285729117934,2025-03-03 11h02.57.663837 -0500,
,,,,,,,,,,,,,,,,,,,,,,,,,,,,,,,,,,,,,,,,,,,,,,,,,,,,22.545873165130615,22.564139366149902,24.55136728286743,,,,,,,,,,,,,,,,,,,,,,,,,,,,,,,,,,,,,,,,,,,,,,,,,,,,,,,,,,,,,,,,,,,,,,,,,,,,,,,,,,,,,,,,,,,,,,,,,,,,,,170,4,2025-03-03_11h02.46.709,comp,2024.2.4,56.555285729117934,2025-03-03 11h02.57.663837 -0500,
0,0,0,,,,,,,,,,,,,,,0,0,0,0,,,,,,,,,24.568232774734497,,,,,,,,,,,,,,,,,,,,,,,,,,24.552249908447266,24.568232774734497,24.568232774734497,26.05372452735901,28.961382389068604,space,2.899808645248413,None,28.9615581035614,28.982028007507324,28.982028007507324,30.469627618789673,34.35698914527893,space,3.8766560554504395,None,34.357136726379395,34.38778805732727,34.38778805732727,34.38778805732727,34.38778805732727,34.38778805732727,34.38778805732727,34.38778805732727,34.38778805732727,34.38778805732727,35.85741710662842,40.223992109298706,space,4.360681056976318,None,40.22414016723633,40.242045879364014,40.242045879364014,40.242045879364014,41.72480821609497,45.79377603530884,space,4.061228036880493,None,45.793928146362305,45.81001949310303,45.81001949310303,47.30685067176819,50.47865319252014,space,3.167227029800415,None,50.47884774208069,50.494120359420776,50.494120359420776,53.360661029815674,space,2.859914779663086,None,,,,,,,,,,,,,,,,,,,,,,,,,,,,,,,,,,,,,,,,,,,,,,,170,4,2025-03-03_11h02.46.709,comp,2024.2.4,56.555285729117934,2025-03-03 11h02.57.663837 -0500,
0,0,0,filler_random,None,None,None,None,None,None,None,None,None,None,1,3.5197813510894775,None,,,,,0,0,0,0,0,0,0,133,53.442413568496704,,,,,,,,,,,,,,,,,,,,,,,,,,,,,,,,,,,,,,,,,,,,,,,,,,,,,,,,,,,,,,,,,,,,,,,,,,,,,,,,,154.97113691297307,99.72893514480512,141.72893681311712,99.30603597953903,89.95624051879658,88.66151808916335,1.0,1.1,-676,262,-480,283,-290,283,53.42465138435364,53.42469382286072,53.4264178276062,53.442413568496704,53.590285778045654,53.590285778045654,53.590285778045654,53.590285778045654,53.590285778045654,53.590285778045654,53.590285778045654,56.96458554267883,1,3.5197813510894775,None,,,,,,,,,,,,,,,,,,170,4,2025-03-03_11h02.46.709,comp,2024.2.4,56.555285729117934,2025-03-03 11h02.57.663837 -0500,
1,1,0,filler_square,None,None,None,None,None,None,None,None,None,None,2,1.428025722503662,None,,,,,0,0,0,0,0,1,1,172,56.98147439956665,,,,,,,,,,,,,,,,,,,,,,,,,,,,,,,,,,,,,,,,,,,,,,,,,,,,,,,,,,,,,,,,,,,,,,,,,,,,,,,,,94.8081953454664,86.54820923111826,170.49684986678773,170.49684986678773,145.71856743430726,80.02141397796629,4.0,4.2,-225,-9,0,-272,221,-3,56.966389656066895,56.966466665267944,56.97012758255005,56.98147439956665,57.12984895706177,57.12984895706177,57.12984895706177,57.12984895706177,57.12984895706177,57.12984895706177,57.12984895706177,58.419883489608765,2,1.428025722503662,None,,,,,,,,,,,,,,,,,,170,4,2025-03-03_11h02.46.709,comp,2024.2.4,56.555285729117934,2025-03-03 11h02.57.663837 -0500,
2,2,0,filler_square,None,None,None,None,None,None,None,None,None,None,1,3.1736388206481934,None,,,,,0,0,0,0,0,2,2,206,58.43640184402466,,,,,,,,,,,,,,,,,,,,,,,,,,,,,,,,,,,,,,,,,,,,,,,,,,,,,,,,,,,,,,,,,,,,,,,,,,,,,,,,,57.0355146289955,58.448594738927,58.053601297153406,57.34373838159338,60.35547053703806,60.35547053703806,2.1,2.11,-154,263,0,251,155,-258,58.42172193527222,58.42179894447327,58.42473840713501,58.43640184402466,58.580570936203,58.580570936203,58.580570936203,58.580570936203,58.580570936203,58.580570936203,58.580570936203,61.61760926246643,1,3.1736388206481934,None,,,,,,,,,,,,,,,,,,170,4,2025-03-03_11h02.46.709,comp,2024.2.4,56.555285729117934,2025-03-03 11h02.57.663837 -0500,
3,3,0,critical,whd,20.0,1.0,lower,57.0,133.0,133.0,57.0,78.0,78.0,2,4.613601446151733,None,,,,,0,0,0,0,0,3,3,90,61.636295557022095,,,,,,,,,,,,,,,,,,,,,,,,,,,,,,,,,,,,,,,,,,,,,,,,,,,,,,,,,,,,,,,,,,,,,,,,,,,,,,,,,57.0,133.0,133.0,57.0,78.0,78.0,1.0,1.1,-671,285,-480,278,-316,262,61.61919546127319,61.61927151679993,61.622384786605835,61.636295557022095,61.78461503982544,61.78461503982544,61.78461503982544,61.78461503982544,61.78461503982544,61.78461503982544,61.78461503982544,66.26744341850281,2,4.613601446151733,None,,,,,,,,,,,,,,,,,,170,4,2025-03-03_11h02.46.709,comp,2024.2.4,56.555285729117934,2025-03-03 11h02.57.663837 -0500,
4,4,0,critical,hwd,35.0,2.1,upper,200.0,125.0,125.0,200.0,127.0,127.0,1,4.126976251602173,None,,,,,0,0,0,0,0,4,4,41,66.2830958366394,,,,,,,,,,,,,,,,,,,,,,,,,,,,,,,,,,,,,,,,,,,,,,,,,,,,,,,,,,,,,,,,,,,,,,,,,,,,,,,,,200.0,125.0,125.0,200.0,127.0,127.0,2.1,2.12,-258,-279,0,-272,260,270,66.26904368400574,66.26911973953247,66.27267670631409,66.2830958366394,66.43723106384277,66.43723106384277,66.43723106384277,66.43723106384277,66.43723106384277,66.43723106384277,66.43723106384277,70.42073345184326,1,4.126976251602173,None,,,,,,,,,,,,,,,,,,170,4,2025-03-03_11h02.46.709,comp,2024.2.4,56.555285729117934,2025-03-03 11h02.57.663837 -0500,
5,5,0,critical,wdh,20.0,4.0,lower,57.0,133.0,78.0,78.0,133.0,57.0,3,2.250202178955078,None,,,,,0,0,0,0,0,5,5,82,70.44045424461365,,,,,,,,,,,,,,,,,,,,,,,,,,,,,,,,,,,,,,,,,,,,,,,,,,,,,,,,,,,,,,,,,,,,,,,,,,,,,,,,,57.0,133.0,78.0,78.0,133.0,57.0,4.0,4.1,-202,-289,0,-5,164,-263,70.42238211631775,70.42246270179749,70.42583227157593,70.44045424461365,70.58534693717957,70.58534693717957,70.58534693717957,70.58534693717957,70.58534693717957,70.58534693717957,70.58534693717957,72.69600868225098,3,2.250202178955078,None,,,,,,,,,,,,,,,,,,170,4,2025-03-03_11h02.46.709,comp,2024.2.4,56.555285729117934,2025-03-03 11h02.57.663837 -0500,
6,6,0,filler_square,None,None,None,None,None,None,None,None,None,None,1,1.5834178924560547,None,,,,,0,0,0,0,0,6,6,185,72.71470832824707,,,,,,,,,,,,,,,,,,,,,,,,,,,,,,,,,,,,,,,,,,,,,,,,,,,,,,,,,,,,,,,,,,,,,,,,,,,,,,,,,175.712795224162,175.712795224162,64.69760957062087,153.43082333696998,87.91988200787584,90.57516127427218,2.1,2.12,-261,-265,0,-288,218,283,72.69792699813843,72.6980504989624,72.70128750801086,72.71470832824707,72.8528950214386,72.8528950214386,72.8528950214386,72.8528950214386,72.8528950214386,72.8528950214386,72.8528950214386,74.30388689041138,1,1.5834178924560547,None,,,,,,,,,,,,,,,,,,170,4,2025-03-03_11h02.46.709,comp,2024.2.4,56.555285729117934,2025-03-03 11h02.57.663837 -0500,
7,7,0,filler_random,None,None,None,None,None,None,None,None,None,None,2,2.4104607105255127,None,,,,,0,0,0,0,0,7,7,137,74.31940722465515,,,,,,,,,,,,,,,,,,,,,,,,,,,,,,,,,,,,,,,,,,,,,,,,,,,,,,,,,,,,,,,,,,,,,,,,,,,,,,,,,112.35252499634176,85.8071937309156,64.1384931716547,177.4828780722455,78.97545195456826,70.1658546801144,1.0,1.3,252,-268,480,-256,700,-260,74.30567407608032,74.30575227737427,74.30870962142944,74.31940722465515,74.47514772415161,74.47514772415161,74.47514772415161,74.47514772415161,74.47514772415161,74.47514772415161,74.47514772415161,76.73830580711365,2,2.4104607105255127,None,,,,,,,,,,,,,,,,,,170,4,2025-03-03_11h02.46.709,comp,2024.2.4,56.555285729117934,2025-03-03 11h02.57.663837 -0500,
8,8,0,catch,None,None,None,None,None,None,None,None,None,None,3,1.6678783893585205,None,,,,,0,0,0,0,0,8,8,125,76.7575421333313,,,,,,,,,,,,,,,,,,,,,,,,,,,,,,,,,,,,,,,,,,,,,,,,,,,,,,,,,,,,,,,,,,,,,,,,,,,,,,,,,81,109,75,115,156,169,2.2,2.22,-208,277,0,-257,238,-259,76.74028825759888,76.74036741256714,76.7433180809021,76.7575421333313,76.90245342254639,76.90245342254639,76.90245342254639,76.90245342254639,76.90245342254639,76.90245342254639,76.90245342254639,78.43827104568481,3,1.6678783893585205,None,,,,,,,,,,,,,,,,,,170,4,2025-03-03_11h02.46.709,comp,2024.2.4,56.555285729117934,2025-03-03 11h02.57.663837 -0500,
9,9,0,filler_random,None,None,None,None,None,None,None,None,None,None,1,1.9934992790222168,None,,,,,0,0,0,0,0,9,9,150,78.45665955543518,,,,,,,,,,,,,,,,,,,,,,,,,,,,,,,,,,,,,,,,,,,,,,,,,,,,,,,,,,,,,,,,,,,,,,,,,,,,,,,,,143.87118031907355,110.49340219161842,90.53549782557698,115.01626746977695,175.77380066060752,71.43342522720133,2.2,2.21,-209,-278,0,278,189,277,78.44004702568054,78.44015979766846,78.44354724884033,78.45665955543518,78.60415363311768,78.60415363311768,78.60415363311768,78.60415363311768,78.60415363311768,78.60415363311768,78.60415363311768,80.45739102363586,1,1.9934992790222168,None,,,,,,,,,,,,,,,,,,170,4,2025-03-03_11h02.46.709,comp,2024.2.4,56.555285729117934,2025-03-03 11h02.57.663837 -0500,
10,10,0,critical,dhw,35.0,4.0,lower,70.0,70.0,133.0,57.0,57.0,133.0,3,2.5611939430236816,None,,,,,0,0,0,0,0,10,10,52,80.47280716896057,,,,,,,,,,,,,,,,,,,,,,,,,,,,,,,,,,,,,,,,,,,,,,,,,,,,,,,,,,,,,,,,,,,,,,,,,,,,,,,,,70.0,70.0,133.0,57.0,57.0,133.0,4.0,4.2,-160,-5,0,-254,191,-19,80.45890426635742,80.458979845047,80.46217751502991,80.47280716896057,80.62460970878601,80.62460970878601,80.62460970878601,80.62460970878601,80.62460970878601,80.62460970878601,80.62460970878601,83.03921008110046,3,2.5611939430236816,None,,,,,,,,,,,,,,,,,,170,4,2025-03-03_11h02.46.709,comp,2024.2.4,56.555285729117934,2025-03-03 11h02.57.663837 -0500,
11,11,0,filler_random,None,None,None,None,None,None,None,None,None,None,2,1.6242520809173584,None,,,,,0,0,0,0,0,11,11,136,83.05812668800354,,,,,,,,,,,,,,,,,,,,,,,,,,,,,,,,,,,,,,,,,,,,,,,,,,,,,,,,,,,,,,,,,,,,,,,,,,,,,,,,,89.15817533440793,60.16195520073521,72.38548410195266,159.95530033070995,106.6524840300693,69.42018651461109,4.0,4.2,-206,-12,0,-285,211,-16,83.04085540771484,83.040931224823,83.04416251182556,83.05812668800354,83.20590090751648,83.20590090751648,83.20590090751648,83.20590090751648,83.20590090751648,83.20590090751648,83.20590090751648,84.68725776672363,2,1.6242520809173584,None,,,,,,,,,,,,,,,,,,170,4,2025-03-03_11h02.46.709,comp,2024.2.4,56.555285729117934,2025-03-03 11h02.57.663837 -0500,
12,12,0,catch,None,None,None,None,None,None,None,None,None,None,1,1.2514030933380127,None,,,,,0,0,0,0,0,12,12,123,84.70243072509766,,,,,,,,,,,,,,,,,,,,,,,,,,,,,,,,,,,,,,,,,,,,,,,,,,,,,,,,,,,,,,,,,,,,,,,,,,,,,,,,,168,157,127,63,90,100,4.0,4.1,-206,-265,0,-2,178,-264,84.68888068199158,84.68894338607788,84.6916275024414,84.70243072509766,84.84166717529297,84.84166717529297,84.84166717529297,84.84166717529297,84.84166717529297,84.84166717529297,84.84166717529297,85.96307706832886,1,1.2514030933380127,None,,,,,,,,,,,,,,,,,,170,4,2025-03-03_11h02.46.709,comp,2024.2.4,56.555285729117934,2025-03-03 11h02.57.663837 -0500,
13,13,0,filler_square,None,None,None,None,None,None,None,None,None,None,2,1.6826245784759521,None,,,,,0,0,0,0,0,13,13,207,85.98346853256226,,,,,,,,,,,,,,,,,,,,,,,,,,,,,,,,,,,,,,,,,,,,,,,,,,,,,,,,,,,,,,,,,,,,,,,,,,,,,,,,,118.31760761713707,164.52623855296795,183.5439711651827,183.5439711651827,177.39489913198514,122.73175264747665,2.1,2.11,-270,262,0,266,249,-262,85.96491837501526,85.96499419212341,85.96798253059387,85.98346853256226,86.12311911582947,86.12311911582947,86.12311911582947,86.12311911582947,86.12311911582947,86.12311911582947,86.12311911582947,87.67406749725342,2,1.6826245784759521,None,,,,,,,,,,,,,,,,,,170,4,2025-03-03_11h02.46.709,comp,2024.2.4,56.555285729117934,2025-03-03 11h02.57.663837 -0500,
14,14,0,filler_random,None,None,None,None,None,None,None,None,None,None,3,1.796398401260376,None,,,,,0,0,0,0,0,14,14,151,87.69322323799133,,,,,,,,,,,,,,,,,,,,,,,,,,,,,,,,,,,,,,,,,,,,,,,,,,,,,,,,,,,,,,,,,,,,,,,,,,,,,,,,,114.19463176637242,169.619471092679,69.51723151793539,118.35258376235774,176.76458470068636,170.97742324392027,2.1,2.11,-240,287,0,283,241,-268,87.67590975761414,87.67601323127747,87.68018674850464,87.69322323799133,87.84630393981934,87.84630393981934,87.84630393981934,87.84630393981934,87.84630393981934,87.84630393981934,87.84630393981934,89.50730347633362,3,1.796398401260376,None,,,,,,,,,,,,,,,,,,170,4,2025-03-03_11h02.46.709,comp,2024.2.4,56.555285729117934,2025-03-03 11h02.57.663837 -0500,
15,15,0,critical,dhw,20.0,2.1,upper,141.0,141.0,200.0,125.0,125.0,200.0,3,2.2232425212860107,None,,,,,0,0,0,0,0,15,15,3,89.5226047039032,,,,,,,,,,,,,,,,,,,,,,,,,,,,,,,,,,,,,,,,,,,,,,,,,,,,,,,,,,,,,,,,,,,,,,,,,,,,,,,,,141.0,141.0,200.0,125.0,125.0,200.0,2.1,2.12,-229,-279,0,-279,258,264,89.50879192352295,89.50886702537537,89.51240682601929,89.5226047039032,89.6729109287262,89.6729109287262,89.6729109287262,89.6729109287262,89.6729109287262,89.6729109287262,89.6729109287262,91.7587308883667,3,2.2232425212860107,None,,,,,,,,,,,,,,,,,,170,4,2025-03-03_11h02.46.709,comp,2024.2.4,56.555285729117934,2025-03-03 11h02.57.663837 -0500,
16,16,0,filler_square,None,None,None,None,None,None,None,None,None,None,1,1.7309980392456055,None,,,,,0,0,0,0,0,16,16,179,91.77509617805481,,,,,,,,,,,,,,,,,,,,,,,,,,,,,,,,,,,,,,,,,,,,,,,,,,,,,,,,,,,,,,,,,,,,,,,,,,,,,,,,,69.60168386911697,69.60168386911697,62.21415866936943,64.30167085943766,66.82598683957178,59.052842613209215,1.0,1.3,317,-279,480,-262,638,-279,91.76061415672302,91.76068902015686,91.76487278938293,91.77509617805481,91.92553448677063,91.92553448677063,91.92553448677063,91.92553448677063,91.92553448677063,91.92553448677063,91.92553448677063,93.50856971740723,1,1.7309980392456055,None,,,,,,,,,,,,,,,,,,170,4,2025-03-03_11h02.46.709,comp,2024.2.4,56.555285729117934,2025-03-03 11h02.57.663837 -0500,
17,17,0,critical,hwd,35.0,3.0,upper,200.0,125.0,125.0,200.0,127.0,127.0,1,3.4297313690185547,None,,,,,0,0,0,0,0,17,17,99,93.52436852455139,,,,,,,,,,,,,,,,,,,,,,,,,,,,,,,,,,,,,,,,,,,,,,,,,,,,,,,,,,,,,,,,,,,,,,,,,,,,,,,,,200.0,125.0,125.0,200.0,127.0,127.0,3.0,3.2,-258,-264,0,-17,260,281,93.5101523399353,93.51022911071777,93.51366782188416,93.52436852455139,93.67546725273132,93.67546725273132,93.67546725273132,93.67546725273132,93.67546725273132,93.67546725273132,93.67546725273132,96.9583089351654,1,3.4297313690185547,None,,,,,,,,,,,,,,,,,,170,4,2025-03-03_11h02.46.709,comp,2024.2.4,56.555285729117934,2025-03-03 11h02.57.663837 -0500,
18,18,0,critical,whd,35.0,1.0,lower,57.0,133.0,133.0,57.0,70.0,70.0,2,2.676936149597168,None,,,,,0,0,0,0,0,18,18,84,96.9749231338501,,,,,,,,,,,,,,,,,,,,,,,,,,,,,,,,,,,,,,,,,,,,,,,,,,,,,,,,,,,,,,,,,,,,,,,,,,,,,,,,,57.0,133.0,133.0,57.0,70.0,70.0,1.0,1.3,289,-265,480,-283,640,-286,96.95983147621155,96.9599061012268,96.96308827400208,96.9749231338501,97.11295795440674,97.11295795440674,97.11295795440674,97.11295795440674,97.11295795440674,97.11295795440674,97.11295795440674,99.65778970718384,2,2.676936149597168,None,,,,,,,,,,,,,,,,,,170,4,2025-03-03_11h02.46.709,comp,2024.2.4,56.555285729117934,2025-03-03 11h02.57.663837 -0500,
19,19,0,critical,wdh,20.0,2.1,lower,57.0,133.0,78.0,78.0,133.0,57.0,3,1.8791429996490479,None,,,,,0,0,0,0,0,19,19,34,99.67518019676208,,,,,,,,,,,,,,,,,,,,,,,,,,,,,,,,,,,,,,,,,,,,,,,,,,,,,,,,,,,,,,,,,,,,,,,,,,,,,,,,,57.0,133.0,78.0,78.0,133.0,57.0,2.1,2.11,-202,283,0,253,164,-285,99.65928101539612,99.6593565940857,99.66233515739441,99.67518019676208,99.8157057762146,99.8157057762146,99.8157057762146,99.8157057762146,99.8157057762146,99.8157057762146,99.8157057762146,101.56320214271545,3,1.8791429996490479,None,,,,,,,,,,,,,,,,,,170,4,2025-03-03_11h02.46.709,comp,2024.2.4,56.555285729117934,2025-03-03 11h02.57.663837 -0500,
20,20,0,filler_square,None,None,None,None,None,None,None,None,None,None,1,2.653655529022217,None,,,,,0,0,0,0,0,20,20,200,101.57995247840881,,,,,,,,,,,,,,,,,,,,,,,,,,,,,,,,,,,,,,,,,,,,,,,,,,,,,,,,,,,,,,,,,,,,,,,,,,,,,,,,,67.52925048442981,67.52925048442981,61.915617214536745,58.544572911195374,65.47117067390893,60.5826743185587,3.0,3.1,-159,283,0,-12,156,-290,101.5651605129242,101.56523990631104,101.56911897659302,101.57995247840881,101.72698998451233,101.72698998451233,101.72698998451233,101.72698998451233,101.72698998451233,101.72698998451233,101.72698998451233,104.24431777000427,1,2.653655529022217,None,,,,,,,,,,,,,,,,,,170,4,2025-03-03_11h02.46.709,comp,2024.2.4,56.555285729117934,2025-03-03 11h02.57.663837 -0500,
21,21,0,critical,whd,20.0,4.0,lower,57.0,133.0,133.0,57.0,78.0,78.0,2,3.1633522510528564,None,,,,,0,0,0,0,0,21,21,94,104.270259141922,,,,,,,,,,,,,,,,,,,,,,,,,,,,,,,,,,,,,,,,,,,,,,,,,,,,,,,,,,,,,,,,,,,,,,,,,,,,,,,,,57.0,133.0,133.0,57.0,78.0,78.0,4.0,4.1,-191,-286,0,-8,164,-280,104.24597978591919,104.24605441093445,104.2494158744812,104.270259141922,104.41208910942078,104.41208910942078,104.41208910942078,104.41208910942078,104.41208910942078,104.41208910942078,104.41208910942078,107.44513297080994,2,3.1633522510528564,None,,,,,,,,,,,,,,,,,,170,4,2025-03-03_11h02.46.709,comp,2024.2.4,56.555285729117934,2025-03-03 11h02.57.663837 -0500,
22,22,0,critical,whd,35.0,3.0,lower,57.0,133.0,133.0,57.0,70.0,70.0,2,2.555630922317505,None,,,,,0,0,0,0,0,22,22,86,107.4619779586792,,,,,,,,,,,,,,,,,,,,,,,,,,,,,,,,,,,,,,,,,,,,,,,,,,,,,,,,,,,,,,,,,,,,,,,,,,,,,,,,,57.0,133.0,133.0,57.0,70.0,70.0,3.0,3.2,-191,-277,0,-11,160,265,107.44676065444946,107.4468367099762,107.45026564598083,107.4619779586792,107.61379289627075,107.61379289627075,107.61379289627075,107.61379289627075,107.61379289627075,107.61379289627075,107.61379289627075,110.0293402671814,2,2.555630922317505,None,,,,,,,,,,,,,,,,,,170,4,2025-03-03_11h02.46.709,comp,2024.2.4,56.555285729117934,2025-03-03 11h02.57.663837 -0500,
23,23,0,critical,whd,20.0,1.0,upper,125.0,200.0,200.0,125.0,141.0,141.0,2,3.0290441513061523,None,,,,,0,0,0,0,0,23,23,91,110.04461240768433,,,,,,,,,,,,,,,,,,,,,,,,,,,,,,,,,,,,,,,,,,,,,,,,,,,,,,,,,,,,,,,,,,,,,,,,,,,,,,,,,125.0,200.0,200.0,125.0,141.0,141.0,1.0,1.1,-738,287,-480,255,-251,278,110.03084230422974,110.03091740608215,110.03416585922241,110.04461240768433,110.20398902893066,110.20398902893066,110.20398902893066,110.20398902893066,110.20398902893066,110.20398902893066,110.20398902893066,113.08703017234802,2,3.0290441513061523,None,,,,,,,,,,,,,,,,,,170,4,2025-03-03_11h02.46.709,comp,2024.2.4,56.555285729117934,2025-03-03 11h02.57.663837 -0500,
24,24,0,filler_square,None,None,None,None,None,None,None,None,None,None,2,1.5732955932617188,None,,,,,0,0,0,0,0,24,24,202,113.10263752937317,,,,,,,,,,,,,,,,,,,,,,,,,,,,,,,,,,,,,,,,,,,,,,,,,,,,,,,,,,,,,,,,,,,,,,,,,,,,,,,,,130.54075106351326,92.27692291761416,143.73327375157152,143.73327375157152,91.6559941669712,85.24505266849552,1.0,1.3,266,-285,480,-284,690,-254,113.08883047103882,113.08890700340271,113.09231400489807,113.10263752937317,113.25104999542236,113.25104999542236,113.25104999542236,113.25104999542236,113.25104999542236,113.25104999542236,113.25104999542236,114.6811146736145,2,1.5732955932617188,None,,,,,,,,,,,,,,,,,,170,4,2025-03-03_11h02.46.709,comp,2024.2.4,56.555285729117934,2025-03-03 11h02.57.663837 -0500,
25,25,0,critical,hwd,20.0,4.0,lower,133.0,57.0,57.0,133.0,78.0,78.0,2,2.461536407470703,None,,,,,0,0,0,0,0,25,25,106,114.70099759101868,,,,,,,,,,,,,,,,,,,,,,,,,,,,,,,,,,,,,,,,,,,,,,,,,,,,,,,,,,,,,,,,,,,,,,,,,,,,,,,,,133.0,57.0,57.0,133.0,78.0,78.0,4.0,4.2,-191,-5,0,-264,202,-1,114.68274450302124,114.68284440040588,114.68632555007935,114.70099759101868,114.84876465797424,114.84876465797424,114.84876465797424,114.84876465797424,114.84876465797424,114.84876465797424,114.84876465797424,117.16789817810059,2,2.461536407470703,None,,,,,,,,,,,,,,,,,,170,4,2025-03-03_11h02.46.709,comp,2024.2.4,56.555285729117934,2025-03-03 11h02.57.663837 -0500,
26,26,0,filler_square,None,None,None,None,None,None,None,None,None,None,1,1.393796682357788,None,,,,,0,0,0,0,0,26,26,195,117.183922290802,,,,,,,,,,,,,,,,,,,,,,,,,,,,,,,,,,,,,,,,,,,,,,,,,,,,,,,,,,,,,,,,,,,,,,,,,,,,,,,,,105.62160244316303,105.62160244316303,78.36763172968543,58.91800333327693,68.310074401051,95.43264960012684,2.2,2.22,-178,273,0,-269,173,-267,117.16979265213013,117.16987133026123,117.1731264591217,117.183922290802,117.33396553993225,117.33396553993225,117.33396553993225,117.33396553993225,117.33396553993225,117.33396553993225,117.33396553993225,118.58939361572266,1,1.393796682357788,None,,,,,,,,,,,,,,,,,,170,4,2025-03-03_11h02.46.709,comp,2024.2.4,56.555285729117934,2025-03-03 11h02.57.663837 -0500,
27,27,0,filler_square,None,None,None,None,None,None,None,None,None,None,3,1.4351611137390137,None,,,,,0,0,0,0,0,27,27,171,118.60717797279358,,,,,,,,,,,,,,,,,,,,,,,,,,,,,,,,,,,,,,,,,,,,,,,,,,,,,,,,,,,,,,,,,,,,,,,,,,,,,,,,,59.75108967988606,131.2446835291433,116.03309506064596,89.25274067512244,138.23640434139833,138.23640434139833,2.2,2.21,-206,-288,0,274,210,250,118.59120559692383,118.5912811756134,118.59422183036804,118.60717797279358,118.74974727630615,118.74974727630615,118.74974727630615,118.74974727630615,118.74974727630615,118.74974727630615,118.74974727630615,120.05144166946411,3,1.4351611137390137,None,,,,,,,,,,,,,,,,,,170,4,2025-03-03_11h02.46.709,comp,2024.2.4,56.555285729117934,2025-03-03 11h02.57.663837 -0500,
28,28,0,filler_square,None,None,None,None,None,None,None,None,None,None,3,1.3099381923675537,None,,,,,0,0,0,0,0,28,28,177,120.06783509254456,,,,,,,,,,,,,,,,,,,,,,,,,,,,,,,,,,,,,,,,,,,,,,,,,,,,,,,,,,,,,,,,,,,,,,,,,,,,,,,,,102.88918644601225,80.37480325687434,66.33514621336909,102.49571625443292,115.63043348410781,115.63043348410781,4.0,4.2,-187,0,0,-287,205,8,120.0534737110138,120.05358457565308,120.05707859992981,120.06783509254456,120.21661949157715,120.21661949157715,120.21661949157715,120.21661949157715,120.21661949157715,120.21661949157715,120.21661949157715,121.3839180469513,3,1.3099381923675537,None,,,,,,,,,,,,,,,,,,170,4,2025-03-03_11h02.46.709,comp,2024.2.4,56.555285729117934,2025-03-03 11h02.57.663837 -0500,
29,29,0,filler_random,None,None,None,None,None,None,None,None,None,None,3,1.4534952640533447,None,,,,,0,0,0,0,0,29,29,153,121.40431118011475,,,,,,,,,,,,,,,,,,,,,,,,,,,,,,,,,,,,,,,,,,,,,,,,,,,,,,,,,,,,,,,,,,,,,,,,,,,,,,,,,148.0724064534394,91.74443745036962,173.56485556514536,90.64827619635999,140.18593270965175,158.34296972401518,4.0,4.1,-187,-252,0,-15,220,-262,121.3855631351471,121.38564109802246,121.38878655433655,121.40431118011475,121.55076432228088,121.55076432228088,121.55076432228088,121.55076432228088,121.55076432228088,121.55076432228088,121.55076432228088,122.86956548690796,3,1.4534952640533447,None,,,,,,,,,,,,,,,,,,170,4,2025-03-03_11h02.46.709,comp,2024.2.4,56.555285729117934,2025-03-03 11h02.57.663837 -0500,
30,30,0,filler_square,None,None,None,None,None,None,None,None,None,None,1,1.9074230194091797,None,,,,,0,0,0,0,0,30,30,208,122.88611197471619,,,,,,,,,,,,,,,,,,,,,,,,,,,,,,,,,,,,,,,,,,,,,,,,,,,,,,,,,,,,,,,,,,,,,,,,,,,,,,,,,185.86949522632366,185.86949522632366,144.69311360515707,132.2900970845837,166.46814055143386,120.291472217087,1.0,1.1,-735,281,-480,277,-258,282,122.8716950416565,122.87177324295044,122.87529349327087,122.88611197471619,123.03750824928284,123.03750824928284,123.03750824928284,123.03750824928284,123.03750824928284,123.03750824928284,123.03750824928284,124.80401468276978,1,1.9074230194091797,None,,,,,,,,,,,,,,,,,,170,4,2025-03-03_11h02.46.709,comp,2024.2.4,56.555285729117934,2025-03-03 11h02.57.663837 -0500,
31,31,0,critical,dhw,35.0,3.0,upper,127.0,127.0,200.0,125.0,125.0,200.0,3,2.101966619491577,None,,,,,0,0,0,0,0,31,31,51,124.81970882415771,,,,,,,,,,,,,,,,,,,,,,,,,,,,,,,,,,,,,,,,,,,,,,,,,,,,,,,,,,,,,,,,,,,,,,,,,,,,,,,,,127.0,127.0,200.0,125.0,125.0,200.0,3.0,3.2,-222,-256,0,-13,258,287,124.80558061599731,124.80565905570984,124.8089485168457,124.81970882415771,124.95617818832397,124.95617818832397,124.95617818832397,124.95617818832397,124.95617818832397,124.95617818832397,124.95617818832397,126.93769550323486,3,2.101966619491577,None,,,,,,,,,,,,,,,,,,170,4,2025-03-03_11h02.46.709,comp,2024.2.4,56.555285729117934,2025-03-03 11h02.57.663837 -0500,
32,32,0,critical,hdw,20.0,1.0,upper,200.0,125.0,141.0,141.0,125.0,200.0,1,1.8317465782165527,None,,,,,0,0,0,0,0,32,32,115,126.95379757881165,,,,,,,,,,,,,,,,,,,,,,,,,,,,,,,,,,,,,,,,,,,,,,,,,,,,,,,,,,,,,,,,,,,,,,,,,,,,,,,,,200.0,125.0,141.0,141.0,125.0,200.0,1.0,1.3,251,-285,480,-269,746,-277,126.93949556350708,126.93965196609497,126.94349002838135,126.95379757881165,127.10109758377075,127.10109758377075,127.10109758377075,127.10109758377075,127.10109758377075,127.10109758377075,127.10109758377075,128.80659079551697,1,1.8317465782165527,None,,,,,,,,,,,,,,,,,,170,4,2025-03-03_11h02.46.709,comp,2024.2.4,56.555285729117934,2025-03-03 11h02.57.663837 -0500,
33,33,0,critical,dwh,35.0,4.0,upper,127.0,127.0,125.0,200.0,200.0,125.0,2,1.786318302154541,None,,,,,0,0,0,0,0,33,33,65,128.82385277748108,,,,,,,,,,,,,,,,,,,,,,,,,,,,,,,,,,,,,,,,,,,,,,,,,,,,,,,,,,,,,,,,,,,,,,,,,,,,,,,,,127.0,127.0,125.0,200.0,200.0,125.0,4.0,4.1,-260,-260,0,7,258,-277,128.80811667442322,128.80818605422974,128.8109381198883,128.82385277748108,128.96958184242249,128.96958184242249,128.96958184242249,128.96958184242249,128.96958184242249,128.96958184242249,128.96958184242249,130.62220788002014,2,1.786318302154541,None,,,,,,,,,,,,,,,,,,170,4,2025-03-03_11h02.46.709,comp,2024.2.4,56.555285729117934,2025-03-03 11h02.57.663837 -0500,
34,34,0,critical,wdh,35.0,2.1,upper,125.0,200.0,127.0,127.0,200.0,125.0,1,1.5695445537567139,None,,,,,0,0,0,0,0,34,34,9,130.63274455070496,,,,,,,,,,,,,,,,,,,,,,,,,,,,,,,,,,,,,,,,,,,,,,,,,,,,,,,,,,,,,,,,,,,,,,,,,,,,,,,,,125.0,200.0,127.0,127.0,200.0,125.0,2.1,2.11,-260,270,0,271,222,-257,130.62283563613892,130.62286281585693,130.62397289276123,130.63274455070496,130.78763842582703,130.78763842582703,130.78763842582703,130.78763842582703,130.78763842582703,130.78763842582703,130.78763842582703,132.21077632904053,1,1.5695445537567139,None,,,,,,,,,,,,,,,,,,170,4,2025-03-03_11h02.46.709,comp,2024.2.4,56.555285729117934,2025-03-03 11h02.57.663837 -0500,
35,35,0,filler_square,None,None,None,None,None,None,None,None,None,None,2,1.5825722217559814,None,,,,,0,0,0,0,0,35,35,184,132.22716522216797,,,,,,,,,,,,,,,,,,,,,,,,,,,,,,,,,,,,,,,,,,,,,,,,,,,,,,,,,,,,,,,,,,,,,,,,,,,,,,,,,58.02968764804604,99.96856990683223,160.1446218113888,160.1446218113888,143.6606364201278,116.22938309155984,2.1,2.12,-226,-263,0,-274,234,258,132.21276760101318,132.21284532546997,132.21626114845276,132.22716522216797,132.37096691131592,132.37096691131592,132.37096691131592,132.37096691131592,132.37096691131592,132.37096691131592,132.37096691131592,133.82114005088806,2,1.5825722217559814,None,,,,,,,,,,,,,,,,,,170,4,2025-03-03_11h02.46.709,comp,2024.2.4,56.555285729117934,2025-03-03 11h02.57.663837 -0500,
36,36,0,critical,dwh,35.0,1.0,upper,127.0,127.0,125.0,200.0,200.0,125.0,3,1.9648866653442383,None,,,,,0,0,0,0,0,36,36,61,133.8372778892517,,,,,,,,,,,,,,,,,,,,,,,,,,,,,,,,,,,,,,,,,,,,,,,,,,,,,,,,,,,,,,,,,,,,,,,,,,,,,,,,,127.0,127.0,125.0,200.0,200.0,125.0,1.0,1.3,220,-288,480,-262,738,-277,133.82264161109924,133.8227174282074,133.8261911869049,133.8372778892517,133.98672914505005,133.98672914505005,133.98672914505005,133.98672914505005,133.98672914505005,133.98672914505005,133.98672914505005,135.8054642677307,3,1.9648866653442383,None,,,,,,,,,,,,,,,,,,170,4,2025-03-03_11h02.46.709,comp,2024.2.4,56.555285729117934,2025-03-03 11h02.57.663837 -0500,
37,37,0,critical,dhw,35.0,2.1,lower,70.0,70.0,133.0,57.0,57.0,133.0,2,1.4440436363220215,None,,,,,0,0,0,0,0,37,37,24,135.82234859466553,,,,,,,,,,,,,,,,,,,,,,,,,,,,,,,,,,,,,,,,,,,,,,,,,,,,,,,,,,,,,,,,,,,,,,,,,,,,,,,,,70.0,70.0,133.0,57.0,57.0,133.0,2.1,2.12,-160,-280,0,-266,191,284,135.80708980560303,135.80716609954834,135.81049132347107,135.82234859466553,135.96189904212952,135.96189904212952,135.96189904212952,135.96189904212952,135.96189904212952,135.96189904212952,135.96189904212952,137.27281212806702,2,1.4440436363220215,None,,,,,,,,,,,,,,,,,,170,4,2025-03-03_11h02.46.709,comp,2024.2.4,56.555285729117934,2025-03-03 11h02.57.663837 -0500,
38,38,0,filler_random,None,None,None,None,None,None,None,None,None,None,2,1.8268001079559326,None,,,,,0,0,0,0,0,38,38,142,137.2876169681549,,,,,,,,,,,,,,,,,,,,,,,,,,,,,,,,,,,,,,,,,,,,,,,,,,,,,,,,,,,,,,,,,,,,,,,,,,,,,,,,,93.73257139621214,127.71833702164928,119.30342626654918,187.85394913959334,126.75801539954516,139.37790751666216,2.1,2.12,-254,-259,0,-264,260,255,137.2746443748474,137.27472162246704,137.27797031402588,137.2876169681549,137.4391393661499,137.4391393661499,137.4391393661499,137.4391393661499,137.4391393661499,137.4391393661499,137.4391393661499,139.1224172115326,2,1.8268001079559326,None,,,,,,,,,,,,,,,,,,170,4,2025-03-03_11h02.46.709,comp,2024.2.4,56.555285729117934,2025-03-03 11h02.57.663837 -0500,
39,39,0,critical,hwd,20.0,3.0,upper,200.0,125.0,125.0,200.0,141.0,141.0,2,1.6399357318878174,None,,,,,0,0,0,0,0,39,39,105,139.13890743255615,,,,,,,,,,,,,,,,,,,,,,,,,,,,,,,,,,,,,,,,,,,,,,,,,,,,,,,,,,,,,,,,,,,,,,,,,,,,,,,,,200.0,125.0,125.0,200.0,141.0,141.0,3.0,3.2,-258,-252,0,-2,266,260,139.12394189834595,139.12401747703552,139.12738132476807,139.13890743255615,139.294903755188,139.294903755188,139.294903755188,139.294903755188,139.294903755188,139.294903755188,139.294903755188,140.7904191017151,2,1.6399357318878174,None,,,,,,,,,,,,,,,,,,170,4,2025-03-03_11h02.46.709,comp,2024.2.4,56.555285729117934,2025-03-03 11h02.57.663837 -0500,
40,40,0,filler_square,None,None,None,None,None,None,None,None,None,None,3,1.6030182838439941,None,,,,,0,0,0,0,0,40,40,191,140.80730366706848,,,,,,,,,,,,,,,,,,,,,,,,,,,,,,,,,,,,,,,,,,,,,,,,,,,,,,,,,,,,,,,,,,,,,,,,,,,,,,,,,68.36649492807445,68.36649492807445,64.02129219682834,64.24150228398277,68.3272152094532,67.23569961486315,4.0,4.2,-162,-10,0,-282,162,8,140.79225325584412,140.79233050346375,140.7964165210724,140.80730366706848,140.95603942871094,140.95603942871094,140.95603942871094,140.95603942871094,140.95603942871094,140.95603942871094,140.95603942871094,142.41782522201538,3,1.6030182838439941,None,,,,,,,,,,,,,,,,,,170,4,2025-03-03_11h02.46.709,comp,2024.2.4,56.555285729117934,2025-03-03 11h02.57.663837 -0500,
41,41,0,critical,dwh,35.0,4.0,lower,70.0,70.0,57.0,133.0,133.0,57.0,2,1.5523972511291504,None,,,,,0,0,0,0,0,41,41,64,142.43319058418274,,,,,,,,,,,,,,,,,,,,,,,,,,,,,,,,,,,,,,,,,,,,,,,,,,,,,,,,,,,,,,,,,,,,,,,,,,,,,,,,,70.0,70.0,57.0,133.0,133.0,57.0,4.0,4.1,-198,-263,0,16,191,-269,142.419278383255,142.41935443878174,142.42232823371887,142.43319058418274,142.57428550720215,142.57428550720215,142.57428550720215,142.57428550720215,142.57428550720215,142.57428550720215,142.57428550720215,143.9988408088684,2,1.5523972511291504,None,,,,,,,,,,,,,,,,,,170,4,2025-03-03_11h02.46.709,comp,2024.2.4,56.555285729117934,2025-03-03 11h02.57.663837 -0500,
42,42,0,critical,whd,20.0,4.0,upper,125.0,200.0,200.0,125.0,141.0,141.0,2,2.2568540573120117,None,,,,,0,0,0,0,0,42,42,95,144.01690793037415,,,,,,,,,,,,,,,,,,,,,,,,,,,,,,,,,,,,,,,,,,,,,,,,,,,,,,,,,,,,,,,,,,,,,,,,,,,,,,,,,125.0,200.0,200.0,125.0,141.0,141.0,4.0,4.1,-258,-251,0,-1,229,-258,144.000328540802,144.00040411949158,144.00335454940796,144.01690793037415,144.1581437587738,144.1581437587738,144.1581437587738,144.1581437587738,144.1581437587738,144.1581437587738,144.1581437587738,146.29074954986572,2,2.2568540573120117,None,,,,,,,,,,,,,,,,,,170,4,2025-03-03_11h02.46.709,comp,2024.2.4,56.555285729117934,2025-03-03 11h02.57.663837 -0500,
43,43,0,filler_square,None,None,None,None,None,None,None,None,None,None,3,2.696080446243286,None,,,,,0,0,0,0,0,43,43,186,146.30756855010986,,,,,,,,,,,,,,,,,,,,,,,,,,,,,,,,,,,,,,,,,,,,,,,,,,,,,,,,,,,,,,,,,,,,,,,,,,,,,,,,,74.96278227600591,70.55142958512258,85.91257244200877,59.48188465730963,86.6440682146341,86.6440682146341,2.1,2.11,-161,265,0,275,169,-289,146.29270672798157,146.29278373718262,146.29618048667908,146.30756855010986,146.45825958251953,146.45825958251953,146.45825958251953,146.45825958251953,146.45825958251953,146.45825958251953,146.45825958251953,149.0084888935089,3,2.696080446243286,None,,,,,,,,,,,,,,,,,,170,4,2025-03-03_11h02.46.709,comp,2024.2.4,56.555285729117934,2025-03-03 11h02.57.663837 -0500,
44,44,0,filler_square,None,None,None,None,None,None,None,None,None,None,1,1.3292593955993652,None,,,,,0,0,0,0,0,44,44,187,149.02463173866272,,,,,,,,,,,,,,,,,,,,,,,,,,,,,,,,,,,,,,,,,,,,,,,,,,,,,,,,,,,,,,,,,,,,,,,,,,,,,,,,,121.44648107473698,121.44648107473698,97.2477752075416,99.36316974004887,71.20590755853361,84.08212248806387,2.1,2.11,-206,258,0,277,188,-285,149.01030850410461,149.01038455963135,149.01348090171814,149.02463173866272,149.1747899055481,149.1747899055481,149.1747899055481,149.1747899055481,149.1747899055481,149.1747899055481,149.1747899055481,150.37200498580933,1,1.3292593955993652,None,,,,,,,,,,,,,,,,,,170,4,2025-03-03_11h02.46.709,comp,2024.2.4,56.555285729117934,2025-03-03 11h02.57.663837 -0500,
45,45,0,critical,dwh,20.0,2.1,lower,78.0,78.0,57.0,133.0,133.0,57.0,3,2.6368582248687744,None,,,,,0,0,0,0,0,45,45,6,150.38932824134827,,,,,,,,,,,,,,,,,,,,,,,,,,,,,,,,,,,,,,,,,,,,,,,,,,,,,,,,,,,,,,,,,,,,,,,,,,,,,,,,,78.0,78.0,57.0,133.0,133.0,57.0,2.1,2.11,-202,271,0,278,191,-252,150.37348914146423,150.37358784675598,150.37655639648438,150.38932824134827,150.52980017662048,150.52980017662048,150.52980017662048,150.52980017662048,150.52980017662048,150.52980017662048,150.52980017662048,153.0322699546814,3,2.6368582248687744,None,,,,,,,,,,,,,,,,,,170,4,2025-03-03_11h02.46.709,comp,2024.2.4,56.555285729117934,2025-03-03 11h02.57.663837 -0500,
46,46,0,filler_random,None,None,None,None,None,None,None,None,None,None,1,1.5412683486938477,None,,,,,0,0,0,0,0,46,46,146,153.05236887931824,,,,,,,,,,,,,,,,,,,,,,,,,,,,,,,,,,,,,,,,,,,,,,,,,,,,,,,,,,,,,,,,,,,,,,,,,,,,,,,,,137.71157793806992,172.29035442277785,158.89272600482911,78.13723161763134,104.1409544529383,167.90433763564124,2.2,2.22,-221,251,0,-264,219,-279,153.03396844863892,153.03404426574707,153.0370228290558,153.05236887931824,153.1950228214264,153.1950228214264,153.1950228214264,153.1950228214264,153.1950228214264,153.1950228214264,153.1950228214264,154.61077404022217,1,1.5412683486938477,None,,,,,,,,,,,,,,,,,,170,4,2025-03-03_11h02.46.709,comp,2024.2.4,56.555285729117934,2025-03-03 11h02.57.663837 -0500,
47,47,0,catch,None,None,None,None,None,None,None,None,None,None,1,1.2546396255493164,None,,,,,0,0,0,0,0,47,47,126,154.62729215621948,,,,,,,,,,,,,,,,,,,,,,,,,,,,,,,,,,,,,,,,,,,,,,,,,,,,,,,,,,,,,,,,,,,,,,,,,,,,,,,,,182,143,106,84,83,107,1.0,1.2,-210,12,0,13,192,4,154.61281037330627,154.6128876209259,154.6159393787384,154.62729215621948,154.7843360900879,154.7843360900879,154.7843360900879,154.7843360900879,154.7843360900879,154.7843360900879,154.7843360900879,155.89517402648926,1,1.2546396255493164,None,,,,,,,,,,,,,,,,,,170,4,2025-03-03_11h02.46.709,comp,2024.2.4,56.555285729117934,2025-03-03 11h02.57.663837 -0500,
48,48,0,critical,dwh,35.0,1.0,lower,70.0,70.0,57.0,133.0,133.0,57.0,3,1.4992148876190186,None,,,,,0,0,0,0,0,48,48,60,155.9103763103485,,,,,,,,,,,,,,,,,,,,,,,,,,,,,,,,,,,,,,,,,,,,,,,,,,,,,,,,,,,,,,,,,,,,,,,,,,,,,,,,,70.0,70.0,57.0,133.0,133.0,57.0,1.0,1.1,-678,264,-480,270,-289,253,155.8966920375824,155.8967685699463,155.90008115768433,155.9103763103485,156.0583941936493,156.0583941936493,156.0583941936493,156.0583941936493,156.0583941936493,156.0583941936493,156.0583941936493,157.4128110408783,3,1.4992148876190186,None,,,,,,,,,,,,,,,,,,170,4,2025-03-03_11h02.46.709,comp,2024.2.4,56.555285729117934,2025-03-03 11h02.57.663837 -0500,
49,49,0,critical,hdw,35.0,1.0,upper,200.0,125.0,127.0,127.0,125.0,200.0,1,2.565528154373169,None,,,,,0,0,0,0,0,49,49,109,157.4288251399994,,,,,,,,,,,,,,,,,,,,,,,,,,,,,,,,,,,,,,,,,,,,,,,,,,,,,,,,,,,,,,,,,,,,,,,,,,,,,,,,,200.0,125.0,127.0,127.0,125.0,200.0,1.0,1.3,258,-266,480,-252,740,-287,157.4144058227539,157.41448283195496,157.41809797286987,157.4288251399994,157.57965564727783,157.57965564727783,157.57965564727783,157.57965564727783,157.57965564727783,157.57965564727783,157.57965564727783,159.99884033203125,1,2.565528154373169,None,,,,,,,,,,,,,,,,,,170,4,2025-03-03_11h02.46.709,comp,2024.2.4,56.555285729117934,2025-03-03 11h02.57.663837 -0500,
50,50,0,filler_random,None,None,None,None,None,None,None,None,None,None,1,1.362070083618164,None,,,,,0,0,0,0,0,50,50,149,160.01591968536377,,,,,,,,,,,,,,,,,,,,,,,,,,,,,,,,,,,,,,,,,,,,,,,,,,,,,,,,,,,,,,,,,,,,,,,,,,,,,,,,,119.99385426177052,165.15424138532956,88.11495942291344,108.56523956954871,77.20430495524664,76.2443583405925,2.2,2.21,-233,-255,0,269,188,279,160.00083422660828,160.00091433525085,160.00478887557983,160.01591968536377,160.16161155700684,160.16161155700684,160.16161155700684,160.16161155700684,160.16161155700684,160.16161155700684,160.16161155700684,161.3879749774933,1,1.362070083618164,None,,,,,,,,,,,,,,,,,,170,4,2025-03-03_11h02.46.709,comp,2024.2.4,56.555285729117934,2025-03-03 11h02.57.663837 -0500,
51,51,0,critical,dhw,35.0,1.0,upper,127.0,127.0,200.0,125.0,125.0,200.0,2,1.653108835220337,None,,,,,0,0,0,0,0,51,51,49,161.40522360801697,,,,,,,,,,,,,,,,,,,,,,,,,,,,,,,,,,,,,,,,,,,,,,,,,,,,,,,,,,,,,,,,,,,,,,,,,,,,,,,,,127.0,127.0,200.0,125.0,125.0,200.0,1.0,1.3,258,-259,480,-273,738,-275,161.38945174217224,161.3895514011383,161.39245295524597,161.40522360801697,161.5470769405365,161.5470769405365,161.5470769405365,161.5470769405365,161.5470769405365,161.5470769405365,161.5470769405365,163.06526255607605,2,1.653108835220337,None,,,,,,,,,,,,,,,,,,170,4,2025-03-03_11h02.46.709,comp,2024.2.4,56.555285729117934,2025-03-03 11h02.57.663837 -0500,
52,52,0,critical,dwh,35.0,3.0,lower,70.0,70.0,57.0,133.0,133.0,57.0,3,1.8086915016174316,None,,,,,0,0,0,0,0,52,52,62,163.08119440078735,,,,,,,,,,,,,,,,,,,,,,,,,,,,,,,,,,,,,,,,,,,,,,,,,,,,,,,,,,,,,,,,,,,,,,,,,,,,,,,,,70.0,70.0,57.0,133.0,133.0,57.0,3.0,3.2,-198,-289,0,-10,191,264,163.0668089389801,163.0668864250183,163.07033228874207,163.08119440078735,163.22796845436096,163.22796845436096,163.22796845436096,163.22796845436096,163.22796845436096,163.22796845436096,163.22796845436096,164.90468883514404,3,1.8086915016174316,None,,,,,,,,,,,,,,,,,,170,4,2025-03-03_11h02.46.709,comp,2024.2.4,56.555285729117934,2025-03-03 11h02.57.663837 -0500,
53,53,0,filler_square,None,None,None,None,None,None,None,None,None,None,1,1.6551730632781982,None,,,,,0,0,0,0,0,53,53,178,164.92245244979858,,,,,,,,,,,,,,,,,,,,,,,,,,,,,,,,,,,,,,,,,,,,,,,,,,,,,,,,,,,,,,,,,,,,,,,,,,,,,,,,,148.3823179337986,148.3823179337986,111.9303922735615,144.25671739398695,137.7352287227165,80.27642516430679,4.0,4.2,-242,-15,0,-278,208,12,164.90636372566223,164.90644145011902,164.90936613082886,164.92245244979858,165.06530094146729,165.06530094146729,165.06530094146729,165.06530094146729,165.06530094146729,165.06530094146729,165.06530094146729,166.5951189994812,1,1.6551730632781982,None,,,,,,,,,,,,,,,,,,170,4,2025-03-03_11h02.46.709,comp,2024.2.4,56.555285729117934,2025-03-03 11h02.57.663837 -0500,
54,54,0,critical,hdw,20.0,1.0,lower,133.0,57.0,78.0,78.0,57.0,133.0,1,1.6489524841308594,None,,,,,0,0,0,0,0,54,54,114,166.610600233078,,,,,,,,,,,,,,,,,,,,,,,,,,,,,,,,,,,,,,,,,,,,,,,,,,,,,,,,,,,,,,,,,,,,,,,,,,,,,,,,,133.0,57.0,78.0,78.0,57.0,133.0,1.0,1.3,316,-274,480,-283,682,-257,166.59675312042236,166.59682726860046,166.60018944740295,166.610600233078,166.7485761642456,166.7485761642456,166.7485761642456,166.7485761642456,166.7485761642456,166.7485761642456,166.7485761642456,168.26207065582275,1,1.6489524841308594,None,,,,,,,,,,,,,,,,,,170,4,2025-03-03_11h02.46.709,comp,2024.2.4,56.555285729117934,2025-03-03 11h02.57.663837 -0500,
55,55,0,filler_random,None,None,None,None,None,None,None,None,None,None,2,1.3853919506072998,None,,,,,0,0,0,0,0,55,55,166,168.28025674819946,,,,,,,,,,,,,,,,,,,,,,,,,,,,,,,,,,,,,,,,,,,,,,,,,,,,,,,,,,,,,,,,,,,,,,,,,,,,,,,,,70.97424465063126,192.52368162894615,190.70699941205598,158.56419628996406,116.46250094807334,125.57989773821696,4.0,4.2,-272,4,0,-276,238,-8,168.26380252838135,168.2639102935791,168.26723742485046,168.28025674819946,168.41621279716492,168.41621279716492,168.41621279716492,168.41621279716492,168.41621279716492,168.41621279716492,168.41621279716492,169.68014454841614,2,1.3853919506072998,None,,,,,,,,,,,,,,,,,,170,4,2025-03-03_11h02.46.709,comp,2024.2.4,56.555285729117934,2025-03-03 11h02.57.663837 -0500,
56,56,0,critical,wdh,35.0,4.0,upper,125.0,200.0,127.0,127.0,200.0,125.0,3,1.8890821933746338,None,,,,,0,0,0,0,0,56,56,77,169.69673585891724,,,,,,,,,,,,,,,,,,,,,,,,,,,,,,,,,,,,,,,,,,,,,,,,,,,,,,,,,,,,,,,,,,,,,,,,,,,,,,,,,125.0,200.0,127.0,127.0,200.0,125.0,4.0,4.1,-260,-258,0,18,222,-260,169.68167424201965,169.6817502975464,169.68470978736877,169.69673585891724,169.83585691452026,169.83585691452026,169.83585691452026,169.83585691452026,169.83585691452026,169.83585691452026,169.83585691452026,171.60192894935608,3,1.8890821933746338,None,,,,,,,,,,,,,,,,,,170,4,2025-03-03_11h02.46.709,comp,2024.2.4,56.555285729117934,2025-03-03 11h02.57.663837 -0500,
57,57,0,filler_random,None,None,None,None,None,None,None,None,None,None,3,1.335820198059082,None,,,,,0,0,0,0,0,57,57,139,171.6180624961853,,,,,,,,,,,,,,,,,,,,,,,,,,,,,,,,,,,,,,,,,,,,,,,,,,,,,,,,,,,,,,,,,,,,,,,,,,,,,,,,,141.96159080469891,140.65412289244745,76.26345067056997,116.47579979111333,101.35694067816362,190.11745786333748,2.2,2.22,-225,281,0,-255,249,-284,171.60397696495056,171.60405445098877,171.6076476573944,171.6180624961853,171.76269364356995,171.76269364356995,171.76269364356995,171.76269364356995,171.76269364356995,171.76269364356995,171.76269364356995,172.95631337165833,3,1.335820198059082,None,,,,,,,,,,,,,,,,,,170,4,2025-03-03_11h02.46.709,comp,2024.2.4,56.555285729117934,2025-03-03 11h02.57.663837 -0500,
58,58,0,critical,whd,20.0,2.1,upper,125.0,200.0,200.0,125.0,141.0,141.0,2,1.3252832889556885,None,,,,,0,0,0,0,0,58,58,15,172.97311329841614,,,,,,,,,,,,,,,,,,,,,,,,,,,,,,,,,,,,,,,,,,,,,,,,,,,,,,,,,,,,,,,,,,,,,,,,,,,,,,,,,125.0,200.0,200.0,125.0,141.0,141.0,2.1,2.12,-258,-260,0,-252,229,275,172.9579291343689,172.9580066204071,172.96132063865662,172.97311329841614,173.11370587348938,173.11370587348938,173.11370587348938,173.11370587348938,173.11370587348938,173.11370587348938,173.11370587348938,174.30376172065735,2,1.3252832889556885,None,,,,,,,,,,,,,,,,,,170,4,2025-03-03_11h02.46.709,comp,2024.2.4,56.555285729117934,2025-03-03 11h02.57.663837 -0500,
59,59,0,filler_random,None,None,None,None,None,None,None,None,None,None,1,2.8333780765533447,None,,,,,0,0,0,0,0,59,59,143,174.3203055858612,,,,,,,,,,,,,,,,,,,,,,,,,,,,,,,,,,,,,,,,,,,,,,,,,,,,,,,,,,,,,,,,,,,,,,,,,,,,,,,,,150.59925318678873,132.3135232649339,81.5753417873474,123.59920645260239,164.11693986344144,104.17894872183086,2.2,2.21,-224,-281,0,265,210,270,174.30569744110107,174.30577540397644,174.30961513519287,174.3203055858612,174.47361874580383,174.47361874580383,174.47361874580383,174.47361874580383,174.47361874580383,174.47361874580383,174.47361874580383,177.16533303260803,1,2.8333780765533447,None,,,,,,,,,,,,,,,,,,170,4,2025-03-03_11h02.46.709,comp,2024.2.4,56.555285729117934,2025-03-03 11h02.57.663837 -0500,
60,60,0,critical,hwd,20.0,3.0,lower,133.0,57.0,57.0,133.0,78.0,78.0,1,2.3486740589141846,None,,,,,0,0,0,0,0,60,60,104,177.18155241012573,,,,,,,,,,,,,,,,,,,,,,,,,,,,,,,,,,,,,,,,,,,,,,,,,,,,,,,,,,,,,,,,,,,,,,,,,,,,,,,,,133.0,57.0,57.0,133.0,78.0,78.0,3.0,3.1,-191,271,0,-6,202,-259,177.16685009002686,177.1669261455536,177.16984152793884,177.18155241012573,177.33129715919495,177.33129715919495,177.33129715919495,177.33129715919495,177.33129715919495,177.33129715919495,177.33129715919495,179.53475713729858,1,2.3486740589141846,None,,,,,,,,,,,,,,,,,,170,4,2025-03-03_11h02.46.709,comp,2024.2.4,56.555285729117934,2025-03-03 11h02.57.663837 -0500,
61,61,0,filler_random,None,None,None,None,None,None,None,None,None,None,1,1.3048453330993652,None,,,,,0,0,0,0,0,61,61,130,179.56130599975586,,,,,,,,,,,,,,,,,,,,,,,,,,,,,,,,,,,,,,,,,,,,,,,,,,,,,,,,,,,,,,,,,,,,,,,,,,,,,,,,,198.9370628642591,157.71095882355405,112.10396717379189,164.1696807007858,138.22278522330848,62.72442886256619,4.0,4.2,-257,6,0,-270,209,-17,179.5363757610321,179.53645205497742,179.539892911911,179.56130599975586,179.7026674747467,179.7026674747467,179.7026674747467,179.7026674747467,179.7026674747467,179.7026674747467,179.7026674747467,180.87188959121704,1,1.3048453330993652,None,,,,,,,,,,,,,,,,,,170,4,2025-03-03_11h02.46.709,comp,2024.2.4,56.555285729117934,2025-03-03 11h02.57.663837 -0500,
62,62,0,filler_square,None,None,None,None,None,None,None,None,None,None,3,1.6168997287750244,None,,,,,0,0,0,0,0,62,62,198,180.88869714736938,,,,,,,,,,,,,,,,,,,,,,,,,,,,,,,,,,,,,,,,,,,,,,,,,,,,,,,,,,,,,,,,,,,,,,,,,,,,,,,,,58.07048204706889,60.54726287036471,72.91298640916409,72.91298640916409,72.172894855554,68.67012259706283,2.1,2.11,-163,286,0,269,167,-275,180.8739149570465,180.87399339675903,180.87790489196777,180.88869714736938,181.03647899627686,181.03647899627686,181.03647899627686,181.03647899627686,181.03647899627686,181.03647899627686,181.03647899627686,182.51908326148987,3,1.6168997287750244,None,,,,,,,,,,,,,,,,,,170,4,2025-03-03_11h02.46.709,comp,2024.2.4,56.555285729117934,2025-03-03 11h02.57.663837 -0500,
63,63,0,filler_square,None,None,None,None,None,None,None,None,None,None,3,1.4551355838775635,None,,,,,0,0,0,0,0,63,63,201,182.53898525238037,,,,,,,,,,,,,,,,,,,,,,,,,,,,,,,,,,,,,,,,,,,,,,,,,,,,,,,,,,,,,,,,,,,,,,,,,,,,,,,,,61.23713715636025,63.19538567625274,57.74040495840509,60.656902709385854,63.73478490449818,63.73478490449818,2.2,2.22,-158,275,0,-264,158,-281,182.5208592414856,182.520934343338,182.52412247657776,182.53898525238037,182.6872522830963,182.6872522830963,182.6872522830963,182.6872522830963,182.6872522830963,182.6872522830963,182.6872522830963,184.00250720977783,3,1.4551355838775635,None,,,,,,,,,,,,,,,,,,170,4,2025-03-03_11h02.46.709,comp,2024.2.4,56.555285729117934,2025-03-03 11h02.57.663837 -0500,
64,64,0,filler_random,None,None,None,None,None,None,None,None,None,None,3,1.2425432205200195,None,,,,,0,0,0,0,0,64,64,156,184.0230848789215,,,,,,,,,,,,,,,,,,,,,,,,,,,,,,,,,,,,,,,,,,,,,,,,,,,,,,,,,,,,,,,,,,,,,,,,,,,,,,,,,109.61080801336028,100.49411870932244,142.59470366428715,70.21574954619976,174.8804507040806,142.2258091813037,2.2,2.21,-181,-264,0,256,202,283,184.0041811466217,184.0042588710785,184.00738191604614,184.0230848789215,184.17837190628052,184.17837190628052,184.17837190628052,184.17837190628052,184.17837190628052,184.17837190628052,184.17837190628052,185.27664399147034,3,1.2425432205200195,None,,,,,,,,,,,,,,,,,,170,4,2025-03-03_11h02.46.709,comp,2024.2.4,56.555285729117934,2025-03-03 11h02.57.663837 -0500,
65,65,0,critical,wdh,35.0,4.0,lower,57.0,133.0,70.0,70.0,133.0,57.0,3,1.3657019138336182,None,,,,,0,0,0,0,0,65,65,76,185.29227495193481,,,,,,,,,,,,,,,,,,,,,,,,,,,,,,,,,,,,,,,,,,,,,,,,,,,,,,,,,,,,,,,,,,,,,,,,,,,,,,,,,57.0,133.0,70.0,70.0,133.0,57.0,4.0,4.1,-198,-273,0,-13,160,-289,185.27813458442688,185.27821040153503,185.2811734676361,185.29227495193481,185.43810987472534,185.43810987472534,185.43810987472534,185.43810987472534,185.43810987472534,185.43810987472534,185.43810987472534,186.67254185676575,3,1.3657019138336182,None,,,,,,,,,,,,,,,,,,170,4,2025-03-03_11h02.46.709,comp,2024.2.4,56.555285729117934,2025-03-03 11h02.57.663837 -0500,
66,66,0,filler_square,None,None,None,None,None,None,None,None,None,None,1,1.9616551399230957,None,,,,,0,0,0,0,0,66,66,194,186.68836379051208,,,,,,,,,,,,,,,,,,,,,,,,,,,,,,,,,,,,,,,,,,,,,,,,,,,,,,,,,,,,,,,,,,,,,,,,,,,,,,,,,137.08969853742704,137.08969853742704,134.5872227996423,126.4538036875895,97.9482639883802,121.67106549367563,1.0,1.1,-708,287,-480,277,-260,285,186.6744019985199,186.67449569702148,186.67795395851135,186.68836379051208,186.84243249893188,186.84243249893188,186.84243249893188,186.84243249893188,186.84243249893188,186.84243249893188,186.84243249893188,188.65432357788086,1,1.9616551399230957,None,,,,,,,,,,,,,,,,,,170,4,2025-03-03_11h02.46.709,comp,2024.2.4,56.555285729117934,2025-03-03 11h02.57.663837 -0500,
67,67,0,critical,hwd,20.0,2.1,upper,200.0,125.0,125.0,200.0,141.0,141.0,3,3.531256675720215,None,,,,,0,0,0,0,0,67,67,43,188.6706085205078,,,,,,,,,,,,,,,,,,,,,,,,,,,,,,,,,,,,,,,,,,,,,,,,,,,,,,,,,,,,,,,,,,,,,,,,,,,,,,,,,200.0,125.0,125.0,200.0,141.0,141.0,2.1,2.12,-258,-256,0,-258,266,264,188.65579390525818,188.65586948394775,188.65909337997437,188.6706085205078,188.82164525985718,188.82164525985718,188.82164525985718,188.82164525985718,188.82164525985718,188.82164525985718,188.82164525985718,192.20699334144592,3,3.531256675720215,None,,,,,,,,,,,,,,,,,,170,4,2025-03-03_11h02.46.709,comp,2024.2.4,56.555285729117934,2025-03-03 11h02.57.663837 -0500,
68,68,0,filler_random,None,None,None,None,None,None,None,None,None,None,3,1.6104090213775635,None,,,,,0,0,0,0,0,68,68,160,192.22394919395447,,,,,,,,,,,,,,,,,,,,,,,,,,,,,,,,,,,,,,,,,,,,,,,,,,,,,,,,,,,,,,,,,,,,,,,,,,,,,,,,,135.599567140094,143.1310915306924,88.74152597814026,119.1847784680685,178.2976915684378,191.44605418689486,3.0,3.1,-227,261,0,2,251,-259,192.20877027511597,192.20884537696838,192.2121822834015,192.22394919395447,192.37758421897888,192.37758421897888,192.37758421897888,192.37758421897888,192.37758421897888,192.37758421897888,192.37758421897888,193.84036087989807,3,1.6104090213775635,None,,,,,,,,,,,,,,,,,,170,4,2025-03-03_11h02.46.709,comp,2024.2.4,56.555285729117934,2025-03-03 11h02.57.663837 -0500,
69,69,0,critical,whd,35.0,3.0,upper,125.0,200.0,200.0,125.0,127.0,127.0,2,2.0133416652679443,None,,,,,0,0,0,0,0,69,69,87,193.86092400550842,,,,,,,,,,,,,,,,,,,,,,,,,,,,,,,,,,,,,,,,,,,,,,,,,,,,,,,,,,,,,,,,,,,,,,,,,,,,,,,,,125.0,200.0,200.0,125.0,127.0,127.0,3.0,3.2,-258,-273,0,17,222,266,193.84195733070374,193.84203505516052,193.8453013896942,193.86092400550842,194.00927877426147,194.00927877426147,194.00927877426147,194.00927877426147,194.00927877426147,194.00927877426147,194.00927877426147,195.89029455184937,2,2.0133416652679443,None,,,,,,,,,,,,,,,,,,170,4,2025-03-03_11h02.46.709,comp,2024.2.4,56.555285729117934,2025-03-03 11h02.57.663837 -0500,
70,70,0,filler_random,None,None,None,None,None,None,None,None,None,None,1,1.5273005962371826,None,,,,,0,0,0,0,0,70,70,135,195.9063651561737,,,,,,,,,,,,,,,,,,,,,,,,,,,,,,,,,,,,,,,,,,,,,,,,,,,,,,,,,,,,,,,,,,,,,,,,,,,,,,,,,179.4076465185274,153.46523754684605,151.27874569849627,154.51554126662705,121.9364003906951,97.64026176768874,4.0,4.2,-250,2,0,-289,222,13,195.89197778701782,195.89205384254456,195.8952066898346,195.9063651561737,196.0538318157196,196.0538318157196,196.0538318157196,196.0538318157196,196.0538318157196,196.0538318157196,196.0538318157196,197.44610404968262,1,1.5273005962371826,None,,,,,,,,,,,,,,,,,,170,4,2025-03-03_11h02.46.709,comp,2024.2.4,56.555285729117934,2025-03-03 11h02.57.663837 -0500,
71,71,0,filler_random,None,None,None,None,None,None,None,None,None,None,3,1.2329919338226318,None,,,,,0,0,0,0,0,71,71,134,197.46475911140442,,,,,,,,,,,,,,,,,,,,,,,,,,,,,,,,,,,,,,,,,,,,,,,,,,,,,,,,,,,,,,,,,,,,,,,,,,,,,,,,,81.38242241725254,121.3570128456489,134.7769294726259,70.03643125158399,191.1047216847845,133.88158396848524,3.0,3.2,-192,-286,0,-2,198,278,197.44767665863037,197.44775342941284,197.45074009895325,197.46475911140442,197.6075382232666,197.6075382232666,197.6075382232666,197.6075382232666,197.6075382232666,197.6075382232666,197.6075382232666,198.7093734741211,3,1.2329919338226318,None,,,,,,,,,,,,,,,,,,170,4,2025-03-03_11h02.46.709,comp,2024.2.4,56.555285729117934,2025-03-03 11h02.57.663837 -0500,
72,72,0,filler_random,None,None,None,None,None,None,None,None,None,None,3,2.1084887981414795,None,,,,,0,0,0,0,0,72,72,141,198.72525072097778,,,,,,,,,,,,,,,,,,,,,,,,,,,,,,,,,,,,,,,,,,,,,,,,,,,,,,,,,,,,,,,,,,,,,,,,,,,,,,,,,118.6869257145759,125.43765024100978,110.84972450664222,113.17929692152377,59.57962500004928,186.47033072156697,3.0,3.2,-215,-272,0,7,246,270,198.71114921569824,198.71124982833862,198.7146623134613,198.72525072097778,198.86325645446777,198.86325645446777,198.86325645446777,198.86325645446777,198.86325645446777,198.86325645446777,198.86325645446777,200.83863258361816,3,2.1084887981414795,None,,,,,,,,,,,,,,,,,,170,4,2025-03-03_11h02.46.709,comp,2024.2.4,56.555285729117934,2025-03-03 11h02.57.663837 -0500,
73,73,0,critical,hdw,35.0,3.0,upper,200.0,125.0,127.0,127.0,125.0,200.0,1,2.758247137069702,None,,,,,0,0,0,0,0,73,73,111,200.85936498641968,,,,,,,,,,,,,,,,,,,,,,,,,,,,,,,,,,,,,,,,,,,,,,,,,,,,,,,,,,,,,,,,,,,,,,,,,,,,,,,,,200.0,125.0,127.0,127.0,125.0,200.0,3.0,3.1,-222,287,0,4,260,-268,200.8402111530304,200.84028792381287,200.84362411499023,200.85936498641968,200.99202036857605,200.99202036857605,200.99202036857605,200.99202036857605,200.99202036857605,200.99202036857605,200.99202036857605,203.6299602985382,1,2.758247137069702,None,,,,,,,,,,,,,,,,,,170,4,2025-03-03_11h02.46.709,comp,2024.2.4,56.555285729117934,2025-03-03 11h02.57.663837 -0500,
74,74,0,critical,whd,20.0,2.1,lower,57.0,133.0,133.0,57.0,78.0,78.0,2,1.3460054397583008,None,,,,,0,0,0,0,0,74,74,14,203.64781665802002,,,,,,,,,,,,,,,,,,,,,,,,,,,,,,,,,,,,,,,,,,,,,,,,,,,,,,,,,,,,,,,,,,,,,,,,,,,,,,,,,57.0,133.0,133.0,57.0,78.0,78.0,2.1,2.11,-191,287,0,251,164,-271,203.63156986236572,203.63165831565857,203.63468861579895,203.64781665802002,203.79372668266296,203.79372668266296,203.79372668266296,203.79372668266296,203.79372668266296,203.79372668266296,203.79372668266296,204.99993658065796,2,1.3460054397583008,None,,,,,,,,,,,,,,,,,,170,4,2025-03-03_11h02.46.709,comp,2024.2.4,56.555285729117934,2025-03-03 11h02.57.663837 -0500,
75,75,0,filler_square,None,None,None,None,None,None,None,None,None,None,3,1.8779587745666504,None,,,,,0,0,0,0,0,75,75,173,205.01982975006104,,,,,,,,,,,,,,,,,,,,,,,,,,,,,,,,,,,,,,,,,,,,,,,,,,,,,,,,,,,,,,,,,,,,,,,,,,,,,,,,,67.84083099238319,73.55272839656527,105.38242039674373,81.39790756088294,109.5923034714997,109.5923034714997,2.1,2.11,-173,252,0,279,191,-285,205.00156831741333,205.0016438961029,205.0046248435974,205.01982975006104,205.1608874797821,205.1608874797821,205.1608874797821,205.1608874797821,205.1608874797821,205.1608874797821,205.1608874797821,206.90978693962097,3,1.8779587745666504,None,,,,,,,,,,,,,,,,,,170,4,2025-03-03_11h02.46.709,comp,2024.2.4,56.555285729117934,2025-03-03 11h02.57.663837 -0500,
76,76,0,filler_square,None,None,None,None,None,None,None,None,None,None,1,1.1648573875427246,None,,,,,0,0,0,0,0,76,76,209,206.92595291137695,,,,,,,,,,,,,,,,,,,,,,,,,,,,,,,,,,,,,,,,,,,,,,,,,,,,,,,,,,,,,,,,,,,,,,,,,,,,,,,,,159.5247651443105,159.5247651443105,82.39559052031211,67.5997868130491,117.38691963250244,69.28925727518865,3.0,3.1,-210,267,0,14,164,-283,206.91156363487244,206.91164302825928,206.91486597061157,206.92595291137695,207.06580662727356,207.06580662727356,207.06580662727356,207.06580662727356,207.06580662727356,207.06580662727356,207.06580662727356,208.09611439704895,1,1.1648573875427246,None,,,,,,,,,,,,,,,,,,170,4,2025-03-03_11h02.46.709,comp,2024.2.4,56.555285729117934,2025-03-03 11h02.57.663837 -0500,
77,77,0,critical,hdw,35.0,4.0,lower,133.0,57.0,70.0,70.0,57.0,133.0,1,1.8497929573059082,None,,,,,0,0,0,0,0,77,77,112,208.11205434799194,,,,,,,,,,,,,,,,,,,,,,,,,,,,,,,,,,,,,,,,,,,,,,,,,,,,,,,,,,,,,,,,,,,,,,,,,,,,,,,,,133.0,57.0,70.0,70.0,57.0,133.0,4.0,4.1,-160,-272,0,9,198,-270,208.0976152420044,208.09769129753113,208.10118865966797,208.11205434799194,208.2499611377716,208.2499611377716,208.2499611377716,208.2499611377716,208.2499611377716,208.2499611377716,208.2499611377716,209.97714495658875,1,1.8497929573059082,None,,,,,,,,,,,,,,,,,,170,4,2025-03-03_11h02.46.709,comp,2024.2.4,56.555285729117934,2025-03-03 11h02.57.663837 -0500,
78,78,0,critical,whd,35.0,2.1,upper,125.0,200.0,200.0,125.0,127.0,127.0,2,1.809422254562378,None,,,,,0,0,0,0,0,78,78,13,209.99268674850464,,,,,,,,,,,,,,,,,,,,,,,,,,,,,,,,,,,,,,,,,,,,,,,,,,,,,,,,,,,,,,,,,,,,,,,,,,,,,,,,,125.0,200.0,200.0,125.0,127.0,127.0,2.1,2.11,-258,274,0,257,222,-275,209.97862648963928,209.97870254516602,209.98171091079712,209.99268674850464,210.14410734176636,210.14410734176636,210.14410734176636,210.14410734176636,210.14410734176636,210.14410734176636,210.14410734176636,211.807692527771,2,1.809422254562378,None,,,,,,,,,,,,,,,,,,170,4,2025-03-03_11h02.46.709,comp,2024.2.4,56.555285729117934,2025-03-03 11h02.57.663837 -0500,
79,79,0,critical,dwh,20.0,4.0,lower,78.0,78.0,57.0,133.0,133.0,57.0,3,1.263021469116211,None,,,,,0,0,0,0,0,79,79,70,211.82728934288025,,,,,,,,,,,,,,,,,,,,,,,,,,,,,,,,,,,,,,,,,,,,,,,,,,,,,,,,,,,,,,,,,,,,,,,,,,,,,,,,,78.0,78.0,57.0,133.0,133.0,57.0,4.0,4.1,-202,-256,0,-6,191,-271,211.80920004844666,211.80927729606628,211.81225275993347,211.82728934288025,211.95899629592896,211.95899629592896,211.95899629592896,211.95899629592896,211.95899629592896,211.95899629592896,211.95899629592896,213.09821820259094,3,1.263021469116211,None,,,,,,,,,,,,,,,,,,170,4,2025-03-03_11h02.46.709,comp,2024.2.4,56.555285729117934,2025-03-03 11h02.57.663837 -0500,
80,80,0,critical,whd,20.0,3.0,lower,57.0,133.0,133.0,57.0,78.0,78.0,2,2.456923484802246,None,,,,,0,0,0,0,0,80,80,92,213.11523056030273,,,,,,,,,,,,,,,,,,,,,,,,,,,,,,,,,,,,,,,,,,,,,,,,,,,,,,,,,,,,,,,,,,,,,,,,,,,,,,,,,57.0,133.0,133.0,57.0,78.0,78.0,3.0,3.1,-191,259,0,1,164,-279,213.10011100769043,213.10023975372314,213.103698015213,213.11523056030273,213.26185941696167,213.26185941696167,213.26185941696167,213.26185941696167,213.26185941696167,213.26185941696167,213.26185941696167,215.57913088798523,2,2.456923484802246,None,,,,,,,,,,,,,,,,,,170,4,2025-03-03_11h02.46.709,comp,2024.2.4,56.555285729117934,2025-03-03 11h02.57.663837 -0500,
81,81,0,filler_random,None,None,None,None,None,None,None,None,None,None,2,1.0309154987335205,None,,,,,0,0,0,0,0,81,81,157,215.5956425666809,,,,,,,,,,,,,,,,,,,,,,,,,,,,,,,,,,,,,,,,,,,,,,,,,,,,,,,,,,,,,,,,,,,,,,,,,,,,,,,,,91.65030697101335,69.27796287171816,115.85055611075244,166.80825869284826,90.43033772809903,161.24501589102374,2.2,2.22,-214,253,0,-265,260,-276,215.5807385444641,215.5808138847351,215.58382844924927,215.5956425666809,215.73387026786804,215.73387026786804,215.73387026786804,215.73387026786804,215.73387026786804,215.73387026786804,215.73387026786804,216.63233041763306,2,1.0309154987335205,None,,,,,,,,,,,,,,,,,,170,4,2025-03-03_11h02.46.709,comp,2024.2.4,56.555285729117934,2025-03-03 11h02.57.663837 -0500,
82,82,0,critical,hwd,20.0,1.0,upper,200.0,125.0,125.0,200.0,141.0,141.0,1,0.9145853519439697,None,,,,,0,0,0,0,0,82,82,103,216.64801454544067,,,,,,,,,,,,,,,,,,,,,,,,,,,,,,,,,,,,,,,,,,,,,,,,,,,,,,,,,,,,,,,,,,,,,,,,,,,,,,,,,200.0,125.0,125.0,200.0,141.0,141.0,1.0,1.2,-258,18,0,6,266,-2,216.63379836082458,216.63391709327698,216.63728618621826,216.64801454544067,216.80608439445496,216.80608439445496,216.80608439445496,216.80608439445496,216.80608439445496,216.80608439445496,216.80608439445496,217.56998658180237,1,0.9145853519439697,None,,,,,,,,,,,,,,,,,,170,4,2025-03-03_11h02.46.709,comp,2024.2.4,56.555285729117934,2025-03-03 11h02.57.663837 -0500,
83,83,0,critical,dhw,35.0,2.1,upper,127.0,127.0,200.0,125.0,125.0,200.0,3,1.5524728298187256,None,,,,,0,0,0,0,0,83,83,25,217.58601117134094,,,,,,,,,,,,,,,,,,,,,,,,,,,,,,,,,,,,,,,,,,,,,,,,,,,,,,,,,,,,,,,,,,,,,,,,,,,,,,,,,127.0,127.0,200.0,125.0,125.0,200.0,2.1,2.12,-222,-267,0,-283,258,280,217.57142853736877,217.57154726982117,217.57450008392334,217.58601117134094,217.73065781593323,217.73065781593323,217.73065781593323,217.73065781593323,217.73065781593323,217.73065781593323,217.73065781593323,219.1490445137024,3,1.5524728298187256,None,,,,,,,,,,,,,,,,,,170,4,2025-03-03_11h02.46.709,comp,2024.2.4,56.555285729117934,2025-03-03 11h02.57.663837 -0500,
84,84,0,critical,hwd,35.0,1.0,lower,133.0,57.0,57.0,133.0,70.0,70.0,1,1.6841144561767578,None,,,,,0,0,0,0,0,84,84,96,219.16550421714783,,,,,,,,,,,,,,,,,,,,,,,,,,,,,,,,,,,,,,,,,,,,,,,,,,,,,,,,,,,,,,,,,,,,,,,,,,,,,,,,,133.0,57.0,57.0,133.0,70.0,70.0,1.0,1.1,-671,288,-480,271,-282,272,219.15062379837036,219.15070056915283,219.15481781959534,219.16550421714783,219.31242489814758,219.31242489814758,219.31242489814758,219.31242489814758,219.31242489814758,219.31242489814758,219.31242489814758,220.86394929885864,1,1.6841144561767578,None,,,,,,,,,,,,,,,,,,170,4,2025-03-03_11h02.46.709,comp,2024.2.4,56.555285729117934,2025-03-03 11h02.57.663837 -0500,
85,85,0,filler_square,None,None,None,None,None,None,None,None,None,None,3,1.313774585723877,None,,,,,0,0,0,0,0,85,85,204,220.87987279891968,,,,,,,,,,,,,,,,,,,,,,,,,,,,,,,,,,,,,,,,,,,,,,,,,,,,,,,,,,,,,,,,,,,,,,,,,,,,,,,,,145.57633204898707,120.51932807121163,79.05924781148968,122.82988866786785,163.33868761136208,163.33868761136208,1.0,1.1,-698,268,-480,255,-241,257,220.86569571495056,220.8657727241516,220.86899375915527,220.87987279891968,221.03127765655518,221.03127765655518,221.03127765655518,221.03127765655518,221.03127765655518,221.03127765655518,221.03127765655518,222.2047905921936,3,1.313774585723877,None,,,,,,,,,,,,,,,,,,170,4,2025-03-03_11h02.46.709,comp,2024.2.4,56.555285729117934,2025-03-03 11h02.57.663837 -0500,
86,86,0,critical,hwd,35.0,4.0,upper,200.0,125.0,125.0,200.0,127.0,127.0,1,1.6383662223815918,None,,,,,0,0,0,0,0,86,86,101,222.22003889083862,,,,,,,,,,,,,,,,,,,,,,,,,,,,,,,,,,,,,,,,,,,,,,,,,,,,,,,,,,,,,,,,,,,,,,,,,,,,,,,,,200.0,125.0,125.0,200.0,127.0,127.0,4.0,4.2,-258,19,0,-286,260,-17,222.2063524723053,222.20642852783203,222.20937418937683,222.22003889083862,222.364488363266,222.364488363266,222.364488363266,222.364488363266,222.364488363266,222.364488363266,222.364488363266,223.86526226997375,1,1.6383662223815918,None,,,,,,,,,,,,,,,,,,170,4,2025-03-03_11h02.46.709,comp,2024.2.4,56.555285729117934,2025-03-03 11h02.57.663837 -0500,
87,87,0,catch,None,None,None,None,None,None,None,None,None,None,3,1.0239553451538086,None,,,,,0,0,0,0,0,87,87,122,223.8817343711853,,,,,,,,,,,,,,,,,,,,,,,,,,,,,,,,,,,,,,,,,,,,,,,,,,,,,,,,,,,,,,,,,,,,,,,,,,,,,,,,,130,60,93,97,148,177,4.0,4.1,-174,-287,0,15,233,-280,223.86705780029297,223.86713480949402,223.87023162841797,223.8817343711853,224.02915358543396,224.02915358543396,224.02915358543396,224.02915358543396,224.02915358543396,224.02915358543396,224.02915358543396,224.91632771492004,3,1.0239553451538086,None,,,,,,,,,,,,,,,,,,170,4,2025-03-03_11h02.46.709,comp,2024.2.4,56.555285729117934,2025-03-03 11h02.57.663837 -0500,
88,88,0,filler_square,None,None,None,None,None,None,None,None,None,None,2,1.0043771266937256,None,,,,,0,0,0,0,0,88,88,205,224.93328428268433,,,,,,,,,,,,,,,,,,,,,,,,,,,,,,,,,,,,,,,,,,,,,,,,,,,,,,,,,,,,,,,,,,,,,,,,,,,,,,,,,72.21225111461975,111.48464920979391,196.8158401629789,196.8158401629789,86.00413509331693,80.0733381041406,2.1,2.11,-250,260,0,277,234,-278,224.91817569732666,224.9182529449463,224.92169284820557,224.93328428268433,225.0892038345337,225.0892038345337,225.0892038345337,225.0892038345337,225.0892038345337,225.0892038345337,225.0892038345337,225.94940733909607,2,1.0043771266937256,None,,,,,,,,,,,,,,,,,,170,4,2025-03-03_11h02.46.709,comp,2024.2.4,56.555285729117934,2025-03-03 11h02.57.663837 -0500,
89,89,0,filler_square,None,None,None,None,None,None,None,None,None,None,1,1.0999674797058105,None,,,,,0,0,0,0,0,89,89,170,225.96581625938416,,,,,,,,,,,,,,,,,,,,,,,,,,,,,,,,,,,,,,,,,,,,,,,,,,,,,,,,,,,,,,,,,,,,,,,,,,,,,,,,,191.5785170443257,191.5785170443257,146.285810729827,68.65690617143122,117.50212718824258,120.45166312840414,4.0,4.1,-226,-282,0,12,191,-259,225.95117449760437,225.951251745224,225.9543628692627,225.96581625938416,226.11554598808289,226.11554598808289,226.11554598808289,226.11554598808289,226.11554598808289,226.11554598808289,226.11554598808289,227.08709955215454,1,1.0999674797058105,None,,,,,,,,,,,,,,,,,,170,4,2025-03-03_11h02.46.709,comp,2024.2.4,56.555285729117934,2025-03-03 11h02.57.663837 -0500,
90,90,0,critical,hdw,35.0,4.0,upper,200.0,125.0,127.0,127.0,125.0,200.0,3,1.457387924194336,None,,,,,0,0,0,0,0,90,90,113,227.1048300266266,,,,,,,,,,,,,,,,,,,,,,,,,,,,,,,,,,,,,,,,,,,,,,,,,,,,,,,,,,,,,,,,,,,,,,,,,,,,,,,,,200.0,125.0,127.0,127.0,125.0,200.0,4.0,4.2,-222,-18,0,-262,260,15,227.08882904052734,227.08895897865295,227.09219241142273,227.1048300266266,227.25508332252502,227.25508332252502,227.25508332252502,227.25508332252502,227.25508332252502,227.25508332252502,227.25508332252502,228.57025289535522,3,1.457387924194336,None,,,,,,,,,,,,,,,,,,170,4,2025-03-03_11h02.46.709,comp,2024.2.4,56.555285729117934,2025-03-03 11h02.57.663837 -0500,
91,91,0,critical,dhw,20.0,2.1,lower,78.0,78.0,133.0,57.0,57.0,133.0,3,2.0045526027679443,None,,,,,0,0,0,0,0,91,91,26,228.58986473083496,,,,,,,,,,,,,,,,,,,,,,,,,,,,,,,,,,,,,,,,,,,,,,,,,,,,,,,,,,,,,,,,,,,,,,,,,,,,,,,,,78.0,78.0,133.0,57.0,57.0,133.0,2.1,2.11,-164,274,0,258,191,-284,228.57215905189514,228.57229232788086,228.57547998428345,228.58986473083496,228.7350070476532,228.7350070476532,228.7350070476532,228.7350070476532,228.7350070476532,228.7350070476532,228.7350070476532,230.60099029541016,3,2.0045526027679443,None,,,,,,,,,,,,,,,,,,170,4,2025-03-03_11h02.46.709,comp,2024.2.4,56.555285729117934,2025-03-03 11h02.57.663837 -0500,
92,92,0,critical,dwh,35.0,2.1,upper,127.0,127.0,125.0,200.0,200.0,125.0,2,0.9438087940216064,None,,,,,0,0,0,0,0,92,92,29,230.6184208393097,,,,,,,,,,,,,,,,,,,,,,,,,,,,,,,,,,,,,,,,,,,,,,,,,,,,,,,,,,,,,,,,,,,,,,,,,,,,,,,,,127.0,127.0,125.0,200.0,200.0,125.0,2.1,2.11,-260,256,0,289,258,-253,230.60256719589233,230.6026439666748,230.60596585273743,230.6184208393097,230.76618480682373,230.76618480682373,230.76618480682373,230.76618480682373,230.76618480682373,230.76618480682373,230.76618480682373,231.56901717185974,2,0.9438087940216064,None,,,,,,,,,,,,,,,,,,170,4,2025-03-03_11h02.46.709,comp,2024.2.4,56.555285729117934,2025-03-03 11h02.57.663837 -0500,
93,93,0,critical,wdh,20.0,1.0,lower,57.0,133.0,78.0,78.0,133.0,57.0,3,0.872591495513916,None,,,,,0,0,0,0,0,93,93,78,231.58501887321472,,,,,,,,,,,,,,,,,,,,,,,,,,,,,,,,,,,,,,,,,,,,,,,,,,,,,,,,,,,,,,,,,,,,,,,,,,,,,,,,,57.0,133.0,78.0,78.0,133.0,57.0,1.0,1.1,-682,289,-480,279,-316,278,231.57059025764465,231.57067155838013,231.57422804832458,231.58501887321472,231.73425030708313,231.73425030708313,231.73425030708313,231.73425030708313,231.73425030708313,231.73425030708313,231.73425030708313,232.46712112426758,3,0.872591495513916,None,,,,,,,,,,,,,,,,,,170,4,2025-03-03_11h02.46.709,comp,2024.2.4,56.555285729117934,2025-03-03 11h02.57.663837 -0500,
94,94,0,filler_square,None,None,None,None,None,None,None,None,None,None,3,1.1886751651763916,None,,,,,0,0,0,0,0,94,94,175,232.48498058319092,,,,,,,,,,,,,,,,,,,,,,,,,,,,,,,,,,,,,,,,,,,,,,,,,,,,,,,,,,,,,,,,,,,,,,,,,,,,,,,,,78.05386137610007,169.62703655793047,85.74364695011401,110.16990914464637,187.90933109772908,187.90933109772908,2.1,2.11,-236,284,0,268,245,-275,232.4689586162567,232.46903562545776,232.4720094203949,232.48498058319092,232.61975026130676,232.61975026130676,232.61975026130676,232.61975026130676,232.61975026130676,232.61975026130676,232.61975026130676,233.68827843666077,3,1.1886751651763916,None,,,,,,,,,,,,,,,,,,170,4,2025-03-03_11h02.46.709,comp,2024.2.4,56.555285729117934,2025-03-03 11h02.57.663837 -0500,
95,95,0,filler_square,None,None,None,None,None,None,None,None,None,None,1,1.315291166305542,None,,,,,0,0,0,0,0,95,95,182,233.70237731933594,,,,,,,,,,,,,,,,,,,,,,,,,,,,,,,,,,,,,,,,,,,,,,,,,,,,,,,,,,,,,,,,,,,,,,,,,,,,,,,,,168.3134702910591,163.24870886881934,169.1777393788077,169.1777393788077,96.22097178790963,115.16249229086634,4.0,4.1,-262,-267,0,15,238,-271,233.69021654129028,233.6902928352356,233.69339895248413,233.70237731933594,233.8577811717987,233.8577811717987,233.8577811717987,233.8577811717987,233.8577811717987,233.8577811717987,233.8577811717987,235.01974773406982,1,1.315291166305542,None,,,,,,,,,,,,,,,,,,170,4,2025-03-03_11h02.46.709,comp,2024.2.4,56.555285729117934,2025-03-03 11h02.57.663837 -0500,
96,96,0,critical,wdh,35.0,1.0,upper,125.0,200.0,127.0,127.0,200.0,125.0,3,1.2854218482971191,None,,,,,0,0,0,0,0,96,96,73,235.03634357452393,,,,,,,,,,,,,,,,,,,,,,,,,,,,,,,,,,,,,,,,,,,,,,,,,,,,,,,,,,,,,,,,,,,,,,,,,,,,,,,,,125.0,200.0,127.0,127.0,200.0,125.0,1.0,1.2,-260,-3,0,-20,222,-12,235.02124500274658,235.0213222503662,235.02464389801025,235.03634357452393,235.17568564414978,235.17568564414978,235.17568564414978,235.17568564414978,235.17568564414978,235.17568564414978,235.17568564414978,236.3370885848999,3,1.2854218482971191,None,,,,,,,,,,,,,,,,,,170,4,2025-03-03_11h02.46.709,comp,2024.2.4,56.555285729117934,2025-03-03 11h02.57.663837 -0500,
97,97,0,critical,hwd,35.0,1.0,upper,200.0,125.0,125.0,200.0,127.0,127.0,1,0.8877017498016357,None,,,,,0,0,0,0,0,97,97,97,236.35545301437378,,,,,,,,,,,,,,,,,,,,,,,,,,,,,,,,,,,,,,,,,,,,,,,,,,,,,,,,,,,,,,,,,,,,,,,,,,,,,,,,,200.0,125.0,125.0,200.0,127.0,127.0,1.0,1.1,-738,271,-480,269,-220,259,236.33863711357117,236.33873295783997,236.34265685081482,236.35545301437378,236.50377488136292,236.50377488136292,236.50377488136292,236.50377488136292,236.50377488136292,236.50377488136292,236.50377488136292,237.25421738624573,1,0.8877017498016357,None,,,,,,,,,,,,,,,,,,170,4,2025-03-03_11h02.46.709,comp,2024.2.4,56.555285729117934,2025-03-03 11h02.57.663837 -0500,
98,98,0,critical,hdw,35.0,2.1,lower,133.0,57.0,70.0,70.0,57.0,133.0,1,2.091794967651367,None,,,,,0,0,0,0,0,98,98,44,237.27005243301392,,,,,,,,,,,,,,,,,,,,,,,,,,,,,,,,,,,,,,,,,,,,,,,,,,,,,,,,,,,,,,,,,,,,,,,,,,,,,,,,,133.0,57.0,70.0,70.0,57.0,133.0,2.1,2.12,-160,-285,0,-270,198,257,237.25575923919678,237.25583577156067,237.25925159454346,237.27005243301392,237.41892051696777,237.41892051696777,237.41892051696777,237.41892051696777,237.41892051696777,237.41892051696777,237.41892051696777,239.3712773323059,1,2.091794967651367,None,,,,,,,,,,,,,,,,,,170,4,2025-03-03_11h02.46.709,comp,2024.2.4,56.555285729117934,2025-03-03 11h02.57.663837 -0500,
99,99,0,filler_square,None,None,None,None,None,None,None,None,None,None,3,1.2779626846313477,None,,,,,0,0,0,0,0,99,99,193,239.38805294036865,,,,,,,,,,,,,,,,,,,,,,,,,,,,,,,,,,,,,,,,,,,,,,,,,,,,,,,,,,,,,,,,,,,,,,,,,,,,,,,,,70.77760231054401,76.2014466922929,59.66285280549998,75.87159260938762,76.35216978017817,76.35216978017817,2.1,2.12,-172,-266,0,-269,172,286,239.3730766773224,239.3731551170349,239.3772463798523,239.38805294036865,239.5359914302826,239.5359914302826,239.5359914302826,239.5359914302826,239.5359914302826,239.5359914302826,239.5359914302826,240.67850041389465,3,1.2779626846313477,None,,,,,,,,,,,,,,,,,,170,4,2025-03-03_11h02.46.709,comp,2024.2.4,56.555285729117934,2025-03-03 11h02.57.663837 -0500,
100,100,0,critical,dwh,20.0,1.0,upper,141.0,141.0,125.0,200.0,200.0,125.0,3,1.5684490203857422,None,,,,,0,0,0,0,0,100,100,67,240.69767904281616,,,,,,,,,,,,,,,,,,,,,,,,,,,,,,,,,,,,,,,,,,,,,,,,,,,,,,,,,,,,,,,,,,,,,,,,,,,,,,,,,141.0,141.0,125.0,200.0,200.0,125.0,1.0,1.3,214,-283,480,-252,738,-267,240.68009114265442,240.68016934394836,240.68346619606018,240.69767904281616,240.83865904808044,240.83865904808044,240.83865904808044,240.83865904808044,240.83865904808044,240.83865904808044,240.83865904808044,242.274489402771,3,1.5684490203857422,None,,,,,,,,,,,,,,,,,,170,4,2025-03-03_11h02.46.709,comp,2024.2.4,56.555285729117934,2025-03-03 11h02.57.663837 -0500,
101,101,0,critical,dhw,20.0,1.0,lower,78.0,78.0,133.0,57.0,57.0,133.0,2,2.0427892208099365,None,,,,,0,0,0,0,0,101,101,54,242.29496431350708,,,,,,,,,,,,,,,,,,,,,,,,,,,,,,,,,,,,,,,,,,,,,,,,,,,,,,,,,,,,,,,,,,,,,,,,,,,,,,,,,78.0,78.0,133.0,57.0,57.0,133.0,1.0,1.2,-164,8,0,10,191,14,242.27597665786743,242.27605152130127,242.27925181388855,242.29496431350708,242.43861484527588,242.43861484527588,242.43861484527588,242.43861484527588,242.43861484527588,242.43861484527588,242.43861484527588,244.33983731269836,2,2.0427892208099365,None,,,,,,,,,,,,,,,,,,170,4,2025-03-03_11h02.46.709,comp,2024.2.4,56.555285729117934,2025-03-03 11h02.57.663837 -0500,
102,102,0,critical,dwh,20.0,2.1,upper,141.0,141.0,125.0,200.0,200.0,125.0,3,2.4131929874420166,None,,,,,0,0,0,0,0,102,102,7,244.3568184375763,,,,,,,,,,,,,,,,,,,,,,,,,,,,,,,,,,,,,,,,,,,,,,,,,,,,,,,,,,,,,,,,,,,,,,,,,,,,,,,,,141.0,141.0,125.0,200.0,200.0,125.0,2.1,2.12,-266,-255,0,-278,258,254,244.34143257141113,244.34153938293457,244.34570813179016,244.3568184375763,244.5043728351593,244.5043728351593,244.5043728351593,244.5043728351593,244.5043728351593,244.5043728351593,244.5043728351593,246.77242493629456,3,2.4131929874420166,None,,,,,,,,,,,,,,,,,,170,4,2025-03-03_11h02.46.709,comp,2024.2.4,56.555285729117934,2025-03-03 11h02.57.663837 -0500,
103,103,0,filler_square,None,None,None,None,None,None,None,None,None,None,2,1.0366086959838867,None,,,,,0,0,0,0,0,103,103,203,246.78916239738464,,,,,,,,,,,,,,,,,,,,,,,,,,,,,,,,,,,,,,,,,,,,,,,,,,,,,,,,,,,,,,,,,,,,,,,,,,,,,,,,,89.03233286885458,63.10872896879558,120.88922353184793,120.88922353184793,71.27823410297802,59.47161453358754,1.0,1.1,-668,268,-480,285,-294,260,246.77425074577332,246.7743275165558,246.77759170532227,246.78916239738464,246.9400372505188,246.9400372505188,246.9400372505188,246.9400372505188,246.9400372505188,246.9400372505188,246.9400372505188,247.8424711227417,2,1.0366086959838867,None,,,,,,,,,,,,,,,,,,170,4,2025-03-03_11h02.46.709,comp,2024.2.4,56.555285729117934,2025-03-03 11h02.57.663837 -0500,
104,104,0,critical,whd,35.0,1.0,upper,125.0,200.0,200.0,125.0,127.0,127.0,2,1.0712289810180664,None,,,,,0,0,0,0,0,104,104,85,247.85840725898743,,,,,,,,,,,,,,,,,,,,,,,,,,,,,,,,,,,,,,,,,,,,,,,,,,,,,,,,,,,,,,,,,,,,,,,,,,,,,,,,,125.0,200.0,200.0,125.0,127.0,127.0,1.0,1.3,222,-281,480,-258,702,-266,247.84412670135498,247.84420800209045,247.84772109985352,247.85840725898743,248.00905656814575,248.00905656814575,248.00905656814575,248.00905656814575,248.00905656814575,248.00905656814575,248.00905656814575,248.93984198570251,2,1.0712289810180664,None,,,,,,,,,,,,,,,,,,170,4,2025-03-03_11h02.46.709,comp,2024.2.4,56.555285729117934,2025-03-03 11h02.57.663837 -0500,
105,105,0,filler_random,None,None,None,None,None,None,None,None,None,None,1,1.9656867980957031,None,,,,,0,0,0,0,0,105,105,162,248.95617246627808,,,,,,,,,,,,,,,,,,,,,,,,,,,,,,,,,,,,,,,,,,,,,,,,,,,,,,,,,,,,,,,,,,,,,,,,,,,,,,,,,110.06106762672434,168.79411297126688,130.8778357440903,113.87646631536563,107.98750788098206,131.98327095472789,4.0,4.1,-237,-281,0,2,219,-254,248.94141697883606,248.94149374961853,248.94469690322876,248.95617246627808,249.10793089866638,249.10793089866638,249.10793089866638,249.10793089866638,249.10793089866638,249.10793089866638,249.10793089866638,250.92477798461914,1,1.9656867980957031,None,,,,,,,,,,,,,,,,,,170,4,2025-03-03_11h02.46.709,comp,2024.2.4,56.555285729117934,2025-03-03 11h02.57.663837 -0500,
106,106,0,critical,wdh,35.0,1.0,lower,57.0,133.0,70.0,70.0,133.0,57.0,1,1.509317398071289,None,,,,,0,0,0,0,0,106,106,72,250.94118475914001,,,,,,,,,,,,,,,,,,,,,,,,,,,,,,,,,,,,,,,,,,,,,,,,,,,,,,,,,,,,,,,,,,,,,,,,,,,,,,,,,57.0,133.0,70.0,70.0,133.0,57.0,1.0,1.1,-678,261,-480,281,-320,253,250.92644000053406,250.9265501499176,250.93007469177246,250.94118475914001,251.0817575454712,251.0817575454712,251.0817575454712,251.0817575454712,251.0817575454712,251.0817575454712,251.0817575454712,252.46100330352783,1,1.509317398071289,None,,,,,,,,,,,,,,,,,,170,4,2025-03-03_11h02.46.709,comp,2024.2.4,56.555285729117934,2025-03-03 11h02.57.663837 -0500,
107,107,0,critical,dwh,20.0,3.0,upper,141.0,141.0,125.0,200.0,200.0,125.0,1,3.0692484378814697,None,,,,,0,0,0,0,0,107,107,69,252.47664666175842,,,,,,,,,,,,,,,,,,,,,,,,,,,,,,,,,,,,,,,,,,,,,,,,,,,,,,,,,,,,,,,,,,,,,,,,,,,,,,,,,141.0,141.0,125.0,200.0,200.0,125.0,3.0,3.1,-266,276,0,-15,258,-272,252.46253871917725,252.4626190662384,252.4659149646759,252.47664666175842,252.61921620368958,252.61921620368958,252.61921620368958,252.61921620368958,252.61921620368958,252.61921620368958,252.61921620368958,255.5610511302948,1,3.0692484378814697,None,,,,,,,,,,,,,,,,,,170,4,2025-03-03_11h02.46.709,comp,2024.2.4,56.555285729117934,2025-03-03 11h02.57.663837 -0500,
108,108,0,filler_square,None,None,None,None,None,None,None,None,None,None,1,1.657397985458374,None,,,,,0,0,0,0,0,108,108,190,255.57700443267822,,,,,,,,,,,,,,,,,,,,,,,,,,,,,,,,,,,,,,,,,,,,,,,,,,,,,,,,,,,,,,,,,,,,,,,,,,,,,,,,,112.29261852236681,112.29261852236681,60.07515770372146,68.3998438205279,78.29780114263781,75.71316902490355,3.0,3.1,-186,281,0,15,168,-285,255.56301498413086,255.56309342384338,255.56673336029053,255.57700443267822,255.7260479927063,255.7260479927063,255.7260479927063,255.7260479927063,255.7260479927063,255.7260479927063,255.7260479927063,257.2420938014984,1,1.657397985458374,None,,,,,,,,,,,,,,,,,,170,4,2025-03-03_11h02.46.709,comp,2024.2.4,56.555285729117934,2025-03-03 11h02.57.663837 -0500,
109,109,0,critical,dwh,20.0,3.0,lower,78.0,78.0,57.0,133.0,133.0,57.0,3,1.6319451332092285,None,,,,,0,0,0,0,0,109,109,68,257.2583465576172,,,,,,,,,,,,,,,,,,,,,,,,,,,,,,,,,,,,,,,,,,,,,,,,,,,,,,,,,,,,,,,,,,,,,,,,,,,,,,,,,78.0,78.0,57.0,133.0,133.0,57.0,3.0,3.2,-202,-262,0,1,191,269,257.2435841560364,257.24365973472595,257.2468647956848,257.2583465576172,257.41193413734436,257.41193413734436,257.41193413734436,257.41193413734436,257.41193413734436,257.41193413734436,257.41193413734436,258.89405608177185,3,1.6319451332092285,None,,,,,,,,,,,,,,,,,,170,4,2025-03-03_11h02.46.709,comp,2024.2.4,56.555285729117934,2025-03-03 11h02.57.663837 -0500,
110,110,0,critical,hdw,20.0,3.0,upper,200.0,125.0,141.0,141.0,125.0,200.0,3,2.1882121562957764,None,,,,,0,0,0,0,0,110,110,117,258.9103012084961,,,,,,,,,,,,,,,,,,,,,,,,,,,,,,,,,,,,,,,,,,,,,,,,,,,,,,,,,,,,,,,,,,,,,,,,,,,,,,,,,200.0,125.0,141.0,141.0,125.0,200.0,3.0,3.1,-229,289,0,-18,266,-284,258.89556789398193,258.8956460952759,258.8989918231964,258.9103012084961,259.06019139289856,259.06019139289856,259.06019139289856,259.06019139289856,259.06019139289856,259.06019139289856,259.06019139289856,261.10447120666504,3,2.1882121562957764,None,,,,,,,,,,,,,,,,,,170,4,2025-03-03_11h02.46.709,comp,2024.2.4,56.555285729117934,2025-03-03 11h02.57.663837 -0500,
111,111,0,filler_random,None,None,None,None,None,None,None,None,None,None,3,2.3531415462493896,None,,,,,0,0,0,0,0,111,111,168,261.12106680870056,,,,,,,,,,,,,,,,,,,,,,,,,,,,,,,,,,,,,,,,,,,,,,,,,,,,,,,,,,,,,,,,,,,,,,,,,,,,,,,,,153.32536865061115,103.01741085117891,120.09668731671024,185.10340574312525,174.1417354100956,106.81794906623269,2.2,2.21,-240,-285,0,285,242,278,261.10627126693726,261.1064040660858,261.10978412628174,261.12106680870056,261.26061606407166,261.26061606407166,261.26061606407166,261.26061606407166,261.26061606407166,261.26061606407166,261.26061606407166,263.47698950767517,3,2.3531415462493896,None,,,,,,,,,,,,,,,,,,170,4,2025-03-03_11h02.46.709,comp,2024.2.4,56.555285729117934,2025-03-03 11h02.57.663837 -0500,
112,112,0,filler_random,None,None,None,None,None,None,None,None,None,None,2,1.2203500270843506,None,,,,,0,0,0,0,0,112,112,131,263.49334144592285,,,,,,,,,,,,,,,,,,,,,,,,,,,,,,,,,,,,,,,,,,,,,,,,,,,,,,,,,,,,,,,,,,,,,,,,,,,,,,,,,102.48305129931921,75.8427325924389,59.11062658099329,95.07280803932895,176.68339214739342,80.90151431565046,2.2,2.22,-181,284,0,-267,184,-263,263.47874116897583,263.4788465499878,263.48221588134766,263.49334144592285,263.64512300491333,263.64512300491333,263.64512300491333,263.64512300491333,263.64512300491333,263.64512300491333,263.64512300491333,264.7287449836731,2,1.2203500270843506,None,,,,,,,,,,,,,,,,,,170,4,2025-03-03_11h02.46.709,comp,2024.2.4,56.555285729117934,2025-03-03 11h02.57.663837 -0500,
113,113,0,critical,whd,20.0,3.0,upper,125.0,200.0,200.0,125.0,141.0,141.0,3,2.2977898120880127,None,,,,,0,0,0,0,0,113,113,93,264.7442355155945,,,,,,,,,,,,,,,,,,,,,,,,,,,,,,,,,,,,,,,,,,,,,,,,,,,,,,,,,,,,,,,,,,,,,,,,,,,,,,,,,125.0,200.0,200.0,125.0,141.0,141.0,3.0,3.1,-258,275,0,-15,229,-261,264.7302989959717,264.73037457466125,264.7339286804199,264.7442355155945,264.8960590362549,264.8960590362549,264.8960590362549,264.8960590362549,264.8960590362549,264.8960590362549,264.8960590362549,267.0455937385559,3,2.2977898120880127,None,,,,,,,,,,,,,,,,,,170,4,2025-03-03_11h02.46.709,comp,2024.2.4,56.555285729117934,2025-03-03 11h02.57.663837 -0500,
114,114,0,filler_random,None,None,None,None,None,None,None,None,None,None,1,1.4591481685638428,None,,,,,0,0,0,0,0,114,114,154,267.0627427101135,,,,,,,,,,,,,,,,,,,,,,,,,,,,,,,,,,,,,,,,,,,,,,,,,,,,,,,,,,,,,,,,,,,,,,,,,,,,,,,,,122.12324138972018,147.20869530051118,74.4058256673375,181.5476059110237,79.2091078348161,141.2826855991956,1.0,1.3,220,-252,480,-281,737,-271,267.04722476005554,267.047301530838,267.0503852367401,267.0627427101135,267.21409845352173,267.21409845352173,267.21409845352173,267.21409845352173,267.21409845352173,267.21409845352173,267.21409845352173,268.5304126739502,1,1.4591481685638428,None,,,,,,,,,,,,,,,,,,170,4,2025-03-03_11h02.46.709,comp,2024.2.4,56.555285729117934,2025-03-03 11h02.57.663837 -0500,
115,115,0,catch,None,None,None,None,None,None,None,None,None,None,2,1.2063910961151123,None,,,,,0,0,0,0,0,115,115,121,268.5480155944824,,,,,,,,,,,,,,,,,,,,,,,,,,,,,,,,,,,,,,,,,,,,,,,,,,,,,,,,,,,,,,,,,,,,,,,,,,,,,,,,,63,127,166,159,120,70,2.2,2.21,-239,-284,0,269,210,264,268.5323214530945,268.53239941596985,268.5364589691162,268.5480155944824,268.69374680519104,268.69374680519104,268.69374680519104,268.69374680519104,268.69374680519104,268.69374680519104,268.69374680519104,269.7651312351227,2,1.2063910961151123,None,,,,,,,,,,,,,,,,,,170,4,2025-03-03_11h02.46.709,comp,2024.2.4,56.555285729117934,2025-03-03 11h02.57.663837 -0500,
116,116,0,critical,whd,35.0,2.1,lower,57.0,133.0,133.0,57.0,70.0,70.0,2,1.5485262870788574,None,,,,,0,0,0,0,0,116,116,12,269.78136563301086,,,,,,,,,,,,,,,,,,,,,,,,,,,,,,,,,,,,,,,,,,,,,,,,,,,,,,,,,,,,,,,,,,,,,,,,,,,,,,,,,57.0,133.0,133.0,57.0,70.0,70.0,2.1,2.12,-191,-277,0,-279,160,252,269.76660895347595,269.76668214797974,269.770699262619,269.78136563301086,269.9345631599426,269.9345631599426,269.9345631599426,269.9345631599426,269.9345631599426,269.9345631599426,269.9345631599426,271.3476016521454,2,1.5485262870788574,None,,,,,,,,,,,,,,,,,,170,4,2025-03-03_11h02.46.709,comp,2024.2.4,56.555285729117934,2025-03-03 11h02.57.663837 -0500,
117,117,0,critical,wdh,35.0,3.0,lower,57.0,133.0,70.0,70.0,133.0,57.0,2,1.863551378250122,None,,,,,0,0,0,0,0,117,117,74,271.36287355422974,,,,,,,,,,,,,,,,,,,,,,,,,,,,,,,,,,,,,,,,,,,,,,,,,,,,,,,,,,,,,,,,,,,,,,,,,,,,,,,,,57.0,133.0,70.0,70.0,133.0,57.0,3.0,3.1,-198,256,0,-4,160,-290,271.3491036891937,271.34918117523193,271.3526134490967,271.36287355422974,271.5130853652954,271.5130853652954,271.5130853652954,271.5130853652954,271.5130853652954,271.5130853652954,271.5130853652954,273.23231649398804,2,1.863551378250122,None,,,,,,,,,,,,,,,,,,170,4,2025-03-03_11h02.46.709,comp,2024.2.4,56.555285729117934,2025-03-03 11h02.57.663837 -0500,
118,118,0,filler_square,None,None,None,None,None,None,None,None,None,None,2,2.31396222114563,None,,,,,0,0,0,0,0,118,118,181,273.24828720092773,,,,,,,,,,,,,,,,,,,,,,,,,,,,,,,,,,,,,,,,,,,,,,,,,,,,,,,,,,,,,,,,,,,,,,,,,,,,,,,,,70.67220958479011,69.87150822814434,101.95648907993748,101.95648907993748,81.21781430206082,97.67932079677314,1.0,1.1,-662,278,-480,288,-284,287,273.234135389328,273.2342119216919,273.2376356124878,273.24828720092773,273.3986563682556,273.3986563682556,273.3986563682556,273.3986563682556,273.3986563682556,273.3986563682556,273.3986563682556,275.5648057460785,2,2.31396222114563,None,,,,,,,,,,,,,,,,,,170,4,2025-03-03_11h02.46.709,comp,2024.2.4,56.555285729117934,2025-03-03 11h02.57.663837 -0500,
119,119,0,catch,None,None,None,None,None,None,None,None,None,None,2,1.2415759563446045,None,,,,,0,0,0,0,0,119,119,120,275.58481550216675,,,,,,,,,,,,,,,,,,,,,,,,,,,,,,,,,,,,,,,,,,,,,,,,,,,,,,,,,,,,,,,,,,,,,,,,,,,,,,,,,109,81,187,138,70,120,4.0,4.2,-206,14,0,-272,225,13,275.5666494369507,275.56672620773315,275.5698187351227,275.58481550216675,275.73264598846436,275.73264598846436,275.73264598846436,275.73264598846436,275.73264598846436,275.73264598846436,275.73264598846436,276.8336515426636,2,1.2415759563446045,None,,,,,,,,,,,,,,,,,,170,4,2025-03-03_11h02.46.709,comp,2024.2.4,56.555285729117934,2025-03-03 11h02.57.663837 -0500,
120,120,0,critical,hdw,20.0,2.1,upper,200.0,125.0,141.0,141.0,125.0,200.0,3,1.5017871856689453,None,,,,,0,0,0,0,0,120,120,23,276.85201120376587,,,,,,,,,,,,,,,,,,,,,,,,,,,,,,,,,,,,,,,,,,,,,,,,,,,,,,,,,,,,,,,,,,,,,,,,,,,,,,,,,200.0,125.0,141.0,141.0,125.0,200.0,2.1,2.11,-229,262,0,254,266,-250,276.83521580696106,276.8352928161621,276.83889293670654,276.85201120376587,277.00008940696716,277.00008940696716,277.00008940696716,277.00008940696716,277.00008940696716,277.00008940696716,277.00008940696716,278.3669927120209,3,1.5017871856689453,None,,,,,,,,,,,,,,,,,,170,4,2025-03-03_11h02.46.709,comp,2024.2.4,56.555285729117934,2025-03-03 11h02.57.663837 -0500,
121,121,0,critical,dhw,20.0,3.0,lower,78.0,78.0,133.0,57.0,57.0,133.0,2,1.5870060920715332,None,,,,,0,0,0,0,0,121,121,56,278.3829302787781,,,,,,,,,,,,,,,,,,,,,,,,,,,,,,,,,,,,,,,,,,,,,,,,,,,,,,,,,,,,,,,,,,,,,,,,,,,,,,,,,78.0,78.0,133.0,57.0,57.0,133.0,3.0,3.2,-164,-262,0,14,191,278,278.36842107772827,278.36849641799927,278.372611284256,278.3829302787781,278.5352303981781,278.5352303981781,278.5352303981781,278.5352303981781,278.5352303981781,278.5352303981781,278.5352303981781,279.9746136665344,2,1.5870060920715332,None,,,,,,,,,,,,,,,,,,170,4,2025-03-03_11h02.46.709,comp,2024.2.4,56.555285729117934,2025-03-03 11h02.57.663837 -0500,
122,122,0,critical,whd,35.0,4.0,upper,125.0,200.0,200.0,125.0,127.0,127.0,3,1.6041021347045898,None,,,,,0,0,0,0,0,122,122,89,279.98966932296753,,,,,,,,,,,,,,,,,,,,,,,,,,,,,,,,,,,,,,,,,,,,,,,,,,,,,,,,,,,,,,,,,,,,,,,,,,,,,,,,,125.0,200.0,200.0,125.0,127.0,127.0,4.0,4.2,-258,15,0,-261,222,-8,279.9761052131653,279.9761815071106,279.979097366333,279.98966932296753,280.13329696655273,280.13329696655273,280.13329696655273,280.13329696655273,280.13329696655273,280.13329696655273,280.13329696655273,281.60516119003296,3,1.6041021347045898,None,,,,,,,,,,,,,,,,,,170,4,2025-03-03_11h02.46.709,comp,2024.2.4,56.555285729117934,2025-03-03 11h02.57.663837 -0500,
123,123,0,critical,hdw,35.0,2.1,lower,133.0,57.0,70.0,70.0,57.0,133.0,2,1.1286981105804443,None,,,,,0,0,0,0,0,123,123,20,281.6252501010895,,,,,,,,,,,,,,,,,,,,,,,,,,,,,,,,,,,,,,,,,,,,,,,,,,,,,,,,,,,,,,,,,,,,,,,,,,,,,,,,,133.0,57.0,70.0,70.0,57.0,133.0,2.1,2.12,-160,-259,0,-272,198,266,281.6067545413971,281.6068308353424,281.6097981929779,281.6252501010895,281.7728543281555,281.7728543281555,281.7728543281555,281.7728543281555,281.7728543281555,281.7728543281555,281.7728543281555,282.75780725479126,2,1.1286981105804443,None,,,,,,,,,,,,,,,,,,170,4,2025-03-03_11h02.46.709,comp,2024.2.4,56.555285729117934,2025-03-03 11h02.57.663837 -0500,
124,124,0,catch,None,None,None,None,None,None,None,None,None,None,1,2.4078917503356934,None,,,,,0,0,0,0,0,124,124,127,282.7778944969177,,,,,,,,,,,,,,,,,,,,,,,,,,,,,,,,,,,,,,,,,,,,,,,,,,,,,,,,,,,,,,,,,,,,,,,,,,,,,,,,,193,132,109,81,116,74,4.0,4.1,-202,-276,0,-10,174,-281,282.7596971988678,282.75977420806885,282.7627511024475,282.7778944969177,282.9187536239624,282.9187536239624,282.9187536239624,282.9187536239624,282.9187536239624,282.9187536239624,282.9187536239624,285.202445268631,1,2.4078917503356934,None,,,,,,,,,,,,,,,,,,170,4,2025-03-03_11h02.46.709,comp,2024.2.4,56.555285729117934,2025-03-03 11h02.57.663837 -0500,
125,125,0,critical,hdw,20.0,2.1,lower,133.0,57.0,78.0,78.0,57.0,133.0,3,2.0953664779663086,None,,,,,0,0,0,0,0,125,125,22,285.21916675567627,,,,,,,,,,,,,,,,,,,,,,,,,,,,,,,,,,,,,,,,,,,,,,,,,,,,,,,,,,,,,,,,,,,,,,,,,,,,,,,,,133.0,57.0,78.0,78.0,57.0,133.0,2.1,2.12,-164,-257,0,-285,202,257,285.20405411720276,285.2041311264038,285.2079801559448,285.21916675567627,285.37453985214233,285.37453985214233,285.37453985214233,285.37453985214233,285.37453985214233,285.37453985214233,285.37453985214233,287.31965589523315,3,2.0953664779663086,None,,,,,,,,,,,,,,,,,,170,4,2025-03-03_11h02.46.709,comp,2024.2.4,56.555285729117934,2025-03-03 11h02.57.663837 -0500,
126,126,0,catch,None,None,None,None,None,None,None,None,None,None,1,0.9134006500244141,None,,,,,0,0,0,0,0,126,126,128,287.33662009239197,,,,,,,,,,,,,,,,,,,,,,,,,,,,,,,,,,,,,,,,,,,,,,,,,,,,,,,,,,,,,,,,,,,,,,,,,,,,,,,,,192,133,102,88,120,70,2.1,2.11,-206,251,0,276,175,-256,287.3216962814331,287.3217742443085,287.3251485824585,287.33662009239197,287.48307180404663,287.48307180404663,287.48307180404663,287.48307180404663,287.48307180404663,287.48307180404663,287.48307180404663,288.2522587776184,1,0.9134006500244141,None,,,,,,,,,,,,,,,,,,170,4,2025-03-03_11h02.46.709,comp,2024.2.4,56.555285729117934,2025-03-03 11h02.57.663837 -0500,
127,127,0,critical,hwd,35.0,3.0,lower,133.0,57.0,57.0,133.0,70.0,70.0,1,1.8172938823699951,None,,,,,0,0,0,0,0,127,127,98,288.27245259284973,,,,,,,,,,,,,,,,,,,,,,,,,,,,,,,,,,,,,,,,,,,,,,,,,,,,,,,,,,,,,,,,,,,,,,,,,,,,,,,,,133.0,57.0,57.0,133.0,70.0,70.0,3.0,3.1,-191,276,0,10,198,-278,288.25380539894104,288.2538814544678,288.2570917606354,288.27245259284973,288.41998410224915,288.41998410224915,288.41998410224915,288.41998410224915,288.41998410224915,288.41998410224915,288.41998410224915,290.10594487190247,1,1.8172938823699951,None,,,,,,,,,,,,,,,,,,170,4,2025-03-03_11h02.46.709,comp,2024.2.4,56.555285729117934,2025-03-03 11h02.57.663837 -0500,
128,128,0,filler_random,None,None,None,None,None,None,None,None,None,None,2,1.1999542713165283,None,,,,,0,0,0,0,0,128,128,155,290.1220135688782,,,,,,,,,,,,,,,,,,,,,,,,,,,,,,,,,,,,,,,,,,,,,,,,,,,,,,,,,,,,,,,,,,,,,,,,,,,,,,,,,104.96882643406141,72.07091148595906,183.91965688075095,169.5294477037188,76.16745101960026,64.6340141431479,4.0,4.2,-217,2,0,-262,213,19,290.10783076286316,290.10790944099426,290.1116940975189,290.1220135688782,290.27064990997314,290.27064990997314,290.27064990997314,290.27064990997314,290.27064990997314,290.27064990997314,290.27064990997314,291.3401825428009,2,1.1999542713165283,None,,,,,,,,,,,,,,,,,,170,4,2025-03-03_11h02.46.709,comp,2024.2.4,56.555285729117934,2025-03-03 11h02.57.663837 -0500,
129,129,0,filler_random,None,None,None,None,None,None,None,None,None,None,1,1.9810678958892822,None,,,,,0,0,0,0,0,129,129,144,291.35663533210754,,,,,,,,,,,,,,,,,,,,,,,,,,,,,,,,,,,,,,,,,,,,,,,,,,,,,,,,,,,,,,,,,,,,,,,,,,,,,,,,,147.3232803845994,133.60597383321243,64.49928892121243,136.87313240510366,101.32598341132399,131.2715036103965,3.0,3.1,-231,278,0,-18,230,-251,291.34226846694946,291.34239768981934,291.3454418182373,291.35663533210754,291.5042197704315,291.5042197704315,291.5042197704315,291.5042197704315,291.5042197704315,291.5042197704315,291.5042197704315,293.34002709388733,1,1.9810678958892822,None,,,,,,,,,,,,,,,,,,170,4,2025-03-03_11h02.46.709,comp,2024.2.4,56.555285729117934,2025-03-03 11h02.57.663837 -0500,
130,130,0,critical,dhw,20.0,1.0,upper,141.0,141.0,200.0,125.0,125.0,200.0,2,2.2053024768829346,None,,,,,0,0,0,0,0,130,130,55,293.35644721984863,,,,,,,,,,,,,,,,,,,,,,,,,,,,,,,,,,,,,,,,,,,,,,,,,,,,,,,,,,,,,,,,,,,,,,,,,,,,,,,,,141.0,141.0,200.0,125.0,125.0,200.0,1.0,1.3,251,-268,480,-263,738,-259,293.34168791770935,293.34176683425903,293.3456470966339,293.35644721984863,293.50346064567566,293.50346064567566,293.50346064567566,293.50346064567566,293.50346064567566,293.50346064567566,293.50346064567566,295.5731179714203,2,2.2053024768829346,None,,,,,,,,,,,,,,,,,,170,4,2025-03-03_11h02.46.709,comp,2024.2.4,56.555285729117934,2025-03-03 11h02.57.663837 -0500,
131,131,0,catch,None,None,None,None,None,None,None,None,None,None,1,0.9694969654083252,None,,,,,0,0,0,0,0,131,131,124,295.5922508239746,,,,,,,,,,,,,,,,,,,,,,,,,,,,,,,,,,,,,,,,,,,,,,,,,,,,,,,,,,,,,,,,,,,,,,,,,,,,,,,,,138,187,69,121,63,127,2.1,2.12,-250,-271,0,-257,220,264,295.5753116607666,295.5754313468933,295.57909059524536,295.5922508239746,295.7434380054474,295.7434380054474,295.7434380054474,295.7434380054474,295.7434380054474,295.7434380054474,295.7434380054474,296.5721471309662,1,0.9694969654083252,None,,,,,,,,,,,,,,,,,,170,4,2025-03-03_11h02.46.709,comp,2024.2.4,56.555285729117934,2025-03-03 11h02.57.663837 -0500,
132,132,0,critical,wdh,20.0,4.0,upper,125.0,200.0,141.0,141.0,200.0,125.0,3,2.8208601474761963,None,,,,,0,0,0,0,0,132,132,83,296.5891761779785,,,,,,,,,,,,,,,,,,,,,,,,,,,,,,,,,,,,,,,,,,,,,,,,,,,,,,,,,,,,,,,,,,,,,,,,,,,,,,,,,125.0,200.0,141.0,141.0,200.0,125.0,4.0,4.1,-266,-278,0,0,229,-270,296.5737919807434,296.5738663673401,296.5775833129883,296.5891761779785,296.73778891563416,296.73778891563416,296.73778891563416,296.73778891563416,296.73778891563416,296.73778891563416,296.73778891563416,299.41248083114624,3,2.8208601474761963,None,,,,,,,,,,,,,,,,,,170,4,2025-03-03_11h02.46.709,comp,2024.2.4,56.555285729117934,2025-03-03 11h02.57.663837 -0500,
133,133,0,filler_random,None,None,None,None,None,None,None,None,None,None,1,1.0995404720306396,None,,,,,0,0,0,0,0,133,133,165,299.43072271347046,,,,,,,,,,,,,,,,,,,,,,,,,,,,,,,,,,,,,,,,,,,,,,,,,,,,,,,,,,,,,,,,,,,,,,,,,,,,,,,,,103.18882110824435,154.06513336723089,139.78791633093036,74.87811137416833,58.132433235572215,107.76737286475091,1.0,1.1,-690,262,-480,271,-293,277,299.41418528556824,299.4142622947693,299.4172058105469,299.43072271347046,299.5741333961487,299.5741333961487,299.5741333961487,299.5741333961487,299.5741333961487,299.5741333961487,299.5741333961487,300.54136991500854,1,1.0995404720306396,None,,,,,,,,,,,,,,,,,,170,4,2025-03-03_11h02.46.709,comp,2024.2.4,56.555285729117934,2025-03-03 11h02.57.663837 -0500,
134,134,0,critical,dhw,35.0,1.0,lower,70.0,70.0,133.0,57.0,57.0,133.0,3,1.2369840145111084,None,,,,,0,0,0,0,0,134,134,48,300.556843996048,,,,,,,,,,,,,,,,,,,,,,,,,,,,,,,,,,,,,,,,,,,,,,,,,,,,,,,,,,,,,,,,,,,,,,,,,,,,,,,,,70.0,70.0,133.0,57.0,57.0,133.0,1.0,1.1,-640,266,-480,270,-289,269,300.54287028312683,300.5429468154907,300.5463101863861,300.556843996048,300.70660042762756,300.70660042762756,300.70660042762756,300.70660042762756,300.70660042762756,300.70660042762756,300.70660042762756,301.8072338104248,3,1.2369840145111084,None,,,,,,,,,,,,,,,,,,170,4,2025-03-03_11h02.46.709,comp,2024.2.4,56.555285729117934,2025-03-03 11h02.57.663837 -0500,
135,135,0,critical,wdh,20.0,2.1,lower,57.0,133.0,78.0,78.0,133.0,57.0,3,1.3701591491699219,None,,,,,0,0,0,0,0,135,135,10,301.8236172199249,,,,,,,,,,,,,,,,,,,,,,,,,,,,,,,,,,,,,,,,,,,,,,,,,,,,,,,,,,,,,,,,,,,,,,,,,,,,,,,,,57.0,133.0,78.0,78.0,133.0,57.0,2.1,2.11,-202,289,0,275,164,-279,301.8088791370392,301.8089528083801,301.81241106987,301.8236172199249,301.972594499588,301.972594499588,301.972594499588,301.972594499588,301.972594499588,301.972594499588,301.972594499588,303.20785093307495,3,1.3701591491699219,None,,,,,,,,,,,,,,,,,,170,4,2025-03-03_11h02.46.709,comp,2024.2.4,56.555285729117934,2025-03-03 11h02.57.663837 -0500,
136,136,0,critical,wdh,20.0,3.0,lower,57.0,133.0,78.0,78.0,133.0,57.0,3,0.9466133117675781,None,,,,,0,0,0,0,0,136,136,80,303.2237033843994,,,,,,,,,,,,,,,,,,,,,,,,,,,,,,,,,,,,,,,,,,,,,,,,,,,,,,,,,,,,,,,,,,,,,,,,,,,,,,,,,57.0,133.0,78.0,78.0,133.0,57.0,3.0,3.1,-202,261,0,-3,164,-260,303.2093644142151,303.2094404697418,303.2134702205658,303.2237033843994,303.3720893859863,303.3720893859863,303.3720893859863,303.3720893859863,303.3720893859863,303.3720893859863,303.3720893859863,304.18137669563293,3,0.9466133117675781,None,,,,,,,,,,,,,,,,,,170,4,2025-03-03_11h02.46.709,comp,2024.2.4,56.555285729117934,2025-03-03 11h02.57.663837 -0500,
137,137,0,critical,whd,35.0,2.1,upper,125.0,200.0,200.0,125.0,127.0,127.0,2,1.105128288269043,None,,,,,0,0,0,0,0,137,137,37,304.2008261680603,,,,,,,,,,,,,,,,,,,,,,,,,,,,,,,,,,,,,,,,,,,,,,,,,,,,,,,,,,,,,,,,,,,,,,,,,,,,,,,,,125.0,200.0,200.0,125.0,127.0,127.0,2.1,2.11,-258,262,0,266,222,-265,304.1828889846802,304.18296480178833,304.1858904361725,304.2008261680603,304.34201216697693,304.34201216697693,304.34201216697693,304.34201216697693,304.34201216697693,304.34201216697693,304.34201216697693,305.3241171836853,2,1.105128288269043,None,,,,,,,,,,,,,,,,,,170,4,2025-03-03_11h02.46.709,comp,2024.2.4,56.555285729117934,2025-03-03 11h02.57.663837 -0500,
138,138,0,critical,hdw,20.0,4.0,lower,133.0,57.0,78.0,78.0,57.0,133.0,3,1.4057672023773193,None,,,,,0,0,0,0,0,138,138,118,305.34000182151794,,,,,,,,,,,,,,,,,,,,,,,,,,,,,,,,,,,,,,,,,,,,,,,,,,,,,,,,,,,,,,,,,,,,,,,,,,,,,,,,,133.0,57.0,78.0,78.0,57.0,133.0,4.0,4.2,-164,6,0,-258,202,8,305.3255977630615,305.32567167282104,305.3289043903351,305.34000182151794,305.49199652671814,305.49199652671814,305.49199652671814,305.49199652671814,305.49199652671814,305.49199652671814,305.49199652671814,306.75542187690735,3,1.4057672023773193,None,,,,,,,,,,,,,,,,,,170,4,2025-03-03_11h02.46.709,comp,2024.2.4,56.555285729117934,2025-03-03 11h02.57.663837 -0500,
