thisN,thisTrialN,thisRepN,effect,order,distance,config,diag,h_1,w_1,h_2,w_2,h_3,w_3,rect_choice.keys,rect_choice.rt,rect_choice.duration,instructions_loop.thisRepN,instructions_loop.thisTrialN,instructions_loop.thisN,instructions_loop.thisIndex,blocks.thisRepN,blocks.thisTrialN,blocks.thisN,blocks.thisIndex,trials.thisRepN,trials.thisTrialN,trials.thisN,trials.thisIndex,thisRow.t,notes,consent.started,agree_button.started,decline_button.started,consent_img.started,mouse.started,consent.stopped,agree_button.numClicks,agree_button.timesOn,agree_button.timesOff,decline_button.numClicks,decline_button.timesOn,decline_button.timesOff,mouse.x,mouse.y,mouse.leftButton,mouse.midButton,mouse.rightButton,mouse.time,mouse.clicked_name,exp_params.started,exp_params.stopped,welcome.started,welcome_text.started,welcome.stopped,instructions_1.started,instructions_1_text_1.started,instructions_1_text_2.started,key_resp.started,instructions_1.stopped,instructions_loop.key_resp.keys,instructions_loop.key_resp.rt,instructions_loop.key_resp.duration,instructions_2.started,instructions_2_text_1.started,instructions_2_text_2.started,key_resp_2.started,instructions_2.stopped,instructions_loop.key_resp_2.keys,instructions_loop.key_resp_2.rt,instructions_loop.key_resp_2.duration,instructions_3.started,instructions_3_text_1.started,r1_instr3.started,r2_instr3.started,r3_instr3.started,r1_instr3_label.started,r2_instr3_label.started,r3_instr3_label.started,instructions_3_text_3.started,instructions_3_text_4.started,key_resp_3.started,instructions_3.stopped,instructions_loop.key_resp_3.keys,instructions_loop.key_resp_3.rt,instructions_loop.key_resp_3.duration,instructions_4.started,instructions_4_text_1.started,instructions_4_text_3.started,instructions_4_text_2.started,key_resp_4.started,instructions_4.stopped,instructions_loop.key_resp_4.keys,instructions_loop.key_resp_4.rt,instructions_loop.key_resp_4.duration,instructions_5.started,instructions_5_text_1.started,instructions_5_text_2.started,key_resp_5.started,instructions_5.stopped,instructions_loop.key_resp_5.keys,instructions_loop.key_resp_5.rt,instructions_loop.key_resp_5.duration,start_exp.started,start_exp_text.started,key_resp_6.started,start_exp.stopped,key_resp_6.keys,key_resp_6.rt,key_resp_6.duration,h_1_tmp,w_1_tmp,h_2_tmp,w_2_tmp,h_3_tmp,w_3_tmp,config_tmp,config_tmp_1,r_1_x,r_1_y,r_2_x,r_2_y,r_3_x,r_3_y,pre_trial.started,pre_trial.stopped,choice_trial.started,rect_choice.started,r_1.started,r_2.started,r_3.started,r_1_label.started,r_2_label.started,r_3_label.started,prompt.started,choice_trial.stopped,trials.rect_choice.keys,trials.rect_choice.rt,trials.rect_choice.duration,end_block.started,end_block_text.started,end_block.stopped,end.started,end_text.started,key_resp_7.started,end.stopped,key_resp_7.keys,key_resp_7.rt,key_resp_7.duration,debriefing.started,debrief_form.started,end_debrief.started,debriefing.stopped,end_debrief.keys,end_debrief.rt,end_debrief.duration,participant,computer,date,expName,psychopyVersion,frameRate,expStart,
,,,,,,,,,,,,,,,,,,,,,,,,,,,,,,,0.02047133445739746,0.035205841064453125,0.035205841064453125,0.035205841064453125,0.020231008529663086,67.4519362449646,1,[67.41438937187195],[67.41441464424133],0,,,[-75.0],[-502.0],[1],[0],[0],[67.43090438842773],['agree_button'],,,,,,,,,,,,,,,,,,,,,,,,,,,,,,,,,,,,,,,,,,,,,,,,,,,,,,,,,,,,,,,,,,,,,,,,,,,,,,,,,,,,,,,,,,,,,,,,,,,,,,,,,,,171,1,2025-03-03_11h04.07.395,comp,2024.2.4,57.40824790243769,2025-03-03 11h04.16.559704 -0500,
,,,,,,,,,,,,,,,,,,,,,,,,,,,,,,,,,,,,,,,,,,,,,,,,,,67.45247960090637,67.45254755020142,,,,,,,,,,,,,,,,,,,,,,,,,,,,,,,,,,,,,,,,,,,,,,,,,,,,,,,,,,,,,,,,,,,,,,,,,,,,,,,,,,,,,,,,,,,,,,,,,,,,,,,,,171,1,2025-03-03_11h04.07.395,comp,2024.2.4,57.40824790243769,2025-03-03 11h04.16.559704 -0500,
,,,,,,,,,,,,,,,,,,,,,,,,,,,,,,,,,,,,,,,,,,,,,,,,,,,,67.45259237289429,67.47040367126465,69.46276712417603,,,,,,,,,,,,,,,,,,,,,,,,,,,,,,,,,,,,,,,,,,,,,,,,,,,,,,,,,,,,,,,,,,,,,,,,,,,,,,,,,,,,,,,,,,,,,,,,,,,,,,171,1,2025-03-03_11h04.07.395,comp,2024.2.4,57.40824790243769,2025-03-03 11h04.16.559704 -0500,
0,0,0,,,,,,,,,,,,,,,0,0,0,0,,,,,,,,,69.47895646095276,,,,,,,,,,,,,,,,,,,,,,,,,,69.46367383003235,69.47895646095276,69.47895646095276,70.96113014221191,79.53143906593323,space,8.553701400756836,None,79.53159213066101,79.54655838012695,79.54655838012695,81.03078174591064,97.85422682762146,space,16.820510387420654,None,97.8543770313263,97.88859963417053,97.88859963417053,97.88859963417053,97.88859963417053,97.88859963417053,97.88859963417053,97.88859963417053,97.88859963417053,97.88859963417053,99.36858344078064,102.90336346626282,space,3.530716896057129,None,102.90353322029114,102.92071461677551,102.92071461677551,102.92071461677551,104.40467381477356,110.88844537734985,space,6.470276832580566,None,110.88859748840332,110.90488600730896,110.90488600730896,112.39074540138245,113.02199506759644,space,0.6201174259185791,None,113.02222895622253,113.03950381278992,113.03950381278992,116.25973320007324,space,3.21230149269104,None,,,,,,,,,,,,,,,,,,,,,,,,,,,,,,,,,,,,,,,,,,,,,,,171,1,2025-03-03_11h04.07.395,comp,2024.2.4,57.40824790243769,2025-03-03 11h04.16.559704 -0500,
0,0,0,critical,hdw,20.0,4.0,upper,200.0,125.0,141.0,141.0,125.0,200.0,3,5.575114965438843,None,,,,,0,0,0,0,0,0,0,119,116.34045696258545,,,,,,,,,,,,,,,,,,,,,,,,,,,,,,,,,,,,,,,,,,,,,,,,,,,,,,,,,,,,,,,,,,,,,,,,,,,,,,,,,200.0,125.0,141.0,141.0,125.0,200.0,4.0,4.2,-229,9,0,-279,266,6,116.32321095466614,116.32326030731201,116.32521343231201,116.34045696258545,116.48531818389893,116.48531818389893,116.48531818389893,116.48531818389893,116.48531818389893,116.48531818389893,116.48531818389893,121.93026041984558,3,5.575114965438843,None,,,,,,,,,,,,,,,,,,171,1,2025-03-03_11h04.07.395,comp,2024.2.4,57.40824790243769,2025-03-03 11h04.16.559704 -0500,
1,1,0,filler_random,None,None,None,None,None,None,None,None,None,None,2,1.8980755805969238,None,,,,,0,0,0,0,0,1,1,150,121.94556713104248,,,,,,,,,,,,,,,,,,,,,,,,,,,,,,,,,,,,,,,,,,,,,,,,,,,,,,,,,,,,,,,,,,,,,,,,,,,,,,,,,137.70294755321655,99.67008585678535,110.32325569819132,184.31116600003259,96.84173736117278,115.28066895950408,3.0,3.1,-238,285,0,3,246,-279,121.9320776462555,121.93218064308167,121.93500089645386,121.94556713104248,122.09865140914917,122.09865140914917,122.09865140914917,122.09865140914917,122.09865140914917,122.09865140914917,122.09865140914917,123.85178184509277,2,1.8980755805969238,None,,,,,,,,,,,,,,,,,,171,1,2025-03-03_11h04.07.395,comp,2024.2.4,57.40824790243769,2025-03-03 11h04.16.559704 -0500,
2,2,0,critical,hwd,20.0,3.0,lower,133.0,57.0,57.0,133.0,78.0,78.0,2,9.230291604995728,None,,,,,0,0,0,0,0,2,2,104,123.86935043334961,,,,,,,,,,,,,,,,,,,,,,,,,,,,,,,,,,,,,,,,,,,,,,,,,,,,,,,,,,,,,,,,,,,,,,,,,,,,,,,,,133.0,57.0,57.0,133.0,78.0,78.0,3.0,3.1,-191,272,0,14,202,-260,123.85329127311707,123.85337018966675,123.85618042945862,123.86935043334961,124.01211094856262,124.01211094856262,124.01211094856262,124.01211094856262,124.01211094856262,124.01211094856262,124.01211094856262,133.10324954986572,2,9.230291604995728,None,,,,,,,,,,,,,,,,,,171,1,2025-03-03_11h04.07.395,comp,2024.2.4,57.40824790243769,2025-03-03 11h04.16.559704 -0500,
3,3,0,filler_random,None,None,None,None,None,None,None,None,None,None,1,2.739912986755371,None,,,,,0,0,0,0,0,3,3,137,133.11954545974731,,,,,,,,,,,,,,,,,,,,,,,,,,,,,,,,,,,,,,,,,,,,,,,,,,,,,,,,,,,,,,,,,,,,,,,,,,,,,,,,,157.87840638959597,148.9512488177818,189.8945939270306,123.77738049025946,61.51373815691957,62.22846958666776,3.0,3.2,-232,-282,0,4,189,258,133.10512971878052,133.10529470443726,133.10875701904297,133.11954545974731,133.2682740688324,133.2682740688324,133.2682740688324,133.2682740688324,133.2682740688324,133.2682740688324,133.2682740688324,135.8649480342865,1,2.739912986755371,None,,,,,,,,,,,,,,,,,,171,1,2025-03-03_11h04.07.395,comp,2024.2.4,57.40824790243769,2025-03-03 11h04.16.559704 -0500,
4,4,0,filler_square,None,None,None,None,None,None,None,None,None,None,3,1.2293403148651123,None,,,,,0,0,0,0,0,4,4,174,135.8856794834137,,,,,,,,,,,,,,,,,,,,,,,,,,,,,,,,,,,,,,,,,,,,,,,,,,,,,,,,,,,,,,,,,,,,,,,,,,,,,,,,,129.07302202925842,102.4274484816001,121.08962762764413,82.496364663481,135.4715398119022,135.4715398119022,2.2,2.21,-188,-250,0,256,205,289,135.86677527427673,135.86685466766357,135.86993622779846,135.8856794834137,136.0322334766388,136.0322334766388,136.0322334766388,136.0322334766388,136.0322334766388,136.0322334766388,136.0322334766388,137.12983632087708,3,1.2293403148651123,None,,,,,,,,,,,,,,,,,,171,1,2025-03-03_11h04.07.395,comp,2024.2.4,57.40824790243769,2025-03-03 11h04.16.559704 -0500,
5,5,0,filler_square,None,None,None,None,None,None,None,None,None,None,2,1.153895616531372,None,,,,,0,0,0,0,0,5,5,191,137.14581060409546,,,,,,,,,,,,,,,,,,,,,,,,,,,,,,,,,,,,,,,,,,,,,,,,,,,,,,,,,,,,,,,,,,,,,,,,,,,,,,,,,112.16297149589299,144.31671027582786,185.3187611604124,185.3187611604124,83.23731773305286,101.74137214099324,1.0,1.3,219,-254,480,-276,720,-270,137.13166403770447,137.13174033164978,137.13458681106567,137.14581060409546,137.28784918785095,137.28784918785095,137.28784918785095,137.28784918785095,137.28784918785095,137.28784918785095,137.28784918785095,138.3078019618988,2,1.153895616531372,None,,,,,,,,,,,,,,,,,,171,1,2025-03-03_11h04.07.395,comp,2024.2.4,57.40824790243769,2025-03-03 11h04.16.559704 -0500,
6,6,0,critical,whd,35.0,1.0,upper,125.0,200.0,200.0,125.0,127.0,127.0,1,4.322033882141113,None,,,,,0,0,0,0,0,6,6,85,138.3231704235077,,,,,,,,,,,,,,,,,,,,,,,,,,,,,,,,,,,,,,,,,,,,,,,,,,,,,,,,,,,,,,,,,,,,,,,,,,,,,,,,,125.0,200.0,200.0,125.0,127.0,127.0,1.0,1.3,222,-271,480,-285,702,-253,138.30939960479736,138.30947923660278,138.31234979629517,138.3231704235077,138.46705889701843,138.46705889701843,138.46705889701843,138.46705889701843,138.46705889701843,138.46705889701843,138.46705889701843,142.65005469322205,1,4.322033882141113,None,,,,,,,,,,,,,,,,,,171,1,2025-03-03_11h04.07.395,comp,2024.2.4,57.40824790243769,2025-03-03 11h04.16.559704 -0500,
7,7,0,filler_square,None,None,None,None,None,None,None,None,None,None,3,1.4724960327148438,None,,,,,0,0,0,0,0,7,7,172,142.6666386127472,,,,,,,,,,,,,,,,,,,,,,,,,,,,,,,,,,,,,,,,,,,,,,,,,,,,,,,,,,,,,,,,,,,,,,,,,,,,,,,,,112.8012318145961,145.04925562249863,72.040114532378,152.4427209452906,168.0603121839608,168.0603121839608,2.1,2.12,-245,-269,0,-284,256,280,142.65173292160034,142.65180826187134,142.6547884941101,142.6666386127472,142.81947326660156,142.81947326660156,142.81947326660156,142.81947326660156,142.81947326660156,142.81947326660156,142.81947326660156,144.14985346794128,3,1.4724960327148438,None,,,,,,,,,,,,,,,,,,171,1,2025-03-03_11h04.07.395,comp,2024.2.4,57.40824790243769,2025-03-03 11h04.16.559704 -0500,
8,8,0,critical,wdh,20.0,2.1,upper,125.0,200.0,141.0,141.0,200.0,125.0,1,8.693166732788086,None,,,,,0,0,0,0,0,8,8,11,144.16771006584167,,,,,,,,,,,,,,,,,,,,,,,,,,,,,,,,,,,,,,,,,,,,,,,,,,,,,,,,,,,,,,,,,,,,,,,,,,,,,,,,,125.0,200.0,141.0,141.0,200.0,125.0,2.1,2.11,-266,279,0,268,229,-277,144.1514036655426,144.1514813899994,144.15439820289612,144.16771006584167,144.31723833084106,144.31723833084106,144.31723833084106,144.31723833084106,144.31723833084106,144.31723833084106,144.31723833084106,152.8716320991516,1,8.693166732788086,None,,,,,,,,,,,,,,,,,,171,1,2025-03-03_11h04.07.395,comp,2024.2.4,57.40824790243769,2025-03-03 11h04.16.559704 -0500,
9,9,0,critical,dhw,20.0,4.0,upper,141.0,141.0,200.0,125.0,125.0,200.0,3,1.9872541427612305,None,,,,,0,0,0,0,0,9,9,59,152.88793563842773,,,,,,,,,,,,,,,,,,,,,,,,,,,,,,,,,,,,,,,,,,,,,,,,,,,,,,,,,,,,,,,,,,,,,,,,,,,,,,,,,141.0,141.0,200.0,125.0,125.0,200.0,4.0,4.2,-229,10,0,-282,258,12,152.87315392494202,152.87323474884033,152.87708520889282,152.88793563842773,153.03636479377747,153.03636479377747,153.03636479377747,153.03636479377747,153.03636479377747,153.03636479377747,153.03636479377747,154.89041113853455,3,1.9872541427612305,None,,,,,,,,,,,,,,,,,,171,1,2025-03-03_11h04.07.395,comp,2024.2.4,57.40824790243769,2025-03-03 11h04.16.559704 -0500,
10,10,0,filler_random,None,None,None,None,None,None,None,None,None,None,3,2.489264726638794,None,,,,,0,0,0,0,0,10,10,141,154.90584683418274,,,,,,,,,,,,,,,,,,,,,,,,,,,,,,,,,,,,,,,,,,,,,,,,,,,,,,,,,,,,,,,,,,,,,,,,,,,,,,,,,60.78897925901472,165.76779599252797,132.8772258382847,61.462776779229834,125.89844744208403,146.7214472230906,2.1,2.12,-210,-274,0,-272,200,254,154.89233660697937,154.89241456985474,154.89561080932617,154.90584683418274,155.0547981262207,155.0547981262207,155.0547981262207,155.0547981262207,155.0547981262207,155.0547981262207,155.0547981262207,157.40481162071228,3,2.489264726638794,None,,,,,,,,,,,,,,,,,,171,1,2025-03-03_11h04.07.395,comp,2024.2.4,57.40824790243769,2025-03-03 11h04.16.559704 -0500,
11,11,0,filler_square,None,None,None,None,None,None,None,None,None,None,3,1.051724910736084,None,,,,,0,0,0,0,0,11,11,182,157.42378044128418,,,,,,,,,,,,,,,,,,,,,,,,,,,,,,,,,,,,,,,,,,,,,,,,,,,,,,,,,,,,,,,,,,,,,,,,,,,,,,,,,105.13086210718473,188.70826320232482,81.61649480899129,160.42370904583314,192.94386118980654,192.94386118980654,1.0,1.2,-271,1,0,7,273,19,157.40680694580078,157.406884431839,157.41019916534424,157.42378044128418,157.5737497806549,157.5737497806549,157.5737497806549,157.5737497806549,157.5737497806549,157.5737497806549,157.5737497806549,158.4934492111206,3,1.051724910736084,None,,,,,,,,,,,,,,,,,,171,1,2025-03-03_11h04.07.395,comp,2024.2.4,57.40824790243769,2025-03-03 11h04.16.559704 -0500,
12,12,0,critical,dwh,20.0,2.1,lower,78.0,78.0,57.0,133.0,133.0,57.0,2,5.454023361206055,None,,,,,0,0,0,0,0,12,12,6,158.50898909568787,,,,,,,,,,,,,,,,,,,,,,,,,,,,,,,,,,,,,,,,,,,,,,,,,,,,,,,,,,,,,,,,,,,,,,,,,,,,,,,,,78.0,78.0,57.0,133.0,133.0,57.0,2.1,2.12,-202,-253,0,-282,191,283,158.49520444869995,158.49535846710205,158.49863600730896,158.50898909568787,158.65559029579163,158.65559029579163,158.65559029579163,158.65559029579163,158.65559029579163,158.65559029579163,158.65559029579163,163.97563195228577,2,5.454023361206055,None,,,,,,,,,,,,,,,,,,171,1,2025-03-03_11h04.07.395,comp,2024.2.4,57.40824790243769,2025-03-03 11h04.16.559704 -0500,
13,13,0,filler_random,None,None,None,None,None,None,None,None,None,None,2,1.1801066398620605,None,,,,,0,0,0,0,0,13,13,133,163.99105954170227,,,,,,,,,,,,,,,,,,,,,,,,,,,,,,,,,,,,,,,,,,,,,,,,,,,,,,,,,,,,,,,,,,,,,,,,,,,,,,,,,81.85090758857436,65.3158871477849,176.41392031663594,106.65003006885595,109.60284747171214,69.05696465265109,4.0,4.2,-182,3,0,-273,184,-11,163.97733807563782,163.97741723060608,163.98079180717468,163.99105954170227,164.13930988311768,164.13930988311768,164.13930988311768,164.13930988311768,164.13930988311768,164.13930988311768,164.13930988311768,165.18262100219727,2,1.1801066398620605,None,,,,,,,,,,,,,,,,,,171,1,2025-03-03_11h04.07.395,comp,2024.2.4,57.40824790243769,2025-03-03 11h04.16.559704 -0500,
14,14,0,critical,wdh,35.0,2.1,upper,125.0,200.0,127.0,127.0,200.0,125.0,1,2.166950225830078,None,,,,,0,0,0,0,0,14,14,9,165.19849061965942,,,,,,,,,,,,,,,,,,,,,,,,,,,,,,,,,,,,,,,,,,,,,,,,,,,,,,,,,,,,,,,,,,,,,,,,,,,,,,,,,125.0,200.0,127.0,127.0,200.0,125.0,2.1,2.11,-260,251,0,253,222,-290,165.18402528762817,165.1841015815735,165.18695044517517,165.19849061965942,165.34841132164001,165.34841132164001,165.34841132164001,165.34841132164001,165.34841132164001,165.34841132164001,165.34841132164001,167.3763906955719,1,2.166950225830078,None,,,,,,,,,,,,,,,,,,171,1,2025-03-03_11h04.07.395,comp,2024.2.4,57.40824790243769,2025-03-03 11h04.16.559704 -0500,
15,15,0,critical,whd,20.0,2.1,upper,125.0,200.0,200.0,125.0,141.0,141.0,1,1.451385498046875,None,,,,,0,0,0,0,0,15,15,39,167.39177870750427,,,,,,,,,,,,,,,,,,,,,,,,,,,,,,,,,,,,,,,,,,,,,,,,,,,,,,,,,,,,,,,,,,,,,,,,,,,,,,,,,125.0,200.0,200.0,125.0,141.0,141.0,2.1,2.12,-258,-261,0,-260,229,286,167.37789177894592,167.37797164916992,167.38103127479553,167.39177870750427,167.54571557044983,167.54571557044983,167.54571557044983,167.54571557044983,167.54571557044983,167.54571557044983,167.54571557044983,168.86139726638794,1,1.451385498046875,None,,,,,,,,,,,,,,,,,,171,1,2025-03-03_11h04.07.395,comp,2024.2.4,57.40824790243769,2025-03-03 11h04.16.559704 -0500,
16,16,0,critical,hdw,35.0,2.1,lower,133.0,57.0,70.0,70.0,57.0,133.0,3,1.3886752128601074,None,,,,,0,0,0,0,0,16,16,20,168.87909293174744,,,,,,,,,,,,,,,,,,,,,,,,,,,,,,,,,,,,,,,,,,,,,,,,,,,,,,,,,,,,,,,,,,,,,,,,,,,,,,,,,133.0,57.0,70.0,70.0,57.0,133.0,2.1,2.12,-160,-251,0,-256,198,259,168.86308455467224,168.8632800579071,168.8665132522583,168.87909293174744,169.02499127388,169.02499127388,169.02499127388,169.02499127388,169.02499127388,169.02499127388,169.02499127388,170.27563881874084,3,1.3886752128601074,None,,,,,,,,,,,,,,,,,,171,1,2025-03-03_11h04.07.395,comp,2024.2.4,57.40824790243769,2025-03-03 11h04.16.559704 -0500,
17,17,0,critical,wdh,20.0,2.1,lower,57.0,133.0,78.0,78.0,133.0,57.0,1,3.287088394165039,None,,,,,0,0,0,0,0,17,17,10,170.29203486442566,,,,,,,,,,,,,,,,,,,,,,,,,,,,,,,,,,,,,,,,,,,,,,,,,,,,,,,,,,,,,,,,,,,,,,,,,,,,,,,,,57.0,133.0,78.0,78.0,133.0,57.0,2.1,2.11,-202,255,0,281,164,-277,170.27724361419678,170.27732300758362,170.28045916557312,170.29203486442566,170.44280099868774,170.44280099868774,170.44280099868774,170.44280099868774,170.44280099868774,170.44280099868774,170.44280099868774,173.5940773487091,1,3.287088394165039,None,,,,,,,,,,,,,,,,,,171,1,2025-03-03_11h04.07.395,comp,2024.2.4,57.40824790243769,2025-03-03 11h04.16.559704 -0500,
18,18,0,filler_square,None,None,None,None,None,None,None,None,None,None,2,1.0492417812347412,None,,,,,0,0,0,0,0,18,18,180,173.610018491745,,,,,,,,,,,,,,,,,,,,,,,,,,,,,,,,,,,,,,,,,,,,,,,,,,,,,,,,,,,,,,,,,,,,,,,,,,,,,,,,,72.04416982330949,70.22290017199543,82.20576473678989,82.20576473678989,81.33895278824848,59.48107893407114,2.1,2.11,-172,261,0,255,167,-271,173.5959644317627,173.59604358673096,173.5994565486908,173.610018491745,173.76103162765503,173.76103162765503,173.76103162765503,173.76103162765503,173.76103162765503,173.76103162765503,173.76103162765503,174.67720890045166,2,1.0492417812347412,None,,,,,,,,,,,,,,,,,,171,1,2025-03-03_11h04.07.395,comp,2024.2.4,57.40824790243769,2025-03-03 11h04.16.559704 -0500,
19,19,0,filler_random,None,None,None,None,None,None,None,None,None,None,2,1.0626320838928223,None,,,,,0,0,0,0,0,19,19,159,174.69327235221863,,,,,,,,,,,,,,,,,,,,,,,,,,,,,,,,,,,,,,,,,,,,,,,,,,,,,,,,,,,,,,,,,,,,,,,,,,,,,,,,,128.12269102169438,70.15068588302371,157.443220492529,189.47102710902277,95.13701593551761,146.13649983962307,4.0,4.1,-226,-267,0,-16,264,-264,174.6788787841797,174.67895317077637,174.681987285614,174.69327235221863,174.84536457061768,174.84536457061768,174.84536457061768,174.84536457061768,174.84536457061768,174.84536457061768,174.84536457061768,175.76170587539673,2,1.0626320838928223,None,,,,,,,,,,,,,,,,,,171,1,2025-03-03_11h04.07.395,comp,2024.2.4,57.40824790243769,2025-03-03 11h04.16.559704 -0500,
20,20,0,filler_random,None,None,None,None,None,None,None,None,None,None,3,8.39961552619934,None,,,,,0,0,0,0,0,20,20,143,175.77962064743042,,,,,,,,,,,,,,,,,,,,,,,,,,,,,,,,,,,,,,,,,,,,,,,,,,,,,,,,,,,,,,,,,,,,,,,,,,,,,,,,,107.84391574404538,162.62105283149737,120.75414710601223,118.42652058515569,165.64594967668114,110.50977760659916,1.0,1.3,243,-260,480,-278,690,-284,175.76342391967773,175.76350235939026,175.76654624938965,175.77962064743042,175.92786645889282,175.92786645889282,175.92786645889282,175.92786645889282,175.92786645889282,175.92786645889282,175.92786645889282,184.18252110481262,3,8.39961552619934,None,,,,,,,,,,,,,,,,,,171,1,2025-03-03_11h04.07.395,comp,2024.2.4,57.40824790243769,2025-03-03 11h04.16.559704 -0500,
21,21,0,critical,hwd,20.0,1.0,upper,200.0,125.0,125.0,200.0,141.0,141.0,2,21.570640087127686,None,,,,,0,0,0,0,0,21,21,103,184.20068669319153,,,,,,,,,,,,,,,,,,,,,,,,,,,,,,,,,,,,,,,,,,,,,,,,,,,,,,,,,,,,,,,,,,,,,,,,,,,,,,,,,200.0,125.0,125.0,200.0,141.0,141.0,1.0,1.1,-738,254,-480,286,-214,258,184.18416118621826,184.184250831604,184.18757891654968,184.20068669319153,184.3465292453766,184.3465292453766,184.3465292453766,184.3465292453766,184.3465292453766,184.3465292453766,184.3465292453766,205.7880835533142,2,21.570640087127686,None,,,,,,,,,,,,,,,,,,171,1,2025-03-03_11h04.07.395,comp,2024.2.4,57.40824790243769,2025-03-03 11h04.16.559704 -0500,
22,22,0,critical,whd,20.0,4.0,upper,125.0,200.0,200.0,125.0,141.0,141.0,1,4.799144268035889,None,,,,,0,0,0,0,0,22,22,95,205.80409455299377,,,,,,,,,,,,,,,,,,,,,,,,,,,,,,,,,,,,,,,,,,,,,,,,,,,,,,,,,,,,,,,,,,,,,,,,,,,,,,,,,125.0,200.0,200.0,125.0,141.0,141.0,4.0,4.1,-258,-285,0,-10,229,-283,205.7896659374237,205.78974199295044,205.79378867149353,205.80409455299377,205.95333218574524,205.95333218574524,205.95333218574524,205.95333218574524,205.95333218574524,205.95333218574524,205.95333218574524,210.61755466461182,1,4.799144268035889,None,,,,,,,,,,,,,,,,,,171,1,2025-03-03_11h04.07.395,comp,2024.2.4,57.40824790243769,2025-03-03 11h04.16.559704 -0500,
23,23,0,critical,dwh,20.0,3.0,upper,141.0,141.0,125.0,200.0,200.0,125.0,2,1.7857122421264648,None,,,,,0,0,0,0,0,23,23,69,210.63350558280945,,,,,,,,,,,,,,,,,,,,,,,,,,,,,,,,,,,,,,,,,,,,,,,,,,,,,,,,,,,,,,,,,,,,,,,,,,,,,,,,,141.0,141.0,125.0,200.0,200.0,125.0,3.0,3.1,-266,279,0,-8,258,-257,210.61918115615845,210.61931252479553,210.6222267150879,210.63350558280945,210.77761244773865,210.77761244773865,210.77761244773865,210.77761244773865,210.77761244773865,210.77761244773865,210.77761244773865,212.4231903553009,2,1.7857122421264648,None,,,,,,,,,,,,,,,,,,171,1,2025-03-03_11h04.07.395,comp,2024.2.4,57.40824790243769,2025-03-03 11h04.16.559704 -0500,
24,24,0,critical,hdw,35.0,1.0,lower,133.0,57.0,70.0,70.0,57.0,133.0,3,11.453354597091675,None,,,,,0,0,0,0,0,24,24,108,212.43894910812378,,,,,,,,,,,,,,,,,,,,,,,,,,,,,,,,,,,,,,,,,,,,,,,,,,,,,,,,,,,,,,,,,,,,,,,,,,,,,,,,,133.0,57.0,70.0,70.0,57.0,133.0,1.0,1.2,-160,-14,0,4,198,-4,212.4247214794159,212.42480301856995,212.42817759513855,212.43894910812378,212.5912103652954,212.5912103652954,212.5912103652954,212.5912103652954,212.5912103652954,212.5912103652954,212.5912103652954,223.89598441123962,3,11.453354597091675,None,,,,,,,,,,,,,,,,,,171,1,2025-03-03_11h04.07.395,comp,2024.2.4,57.40824790243769,2025-03-03 11h04.16.559704 -0500,
25,25,0,catch,None,None,None,None,None,None,None,None,None,None,1,1.1862871646881104,None,,,,,0,0,0,0,0,25,25,120,223.91377329826355,,,,,,,,,,,,,,,,,,,,,,,,,,,,,,,,,,,,,,,,,,,,,,,,,,,,,,,,,,,,,,,,,,,,,,,,,,,,,,,,,173,152,82,108,132,58,3.0,3.2,-226,-269,0,3,179,276,223.89823532104492,223.89831852912903,223.90212106704712,223.91377329826355,224.0592758655548,224.0592758655548,224.0592758655548,224.0592758655548,224.0592758655548,224.0592758655548,224.0592758655548,225.1108841896057,1,1.1862871646881104,None,,,,,,,,,,,,,,,,,,171,1,2025-03-03_11h04.07.395,comp,2024.2.4,57.40824790243769,2025-03-03 11h04.16.559704 -0500,
26,26,0,critical,dhw,20.0,2.1,upper,141.0,141.0,200.0,125.0,125.0,200.0,3,1.4781200885772705,None,,,,,0,0,0,0,0,26,26,27,225.12686038017273,,,,,,,,,,,,,,,,,,,,,,,,,,,,,,,,,,,,,,,,,,,,,,,,,,,,,,,,,,,,,,,,,,,,,,,,,,,,,,,,,141.0,141.0,200.0,125.0,125.0,200.0,2.1,2.11,-229,264,0,258,258,-264,225.11240363121033,225.11248111724854,225.11594533920288,225.12686038017273,225.28304505348206,225.28304505348206,225.28304505348206,225.28304505348206,225.28304505348206,225.28304505348206,225.28304505348206,226.60979914665222,3,1.4781200885772705,None,,,,,,,,,,,,,,,,,,171,1,2025-03-03_11h04.07.395,comp,2024.2.4,57.40824790243769,2025-03-03 11h04.16.559704 -0500,
27,27,0,filler_random,None,None,None,None,None,None,None,None,None,None,2,0.801403284072876,None,,,,,0,0,0,0,0,27,27,152,226.62659525871277,,,,,,,,,,,,,,,,,,,,,,,,,,,,,,,,,,,,,,,,,,,,,,,,,,,,,,,,,,,,,,,,,,,,,,,,,,,,,,,,,163.68686419232841,131.74896763140856,198.74206147282376,179.08800140881047,118.69257840707098,144.74597823256136,4.0,4.1,-251,-286,0,18,258,-274,226.6115448474884,226.6116223335266,226.6147780418396,226.62659525871277,226.77807235717773,226.77807235717773,226.77807235717773,226.77807235717773,226.77807235717773,226.77807235717773,226.77807235717773,227.43019032478333,2,0.801403284072876,None,,,,,,,,,,,,,,,,,,171,1,2025-03-03_11h04.07.395,comp,2024.2.4,57.40824790243769,2025-03-03 11h04.16.559704 -0500,
28,28,0,filler_square,None,None,None,None,None,None,None,None,None,None,1,0.835791826248169,None,,,,,0,0,0,0,0,28,28,200,227.44764733314514,,,,,,,,,,,,,,,,,,,,,,,,,,,,,,,,,,,,,,,,,,,,,,,,,,,,,,,,,,,,,,,,,,,,,,,,,,,,,,,,,154.62355413599076,154.62355413599076,77.63603214865215,133.3953061050795,79.73463145439604,129.422418386782,2.1,2.11,-240,257,0,256,227,-284,227.43235659599304,227.43243932724,227.43592929840088,227.44764733314514,227.5941231250763,227.5941231250763,227.5941231250763,227.5941231250763,227.5941231250763,227.5941231250763,227.5941231250763,228.29825377464294,1,0.835791826248169,None,,,,,,,,,,,,,,,,,,171,1,2025-03-03_11h04.07.395,comp,2024.2.4,57.40824790243769,2025-03-03 11h04.16.559704 -0500,
29,29,0,catch,None,None,None,None,None,None,None,None,None,None,2,0.764878511428833,None,,,,,0,0,0,0,0,29,29,126,228.3195858001709,,,,,,,,,,,,,,,,,,,,,,,,,,,,,,,,,,,,,,,,,,,,,,,,,,,,,,,,,,,,,,,,,,,,,,,,,,,,,,,,,88,102,168,157,115,75,4.0,4.2,-226,-10,0,-258,212,-6,228.30072331428528,228.30080389976501,228.303866147995,228.3195858001709,228.4616720676422,228.4616720676422,228.4616720676422,228.4616720676422,228.4616720676422,228.4616720676422,228.4616720676422,229.09536600112915,2,0.764878511428833,None,,,,,,,,,,,,,,,,,,171,1,2025-03-03_11h04.07.395,comp,2024.2.4,57.40824790243769,2025-03-03 11h04.16.559704 -0500,
30,30,0,filler_square,None,None,None,None,None,None,None,None,None,None,3,0.7879023551940918,None,,,,,0,0,0,0,0,30,30,183,229.11153864860535,,,,,,,,,,,,,,,,,,,,,,,,,,,,,,,,,,,,,,,,,,,,,,,,,,,,,,,,,,,,,,,,,,,,,,,,,,,,,,,,,58.24599809247154,87.25239530639362,86.12647874577446,97.85532899600328,133.94372103236907,133.94372103236907,4.0,4.2,-189,-15,0,-261,212,7,229.09720945358276,229.09729194641113,229.10061407089233,229.11153864860535,229.26086521148682,229.26086521148682,229.26086521148682,229.26086521148682,229.26086521148682,229.26086521148682,229.26086521148682,229.91669583320618,3,0.7879023551940918,None,,,,,,,,,,,,,,,,,,171,1,2025-03-03_11h04.07.395,comp,2024.2.4,57.40824790243769,2025-03-03 11h04.16.559704 -0500,
31,31,0,critical,wdh,35.0,1.0,upper,125.0,200.0,127.0,127.0,200.0,125.0,3,20.17436408996582,None,,,,,0,0,0,0,0,31,31,73,229.93367981910706,,,,,,,,,,,,,,,,,,,,,,,,,,,,,,,,,,,,,,,,,,,,,,,,,,,,,,,,,,,,,,,,,,,,,,,,,,,,,,,,,125.0,200.0,127.0,127.0,200.0,125.0,1.0,1.3,220,-266,480,-265,702,-285,229.9182050228119,229.91828083992004,229.92109847068787,229.93367981910706,230.07932782173157,230.07932782173157,230.07932782173157,230.07932782173157,230.07932782173157,230.07932782173157,230.07932782173157,250.11539602279663,3,20.17436408996582,None,,,,,,,,,,,,,,,,,,171,1,2025-03-03_11h04.07.395,comp,2024.2.4,57.40824790243769,2025-03-03 11h04.16.559704 -0500,
32,32,0,filler_random,None,None,None,None,None,None,None,None,None,None,1,1.118382453918457,None,,,,,0,0,0,0,0,32,32,138,250.13307905197144,,,,,,,,,,,,,,,,,,,,,,,,,,,,,,,,,,,,,,,,,,,,,,,,,,,,,,,,,,,,,,,,,,,,,,,,,,,,,,,,,156.72553611734645,128.90639883634344,86.94864757251767,79.94387894445056,108.83899412148662,59.92047999735309,4.0,4.2,-200,8,0,-269,166,-2,250.1172068119049,250.11732602119446,250.12081909179688,250.13307905197144,250.27353954315186,250.27353954315186,250.27353954315186,250.27353954315186,250.27353954315186,250.27353954315186,250.27353954315186,251.25499629974365,1,1.118382453918457,None,,,,,,,,,,,,,,,,,,171,1,2025-03-03_11h04.07.395,comp,2024.2.4,57.40824790243769,2025-03-03 11h04.16.559704 -0500,
33,33,0,filler_square,None,None,None,None,None,None,None,None,None,None,2,0.6900057792663574,None,,,,,0,0,0,0,0,33,33,204,251.2737684249878,,,,,,,,,,,,,,,,,,,,,,,,,,,,,,,,,,,,,,,,,,,,,,,,,,,,,,,,,,,,,,,,,,,,,,,,,,,,,,,,,57.84517127318744,80.1567063213457,126.24709284577686,126.24709284577686,81.8875642957099,73.56043413088233,2.1,2.11,-199,252,0,258,196,-274,251.25699639320374,251.25712394714355,251.26003241539001,251.2737684249878,251.41933965682983,251.41933965682983,251.41933965682983,251.41933965682983,251.41933965682983,251.41933965682983,251.41933965682983,251.96818614006042,2,0.6900057792663574,None,,,,,,,,,,,,,,,,,,171,1,2025-03-03_11h04.07.395,comp,2024.2.4,57.40824790243769,2025-03-03 11h04.16.559704 -0500,
34,34,0,critical,hdw,20.0,4.0,lower,133.0,57.0,78.0,78.0,57.0,133.0,1,1.915193796157837,None,,,,,0,0,0,0,0,34,34,118,251.98465156555176,,,,,,,,,,,,,,,,,,,,,,,,,,,,,,,,,,,,,,,,,,,,,,,,,,,,,,,,,,,,,,,,,,,,,,,,,,,,,,,,,133.0,57.0,78.0,78.0,57.0,133.0,4.0,4.1,-164,-263,0,-7,202,-266,251.96973705291748,251.9698166847229,251.97293639183044,251.98465156555176,252.1355357170105,252.1355357170105,252.1355357170105,252.1355357170105,252.1355357170105,252.1355357170105,252.1355357170105,253.92045187950134,1,1.915193796157837,None,,,,,,,,,,,,,,,,,,171,1,2025-03-03_11h04.07.395,comp,2024.2.4,57.40824790243769,2025-03-03 11h04.16.559704 -0500,
35,35,0,filler_random,None,None,None,None,None,None,None,None,None,None,2,0.9060204029083252,None,,,,,0,0,0,0,0,35,35,147,253.93736505508423,,,,,,,,,,,,,,,,,,,,,,,,,,,,,,,,,,,,,,,,,,,,,,,,,,,,,,,,,,,,,,,,,,,,,,,,,,,,,,,,,105.24739453704288,123.670489514224,118.0905019924592,195.3491609909882,78.04680410009803,103.30716307321879,4.0,4.2,-256,-19,0,-282,245,-12,253.92231369018555,253.92244291305542,253.925719499588,253.93736505508423,254.09006094932556,254.09006094932556,254.09006094932556,254.09006094932556,254.09006094932556,254.09006094932556,254.09006094932556,254.86151885986328,2,0.9060204029083252,None,,,,,,,,,,,,,,,,,,171,1,2025-03-03_11h04.07.395,comp,2024.2.4,57.40824790243769,2025-03-03 11h04.16.559704 -0500,
36,36,0,critical,hdw,20.0,2.1,upper,200.0,125.0,141.0,141.0,125.0,200.0,3,1.6379892826080322,None,,,,,0,0,0,0,0,36,36,47,254.87783527374268,,,,,,,,,,,,,,,,,,,,,,,,,,,,,,,,,,,,,,,,,,,,,,,,,,,,,,,,,,,,,,,,,,,,,,,,,,,,,,,,,200.0,125.0,141.0,141.0,125.0,200.0,2.1,2.12,-229,-263,0,-275,266,270,254.86309814453125,254.86320757865906,254.86653971672058,254.87783527374268,255.02072310447693,255.02072310447693,255.02072310447693,255.02072310447693,255.02072310447693,255.02072310447693,255.02072310447693,256.519704580307,3,1.6379892826080322,None,,,,,,,,,,,,,,,,,,171,1,2025-03-03_11h04.07.395,comp,2024.2.4,57.40824790243769,2025-03-03 11h04.16.559704 -0500,
37,37,0,critical,hdw,20.0,2.1,upper,200.0,125.0,141.0,141.0,125.0,200.0,3,30.533326625823975,None,,,,,0,0,0,0,0,37,37,23,256.53605341911316,,,,,,,,,,,,,,,,,,,,,,,,,,,,,,,,,,,,,,,,,,,,,,,,,,,,,,,,,,,,,,,,,,,,,,,,,,,,,,,,,200.0,125.0,141.0,141.0,125.0,200.0,2.1,2.12,-229,-267,0,-267,266,259,256.52122592926025,256.52130150794983,256.5243890285492,256.53605341911316,256.68844842910767,256.68844842910767,256.68844842910767,256.68844842910767,256.68844842910767,256.68844842910767,256.68844842910767,287.08044242858887,3,30.533326625823975,None,,,,,,,,,,,,,,,,,,171,1,2025-03-03_11h04.07.395,comp,2024.2.4,57.40824790243769,2025-03-03 11h04.16.559704 -0500,
38,38,0,filler_random,None,None,None,None,None,None,None,None,None,None,2,0.9471571445465088,None,,,,,0,0,0,0,0,38,38,145,287.0963702201843,,,,,,,,,,,,,,,,,,,,,,,,,,,,,,,,,,,,,,,,,,,,,,,,,,,,,,,,,,,,,,,,,,,,,,,,,,,,,,,,,164.9530369412621,161.92781728578416,182.42221080516384,160.45845240661043,68.61643582808532,83.5337035919664,2.2,2.21,-257,-268,0,281,218,275,287.08230781555176,287.0823886394501,287.0856342315674,287.0963702201843,287.247526884079,287.247526884079,287.247526884079,287.247526884079,287.247526884079,287.247526884079,287.247526884079,288.0469675064087,2,0.9471571445465088,None,,,,,,,,,,,,,,,,,,171,1,2025-03-03_11h04.07.395,comp,2024.2.4,57.40824790243769,2025-03-03 11h04.16.559704 -0500,
39,39,0,critical,dhw,20.0,2.1,lower,78.0,78.0,133.0,57.0,57.0,133.0,2,2.706712484359741,None,,,,,0,0,0,0,0,39,39,26,288.0656795501709,,,,,,,,,,,,,,,,,,,,,,,,,,,,,,,,,,,,,,,,,,,,,,,,,,,,,,,,,,,,,,,,,,,,,,,,,,,,,,,,,78.0,78.0,133.0,57.0,57.0,133.0,2.1,2.12,-164,-288,0,-258,191,277,288.04867124557495,288.04875445365906,288.0520691871643,288.0656795501709,288.2149250507355,288.2149250507355,288.2149250507355,288.2149250507355,288.2149250507355,288.2149250507355,288.2149250507355,290.7830834388733,2,2.706712484359741,None,,,,,,,,,,,,,,,,,,171,1,2025-03-03_11h04.07.395,comp,2024.2.4,57.40824790243769,2025-03-03 11h04.16.559704 -0500,
40,40,0,critical,hdw,35.0,3.0,upper,200.0,125.0,127.0,127.0,125.0,200.0,3,20.292264223098755,None,,,,,0,0,0,0,0,40,40,111,290.7991147041321,,,,,,,,,,,,,,,,,,,,,,,,,,,,,,,,,,,,,,,,,,,,,,,,,,,,,,,,,,,,,,,,,,,,,,,,,,,,,,,,,200.0,125.0,127.0,127.0,125.0,200.0,3.0,3.2,-222,-254,0,2,260,276,290.78471326828003,290.7847902774811,290.78811955451965,290.7991147041321,290.9474859237671,290.9474859237671,290.9474859237671,290.9474859237671,290.9474859237671,290.9474859237671,290.9474859237671,311.10575890541077,3,20.292264223098755,None,,,,,,,,,,,,,,,,,,171,1,2025-03-03_11h04.07.395,comp,2024.2.4,57.40824790243769,2025-03-03 11h04.16.559704 -0500,
41,41,0,critical,hdw,20.0,2.1,lower,133.0,57.0,78.0,78.0,57.0,133.0,3,7.330228328704834,None,,,,,0,0,0,0,0,41,41,22,311.1219232082367,,,,,,,,,,,,,,,,,,,,,,,,,,,,,,,,,,,,,,,,,,,,,,,,,,,,,,,,,,,,,,,,,,,,,,,,,,,,,,,,,133.0,57.0,78.0,78.0,57.0,133.0,2.1,2.11,-164,253,0,278,202,-276,311.1074402332306,311.10756969451904,311.11151599884033,311.1219232082367,311.27287340164185,311.27287340164185,311.27287340164185,311.27287340164185,311.27287340164185,311.27287340164185,311.27287340164185,318.4596698284149,3,7.330228328704834,None,,,,,,,,,,,,,,,,,,171,1,2025-03-03_11h04.07.395,comp,2024.2.4,57.40824790243769,2025-03-03 11h04.16.559704 -0500,
42,42,0,critical,dhw,20.0,2.1,upper,141.0,141.0,200.0,125.0,125.0,200.0,3,2.2080318927764893,None,,,,,0,0,0,0,0,42,42,3,318.47540807724,,,,,,,,,,,,,,,,,,,,,,,,,,,,,,,,,,,,,,,,,,,,,,,,,,,,,,,,,,,,,,,,,,,,,,,,,,,,,,,,,141.0,141.0,200.0,125.0,125.0,200.0,2.1,2.11,-229,266,0,252,258,-260,318.4612760543823,318.46135425567627,318.46465849876404,318.47540807724,318.62329745292664,318.62329745292664,318.62329745292664,318.62329745292664,318.62329745292664,318.62329745292664,318.62329745292664,320.6980712413788,3,2.2080318927764893,None,,,,,,,,,,,,,,,,,,171,1,2025-03-03_11h04.07.395,comp,2024.2.4,57.40824790243769,2025-03-03 11h04.16.559704 -0500,
43,43,0,filler_square,None,None,None,None,None,None,None,None,None,None,3,1.3087987899780273,None,,,,,0,0,0,0,0,43,43,209,320.718768119812,,,,,,,,,,,,,,,,,,,,,,,,,,,,,,,,,,,,,,,,,,,,,,,,,,,,,,,,,,,,,,,,,,,,,,,,,,,,,,,,,95.0242497932505,109.3411682130259,116.12689039652172,81.63407399318714,128.63789657837424,128.63789657837424,2.2,2.22,-191,276,0,-287,201,-274,320.70006036758423,320.7001690864563,320.7033302783966,320.718768119812,320.85667729377747,320.85667729377747,320.85667729377747,320.85667729377747,320.85667729377747,320.85667729377747,320.85667729377747,322.0406913757324,3,1.3087987899780273,None,,,,,,,,,,,,,,,,,,171,1,2025-03-03_11h04.07.395,comp,2024.2.4,57.40824790243769,2025-03-03 11h04.16.559704 -0500,
44,44,0,filler_random,None,None,None,None,None,None,None,None,None,None,3,1.2269642353057861,None,,,,,0,0,0,0,0,44,44,134,322.05726385116577,,,,,,,,,,,,,,,,,,,,,,,,,,,,,,,,,,,,,,,,,,,,,,,,,,,,,,,,,,,,,,,,,,,,,,,,,,,,,,,,,58.6055108365363,159.06489221368656,79.73884244850119,88.28042218201524,181.19127764173345,118.080306175672,3.0,3.1,-220,268,0,8,199,-266,322.04232001304626,322.04239439964294,322.0455439090729,322.05726385116577,322.2147545814514,322.2147545814514,322.2147545814514,322.2147545814514,322.2147545814514,322.2147545814514,322.2147545814514,323.2916660308838,3,1.2269642353057861,None,,,,,,,,,,,,,,,,,,171,1,2025-03-03_11h04.07.395,comp,2024.2.4,57.40824790243769,2025-03-03 11h04.16.559704 -0500,
45,45,0,critical,dhw,35.0,4.0,upper,127.0,127.0,200.0,125.0,125.0,200.0,2,2.600328207015991,None,,,,,0,0,0,0,0,45,45,53,323.307231426239,,,,,,,,,,,,,,,,,,,,,,,,,,,,,,,,,,,,,,,,,,,,,,,,,,,,,,,,,,,,,,,,,,,,,,,,,,,,,,,,,127.0,127.0,200.0,125.0,125.0,200.0,4.0,4.2,-222,10,0,-284,258,-15,323.29316091537476,323.29325008392334,323.2966284751892,323.307231426239,323.45651721954346,323.45651721954346,323.45651721954346,323.45651721954346,323.45651721954346,323.45651721954346,323.45651721954346,325.9258029460907,2,2.600328207015991,None,,,,,,,,,,,,,,,,,,171,1,2025-03-03_11h04.07.395,comp,2024.2.4,57.40824790243769,2025-03-03 11h04.16.559704 -0500,
46,46,0,filler_random,None,None,None,None,None,None,None,None,None,None,1,0.8628838062286377,None,,,,,0,0,0,0,0,46,46,146,325.9412364959717,,,,,,,,,,,,,,,,,,,,,,,,,,,,,,,,,,,,,,,,,,,,,,,,,,,,,,,,,,,,,,,,,,,,,,,,,,,,,,,,,178.12549935260697,178.63805073791713,193.55348063525284,70.4649140394719,194.60118100405148,59.41000002284159,2.1,2.11,-221,256,0,281,161,-275,325.92763113975525,325.9277083873749,325.9308376312256,325.9412364959717,326.09076023101807,326.09076023101807,326.09076023101807,326.09076023101807,326.09076023101807,326.09076023101807,326.09076023101807,326.81302642822266,1,0.8628838062286377,None,,,,,,,,,,,,,,,,,,171,1,2025-03-03_11h04.07.395,comp,2024.2.4,57.40824790243769,2025-03-03 11h04.16.559704 -0500,
47,47,0,catch,None,None,None,None,None,None,None,None,None,None,3,0.7868056297302246,None,,,,,0,0,0,0,0,47,47,127,326.83339190483093,,,,,,,,,,,,,,,,,,,,,,,,,,,,,,,,,,,,,,,,,,,,,,,,,,,,,,,,,,,,,,,,,,,,,,,,,,,,,,,,,125,65,70,120,186,139,1.0,1.2,-188,-16,0,14,226,-4,326.81503653526306,326.81511783599854,326.81801176071167,326.83339190483093,326.97634530067444,326.97634530067444,326.97634530067444,326.97634530067444,326.97634530067444,326.97634530067444,326.97634530067444,327.62533164024353,3,0.7868056297302246,None,,,,,,,,,,,,,,,,,,171,1,2025-03-03_11h04.07.395,comp,2024.2.4,57.40824790243769,2025-03-03 11h04.16.559704 -0500,
48,48,0,filler_square,None,None,None,None,None,None,None,None,None,None,3,0.8175809383392334,None,,,,,0,0,0,0,0,48,48,201,327.64188146591187,,,,,,,,,,,,,,,,,,,,,,,,,,,,,,,,,,,,,,,,,,,,,,,,,,,,,,,,,,,,,,,,,,,,,,,,,,,,,,,,,64.85586520222022,88.3107628161683,72.96479087037036,90.4066079380377,115.31416210217381,115.31416210217381,1.0,1.3,295,-276,480,-253,679,-253,327.62717843055725,327.62725830078125,327.63035821914673,327.64188146591187,327.79269552230835,327.79269552230835,327.79269552230835,327.79269552230835,327.79269552230835,327.79269552230835,327.79269552230835,328.4758982658386,3,0.8175809383392334,None,,,,,,,,,,,,,,,,,,171,1,2025-03-03_11h04.07.395,comp,2024.2.4,57.40824790243769,2025-03-03 11h04.16.559704 -0500,
49,49,0,filler_square,None,None,None,None,None,None,None,None,None,None,3,8.163093328475952,None,,,,,0,0,0,0,0,49,49,190,328.49612617492676,,,,,,,,,,,,,,,,,,,,,,,,,,,,,,,,,,,,,,,,,,,,,,,,,,,,,,,,,,,,,,,,,,,,,,,,,,,,,,,,,62.86199159443682,62.86199159443682,57.42739832955557,60.61033225083839,60.67137280979704,57.04717443288353,2.2,2.22,-158,279,0,-275,155,-253,328.4778847694397,328.47796177864075,328.48126578330994,328.49612617492676,328.64327907562256,328.64327907562256,328.64327907562256,328.64327907562256,328.64327907562256,328.64327907562256,328.64327907562256,336.6620388031006,3,8.163093328475952,None,,,,,,,,,,,,,,,,,,171,1,2025-03-03_11h04.07.395,comp,2024.2.4,57.40824790243769,2025-03-03 11h04.16.559704 -0500,
50,50,0,critical,whd,35.0,1.0,lower,57.0,133.0,133.0,57.0,70.0,70.0,1,11.757836103439331,None,,,,,0,0,0,0,0,50,50,84,336.67786383628845,,,,,,,,,,,,,,,,,,,,,,,,,,,,,,,,,,,,,,,,,,,,,,,,,,,,,,,,,,,,,,,,,,,,,,,,,,,,,,,,,57.0,133.0,133.0,57.0,70.0,70.0,1.0,1.2,-191,-11,0,12,160,-18,336.66254782676697,336.66257190704346,336.6634795665741,336.67786383628845,336.81320810317993,336.81320810317993,336.81320810317993,336.81320810317993,336.81320810317993,336.81320810317993,336.81320810317993,348.44870829582214,1,11.757836103439331,None,,,,,,,,,,,,,,,,,,171,1,2025-03-03_11h04.07.395,comp,2024.2.4,57.40824790243769,2025-03-03 11h04.16.559704 -0500,
51,51,0,filler_square,None,None,None,None,None,None,None,None,None,None,3,0.8161578178405762,None,,,,,0,0,0,0,0,51,51,173,348.4674837589264,,,,,,,,,,,,,,,,,,,,,,,,,,,,,,,,,,,,,,,,,,,,,,,,,,,,,,,,,,,,,,,,,,,,,,,,,,,,,,,,,70.91283278063722,104.77191244024405,64.60870382570171,124.5103329067517,133.2911009668349,133.2911009668349,1.0,1.1,-691,253,-480,262,-255,251,348.45054626464844,348.45062589645386,348.4537470340729,348.4674837589264,348.61608600616455,348.61608600616455,348.61608600616455,348.61608600616455,348.61608600616455,348.61608600616455,348.61608600616455,349.29921555519104,3,0.8161578178405762,None,,,,,,,,,,,,,,,,,,171,1,2025-03-03_11h04.07.395,comp,2024.2.4,57.40824790243769,2025-03-03 11h04.16.559704 -0500,
52,52,0,filler_square,None,None,None,None,None,None,None,None,None,None,2,1.4426343441009521,None,,,,,0,0,0,0,0,52,52,170,349.3150682449341,,,,,,,,,,,,,,,,,,,,,,,,,,,,,,,,,,,,,,,,,,,,,,,,,,,,,,,,,,,,,,,,,,,,,,,,,,,,,,,,,86.30898887769483,86.30898887769483,57.07973356557781,75.7320818025111,68.77104849011938,60.32339000645512,4.0,4.2,-177,12,0,-282,164,-3,349.30093264579773,349.30100774765015,349.30384969711304,349.3150682449341,349.4697117805481,349.4697117805481,349.4697117805481,349.4697117805481,349.4697117805481,349.4697117805481,349.4697117805481,350.7678577899933,2,1.4426343441009521,None,,,,,,,,,,,,,,,,,,171,1,2025-03-03_11h04.07.395,comp,2024.2.4,57.40824790243769,2025-03-03 11h04.16.559704 -0500,
53,53,0,critical,whd,20.0,1.0,lower,57.0,133.0,133.0,57.0,78.0,78.0,3,4.300094842910767,None,,,,,0,0,0,0,0,53,53,90,350.7835555076599,,,,,,,,,,,,,,,,,,,,,,,,,,,,,,,,,,,,,,,,,,,,,,,,,,,,,,,,,,,,,,,,,,,,,,,,,,,,,,,,,57.0,133.0,133.0,57.0,78.0,78.0,1.0,1.3,289,-282,480,-253,644,-268,350.7694282531738,350.76950788497925,350.77289152145386,350.7835555076599,350.9209020137787,350.9209020137787,350.9209020137787,350.9209020137787,350.9209020137787,350.9209020137787,350.9209020137787,355.086638212204,3,4.300094842910767,None,,,,,,,,,,,,,,,,,,171,1,2025-03-03_11h04.07.395,comp,2024.2.4,57.40824790243769,2025-03-03 11h04.16.559704 -0500,
54,54,0,catch,None,None,None,None,None,None,None,None,None,None,3,0.9114727973937988,None,,,,,0,0,0,0,0,54,54,128,355.1080732345581,,,,,,,,,,,,,,,,,,,,,,,,,,,,,,,,,,,,,,,,,,,,,,,,,,,,,,,,,,,,,,,,,,,,,,,,,,,,,,,,,95,95,112,78,128,197,2.2,2.22,-182,258,0,-289,234,-256,355.08883905410767,355.0889148712158,355.09217953681946,355.1080732345581,355.25243186950684,355.25243186950684,355.25243186950684,355.25243186950684,355.25243186950684,355.25243186950684,355.25243186950684,356.0362763404846,3,0.9114727973937988,None,,,,,,,,,,,,,,,,,,171,1,2025-03-03_11h04.07.395,comp,2024.2.4,57.40824790243769,2025-03-03 11h04.16.559704 -0500,
55,55,0,critical,hwd,20.0,3.0,upper,200.0,125.0,125.0,200.0,141.0,141.0,2,3.5833494663238525,None,,,,,0,0,0,0,0,55,55,105,356.05238103866577,,,,,,,,,,,,,,,,,,,,,,,,,,,,,,,,,,,,,,,,,,,,,,,,,,,,,,,,,,,,,,,,,,,,,,,,,,,,,,,,,200.0,125.0,125.0,200.0,141.0,141.0,3.0,3.1,-258,290,0,2,266,-271,356.0378625392914,356.03793692588806,356.04117226600647,356.05238103866577,356.208279132843,356.208279132843,356.208279132843,356.208279132843,356.208279132843,356.208279132843,356.208279132843,359.6502640247345,2,3.5833494663238525,None,,,,,,,,,,,,,,,,,,171,1,2025-03-03_11h04.07.395,comp,2024.2.4,57.40824790243769,2025-03-03 11h04.16.559704 -0500,
56,56,0,critical,dwh,35.0,1.0,lower,70.0,70.0,57.0,133.0,133.0,57.0,3,8.930011749267578,None,,,,,0,0,0,0,0,56,56,60,359.666339635849,,,,,,,,,,,,,,,,,,,,,,,,,,,,,,,,,,,,,,,,,,,,,,,,,,,,,,,,,,,,,,,,,,,,,,,,,,,,,,,,,70.0,70.0,57.0,133.0,133.0,57.0,1.0,1.1,-678,262,-480,275,-289,273,359.6517171859741,359.65179347991943,359.65460729599,359.666339635849,359.8024549484253,359.8024549484253,359.8024549484253,359.8024549484253,359.8024549484253,359.8024549484253,359.8024549484253,368.60474252700806,3,8.930011749267578,None,,,,,,,,,,,,,,,,,,171,1,2025-03-03_11h04.07.395,comp,2024.2.4,57.40824790243769,2025-03-03 11h04.16.559704 -0500,
57,57,0,catch,None,None,None,None,None,None,None,None,None,None,2,0.9019889831542969,None,,,,,0,0,0,0,0,57,57,125,368.6219651699066,,,,,,,,,,,,,,,,,,,,,,,,,,,,,,,,,,,,,,,,,,,,,,,,,,,,,,,,,,,,,,,,,,,,,,,,,,,,,,,,,58,132,197,128,117,73,3.0,3.1,-226,263,0,-11,196,-283,368.6067702770233,368.60684728622437,368.6100447177887,368.6219651699066,368.7802481651306,368.7802481651306,368.7802481651306,368.7802481651306,368.7802481651306,368.7802481651306,368.7802481651306,369.54140877723694,2,0.9019889831542969,None,,,,,,,,,,,,,,,,,,171,1,2025-03-03_11h04.07.395,comp,2024.2.4,57.40824790243769,2025-03-03 11h04.16.559704 -0500,
58,58,0,filler_square,None,None,None,None,None,None,None,None,None,None,3,1.3271605968475342,None,,,,,0,0,0,0,0,58,58,203,369.5572066307068,,,,,,,,,,,,,,,,,,,,,,,,,,,,,,,,,,,,,,,,,,,,,,,,,,,,,,,,,,,,,,,,,,,,,,,,,,,,,,,,,62.41297276466116,63.13599427585787,67.31268286882518,61.39166386171435,68.03625735936836,68.03625735936836,4.0,4.1,-158,-253,0,-7,161,-266,369.54352378845215,369.5436007976532,369.54680466651917,369.5572066307068,369.7054533958435,369.7054533958435,369.7054533958435,369.7054533958435,369.7054533958435,369.7054533958435,369.7054533958435,370.8902208805084,3,1.3271605968475342,None,,,,,,,,,,,,,,,,,,171,1,2025-03-03_11h04.07.395,comp,2024.2.4,57.40824790243769,2025-03-03 11h04.16.559704 -0500,
59,59,0,filler_random,None,None,None,None,None,None,None,None,None,None,2,1.1287345886230469,None,,,,,0,0,0,0,0,59,59,132,370.9069335460663,,,,,,,,,,,,,,,,,,,,,,,,,,,,,,,,,,,,,,,,,,,,,,,,,,,,,,,,,,,,,,,,,,,,,,,,,,,,,,,,,159.7518278004207,65.1121089923168,146.02295332969175,172.6735738358098,78.65969148385363,189.46118332156396,2.1,2.11,-215,251,0,284,277,-268,370.8919939994812,370.8920753002167,370.8960819244385,370.9069335460663,371.0622751712799,371.0622751712799,371.0622751712799,371.0622751712799,371.0622751712799,371.0622751712799,371.0622751712799,372.04495787620544,2,1.1287345886230469,None,,,,,,,,,,,,,,,,,,171,1,2025-03-03_11h04.07.395,comp,2024.2.4,57.40824790243769,2025-03-03 11h04.16.559704 -0500,
60,60,0,filler_random,None,None,None,None,None,None,None,None,None,None,1,1.1346423625946045,None,,,,,0,0,0,0,0,60,60,155,372.06099915504456,,,,,,,,,,,,,,,,,,,,,,,,,,,,,,,,,,,,,,,,,,,,,,,,,,,,,,,,,,,,,,,,,,,,,,,,,,,,,,,,,130.90897965979607,174.40006991226696,80.60939375372391,176.56600150992355,71.34355195188576,104.3799728269855,1.0,1.3,209,-278,480,-253,716,-267,372.0469307899475,372.047012090683,372.0501573085785,372.06099915504456,372.21056938171387,372.21056938171387,372.21056938171387,372.21056938171387,372.21056938171387,372.21056938171387,372.21056938171387,373.2062485218048,1,1.1346423625946045,None,,,,,,,,,,,,,,,,,,171,1,2025-03-03_11h04.07.395,comp,2024.2.4,57.40824790243769,2025-03-03 11h04.16.559704 -0500,
61,61,0,critical,dwh,20.0,1.0,lower,78.0,78.0,57.0,133.0,133.0,57.0,3,1.9240696430206299,None,,,,,0,0,0,0,0,61,61,66,373.2236545085907,,,,,,,,,,,,,,,,,,,,,,,,,,,,,,,,,,,,,,,,,,,,,,,,,,,,,,,,,,,,,,,,,,,,,,,,,,,,,,,,,78.0,78.0,57.0,133.0,133.0,57.0,1.0,1.1,-682,289,-480,258,-289,285,373.2077784538269,373.2078573703766,373.2112228870392,373.2236545085907,373.3762400150299,373.3762400150299,373.3762400150299,373.3762400150299,373.3762400150299,373.3762400150299,373.3762400150299,375.16411328315735,3,1.9240696430206299,None,,,,,,,,,,,,,,,,,,171,1,2025-03-03_11h04.07.395,comp,2024.2.4,57.40824790243769,2025-03-03 11h04.16.559704 -0500,
62,62,0,critical,hdw,20.0,3.0,upper,200.0,125.0,141.0,141.0,125.0,200.0,3,1.6489007472991943,None,,,,,0,0,0,0,0,62,62,117,375.178804397583,,,,,,,,,,,,,,,,,,,,,,,,,,,,,,,,,,,,,,,,,,,,,,,,,,,,,,,,,,,,,,,,,,,,,,,,,,,,,,,,,200.0,125.0,141.0,141.0,125.0,200.0,3.0,3.2,-229,-266,0,-17,266,261,375.16562247276306,375.16569542884827,375.1685326099396,375.178804397583,375.3226659297943,375.3226659297943,375.3226659297943,375.3226659297943,375.3226659297943,375.3226659297943,375.3226659297943,376.8417308330536,3,1.6489007472991943,None,,,,,,,,,,,,,,,,,,171,1,2025-03-03_11h04.07.395,comp,2024.2.4,57.40824790243769,2025-03-03 11h04.16.559704 -0500,
63,63,0,filler_random,None,None,None,None,None,None,None,None,None,None,3,2.6737067699432373,None,,,,,0,0,0,0,0,63,63,135,376.8581051826477,,,,,,,,,,,,,,,,,,,,,,,,,,,,,,,,,,,,,,,,,,,,,,,,,,,,,,,,,,,,,,,,,,,,,,,,,,,,,,,,,127.72380979386617,190.4677539013937,68.53818699276138,152.65569360949553,188.51599134078637,182.39042774821712,2.2,2.22,-268,253,0,-263,264,-252,376.8436596393585,376.843772649765,376.8472898006439,376.8581051826477,377.0136239528656,377.0136239528656,377.0136239528656,377.0136239528656,377.0136239528656,377.0136239528656,377.0136239528656,379.55005836486816,3,2.6737067699432373,None,,,,,,,,,,,,,,,,,,171,1,2025-03-03_11h04.07.395,comp,2024.2.4,57.40824790243769,2025-03-03 11h04.16.559704 -0500,
64,64,0,catch,None,None,None,None,None,None,None,None,None,None,3,1.2771084308624268,None,,,,,0,0,0,0,0,64,64,124,379.5661039352417,,,,,,,,,,,,,,,,,,,,,,,,,,,,,,,,,,,,,,,,,,,,,,,,,,,,,,,,,,,,,,,,,,,,,,,,,,,,,,,,,76,114,114,76,190,135,3.0,3.1,-191,262,0,6,202,-260,379.55234265327454,379.5524191856384,379.55567169189453,379.5661039352417,379.7089190483093,379.7089190483093,379.7089190483093,379.7089190483093,379.7089190483093,379.7089190483093,379.7089190483093,380.8577320575714,3,1.2771084308624268,None,,,,,,,,,,,,,,,,,,171,1,2025-03-03_11h04.07.395,comp,2024.2.4,57.40824790243769,2025-03-03 11h04.16.559704 -0500,
65,65,0,filler_square,None,None,None,None,None,None,None,None,None,None,3,0.9574370384216309,None,,,,,0,0,0,0,0,65,65,179,380.8782320022583,,,,,,,,,,,,,,,,,,,,,,,,,,,,,,,,,,,,,,,,,,,,,,,,,,,,,,,,,,,,,,,,,,,,,,,,,,,,,,,,,99.17099384544628,116.93761261518068,156.06712562806976,188.28676309662774,190.3756832229181,190.3756832229181,4.0,4.1,-249,-285,0,-8,285,-254,380.85856008529663,380.85859537124634,380.86001348495483,380.8782320022583,381.0093960762024,381.0093960762024,381.0093960762024,381.0093960762024,381.0093960762024,381.0093960762024,381.0093960762024,381.84770345687866,3,0.9574370384216309,None,,,,,,,,,,,,,,,,,,171,1,2025-03-03_11h04.07.395,comp,2024.2.4,57.40824790243769,2025-03-03 11h04.16.559704 -0500,
66,66,0,filler_random,None,None,None,None,None,None,None,None,None,None,3,0.928997278213501,None,,,,,0,0,0,0,0,66,66,166,381.86630749702454,,,,,,,,,,,,,,,,,,,,,,,,,,,,,,,,,,,,,,,,,,,,,,,,,,,,,,,,,,,,,,,,,,,,,,,,,,,,,,,,,127.0430496932546,98.94137745213479,104.08351783815323,119.52674857557696,148.07746384802908,164.23490352153766,1.0,1.3,275,-252,480,-258,718,-255,381.84949684143066,381.8495771884918,381.8524959087372,381.86630749702454,382.00968742370605,382.00968742370605,382.00968742370605,382.00968742370605,382.00968742370605,382.00968742370605,382.00968742370605,382.808562040329,3,0.928997278213501,None,,,,,,,,,,,,,,,,,,171,1,2025-03-03_11h04.07.395,comp,2024.2.4,57.40824790243769,2025-03-03 11h04.16.559704 -0500,
67,67,0,critical,hdw,35.0,2.1,upper,200.0,125.0,127.0,127.0,125.0,200.0,3,1.3717529773712158,None,,,,,0,0,0,0,0,67,67,21,382.82396507263184,,,,,,,,,,,,,,,,,,,,,,,,,,,,,,,,,,,,,,,,,,,,,,,,,,,,,,,,,,,,,,,,,,,,,,,,,,,,,,,,,200.0,125.0,127.0,127.0,125.0,200.0,2.1,2.11,-222,272,0,257,260,-275,382.8094630241394,382.8095004558563,382.8110647201538,382.82396507263184,382.9610712528229,382.9610712528229,382.9610712528229,382.9610712528229,382.9610712528229,382.9610712528229,382.9610712528229,384.20929503440857,3,1.3717529773712158,None,,,,,,,,,,,,,,,,,,171,1,2025-03-03_11h04.07.395,comp,2024.2.4,57.40824790243769,2025-03-03 11h04.16.559704 -0500,
68,68,0,filler_square,None,None,None,None,None,None,None,None,None,None,1,0.8948371410369873,None,,,,,0,0,0,0,0,68,68,192,384.22957825660706,,,,,,,,,,,,,,,,,,,,,,,,,,,,,,,,,,,,,,,,,,,,,,,,,,,,,,,,,,,,,,,,,,,,,,,,,,,,,,,,,111.07511675317473,111.07511675317473,90.13570826409907,64.2631006393295,62.729826671373566,99.38575933199768,4.0,4.2,-184,15,0,-273,178,18,384.2110629081726,384.21120047569275,384.21436071395874,384.22957825660706,384.3818826675415,384.3818826675415,384.3818826675415,384.3818826675415,384.3818826675415,384.3818826675415,384.3818826675415,385.1292722225189,1,0.8948371410369873,None,,,,,,,,,,,,,,,,,,171,1,2025-03-03_11h04.07.395,comp,2024.2.4,57.40824790243769,2025-03-03 11h04.16.559704 -0500,
69,69,0,critical,hdw,35.0,2.1,lower,133.0,57.0,70.0,70.0,57.0,133.0,3,6.5068700313568115,None,,,,,0,0,0,0,0,69,69,44,385.1457529067993,,,,,,,,,,,,,,,,,,,,,,,,,,,,,,,,,,,,,,,,,,,,,,,,,,,,,,,,,,,,,,,,,,,,,,,,,,,,,,,,,133.0,57.0,70.0,70.0,57.0,133.0,2.1,2.12,-160,-271,0,-285,198,251,385.13081908226013,385.13089632987976,385.1343603134155,385.1457529067993,385.29524183273315,385.29524183273315,385.29524183273315,385.29524183273315,385.29524183273315,385.29524183273315,385.29524183273315,391.66442227363586,3,6.5068700313568115,None,,,,,,,,,,,,,,,,,,171,1,2025-03-03_11h04.07.395,comp,2024.2.4,57.40824790243769,2025-03-03 11h04.16.559704 -0500,
70,70,0,filler_square,None,None,None,None,None,None,None,None,None,None,2,0.9966402053833008,None,,,,,0,0,0,0,0,70,70,196,391.6807506084442,,,,,,,,,,,,,,,,,,,,,,,,,,,,,,,,,,,,,,,,,,,,,,,,,,,,,,,,,,,,,,,,,,,,,,,,,,,,,,,,,111.19222229524874,86.92009063728725,158.62203913533307,158.62203913533307,148.69864644006148,85.2610129199046,2.2,2.22,-219,253,0,-268,218,-288,391.66633319854736,391.6664640903473,391.66979122161865,391.6807506084442,391.83059906959534,391.83059906959534,391.83059906959534,391.83059906959534,391.83059906959534,391.83059906959534,391.83059906959534,392.6795599460602,2,0.9966402053833008,None,,,,,,,,,,,,,,,,,,171,1,2025-03-03_11h04.07.395,comp,2024.2.4,57.40824790243769,2025-03-03 11h04.16.559704 -0500,
71,71,0,filler_square,None,None,None,None,None,None,None,None,None,None,3,5.4478514194488525,None,,,,,0,0,0,0,0,71,71,208,392.7001953125,,,,,,,,,,,,,,,,,,,,,,,,,,,,,,,,,,,,,,,,,,,,,,,,,,,,,,,,,,,,,,,,,,,,,,,,,,,,,,,,,59.17751698208109,68.35150931056003,64.35890942163957,68.62669655834364,73.75287029391092,73.75287029391092,2.1,2.12,-164,-267,0,-279,167,274,392.68127274513245,392.6813495159149,392.68453574180603,392.7001953125,392.8450391292572,392.8450391292572,392.8450391292572,392.8450391292572,392.8450391292572,392.8450391292572,392.8450391292572,398.16879868507385,3,5.4478514194488525,None,,,,,,,,,,,,,,,,,,171,1,2025-03-03_11h04.07.395,comp,2024.2.4,57.40824790243769,2025-03-03 11h04.16.559704 -0500,
72,72,0,critical,dhw,35.0,2.1,upper,127.0,127.0,200.0,125.0,125.0,200.0,2,0.8339114189147949,None,,,,,0,0,0,0,0,72,72,25,398.18758893013,,,,,,,,,,,,,,,,,,,,,,,,,,,,,,,,,,,,,,,,,,,,,,,,,,,,,,,,,,,,,,,,,,,,,,,,,,,,,,,,,127.0,127.0,200.0,125.0,125.0,200.0,2.1,2.11,-222,268,0,255,258,-269,398.1704611778259,398.1705367565155,398.17358326911926,398.18758893013,398.33345317840576,398.33345317840576,398.33345317840576,398.33345317840576,398.33345317840576,398.33345317840576,398.33345317840576,399.03258991241455,2,0.8339114189147949,None,,,,,,,,,,,,,,,,,,171,1,2025-03-03_11h04.07.395,comp,2024.2.4,57.40824790243769,2025-03-03 11h04.16.559704 -0500,
73,73,0,critical,dwh,20.0,2.1,lower,78.0,78.0,57.0,133.0,133.0,57.0,3,6.379070281982422,None,,,,,0,0,0,0,0,73,73,30,399.04938292503357,,,,,,,,,,,,,,,,,,,,,,,,,,,,,,,,,,,,,,,,,,,,,,,,,,,,,,,,,,,,,,,,,,,,,,,,,,,,,,,,,78.0,78.0,57.0,133.0,133.0,57.0,2.1,2.11,-202,287,0,280,191,-271,399.0341703891754,399.03425002098083,399.0382981300354,399.04938292503357,399.2054810523987,399.2054810523987,399.2054810523987,399.2054810523987,399.2054810523987,399.2054810523987,399.2054810523987,405.43153834342957,3,6.379070281982422,None,,,,,,,,,,,,,,,,,,171,1,2025-03-03_11h04.07.395,comp,2024.2.4,57.40824790243769,2025-03-03 11h04.16.559704 -0500,
74,74,0,filler_random,None,None,None,None,None,None,None,None,None,None,1,1.3797011375427246,None,,,,,0,0,0,0,0,74,74,142,405.4486737251282,,,,,,,,,,,,,,,,,,,,,,,,,,,,,,,,,,,,,,,,,,,,,,,,,,,,,,,,,,,,,,,,,,,,,,,,,,,,,,,,,187.08318242276562,180.69591668750923,103.89675027292796,67.3753372259987,90.88394181218537,173.46513635031545,3.0,3.2,-220,-256,0,-20,216,256,405.4332308769226,405.4333109855652,405.43615913391113,405.4486737251282,405.5834991931915,405.5834991931915,405.5834991931915,405.5834991931915,405.5834991931915,405.5834991931915,405.5834991931915,406.8336625099182,1,1.3797011375427246,None,,,,,,,,,,,,,,,,,,171,1,2025-03-03_11h04.07.395,comp,2024.2.4,57.40824790243769,2025-03-03 11h04.16.559704 -0500,
75,75,0,filler_random,None,None,None,None,None,None,None,None,None,None,1,1.954347848892212,None,,,,,0,0,0,0,0,75,75,130,406.84950733184814,,,,,,,,,,,,,,,,,,,,,,,,,,,,,,,,,,,,,,,,,,,,,,,,,,,,,,,,,,,,,,,,,,,,,,,,,,,,,,,,,88.30199671578774,132.06329526242774,128.50091196369488,76.77510042251866,114.1094124830906,68.00075292501718,3.0,3.1,-200,275,0,-1,168,-289,406.8353576660156,406.83547735214233,406.8386812210083,406.84950733184814,407.0023126602173,407.0023126602173,407.0023126602173,407.0023126602173,407.0023126602173,407.0023126602173,407.0023126602173,408.8174469470978,1,1.954347848892212,None,,,,,,,,,,,,,,,,,,171,1,2025-03-03_11h04.07.395,comp,2024.2.4,57.40824790243769,2025-03-03 11h04.16.559704 -0500,
76,76,0,critical,hwd,35.0,4.0,upper,200.0,125.0,125.0,200.0,127.0,127.0,2,6.2428483963012695,None,,,,,0,0,0,0,0,76,76,101,408.8333718776703,,,,,,,,,,,,,,,,,,,,,,,,,,,,,,,,,,,,,,,,,,,,,,,,,,,,,,,,,,,,,,,,,,,,,,,,,,,,,,,,,200.0,125.0,125.0,200.0,127.0,127.0,4.0,4.2,-258,8,0,-264,260,-9,408.8189527988434,408.81903100013733,408.82208585739136,408.8333718776703,408.9874658584595,408.9874658584595,408.9874658584595,408.9874658584595,408.9874658584595,408.9874658584595,408.9874658584595,415.0807843208313,2,6.2428483963012695,None,,,,,,,,,,,,,,,,,,171,1,2025-03-03_11h04.07.395,comp,2024.2.4,57.40824790243769,2025-03-03 11h04.16.559704 -0500,
77,77,0,catch,None,None,None,None,None,None,None,None,None,None,2,0.7464010715484619,None,,,,,0,0,0,0,0,77,77,129,415.0980508327484,,,,,,,,,,,,,,,,,,,,,,,,,,,,,,,,,,,,,,,,,,,,,,,,,,,,,,,,,,,,,,,,,,,,,,,,,,,,,,,,,69,121,189,136,100,90,2.2,2.22,-224,286,0,-258,209,-264,415.0828814506531,415.0829608440399,415.0862374305725,415.0980508327484,415.23916363716125,415.23916363716125,415.23916363716125,415.23916363716125,415.23916363716125,415.23916363716125,415.23916363716125,415.85511231422424,2,0.7464010715484619,None,,,,,,,,,,,,,,,,,,171,1,2025-03-03_11h04.07.395,comp,2024.2.4,57.40824790243769,2025-03-03 11h04.16.559704 -0500,
78,78,0,filler_random,None,None,None,None,None,None,None,None,None,None,1,3.5101113319396973,None,,,,,0,0,0,0,0,78,78,154,415.8714301586151,,,,,,,,,,,,,,,,,,,,,,,,,,,,,,,,,,,,,,,,,,,,,,,,,,,,,,,,,,,,,,,,,,,,,,,,,,,,,,,,,97.47705202545784,122.01283317916906,70.3069712415985,164.42469398424169,98.5839480950919,109.65829975075793,1.0,1.2,-239,6,0,-13,233,4,415.8569734096527,415.85711646080017,415.860497713089,415.8714301586151,416.024484872818,416.024484872818,416.024484872818,416.024484872818,416.024484872818,416.024484872818,416.024484872818,419.3876531124115,1,3.5101113319396973,None,,,,,,,,,,,,,,,,,,171,1,2025-03-03_11h04.07.395,comp,2024.2.4,57.40824790243769,2025-03-03 11h04.16.559704 -0500,
79,79,0,filler_random,None,None,None,None,None,None,None,None,None,None,3,2.112372875213623,None,,,,,0,0,0,0,0,79,79,149,419.40408515930176,,,,,,,,,,,,,,,,,,,,,,,,,,,,,,,,,,,,,,,,,,,,,,,,,,,,,,,,,,,,,,,,,,,,,,,,,,,,,,,,,110.35480206761883,94.68520268100004,72.96247752605026,96.27488529696747,101.8063012216071,106.10713875214581,2.1,2.11,-191,279,0,287,197,-288,419.38933205604553,419.3894109725952,419.3924834728241,419.40408515930176,419.5552496910095,419.5552496910095,419.5552496910095,419.5552496910095,419.5552496910095,419.5552496910095,419.5552496910095,421.52376770973206,3,2.112372875213623,None,,,,,,,,,,,,,,,,,,171,1,2025-03-03_11h04.07.395,comp,2024.2.4,57.40824790243769,2025-03-03 11h04.16.559704 -0500,
80,80,0,filler_square,None,None,None,None,None,None,None,None,None,None,1,1.0313162803649902,None,,,,,0,0,0,0,0,80,80,193,421.54042887687683,,,,,,,,,,,,,,,,,,,,,,,,,,,,,,,,,,,,,,,,,,,,,,,,,,,,,,,,,,,,,,,,,,,,,,,,,,,,,,,,,171.9900013994321,171.9900013994321,86.82874611743503,158.70887388084304,159.51572190002815,59.9676904960165,1.0,1.2,-261,-16,0,-5,205,6,421.5256013870239,421.52567887306213,421.52882838249207,421.54042887687683,421.68848490715027,421.68848490715027,421.68848490715027,421.68848490715027,421.68848490715027,421.68848490715027,421.68848490715027,422.587988615036,1,1.0313162803649902,None,,,,,,,,,,,,,,,,,,171,1,2025-03-03_11h04.07.395,comp,2024.2.4,57.40824790243769,2025-03-03 11h04.16.559704 -0500,
81,81,0,critical,wdh,35.0,2.1,lower,57.0,133.0,70.0,70.0,133.0,57.0,1,7.880420207977295,None,,,,,0,0,0,0,0,81,81,8,422.6040632724762,,,,,,,,,,,,,,,,,,,,,,,,,,,,,,,,,,,,,,,,,,,,,,,,,,,,,,,,,,,,,,,,,,,,,,,,,,,,,,,,,57.0,133.0,70.0,70.0,133.0,57.0,2.1,2.12,-198,-275,0,-273,160,268,422.5895667076111,422.58964133262634,422.592821598053,422.6040632724762,422.74070930480957,422.74070930480957,422.74070930480957,422.74070930480957,422.74070930480957,422.74070930480957,422.74070930480957,430.4923436641693,1,7.880420207977295,None,,,,,,,,,,,,,,,,,,171,1,2025-03-03_11h04.07.395,comp,2024.2.4,57.40824790243769,2025-03-03 11h04.16.559704 -0500,
82,82,0,critical,whd,20.0,3.0,upper,125.0,200.0,200.0,125.0,141.0,141.0,1,10.104573965072632,None,,,,,0,0,0,0,0,82,82,93,430.5078122615814,,,,,,,,,,,,,,,,,,,,,,,,,,,,,,,,,,,,,,,,,,,,,,,,,,,,,,,,,,,,,,,,,,,,,,,,,,,,,,,,,125.0,200.0,200.0,125.0,141.0,141.0,3.0,3.2,-258,-264,0,-4,229,262,430.49386644363403,430.49394845962524,430.49705719947815,430.5078122615814,430.6558268070221,430.6558268070221,430.6558268070221,430.6558268070221,430.6558268070221,430.6558268070221,430.6558268070221,440.620858669281,1,10.104573965072632,None,,,,,,,,,,,,,,,,,,171,1,2025-03-03_11h04.07.395,comp,2024.2.4,57.40824790243769,2025-03-03 11h04.16.559704 -0500,
83,83,0,filler_random,None,None,None,None,None,None,None,None,None,None,2,1.0294132232666016,None,,,,,0,0,0,0,0,83,83,162,440.63837718963623,,,,,,,,,,,,,,,,,,,,,,,,,,,,,,,,,,,,,,,,,,,,,,,,,,,,,,,,,,,,,,,,,,,,,,,,,,,,,,,,,99.64449797119899,188.80681472736745,176.44942489543837,186.48474733804846,96.40984583847843,139.98038202500862,2.2,2.22,-284,275,0,-276,259,-281,440.62259697914124,440.62267565727234,440.62552285194397,440.63837718963623,440.7790222167969,440.7790222167969,440.7790222167969,440.7790222167969,440.7790222167969,440.7790222167969,440.7790222167969,441.68240118026733,2,1.0294132232666016,None,,,,,,,,,,,,,,,,,,171,1,2025-03-03_11h04.07.395,comp,2024.2.4,57.40824790243769,2025-03-03 11h04.16.559704 -0500,
84,84,0,filler_square,None,None,None,None,None,None,None,None,None,None,3,0.8716466426849365,None,,,,,0,0,0,0,0,84,84,186,441.7001895904541,,,,,,,,,,,,,,,,,,,,,,,,,,,,,,,,,,,,,,,,,,,,,,,,,,,,,,,,,,,,,,,,,,,,,,,,,,,,,,,,,165.28020134425037,110.89659232317547,149.3346369683452,152.19761568060625,168.36744578415633,168.36744578415633,2.2,2.21,-228,-262,0,266,256,288,441.68429613113403,441.6843810081482,441.6874039173126,441.7001895904541,441.84580421447754,441.84580421447754,441.84580421447754,441.84580421447754,441.84580421447754,441.84580421447754,441.84580421447754,442.58149790763855,3,0.8716466426849365,None,,,,,,,,,,,,,,,,,,171,1,2025-03-03_11h04.07.395,comp,2024.2.4,57.40824790243769,2025-03-03 11h04.16.559704 -0500,
85,85,0,filler_random,None,None,None,None,None,None,None,None,None,None,1,0.8393959999084473,None,,,,,0,0,0,0,0,85,85,169,442.59727239608765,,,,,,,,,,,,,,,,,,,,,,,,,,,,,,,,,,,,,,,,,,,,,,,,,,,,,,,,,,,,,,,,,,,,,,,,,,,,,,,,,101.15101633633412,196.56278058497023,91.5703966806521,85.30581903852264,87.405205677635,103.05361613564972,4.0,4.2,-237,15,0,-289,190,15,442.5833864212036,442.5834674835205,442.58666038513184,442.59727239608765,442.7451071739197,442.7451071739197,442.7451071739197,442.7451071739197,442.7451071739197,442.7451071739197,442.7451071739197,443.44637799263,1,0.8393959999084473,None,,,,,,,,,,,,,,,,,,171,1,2025-03-03_11h04.07.395,comp,2024.2.4,57.40824790243769,2025-03-03 11h04.16.559704 -0500,
86,86,0,filler_random,None,None,None,None,None,None,None,None,None,None,2,2.847419023513794,None,,,,,0,0,0,0,0,86,86,151,443.46122550964355,,,,,,,,,,,,,,,,,,,,,,,,,,,,,,,,,,,,,,,,,,,,,,,,,,,,,,,,,,,,,,,,,,,,,,,,,,,,,,,,,172.26935195975884,147.5527590658947,169.66607036684292,160.24756237393697,101.09640670385885,123.61334833713423,2.1,2.11,-250,250,0,275,238,-271,443.44766664505005,443.4477074146271,443.4497547149658,443.46122550964355,443.6103866100311,443.6103866100311,443.6103866100311,443.6103866100311,443.6103866100311,443.6103866100311,443.6103866100311,446.3138086795807,2,2.847419023513794,None,,,,,,,,,,,,,,,,,,171,1,2025-03-03_11h04.07.395,comp,2024.2.4,57.40824790243769,2025-03-03 11h04.16.559704 -0500,
87,87,0,critical,dhw,20.0,1.0,upper,141.0,141.0,200.0,125.0,125.0,200.0,3,1.7969801425933838,None,,,,,0,0,0,0,0,87,87,55,446.3274247646332,,,,,,,,,,,,,,,,,,,,,,,,,,,,,,,,,,,,,,,,,,,,,,,,,,,,,,,,,,,,,,,,,,,,,,,,,,,,,,,,,141.0,141.0,200.0,125.0,125.0,200.0,1.0,1.3,251,-273,480,-271,738,-284,446.31508588790894,446.31515288352966,446.31770300865173,446.3274247646332,446.4790389537811,446.4790389537811,446.4790389537811,446.4790389537811,446.4790389537811,446.4790389537811,446.4790389537811,448.13208866119385,3,1.7969801425933838,None,,,,,,,,,,,,,,,,,,171,1,2025-03-03_11h04.07.395,comp,2024.2.4,57.40824790243769,2025-03-03 11h04.16.559704 -0500,
88,88,0,filler_random,None,None,None,None,None,None,None,None,None,None,2,0.9916698932647705,None,,,,,0,0,0,0,0,88,88,161,448.14822793006897,,,,,,,,,,,,,,,,,,,,,,,,,,,,,,,,,,,,,,,,,,,,,,,,,,,,,,,,,,,,,,,,,,,,,,,,,,,,,,,,,143.6981704100519,83.78235771193755,170.93265136308042,164.25663820374703,80.44862179281004,62.00456917290431,2.2,2.22,-220,275,0,-271,209,-255,448.13388752937317,448.13402247428894,448.1373567581177,448.14822793006897,448.30074429512024,448.30074429512024,448.30074429512024,448.30074429512024,448.30074429512024,448.30074429512024,448.30074429512024,449.15122294425964,2,0.9916698932647705,None,,,,,,,,,,,,,,,,,,171,1,2025-03-03_11h04.07.395,comp,2024.2.4,57.40824790243769,2025-03-03 11h04.16.559704 -0500,
89,89,0,critical,whd,35.0,2.1,lower,57.0,133.0,133.0,57.0,70.0,70.0,1,2.6422486305236816,None,,,,,0,0,0,0,0,89,89,12,449.1696231365204,,,,,,,,,,,,,,,,,,,,,,,,,,,,,,,,,,,,,,,,,,,,,,,,,,,,,,,,,,,,,,,,,,,,,,,,,,,,,,,,,57.0,133.0,133.0,57.0,70.0,70.0,2.1,2.12,-191,-250,0,-255,160,264,449.1529486179352,449.1530878543854,449.15630531311035,449.1696231365204,449.3152439594269,449.3152439594269,449.3152439594269,449.3152439594269,449.3152439594269,449.3152439594269,449.3152439594269,451.815233707428,1,2.6422486305236816,None,,,,,,,,,,,,,,,,,,171,1,2025-03-03_11h04.07.395,comp,2024.2.4,57.40824790243769,2025-03-03 11h04.16.559704 -0500,
90,90,0,critical,dhw,35.0,2.1,lower,70.0,70.0,133.0,57.0,57.0,133.0,2,3.188915491104126,None,,,,,0,0,0,0,0,90,90,0,451.83104944229126,,,,,,,,,,,,,,,,,,,,,,,,,,,,,,,,,,,,,,,,,,,,,,,,,,,,,,,,,,,,,,,,,,,,,,,,,,,,,,,,,70.0,70.0,133.0,57.0,57.0,133.0,2.1,2.12,-160,-257,0,-288,191,273,451.8168284893036,451.81690859794617,451.8202953338623,451.83104944229126,451.9867117404938,451.9867117404938,451.9867117404938,451.9867117404938,451.9867117404938,451.9867117404938,451.9867117404938,455.03810358047485,2,3.188915491104126,None,,,,,,,,,,,,,,,,,,171,1,2025-03-03_11h04.07.395,comp,2024.2.4,57.40824790243769,2025-03-03 11h04.16.559704 -0500,
91,91,0,filler_square,None,None,None,None,None,None,None,None,None,None,2,1.260575771331787,None,,,,,0,0,0,0,0,91,91,195,455.0553185939789,,,,,,,,,,,,,,,,,,,,,,,,,,,,,,,,,,,,,,,,,,,,,,,,,,,,,,,,,,,,,,,,,,,,,,,,,,,,,,,,,80.83843577102326,65.02993002752513,96.84910802082476,96.84910802082476,80.78753264427519,76.8514419266379,3.0,3.2,-177,-272,0,14,183,256,455.03987526893616,455.03995299339294,455.04283809661865,455.0553185939789,455.20132398605347,455.20132398605347,455.20132398605347,455.20132398605347,455.20132398605347,455.20132398605347,455.20132398605347,456.3332233428955,2,1.260575771331787,None,,,,,,,,,,,,,,,,,,171,1,2025-03-03_11h04.07.395,comp,2024.2.4,57.40824790243769,2025-03-03 11h04.16.559704 -0500,
92,92,0,critical,dhw,35.0,4.0,lower,70.0,70.0,133.0,57.0,57.0,133.0,3,1.8709146976470947,None,,,,,0,0,0,0,0,92,92,52,456.34909868240356,,,,,,,,,,,,,,,,,,,,,,,,,,,,,,,,,,,,,,,,,,,,,,,,,,,,,,,,,,,,,,,,,,,,,,,,,,,,,,,,,70.0,70.0,133.0,57.0,57.0,133.0,4.0,4.2,-160,-10,0,-280,191,18,456.3348243236542,456.3349347114563,456.3384807109833,456.34909868240356,456.5025038719177,456.5025038719177,456.5025038719177,456.5025038719177,456.5025038719177,456.5025038719177,456.5025038719177,458.22500944137573,3,1.8709146976470947,None,,,,,,,,,,,,,,,,,,171,1,2025-03-03_11h04.07.395,comp,2024.2.4,57.40824790243769,2025-03-03 11h04.16.559704 -0500,
93,93,0,critical,hwd,20.0,4.0,lower,133.0,57.0,57.0,133.0,78.0,78.0,2,6.272533416748047,None,,,,,0,0,0,0,0,93,93,106,458.24346232414246,,,,,,,,,,,,,,,,,,,,,,,,,,,,,,,,,,,,,,,,,,,,,,,,,,,,,,,,,,,,,,,,,,,,,,,,,,,,,,,,,133.0,57.0,57.0,133.0,78.0,78.0,4.0,4.2,-191,-8,0,-266,202,13,458.22660303115845,458.22668194770813,458.22992491722107,458.24346232414246,458.3817024230957,458.3817024230957,458.3817024230957,458.3817024230957,458.3817024230957,458.3817024230957,458.3817024230957,464.52222537994385,2,6.272533416748047,None,,,,,,,,,,,,,,,,,,171,1,2025-03-03_11h04.07.395,comp,2024.2.4,57.40824790243769,2025-03-03 11h04.16.559704 -0500,
94,94,0,critical,dwh,20.0,2.1,upper,141.0,141.0,125.0,200.0,200.0,125.0,3,2.494778871536255,None,,,,,0,0,0,0,0,94,94,7,464.5412847995758,,,,,,,,,,,,,,,,,,,,,,,,,,,,,,,,,,,,,,,,,,,,,,,,,,,,,,,,,,,,,,,,,,,,,,,,,,,,,,,,,141.0,141.0,125.0,200.0,200.0,125.0,2.1,2.12,-266,-260,0,-268,258,270,464.5237922668457,464.5238735675812,464.52729892730713,464.5412847995758,464.68696427345276,464.68696427345276,464.68696427345276,464.68696427345276,464.68696427345276,464.68696427345276,464.68696427345276,467.05341482162476,3,2.494778871536255,None,,,,,,,,,,,,,,,,,,171,1,2025-03-03_11h04.07.395,comp,2024.2.4,57.40824790243769,2025-03-03 11h04.16.559704 -0500,
95,95,0,critical,hwd,35.0,2.1,upper,200.0,125.0,125.0,200.0,127.0,127.0,2,43.9278199672699,None,,,,,0,0,0,0,0,95,95,41,467.0686237812042,,,,,,,,,,,,,,,,,,,,,,,,,,,,,,,,,,,,,,,,,,,,,,,,,,,,,,,,,,,,,,,,,,,,,,,,,,,,,,,,,200.0,125.0,125.0,200.0,127.0,127.0,2.1,2.11,-258,251,0,261,260,-270,467.05490493774414,467.05497884750366,467.05804896354675,467.0686237812042,467.21880316734314,467.21880316734314,467.21880316734314,467.21880316734314,467.21880316734314,467.21880316734314,467.21880316734314,511.0022192001343,2,43.9278199672699,None,,,,,,,,,,,,,,,,,,171,1,2025-03-03_11h04.07.395,comp,2024.2.4,57.40824790243769,2025-03-03 11h04.16.559704 -0500,
96,96,0,filler_random,None,None,None,None,None,None,None,None,None,None,3,15.241657495498657,None,,,,,0,0,0,0,0,96,96,156,511.0186016559601,,,,,,,,,,,,,,,,,,,,,,,,,,,,,,,,,,,,,,,,,,,,,,,,,,,,,,,,,,,,,,,,,,,,,,,,,,,,,,,,,174.50254078818023,103.14212184495817,98.88164957085002,116.07086538820477,169.76273772697175,113.96395075603206,3.0,3.2,-206,-255,0,-6,211,272,511.00401401519775,511.0040934085846,511.0072774887085,511.0186016559601,511.1682493686676,511.1682493686676,511.1682493686676,511.1682493686676,511.1682493686676,511.1682493686676,511.1682493686676,526.2705283164978,3,15.241657495498657,None,,,,,,,,,,,,,,,,,,171,1,2025-03-03_11h04.07.395,comp,2024.2.4,57.40824790243769,2025-03-03 11h04.16.559704 -0500,
97,97,0,filler_square,None,None,None,None,None,None,None,None,None,None,2,1.1406033039093018,None,,,,,0,0,0,0,0,97,97,194,526.2877259254456,,,,,,,,,,,,,,,,,,,,,,,,,,,,,,,,,,,,,,,,,,,,,,,,,,,,,,,,,,,,,,,,,,,,,,,,,,,,,,,,,72.13630608674075,57.279104277147844,117.09837606025525,117.09837606025525,62.77496825617266,110.34864070847661,4.0,4.1,-183,-264,0,-15,210,-265,526.272528886795,526.2726049423218,526.2759027481079,526.2877259254456,526.4238805770874,526.4238805770874,526.4238805770874,526.4238805770874,526.4238805770874,526.4238805770874,526.4238805770874,527.4389419555664,2,1.1406033039093018,None,,,,,,,,,,,,,,,,,,171,1,2025-03-03_11h04.07.395,comp,2024.2.4,57.40824790243769,2025-03-03 11h04.16.559704 -0500,
98,98,0,critical,dwh,35.0,2.1,upper,127.0,127.0,125.0,200.0,200.0,125.0,2,1.5011074542999268,None,,,,,0,0,0,0,0,98,98,29,527.455249786377,,,,,,,,,,,,,,,,,,,,,,,,,,,,,,,,,,,,,,,,,,,,,,,,,,,,,,,,,,,,,,,,,,,,,,,,,,,,,,,,,127.0,127.0,125.0,200.0,200.0,125.0,2.1,2.11,-260,251,0,265,258,-263,527.4404621124268,527.4405353069305,527.4436252117157,527.455249786377,527.6083664894104,527.6083664894104,527.6083664894104,527.6083664894104,527.6083664894104,527.6083664894104,527.6083664894104,528.9768850803375,2,1.5011074542999268,None,,,,,,,,,,,,,,,,,,171,1,2025-03-03_11h04.07.395,comp,2024.2.4,57.40824790243769,2025-03-03 11h04.16.559704 -0500,
99,99,0,filler_random,None,None,None,None,None,None,None,None,None,None,1,0.8875257968902588,None,,,,,0,0,0,0,0,99,99,158,528.9971978664398,,,,,,,,,,,,,,,,,,,,,,,,,,,,,,,,,,,,,,,,,,,,,,,,,,,,,,,,,,,,,,,,,,,,,,,,,,,,,,,,,152.07034477429318,174.07505812267465,87.43982815573138,144.0543664993213,168.36495424656476,69.66407814133265,2.2,2.22,-255,266,0,-274,203,-278,528.9786298274994,528.9787356853485,528.9818756580353,528.9971978664398,529.1395862102509,529.1395862102509,529.1395862102509,529.1395862102509,529.1395862102509,529.1395862102509,529.1395862102509,529.8912997245789,1,0.8875257968902588,None,,,,,,,,,,,,,,,,,,171,1,2025-03-03_11h04.07.395,comp,2024.2.4,57.40824790243769,2025-03-03 11h04.16.559704 -0500,
100,100,0,critical,wdh,20.0,4.0,lower,57.0,133.0,78.0,78.0,133.0,57.0,1,3.028205394744873,None,,,,,0,0,0,0,0,100,100,82,529.9118075370789,,,,,,,,,,,,,,,,,,,,,,,,,,,,,,,,,,,,,,,,,,,,,,,,,,,,,,,,,,,,,,,,,,,,,,,,,,,,,,,,,57.0,133.0,78.0,78.0,133.0,57.0,4.0,4.1,-202,-254,0,-13,164,-288,529.8927958011627,529.8928716182709,529.8960897922516,529.9118075370789,530.0448889732361,530.0448889732361,530.0448889732361,530.0448889732361,530.0448889732361,530.0448889732361,530.0448889732361,532.9566445350647,1,3.028205394744873,None,,,,,,,,,,,,,,,,,,171,1,2025-03-03_11h04.07.395,comp,2024.2.4,57.40824790243769,2025-03-03 11h04.16.559704 -0500,
101,101,0,filler_square,None,None,None,None,None,None,None,None,None,None,3,1.5992040634155273,None,,,,,0,0,0,0,0,101,101,184,532.972841501236,,,,,,,,,,,,,,,,,,,,,,,,,,,,,,,,,,,,,,,,,,,,,,,,,,,,,,,,,,,,,,,,,,,,,,,,,,,,,,,,,131.42591147125447,110.53767440728664,147.4485658794368,120.57051811288594,151.52738089488275,151.52738089488275,2.1,2.12,-212,-272,0,-289,232,252,532.9584028720856,532.958477973938,532.9614605903625,532.972841501236,533.1132695674896,533.1132695674896,533.1132695674896,533.1132695674896,533.1132695674896,533.1132695674896,533.1132695674896,534.574925661087,3,1.5992040634155273,None,,,,,,,,,,,,,,,,,,171,1,2025-03-03_11h04.07.395,comp,2024.2.4,57.40824790243769,2025-03-03 11h04.16.559704 -0500,
102,102,0,critical,dhw,20.0,2.1,lower,78.0,78.0,133.0,57.0,57.0,133.0,2,2.933175563812256,None,,,,,0,0,0,0,0,102,102,2,534.5908734798431,,,,,,,,,,,,,,,,,,,,,,,,,,,,,,,,,,,,,,,,,,,,,,,,,,,,,,,,,,,,,,,,,,,,,,,,,,,,,,,,,78.0,78.0,133.0,57.0,57.0,133.0,2.1,2.12,-164,-257,0,-280,191,279,534.5764591693878,534.5765376091003,534.5799469947815,534.5908734798431,534.7402093410492,534.7402093410492,534.7402093410492,534.7402093410492,534.7402093410492,534.7402093410492,534.7402093410492,537.5260796546936,2,2.933175563812256,None,,,,,,,,,,,,,,,,,,171,1,2025-03-03_11h04.07.395,comp,2024.2.4,57.40824790243769,2025-03-03 11h04.16.559704 -0500,
103,103,0,filler_square,None,None,None,None,None,None,None,None,None,None,3,0.9414277076721191,None,,,,,0,0,0,0,0,103,103,171,537.5426251888275,,,,,,,,,,,,,,,,,,,,,,,,,,,,,,,,,,,,,,,,,,,,,,,,,,,,,,,,,,,,,,,,,,,,,,,,,,,,,,,,,114.35822498637131,112.13702847255024,133.3821450420213,59.49704181782898,173.0639038836894,173.0639038836894,2.2,2.21,-182,-252,0,254,212,276,537.5278475284576,537.5279266834259,537.5316171646118,537.5426251888275,537.690051317215,537.690051317215,537.690051317215,537.690051317215,537.690051317215,537.690051317215,537.690051317215,538.492924451828,3,0.9414277076721191,None,,,,,,,,,,,,,,,,,,171,1,2025-03-03_11h04.07.395,comp,2024.2.4,57.40824790243769,2025-03-03 11h04.16.559704 -0500,
104,104,0,critical,wdh,20.0,3.0,upper,125.0,200.0,141.0,141.0,200.0,125.0,1,1.4393327236175537,None,,,,,0,0,0,0,0,104,104,81,538.5087246894836,,,,,,,,,,,,,,,,,,,,,,,,,,,,,,,,,,,,,,,,,,,,,,,,,,,,,,,,,,,,,,,,,,,,,,,,,,,,,,,,,125.0,200.0,141.0,141.0,200.0,125.0,3.0,3.1,-266,268,0,8,229,-271,538.4944536685944,538.4945302009583,538.4977748394012,538.5087246894836,538.662460565567,538.662460565567,538.662460565567,538.662460565567,538.662460565567,538.662460565567,538.662460565567,539.958646774292,1,1.4393327236175537,None,,,,,,,,,,,,,,,,,,171,1,2025-03-03_11h04.07.395,comp,2024.2.4,57.40824790243769,2025-03-03 11h04.16.559704 -0500,
105,105,0,critical,hwd,20.0,2.1,upper,200.0,125.0,125.0,200.0,141.0,141.0,2,3.716409921646118,None,,,,,0,0,0,0,0,105,105,43,539.9756326675415,,,,,,,,,,,,,,,,,,,,,,,,,,,,,,,,,,,,,,,,,,,,,,,,,,,,,,,,,,,,,,,,,,,,,,,,,,,,,,,,,200.0,125.0,125.0,200.0,141.0,141.0,2.1,2.12,-258,-264,0,-281,266,289,539.9602644443512,539.960366487503,539.9636991024017,539.9756326675415,540.1265594959259,540.1265594959259,540.1265594959259,540.1265594959259,540.1265594959259,540.1265594959259,540.1265594959259,543.6944472789764,2,3.716409921646118,None,,,,,,,,,,,,,,,,,,171,1,2025-03-03_11h04.07.395,comp,2024.2.4,57.40824790243769,2025-03-03 11h04.16.559704 -0500,
106,106,0,critical,dwh,35.0,2.1,upper,127.0,127.0,125.0,200.0,200.0,125.0,2,1.4053332805633545,None,,,,,0,0,0,0,0,106,106,5,543.7108838558197,,,,,,,,,,,,,,,,,,,,,,,,,,,,,,,,,,,,,,,,,,,,,,,,,,,,,,,,,,,,,,,,,,,,,,,,,,,,,,,,,127.0,127.0,125.0,200.0,200.0,125.0,2.1,2.12,-260,-271,0,-254,258,277,543.6962139606476,543.6963579654694,543.6997339725494,543.7108838558197,543.8679895401001,543.8679895401001,543.8679895401001,543.8679895401001,543.8679895401001,543.8679895401001,543.8679895401001,545.1284894943237,2,1.4053332805633545,None,,,,,,,,,,,,,,,,,,171,1,2025-03-03_11h04.07.395,comp,2024.2.4,57.40824790243769,2025-03-03 11h04.16.559704 -0500,
107,107,0,critical,hwd,20.0,2.1,lower,133.0,57.0,57.0,133.0,78.0,78.0,2,4.026885986328125,None,,,,,0,0,0,0,0,107,107,42,545.1462423801422,,,,,,,,,,,,,,,,,,,,,,,,,,,,,,,,,,,,,,,,,,,,,,,,,,,,,,,,,,,,,,,,,,,,,,,,,,,,,,,,,133.0,57.0,57.0,133.0,78.0,78.0,2.1,2.12,-191,-271,0,-276,202,257,545.1299865245819,545.1300649642944,545.133223772049,545.1462423801422,545.292097568512,545.292097568512,545.292097568512,545.292097568512,545.292097568512,545.292097568512,545.292097568512,549.1762320995331,2,4.026885986328125,None,,,,,,,,,,,,,,,,,,171,1,2025-03-03_11h04.07.395,comp,2024.2.4,57.40824790243769,2025-03-03 11h04.16.559704 -0500,
108,108,0,critical,dwh,35.0,3.0,upper,127.0,127.0,125.0,200.0,200.0,125.0,2,1.4819893836975098,None,,,,,0,0,0,0,0,108,108,63,549.1941134929657,,,,,,,,,,,,,,,,,,,,,,,,,,,,,,,,,,,,,,,,,,,,,,,,,,,,,,,,,,,,,,,,,,,,,,,,,,,,,,,,,127.0,127.0,125.0,200.0,200.0,125.0,3.0,3.2,-260,-260,0,-11,258,288,549.1777617931366,549.1778378486633,549.1810357570648,549.1941134929657,549.3295998573303,549.3295998573303,549.3295998573303,549.3295998573303,549.3295998573303,549.3295998573303,549.3295998573303,550.6799778938293,2,1.4819893836975098,None,,,,,,,,,,,,,,,,,,171,1,2025-03-03_11h04.07.395,comp,2024.2.4,57.40824790243769,2025-03-03 11h04.16.559704 -0500,
109,109,0,critical,whd,35.0,4.0,lower,57.0,133.0,133.0,57.0,70.0,70.0,1,2.763883590698242,None,,,,,0,0,0,0,0,109,109,88,550.6963651180267,,,,,,,,,,,,,,,,,,,,,,,,,,,,,,,,,,,,,,,,,,,,,,,,,,,,,,,,,,,,,,,,,,,,,,,,,,,,,,,,,57.0,133.0,133.0,57.0,70.0,70.0,4.0,4.1,-191,-251,0,-4,160,-276,550.6815338134766,550.6816132068634,550.6855697631836,550.6963651180267,550.8464248180389,550.8464248180389,550.8464248180389,550.8464248180389,550.8464248180389,550.8464248180389,550.8464248180389,553.4792358875275,1,2.763883590698242,None,,,,,,,,,,,,,,,,,,171,1,2025-03-03_11h04.07.395,comp,2024.2.4,57.40824790243769,2025-03-03 11h04.16.559704 -0500,
110,110,0,critical,whd,35.0,3.0,lower,57.0,133.0,133.0,57.0,70.0,70.0,1,3.801198720932007,None,,,,,0,0,0,0,0,110,110,86,553.4989748001099,,,,,,,,,,,,,,,,,,,,,,,,,,,,,,,,,,,,,,,,,,,,,,,,,,,,,,,,,,,,,,,,,,,,,,,,,,,,,,,,,57.0,133.0,133.0,57.0,70.0,70.0,3.0,3.2,-191,-268,0,11,160,281,553.4806754589081,553.4807729721069,553.4837050437927,553.4989748001099,553.6312673091888,553.6312673091888,553.6312673091888,553.6312673091888,553.6312673091888,553.6312673091888,553.6312673091888,557.316055059433,1,3.801198720932007,None,,,,,,,,,,,,,,,,,,171,1,2025-03-03_11h04.07.395,comp,2024.2.4,57.40824790243769,2025-03-03 11h04.16.559704 -0500,
111,111,0,catch,None,None,None,None,None,None,None,None,None,None,1,0.9455204010009766,None,,,,,0,0,0,0,0,111,111,121,557.331582069397,,,,,,,,,,,,,,,,,,,,,,,,,,,,,,,,,,,,,,,,,,,,,,,,,,,,,,,,,,,,,,,,,,,,,,,,,,,,,,,,,137,188,100,90,60,130,2.2,2.21,-235,-268,0,261,206,273,557.3180196285248,557.3181054592133,557.3210339546204,557.331582069397,557.4718606472015,557.4718606472015,557.4718606472015,557.4718606472015,557.4718606472015,557.4718606472015,557.4718606472015,558.2847120761871,1,0.9455204010009766,None,,,,,,,,,,,,,,,,,,171,1,2025-03-03_11h04.07.395,comp,2024.2.4,57.40824790243769,2025-03-03 11h04.16.559704 -0500,
112,112,0,critical,wdh,35.0,2.1,upper,125.0,200.0,127.0,127.0,200.0,125.0,1,2.198965311050415,None,,,,,0,0,0,0,0,112,112,33,558.3019042015076,,,,,,,,,,,,,,,,,,,,,,,,,,,,,,,,,,,,,,,,,,,,,,,,,,,,,,,,,,,,,,,,,,,,,,,,,,,,,,,,,125.0,200.0,127.0,127.0,200.0,125.0,2.1,2.12,-260,-278,0,-281,222,289,558.286431312561,558.2865076065063,558.2903192043304,558.3019042015076,558.4543051719666,558.4543051719666,558.4543051719666,558.4543051719666,558.4543051719666,558.4543051719666,558.4543051719666,560.5039253234863,1,2.198965311050415,None,,,,,,,,,,,,,,,,,,171,1,2025-03-03_11h04.07.395,comp,2024.2.4,57.40824790243769,2025-03-03 11h04.16.559704 -0500,
113,113,0,critical,whd,35.0,3.0,upper,125.0,200.0,200.0,125.0,127.0,127.0,1,7.373389959335327,None,,,,,0,0,0,0,0,113,113,87,560.5193274021149,,,,,,,,,,,,,,,,,,,,,,,,,,,,,,,,,,,,,,,,,,,,,,,,,,,,,,,,,,,,,,,,,,,,,,,,,,,,,,,,,125.0,200.0,200.0,125.0,127.0,127.0,3.0,3.1,-258,275,0,5,222,-264,560.5054371356964,560.5055150985718,560.5086216926575,560.5193274021149,560.669243812561,560.669243812561,560.669243812561,560.669243812561,560.669243812561,560.669243812561,560.669243812561,567.9032046794891,1,7.373389959335327,None,,,,,,,,,,,,,,,,,,171,1,2025-03-03_11h04.07.395,comp,2024.2.4,57.40824790243769,2025-03-03 11h04.16.559704 -0500,
114,114,0,filler_random,None,None,None,None,None,None,None,None,None,None,1,1.273038625717163,None,,,,,0,0,0,0,0,114,114,165,567.9237911701202,,,,,,,,,,,,,,,,,,,,,,,,,,,,,,,,,,,,,,,,,,,,,,,,,,,,,,,,,,,,,,,,,,,,,,,,,,,,,,,,,196.66225969928445,162.30823323567495,105.82253116747671,116.84001327804785,149.54618734489864,174.63372461524108,2.1,2.12,-236,-258,0,-256,242,278,567.9049756526947,567.9050555229187,567.9079833030701,567.9237911701202,568.0684113502502,568.0684113502502,568.0684113502502,568.0684113502502,568.0684113502502,568.0684113502502,568.0684113502502,569.2034440040588,1,1.273038625717163,None,,,,,,,,,,,,,,,,,,171,1,2025-03-03_11h04.07.395,comp,2024.2.4,57.40824790243769,2025-03-03 11h04.16.559704 -0500,
115,115,0,catch,None,None,None,None,None,None,None,None,None,None,1,0.7995069026947021,None,,,,,0,0,0,0,0,115,115,123,569.2206737995148,,,,,,,,,,,,,,,,,,,,,,,,,,,,,,,,,,,,,,,,,,,,,,,,,,,,,,,,,,,,,,,,,,,,,,,,,,,,,,,,,156,169,64,126,95,95,2.2,2.22,-244,288,0,-256,206,-272,569.2055916786194,569.2056694030762,569.2088766098022,569.2206737995148,569.3679473400116,569.3679473400116,569.3679473400116,569.3679473400116,569.3679473400116,569.3679473400116,569.3679473400116,570.0232360363007,1,0.7995069026947021,None,,,,,,,,,,,,,,,,,,171,1,2025-03-03_11h04.07.395,comp,2024.2.4,57.40824790243769,2025-03-03 11h04.16.559704 -0500,
116,116,0,critical,wdh,20.0,2.1,lower,57.0,133.0,78.0,78.0,133.0,57.0,1,1.9970688819885254,None,,,,,0,0,0,0,0,116,116,34,570.0393702983856,,,,,,,,,,,,,,,,,,,,,,,,,,,,,,,,,,,,,,,,,,,,,,,,,,,,,,,,,,,,,,,,,,,,,,,,,,,,,,,,,57.0,133.0,78.0,78.0,133.0,57.0,2.1,2.12,-202,-252,0,-278,164,267,570.0248651504517,570.0249936580658,570.0286846160889,570.0393702983856,570.1857688426971,570.1857688426971,570.1857688426971,570.1857688426971,570.1857688426971,570.1857688426971,570.1857688426971,572.0540170669556,1,1.9970688819885254,None,,,,,,,,,,,,,,,,,,171,1,2025-03-03_11h04.07.395,comp,2024.2.4,57.40824790243769,2025-03-03 11h04.16.559704 -0500,
117,117,0,critical,dwh,35.0,4.0,upper,127.0,127.0,125.0,200.0,200.0,125.0,2,1.7897398471832275,None,,,,,0,0,0,0,0,117,117,65,572.0710258483887,,,,,,,,,,,,,,,,,,,,,,,,,,,,,,,,,,,,,,,,,,,,,,,,,,,,,,,,,,,,,,,,,,,,,,,,,,,,,,,,,127.0,127.0,125.0,200.0,200.0,125.0,4.0,4.2,-260,-20,0,-267,258,-19,572.0556237697601,572.0557098388672,572.0590393543243,572.0710258483887,572.2222590446472,572.2222590446472,572.2222590446472,572.2222590446472,572.2222590446472,572.2222590446472,572.2222590446472,573.8708698749542,2,1.7897398471832275,None,,,,,,,,,,,,,,,,,,171,1,2025-03-03_11h04.07.395,comp,2024.2.4,57.40824790243769,2025-03-03 11h04.16.559704 -0500,
118,118,0,critical,whd,35.0,2.1,upper,125.0,200.0,200.0,125.0,127.0,127.0,1,1.8780975341796875,None,,,,,0,0,0,0,0,118,118,37,573.8864831924438,,,,,,,,,,,,,,,,,,,,,,,,,,,,,,,,,,,,,,,,,,,,,,,,,,,,,,,,,,,,,,,,,,,,,,,,,,,,,,,,,125.0,200.0,200.0,125.0,127.0,127.0,2.1,2.11,-258,271,0,270,222,-278,573.8723485469818,573.8724272251129,573.8757681846619,573.8864831924438,574.0443203449249,574.0443203449249,574.0443203449249,574.0443203449249,574.0443203449249,574.0443203449249,574.0443203449249,575.772807598114,1,1.8780975341796875,None,,,,,,,,,,,,,,,,,,171,1,2025-03-03_11h04.07.395,comp,2024.2.4,57.40824790243769,2025-03-03 11h04.16.559704 -0500,
119,119,0,critical,hdw,35.0,4.0,lower,133.0,57.0,70.0,70.0,57.0,133.0,3,3.1917436122894287,None,,,,,0,0,0,0,0,119,119,112,575.7888808250427,,,,,,,,,,,,,,,,,,,,,,,,,,,,,,,,,,,,,,,,,,,,,,,,,,,,,,,,,,,,,,,,,,,,,,,,,,,,,,,,,133.0,57.0,70.0,70.0,57.0,133.0,4.0,4.1,-160,-269,0,10,198,-283,575.7744302749634,575.7745137214661,575.7779743671417,575.7888808250427,575.937064409256,575.937064409256,575.937064409256,575.937064409256,575.937064409256,575.937064409256,575.937064409256,578.9917538166046,3,3.1917436122894287,None,,,,,,,,,,,,,,,,,,171,1,2025-03-03_11h04.07.395,comp,2024.2.4,57.40824790243769,2025-03-03 11h04.16.559704 -0500,
120,120,0,filler_random,None,None,None,None,None,None,None,None,None,None,3,0.7561557292938232,None,,,,,0,0,0,0,0,120,120,168,579.0083804130554,,,,,,,,,,,,,,,,,,,,,,,,,,,,,,,,,,,,,,,,,,,,,,,,,,,,,,,,,,,,,,,,,,,,,,,,,,,,,,,,,141.34815015291713,115.73100555154988,193.89208158026236,97.58786479619518,179.92199747919068,192.4718909252094,4.0,4.2,-203,-7,0,-257,241,-12,578.9936130046844,578.9936940670013,578.9974613189697,579.0083804130554,579.1600270271301,579.1600270271301,579.1600270271301,579.1600270271301,579.1600270271301,579.1600270271301,579.1600270271301,579.7684595584869,3,0.7561557292938232,None,,,,,,,,,,,,,,,,,,171,1,2025-03-03_11h04.07.395,comp,2024.2.4,57.40824790243769,2025-03-03 11h04.16.559704 -0500,
121,121,0,critical,hdw,35.0,2.1,upper,200.0,125.0,127.0,127.0,125.0,200.0,3,1.4575457572937012,None,,,,,0,0,0,0,0,121,121,45,579.7878534793854,,,,,,,,,,,,,,,,,,,,,,,,,,,,,,,,,,,,,,,,,,,,,,,,,,,,,,,,,,,,,,,,,,,,,,,,,,,,,,,,,200.0,125.0,127.0,127.0,125.0,200.0,2.1,2.11,-222,263,0,254,260,-288,579.769992351532,579.7700719833374,579.7729392051697,579.7878534793854,579.9454112052917,579.9454112052917,579.9454112052917,579.9454112052917,579.9454112052917,579.9454112052917,579.9454112052917,581.2565896511078,3,1.4575457572937012,None,,,,,,,,,,,,,,,,,,171,1,2025-03-03_11h04.07.395,comp,2024.2.4,57.40824790243769,2025-03-03 11h04.16.559704 -0500,
122,122,0,critical,dwh,20.0,4.0,lower,78.0,78.0,57.0,133.0,133.0,57.0,2,6.604178190231323,None,,,,,0,0,0,0,0,122,122,70,581.2723288536072,,,,,,,,,,,,,,,,,,,,,,,,,,,,,,,,,,,,,,,,,,,,,,,,,,,,,,,,,,,,,,,,,,,,,,,,,,,,,,,,,78.0,78.0,57.0,133.0,133.0,57.0,4.0,4.2,-202,-14,0,-274,191,-13,581.2580831050873,581.2581968307495,581.261604309082,581.2723288536072,581.4255430698395,581.4255430698395,581.4255430698395,581.4255430698395,581.4255430698395,581.4255430698395,581.4255430698395,587.8918843269348,2,6.604178190231323,None,,,,,,,,,,,,,,,,,,171,1,2025-03-03_11h04.07.395,comp,2024.2.4,57.40824790243769,2025-03-03 11h04.16.559704 -0500,
123,123,0,critical,dwh,35.0,4.0,lower,70.0,70.0,57.0,133.0,133.0,57.0,2,1.5602729320526123,None,,,,,0,0,0,0,0,123,123,64,587.9080653190613,,,,,,,,,,,,,,,,,,,,,,,,,,,,,,,,,,,,,,,,,,,,,,,,,,,,,,,,,,,,,,,,,,,,,,,,,,,,,,,,,70.0,70.0,57.0,133.0,133.0,57.0,4.0,4.2,-198,0,0,-268,191,-7,587.8933734893799,587.8934504985809,587.8974778652191,587.9080653190613,588.0592660903931,588.0592660903931,588.0592660903931,588.0592660903931,588.0592660903931,588.0592660903931,588.0592660903931,589.4886858463287,2,1.5602729320526123,None,,,,,,,,,,,,,,,,,,171,1,2025-03-03_11h04.07.395,comp,2024.2.4,57.40824790243769,2025-03-03 11h04.16.559704 -0500,
124,124,0,critical,whd,35.0,2.1,lower,57.0,133.0,133.0,57.0,70.0,70.0,2,3.1951992511749268,None,,,,,0,0,0,0,0,124,124,36,589.5062918663025,,,,,,,,,,,,,,,,,,,,,,,,,,,,,,,,,,,,,,,,,,,,,,,,,,,,,,,,,,,,,,,,,,,,,,,,,,,,,,,,,57.0,133.0,133.0,57.0,70.0,70.0,2.1,2.11,-191,278,0,275,160,-253,589.4903078079224,589.4903869628906,589.4936292171478,589.5062918663025,589.6432638168335,589.6432638168335,589.6432638168335,589.6432638168335,589.6432638168335,589.6432638168335,589.6432638168335,592.7069687843323,2,3.1951992511749268,None,,,,,,,,,,,,,,,,,,171,1,2025-03-03_11h04.07.395,comp,2024.2.4,57.40824790243769,2025-03-03 11h04.16.559704 -0500,
125,125,0,critical,hwd,35.0,2.1,upper,200.0,125.0,125.0,200.0,127.0,127.0,2,1.552757740020752,None,,,,,0,0,0,0,0,125,125,17,592.7239627838135,,,,,,,,,,,,,,,,,,,,,,,,,,,,,,,,,,,,,,,,,,,,,,,,,,,,,,,,,,,,,,,,,,,,,,,,,,,,,,,,,200.0,125.0,125.0,200.0,127.0,127.0,2.1,2.11,-258,251,0,253,260,-251,592.7085056304932,592.7085814476013,592.7113635540009,592.7239627838135,592.8652226924896,592.8652226924896,592.8652226924896,592.8652226924896,592.8652226924896,592.8652226924896,592.8652226924896,594.280350446701,2,1.552757740020752,None,,,,,,,,,,,,,,,,,,171,1,2025-03-03_11h04.07.395,comp,2024.2.4,57.40824790243769,2025-03-03 11h04.16.559704 -0500,
126,126,0,critical,whd,20.0,2.1,upper,125.0,200.0,200.0,125.0,141.0,141.0,1,3.707207202911377,None,,,,,0,0,0,0,0,126,126,15,594.2976577281952,,,,,,,,,,,,,,,,,,,,,,,,,,,,,,,,,,,,,,,,,,,,,,,,,,,,,,,,,,,,,,,,,,,,,,,,,,,,,,,,,125.0,200.0,200.0,125.0,141.0,141.0,2.1,2.11,-258,257,0,278,229,-274,594.2823736667633,594.2824506759644,594.2852597236633,594.2976577281952,594.4440412521362,594.4440412521362,594.4440412521362,594.4440412521362,594.4440412521362,594.4440412521362,594.4440412521362,598.0118374824524,1,3.707207202911377,None,,,,,,,,,,,,,,,,,,171,1,2025-03-03_11h04.07.395,comp,2024.2.4,57.40824790243769,2025-03-03 11h04.16.559704 -0500,
127,127,0,critical,whd,20.0,2.1,lower,57.0,133.0,133.0,57.0,78.0,78.0,3,5.560564279556274,None,,,,,0,0,0,0,0,127,127,38,598.0277945995331,,,,,,,,,,,,,,,,,,,,,,,,,,,,,,,,,,,,,,,,,,,,,,,,,,,,,,,,,,,,,,,,,,,,,,,,,,,,,,,,,57.0,133.0,133.0,57.0,78.0,78.0,2.1,2.11,-191,290,0,257,164,-260,598.0134224891663,598.013498544693,598.0164942741394,598.0277945995331,598.1777648925781,598.1777648925781,598.1777648925781,598.1777648925781,598.1777648925781,598.1777648925781,598.1777648925781,603.5992655754089,3,5.560564279556274,None,,,,,,,,,,,,,,,,,,171,1,2025-03-03_11h04.07.395,comp,2024.2.4,57.40824790243769,2025-03-03 11h04.16.559704 -0500,
128,128,0,filler_square,None,None,None,None,None,None,None,None,None,None,2,1.9163198471069336,None,,,,,0,0,0,0,0,128,128,187,603.6159973144531,,,,,,,,,,,,,,,,,,,,,,,,,,,,,,,,,,,,,,,,,,,,,,,,,,,,,,,,,,,,,,,,,,,,,,,,,,,,,,,,,105.77171598743693,65.72484518837281,117.73947020209948,117.73947020209948,104.1140091018004,65.37472123126082,2.1,2.12,-188,-256,0,-262,188,279,603.6013708114624,603.6014518737793,603.6046099662781,603.6159973144531,603.7622938156128,603.7622938156128,603.7622938156128,603.7622938156128,603.7622938156128,603.7622938156128,603.7622938156128,605.5464663505554,2,1.9163198471069336,None,,,,,,,,,,,,,,,,,,171,1,2025-03-03_11h04.07.395,comp,2024.2.4,57.40824790243769,2025-03-03 11h04.16.559704 -0500,
129,129,0,critical,hdw,20.0,1.0,lower,133.0,57.0,78.0,78.0,57.0,133.0,3,2.5141539573669434,None,,,,,0,0,0,0,0,129,129,114,605.5623905658722,,,,,,,,,,,,,,,,,,,,,,,,,,,,,,,,,,,,,,,,,,,,,,,,,,,,,,,,,,,,,,,,,,,,,,,,,,,,,,,,,133.0,57.0,78.0,78.0,57.0,133.0,1.0,1.1,-644,272,-480,268,-278,285,605.547997713089,605.5480737686157,605.5512039661407,605.5623905658722,605.7140667438507,605.7140667438507,605.7140667438507,605.7140667438507,605.7140667438507,605.7140667438507,605.7140667438507,608.0785622596741,3,2.5141539573669434,None,,,,,,,,,,,,,,,,,,171,1,2025-03-03_11h04.07.395,comp,2024.2.4,57.40824790243769,2025-03-03 11h04.16.559704 -0500,
130,130,0,critical,hwd,35.0,3.0,lower,133.0,57.0,57.0,133.0,70.0,70.0,2,3.1099512577056885,None,,,,,0,0,0,0,0,130,130,98,608.0952425003052,,,,,,,,,,,,,,,,,,,,,,,,,,,,,,,,,,,,,,,,,,,,,,,,,,,,,,,,,,,,,,,,,,,,,,,,,,,,,,,,,133.0,57.0,57.0,133.0,70.0,70.0,3.0,3.2,-191,-265,0,-2,198,252,608.0801258087158,608.0802307128906,608.0835361480713,608.0952425003052,608.2303893566132,608.2303893566132,608.2303893566132,608.2303893566132,608.2303893566132,608.2303893566132,608.2303893566132,611.2166016101837,2,3.1099512577056885,None,,,,,,,,,,,,,,,,,,171,1,2025-03-03_11h04.07.395,comp,2024.2.4,57.40824790243769,2025-03-03 11h04.16.559704 -0500,
131,131,0,filler_square,None,None,None,None,None,None,None,None,None,None,3,1.0916328430175781,None,,,,,0,0,0,0,0,131,131,181,611.2333941459656,,,,,,,,,,,,,,,,,,,,,,,,,,,,,,,,,,,,,,,,,,,,,,,,,,,,,,,,,,,,,,,,,,,,,,,,,,,,,,,,,175.96843070586465,66.76736266925855,67.97420634433018,117.83431941049963,180.77030547728796,180.77030547728796,3.0,3.1,-188,279,0,11,245,-270,611.2184727191925,611.2186028957367,611.2226121425629,611.2333941459656,611.3864443302155,611.3864443302155,611.3864443302155,611.3864443302155,611.3864443302155,611.3864443302155,611.3864443302155,612.3327114582062,3,1.0916328430175781,None,,,,,,,,,,,,,,,,,,171,1,2025-03-03_11h04.07.395,comp,2024.2.4,57.40824790243769,2025-03-03 11h04.16.559704 -0500,
132,132,0,filler_square,None,None,None,None,None,None,None,None,None,None,1,0.9599013328552246,None,,,,,0,0,0,0,0,132,132,198,612.3490343093872,,,,,,,,,,,,,,,,,,,,,,,,,,,,,,,,,,,,,,,,,,,,,,,,,,,,,,,,,,,,,,,,,,,,,,,,,,,,,,,,,156.74104890531436,156.74104890531436,137.03993758780427,78.23090233632773,110.5037733409602,71.7512302402115,1.0,1.3,267,-279,480,-287,651,-288,612.334653377533,612.3347296714783,612.3381752967834,612.3490343093872,612.4992101192474,612.4992101192474,612.4992101192474,612.4992101192474,612.4992101192474,612.4992101192474,612.4992101192474,613.3171148300171,1,0.9599013328552246,None,,,,,,,,,,,,,,,,,,171,1,2025-03-03_11h04.07.395,comp,2024.2.4,57.40824790243769,2025-03-03 11h04.16.559704 -0500,
133,133,0,filler_random,None,None,None,None,None,None,None,None,None,None,2,1.2801501750946045,None,,,,,0,0,0,0,0,133,133,153,613.3328647613525,,,,,,,,,,,,,,,,,,,,,,,,,,,,,,,,,,,,,,,,,,,,,,,,,,,,,,,,,,,,,,,,,,,,,,,,,,,,,,,,,180.22405549985436,131.1457702220398,146.48580930443973,197.2662627680813,75.0342916568289,199.5346037720014,3.0,3.2,-260,-257,0,9,294,273,613.3187985420227,613.3188765048981,613.3222732543945,613.3328647613525,613.488443851471,613.488443851471,613.488443851471,613.488443851471,613.488443851471,613.488443851471,613.488443851471,614.616836309433,2,1.2801501750946045,None,,,,,,,,,,,,,,,,,,171,1,2025-03-03_11h04.07.395,comp,2024.2.4,57.40824790243769,2025-03-03 11h04.16.559704 -0500,
134,134,0,filler_random,None,None,None,None,None,None,None,None,None,None,2,1.1163978576660156,None,,,,,0,0,0,0,0,134,134,136,614.6320066452026,,,,,,,,,,,,,,,,,,,,,,,,,,,,,,,,,,,,,,,,,,,,,,,,,,,,,,,,,,,,,,,,,,,,,,,,,,,,,,,,,199.48637856294513,57.0299891506795,173.7668822425339,160.94221789221555,143.16726266339873,66.15353174097692,1.0,1.3,275,-270,480,-284,690,-265,614.6185562610626,614.6186335086823,614.6220676898956,614.6320066452026,614.7840847969055,614.7840847969055,614.7840847969055,614.7840847969055,614.7840847969055,614.7840847969055,614.7840847969055,615.7698352336884,2,1.1163978576660156,None,,,,,,,,,,,,,,,,,,171,1,2025-03-03_11h04.07.395,comp,2024.2.4,57.40824790243769,2025-03-03 11h04.16.559704 -0500,
135,135,0,critical,whd,35.0,2.1,upper,125.0,200.0,200.0,125.0,127.0,127.0,1,3.3836750984191895,None,,,,,0,0,0,0,0,135,135,13,615.7886364459991,,,,,,,,,,,,,,,,,,,,,,,,,,,,,,,,,,,,,,,,,,,,,,,,,,,,,,,,,,,,,,,,,,,,,,,,,,,,,,,,,125.0,200.0,200.0,125.0,127.0,127.0,2.1,2.11,-258,270,0,285,222,-256,615.7714715003967,615.7715497016907,615.7747881412506,615.7886364459991,615.9338865280151,615.9338865280151,615.9338865280151,615.9338865280151,615.9338865280151,615.9338865280151,615.9338865280151,619.1862003803253,1,3.3836750984191895,None,,,,,,,,,,,,,,,,,,171,1,2025-03-03_11h04.07.395,comp,2024.2.4,57.40824790243769,2025-03-03 11h04.16.559704 -0500,
136,136,0,critical,whd,20.0,1.0,upper,125.0,200.0,200.0,125.0,141.0,141.0,1,1.8749418258666992,None,,,,,0,0,0,0,0,136,136,91,619.2013742923737,,,,,,,,,,,,,,,,,,,,,,,,,,,,,,,,,,,,,,,,,,,,,,,,,,,,,,,,,,,,,,,,,,,,,,,,,,,,,,,,,125.0,200.0,200.0,125.0,141.0,141.0,1.0,1.2,-258,9,0,12,229,-9,619.1878225803375,619.1878986358643,619.1910631656647,619.2013742923737,619.350980758667,619.350980758667,619.350980758667,619.350980758667,619.350980758667,619.350980758667,619.350980758667,621.0895607471466,1,1.8749418258666992,None,,,,,,,,,,,,,,,,,,171,1,2025-03-03_11h04.07.395,comp,2024.2.4,57.40824790243769,2025-03-03 11h04.16.559704 -0500,
137,137,0,filler_square,None,None,None,None,None,None,None,None,None,None,2,3.6917378902435303,None,,,,,0,0,0,0,0,137,137,202,621.105229139328,,,,,,,,,,,,,,,,,,,,,,,,,,,,,,,,,,,,,,,,,,,,,,,,,,,,,,,,,,,,,,,,,,,,,,,,,,,,,,,,,77.2333407798354,76.74544995912517,77.55502428031079,77.55502428031079,73.62546216916442,64.87003604541907,2.1,2.11,-173,280,0,283,167,-265,621.09162068367,621.091698884964,621.0948786735535,621.105229139328,621.2562704086304,621.2562704086304,621.2562704086304,621.2562704086304,621.2562704086304,621.2562704086304,621.2562704086304,624.8056943416595,2,3.6917378902435303,None,,,,,,,,,,,,,,,,,,171,1,2025-03-03_11h04.07.395,comp,2024.2.4,57.40824790243769,2025-03-03 11h04.16.559704 -0500,
138,138,0,critical,dwh,20.0,1.0,upper,141.0,141.0,125.0,200.0,200.0,125.0,2,6.53436803817749,None,,,,,0,0,0,0,0,138,138,67,624.8223493099213,,,,,,,,,,,,,,,,,,,,,,,,,,,,,,,,,,,,,,,,,,,,,,,,,,,,,,,,,,,,,,,,,,,,,,,,,,,,,,,,,141.0,141.0,125.0,200.0,200.0,125.0,1.0,1.3,214,-272,480,-285,738,-279,624.8077521324158,624.807873249054,624.8107793331146,624.8223493099213,624.9708774089813,624.9708774089813,624.9708774089813,624.9708774089813,624.9708774089813,624.9708774089813,624.9708774089813,631.3743581771851,2,6.53436803817749,None,,,,,,,,,,,,,,,,,,171,1,2025-03-03_11h04.07.395,comp,2024.2.4,57.40824790243769,2025-03-03 11h04.16.559704 -0500,
139,139,0,critical,dhw,20.0,1.0,lower,78.0,78.0,133.0,57.0,57.0,133.0,3,5.350228309631348,None,,,,,0,0,0,0,0,139,139,54,631.3902113437653,,,,,,,,,,,,,,,,,,,,,,,,,,,,,,,,,,,,,,,,,,,,,,,,,,,,,,,,,,,,,,,,,,,,,,,,,,,,,,,,,78.0,78.0,133.0,57.0,57.0,133.0,1.0,1.1,-644,275,-480,252,-289,261,631.3760344982147,631.3761143684387,631.3799059391022,631.3902113437653,631.5375428199768,631.5375428199768,631.5375428199768,631.5375428199768,631.5375428199768,631.5375428199768,631.5375428199768,636.7570819854736,3,5.350228309631348,None,,,,,,,,,,,,,,,,,,171,1,2025-03-03_11h04.07.395,comp,2024.2.4,57.40824790243769,2025-03-03 11h04.16.559704 -0500,
