thisN,thisTrialN,thisRepN,effect,order,distance,config,diag,h_1,w_1,h_2,w_2,h_3,w_3,rect_choice.keys,rect_choice.rt,rect_choice.duration,instructions_loop.thisRepN,instructions_loop.thisTrialN,instructions_loop.thisN,instructions_loop.thisIndex,blocks.thisRepN,blocks.thisTrialN,blocks.thisN,blocks.thisIndex,trials.thisRepN,trials.thisTrialN,trials.thisN,trials.thisIndex,thisRow.t,notes,consent.started,agree_button.started,decline_button.started,consent_img.started,mouse.started,consent.stopped,agree_button.numClicks,agree_button.timesOn,agree_button.timesOff,decline_button.numClicks,decline_button.timesOn,decline_button.timesOff,mouse.x,mouse.y,mouse.leftButton,mouse.midButton,mouse.rightButton,mouse.time,mouse.clicked_name,exp_params.started,exp_params.stopped,welcome.started,welcome_text.started,welcome_text.stopped,welcome.stopped,instructions_1.started,instructions_1_text_1.started,instructions_1_text_2.started,key_resp.started,instructions_1.stopped,instructions_loop.key_resp.keys,instructions_loop.key_resp.rt,instructions_loop.key_resp.duration,instructions_2.started,instructions_2_text_1.started,instructions_2_text_2.started,key_resp_2.started,instructions_2.stopped,instructions_loop.key_resp_2.keys,instructions_loop.key_resp_2.rt,instructions_loop.key_resp_2.duration,instructions_3.started,instructions_3_text_1.started,r1_instr3.started,r2_instr3.started,r3_instr3.started,r1_instr3_label.started,r2_instr3_label.started,r3_instr3_label.started,instructions_3_text_3.started,instructions_3_text_4.started,key_resp_3.started,instructions_3.stopped,instructions_loop.key_resp_3.keys,instructions_loop.key_resp_3.rt,instructions_loop.key_resp_3.duration,instructions_4.started,instructions_4_text_1.started,instructions_4_text_3.started,instructions_4_text_2.started,key_resp_4.started,instructions_4.stopped,instructions_loop.key_resp_4.keys,instructions_loop.key_resp_4.rt,instructions_loop.key_resp_4.duration,instructions_5.started,instructions_5_text_1.started,instructions_5_text_2.started,key_resp_5.started,instructions_5.stopped,instructions_loop.key_resp_5.keys,instructions_loop.key_resp_5.rt,instructions_loop.key_resp_5.duration,start_exp.started,start_exp_text.started,key_resp_6.started,start_exp.stopped,key_resp_6.keys,key_resp_6.rt,key_resp_6.duration,h_1_tmp,w_1_tmp,h_2_tmp,w_2_tmp,h_3_tmp,w_3_tmp,config_tmp,config_tmp_1,r_1_x,r_1_y,r_2_x,r_2_y,r_3_x,r_3_y,pre_trial.started,pre_trial.stopped,choice_trial.started,rect_choice.started,r_1.started,r_2.started,r_3.started,r_1_label.started,r_2_label.started,r_3_label.started,prompt.started,choice_trial.stopped,trials.rect_choice.keys,trials.rect_choice.rt,trials.rect_choice.duration,end_block.started,end_block_text.started,end_block.stopped,end.started,end_text.started,key_resp_7.started,end.stopped,key_resp_7.keys,key_resp_7.rt,key_resp_7.duration,debriefing.started,debrief_form.started,end_debrief.started,debriefing.stopped,end_debrief.keys,end_debrief.rt,end_debrief.duration,participant,computer,date,expName,psychopyVersion,frameRate,expStart,
,,,,,,,,,,,,,,,,,,,,,,,,,,,,,,,0.015036821365356445,0.03889799118041992,0.03889799118041992,0.03889799118041992,0.014805793762207031,29.952653169631958,1,[29.91134738922119],[29.911367893218994],0,,,[-85.0],[-508.0],[1],[0],[0],[29.93709945678711],['agree_button'],,,,,,,,,,,,,,,,,,,,,,,,,,,,,,,,,,,,,,,,,,,,,,,,,,,,,,,,,,,,,,,,,,,,,,,,,,,,,,,,,,,,,,,,,,,,,,,,,,,,,,,,,,,,172,1,2025-03-03_12h53.05.394,comp,2024.2.4,57.44339277668137,2025-03-03 12h53.13.861902 -0500,
,,,,,,,,,,,,,,,,,,,,,,,,,,,,,,,,,,,,,,,,,,,,,,,,,,29.953209400177002,29.953269243240356,,,,,,,,,,,,,,,,,,,,,,,,,,,,,,,,,,,,,,,,,,,,,,,,,,,,,,,,,,,,,,,,,,,,,,,,,,,,,,,,,,,,,,,,,,,,,,,,,,,,,,,,,,172,1,2025-03-03_12h53.05.394,comp,2024.2.4,57.44339277668137,2025-03-03 12h53.13.861902 -0500,
,,,,,,,,,,,,,,,,,,,,,,,,,,,,,,,,,,,,,,,,,,,,,,,,,,,,29.953309297561646,29.966577768325806,31.970187664031982,31.94961905479431,,,,,,,,,,,,,,,,,,,,,,,,,,,,,,,,,,,,,,,,,,,,,,,,,,,,,,,,,,,,,,,,,,,,,,,,,,,,,,,,,,,,,,,,,,,,,,,,,,,,,,172,1,2025-03-03_12h53.05.394,comp,2024.2.4,57.44339277668137,2025-03-03 12h53.13.861902 -0500,
0,0,0,,,,,,,,,,,,,,,0,0,0,0,,,,,,,,,31.970187664031982,,,,,,,,,,,,,,,,,,,,,,,,,,,31.95052146911621,31.970187664031982,31.970187664031982,33.46628499031067,36.037960052490234,space,2.560248374938965,None,36.03810429573059,36.05362367630005,36.05362367630005,37.551025390625,40.65247941017151,space,3.0984995365142822,None,40.652668952941895,40.68722701072693,40.68722701072693,40.68722701072693,40.68722701072693,40.68722701072693,40.68722701072693,40.68722701072693,40.68722701072693,40.68722701072693,42.15606498718262,45.69198036193848,space,3.5331673622131348,None,45.69216346740723,45.70947551727295,45.70947551727295,45.70947551727295,47.20560050010681,48.92376089096069,space,1.7152776718139648,None,48.92392539978027,48.93914222717285,48.93914222717285,50.4375741481781,50.891456842422485,space,0.4512302875518799,None,50.89168429374695,50.90666580200195,50.90666580200195,52.99218940734863,space,2.07867693901062,None,,,,,,,,,,,,,,,,,,,,,,,,,,,,,,,,,,,,,,,,,,,,,,,172,1,2025-03-03_12h53.05.394,comp,2024.2.4,57.44339277668137,2025-03-03 12h53.13.861902 -0500,
0,0,0,critical,wdh,35.0,1.0,lower,57.0,133.0,70.0,70.0,133.0,57.0,3,8.482340097427368,None,,,,,0,0,0,0,0,0,0,72,53.07073760032654,,,,,,,,,,,,,,,,,,,,,,,,,,,,,,,,,,,,,,,,,,,,,,,,,,,,,,,,,,,,,,,,,,,,,,,,,,,,,,,,,,57.0,133.0,70.0,70.0,133.0,57.0,1.0,1.2,-198,-6,0,-2,160,19,53.05362391471863,53.05367040634155,53.055538177490234,53.07073760032654,53.21681499481201,53.21681499481201,53.21681499481201,53.21681499481201,53.21681499481201,53.21681499481201,53.21681499481201,61.56157183647156,3,8.482340097427368,None,,,,,,,,,,,,,,,,,,172,1,2025-03-03_12h53.05.394,comp,2024.2.4,57.44339277668137,2025-03-03 12h53.13.861902 -0500,
1,1,0,critical,wdh,35.0,1.0,upper,125.0,200.0,127.0,127.0,200.0,125.0,1,4.7273523807525635,None,,,,,0,0,0,0,0,1,1,73,61.577449560165405,,,,,,,,,,,,,,,,,,,,,,,,,,,,,,,,,,,,,,,,,,,,,,,,,,,,,,,,,,,,,,,,,,,,,,,,,,,,,,,,,,125.0,200.0,127.0,127.0,200.0,125.0,1.0,1.3,220,-281,480,-280,702,-275,61.563064098358154,61.563138246536255,61.566694259643555,61.577449560165405,61.728381633758545,61.728381633758545,61.728381633758545,61.728381633758545,61.728381633758545,61.728381633758545,61.728381633758545,66.31781721115112,1,4.7273523807525635,None,,,,,,,,,,,,,,,,,,172,1,2025-03-03_12h53.05.394,comp,2024.2.4,57.44339277668137,2025-03-03 12h53.13.861902 -0500,
2,2,0,critical,whd,20.0,2.1,lower,57.0,133.0,133.0,57.0,78.0,78.0,2,4.690935850143433,None,,,,,0,0,0,0,0,2,2,38,66.3343026638031,,,,,,,,,,,,,,,,,,,,,,,,,,,,,,,,,,,,,,,,,,,,,,,,,,,,,,,,,,,,,,,,,,,,,,,,,,,,,,,,,,57.0,133.0,133.0,57.0,78.0,78.0,2.1,2.11,-191,265,0,252,164,-288,66.31984496116638,66.3199245929718,66.32318186759949,66.3343026638031,66.47836923599243,66.47836923599243,66.47836923599243,66.47836923599243,66.47836923599243,66.47836923599243,66.47836923599243,71.03376936912537,2,4.690935850143433,None,,,,,,,,,,,,,,,,,,172,1,2025-03-03_12h53.05.394,comp,2024.2.4,57.44339277668137,2025-03-03 12h53.13.861902 -0500,
3,3,0,catch,None,None,None,None,None,None,None,None,None,None,3,2.6892476081848145,None,,,,,0,0,0,0,0,3,3,128,71.05564141273499,,,,,,,,,,,,,,,,,,,,,,,,,,,,,,,,,,,,,,,,,,,,,,,,,,,,,,,,,,,,,,,,,,,,,,,,,,,,,,,,,,133,57,110,80,131,194,3.0,3.1,-164,258,0,-19,233,-255,71.03597927093506,71.0361008644104,71.03987193107605,71.05564141273499,71.19864392280579,71.19864392280579,71.19864392280579,71.19864392280579,71.19864392280579,71.19864392280579,71.19864392280579,73.75021839141846,3,2.6892476081848145,None,,,,,,,,,,,,,,,,,,172,1,2025-03-03_12h53.05.394,comp,2024.2.4,57.44339277668137,2025-03-03 12h53.13.861902 -0500,
4,4,0,filler_square,None,None,None,None,None,None,None,None,None,None,1,3.5189521312713623,None,,,,,0,0,0,0,0,4,4,184,73.77000260353088,,,,,,,,,,,,,,,,,,,,,,,,,,,,,,,,,,,,,,,,,,,,,,,,,,,,,,,,,,,,,,,,,,,,,,,,,,,,,,,,,,69.98398175734579,70.92080356967578,61.10629499266456,69.92337707857328,71.29068356721527,71.29068356721527,2.1,2.11,-166,262,0,255,167,-262,73.75239443778992,73.75247383117676,73.75626397132874,73.77000260353088,73.91500639915466,73.91500639915466,73.91500639915466,73.91500639915466,73.91500639915466,73.91500639915466,73.91500639915466,77.29929804801941,1,3.5189521312713623,None,,,,,,,,,,,,,,,,,,172,1,2025-03-03_12h53.05.394,comp,2024.2.4,57.44339277668137,2025-03-03 12h53.13.861902 -0500,
5,5,0,filler_random,None,None,None,None,None,None,None,None,None,None,2,3.5478079319000244,None,,,,,0,0,0,0,0,5,5,156,77.31708312034607,,,,,,,,,,,,,,,,,,,,,,,,,,,,,,,,,,,,,,,,,,,,,,,,,,,,,,,,,,,,,,,,,,,,,,,,,,,,,,,,,,101.50566964791648,156.4886936625719,164.04109880298375,104.44762311610532,72.60064033894088,153.27386050285702,2.2,2.21,-226,-268,0,254,225,267,77.30133843421936,77.30141925811768,77.30530524253845,77.31708312034607,77.46635389328003,77.46635389328003,77.46635389328003,77.46635389328003,77.46635389328003,77.46635389328003,77.46635389328003,80.86767792701721,2,3.5478079319000244,None,,,,,,,,,,,,,,,,,,172,1,2025-03-03_12h53.05.394,comp,2024.2.4,57.44339277668137,2025-03-03 12h53.13.861902 -0500,
6,6,0,critical,whd,35.0,3.0,lower,57.0,133.0,133.0,57.0,70.0,70.0,1,3.972656488418579,None,,,,,0,0,0,0,0,6,6,86,80.88462424278259,,,,,,,,,,,,,,,,,,,,,,,,,,,,,,,,,,,,,,,,,,,,,,,,,,,,,,,,,,,,,,,,,,,,,,,,,,,,,,,,,,57.0,133.0,133.0,57.0,70.0,70.0,3.0,3.1,-191,283,0,2,160,-271,80.86927652359009,80.86935496330261,80.87380647659302,80.88462424278259,81.03433012962341,81.03433012962341,81.03433012962341,81.03433012962341,81.03433012962341,81.03433012962341,81.03433012962341,84.8595974445343,1,3.972656488418579,None,,,,,,,,,,,,,,,,,,172,1,2025-03-03_12h53.05.394,comp,2024.2.4,57.44339277668137,2025-03-03 12h53.13.861902 -0500,
7,7,0,catch,None,None,None,None,None,None,None,None,None,None,1,2.197875499725342,None,,,,,0,0,0,0,0,7,7,120,84.875657081604,,,,,,,,,,,,,,,,,,,,,,,,,,,,,,,,,,,,,,,,,,,,,,,,,,,,,,,,,,,,,,,,,,,,,,,,,,,,,,,,,,183,142,115,75,126,64,1.0,1.3,276,-281,480,-265,646,-277,84.86149978637695,84.86161017417908,84.86477971076965,84.875657081604,85.01917839050293,85.01917839050293,85.01917839050293,85.01917839050293,85.01917839050293,85.01917839050293,85.01917839050293,87.08014225959778,1,2.197875499725342,None,,,,,,,,,,,,,,,,,,172,1,2025-03-03_12h53.05.394,comp,2024.2.4,57.44339277668137,2025-03-03 12h53.13.861902 -0500,
8,8,0,filler_square,None,None,None,None,None,None,None,None,None,None,2,3.206308603286743,None,,,,,0,0,0,0,0,8,8,176,87.09903907775879,,,,,,,,,,,,,,,,,,,,,,,,,,,,,,,,,,,,,,,,,,,,,,,,,,,,,,,,,,,,,,,,,,,,,,,,,,,,,,,,,,88.3057071900786,62.75396502225759,110.87649796414476,110.87649796414476,58.71842318424864,99.07968866286018,4.0,4.2,-183,12,0,-280,201,-11,87.0822012424469,87.08228087425232,87.08590388298035,87.09903907775879,87.23789072036743,87.23789072036743,87.23789072036743,87.23789072036743,87.23789072036743,87.23789072036743,87.23789072036743,90.31521081924438,2,3.206308603286743,None,,,,,,,,,,,,,,,,,,172,1,2025-03-03_12h53.05.394,comp,2024.2.4,57.44339277668137,2025-03-03 12h53.13.861902 -0500,
9,9,0,critical,dwh,20.0,2.1,lower,78.0,78.0,57.0,133.0,133.0,57.0,2,5.243753433227539,None,,,,,0,0,0,0,0,9,9,30,90.33314085006714,,,,,,,,,,,,,,,,,,,,,,,,,,,,,,,,,,,,,,,,,,,,,,,,,,,,,,,,,,,,,,,,,,,,,,,,,,,,,,,,,,78.0,78.0,57.0,133.0,133.0,57.0,2.1,2.12,-202,-285,0,-271,191,288,90.31680607795715,90.31688570976257,90.32006001472473,90.33314085006714,90.48482370376587,90.48482370376587,90.48482370376587,90.48482370376587,90.48482370376587,90.48482370376587,90.48482370376587,95.58986234664917,2,5.243753433227539,None,,,,,,,,,,,,,,,,,,172,1,2025-03-03_12h53.05.394,comp,2024.2.4,57.44339277668137,2025-03-03 12h53.13.861902 -0500,
10,10,0,filler_square,None,None,None,None,None,None,None,None,None,None,3,2.3618903160095215,None,,,,,0,0,0,0,0,10,10,207,95.60745406150818,,,,,,,,,,,,,,,,,,,,,,,,,,,,,,,,,,,,,,,,,,,,,,,,,,,,,,,,,,,,,,,,,,,,,,,,,,,,,,,,,,143.79454126094834,150.0368223146806,110.70107425318643,143.17897026127872,153.00391322885105,153.00391322885105,4.0,4.2,-243,17,0,-279,244,1,95.59154868125916,95.59165406227112,95.59460663795471,95.60745406150818,95.75567960739136,95.75567960739136,95.75567960739136,95.75567960739136,95.75567960739136,95.75567960739136,95.75567960739136,97.97195315361023,3,2.3618903160095215,None,,,,,,,,,,,,,,,,,,172,1,2025-03-03_12h53.05.394,comp,2024.2.4,57.44339277668137,2025-03-03 12h53.13.861902 -0500,
11,11,0,filler_square,None,None,None,None,None,None,None,None,None,None,1,1.2825236320495605,None,,,,,0,0,0,0,0,11,11,201,97.99033880233765,,,,,,,,,,,,,,,,,,,,,,,,,,,,,,,,,,,,,,,,,,,,,,,,,,,,,,,,,,,,,,,,,,,,,,,,,,,,,,,,,,193.07738059792212,193.07738059792212,120.32731940330572,149.59521740710065,109.93192964678764,173.95127332358422,4.0,4.2,-267,12,0,-257,258,10,97.974045753479,97.97412729263306,97.97793197631836,97.99033880233765,98.14132690429688,98.14132690429688,98.14132690429688,98.14132690429688,98.14132690429688,98.14132690429688,98.14132690429688,99.28923439979553,1,1.2825236320495605,None,,,,,,,,,,,,,,,,,,172,1,2025-03-03_12h53.05.394,comp,2024.2.4,57.44339277668137,2025-03-03 12h53.13.861902 -0500,
12,12,0,filler_random,None,None,None,None,None,None,None,None,None,None,2,1.3964247703552246,None,,,,,0,0,0,0,0,12,12,138,99.30925393104553,,,,,,,,,,,,,,,,,,,,,,,,,,,,,,,,,,,,,,,,,,,,,,,,,,,,,,,,,,,,,,,,,,,,,,,,,,,,,,,,,,62.16759209880061,108.95295694424198,179.2408164282137,158.03731441503294,93.67645178885586,116.95428162008861,2.2,2.21,-229,-286,0,262,233,251,99.2910840511322,99.29116010665894,99.29471468925476,99.30925393104553,99.45714688301086,99.45714688301086,99.45714688301086,99.45714688301086,99.45714688301086,99.45714688301086,99.45714688301086,100.71129727363586,2,1.3964247703552246,None,,,,,,,,,,,,,,,,,,172,1,2025-03-03_12h53.05.394,comp,2024.2.4,57.44339277668137,2025-03-03 12h53.13.861902 -0500,
13,13,0,critical,hdw,35.0,4.0,upper,200.0,125.0,127.0,127.0,125.0,200.0,1,4.229613304138184,None,,,,,0,0,0,0,0,13,13,113,100.73220872879028,,,,,,,,,,,,,,,,,,,,,,,,,,,,,,,,,,,,,,,,,,,,,,,,,,,,,,,,,,,,,,,,,,,,,,,,,,,,,,,,,,200.0,125.0,127.0,127.0,125.0,200.0,4.0,4.1,-222,-288,0,8,260,-252,100.71305418014526,100.7131655216217,100.71674180030823,100.73220872879028,100.87404131889343,100.87404131889343,100.87404131889343,100.87404131889343,100.87404131889343,100.87404131889343,100.87404131889343,104.96994066238403,1,4.229613304138184,None,,,,,,,,,,,,,,,,,,172,1,2025-03-03_12h53.05.394,comp,2024.2.4,57.44339277668137,2025-03-03 12h53.13.861902 -0500,
14,14,0,filler_random,None,None,None,None,None,None,None,None,None,None,2,2.278846502304077,None,,,,,0,0,0,0,0,14,14,165,104.98718166351318,,,,,,,,,,,,,,,,,,,,,,,,,,,,,,,,,,,,,,,,,,,,,,,,,,,,,,,,,,,,,,,,,,,,,,,,,,,,,,,,,,198.71657264979834,86.59304205167975,176.88007335832026,167.84914847420404,180.57917852582582,128.11958858466895,1.0,1.2,-223,9,0,19,244,6,104.97174763679504,104.97188472747803,104.97542428970337,104.98718166351318,105.12595081329346,105.12595081329346,105.12595081329346,105.12595081329346,105.12595081329346,105.12595081329346,105.12595081329346,107.27285766601562,2,2.278846502304077,None,,,,,,,,,,,,,,,,,,172,1,2025-03-03_12h53.05.394,comp,2024.2.4,57.44339277668137,2025-03-03 12h53.13.861902 -0500,
15,15,0,filler_random,None,None,None,None,None,None,None,None,None,None,2,2.2386746406555176,None,,,,,0,0,0,0,0,15,15,141,107.29031038284302,,,,,,,,,,,,,,,,,,,,,,,,,,,,,,,,,,,,,,,,,,,,,,,,,,,,,,,,,,,,,,,,,,,,,,,,,,,,,,,,,,66.05488246970309,57.58174679707069,163.52148911794228,124.95620812719982,68.3332170810985,197.16659295222271,1.0,1.1,-667,252,-480,279,-223,274,107.2746193408966,107.27469730377197,107.2778868675232,107.29031038284302,107.42671298980713,107.42671298980713,107.42671298980713,107.42671298980713,107.42671298980713,107.42671298980713,107.42671298980713,109.54899835586548,2,2.2386746406555176,None,,,,,,,,,,,,,,,,,,172,1,2025-03-03_12h53.05.394,comp,2024.2.4,57.44339277668137,2025-03-03 12h53.13.861902 -0500,
16,16,0,filler_square,None,None,None,None,None,None,None,None,None,None,2,2.0693252086639404,None,,,,,0,0,0,0,0,16,16,195,109.56457781791687,,,,,,,,,,,,,,,,,,,,,,,,,,,,,,,,,,,,,,,,,,,,,,,,,,,,,,,,,,,,,,,,,,,,,,,,,,,,,,,,,,72.75739677720541,64.95382801770654,106.96304388366634,106.96304388366634,88.89987172091743,86.29513499735876,2.1,2.11,-182,251,0,257,193,-263,109.55085563659668,109.55093336105347,109.55413341522217,109.56457781791687,109.7094931602478,109.7094931602478,109.7094931602478,109.7094931602478,109.7094931602478,109.7094931602478,109.7094931602478,111.64497256278992,2,2.0693252086639404,None,,,,,,,,,,,,,,,,,,172,1,2025-03-03_12h53.05.394,comp,2024.2.4,57.44339277668137,2025-03-03 12h53.13.861902 -0500,
17,17,0,filler_square,None,None,None,None,None,None,None,None,None,None,3,2.155005693435669,None,,,,,0,0,0,0,0,17,17,175,111.66193652153015,,,,,,,,,,,,,,,,,,,,,,,,,,,,,,,,,,,,,,,,,,,,,,,,,,,,,,,,,,,,,,,,,,,,,,,,,,,,,,,,,,61.61553047592187,161.88138579963976,60.172897301722166,64.51787782182281,168.12689732167172,168.12689732167172,4.0,4.2,-209,1,0,-267,212,-15,111.64709138870239,111.6472270488739,111.65108561515808,111.66193652153015,111.81227707862854,111.81227707862854,111.81227707862854,111.81227707862854,111.81227707862854,111.81227707862854,111.81227707862854,113.83779764175415,3,2.155005693435669,None,,,,,,,,,,,,,,,,,,172,1,2025-03-03_12h53.05.394,comp,2024.2.4,57.44339277668137,2025-03-03 12h53.13.861902 -0500,
18,18,0,filler_random,None,None,None,None,None,None,None,None,None,None,3,1.847393274307251,None,,,,,0,0,0,0,0,18,18,159,113.85818123817444,,,,,,,,,,,,,,,,,,,,,,,,,,,,,,,,,,,,,,,,,,,,,,,,,,,,,,,,,,,,,,,,,,,,,,,,,,,,,,,,,,127.76343450129947,102.91618297832918,182.9059078714169,73.1888298405459,166.21531456399532,193.90660598892407,4.0,4.2,-184,10,0,-273,230,-18,113.83956146240234,113.83964276313782,113.84288167953491,113.85818123817444,113.99422931671143,113.99422931671143,113.99422931671143,113.99422931671143,113.99422931671143,113.99422931671143,113.99422931671143,115.71086025238037,3,1.847393274307251,None,,,,,,,,,,,,,,,,,,172,1,2025-03-03_12h53.05.394,comp,2024.2.4,57.44339277668137,2025-03-03 12h53.13.861902 -0500,
19,19,0,critical,whd,35.0,2.1,lower,57.0,133.0,133.0,57.0,70.0,70.0,2,1.9421846866607666,None,,,,,0,0,0,0,0,19,19,12,115.73147583007812,,,,,,,,,,,,,,,,,,,,,,,,,,,,,,,,,,,,,,,,,,,,,,,,,,,,,,,,,,,,,,,,,,,,,,,,,,,,,,,,,,57.0,133.0,133.0,57.0,70.0,70.0,2.1,2.12,-191,-285,0,-271,160,272,115.71239495277405,115.71247506141663,115.71596622467041,115.73147583007812,115.86770129203796,115.86770129203796,115.86770129203796,115.86770129203796,115.86770129203796,115.86770129203796,115.86770129203796,117.6795744895935,2,1.9421846866607666,None,,,,,,,,,,,,,,,,,,172,1,2025-03-03_12h53.05.394,comp,2024.2.4,57.44339277668137,2025-03-03 12h53.13.861902 -0500,
20,20,0,critical,dhw,35.0,2.1,upper,127.0,127.0,200.0,125.0,125.0,200.0,3,1.817333459854126,None,,,,,0,0,0,0,0,20,20,1,117.69592118263245,,,,,,,,,,,,,,,,,,,,,,,,,,,,,,,,,,,,,,,,,,,,,,,,,,,,,,,,,,,,,,,,,,,,,,,,,,,,,,,,,,127.0,127.0,200.0,125.0,125.0,200.0,2.1,2.12,-222,-257,0,-253,258,265,117.68113565444946,117.681236743927,117.68510675430298,117.69592118263245,117.84442830085754,117.84442830085754,117.84442830085754,117.84442830085754,117.84442830085754,117.84442830085754,117.84442830085754,119.51978206634521,3,1.817333459854126,None,,,,,,,,,,,,,,,,,,172,1,2025-03-03_12h53.05.394,comp,2024.2.4,57.44339277668137,2025-03-03 12h53.13.861902 -0500,
21,21,0,filler_random,None,None,None,None,None,None,None,None,None,None,3,2.3040521144866943,None,,,,,0,0,0,0,0,21,21,150,119.53757429122925,,,,,,,,,,,,,,,,,,,,,,,,,,,,,,,,,,,,,,,,,,,,,,,,,,,,,,,,,,,,,,,,,,,,,,,,,,,,,,,,,,135.49116889433327,170.1903090802736,124.5064711266656,128.80613772492495,169.56516391371147,127.79723071067205,1.0,1.3,235,-283,480,-265,704,-256,119.52145504951477,119.521559715271,119.5246958732605,119.53757429122925,119.67941546440125,119.67941546440125,119.67941546440125,119.67941546440125,119.67941546440125,119.67941546440125,119.67941546440125,121.84653639793396,3,2.3040521144866943,None,,,,,,,,,,,,,,,,,,172,1,2025-03-03_12h53.05.394,comp,2024.2.4,57.44339277668137,2025-03-03 12h53.13.861902 -0500,
22,22,0,critical,dwh,20.0,2.1,upper,141.0,141.0,125.0,200.0,200.0,125.0,3,2.265868663787842,None,,,,,0,0,0,0,0,22,22,7,121.86311769485474,,,,,,,,,,,,,,,,,,,,,,,,,,,,,,,,,,,,,,,,,,,,,,,,,,,,,,,,,,,,,,,,,,,,,,,,,,,,,,,,,,141.0,141.0,125.0,200.0,200.0,125.0,2.1,2.12,-266,-266,0,-252,258,267,121.84805631637573,121.84813618659973,121.85148453712463,121.86311769485474,122.01930737495422,122.01930737495422,122.01930737495422,122.01930737495422,122.01930737495422,122.01930737495422,122.01930737495422,124.1479012966156,3,2.265868663787842,None,,,,,,,,,,,,,,,,,,172,1,2025-03-03_12h53.05.394,comp,2024.2.4,57.44339277668137,2025-03-03 12h53.13.861902 -0500,
23,23,0,filler_random,None,None,None,None,None,None,None,None,None,None,3,2.1810142993927,None,,,,,0,0,0,0,0,23,23,137,124.16474986076355,,,,,,,,,,,,,,,,,,,,,,,,,,,,,,,,,,,,,,,,,,,,,,,,,,,,,,,,,,,,,,,,,,,,,,,,,,,,,,,,,,112.74292539651765,70.25436196833837,170.25654251633108,106.48096908756801,191.9519890701976,197.45498043634856,2.2,2.22,-184,281,0,-276,248,-289,124.14970684051514,124.14978337287903,124.15305542945862,124.16474986076355,124.31776332855225,124.31776332855225,124.31776332855225,124.31776332855225,124.31776332855225,124.31776332855225,124.31776332855225,126.35587096214294,3,2.1810142993927,None,,,,,,,,,,,,,,,,,,172,1,2025-03-03_12h53.05.394,comp,2024.2.4,57.44339277668137,2025-03-03 12h53.13.861902 -0500,
24,24,0,critical,whd,20.0,1.0,lower,57.0,133.0,133.0,57.0,78.0,78.0,2,2.747344732284546,None,,,,,0,0,0,0,0,24,24,90,126.37378764152527,,,,,,,,,,,,,,,,,,,,,,,,,,,,,,,,,,,,,,,,,,,,,,,,,,,,,,,,,,,,,,,,,,,,,,,,,,,,,,,,,,57.0,133.0,133.0,57.0,78.0,78.0,1.0,1.1,-671,255,-480,265,-316,279,126.35746788978577,126.35758423805237,126.36078453063965,126.37378764152527,126.51182961463928,126.51182961463928,126.51182961463928,126.51182961463928,126.51182961463928,126.51182961463928,126.51182961463928,129.1319603919983,2,2.747344732284546,None,,,,,,,,,,,,,,,,,,172,1,2025-03-03_12h53.05.394,comp,2024.2.4,57.44339277668137,2025-03-03 12h53.13.861902 -0500,
25,25,0,filler_square,None,None,None,None,None,None,None,None,None,None,1,2.4970786571502686,None,,,,,0,0,0,0,0,25,25,204,129.15249967575073,,,,,,,,,,,,,,,,,,,,,,,,,,,,,,,,,,,,,,,,,,,,,,,,,,,,,,,,,,,,,,,,,,,,,,,,,,,,,,,,,,193.29244318363519,193.29244318363519,77.44541096663691,71.74235088119596,115.6460107019477,123.92839438862669,2.2,2.21,-229,-258,0,254,194,282,129.13388419151306,129.13396453857422,129.1373221874237,129.15249967575073,129.29895496368408,129.29895496368408,129.29895496368408,129.29895496368408,129.29895496368408,129.29895496368408,129.29895496368408,131.65978813171387,1,2.4970786571502686,None,,,,,,,,,,,,,,,,,,172,1,2025-03-03_12h53.05.394,comp,2024.2.4,57.44339277668137,2025-03-03 12h53.13.861902 -0500,
26,26,0,filler_random,None,None,None,None,None,None,None,None,None,None,2,1.8836560249328613,None,,,,,0,0,0,0,0,26,26,142,131.67790341377258,,,,,,,,,,,,,,,,,,,,,,,,,,,,,,,,,,,,,,,,,,,,,,,,,,,,,,,,,,,,,,,,,,,,,,,,,,,,,,,,,,92.75336777281665,85.05193467524015,162.7731066696983,141.44477512758345,82.88948423423518,64.17774704856842,1.0,1.2,-209,14,0,6,199,17,131.66141533851624,131.66149520874023,131.66470503807068,131.67790341377258,131.81781387329102,131.81781387329102,131.81781387329102,131.81781387329102,131.81781387329102,131.81781387329102,131.81781387329102,133.56663417816162,2,1.8836560249328613,None,,,,,,,,,,,,,,,,,,172,1,2025-03-03_12h53.05.394,comp,2024.2.4,57.44339277668137,2025-03-03 12h53.13.861902 -0500,
27,27,0,filler_square,None,None,None,None,None,None,None,None,None,None,2,2.2340545654296875,None,,,,,0,0,0,0,0,27,27,174,133.58364081382751,,,,,,,,,,,,,,,,,,,,,,,,,,,,,,,,,,,,,,,,,,,,,,,,,,,,,,,,,,,,,,,,,,,,,,,,,,,,,,,,,,127.02248378810836,125.82237562411473,136.48450658669117,136.48450658669117,113.21158094960663,127.90985358736609,4.0,4.2,-227,7,0,-255,228,-6,133.5684289932251,133.56852865219116,133.57204866409302,133.58364081382751,133.73988819122314,133.73988819122314,133.73988819122314,133.73988819122314,133.73988819122314,133.73988819122314,133.73988819122314,135.82588982582092,2,2.2340545654296875,None,,,,,,,,,,,,,,,,,,172,1,2025-03-03_12h53.05.394,comp,2024.2.4,57.44339277668137,2025-03-03 12h53.13.861902 -0500,
28,28,0,critical,hdw,35.0,2.1,upper,200.0,125.0,127.0,127.0,125.0,200.0,1,2.5286710262298584,None,,,,,0,0,0,0,0,28,28,45,135.84152626991272,,,,,,,,,,,,,,,,,,,,,,,,,,,,,,,,,,,,,,,,,,,,,,,,,,,,,,,,,,,,,,,,,,,,,,,,,,,,,,,,,,200.0,125.0,127.0,127.0,125.0,200.0,2.1,2.11,-222,290,0,265,260,-275,135.82742619514465,135.82752513885498,135.83071160316467,135.84152626991272,135.98378205299377,135.98378205299377,135.98378205299377,135.98378205299377,135.98378205299377,135.98378205299377,135.98378205299377,138.3777003288269,1,2.5286710262298584,None,,,,,,,,,,,,,,,,,,172,1,2025-03-03_12h53.05.394,comp,2024.2.4,57.44339277668137,2025-03-03 12h53.13.861902 -0500,
29,29,0,filler_square,None,None,None,None,None,None,None,None,None,None,1,2.953350067138672,None,,,,,0,0,0,0,0,29,29,208,138.39997339248657,,,,,,,,,,,,,,,,,,,,,,,,,,,,,,,,,,,,,,,,,,,,,,,,,,,,,,,,,,,,,,,,,,,,,,,,,,,,,,,,,,66.2210935279954,66.2210935279954,60.940657729540305,57.0514306446076,58.91783123664884,62.13324532957359,2.1,2.11,-158,265,0,254,156,-269,138.37980890274048,138.3798885345459,138.38358664512634,138.39997339248657,138.53305530548096,138.53305530548096,138.53305530548096,138.53305530548096,138.53305530548096,138.53305530548096,138.53305530548096,141.36966800689697,1,2.953350067138672,None,,,,,,,,,,,,,,,,,,172,1,2025-03-03_12h53.05.394,comp,2024.2.4,57.44339277668137,2025-03-03 12h53.13.861902 -0500,
30,30,0,critical,hwd,35.0,1.0,lower,133.0,57.0,57.0,133.0,70.0,70.0,2,3.7938334941864014,None,,,,,0,0,0,0,0,30,30,96,141.3858301639557,,,,,,,,,,,,,,,,,,,,,,,,,,,,,,,,,,,,,,,,,,,,,,,,,,,,,,,,,,,,,,,,,,,,,,,,,,,,,,,,,,133.0,57.0,57.0,133.0,70.0,70.0,1.0,1.1,-671,285,-480,265,-282,277,141.37127351760864,141.37135291099548,141.3750569820404,141.3858301639557,141.53614234924316,141.53614234924316,141.53614234924316,141.53614234924316,141.53614234924316,141.53614234924316,141.53614234924316,145.18670439720154,2,3.7938334941864014,None,,,,,,,,,,,,,,,,,,172,1,2025-03-03_12h53.05.394,comp,2024.2.4,57.44339277668137,2025-03-03 12h53.13.861902 -0500,
31,31,0,critical,dhw,35.0,2.1,lower,70.0,70.0,133.0,57.0,57.0,133.0,3,1.8308565616607666,None,,,,,0,0,0,0,0,31,31,24,145.20261931419373,,,,,,,,,,,,,,,,,,,,,,,,,,,,,,,,,,,,,,,,,,,,,,,,,,,,,,,,,,,,,,,,,,,,,,,,,,,,,,,,,,70.0,70.0,133.0,57.0,57.0,133.0,2.1,2.12,-160,-261,0,-252,191,276,145.18825769424438,145.18833541870117,145.1917495727539,145.20261931419373,145.35746335983276,145.35746335983276,145.35746335983276,145.35746335983276,145.35746335983276,145.35746335983276,145.35746335983276,147.03684186935425,3,1.8308565616607666,None,,,,,,,,,,,,,,,,,,172,1,2025-03-03_12h53.05.394,comp,2024.2.4,57.44339277668137,2025-03-03 12h53.13.861902 -0500,
32,32,0,critical,hdw,20.0,1.0,upper,200.0,125.0,141.0,141.0,125.0,200.0,3,6.715742349624634,None,,,,,0,0,0,0,0,32,32,115,147.05405473709106,,,,,,,,,,,,,,,,,,,,,,,,,,,,,,,,,,,,,,,,,,,,,,,,,,,,,,,,,,,,,,,,,,,,,,,,,,,,,,,,,,200.0,125.0,141.0,141.0,125.0,200.0,1.0,1.1,-709,251,-480,252,-214,257,147.0384500026703,147.03858470916748,147.04230403900146,147.05405473709106,147.20836448669434,147.20836448669434,147.20836448669434,147.20836448669434,147.20836448669434,147.20836448669434,147.20836448669434,153.7722065448761,3,6.715742349624634,None,,,,,,,,,,,,,,,,,,172,1,2025-03-03_12h53.05.394,comp,2024.2.4,57.44339277668137,2025-03-03 12h53.13.861902 -0500,
33,33,0,critical,hwd,20.0,4.0,lower,133.0,57.0,57.0,133.0,78.0,78.0,1,1.940422773361206,None,,,,,0,0,0,0,0,33,33,106,153.7891480922699,,,,,,,,,,,,,,,,,,,,,,,,,,,,,,,,,,,,,,,,,,,,,,,,,,,,,,,,,,,,,,,,,,,,,,,,,,,,,,,,,,133.0,57.0,57.0,133.0,78.0,78.0,4.0,4.2,-191,7,0,-254,202,4,153.77376341819763,153.77384281158447,153.77727675437927,153.7891480922699,153.93755412101746,153.93755412101746,153.93755412101746,153.93755412101746,153.93755412101746,153.93755412101746,153.93755412101746,155.7460663318634,1,1.940422773361206,None,,,,,,,,,,,,,,,,,,172,1,2025-03-03_12h53.05.394,comp,2024.2.4,57.44339277668137,2025-03-03 12h53.13.861902 -0500,
34,34,0,filler_square,None,None,None,None,None,None,None,None,None,None,1,2.158872604370117,None,,,,,0,0,0,0,0,34,34,172,155.76225233078003,,,,,,,,,,,,,,,,,,,,,,,,,,,,,,,,,,,,,,,,,,,,,,,,,,,,,,,,,,,,,,,,,,,,,,,,,,,,,,,,,,170.14405684293268,170.14405684293268,146.38361575130716,164.7262231273836,145.7964736523686,143.11787661553709,4.0,4.2,-263,8,0,-251,250,-8,155.7478220462799,155.74789905548096,155.7510645389557,155.76225233078003,155.9074628353119,155.9074628353119,155.9074628353119,155.9074628353119,155.9074628353119,155.9074628353119,155.9074628353119,157.93777298927307,1,2.158872604370117,None,,,,,,,,,,,,,,,,,,172,1,2025-03-03_12h53.05.394,comp,2024.2.4,57.44339277668137,2025-03-03 12h53.13.861902 -0500,
35,35,0,critical,wdh,35.0,3.0,lower,57.0,133.0,70.0,70.0,133.0,57.0,1,2.1365983486175537,None,,,,,0,0,0,0,0,35,35,74,157.95330715179443,,,,,,,,,,,,,,,,,,,,,,,,,,,,,,,,,,,,,,,,,,,,,,,,,,,,,,,,,,,,,,,,,,,,,,,,,,,,,,,,,,57.0,133.0,70.0,70.0,133.0,57.0,3.0,3.1,-198,261,0,-10,160,-262,157.93931484222412,157.93939304351807,157.94256615638733,157.95330715179443,158.10718512535095,158.10718512535095,158.10718512535095,158.10718512535095,158.10718512535095,158.10718512535095,158.10718512535095,160.09341049194336,1,2.1365983486175537,None,,,,,,,,,,,,,,,,,,172,1,2025-03-03_12h53.05.394,comp,2024.2.4,57.44339277668137,2025-03-03 12h53.13.861902 -0500,
36,36,0,filler_random,None,None,None,None,None,None,None,None,None,None,1,1.3782846927642822,None,,,,,0,0,0,0,0,36,36,154,160.1110701560974,,,,,,,,,,,,,,,,,,,,,,,,,,,,,,,,,,,,,,,,,,,,,,,,,,,,,,,,,,,,,,,,,,,,,,,,,,,,,,,,,,188.4055716555131,137.00364871114618,67.98775517453475,63.50217281428583,125.89617097077786,74.37314479318792,1.0,1.1,-676,281,-480,288,-315,261,160.09546041488647,160.09557127952576,160.09945845603943,160.1110701560974,160.26006603240967,160.26006603240967,160.26006603240967,160.26006603240967,160.26006603240967,160.26006603240967,160.26006603240967,161.49469637870789,1,1.3782846927642822,None,,,,,,,,,,,,,,,,,,172,1,2025-03-03_12h53.05.394,comp,2024.2.4,57.44339277668137,2025-03-03 12h53.13.861902 -0500,
37,37,0,filler_square,None,None,None,None,None,None,None,None,None,None,2,2.0664243698120117,None,,,,,0,0,0,0,0,37,37,198,161.51068806648254,,,,,,,,,,,,,,,,,,,,,,,,,,,,,,,,,,,,,,,,,,,,,,,,,,,,,,,,,,,,,,,,,,,,,,,,,,,,,,,,,,102.47566807430984,94.96806300333333,117.43087165953017,117.43087165953017,101.51855860827723,69.77416775683972,4.0,4.2,-202,8,0,-274,190,16,161.49663877487183,161.49672031402588,161.50006413459778,161.51068806648254,161.66402959823608,161.66402959823608,161.66402959823608,161.66402959823608,161.66402959823608,161.66402959823608,161.66402959823608,163.59295964241028,2,2.0664243698120117,None,,,,,,,,,,,,,,,,,,172,1,2025-03-03_12h53.05.394,comp,2024.2.4,57.44339277668137,2025-03-03 12h53.13.861902 -0500,
38,38,0,critical,hwd,20.0,4.0,upper,200.0,125.0,125.0,200.0,141.0,141.0,2,2.694387674331665,None,,,,,0,0,0,0,0,38,38,107,163.6116886138916,,,,,,,,,,,,,,,,,,,,,,,,,,,,,,,,,,,,,,,,,,,,,,,,,,,,,,,,,,,,,,,,,,,,,,,,,,,,,,,,,,200.0,125.0,125.0,200.0,141.0,141.0,4.0,4.1,-258,-264,0,6,266,-288,163.5945394039154,163.59461975097656,163.59800958633423,163.6116886138916,163.76124715805054,163.76124715805054,163.76124715805054,163.76124715805054,163.76124715805054,163.76124715805054,163.76124715805054,166.32285618782043,2,2.694387674331665,None,,,,,,,,,,,,,,,,,,172,1,2025-03-03_12h53.05.394,comp,2024.2.4,57.44339277668137,2025-03-03 12h53.13.861902 -0500,
39,39,0,filler_square,None,None,None,None,None,None,None,None,None,None,3,1.0124139785766602,None,,,,,0,0,0,0,0,39,39,187,166.34147381782532,,,,,,,,,,,,,,,,,,,,,,,,,,,,,,,,,,,,,,,,,,,,,,,,,,,,,,,,,,,,,,,,,,,,,,,,,,,,,,,,,,71.7483767245876,126.40154804238774,106.33626583442287,84.75106838059959,143.12610094291,143.12610094291,4.0,4.2,-202,-14,0,-289,210,6,166.32473254203796,166.3248107433319,166.32799291610718,166.34147381782532,166.47693014144897,166.47693014144897,166.47693014144897,166.47693014144897,166.47693014144897,166.47693014144897,166.47693014144897,167.35877633094788,3,1.0124139785766602,None,,,,,,,,,,,,,,,,,,172,1,2025-03-03_12h53.05.394,comp,2024.2.4,57.44339277668137,2025-03-03 12h53.13.861902 -0500,
40,40,0,critical,wdh,35.0,2.1,upper,125.0,200.0,127.0,127.0,200.0,125.0,1,1.9138355255126953,None,,,,,0,0,0,0,0,40,40,9,167.37596082687378,,,,,,,,,,,,,,,,,,,,,,,,,,,,,,,,,,,,,,,,,,,,,,,,,,,,,,,,,,,,,,,,,,,,,,,,,,,,,,,,,,125.0,200.0,127.0,127.0,200.0,125.0,2.1,2.11,-260,254,0,268,222,-287,167.36049675941467,167.36065697669983,167.3642234802246,167.37596082687378,167.51132535934448,167.51132535934448,167.51132535934448,167.51132535934448,167.51132535934448,167.51132535934448,167.51132535934448,169.29360675811768,1,1.9138355255126953,None,,,,,,,,,,,,,,,,,,172,1,2025-03-03_12h53.05.394,comp,2024.2.4,57.44339277668137,2025-03-03 12h53.13.861902 -0500,
41,41,0,catch,None,None,None,None,None,None,None,None,None,None,1,1.8576641082763672,None,,,,,0,0,0,0,0,41,41,126,169.31137108802795,,,,,,,,,,,,,,,,,,,,,,,,,,,,,,,,,,,,,,,,,,,,,,,,,,,,,,,,,,,,,,,,,,,,,,,,,,,,,,,,,,127,198,65,125,111,79,4.0,4.1,-258,-271,0,-18,198,-259,169.29579615592957,169.2958745956421,169.2995662689209,169.31137108802795,169.44663310050964,169.44663310050964,169.44663310050964,169.44663310050964,169.44663310050964,169.44663310050964,169.44663310050964,171.17899656295776,1,1.8576641082763672,None,,,,,,,,,,,,,,,,,,172,1,2025-03-03_12h53.05.394,comp,2024.2.4,57.44339277668137,2025-03-03 12h53.13.861902 -0500,
42,42,0,filler_random,None,None,None,None,None,None,None,None,None,None,1,1.869809865951538,None,,,,,0,0,0,0,0,42,42,152,171.19531393051147,,,,,,,,,,,,,,,,,,,,,,,,,,,,,,,,,,,,,,,,,,,,,,,,,,,,,,,,,,,,,,,,,,,,,,,,,,,,,,,,,,115.21377386005227,130.8186192308302,139.79038368093643,68.53464504100705,101.01336299795014,77.57397831826223,2.1,2.11,-196,272,0,250,169,-279,171.18078875541687,171.18086647987366,171.18449640274048,171.19531393051147,171.34942865371704,171.34942865371704,171.34942865371704,171.34942865371704,171.34942865371704,171.34942865371704,171.34942865371704,173.07814359664917,1,1.869809865951538,None,,,,,,,,,,,,,,,,,,172,1,2025-03-03_12h53.05.394,comp,2024.2.4,57.44339277668137,2025-03-03 12h53.13.861902 -0500,
43,43,0,critical,whd,20.0,3.0,upper,125.0,200.0,200.0,125.0,141.0,141.0,1,6.667883634567261,None,,,,,0,0,0,0,0,43,43,93,173.09409046173096,,,,,,,,,,,,,,,,,,,,,,,,,,,,,,,,,,,,,,,,,,,,,,,,,,,,,,,,,,,,,,,,,,,,,,,,,,,,,,,,,,125.0,200.0,200.0,125.0,141.0,141.0,3.0,3.1,-258,264,0,19,229,-268,173.07984375953674,173.07997798919678,173.0836899280548,173.09409046173096,173.23654532432556,173.23654532432556,173.23654532432556,173.23654532432556,173.23654532432556,173.23654532432556,173.23654532432556,179.76912689208984,1,6.667883634567261,None,,,,,,,,,,,,,,,,,,172,1,2025-03-03_12h53.05.394,comp,2024.2.4,57.44339277668137,2025-03-03 12h53.13.861902 -0500,
44,44,0,critical,wdh,20.0,2.1,upper,125.0,200.0,141.0,141.0,200.0,125.0,3,2.374742031097412,None,,,,,0,0,0,0,0,44,44,11,179.78637766838074,,,,,,,,,,,,,,,,,,,,,,,,,,,,,,,,,,,,,,,,,,,,,,,,,,,,,,,,,,,,,,,,,,,,,,,,,,,,,,,,,,125.0,200.0,141.0,141.0,200.0,125.0,2.1,2.11,-266,267,0,290,229,-288,179.770854473114,179.7709903717041,179.77453207969666,179.78637766838074,179.9318025112152,179.9318025112152,179.9318025112152,179.9318025112152,179.9318025112152,179.9318025112152,179.9318025112152,182.17315244674683,3,2.374742031097412,None,,,,,,,,,,,,,,,,,,172,1,2025-03-03_12h53.05.394,comp,2024.2.4,57.44339277668137,2025-03-03 12h53.13.861902 -0500,
45,45,0,critical,hdw,20.0,2.1,lower,133.0,57.0,78.0,78.0,57.0,133.0,1,4.081976413726807,None,,,,,0,0,0,0,0,45,45,46,182.1911826133728,,,,,,,,,,,,,,,,,,,,,,,,,,,,,,,,,,,,,,,,,,,,,,,,,,,,,,,,,,,,,,,,,,,,,,,,,,,,,,,,,,133.0,57.0,78.0,78.0,57.0,133.0,2.1,2.12,-164,-279,0,-279,202,266,182.17470788955688,182.1747851371765,182.1779820919037,182.1911826133728,182.33906388282776,182.33906388282776,182.33906388282776,182.33906388282776,182.33906388282776,182.33906388282776,182.33906388282776,186.28372645378113,1,4.081976413726807,None,,,,,,,,,,,,,,,,,,172,1,2025-03-03_12h53.05.394,comp,2024.2.4,57.44339277668137,2025-03-03 12h53.13.861902 -0500,
46,46,0,critical,whd,35.0,2.1,upper,125.0,200.0,200.0,125.0,127.0,127.0,2,2.1710500717163086,None,,,,,0,0,0,0,0,46,46,37,186.30210971832275,,,,,,,,,,,,,,,,,,,,,,,,,,,,,,,,,,,,,,,,,,,,,,,,,,,,,,,,,,,,,,,,,,,,,,,,,,,,,,,,,,125.0,200.0,200.0,125.0,127.0,127.0,2.1,2.12,-258,-289,0,-269,222,261,186.2852475643158,186.28532695770264,186.28885698318481,186.30210971832275,186.447083234787,186.447083234787,186.447083234787,186.447083234787,186.447083234787,186.447083234787,186.447083234787,188.4853332042694,2,2.1710500717163086,None,,,,,,,,,,,,,,,,,,172,1,2025-03-03_12h53.05.394,comp,2024.2.4,57.44339277668137,2025-03-03 12h53.13.861902 -0500,
47,47,0,critical,wdh,20.0,2.1,upper,125.0,200.0,141.0,141.0,200.0,125.0,3,2.003387689590454,None,,,,,0,0,0,0,0,47,47,35,188.50204467773438,,,,,,,,,,,,,,,,,,,,,,,,,,,,,,,,,,,,,,,,,,,,,,,,,,,,,,,,,,,,,,,,,,,,,,,,,,,,,,,,,,125.0,200.0,141.0,141.0,200.0,125.0,2.1,2.11,-266,263,0,269,229,-280,188.48697876930237,188.48705768585205,188.49055457115173,188.50204467773438,188.65063428878784,188.65063428878784,188.65063428878784,188.65063428878784,188.65063428878784,188.65063428878784,188.65063428878784,190.51818346977234,3,2.003387689590454,None,,,,,,,,,,,,,,,,,,172,1,2025-03-03_12h53.05.394,comp,2024.2.4,57.44339277668137,2025-03-03 12h53.13.861902 -0500,
48,48,0,filler_square,None,None,None,None,None,None,None,None,None,None,2,1.9545230865478516,None,,,,,0,0,0,0,0,48,48,206,190.5347924232483,,,,,,,,,,,,,,,,,,,,,,,,,,,,,,,,,,,,,,,,,,,,,,,,,,,,,,,,,,,,,,,,,,,,,,,,,,,,,,,,,,117.46785047123474,154.67762093114703,155.1396544872128,155.1396544872128,121.46512440941318,136.6234075420515,2.1,2.11,-251,284,0,278,242,-269,190.52002334594727,190.52010011672974,190.52344751358032,190.5347924232483,190.6841104030609,190.6841104030609,190.6841104030609,190.6841104030609,190.6841104030609,190.6841104030609,190.6841104030609,192.5039873123169,2,1.9545230865478516,None,,,,,,,,,,,,,,,,,,172,1,2025-03-03_12h53.05.394,comp,2024.2.4,57.44339277668137,2025-03-03 12h53.13.861902 -0500,
49,49,0,critical,dhw,20.0,3.0,upper,141.0,141.0,200.0,125.0,125.0,200.0,3,2.264979362487793,None,,,,,0,0,0,0,0,49,49,57,192.52082705497742,,,,,,,,,,,,,,,,,,,,,,,,,,,,,,,,,,,,,,,,,,,,,,,,,,,,,,,,,,,,,,,,,,,,,,,,,,,,,,,,,,141.0,141.0,200.0,125.0,125.0,200.0,3.0,3.2,-229,-261,0,16,258,256,192.50558710098267,192.5056643486023,192.50958156585693,192.52082705497742,192.66868138313293,192.66868138313293,192.66868138313293,192.66868138313293,192.66868138313293,192.66868138313293,192.66868138313293,194.78832983970642,3,2.264979362487793,None,,,,,,,,,,,,,,,,,,172,1,2025-03-03_12h53.05.394,comp,2024.2.4,57.44339277668137,2025-03-03 12h53.13.861902 -0500,
50,50,0,filler_square,None,None,None,None,None,None,None,None,None,None,1,2.3962886333465576,None,,,,,0,0,0,0,0,50,50,189,194.805273771286,,,,,,,,,,,,,,,,,,,,,,,,,,,,,,,,,,,,,,,,,,,,,,,,,,,,,,,,,,,,,,,,,,,,,,,,,,,,,,,,,,72.18389269053048,72.18389269053048,66.18605854471214,58.170453661683254,63.69186445026508,59.160952856417275,3.0,3.2,-161,-283,0,1,155,286,194.7904303073883,194.79054522514343,194.79440093040466,194.805273771286,194.9574911594391,194.9574911594391,194.9574911594391,194.9574911594391,194.9574911594391,194.9574911594391,194.9574911594391,197.20396304130554,1,2.3962886333465576,None,,,,,,,,,,,,,,,,,,172,1,2025-03-03_12h53.05.394,comp,2024.2.4,57.44339277668137,2025-03-03 12h53.13.861902 -0500,
51,51,0,critical,wdh,35.0,4.0,lower,57.0,133.0,70.0,70.0,133.0,57.0,3,2.733752489089966,None,,,,,0,0,0,0,0,51,51,76,197.21983551979065,,,,,,,,,,,,,,,,,,,,,,,,,,,,,,,,,,,,,,,,,,,,,,,,,,,,,,,,,,,,,,,,,,,,,,,,,,,,,,,,,,57.0,133.0,70.0,70.0,133.0,57.0,4.0,4.1,-198,-251,0,12,160,-253,197.20554518699646,197.20562624931335,197.20897102355957,197.21983551979065,197.3591365814209,197.3591365814209,197.3591365814209,197.3591365814209,197.3591365814209,197.3591365814209,197.3591365814209,199.96292924880981,3,2.733752489089966,None,,,,,,,,,,,,,,,,,,172,1,2025-03-03_12h53.05.394,comp,2024.2.4,57.44339277668137,2025-03-03 12h53.13.861902 -0500,
52,52,0,critical,dhw,20.0,1.0,lower,78.0,78.0,133.0,57.0,57.0,133.0,3,2.0098190307617188,None,,,,,0,0,0,0,0,52,52,54,199.9841902256012,,,,,,,,,,,,,,,,,,,,,,,,,,,,,,,,,,,,,,,,,,,,,,,,,,,,,,,,,,,,,,,,,,,,,,,,,,,,,,,,,,78.0,78.0,133.0,57.0,57.0,133.0,1.0,1.3,316,-271,480,-263,671,-280,199.96457958221436,199.96466517448425,199.96827149391174,199.9841902256012,200.12286758422852,200.12286758422852,200.12286758422852,200.12286758422852,200.12286758422852,200.12286758422852,200.12286758422852,202.01176071166992,3,2.0098190307617188,None,,,,,,,,,,,,,,,,,,172,1,2025-03-03_12h53.05.394,comp,2024.2.4,57.44339277668137,2025-03-03 12h53.13.861902 -0500,
53,53,0,critical,whd,35.0,1.0,lower,57.0,133.0,133.0,57.0,70.0,70.0,1,8.0226411819458,None,,,,,0,0,0,0,0,53,53,84,202.02774333953857,,,,,,,,,,,,,,,,,,,,,,,,,,,,,,,,,,,,,,,,,,,,,,,,,,,,,,,,,,,,,,,,,,,,,,,,,,,,,,,,,,57.0,133.0,133.0,57.0,70.0,70.0,1.0,1.1,-671,271,-480,275,-320,251,202.01329636573792,202.0133717060089,202.01655459403992,202.02774333953857,202.17311429977417,202.17311429977417,202.17311429977417,202.17311429977417,202.17311429977417,202.17311429977417,202.17311429977417,210.05882501602173,1,8.0226411819458,None,,,,,,,,,,,,,,,,,,172,1,2025-03-03_12h53.05.394,comp,2024.2.4,57.44339277668137,2025-03-03 12h53.13.861902 -0500,
54,54,0,catch,None,None,None,None,None,None,None,None,None,None,1,1.5653109550476074,None,,,,,0,0,0,0,0,54,54,129,210.0761013031006,,,,,,,,,,,,,,,,,,,,,,,,,,,,,,,,,,,,,,,,,,,,,,,,,,,,,,,,,,,,,,,,,,,,,,,,,,,,,,,,,,138,187,124,66,89,101,4.0,4.1,-222,-284,0,19,180,-287,210.06105780601501,210.06113958358765,210.06516551971436,210.0761013031006,210.2245581150055,210.2245581150055,210.2245581150055,210.2245581150055,210.2245581150055,210.2245581150055,210.2245581150055,211.65914368629456,1,1.5653109550476074,None,,,,,,,,,,,,,,,,,,172,1,2025-03-03_12h53.05.394,comp,2024.2.4,57.44339277668137,2025-03-03 12h53.13.861902 -0500,
55,55,0,critical,hdw,20.0,4.0,lower,133.0,57.0,78.0,78.0,57.0,133.0,1,7.64667820930481,None,,,,,0,0,0,0,0,55,55,118,211.6752405166626,,,,,,,,,,,,,,,,,,,,,,,,,,,,,,,,,,,,,,,,,,,,,,,,,,,,,,,,,,,,,,,,,,,,,,,,,,,,,,,,,,133.0,57.0,78.0,78.0,57.0,133.0,4.0,4.1,-164,-289,0,9,202,-251,211.66076850891113,211.66084718704224,211.66497015953064,211.6752405166626,211.8253583908081,211.8253583908081,211.8253583908081,211.8253583908081,211.8253583908081,211.8253583908081,211.8253583908081,219.32626485824585,1,7.64667820930481,None,,,,,,,,,,,,,,,,,,172,1,2025-03-03_12h53.05.394,comp,2024.2.4,57.44339277668137,2025-03-03 12h53.13.861902 -0500,
56,56,0,filler_random,None,None,None,None,None,None,None,None,None,None,1,1.7147161960601807,None,,,,,0,0,0,0,0,56,56,164,219.3431112766266,,,,,,,,,,,,,,,,,,,,,,,,,,,,,,,,,,,,,,,,,,,,,,,,,,,,,,,,,,,,,,,,,,,,,,,,,,,,,,,,,,155.57731079677976,120.73806843566709,173.71505843670707,63.82444326357566,78.73789767786832,119.80915668789953,1.0,1.2,-188,-5,0,-10,188,12,219.32798075675964,219.32806062698364,219.33148860931396,219.3431112766266,219.49725580215454,219.49725580215454,219.49725580215454,219.49725580215454,219.49725580215454,219.49725580215454,219.49725580215454,221.0628297328949,1,1.7147161960601807,None,,,,,,,,,,,,,,,,,,172,1,2025-03-03_12h53.05.394,comp,2024.2.4,57.44339277668137,2025-03-03 12h53.13.861902 -0500,
57,57,0,critical,hwd,35.0,3.0,upper,200.0,125.0,125.0,200.0,127.0,127.0,2,2.9536476135253906,None,,,,,0,0,0,0,0,57,57,99,221.07967162132263,,,,,,,,,,,,,,,,,,,,,,,,,,,,,,,,,,,,,,,,,,,,,,,,,,,,,,,,,,,,,,,,,,,,,,,,,,,,,,,,,,200.0,125.0,125.0,200.0,127.0,127.0,3.0,3.1,-258,257,0,-3,260,-271,221.06435465812683,221.06446623802185,221.06885242462158,221.07967162132263,221.23801827430725,221.23801827430725,221.23801827430725,221.23801827430725,221.23801827430725,221.23801827430725,221.23801827430725,224.04771947860718,2,2.9536476135253906,None,,,,,,,,,,,,,,,,,,172,1,2025-03-03_12h53.05.394,comp,2024.2.4,57.44339277668137,2025-03-03 12h53.13.861902 -0500,
58,58,0,critical,wdh,20.0,1.0,lower,57.0,133.0,78.0,78.0,133.0,57.0,2,14.897982835769653,None,,,,,0,0,0,0,0,58,58,78,224.06332969665527,,,,,,,,,,,,,,,,,,,,,,,,,,,,,,,,,,,,,,,,,,,,,,,,,,,,,,,,,,,,,,,,,,,,,,,,,,,,,,,,,,57.0,133.0,78.0,78.0,133.0,57.0,1.0,1.1,-682,276,-480,261,-316,288,224.04936528205872,224.04944276809692,224.05299186706543,224.06332969665527,224.21305131912231,224.21305131912231,224.21305131912231,224.21305131912231,224.21305131912231,224.21305131912231,224.21305131912231,238.9772162437439,2,14.897982835769653,None,,,,,,,,,,,,,,,,,,172,1,2025-03-03_12h53.05.394,comp,2024.2.4,57.44339277668137,2025-03-03 12h53.13.861902 -0500,
59,59,0,critical,wdh,20.0,4.0,upper,125.0,200.0,141.0,141.0,200.0,125.0,3,2.4433608055114746,None,,,,,0,0,0,0,0,59,59,83,238.99794960021973,,,,,,,,,,,,,,,,,,,,,,,,,,,,,,,,,,,,,,,,,,,,,,,,,,,,,,,,,,,,,,,,,,,,,,,,,,,,,,,,,,125.0,200.0,141.0,141.0,200.0,125.0,4.0,4.1,-266,-279,0,20,229,-289,238.9789001941681,238.97898292541504,238.9825792312622,238.99794960021973,239.13428139686584,239.13428139686584,239.13428139686584,239.13428139686584,239.13428139686584,239.13428139686584,239.13428139686584,241.4512345790863,3,2.4433608055114746,None,,,,,,,,,,,,,,,,,,172,1,2025-03-03_12h53.05.394,comp,2024.2.4,57.44339277668137,2025-03-03 12h53.13.861902 -0500,
60,60,0,filler_square,None,None,None,None,None,None,None,None,None,None,1,1.9257187843322754,None,,,,,0,0,0,0,0,60,60,205,241.4682421684265,,,,,,,,,,,,,,,,,,,,,,,,,,,,,,,,,,,,,,,,,,,,,,,,,,,,,,,,,,,,,,,,,,,,,,,,,,,,,,,,,,196.12819274410606,196.12819274410606,75.03991898485923,179.61837822221364,155.49278990834145,111.97747010719922,2.2,2.21,-284,-268,0,288,242,282,241.45338702201843,241.45346641540527,241.45738458633423,241.4682421684265,241.6160650253296,241.6160650253296,241.6160650253296,241.6160650253296,241.6160650253296,241.6160650253296,241.6160650253296,243.40246748924255,1,1.9257187843322754,None,,,,,,,,,,,,,,,,,,172,1,2025-03-03_12h53.05.394,comp,2024.2.4,57.44339277668137,2025-03-03 12h53.13.861902 -0500,
61,61,0,filler_random,None,None,None,None,None,None,None,None,None,None,3,4.762371063232422,None,,,,,0,0,0,0,0,61,61,133,243.42297267913818,,,,,,,,,,,,,,,,,,,,,,,,,,,,,,,,,,,,,,,,,,,,,,,,,,,,,,,,,,,,,,,,,,,,,,,,,,,,,,,,,,81.18310585156635,141.00764773418837,67.16030719252066,111.54801982409936,147.97580484692747,130.19827003961973,4.0,4.2,-222,-7,0,-258,217,9,243.40440940856934,243.4044907093048,243.40830206871033,243.42297267913818,243.57531929016113,243.57531929016113,243.57531929016113,243.57531929016113,243.57531929016113,243.57531929016113,243.57531929016113,248.18755435943604,3,4.762371063232422,None,,,,,,,,,,,,,,,,,,172,1,2025-03-03_12h53.05.394,comp,2024.2.4,57.44339277668137,2025-03-03 12h53.13.861902 -0500,
62,62,0,critical,wdh,20.0,2.1,lower,57.0,133.0,78.0,78.0,133.0,57.0,3,3.101120948791504,None,,,,,0,0,0,0,0,62,62,10,248.20460510253906,,,,,,,,,,,,,,,,,,,,,,,,,,,,,,,,,,,,,,,,,,,,,,,,,,,,,,,,,,,,,,,,,,,,,,,,,,,,,,,,,,57.0,133.0,78.0,78.0,133.0,57.0,2.1,2.12,-202,-272,0,-286,164,284,248.1890549659729,248.18913531303406,248.19340896606445,248.20460510253906,248.35942149162292,248.35942149162292,248.35942149162292,248.35942149162292,248.35942149162292,248.35942149162292,248.35942149162292,251.3267912864685,3,3.101120948791504,None,,,,,,,,,,,,,,,,,,172,1,2025-03-03_12h53.05.394,comp,2024.2.4,57.44339277668137,2025-03-03 12h53.13.861902 -0500,
63,63,0,critical,hwd,35.0,2.1,lower,133.0,57.0,57.0,133.0,70.0,70.0,3,2.26654314994812,None,,,,,0,0,0,0,0,63,63,40,251.34473419189453,,,,,,,,,,,,,,,,,,,,,,,,,,,,,,,,,,,,,,,,,,,,,,,,,,,,,,,,,,,,,,,,,,,,,,,,,,,,,,,,,,133.0,57.0,57.0,133.0,70.0,70.0,2.1,2.12,-191,-262,0,-269,198,279,251.32844257354736,251.3286542892456,251.33224272727966,251.34473419189453,251.48854088783264,251.48854088783264,251.48854088783264,251.48854088783264,251.48854088783264,251.48854088783264,251.48854088783264,253.62805008888245,3,2.26654314994812,None,,,,,,,,,,,,,,,,,,172,1,2025-03-03_12h53.05.394,comp,2024.2.4,57.44339277668137,2025-03-03 12h53.13.861902 -0500,
64,64,0,filler_random,None,None,None,None,None,None,None,None,None,None,2,1.1331415176391602,None,,,,,0,0,0,0,0,64,64,168,253.64435029029846,,,,,,,,,,,,,,,,,,,,,,,,,,,,,,,,,,,,,,,,,,,,,,,,,,,,,,,,,,,,,,,,,,,,,,,,,,,,,,,,,,129.8952817942581,95.60897029483252,181.68102496494978,195.46120220682255,167.93435974799456,69.88940283878094,1.0,1.3,238,-275,480,-270,709,-277,253.62981629371643,253.6298952102661,253.63307118415833,253.64435029029846,253.78454303741455,253.78454303741455,253.78454303741455,253.78454303741455,253.78454303741455,253.78454303741455,253.78454303741455,254.78235864639282,2,1.1331415176391602,None,,,,,,,,,,,,,,,,,,172,1,2025-03-03_12h53.05.394,comp,2024.2.4,57.44339277668137,2025-03-03 12h53.13.861902 -0500,
65,65,0,critical,hdw,20.0,2.1,lower,133.0,57.0,78.0,78.0,57.0,133.0,2,3.245678186416626,None,,,,,0,0,0,0,0,65,65,22,254.80361461639404,,,,,,,,,,,,,,,,,,,,,,,,,,,,,,,,,,,,,,,,,,,,,,,,,,,,,,,,,,,,,,,,,,,,,,,,,,,,,,,,,,133.0,57.0,78.0,78.0,57.0,133.0,2.1,2.11,-164,256,0,280,202,-259,254.78398275375366,254.7840805053711,254.7877552509308,254.80361461639404,254.94037437438965,254.94037437438965,254.94037437438965,254.94037437438965,254.94037437438965,254.94037437438965,254.94037437438965,258.0661368370056,2,3.245678186416626,None,,,,,,,,,,,,,,,,,,172,1,2025-03-03_12h53.05.394,comp,2024.2.4,57.44339277668137,2025-03-03 12h53.13.861902 -0500,
66,66,0,critical,dwh,20.0,3.0,upper,141.0,141.0,125.0,200.0,200.0,125.0,1,1.7578847408294678,None,,,,,0,0,0,0,0,66,66,69,258.0836400985718,,,,,,,,,,,,,,,,,,,,,,,,,,,,,,,,,,,,,,,,,,,,,,,,,,,,,,,,,,,,,,,,,,,,,,,,,,,,,,,,,,141.0,141.0,125.0,200.0,200.0,125.0,3.0,3.1,-266,280,0,-17,258,-252,258.0677230358124,258.0678012371063,258.07098865509033,258.0836400985718,258.2301335334778,258.2301335334778,258.2301335334778,258.2301335334778,258.2301335334778,258.2301335334778,258.2301335334778,259.86210203170776,1,1.7578847408294678,None,,,,,,,,,,,,,,,,,,172,1,2025-03-03_12h53.05.394,comp,2024.2.4,57.44339277668137,2025-03-03 12h53.13.861902 -0500,
67,67,0,critical,dwh,20.0,4.0,upper,141.0,141.0,125.0,200.0,200.0,125.0,1,1.993711233139038,None,,,,,0,0,0,0,0,67,67,71,259.87965059280396,,,,,,,,,,,,,,,,,,,,,,,,,,,,,,,,,,,,,,,,,,,,,,,,,,,,,,,,,,,,,,,,,,,,,,,,,,,,,,,,,,141.0,141.0,125.0,200.0,200.0,125.0,4.0,4.2,-266,8,0,-290,258,-20,259.86364936828613,259.86372470855713,259.86697030067444,259.87965059280396,260.0246305465698,260.0246305465698,260.0246305465698,260.0246305465698,260.0246305465698,260.0246305465698,260.0246305465698,261.8915548324585,1,1.993711233139038,None,,,,,,,,,,,,,,,,,,172,1,2025-03-03_12h53.05.394,comp,2024.2.4,57.44339277668137,2025-03-03 12h53.13.861902 -0500,
68,68,0,filler_random,None,None,None,None,None,None,None,None,None,None,1,2.875419855117798,None,,,,,0,0,0,0,0,68,68,144,261.9102897644043,,,,,,,,,,,,,,,,,,,,,,,,,,,,,,,,,,,,,,,,,,,,,,,,,,,,,,,,,,,,,,,,,,,,,,,,,,,,,,,,,,182.96772777501008,112.26133936266271,189.23398826136028,95.95515765345827,120.20623587256608,182.08898586737416,2.2,2.22,-200,268,0,-287,235,-252,261.8935925960541,261.8936710357666,261.89754915237427,261.9102897644043,262.05778098106384,262.05778098106384,262.05778098106384,262.05778098106384,262.05778098106384,262.05778098106384,262.05778098106384,264.79690861701965,1,2.875419855117798,None,,,,,,,,,,,,,,,,,,172,1,2025-03-03_12h53.05.394,comp,2024.2.4,57.44339277668137,2025-03-03 12h53.13.861902 -0500,
69,69,0,critical,whd,20.0,4.0,upper,125.0,200.0,200.0,125.0,141.0,141.0,3,1.9120452404022217,None,,,,,0,0,0,0,0,69,69,95,264.81743907928467,,,,,,,,,,,,,,,,,,,,,,,,,,,,,,,,,,,,,,,,,,,,,,,,,,,,,,,,,,,,,,,,,,,,,,,,,,,,,,,,,,125.0,200.0,200.0,125.0,141.0,141.0,4.0,4.1,-258,-285,0,-10,229,-255,264.7984154224396,264.7984941005707,264.80170607566833,264.81743907928467,264.96006870269775,264.96006870269775,264.96006870269775,264.96006870269775,264.96006870269775,264.96006870269775,264.96006870269775,266.7420697212219,3,1.9120452404022217,None,,,,,,,,,,,,,,,,,,172,1,2025-03-03_12h53.05.394,comp,2024.2.4,57.44339277668137,2025-03-03 12h53.13.861902 -0500,
70,70,0,critical,whd,20.0,1.0,upper,125.0,200.0,200.0,125.0,141.0,141.0,3,1.2193408012390137,None,,,,,0,0,0,0,0,70,70,91,266.7587251663208,,,,,,,,,,,,,,,,,,,,,,,,,,,,,,,,,,,,,,,,,,,,,,,,,,,,,,,,,,,,,,,,,,,,,,,,,,,,,,,,,,125.0,200.0,200.0,125.0,141.0,141.0,1.0,1.2,-258,14,0,17,229,2,266.74372243881226,266.7438004016876,266.7474579811096,266.7587251663208,266.9137599468231,266.9137599468231,266.9137599468231,266.9137599468231,266.9137599468231,266.9137599468231,266.9137599468231,267.9811270236969,3,1.2193408012390137,None,,,,,,,,,,,,,,,,,,172,1,2025-03-03_12h53.05.394,comp,2024.2.4,57.44339277668137,2025-03-03 12h53.13.861902 -0500,
71,71,0,critical,dwh,35.0,2.1,upper,127.0,127.0,125.0,200.0,200.0,125.0,1,1.3523406982421875,None,,,,,0,0,0,0,0,71,71,5,268.00161957740784,,,,,,,,,,,,,,,,,,,,,,,,,,,,,,,,,,,,,,,,,,,,,,,,,,,,,,,,,,,,,,,,,,,,,,,,,,,,,,,,,,127.0,127.0,125.0,200.0,200.0,125.0,2.1,2.11,-260,254,0,265,258,-278,267.9827139377594,267.9827935695648,267.9859869480133,268.00161957740784,268.1434109210968,268.1434109210968,268.1434109210968,268.1434109210968,268.1434109210968,268.1434109210968,268.1434109210968,269.36236119270325,1,1.3523406982421875,None,,,,,,,,,,,,,,,,,,172,1,2025-03-03_12h53.05.394,comp,2024.2.4,57.44339277668137,2025-03-03 12h53.13.861902 -0500,
72,72,0,critical,whd,35.0,2.1,upper,125.0,200.0,200.0,125.0,127.0,127.0,2,2.253795623779297,None,,,,,0,0,0,0,0,72,72,13,269.3794674873352,,,,,,,,,,,,,,,,,,,,,,,,,,,,,,,,,,,,,,,,,,,,,,,,,,,,,,,,,,,,,,,,,,,,,,,,,,,,,,,,,,125.0,200.0,200.0,125.0,127.0,127.0,2.1,2.12,-258,-264,0,-273,222,276,269.36397433280945,269.364052772522,269.36766386032104,269.3794674873352,269.5312011241913,269.5312011241913,269.5312011241913,269.5312011241913,269.5312011241913,269.5312011241913,269.5312011241913,271.64859199523926,2,2.253795623779297,None,,,,,,,,,,,,,,,,,,172,1,2025-03-03_12h53.05.394,comp,2024.2.4,57.44339277668137,2025-03-03 12h53.13.861902 -0500,
73,73,0,critical,hdw,35.0,4.0,lower,133.0,57.0,70.0,70.0,57.0,133.0,2,2.6262242794036865,None,,,,,0,0,0,0,0,73,73,112,271.66404151916504,,,,,,,,,,,,,,,,,,,,,,,,,,,,,,,,,,,,,,,,,,,,,,,,,,,,,,,,,,,,,,,,,,,,,,,,,,,,,,,,,,133.0,57.0,70.0,70.0,57.0,133.0,4.0,4.1,-160,-279,0,-6,198,-273,271.6500897407532,271.65016746520996,271.6537320613861,271.66404151916504,271.8077657222748,271.8077657222748,271.8077657222748,271.8077657222748,271.8077657222748,271.8077657222748,271.8077657222748,274.2955484390259,2,2.6262242794036865,None,,,,,,,,,,,,,,,,,,172,1,2025-03-03_12h53.05.394,comp,2024.2.4,57.44339277668137,2025-03-03 12h53.13.861902 -0500,
74,74,0,critical,hdw,20.0,1.0,lower,133.0,57.0,78.0,78.0,57.0,133.0,2,1.4170639514923096,None,,,,,0,0,0,0,0,74,74,114,274.31243205070496,,,,,,,,,,,,,,,,,,,,,,,,,,,,,,,,,,,,,,,,,,,,,,,,,,,,,,,,,,,,,,,,,,,,,,,,,,,,,,,,,,133.0,57.0,78.0,78.0,57.0,133.0,1.0,1.3,316,-273,480,-260,682,-257,274.2971329689026,274.297212600708,274.3014979362488,274.31243205070496,274.46757102012634,274.46757102012634,274.46757102012634,274.46757102012634,274.46757102012634,274.46757102012634,274.46757102012634,275.7449996471405,2,1.4170639514923096,None,,,,,,,,,,,,,,,,,,172,1,2025-03-03_12h53.05.394,comp,2024.2.4,57.44339277668137,2025-03-03 12h53.13.861902 -0500,
75,75,0,filler_square,None,None,None,None,None,None,None,None,None,None,2,1.5742626190185547,None,,,,,0,0,0,0,0,75,75,182,275.7630805969238,,,,,,,,,,,,,,,,,,,,,,,,,,,,,,,,,,,,,,,,,,,,,,,,,,,,,,,,,,,,,,,,,,,,,,,,,,,,,,,,,,63.489098789366196,60.437525881420534,103.15583788447591,103.15583788447591,90.86699207367039,99.5456515855447,2.2,2.21,-178,-288,0,273,197,268,275.7468285560608,275.74690675735474,275.7503309249878,275.7630805969238,275.9132978916168,275.9132978916168,275.9132978916168,275.9132978916168,275.9132978916168,275.9132978916168,275.9132978916168,277.35477113723755,2,1.5742626190185547,None,,,,,,,,,,,,,,,,,,172,1,2025-03-03_12h53.05.394,comp,2024.2.4,57.44339277668137,2025-03-03 12h53.13.861902 -0500,
76,76,0,catch,None,None,None,None,None,None,None,None,None,None,2,1.5148367881774902,None,,,,,0,0,0,0,0,76,76,121,277.3747947216034,,,,,,,,,,,,,,,,,,,,,,,,,,,,,,,,,,,,,,,,,,,,,,,,,,,,,,,,,,,,,,,,,,,,,,,,,,,,,,,,,,66,124,131,194,67,123,4.0,4.1,-255,-281,0,-16,254,-266,277.3566687107086,277.356746673584,277.3599214553833,277.3747947216034,277.51346921920776,277.51346921920776,277.51346921920776,277.51346921920776,277.51346921920776,277.51346921920776,277.51346921920776,278.90116810798645,2,1.5148367881774902,None,,,,,,,,,,,,,,,,,,172,1,2025-03-03_12h53.05.394,comp,2024.2.4,57.44339277668137,2025-03-03 12h53.13.861902 -0500,
77,77,0,critical,wdh,35.0,4.0,upper,125.0,200.0,127.0,127.0,200.0,125.0,3,1.3535206317901611,None,,,,,0,0,0,0,0,77,77,77,278.9209740161896,,,,,,,,,,,,,,,,,,,,,,,,,,,,,,,,,,,,,,,,,,,,,,,,,,,,,,,,,,,,,,,,,,,,,,,,,,,,,,,,,,125.0,200.0,127.0,127.0,200.0,125.0,4.0,4.1,-260,-288,0,14,222,-271,278.9026737213135,278.9027523994446,278.9059433937073,278.9209740161896,279.06181287765503,279.06181287765503,279.06181287765503,279.06181287765503,279.06181287765503,279.06181287765503,279.06181287765503,280.27930879592896,3,1.3535206317901611,None,,,,,,,,,,,,,,,,,,172,1,2025-03-03_12h53.05.394,comp,2024.2.4,57.44339277668137,2025-03-03 12h53.13.861902 -0500,
78,78,0,critical,dhw,20.0,3.0,lower,78.0,78.0,133.0,57.0,57.0,133.0,1,2.810084819793701,None,,,,,0,0,0,0,0,78,78,56,280.29625511169434,,,,,,,,,,,,,,,,,,,,,,,,,,,,,,,,,,,,,,,,,,,,,,,,,,,,,,,,,,,,,,,,,,,,,,,,,,,,,,,,,,78.0,78.0,133.0,57.0,57.0,133.0,3.0,3.2,-164,-261,0,6,191,261,280.2809433937073,280.2810206413269,280.28461599349976,280.29625511169434,280.4471254348755,280.4471254348755,280.4471254348755,280.4471254348755,280.4471254348755,280.4471254348755,280.4471254348755,283.1171786785126,1,2.810084819793701,None,,,,,,,,,,,,,,,,,,172,1,2025-03-03_12h53.05.394,comp,2024.2.4,57.44339277668137,2025-03-03 12h53.13.861902 -0500,
79,79,0,critical,dwh,35.0,2.1,lower,70.0,70.0,57.0,133.0,133.0,57.0,2,1.9481582641601562,None,,,,,0,0,0,0,0,79,79,4,283.1332359313965,,,,,,,,,,,,,,,,,,,,,,,,,,,,,,,,,,,,,,,,,,,,,,,,,,,,,,,,,,,,,,,,,,,,,,,,,,,,,,,,,,70.0,70.0,57.0,133.0,133.0,57.0,2.1,2.11,-198,279,0,282,191,-269,283.1188097000122,283.1188883781433,283.122451543808,283.1332359313965,283.2816240787506,283.2816240787506,283.2816240787506,283.2816240787506,283.2816240787506,283.2816240787506,283.2816240787506,285.0976257324219,2,1.9481582641601562,None,,,,,,,,,,,,,,,,,,172,1,2025-03-03_12h53.05.394,comp,2024.2.4,57.44339277668137,2025-03-03 12h53.13.861902 -0500,
80,80,0,filler_square,None,None,None,None,None,None,None,None,None,None,3,1.241098403930664,None,,,,,0,0,0,0,0,80,80,190,285.114000082016,,,,,,,,,,,,,,,,,,,,,,,,,,,,,,,,,,,,,,,,,,,,,,,,,,,,,,,,,,,,,,,,,,,,,,,,,,,,,,,,,,155.80527761315875,72.88323847174152,185.25095933216863,185.25095933216863,82.2520013228966,150.01180884506425,3.0,3.2,-225,-260,0,-2,264,285,285.09935760498047,285.0994336605072,285.1027240753174,285.114000082016,285.26799845695496,285.26799845695496,285.26799845695496,285.26799845695496,285.26799845695496,285.26799845695496,285.26799845695496,286.3667039871216,3,1.241098403930664,None,,,,,,,,,,,,,,,,,,172,1,2025-03-03_12h53.05.394,comp,2024.2.4,57.44339277668137,2025-03-03 12h53.13.861902 -0500,
81,81,0,critical,whd,35.0,2.1,lower,57.0,133.0,133.0,57.0,70.0,70.0,2,3.9628007411956787,None,,,,,0,0,0,0,0,81,81,36,286.38318943977356,,,,,,,,,,,,,,,,,,,,,,,,,,,,,,,,,,,,,,,,,,,,,,,,,,,,,,,,,,,,,,,,,,,,,,,,,,,,,,,,,,57.0,133.0,133.0,57.0,70.0,70.0,2.1,2.12,-191,-273,0,-257,160,274,286.36841797828674,286.36857628822327,286.3723599910736,286.38318943977356,286.53521275520325,286.53521275520325,286.53521275520325,286.53521275520325,286.53521275520325,286.53521275520325,286.53521275520325,290.3531725406647,2,3.9628007411956787,None,,,,,,,,,,,,,,,,,,172,1,2025-03-03_12h53.05.394,comp,2024.2.4,57.44339277668137,2025-03-03 12h53.13.861902 -0500,
82,82,0,filler_square,None,None,None,None,None,None,None,None,None,None,2,1.1733317375183105,None,,,,,0,0,0,0,0,82,82,193,290.37263655662537,,,,,,,,,,,,,,,,,,,,,,,,,,,,,,,,,,,,,,,,,,,,,,,,,,,,,,,,,,,,,,,,,,,,,,,,,,,,,,,,,,101.53588410827663,60.50475920798493,199.32583310544058,199.32583310544058,119.63873155577235,148.11506484921313,3.0,3.2,-226,-276,0,15,270,253,290.3556373119354,290.35572361946106,290.3589651584625,290.37263655662537,290.5252299308777,290.5252299308777,290.5252299308777,290.5252299308777,290.5252299308777,290.5252299308777,290.5252299308777,291.55361461639404,2,1.1733317375183105,None,,,,,,,,,,,,,,,,,,172,1,2025-03-03_12h53.05.394,comp,2024.2.4,57.44339277668137,2025-03-03 12h53.13.861902 -0500,
83,83,0,critical,hwd,20.0,1.0,lower,133.0,57.0,57.0,133.0,78.0,78.0,1,4.8667566776275635,None,,,,,0,0,0,0,0,83,83,102,291.5749053955078,,,,,,,,,,,,,,,,,,,,,,,,,,,,,,,,,,,,,,,,,,,,,,,,,,,,,,,,,,,,,,,,,,,,,,,,,,,,,,,,,,133.0,57.0,57.0,133.0,78.0,78.0,1.0,1.2,-191,-10,0,8,202,7,291.5555763244629,291.5557165145874,291.55914282798767,291.5749053955078,291.7171938419342,291.7171938419342,291.7171938419342,291.7171938419342,291.7171938419342,291.7171938419342,291.7171938419342,296.4567232131958,1,4.8667566776275635,None,,,,,,,,,,,,,,,,,,172,1,2025-03-03_12h53.05.394,comp,2024.2.4,57.44339277668137,2025-03-03 12h53.13.861902 -0500,
84,84,0,critical,wdh,35.0,2.1,upper,125.0,200.0,127.0,127.0,200.0,125.0,1,1.4654695987701416,None,,,,,0,0,0,0,0,84,84,33,296.47217059135437,,,,,,,,,,,,,,,,,,,,,,,,,,,,,,,,,,,,,,,,,,,,,,,,,,,,,,,,,,,,,,,,,,,,,,,,,,,,,,,,,,125.0,200.0,127.0,127.0,200.0,125.0,2.1,2.11,-260,263,0,282,222,-289,296.45829916000366,296.45837903022766,296.4618465900421,296.47217059135437,296.61517786979675,296.61517786979675,296.61517786979675,296.61517786979675,296.61517786979675,296.61517786979675,296.61517786979675,297.95827293395996,1,1.4654695987701416,None,,,,,,,,,,,,,,,,,,172,1,2025-03-03_12h53.05.394,comp,2024.2.4,57.44339277668137,2025-03-03 12h53.13.861902 -0500,
85,85,0,filler_random,None,None,None,None,None,None,None,None,None,None,3,1.1380605697631836,None,,,,,0,0,0,0,0,85,85,135,297.97588205337524,,,,,,,,,,,,,,,,,,,,,,,,,,,,,,,,,,,,,,,,,,,,,,,,,,,,,,,,,,,,,,,,,,,,,,,,,,,,,,,,,,110.66554267887983,123.75456128869683,178.35787889567024,104.96961478931146,174.30011284606476,164.67441833599355,2.2,2.22,-210,277,0,-273,231,-261,297.9600374698639,297.9601149559021,297.96328043937683,297.97588205337524,298.1196072101593,298.1196072101593,298.1196072101593,298.1196072101593,298.1196072101593,298.1196072101593,298.1196072101593,299.1227967739105,3,1.1380605697631836,None,,,,,,,,,,,,,,,,,,172,1,2025-03-03_12h53.05.394,comp,2024.2.4,57.44339277668137,2025-03-03 12h53.13.861902 -0500,
86,86,0,critical,whd,35.0,4.0,upper,125.0,200.0,200.0,125.0,127.0,127.0,1,1.9477958679199219,None,,,,,0,0,0,0,0,86,86,89,299.14166617393494,,,,,,,,,,,,,,,,,,,,,,,,,,,,,,,,,,,,,,,,,,,,,,,,,,,,,,,,,,,,,,,,,,,,,,,,,,,,,,,,,,125.0,200.0,200.0,125.0,127.0,127.0,4.0,4.2,-258,1,0,-269,222,16,299.12459087371826,299.124728679657,299.1281762123108,299.14166617393494,299.29401898384094,299.29401898384094,299.29401898384094,299.29401898384094,299.29401898384094,299.29401898384094,299.29401898384094,301.10438299179077,1,1.9477958679199219,None,,,,,,,,,,,,,,,,,,172,1,2025-03-03_12h53.05.394,comp,2024.2.4,57.44339277668137,2025-03-03 12h53.13.861902 -0500,
87,87,0,critical,hwd,35.0,2.1,lower,133.0,57.0,57.0,133.0,70.0,70.0,2,5.246974229812622,None,,,,,0,0,0,0,0,87,87,16,301.12256479263306,,,,,,,,,,,,,,,,,,,,,,,,,,,,,,,,,,,,,,,,,,,,,,,,,,,,,,,,,,,,,,,,,,,,,,,,,,,,,,,,,,133.0,57.0,57.0,133.0,70.0,70.0,2.1,2.11,-191,261,0,289,198,-264,301.10603070259094,301.10614371299744,301.10977387428284,301.12256479263306,301.27110147476196,301.27110147476196,301.27110147476196,301.27110147476196,301.27110147476196,301.27110147476196,301.27110147476196,306.3724706172943,2,5.246974229812622,None,,,,,,,,,,,,,,,,,,172,1,2025-03-03_12h53.05.394,comp,2024.2.4,57.44339277668137,2025-03-03 12h53.13.861902 -0500,
88,88,0,critical,dwh,35.0,2.1,lower,70.0,70.0,57.0,133.0,133.0,57.0,1,1.8204591274261475,None,,,,,0,0,0,0,0,88,88,28,306.3892939090729,,,,,,,,,,,,,,,,,,,,,,,,,,,,,,,,,,,,,,,,,,,,,,,,,,,,,,,,,,,,,,,,,,,,,,,,,,,,,,,,,,70.0,70.0,57.0,133.0,133.0,57.0,2.1,2.12,-198,-258,0,-274,191,274,306.3740644454956,306.3741457462311,306.37846422195435,306.3892939090729,306.541481256485,306.541481256485,306.541481256485,306.541481256485,306.541481256485,306.541481256485,306.541481256485,308.2250864505768,1,1.8204591274261475,None,,,,,,,,,,,,,,,,,,172,1,2025-03-03_12h53.05.394,comp,2024.2.4,57.44339277668137,2025-03-03 12h53.13.861902 -0500,
89,89,0,filler_random,None,None,None,None,None,None,None,None,None,None,1,1.8471877574920654,None,,,,,0,0,0,0,0,89,89,139,308.24255204200745,,,,,,,,,,,,,,,,,,,,,,,,,,,,,,,,,,,,,,,,,,,,,,,,,,,,,,,,,,,,,,,,,,,,,,,,,,,,,,,,,,196.17749881622774,192.36190043367742,186.9392179623381,114.01051770241963,173.81813002185385,193.91821636316246,2.2,2.22,-249,282,0,-269,250,-255,308.22714400291443,308.2272231578827,308.23140120506287,308.24255204200745,308.3770477771759,308.3770477771759,308.3770477771759,308.3770477771759,308.3770477771759,308.3770477771759,308.3770477771759,310.0942237377167,1,1.8471877574920654,None,,,,,,,,,,,,,,,,,,172,1,2025-03-03_12h53.05.394,comp,2024.2.4,57.44339277668137,2025-03-03 12h53.13.861902 -0500,
90,90,0,filler_square,None,None,None,None,None,None,None,None,None,None,1,1.8258357048034668,None,,,,,0,0,0,0,0,90,90,170,310.11238718032837,,,,,,,,,,,,,,,,,,,,,,,,,,,,,,,,,,,,,,,,,,,,,,,,,,,,,,,,,,,,,,,,,,,,,,,,,,,,,,,,,,138.7262586316211,138.7262586316211,127.83404468756208,113.4576740450127,104.69094553759278,100.47545523700359,1.0,1.1,-702,285,-480,277,-277,282,310.09603571891785,310.09611558914185,310.09929060935974,310.11238718032837,310.2569739818573,310.2569739818573,310.2569739818573,310.2569739818573,310.2569739818573,310.2569739818573,310.2569739818573,311.94145798683167,1,1.8258357048034668,None,,,,,,,,,,,,,,,,,,172,1,2025-03-03_12h53.05.394,comp,2024.2.4,57.44339277668137,2025-03-03 12h53.13.861902 -0500,
91,91,0,catch,None,None,None,None,None,None,None,None,None,None,1,1.2914457321166992,None,,,,,0,0,0,0,0,91,91,123,311.95876002311707,,,,,,,,,,,,,,,,,,,,,,,,,,,,,,,,,,,,,,,,,,,,,,,,,,,,,,,,,,,,,,,,,,,,,,,,,,,,,,,,,,185,140,128,62,101,89,2.2,2.21,-197,-276,0,278,172,262,311.9437401294708,311.9438228607178,311.94768953323364,311.95876002311707,312.1087954044342,312.1087954044342,312.1087954044342,312.1087954044342,312.1087954044342,312.1087954044342,312.1087954044342,313.2577986717224,1,1.2914457321166992,None,,,,,,,,,,,,,,,,,,172,1,2025-03-03_12h53.05.394,comp,2024.2.4,57.44339277668137,2025-03-03 12h53.13.861902 -0500,
92,92,0,filler_random,None,None,None,None,None,None,None,None,None,None,2,1.3753411769866943,None,,,,,0,0,0,0,0,92,92,143,313.27492451667786,,,,,,,,,,,,,,,,,,,,,,,,,,,,,,,,,,,,,,,,,,,,,,,,,,,,,,,,,,,,,,,,,,,,,,,,,,,,,,,,,,60.86648856929566,131.03262067157664,165.26161937691217,97.37881117164314,86.6143909415107,103.13682425055393,2.1,2.11,-210,273,0,263,196,-265,313.25958943367004,313.25971937179565,313.26400876045227,313.27492451667786,313.4213454723358,313.4213454723358,313.4213454723358,313.4213454723358,313.4213454723358,313.4213454723358,313.4213454723358,314.65946888923645,2,1.3753411769866943,None,,,,,,,,,,,,,,,,,,172,1,2025-03-03_12h53.05.394,comp,2024.2.4,57.44339277668137,2025-03-03 12h53.13.861902 -0500,
93,93,0,filler_square,None,None,None,None,None,None,None,None,None,None,1,1.789917230606079,None,,,,,0,0,0,0,0,93,93,203,314.6763696670532,,,,,,,,,,,,,,,,,,,,,,,,,,,,,,,,,,,,,,,,,,,,,,,,,,,,,,,,,,,,,,,,,,,,,,,,,,,,,,,,,,83.47968507522656,83.47968507522656,82.99722483129258,58.44356719241289,72.12553551136922,65.44397568123814,3.0,3.2,-167,-266,0,19,158,279,314.66140937805176,314.6614873409271,314.6654760837555,314.6763696670532,314.8244090080261,314.8244090080261,314.8244090080261,314.8244090080261,314.8244090080261,314.8244090080261,314.8244090080261,316.474161863327,1,1.789917230606079,None,,,,,,,,,,,,,,,,,,172,1,2025-03-03_12h53.05.394,comp,2024.2.4,57.44339277668137,2025-03-03 12h53.13.861902 -0500,
94,94,0,critical,wdh,35.0,2.1,lower,57.0,133.0,70.0,70.0,133.0,57.0,2,3.2229766845703125,None,,,,,0,0,0,0,0,94,94,8,316.4914243221283,,,,,,,,,,,,,,,,,,,,,,,,,,,,,,,,,,,,,,,,,,,,,,,,,,,,,,,,,,,,,,,,,,,,,,,,,,,,,,,,,,57.0,133.0,70.0,70.0,133.0,57.0,2.1,2.12,-198,-270,0,-273,160,266,316.47571659088135,316.47579646110535,316.4793484210968,316.4914243221283,316.64742732048035,316.64742732048035,316.64742732048035,316.64742732048035,316.64742732048035,316.64742732048035,316.64742732048035,319.7258892059326,2,3.2229766845703125,None,,,,,,,,,,,,,,,,,,172,1,2025-03-03_12h53.05.394,comp,2024.2.4,57.44339277668137,2025-03-03 12h53.13.861902 -0500,
95,95,0,critical,wdh,20.0,3.0,upper,125.0,200.0,141.0,141.0,200.0,125.0,2,2.0765066146850586,None,,,,,0,0,0,0,0,95,95,81,319.741747379303,,,,,,,,,,,,,,,,,,,,,,,,,,,,,,,,,,,,,,,,,,,,,,,,,,,,,,,,,,,,,,,,,,,,,,,,,,,,,,,,,,125.0,200.0,141.0,141.0,200.0,125.0,3.0,3.2,-266,-268,0,9,229,276,319.7273905277252,319.7274696826935,319.73100996017456,319.741747379303,319.8928973674774,319.8928973674774,319.8928973674774,319.8928973674774,319.8928973674774,319.8928973674774,319.8928973674774,321.8289725780487,2,2.0765066146850586,None,,,,,,,,,,,,,,,,,,172,1,2025-03-03_12h53.05.394,comp,2024.2.4,57.44339277668137,2025-03-03 12h53.13.861902 -0500,
96,96,0,critical,whd,35.0,1.0,upper,125.0,200.0,200.0,125.0,127.0,127.0,1,1.7616536617279053,None,,,,,0,0,0,0,0,96,96,85,321.8478891849518,,,,,,,,,,,,,,,,,,,,,,,,,,,,,,,,,,,,,,,,,,,,,,,,,,,,,,,,,,,,,,,,,,,,,,,,,,,,,,,,,,125.0,200.0,200.0,125.0,127.0,127.0,1.0,1.3,222,-260,480,-282,702,-288,321.8307468891144,321.8308255672455,321.83474564552307,321.8478891849518,321.9966068267822,321.9966068267822,321.9966068267822,321.9966068267822,321.9966068267822,321.9966068267822,321.9966068267822,323.6267828941345,1,1.7616536617279053,None,,,,,,,,,,,,,,,,,,172,1,2025-03-03_12h53.05.394,comp,2024.2.4,57.44339277668137,2025-03-03 12h53.13.861902 -0500,
97,97,0,filler_random,None,None,None,None,None,None,None,None,None,None,1,1.3021259307861328,None,,,,,0,0,0,0,0,97,97,145,323.64338541030884,,,,,,,,,,,,,,,,,,,,,,,,,,,,,,,,,,,,,,,,,,,,,,,,,,,,,,,,,,,,,,,,,,,,,,,,,,,,,,,,,,187.36277566354096,146.29522318593789,66.784005580008,76.01543310921812,60.02139742522107,158.74484663516213,1.0,1.2,-207,-11,0,-5,213,1,323.6284382343292,323.62853956222534,323.63198494911194,323.64338541030884,323.7935736179352,323.7935736179352,323.7935736179352,323.7935736179352,323.7935736179352,323.7935736179352,323.7935736179352,324.95959663391113,1,1.3021259307861328,None,,,,,,,,,,,,,,,,,,172,1,2025-03-03_12h53.05.394,comp,2024.2.4,57.44339277668137,2025-03-03 12h53.13.861902 -0500,
98,98,0,catch,None,None,None,None,None,None,None,None,None,None,2,1.3138012886047363,None,,,,,0,0,0,0,0,98,98,125,324.97590470314026,,,,,,,,,,,,,,,,,,,,,,,,,,,,,,,,,,,,,,,,,,,,,,,,,,,,,,,,,,,,,,,,,,,,,,,,,,,,,,,,,,84,106,154,171,58,132,2.1,2.12,-234,-251,0,-275,248,257,324.96175956726074,324.9618399143219,324.96557879447937,324.97590470314026,325.12833189964294,325.12833189964294,325.12833189964294,325.12833189964294,325.12833189964294,325.12833189964294,325.12833189964294,326.30699491500854,2,1.3138012886047363,None,,,,,,,,,,,,,,,,,,172,1,2025-03-03_12h53.05.394,comp,2024.2.4,57.44339277668137,2025-03-03 12h53.13.861902 -0500,
99,99,0,catch,None,None,None,None,None,None,None,None,None,None,3,1.5898163318634033,None,,,,,0,0,0,0,0,99,99,124,326.32367157936096,,,,,,,,,,,,,,,,,,,,,,,,,,,,,,,,,,,,,,,,,,,,,,,,,,,,,,,,,,,,,,,,,,,,,,,,,,,,,,,,,,84,106,132,58,166,159,1.0,1.1,-658,280,-480,277,-276,280,326.3089361190796,326.3090145587921,326.3124089241028,326.32367157936096,326.4792413711548,326.4792413711548,326.4792413711548,326.4792413711548,326.4792413711548,326.4792413711548,326.4792413711548,327.93143129348755,3,1.5898163318634033,None,,,,,,,,,,,,,,,,,,172,1,2025-03-03_12h53.05.394,comp,2024.2.4,57.44339277668137,2025-03-03 12h53.13.861902 -0500,
100,100,0,critical,dhw,20.0,2.1,upper,141.0,141.0,200.0,125.0,125.0,200.0,3,1.6038284301757812,None,,,,,0,0,0,0,0,100,100,3,327.949649810791,,,,,,,,,,,,,,,,,,,,,,,,,,,,,,,,,,,,,,,,,,,,,,,,,,,,,,,,,,,,,,,,,,,,,,,,,,,,,,,,,,141.0,141.0,200.0,125.0,125.0,200.0,2.1,2.12,-229,-289,0,-278,258,259,327.93308305740356,327.9332056045532,327.936891078949,327.949649810791,328.0965676307678,328.0965676307678,328.0965676307678,328.0965676307678,328.0965676307678,328.0965676307678,328.0965676307678,329.56496930122375,3,1.6038284301757812,None,,,,,,,,,,,,,,,,,,172,1,2025-03-03_12h53.05.394,comp,2024.2.4,57.44339277668137,2025-03-03 12h53.13.861902 -0500,
101,101,0,filler_square,None,None,None,None,None,None,None,None,None,None,3,1.5885870456695557,None,,,,,0,0,0,0,0,101,101,171,329.5816080570221,,,,,,,,,,,,,,,,,,,,,,,,,,,,,,,,,,,,,,,,,,,,,,,,,,,,,,,,,,,,,,,,,,,,,,,,,,,,,,,,,,77.04857258814766,74.14573134208837,99.5975061460401,113.95327006994557,115.77702883230575,115.77702883230575,2.1,2.12,-190,-258,0,-257,211,260,329.56753945350647,329.5676226615906,329.57081842422485,329.5816080570221,329.72875690460205,329.72875690460205,329.72875690460205,329.72875690460205,329.72875690460205,329.72875690460205,329.72875690460205,331.18675899505615,3,1.5885870456695557,None,,,,,,,,,,,,,,,,,,172,1,2025-03-03_12h53.05.394,comp,2024.2.4,57.44339277668137,2025-03-03 12h53.13.861902 -0500,
102,102,0,critical,hdw,35.0,2.1,lower,133.0,57.0,70.0,70.0,57.0,133.0,1,1.7868926525115967,None,,,,,0,0,0,0,0,102,102,44,331.2066569328308,,,,,,,,,,,,,,,,,,,,,,,,,,,,,,,,,,,,,,,,,,,,,,,,,,,,,,,,,,,,,,,,,,,,,,,,,,,,,,,,,,133.0,57.0,70.0,70.0,57.0,133.0,2.1,2.11,-160,266,0,261,198,-251,331.18828988075256,331.1883661746979,331.19162797927856,331.2066569328308,331.35222029685974,331.35222029685974,331.35222029685974,331.35222029685974,331.35222029685974,331.35222029685974,331.35222029685974,333.00529503822327,1,1.7868926525115967,None,,,,,,,,,,,,,,,,,,172,1,2025-03-03_12h53.05.394,comp,2024.2.4,57.44339277668137,2025-03-03 12h53.13.861902 -0500,
103,103,0,filler_square,None,None,None,None,None,None,None,None,None,None,1,1.4763858318328857,None,,,,,0,0,0,0,0,103,103,200,333.0212604999542,,,,,,,,,,,,,,,,,,,,,,,,,,,,,,,,,,,,,,,,,,,,,,,,,,,,,,,,,,,,,,,,,,,,,,,,,,,,,,,,,,106.06768238016787,106.06768238016787,62.09822384144004,101.73472449218079,105.97632828986988,82.41802725612447,4.0,4.1,-200,-260,0,-10,188,-263,333.0071065425873,333.00718450546265,333.01039958000183,333.0212604999542,333.1650421619415,333.1650421619415,333.1650421619415,333.1650421619415,333.1650421619415,333.1650421619415,333.1650421619415,334.5169563293457,1,1.4763858318328857,None,,,,,,,,,,,,,,,,,,172,1,2025-03-03_12h53.05.394,comp,2024.2.4,57.44339277668137,2025-03-03 12h53.13.861902 -0500,
104,104,0,filler_random,None,None,None,None,None,None,None,None,None,None,3,1.8912384510040283,None,,,,,0,0,0,0,0,104,104,136,334.53515672683716,,,,,,,,,,,,,,,,,,,,,,,,,,,,,,,,,,,,,,,,,,,,,,,,,,,,,,,,,,,,,,,,,,,,,,,,,,,,,,,,,,196.3529174573698,116.86902722062972,188.11146914638505,118.39245782435745,142.9981030421929,137.25552558552164,3.0,3.1,-214,268,0,13,224,-269,334.51915645599365,334.51929545402527,334.5225820541382,334.53515672683716,334.68016028404236,334.68016028404236,334.68016028404236,334.68016028404236,334.68016028404236,334.68016028404236,334.68016028404236,336.43247723579407,3,1.8912384510040283,None,,,,,,,,,,,,,,,,,,172,1,2025-03-03_12h53.05.394,comp,2024.2.4,57.44339277668137,2025-03-03 12h53.13.861902 -0500,
105,105,0,filler_square,None,None,None,None,None,None,None,None,None,None,1,1.76588773727417,None,,,,,0,0,0,0,0,105,105,209,336.45162653923035,,,,,,,,,,,,,,,,,,,,,,,,,,,,,,,,,,,,,,,,,,,,,,,,,,,,,,,,,,,,,,,,,,,,,,,,,,,,,,,,,,101.58075015154421,101.58075015154421,92.75193350451131,82.70481655423265,100.84359823426942,91.67901465193307,1.0,1.2,-188,-8,0,-14,183,-1,336.4346852302551,336.43476271629333,336.43801641464233,336.45162653923035,336.60007333755493,336.60007333755493,336.60007333755493,336.60007333755493,336.60007333755493,336.60007333755493,336.60007333755493,338.23441791534424,1,1.76588773727417,None,,,,,,,,,,,,,,,,,,172,1,2025-03-03_12h53.05.394,comp,2024.2.4,57.44339277668137,2025-03-03 12h53.13.861902 -0500,
106,106,0,filler_random,None,None,None,None,None,None,None,None,None,None,2,1.3240106105804443,None,,,,,0,0,0,0,0,106,106,130,338.25502371788025,,,,,,,,,,,,,,,,,,,,,,,,,,,,,,,,,,,,,,,,,,,,,,,,,,,,,,,,,,,,,,,,,,,,,,,,,,,,,,,,,,127.16843260850514,136.8109777685485,164.08177115874793,185.7006030023086,83.78936744529344,87.69029210559881,4.0,4.1,-257,-257,0,6,233,-286,338.23648047447205,338.2365827560425,338.23978877067566,338.25502371788025,338.4089207649231,338.4089207649231,338.4089207649231,338.4089207649231,338.4089207649231,338.4089207649231,338.4089207649231,339.5989511013031,2,1.3240106105804443,None,,,,,,,,,,,,,,,,,,172,1,2025-03-03_12h53.05.394,comp,2024.2.4,57.44339277668137,2025-03-03 12h53.13.861902 -0500,
107,107,0,filler_random,None,None,None,None,None,None,None,None,None,None,3,1.4993700981140137,None,,,,,0,0,0,0,0,107,107,163,339.61482548713684,,,,,,,,,,,,,,,,,,,,,,,,,,,,,,,,,,,,,,,,,,,,,,,,,,,,,,,,,,,,,,,,,,,,,,,,,,,,,,,,,,87.1637344921475,152.36744439539333,121.27193558835641,121.40358840127543,184.31555751216553,194.53551324329374,2.2,2.21,-233,-280,0,256,254,282,339.60075402259827,339.6008312702179,339.6039938926697,339.61482548713684,339.7651572227478,339.7651572227478,339.7651572227478,339.7651572227478,339.7651572227478,339.7651572227478,339.7651572227478,341.1199645996094,3,1.4993700981140137,None,,,,,,,,,,,,,,,,,,172,1,2025-03-03_12h53.05.394,comp,2024.2.4,57.44339277668137,2025-03-03 12h53.13.861902 -0500,
108,108,0,critical,wdh,20.0,1.0,upper,125.0,200.0,141.0,141.0,200.0,125.0,2,1.7224221229553223,None,,,,,0,0,0,0,0,108,108,79,341.1359360218048,,,,,,,,,,,,,,,,,,,,,,,,,,,,,,,,,,,,,,,,,,,,,,,,,,,,,,,,,,,,,,,,,,,,,,,,,,,,,,,,,,125.0,200.0,141.0,141.0,200.0,125.0,1.0,1.3,214,-259,480,-252,709,-283,341.1215260028839,341.1216118335724,341.12519001960754,341.1359360218048,341.2828879356384,341.2828879356384,341.2828879356384,341.2828879356384,341.2828879356384,341.2828879356384,341.2828879356384,342.8657670021057,2,1.7224221229553223,None,,,,,,,,,,,,,,,,,,172,1,2025-03-03_12h53.05.394,comp,2024.2.4,57.44339277668137,2025-03-03 12h53.13.861902 -0500,
109,109,0,critical,hwd,20.0,3.0,lower,133.0,57.0,57.0,133.0,78.0,78.0,1,2.2398910522460938,None,,,,,0,0,0,0,0,109,109,104,342.8816428184509,,,,,,,,,,,,,,,,,,,,,,,,,,,,,,,,,,,,,,,,,,,,,,,,,,,,,,,,,,,,,,,,,,,,,,,,,,,,,,,,,,133.0,57.0,57.0,133.0,78.0,78.0,3.0,3.2,-191,-271,0,16,202,261,342.86729979515076,342.867378950119,342.8707914352417,342.8816428184509,343.03603291511536,343.03603291511536,343.03603291511536,343.03603291511536,343.03603291511536,343.03603291511536,343.03603291511536,345.1332137584686,1,2.2398910522460938,None,,,,,,,,,,,,,,,,,,172,1,2025-03-03_12h53.05.394,comp,2024.2.4,57.44339277668137,2025-03-03 12h53.13.861902 -0500,
110,110,0,catch,None,None,None,None,None,None,None,None,None,None,2,1.2112846374511719,None,,,,,0,0,0,0,0,110,110,122,345.1502311229706,,,,,,,,,,,,,,,,,,,,,,,,,,,,,,,,,,,,,,,,,,,,,,,,,,,,,,,,,,,,,,,,,,,,,,,,,,,,,,,,,,120,70,137,188,65,125,4.0,4.1,-225,-275,0,18,252,-251,345.1352162361145,345.1352951526642,345.13860964775085,345.1502311229706,345.3103358745575,345.3103358745575,345.3103358745575,345.3103358745575,345.3103358745575,345.3103358745575,345.3103358745575,346.3729383945465,2,1.2112846374511719,None,,,,,,,,,,,,,,,,,,172,1,2025-03-03_12h53.05.394,comp,2024.2.4,57.44339277668137,2025-03-03 12h53.13.861902 -0500,
111,111,0,filler_square,None,None,None,None,None,None,None,None,None,None,2,1.2009942531585693,None,,,,,0,0,0,0,0,111,111,181,346.3933734893799,,,,,,,,,,,,,,,,,,,,,,,,,,,,,,,,,,,,,,,,,,,,,,,,,,,,,,,,,,,,,,,,,,,,,,,,,,,,,,,,,,100.18480558749175,63.75372899789896,159.90119181939394,159.90119181939394,92.69046260774368,69.64012281457508,1.0,1.3,272,-277,480,-268,691,-257,346.3750057220459,346.37508821487427,346.3787577152252,346.3933734893799,346.53667306900024,346.53667306900024,346.53667306900024,346.53667306900024,346.53667306900024,346.53667306900024,346.53667306900024,347.6017324924469,2,1.2009942531585693,None,,,,,,,,,,,,,,,,,,172,1,2025-03-03_12h53.05.394,comp,2024.2.4,57.44339277668137,2025-03-03 12h53.13.861902 -0500,
112,112,0,critical,dhw,20.0,4.0,lower,78.0,78.0,133.0,57.0,57.0,133.0,2,2.5909059047698975,None,,,,,0,0,0,0,0,112,112,58,347.6186308860779,,,,,,,,,,,,,,,,,,,,,,,,,,,,,,,,,,,,,,,,,,,,,,,,,,,,,,,,,,,,,,,,,,,,,,,,,,,,,,,,,,78.0,78.0,133.0,57.0,57.0,133.0,4.0,4.1,-164,-280,0,3,191,-259,347.60329937934875,347.6033811569214,347.6071503162384,347.6186308860779,347.7660536766052,347.7660536766052,347.7660536766052,347.7660536766052,347.7660536766052,347.7660536766052,347.7660536766052,350.21961522102356,2,2.5909059047698975,None,,,,,,,,,,,,,,,,,,172,1,2025-03-03_12h53.05.394,comp,2024.2.4,57.44339277668137,2025-03-03 12h53.13.861902 -0500,
113,113,0,critical,dwh,35.0,1.0,upper,127.0,127.0,125.0,200.0,200.0,125.0,3,1.2061312198638916,None,,,,,0,0,0,0,0,113,113,61,350.23542284965515,,,,,,,,,,,,,,,,,,,,,,,,,,,,,,,,,,,,,,,,,,,,,,,,,,,,,,,,,,,,,,,,,,,,,,,,,,,,,,,,,,127.0,127.0,125.0,200.0,200.0,125.0,1.0,1.3,220,-264,480,-263,738,-285,350.22106170654297,350.22114086151123,350.2246754169464,350.23542284965515,350.3874237537384,350.3874237537384,350.3874237537384,350.3874237537384,350.3874237537384,350.3874237537384,350.3874237537384,351.453528881073,3,1.2061312198638916,None,,,,,,,,,,,,,,,,,,172,1,2025-03-03_12h53.05.394,comp,2024.2.4,57.44339277668137,2025-03-03 12h53.13.861902 -0500,
114,114,0,critical,hwd,35.0,4.0,lower,133.0,57.0,57.0,133.0,70.0,70.0,1,1.7590913772583008,None,,,,,0,0,0,0,0,114,114,100,351.4744563102722,,,,,,,,,,,,,,,,,,,,,,,,,,,,,,,,,,,,,,,,,,,,,,,,,,,,,,,,,,,,,,,,,,,,,,,,,,,,,,,,,,133.0,57.0,57.0,133.0,70.0,70.0,4.0,4.1,-191,-276,0,-14,198,-263,351.4551122188568,351.455215215683,351.4589397907257,351.4744563102722,351.6192991733551,351.6192991733551,351.6192991733551,351.6192991733551,351.6192991733551,351.6192991733551,351.6192991733551,353.23758006095886,1,1.7590913772583008,None,,,,,,,,,,,,,,,,,,172,1,2025-03-03_12h53.05.394,comp,2024.2.4,57.44339277668137,2025-03-03 12h53.13.861902 -0500,
115,115,0,filler_square,None,None,None,None,None,None,None,None,None,None,2,1.4113264083862305,None,,,,,0,0,0,0,0,115,115,191,353.25458097457886,,,,,,,,,,,,,,,,,,,,,,,,,,,,,,,,,,,,,,,,,,,,,,,,,,,,,,,,,,,,,,,,,,,,,,,,,,,,,,,,,,64.45369000881746,89.80468943918773,91.80604530152337,91.80604530152337,77.59230016376104,76.96042361836057,1.0,1.2,-187,-9,0,10,180,-17,353.23952436447144,353.2397153377533,353.2437779903412,353.25458097457886,353.40314865112305,353.40314865112305,353.40314865112305,353.40314865112305,353.40314865112305,353.40314865112305,353.40314865112305,354.6706027984619,2,1.4113264083862305,None,,,,,,,,,,,,,,,,,,172,1,2025-03-03_12h53.05.394,comp,2024.2.4,57.44339277668137,2025-03-03 12h53.13.861902 -0500,
116,116,0,filler_square,None,None,None,None,None,None,None,None,None,None,1,1.2806110382080078,None,,,,,0,0,0,0,0,116,116,178,354.6889717578888,,,,,,,,,,,,,,,,,,,,,,,,,,,,,,,,,,,,,,,,,,,,,,,,,,,,,,,,,,,,,,,,,,,,,,,,,,,,,,,,,,189.10706681382317,189.10706681382317,124.3244671225674,169.86936048104508,147.24032166889577,131.432511361605,1.0,1.2,-275,12,0,16,247,-7,354.6724171638489,354.6724989414215,354.67608761787415,354.6889717578888,354.8425781726837,354.8425781726837,354.8425781726837,354.8425781726837,354.8425781726837,354.8425781726837,354.8425781726837,355.98602056503296,1,1.2806110382080078,None,,,,,,,,,,,,,,,,,,172,1,2025-03-03_12h53.05.394,comp,2024.2.4,57.44339277668137,2025-03-03 12h53.13.861902 -0500,
117,117,0,critical,whd,20.0,2.1,upper,125.0,200.0,200.0,125.0,141.0,141.0,2,1.8711235523223877,None,,,,,0,0,0,0,0,117,117,15,356.002436876297,,,,,,,,,,,,,,,,,,,,,,,,,,,,,,,,,,,,,,,,,,,,,,,,,,,,,,,,,,,,,,,,,,,,,,,,,,,,,,,,,,125.0,200.0,200.0,125.0,141.0,141.0,2.1,2.12,-258,-273,0,-288,229,277,355.98752903938293,355.9876081943512,355.9910864830017,356.002436876297,356.1543478965759,356.1543478965759,356.1543478965759,356.1543478965759,356.1543478965759,356.1543478965759,356.1543478965759,357.89314699172974,2,1.8711235523223877,None,,,,,,,,,,,,,,,,,,172,1,2025-03-03_12h53.05.394,comp,2024.2.4,57.44339277668137,2025-03-03 12h53.13.861902 -0500,
118,118,0,critical,dwh,35.0,3.0,upper,127.0,127.0,125.0,200.0,200.0,125.0,2,1.3627815246582031,None,,,,,0,0,0,0,0,118,118,63,357.9108500480652,,,,,,,,,,,,,,,,,,,,,,,,,,,,,,,,,,,,,,,,,,,,,,,,,,,,,,,,,,,,,,,,,,,,,,,,,,,,,,,,,,127.0,127.0,125.0,200.0,200.0,125.0,3.0,3.1,-260,286,0,20,258,-273,357.8951418399811,357.89522194862366,357.8984513282776,357.9108500480652,358.05609583854675,358.05609583854675,358.05609583854675,358.05609583854675,358.05609583854675,358.05609583854675,358.05609583854675,359.2897090911865,2,1.3627815246582031,None,,,,,,,,,,,,,,,,,,172,1,2025-03-03_12h53.05.394,comp,2024.2.4,57.44339277668137,2025-03-03 12h53.13.861902 -0500,
119,119,0,critical,hwd,35.0,1.0,upper,200.0,125.0,125.0,200.0,127.0,127.0,1,1.2787501811981201,None,,,,,0,0,0,0,0,119,119,97,359.30756092071533,,,,,,,,,,,,,,,,,,,,,,,,,,,,,,,,,,,,,,,,,,,,,,,,,,,,,,,,,,,,,,,,,,,,,,,,,,,,,,,,,,200.0,125.0,125.0,200.0,127.0,127.0,1.0,1.1,-738,263,-480,285,-220,254,359.2912564277649,359.2913672924042,359.294983625412,359.30756092071533,359.4602303504944,359.4602303504944,359.4602303504944,359.4602303504944,359.4602303504944,359.4602303504944,359.4602303504944,360.5913269519806,1,1.2787501811981201,None,,,,,,,,,,,,,,,,,,172,1,2025-03-03_12h53.05.394,comp,2024.2.4,57.44339277668137,2025-03-03 12h53.13.861902 -0500,
120,120,0,critical,wdh,20.0,4.0,lower,57.0,133.0,78.0,78.0,133.0,57.0,3,1.4015240669250488,None,,,,,0,0,0,0,0,120,120,82,360.60813164711,,,,,,,,,,,,,,,,,,,,,,,,,,,,,,,,,,,,,,,,,,,,,,,,,,,,,,,,,,,,,,,,,,,,,,,,,,,,,,,,,,57.0,133.0,78.0,78.0,133.0,57.0,4.0,4.1,-202,-283,0,8,164,-257,360.5929539203644,360.59303188323975,360.59642148017883,360.60813164711,360.75797748565674,360.75797748565674,360.75797748565674,360.75797748565674,360.75797748565674,360.75797748565674,360.75797748565674,362.0242109298706,3,1.4015240669250488,None,,,,,,,,,,,,,,,,,,172,1,2025-03-03_12h53.05.394,comp,2024.2.4,57.44339277668137,2025-03-03 12h53.13.861902 -0500,
121,121,0,filler_random,None,None,None,None,None,None,None,None,None,None,3,1.585747241973877,None,,,,,0,0,0,0,0,121,121,160,362.0406572818756,,,,,,,,,,,,,,,,,,,,,,,,,,,,,,,,,,,,,,,,,,,,,,,,,,,,,,,,,,,,,,,,,,,,,,,,,,,,,,,,,,102.66589622865533,96.24460257440884,64.77969559893562,184.73217514607597,128.49053963922364,101.41172772681566,2.2,2.21,-236,-258,0,267,239,287,362.0261662006378,362.02624678611755,362.03032660484314,362.0406572818756,362.1894769668579,362.1894769668579,362.1894769668579,362.1894769668579,362.1894769668579,362.1894769668579,362.1894769668579,363.6451106071472,3,1.585747241973877,None,,,,,,,,,,,,,,,,,,172,1,2025-03-03_12h53.05.394,comp,2024.2.4,57.44339277668137,2025-03-03 12h53.13.861902 -0500,
122,122,0,critical,dwh,20.0,2.1,upper,141.0,141.0,125.0,200.0,200.0,125.0,1,1.5021390914916992,None,,,,,0,0,0,0,0,122,122,31,363.66120648384094,,,,,,,,,,,,,,,,,,,,,,,,,,,,,,,,,,,,,,,,,,,,,,,,,,,,,,,,,,,,,,,,,,,,,,,,,,,,,,,,,,141.0,141.0,125.0,200.0,200.0,125.0,2.1,2.11,-266,258,0,265,258,-281,363.6466283798218,363.64672803878784,363.65085220336914,363.66120648384094,363.8058304786682,363.8058304786682,363.8058304786682,363.8058304786682,363.8058304786682,363.8058304786682,363.8058304786682,365.1740643978119,1,1.5021390914916992,None,,,,,,,,,,,,,,,,,,172,1,2025-03-03_12h53.05.394,comp,2024.2.4,57.44339277668137,2025-03-03 12h53.13.861902 -0500,
123,123,0,filler_square,None,None,None,None,None,None,None,None,None,None,3,1.5708229541778564,None,,,,,0,0,0,0,0,123,123,202,365.1908540725708,,,,,,,,,,,,,,,,,,,,,,,,,,,,,,,,,,,,,,,,,,,,,,,,,,,,,,,,,,,,,,,,,,,,,,,,,,,,,,,,,,106.09568442104649,61.21207494357803,58.858879308967346,62.03992746801334,173.79736764592622,173.79736764592622,4.0,4.2,-158,-18,0,-277,214,-5,365.17582964897156,365.1759033203125,365.18009781837463,365.1908540725708,365.34389185905457,365.34389185905457,365.34389185905457,365.34389185905457,365.34389185905457,365.34389185905457,365.34389185905457,366.7747333049774,3,1.5708229541778564,None,,,,,,,,,,,,,,,,,,172,1,2025-03-03_12h53.05.394,comp,2024.2.4,57.44339277668137,2025-03-03 12h53.13.861902 -0500,
124,124,0,filler_random,None,None,None,None,None,None,None,None,None,None,3,1.9561409950256348,None,,,,,0,0,0,0,0,124,124,169,366.7894775867462,,,,,,,,,,,,,,,,,,,,,,,,,,,,,,,,,,,,,,,,,,,,,,,,,,,,,,,,,,,,,,,,,,,,,,,,,,,,,,,,,,77.75242967226929,165.26103348827036,157.4727658241516,81.42964895444308,164.63154070652377,91.57140396048172,4.0,4.2,-219,-13,0,-266,183,16,366.77645111083984,366.77655482292175,366.78001284599304,366.7894775867462,366.9407911300659,366.9407911300659,366.9407911300659,366.9407911300659,366.9407911300659,366.9407911300659,366.9407911300659,368.75708532333374,3,1.9561409950256348,None,,,,,,,,,,,,,,,,,,172,1,2025-03-03_12h53.05.394,comp,2024.2.4,57.44339277668137,2025-03-03 12h53.13.861902 -0500,
125,125,0,critical,dhw,20.0,4.0,upper,141.0,141.0,200.0,125.0,125.0,200.0,2,1.2916834354400635,None,,,,,0,0,0,0,0,125,125,59,368.77407240867615,,,,,,,,,,,,,,,,,,,,,,,,,,,,,,,,,,,,,,,,,,,,,,,,,,,,,,,,,,,,,,,,,,,,,,,,,,,,,,,,,,141.0,141.0,200.0,125.0,125.0,200.0,4.0,4.2,-229,-8,0,-254,258,-12,368.75858187675476,368.7586624622345,368.7620325088501,368.77407240867615,368.924188375473,368.924188375473,368.924188375473,368.924188375473,368.924188375473,368.924188375473,368.924188375473,370.07515048980713,2,1.2916834354400635,None,,,,,,,,,,,,,,,,,,172,1,2025-03-03_12h53.05.394,comp,2024.2.4,57.44339277668137,2025-03-03 12h53.13.861902 -0500,
126,126,0,filler_random,None,None,None,None,None,None,None,None,None,None,1,1.4864301681518555,None,,,,,0,0,0,0,0,126,126,161,370.09160327911377,,,,,,,,,,,,,,,,,,,,,,,,,,,,,,,,,,,,,,,,,,,,,,,,,,,,,,,,,,,,,,,,,,,,,,,,,,,,,,,,,,195.08357236323062,182.2239977210287,158.60916267485447,139.70049721929283,123.15594064872732,174.99995803399446,1.0,1.1,-737,268,-480,252,-227,283,370.07712507247925,370.0772068500519,370.0807840824127,370.09160327911377,370.23244428634644,370.23244428634644,370.23244428634644,370.23244428634644,370.23244428634644,370.23244428634644,370.23244428634644,371.5816287994385,1,1.4864301681518555,None,,,,,,,,,,,,,,,,,,172,1,2025-03-03_12h53.05.394,comp,2024.2.4,57.44339277668137,2025-03-03 12h53.13.861902 -0500,
127,127,0,filler_random,None,None,None,None,None,None,None,None,None,None,3,1.939073085784912,None,,,,,0,0,0,0,0,127,127,162,371.5994191169739,,,,,,,,,,,,,,,,,,,,,,,,,,,,,,,,,,,,,,,,,,,,,,,,,,,,,,,,,,,,,,,,,,,,,,,,,,,,,,,,,,103.53279306613389,88.12060442087483,83.64469849327165,125.95867167809035,74.72744107683263,149.25551685934354,4.0,4.2,-203,-3,0,-272,234,5,371.58329725265503,371.58337116241455,371.5865318775177,371.5994191169739,371.7414848804474,371.7414848804474,371.7414848804474,371.7414848804474,371.7414848804474,371.7414848804474,371.7414848804474,373.54306721687317,3,1.939073085784912,None,,,,,,,,,,,,,,,,,,172,1,2025-03-03_12h53.05.394,comp,2024.2.4,57.44339277668137,2025-03-03 12h53.13.861902 -0500,
128,128,0,filler_random,None,None,None,None,None,None,None,None,None,None,3,1.0422842502593994,None,,,,,0,0,0,0,0,128,128,132,373.55937576293945,,,,,,,,,,,,,,,,,,,,,,,,,,,,,,,,,,,,,,,,,,,,,,,,,,,,,,,,,,,,,,,,,,,,,,,,,,,,,,,,,,75.93817524282652,69.24185558876553,140.2049590528679,69.56515096620326,174.76632495356841,93.32754349730278,2.2,2.22,-165,290,0,-253,177,-266,373.5448577404022,373.54494047164917,373.54849219322205,373.55937576293945,373.70781922340393,373.70781922340393,373.70781922340393,373.70781922340393,373.70781922340393,373.70781922340393,373.70781922340393,374.6174228191376,3,1.0422842502593994,None,,,,,,,,,,,,,,,,,,172,1,2025-03-03_12h53.05.394,comp,2024.2.4,57.44339277668137,2025-03-03 12h53.13.861902 -0500,
129,129,0,critical,hdw,20.0,4.0,upper,200.0,125.0,141.0,141.0,125.0,200.0,1,1.2003028392791748,None,,,,,0,0,0,0,0,129,129,119,374.63332414627075,,,,,,,,,,,,,,,,,,,,,,,,,,,,,,,,,,,,,,,,,,,,,,,,,,,,,,,,,,,,,,,,,,,,,,,,,,,,,,,,,,200.0,125.0,141.0,141.0,125.0,200.0,4.0,4.1,-229,-269,0,6,266,-281,374.619087934494,374.61916494369507,374.62275290489197,374.63332414627075,374.77660870552063,374.77660870552063,374.77660870552063,374.77660870552063,374.77660870552063,374.77660870552063,374.77660870552063,375.8535611629486,1,1.2003028392791748,None,,,,,,,,,,,,,,,,,,172,1,2025-03-03_12h53.05.394,comp,2024.2.4,57.44339277668137,2025-03-03 12h53.13.861902 -0500,
130,130,0,filler_square,None,None,None,None,None,None,None,None,None,None,2,1.3149020671844482,None,,,,,0,0,0,0,0,130,130,196,375.87163519859314,,,,,,,,,,,,,,,,,,,,,,,,,,,,,,,,,,,,,,,,,,,,,,,,,,,,,,,,,,,,,,,,,,,,,,,,,,,,,,,,,,70.84128791105526,68.86585826123067,72.98183380206724,72.98183380206724,62.127482844252505,71.07329647068836,2.2,2.22,-167,276,0,-272,168,-251,375.8554105758667,375.85548853874207,375.8586950302124,375.87163519859314,376.00939321517944,376.00939321517944,376.00939321517944,376.00939321517944,376.00939321517944,376.00939321517944,376.00939321517944,377.19604682922363,2,1.3149020671844482,None,,,,,,,,,,,,,,,,,,172,1,2025-03-03_12h53.05.394,comp,2024.2.4,57.44339277668137,2025-03-03 12h53.13.861902 -0500,
131,131,0,filler_random,None,None,None,None,None,None,None,None,None,None,1,1.0891029834747314,None,,,,,0,0,0,0,0,131,131,158,377.21741366386414,,,,,,,,,,,,,,,,,,,,,,,,,,,,,,,,,,,,,,,,,,,,,,,,,,,,,,,,,,,,,,,,,,,,,,,,,,,,,,,,,,175.95544505723228,180.7435601584715,132.89277861296983,82.64567407708044,145.36350647935848,105.09644451888195,3.0,3.1,-228,255,0,-3,190,-268,377.1980016231537,377.1981158256531,377.20164132118225,377.21741366386414,377.3664667606354,377.3664667606354,377.3664667606354,377.3664667606354,377.3664667606354,377.3664667606354,377.3664667606354,378.31289982795715,1,1.0891029834747314,None,,,,,,,,,,,,,,,,,,172,1,2025-03-03_12h53.05.394,comp,2024.2.4,57.44339277668137,2025-03-03 12h53.13.861902 -0500,
132,132,0,filler_square,None,None,None,None,None,None,None,None,None,None,1,1.2963991165161133,None,,,,,0,0,0,0,0,132,132,197,378.3297805786133,,,,,,,,,,,,,,,,,,,,,,,,,,,,,,,,,,,,,,,,,,,,,,,,,,,,,,,,,,,,,,,,,,,,,,,,,,,,,,,,,,189.0084229258321,189.0084229258321,66.9246344931397,176.37356085924552,63.507420989854545,179.36689863179998,4.0,4.1,-279,-276,0,-11,274,-280,378.31493854522705,378.3150200843811,378.3191225528717,378.3297805786133,378.4881203174591,378.4881203174591,378.4881203174591,378.4881203174591,378.4881203174591,378.4881203174591,378.4881203174591,379.63211727142334,1,1.2963991165161133,None,,,,,,,,,,,,,,,,,,172,1,2025-03-03_12h53.05.394,comp,2024.2.4,57.44339277668137,2025-03-03 12h53.13.861902 -0500,
133,133,0,critical,hdw,35.0,1.0,lower,133.0,57.0,70.0,70.0,57.0,133.0,1,2.9599835872650146,None,,,,,0,0,0,0,0,133,133,108,379.65030169487,,,,,,,,,,,,,,,,,,,,,,,,,,,,,,,,,,,,,,,,,,,,,,,,,,,,,,,,,,,,,,,,,,,,,,,,,,,,,,,,,,133.0,57.0,70.0,70.0,57.0,133.0,1.0,1.2,-160,-4,0,-7,198,-18,379.6337242126465,379.633802652359,379.63707852363586,379.65030169487,379.7944087982178,379.7944087982178,379.7944087982178,379.7944087982178,379.7944087982178,379.7944087982178,379.7944087982178,382.62863993644714,1,2.9599835872650146,None,,,,,,,,,,,,,,,,,,172,1,2025-03-03_12h53.05.394,comp,2024.2.4,57.44339277668137,2025-03-03 12h53.13.861902 -0500,
134,134,0,critical,hwd,20.0,1.0,upper,200.0,125.0,125.0,200.0,141.0,141.0,2,2.245513677597046,None,,,,,0,0,0,0,0,134,134,103,382.64414286613464,,,,,,,,,,,,,,,,,,,,,,,,,,,,,,,,,,,,,,,,,,,,,,,,,,,,,,,,,,,,,,,,,,,,,,,,,,,,,,,,,,200.0,125.0,125.0,200.0,141.0,141.0,1.0,1.1,-738,289,-480,283,-214,260,382.6301727294922,382.63025283813477,382.6337699890137,382.64414286613464,382.7813940048218,382.7813940048218,382.7813940048218,382.7813940048218,382.7813940048218,382.7813940048218,382.7813940048218,384.9025676250458,2,2.245513677597046,None,,,,,,,,,,,,,,,,,,172,1,2025-03-03_12h53.05.394,comp,2024.2.4,57.44339277668137,2025-03-03 12h53.13.861902 -0500,
135,135,0,critical,hdw,35.0,2.1,lower,133.0,57.0,70.0,70.0,57.0,133.0,3,2.0225272178649902,None,,,,,0,0,0,0,0,135,135,20,384.9232511520386,,,,,,,,,,,,,,,,,,,,,,,,,,,,,,,,,,,,,,,,,,,,,,,,,,,,,,,,,,,,,,,,,,,,,,,,,,,,,,,,,,133.0,57.0,70.0,70.0,57.0,133.0,2.1,2.12,-160,-265,0,-256,198,266,384.9041061401367,384.9041848182678,384.90741062164307,384.9232511520386,385.0636086463928,385.0636086463928,385.0636086463928,385.0636086463928,385.0636086463928,385.0636086463928,385.0636086463928,386.9632363319397,3,2.0225272178649902,None,,,,,,,,,,,,,,,,,,172,1,2025-03-03_12h53.05.394,comp,2024.2.4,57.44339277668137,2025-03-03 12h53.13.861902 -0500,
136,136,0,filler_random,None,None,None,None,None,None,None,None,None,None,2,1.3744580745697021,None,,,,,0,0,0,0,0,136,136,147,386.9795823097229,,,,,,,,,,,,,,,,,,,,,,,,,,,,,,,,,,,,,,,,,,,,,,,,,,,,,,,,,,,,,,,,,,,,,,,,,,,,,,,,,,141.00359607950173,150.5657030332236,196.0485914864637,120.3711260045799,147.10524338178183,105.71914704673299,3.0,3.1,-231,263,0,-11,209,-282,386.9650094509125,386.9650847911835,386.9684405326843,386.9795823097229,387.13013339042664,387.13013339042664,387.13013339042664,387.13013339042664,387.13013339042664,387.13013339042664,387.13013339042664,388.3680646419525,2,1.3744580745697021,None,,,,,,,,,,,,,,,,,,172,1,2025-03-03_12h53.05.394,comp,2024.2.4,57.44339277668137,2025-03-03 12h53.13.861902 -0500,
137,137,0,critical,dwh,20.0,1.0,upper,141.0,141.0,125.0,200.0,200.0,125.0,2,1.7690911293029785,None,,,,,0,0,0,0,0,137,137,67,388.38453555107117,,,,,,,,,,,,,,,,,,,,,,,,,,,,,,,,,,,,,,,,,,,,,,,,,,,,,,,,,,,,,,,,,,,,,,,,,,,,,,,,,,141.0,141.0,125.0,200.0,200.0,125.0,1.0,1.3,214,-274,480,-290,738,-266,388.3700382709503,388.37011885643005,388.3733458518982,388.38453555107117,388.53115916252136,388.53115916252136,388.53115916252136,388.53115916252136,388.53115916252136,388.53115916252136,388.53115916252136,390.16439938545227,2,1.7690911293029785,None,,,,,,,,,,,,,,,,,,172,1,2025-03-03_12h53.05.394,comp,2024.2.4,57.44339277668137,2025-03-03 12h53.13.861902 -0500,
138,138,0,critical,dhw,20.0,2.1,lower,78.0,78.0,133.0,57.0,57.0,133.0,3,2.083388328552246,None,,,,,0,0,0,0,0,138,138,26,390.1826214790344,,,,,,,,,,,,,,,,,,,,,,,,,,,,,,,,,,,,,,,,,,,,,,,,,,,,,,,,,,,,,,,,,,,,,,,,,,,,,,,,,,78.0,78.0,133.0,57.0,57.0,133.0,2.1,2.12,-164,-272,0,-284,191,265,390.1659255027771,390.16600489616394,390.1694619655609,390.1826214790344,390.3322422504425,390.3322422504425,390.3322422504425,390.3322422504425,390.3322422504425,390.3322422504425,390.3322422504425,392.27128314971924,3,2.083388328552246,None,,,,,,,,,,,,,,,,,,172,1,2025-03-03_12h53.05.394,comp,2024.2.4,57.44339277668137,2025-03-03 12h53.13.861902 -0500,
