thisN,thisTrialN,thisRepN,effect,order,distance,config,diag,h_1,w_1,h_2,w_2,h_3,w_3,rect_choice.keys,rect_choice.rt,rect_choice.duration,instructions_loop.thisRepN,instructions_loop.thisTrialN,instructions_loop.thisN,instructions_loop.thisIndex,blocks.thisRepN,blocks.thisTrialN,blocks.thisN,blocks.thisIndex,trials.thisRepN,trials.thisTrialN,trials.thisN,trials.thisIndex,thisRow.t,notes,consent.started,agree_button.started,decline_button.started,consent_img.started,mouse.started,consent.stopped,agree_button.numClicks,agree_button.timesOn,agree_button.timesOff,decline_button.numClicks,decline_button.timesOn,decline_button.timesOff,mouse.x,mouse.y,mouse.leftButton,mouse.midButton,mouse.rightButton,mouse.time,mouse.clicked_name,exp_params.started,exp_params.stopped,welcome.started,welcome_text.started,welcome.stopped,instructions_1.started,instructions_1_text_1.started,instructions_1_text_2.started,key_resp.started,instructions_1.stopped,instructions_loop.key_resp.keys,instructions_loop.key_resp.rt,instructions_loop.key_resp.duration,instructions_2.started,instructions_2_text_1.started,instructions_2_text_2.started,key_resp_2.started,instructions_2.stopped,instructions_loop.key_resp_2.keys,instructions_loop.key_resp_2.rt,instructions_loop.key_resp_2.duration,instructions_3.started,instructions_3_text_1.started,r1_instr3.started,r2_instr3.started,r3_instr3.started,r1_instr3_label.started,r2_instr3_label.started,r3_instr3_label.started,instructions_3_text_3.started,instructions_3_text_4.started,key_resp_3.started,instructions_3.stopped,instructions_loop.key_resp_3.keys,instructions_loop.key_resp_3.rt,instructions_loop.key_resp_3.duration,instructions_4.started,instructions_4_text_1.started,instructions_4_text_3.started,instructions_4_text_2.started,key_resp_4.started,instructions_4.stopped,instructions_loop.key_resp_4.keys,instructions_loop.key_resp_4.rt,instructions_loop.key_resp_4.duration,instructions_5.started,instructions_5_text_1.started,instructions_5_text_2.started,key_resp_5.started,instructions_5.stopped,instructions_loop.key_resp_5.keys,instructions_loop.key_resp_5.rt,instructions_loop.key_resp_5.duration,start_exp.started,start_exp_text.started,key_resp_6.started,start_exp.stopped,key_resp_6.keys,key_resp_6.rt,key_resp_6.duration,h_1_tmp,w_1_tmp,h_2_tmp,w_2_tmp,h_3_tmp,w_3_tmp,config_tmp,config_tmp_1,r_1_x,r_1_y,r_2_x,r_2_y,r_3_x,r_3_y,pre_trial.started,pre_trial.stopped,choice_trial.started,rect_choice.started,r_1.started,r_2.started,r_3.started,r_1_label.started,r_2_label.started,r_3_label.started,prompt.started,choice_trial.stopped,trials.rect_choice.keys,trials.rect_choice.rt,trials.rect_choice.duration,end_block.started,end_block_text.started,end_block.stopped,end.started,end_text.started,key_resp_7.started,end.stopped,key_resp_7.keys,key_resp_7.rt,key_resp_7.duration,debriefing.started,debrief_form.started,end_debrief.started,debriefing.stopped,end_debrief.keys,end_debrief.rt,end_debrief.duration,participant,computer,date,expName,psychopyVersion,frameRate,expStart,
,,,,,,,,,,,,,,,,,,,,,,,,,,,,,,,0.014456033706665039,0.03429055213928223,0.03429055213928223,0.03429055213928223,0.014255762100219727,9.759499549865723,0,,,0,,,[-121.0],[-526.0],[1],[0],[0],[9.744648694992065],['agree_button'],,,,,,,,,,,,,,,,,,,,,,,,,,,,,,,,,,,,,,,,,,,,,,,,,,,,,,,,,,,,,,,,,,,,,,,,,,,,,,,,,,,,,,,,,,,,,,,,,,,,,,,,,,,173,2,2025-03-03_12h53.10.006,comp,2024.2.4,53.91191683204969,2025-03-03 12h53.20.375155 -0500,
,,,,,,,,,,,,,,,,,,,,,,,,,,,,,,,,,,,,,,,,,,,,,,,,,,9.759831428527832,9.759921312332153,,,,,,,,,,,,,,,,,,,,,,,,,,,,,,,,,,,,,,,,,,,,,,,,,,,,,,,,,,,,,,,,,,,,,,,,,,,,,,,,,,,,,,,,,,,,,,,,,,,,,,,,,173,2,2025-03-03_12h53.10.006,comp,2024.2.4,53.91191683204969,2025-03-03 12h53.20.375155 -0500,
,,,,,,,,,,,,,,,,,,,,,,,,,,,,,,,,,,,,,,,,,,,,,,,,,,,,9.75995922088623,9.776899337768555,11.772689819335938,,,,,,,,,,,,,,,,,,,,,,,,,,,,,,,,,,,,,,,,,,,,,,,,,,,,,,,,,,,,,,,,,,,,,,,,,,,,,,,,,,,,,,,,,,,,,,,,,,,,,,173,2,2025-03-03_12h53.10.006,comp,2024.2.4,53.91191683204969,2025-03-03 12h53.20.375155 -0500,
0,0,0,,,,,,,,,,,,,,,0,0,0,0,,,,,,,,,11.789249420166016,,,,,,,,,,,,,,,,,,,,,,,,,,11.773575782775879,11.789249420166016,11.789249420166016,13.274053573608398,14.073323249816895,space,0.7811081409454346,None,14.073473930358887,14.087476968765259,14.087476968765259,15.579664707183838,19.092982530593872,space,3.506047248840332,None,19.093135833740234,19.121946334838867,19.121946334838867,19.121946334838867,19.121946334838867,19.121946334838867,19.121946334838867,19.121946334838867,19.121946334838867,19.121946334838867,20.598093032836914,22.88692569732666,space,2.2711238861083984,None,22.8870906829834,22.90348243713379,22.90348243713379,22.90348243713379,24.39341115951538,26.595377445220947,space,2.1961371898651123,None,26.595530033111572,26.612656593322754,26.612656593322754,28.094327449798584,30.011765956878662,space,1.9114911556243896,None,30.012003898620605,30.027445554733276,30.027445554733276,30.815638303756714,space,0.7696418762207031,None,,,,,,,,,,,,,,,,,,,,,,,,,,,,,,,,,,,,,,,,,,,,,,,173,2,2025-03-03_12h53.10.006,comp,2024.2.4,53.91191683204969,2025-03-03 12h53.20.375155 -0500,
0,0,0,critical,wdh,20.0,2.1,upper,125.0,200.0,141.0,141.0,200.0,125.0,1,4.393444061279297,None,,,,,0,0,0,0,0,0,0,35,30.89215850830078,,,,,,,,,,,,,,,,,,,,,,,,,,,,,,,,,,,,,,,,,,,,,,,,,,,,,,,,,,,,,,,,,,,,,,,,,,,,,,,,,125.0,200.0,141.0,141.0,200.0,125.0,2.1,2.12,-266,-273,0,-279,229,281,30.876506090164185,30.876540422439575,30.877810955047607,30.89215850830078,31.03888440132141,31.03888440132141,31.03888440132141,31.03888440132141,31.03888440132141,31.03888440132141,31.03888440132141,35.30263137817383,1,4.393444061279297,None,,,,,,,,,,,,,,,,,,173,2,2025-03-03_12h53.10.006,comp,2024.2.4,53.91191683204969,2025-03-03 12h53.20.375155 -0500,
1,1,0,critical,hdw,20.0,3.0,lower,133.0,57.0,78.0,78.0,57.0,133.0,1,2.7326436042785645,None,,,,,0,0,0,0,0,1,1,116,35.3204619884491,,,,,,,,,,,,,,,,,,,,,,,,,,,,,,,,,,,,,,,,,,,,,,,,,,,,,,,,,,,,,,,,,,,,,,,,,,,,,,,,,133.0,57.0,78.0,78.0,57.0,133.0,3.0,3.2,-164,-268,0,-6,202,262,35.304261684417725,35.30437088012695,35.30771446228027,35.3204619884491,35.46549081802368,35.46549081802368,35.46549081802368,35.46549081802368,35.46549081802368,35.46549081802368,35.46549081802368,38.06546425819397,1,2.7326436042785645,None,,,,,,,,,,,,,,,,,,173,2,2025-03-03_12h53.10.006,comp,2024.2.4,53.91191683204969,2025-03-03 12h53.20.375155 -0500,
2,2,0,critical,wdh,20.0,3.0,lower,57.0,133.0,78.0,78.0,133.0,57.0,2,5.23517370223999,None,,,,,0,0,0,0,0,2,2,80,38.081931591033936,,,,,,,,,,,,,,,,,,,,,,,,,,,,,,,,,,,,,,,,,,,,,,,,,,,,,,,,,,,,,,,,,,,,,,,,,,,,,,,,,57.0,133.0,78.0,78.0,133.0,57.0,3.0,3.1,-202,262,0,-12,164,-265,38.067065715789795,38.067145347595215,38.07054162025452,38.081931591033936,38.23501920700073,38.23501920700073,38.23501920700073,38.23501920700073,38.23501920700073,38.23501920700073,38.23501920700073,43.33475470542908,2,5.23517370223999,None,,,,,,,,,,,,,,,,,,173,2,2025-03-03_12h53.10.006,comp,2024.2.4,53.91191683204969,2025-03-03 12h53.20.375155 -0500,
3,3,0,filler_random,None,None,None,None,None,None,None,None,None,None,2,2.068061351776123,None,,,,,0,0,0,0,0,3,3,142,43.35300850868225,,,,,,,,,,,,,,,,,,,,,,,,,,,,,,,,,,,,,,,,,,,,,,,,,,,,,,,,,,,,,,,,,,,,,,,,,,,,,,,,,184.67187175933833,100.0802521757453,163.37618271974702,148.02760993310773,101.84271567551664,73.51001595194757,2.2,2.22,-220,255,0,-259,207,-256,43.33657646179199,43.336708545684814,43.34019207954407,43.35300850868225,43.49996256828308,43.49996256828308,43.49996256828308,43.49996256828308,43.49996256828308,43.49996256828308,43.49996256828308,45.43539071083069,2,2.068061351776123,None,,,,,,,,,,,,,,,,,,173,2,2025-03-03_12h53.10.006,comp,2024.2.4,53.91191683204969,2025-03-03 12h53.20.375155 -0500,
4,4,0,critical,whd,20.0,4.0,upper,125.0,200.0,200.0,125.0,141.0,141.0,1,2.9827704429626465,None,,,,,0,0,0,0,0,4,4,95,45.45436978340149,,,,,,,,,,,,,,,,,,,,,,,,,,,,,,,,,,,,,,,,,,,,,,,,,,,,,,,,,,,,,,,,,,,,,,,,,,,,,,,,,125.0,200.0,200.0,125.0,141.0,141.0,4.0,4.2,-258,13,0,-250,229,6,45.43689727783203,45.436973094940186,45.440574645996094,45.45436978340149,45.60358262062073,45.60358262062073,45.60358262062073,45.60358262062073,45.60358262062073,45.60358262062073,45.60358262062073,48.45205330848694,1,2.9827704429626465,None,,,,,,,,,,,,,,,,,,173,2,2025-03-03_12h53.10.006,comp,2024.2.4,53.91191683204969,2025-03-03 12h53.20.375155 -0500,
5,5,0,critical,dhw,20.0,2.1,upper,141.0,141.0,200.0,125.0,125.0,200.0,3,1.497997760772705,None,,,,,0,0,0,0,0,5,5,27,48.4677050113678,,,,,,,,,,,,,,,,,,,,,,,,,,,,,,,,,,,,,,,,,,,,,,,,,,,,,,,,,,,,,,,,,,,,,,,,,,,,,,,,,141.0,141.0,200.0,125.0,125.0,200.0,2.1,2.11,-229,266,0,285,258,-279,48.453540086746216,48.453617811203,48.457271337509155,48.4677050113678,48.61558675765991,48.61558675765991,48.61558675765991,48.61558675765991,48.61558675765991,48.61558675765991,48.61558675765991,49.96932506561279,3,1.497997760772705,None,,,,,,,,,,,,,,,,,,173,2,2025-03-03_12h53.10.006,comp,2024.2.4,53.91191683204969,2025-03-03 12h53.20.375155 -0500,
6,6,0,critical,dwh,20.0,1.0,upper,141.0,141.0,125.0,200.0,200.0,125.0,2,2.0674099922180176,None,,,,,0,0,0,0,0,6,6,67,49.98620343208313,,,,,,,,,,,,,,,,,,,,,,,,,,,,,,,,,,,,,,,,,,,,,,,,,,,,,,,,,,,,,,,,,,,,,,,,,,,,,,,,,141.0,141.0,125.0,200.0,200.0,125.0,1.0,1.1,-746,286,-480,274,-222,276,49.970932483673096,49.97100853919983,49.97457408905029,49.98620343208313,50.141029596328735,50.141029596328735,50.141029596328735,50.141029596328735,50.141029596328735,50.141029596328735,50.141029596328735,52.0601544380188,2,2.0674099922180176,None,,,,,,,,,,,,,,,,,,173,2,2025-03-03_12h53.10.006,comp,2024.2.4,53.91191683204969,2025-03-03 12h53.20.375155 -0500,
7,7,0,critical,whd,20.0,2.1,lower,57.0,133.0,133.0,57.0,78.0,78.0,3,2.2256386280059814,None,,,,,0,0,0,0,0,7,7,14,52.07608199119568,,,,,,,,,,,,,,,,,,,,,,,,,,,,,,,,,,,,,,,,,,,,,,,,,,,,,,,,,,,,,,,,,,,,,,,,,,,,,,,,,57.0,133.0,133.0,57.0,78.0,78.0,2.1,2.12,-191,-270,0,-271,164,276,52.06171131134033,52.061787843704224,52.0652437210083,52.07608199119568,52.221062898635864,52.221062898635864,52.221062898635864,52.221062898635864,52.221062898635864,52.221062898635864,52.221062898635864,54.30548453330994,3,2.2256386280059814,None,,,,,,,,,,,,,,,,,,173,2,2025-03-03_12h53.10.006,comp,2024.2.4,53.91191683204969,2025-03-03 12h53.20.375155 -0500,
8,8,0,filler_random,None,None,None,None,None,None,None,None,None,None,1,1.9785704612731934,None,,,,,0,0,0,0,0,8,8,164,54.32292914390564,,,,,,,,,,,,,,,,,,,,,,,,,,,,,,,,,,,,,,,,,,,,,,,,,,,,,,,,,,,,,,,,,,,,,,,,,,,,,,,,,140.7764908371097,127.18340131206332,185.38621645917354,71.10982336785138,76.40984362517558,123.03317289301934,3.0,3.1,-195,261,0,20,193,-277,54.307411432266235,54.30748915672302,54.311296463012695,54.32292914390564,54.45764517784119,54.45764517784119,54.45764517784119,54.45764517784119,54.45764517784119,54.45764517784119,54.45764517784119,56.30346345901489,1,1.9785704612731934,None,,,,,,,,,,,,,,,,,,173,2,2025-03-03_12h53.10.006,comp,2024.2.4,53.91191683204969,2025-03-03 12h53.20.375155 -0500,
9,9,0,critical,hdw,20.0,1.0,upper,200.0,125.0,141.0,141.0,125.0,200.0,3,3.1269679069519043,None,,,,,0,0,0,0,0,9,9,115,56.319823265075684,,,,,,,,,,,,,,,,,,,,,,,,,,,,,,,,,,,,,,,,,,,,,,,,,,,,,,,,,,,,,,,,,,,,,,,,,,,,,,,,,200.0,125.0,141.0,141.0,125.0,200.0,1.0,1.1,-709,265,-480,288,-214,280,56.30500817298889,56.3050856590271,56.308302879333496,56.319823265075684,56.455578565597534,56.455578565597534,56.455578565597534,56.455578565597534,56.455578565597534,56.455578565597534,56.455578565597534,59.452502965927124,3,3.1269679069519043,None,,,,,,,,,,,,,,,,,,173,2,2025-03-03_12h53.10.006,comp,2024.2.4,53.91191683204969,2025-03-03 12h53.20.375155 -0500,
10,10,0,critical,whd,20.0,2.1,lower,57.0,133.0,133.0,57.0,78.0,78.0,1,3.0083606243133545,None,,,,,0,0,0,0,0,10,10,38,59.4701611995697,,,,,,,,,,,,,,,,,,,,,,,,,,,,,,,,,,,,,,,,,,,,,,,,,,,,,,,,,,,,,,,,,,,,,,,,,,,,,,,,,57.0,133.0,133.0,57.0,78.0,78.0,2.1,2.12,-191,-273,0,-283,164,281,59.45405030250549,59.45412826538086,59.45712924003601,59.4701611995697,59.62193942070007,59.62193942070007,59.62193942070007,59.62193942070007,59.62193942070007,59.62193942070007,59.62193942070007,62.49006700515747,1,3.0083606243133545,None,,,,,,,,,,,,,,,,,,173,2,2025-03-03_12h53.10.006,comp,2024.2.4,53.91191683204969,2025-03-03 12h53.20.375155 -0500,
11,11,0,critical,hdw,35.0,2.1,upper,200.0,125.0,127.0,127.0,125.0,200.0,3,1.5298383235931396,None,,,,,0,0,0,0,0,11,11,21,62.5069100856781,,,,,,,,,,,,,,,,,,,,,,,,,,,,,,,,,,,,,,,,,,,,,,,,,,,,,,,,,,,,,,,,,,,,,,,,,,,,,,,,,200.0,125.0,127.0,127.0,125.0,200.0,2.1,2.11,-222,289,0,274,260,-287,62.49164938926697,62.4917266368866,62.49587273597717,62.5069100856781,62.65571117401123,62.65571117401123,62.65571117401123,62.65571117401123,62.65571117401123,62.65571117401123,62.65571117401123,64.03946352005005,3,1.5298383235931396,None,,,,,,,,,,,,,,,,,,173,2,2025-03-03_12h53.10.006,comp,2024.2.4,53.91191683204969,2025-03-03 12h53.20.375155 -0500,
12,12,0,filler_random,None,None,None,None,None,None,None,None,None,None,1,1.8221356868743896,None,,,,,0,0,0,0,0,12,12,146,64.05513310432434,,,,,,,,,,,,,,,,,,,,,,,,,,,,,,,,,,,,,,,,,,,,,,,,,,,,,,,,,,,,,,,,,,,,,,,,,,,,,,,,,171.87007373396943,132.37445057100683,143.2176535513509,108.16047035174951,90.3943434841047,123.69723034924199,2.2,2.22,-216,261,0,-270,212,-281,64.04043531417847,64.04047465324402,64.04204487800598,64.05513310432434,64.20728421211243,64.20728421211243,64.20728421211243,64.20728421211243,64.20728421211243,64.20728421211243,64.20728421211243,65.89087796211243,1,1.8221356868743896,None,,,,,,,,,,,,,,,,,,173,2,2025-03-03_12h53.10.006,comp,2024.2.4,53.91191683204969,2025-03-03 12h53.20.375155 -0500,
13,13,0,filler_random,None,None,None,None,None,None,None,None,None,None,1,1.0592906475067139,None,,,,,0,0,0,0,0,13,13,153,65.90653371810913,,,,,,,,,,,,,,,,,,,,,,,,,,,,,,,,,,,,,,,,,,,,,,,,,,,,,,,,,,,,,,,,,,,,,,,,,,,,,,,,,184.528329071927,109.73867775088732,102.74304929509871,118.68666021711293,106.61332799160698,65.5873326601419,4.0,4.1,-210,-255,0,-14,188,-286,65.89259386062622,65.89267468452454,65.89618968963623,65.90653371810913,66.0548951625824,66.0548951625824,66.0548951625824,66.0548951625824,66.0548951625824,66.0548951625824,66.0548951625824,66.97562766075134,1,1.0592906475067139,None,,,,,,,,,,,,,,,,,,173,2,2025-03-03_12h53.10.006,comp,2024.2.4,53.91191683204969,2025-03-03 12h53.20.375155 -0500,
14,14,0,filler_random,None,None,None,None,None,None,None,None,None,None,1,1.0827441215515137,None,,,,,0,0,0,0,0,14,14,145,66.99458026885986,,,,,,,,,,,,,,,,,,,,,,,,,,,,,,,,,,,,,,,,,,,,,,,,,,,,,,,,,,,,,,,,,,,,,,,,,,,,,,,,,162.7745889375726,198.6293592465666,73.86860748201244,169.1041442301643,74.84891337808668,96.45874697477012,2.1,2.11,-280,270,0,251,229,-270,66.97728490829468,66.97736167907715,66.98139357566833,66.99458026885986,67.14012408256531,67.14012408256531,67.14012408256531,67.14012408256531,67.14012408256531,67.14012408256531,67.14012408256531,68.08153200149536,1,1.0827441215515137,None,,,,,,,,,,,,,,,,,,173,2,2025-03-03_12h53.10.006,comp,2024.2.4,53.91191683204969,2025-03-03 12h53.20.375155 -0500,
15,15,0,critical,dwh,20.0,3.0,lower,78.0,78.0,57.0,133.0,133.0,57.0,1,2.5290324687957764,None,,,,,0,0,0,0,0,15,15,68,68.10039234161377,,,,,,,,,,,,,,,,,,,,,,,,,,,,,,,,,,,,,,,,,,,,,,,,,,,,,,,,,,,,,,,,,,,,,,,,,,,,,,,,,78.0,78.0,57.0,133.0,133.0,57.0,3.0,3.2,-202,-263,0,-6,191,258,68.08302450180054,68.08310127258301,68.08607769012451,68.10039234161377,68.24147748947144,68.24147748947144,68.24147748947144,68.24147748947144,68.24147748947144,68.24147748947144,68.24147748947144,70.64219927787781,1,2.5290324687957764,None,,,,,,,,,,,,,,,,,,173,2,2025-03-03_12h53.10.006,comp,2024.2.4,53.91191683204969,2025-03-03 12h53.20.375155 -0500,
16,16,0,filler_square,None,None,None,None,None,None,None,None,None,None,1,3.576533555984497,None,,,,,0,0,0,0,0,16,16,185,70.6611864566803,,,,,,,,,,,,,,,,,,,,,,,,,,,,,,,,,,,,,,,,,,,,,,,,,,,,,,,,,,,,,,,,,,,,,,,,,,,,,,,,,71.60601833097789,71.60601833097789,68.33325717387864,63.67316288031422,69.94685181418726,62.25581085113907,1.0,1.2,-164,-4,0,-6,159,12,70.64397692680359,70.64405131340027,70.64725160598755,70.6611864566803,70.80952095985413,70.80952095985413,70.80952095985413,70.80952095985413,70.80952095985413,70.80952095985413,70.80952095985413,74.2439353466034,1,3.576533555984497,None,,,,,,,,,,,,,,,,,,173,2,2025-03-03_12h53.10.006,comp,2024.2.4,53.91191683204969,2025-03-03 12h53.20.375155 -0500,
17,17,0,critical,dhw,35.0,2.1,upper,127.0,127.0,200.0,125.0,125.0,200.0,2,2.125910758972168,None,,,,,0,0,0,0,0,17,17,1,74.26397967338562,,,,,,,,,,,,,,,,,,,,,,,,,,,,,,,,,,,,,,,,,,,,,,,,,,,,,,,,,,,,,,,,,,,,,,,,,,,,,,,,,127.0,127.0,200.0,125.0,125.0,200.0,2.1,2.12,-222,-268,0,-271,258,265,74.24554538726807,74.24562191963196,74.24933052062988,74.26397967338562,74.40252327919006,74.40252327919006,74.40252327919006,74.40252327919006,74.40252327919006,74.40252327919006,74.40252327919006,76.39579200744629,2,2.125910758972168,None,,,,,,,,,,,,,,,,,,173,2,2025-03-03_12h53.10.006,comp,2024.2.4,53.91191683204969,2025-03-03 12h53.20.375155 -0500,
18,18,0,critical,dwh,20.0,2.1,lower,78.0,78.0,57.0,133.0,133.0,57.0,1,2.000946521759033,None,,,,,0,0,0,0,0,18,18,6,76.41219401359558,,,,,,,,,,,,,,,,,,,,,,,,,,,,,,,,,,,,,,,,,,,,,,,,,,,,,,,,,,,,,,,,,,,,,,,,,,,,,,,,,78.0,78.0,57.0,133.0,133.0,57.0,2.1,2.11,-202,279,0,278,191,-275,76.3974494934082,76.39755749702454,76.40111517906189,76.41219401359558,76.56170630455017,76.56170630455017,76.56170630455017,76.56170630455017,76.56170630455017,76.56170630455017,76.56170630455017,78.4267463684082,1,2.000946521759033,None,,,,,,,,,,,,,,,,,,173,2,2025-03-03_12h53.10.006,comp,2024.2.4,53.91191683204969,2025-03-03 12h53.20.375155 -0500,
19,19,0,critical,dhw,20.0,2.1,lower,78.0,78.0,133.0,57.0,57.0,133.0,3,1.770838975906372,None,,,,,0,0,0,0,0,19,19,2,78.44251036643982,,,,,,,,,,,,,,,,,,,,,,,,,,,,,,,,,,,,,,,,,,,,,,,,,,,,,,,,,,,,,,,,,,,,,,,,,,,,,,,,,78.0,78.0,133.0,57.0,57.0,133.0,2.1,2.12,-164,-254,0,-279,191,252,78.42835474014282,78.42842960357666,78.43189907073975,78.44251036643982,78.59693098068237,78.59693098068237,78.59693098068237,78.59693098068237,78.59693098068237,78.59693098068237,78.59693098068237,80.22859501838684,3,1.770838975906372,None,,,,,,,,,,,,,,,,,,173,2,2025-03-03_12h53.10.006,comp,2024.2.4,53.91191683204969,2025-03-03 12h53.20.375155 -0500,
20,20,0,filler_random,None,None,None,None,None,None,None,None,None,None,1,1.1776132583618164,None,,,,,0,0,0,0,0,20,20,167,80.24477291107178,,,,,,,,,,,,,,,,,,,,,,,,,,,,,,,,,,,,,,,,,,,,,,,,,,,,,,,,,,,,,,,,,,,,,,,,,,,,,,,,,168.4760824112463,134.36517409352552,182.84505510058364,73.43241276151784,192.0073263214574,110.9805954720618,2.1,2.11,-200,263,0,280,188,-271,80.23035192489624,80.23048520088196,80.23451828956604,80.24477291107178,80.40209197998047,80.40209197998047,80.40209197998047,80.40209197998047,80.40209197998047,80.40209197998047,80.40209197998047,81.42805409431458,1,1.1776132583618164,None,,,,,,,,,,,,,,,,,,173,2,2025-03-03_12h53.10.006,comp,2024.2.4,53.91191683204969,2025-03-03 12h53.20.375155 -0500,
21,21,0,filler_square,None,None,None,None,None,None,None,None,None,None,1,1.0325021743774414,None,,,,,0,0,0,0,0,21,21,179,81.44509387016296,,,,,,,,,,,,,,,,,,,,,,,,,,,,,,,,,,,,,,,,,,,,,,,,,,,,,,,,,,,,,,,,,,,,,,,,,,,,,,,,,191.78821724115775,191.78821724115775,127.92376996543096,176.51205893895548,100.11663790113313,133.86989994768314,2.2,2.21,-280,-250,0,258,251,268,81.4298768043518,81.42995715141296,81.43314385414124,81.44509387016296,81.59936189651489,81.59936189651489,81.59936189651489,81.59936189651489,81.59936189651489,81.59936189651489,81.59936189651489,82.48410058021545,1,1.0325021743774414,None,,,,,,,,,,,,,,,,,,173,2,2025-03-03_12h53.10.006,comp,2024.2.4,53.91191683204969,2025-03-03 12h53.20.375155 -0500,
22,22,0,filler_random,None,None,None,None,None,None,None,None,None,None,1,1.4795286655426025,None,,,,,0,0,0,0,0,22,22,165,82.50171661376953,,,,,,,,,,,,,,,,,,,,,,,,,,,,,,,,,,,,,,,,,,,,,,,,,,,,,,,,,,,,,,,,,,,,,,,,,,,,,,,,,172.99738632870782,142.10130596649452,132.6528797956621,133.33390937075137,167.1363441895503,74.35768144098488,2.1,2.11,-234,270,0,272,200,-265,82.48577213287354,82.48588466644287,82.48882675170898,82.50171661376953,82.6459379196167,82.6459379196167,82.6459379196167,82.6459379196167,82.6459379196167,82.6459379196167,82.6459379196167,83.99805331230164,1,1.4795286655426025,None,,,,,,,,,,,,,,,,,,173,2,2025-03-03_12h53.10.006,comp,2024.2.4,53.91191683204969,2025-03-03 12h53.20.375155 -0500,
23,23,0,filler_random,None,None,None,None,None,None,None,None,None,None,1,1.2777504920959473,None,,,,,0,0,0,0,0,23,23,150,84.0161542892456,,,,,,,,,,,,,,,,,,,,,,,,,,,,,,,,,,,,,,,,,,,,,,,,,,,,,,,,,,,,,,,,,,,,,,,,,,,,,,,,,92.29581557739887,172.8276268057635,88.00033103863893,65.09132434789441,153.7477004238546,72.22730043074766,4.0,4.2,-215,0,0,-262,165,1,83.99989056587219,84.00002360343933,84.00380325317383,84.0161542892456,84.16335701942444,84.16335701942444,84.16335701942444,84.16335701942444,84.16335701942444,84.16335701942444,84.16335701942444,85.30116963386536,1,1.2777504920959473,None,,,,,,,,,,,,,,,,,,173,2,2025-03-03_12h53.10.006,comp,2024.2.4,53.91191683204969,2025-03-03 12h53.20.375155 -0500,
24,24,0,filler_square,None,None,None,None,None,None,None,None,None,None,2,1.5290899276733398,None,,,,,0,0,0,0,0,24,24,200,85.3163332939148,,,,,,,,,,,,,,,,,,,,,,,,,,,,,,,,,,,,,,,,,,,,,,,,,,,,,,,,,,,,,,,,,,,,,,,,,,,,,,,,,57.99016273988262,89.9919454381546,158.04982827397788,158.04982827397788,128.40408621981163,89.99926164357848,2.2,2.22,-220,264,0,-287,220,-252,85.30320572853088,85.30328178405762,85.30688691139221,85.3163332939148,85.46372747421265,85.46372747421265,85.46372747421265,85.46372747421265,85.46372747421265,85.46372747421265,85.46372747421265,86.8472650051117,2,1.5290899276733398,None,,,,,,,,,,,,,,,,,,173,2,2025-03-03_12h53.10.006,comp,2024.2.4,53.91191683204969,2025-03-03 12h53.20.375155 -0500,
25,25,0,filler_square,None,None,None,None,None,None,None,None,None,None,3,1.6072046756744385,None,,,,,0,0,0,0,0,25,25,174,86.86401200294495,,,,,,,,,,,,,,,,,,,,,,,,,,,,,,,,,,,,,,,,,,,,,,,,,,,,,,,,,,,,,,,,,,,,,,,,,,,,,,,,,69.33895869997701,63.17877106410142,82.56117303799039,79.54846131847388,84.86192979325202,84.86192979325202,1.0,1.3,313,-262,480,-270,658,-250,86.84909081459045,86.84917044639587,86.8524112701416,86.86401200294495,87.01256394386292,87.01256394386292,87.01256394386292,87.01256394386292,87.01256394386292,87.01256394386292,87.01256394386292,88.47669720649719,3,1.6072046756744385,None,,,,,,,,,,,,,,,,,,173,2,2025-03-03_12h53.10.006,comp,2024.2.4,53.91191683204969,2025-03-03 12h53.20.375155 -0500,
26,26,0,filler_square,None,None,None,None,None,None,None,None,None,None,3,1.3601360321044922,None,,,,,0,0,0,0,0,26,26,193,88.49311900138855,,,,,,,,,,,,,,,,,,,,,,,,,,,,,,,,,,,,,,,,,,,,,,,,,,,,,,,,,,,,,,,,,,,,,,,,,,,,,,,,,66.93883919267192,63.560716515411855,57.548322956375316,57.821719501244715,86.74266442121589,86.74266442121589,2.2,2.22,-157,277,0,-272,168,-256,88.47843813896179,88.47851514816284,88.48155307769775,88.49311900138855,88.6315062046051,88.6315062046051,88.6315062046051,88.6315062046051,88.6315062046051,88.6315062046051,88.6315062046051,89.86694860458374,3,1.3601360321044922,None,,,,,,,,,,,,,,,,,,173,2,2025-03-03_12h53.10.006,comp,2024.2.4,53.91191683204969,2025-03-03 12h53.20.375155 -0500,
27,27,0,critical,dhw,20.0,3.0,lower,78.0,78.0,133.0,57.0,57.0,133.0,3,1.6031451225280762,None,,,,,0,0,0,0,0,27,27,56,89.8820948600769,,,,,,,,,,,,,,,,,,,,,,,,,,,,,,,,,,,,,,,,,,,,,,,,,,,,,,,,,,,,,,,,,,,,,,,,,,,,,,,,,78.0,78.0,133.0,57.0,57.0,133.0,3.0,3.1,-164,280,0,-1,191,-277,89.86845517158508,89.86853384971619,89.87178897857666,89.8820948600769,90.03211712837219,90.03211712837219,90.03211712837219,90.03211712837219,90.03211712837219,90.03211712837219,90.03211712837219,91.49830985069275,3,1.6031451225280762,None,,,,,,,,,,,,,,,,,,173,2,2025-03-03_12h53.10.006,comp,2024.2.4,53.91191683204969,2025-03-03 12h53.20.375155 -0500,
28,28,0,filler_square,None,None,None,None,None,None,None,None,None,None,3,1.1628587245941162,None,,,,,0,0,0,0,0,28,28,186,91.51472854614258,,,,,,,,,,,,,,,,,,,,,,,,,,,,,,,,,,,,,,,,,,,,,,,,,,,,,,,,,,,,,,,,,,,,,,,,,,,,,,,,,84.83937839096781,71.9849952905944,116.62874738414635,113.7231786966569,124.67614933359626,124.67614933359626,4.0,4.1,-189,-253,0,-17,215,-258,91.50006794929504,91.50014424324036,91.5035035610199,91.51472854614258,91.66572952270508,91.66572952270508,91.66572952270508,91.66572952270508,91.66572952270508,91.66572952270508,91.66572952270508,92.68164372444153,3,1.1628587245941162,None,,,,,,,,,,,,,,,,,,173,2,2025-03-03_12h53.10.006,comp,2024.2.4,53.91191683204969,2025-03-03 12h53.20.375155 -0500,
29,29,0,critical,hwd,20.0,2.1,lower,133.0,57.0,57.0,133.0,78.0,78.0,3,1.3548388481140137,None,,,,,0,0,0,0,0,29,29,18,92.69861102104187,,,,,,,,,,,,,,,,,,,,,,,,,,,,,,,,,,,,,,,,,,,,,,,,,,,,,,,,,,,,,,,,,,,,,,,,,,,,,,,,,133.0,57.0,57.0,133.0,78.0,78.0,2.1,2.11,-191,260,0,276,202,-264,92.68312096595764,92.68319892883301,92.68634843826294,92.69861102104187,92.85429525375366,92.85429525375366,92.85429525375366,92.85429525375366,92.85429525375366,92.85429525375366,92.85429525375366,94.06841492652893,3,1.3548388481140137,None,,,,,,,,,,,,,,,,,,173,2,2025-03-03_12h53.10.006,comp,2024.2.4,53.91191683204969,2025-03-03 12h53.20.375155 -0500,
30,30,0,critical,dhw,20.0,1.0,lower,78.0,78.0,133.0,57.0,57.0,133.0,1,3.472487688064575,None,,,,,0,0,0,0,0,30,30,54,94.08518171310425,,,,,,,,,,,,,,,,,,,,,,,,,,,,,,,,,,,,,,,,,,,,,,,,,,,,,,,,,,,,,,,,,,,,,,,,,,,,,,,,,78.0,78.0,133.0,57.0,57.0,133.0,1.0,1.2,-164,-4,0,5,191,5,94.07011198997498,94.07018637657166,94.07407712936401,94.08518171310425,94.23294281959534,94.23294281959534,94.23294281959534,94.23294281959534,94.23294281959534,94.23294281959534,94.23294281959534,97.56668782234192,1,3.472487688064575,None,,,,,,,,,,,,,,,,,,173,2,2025-03-03_12h53.10.006,comp,2024.2.4,53.91191683204969,2025-03-03 12h53.20.375155 -0500,
31,31,0,filler_square,None,None,None,None,None,None,None,None,None,None,2,1.209913730621338,None,,,,,0,0,0,0,0,31,31,189,97.58746695518494,,,,,,,,,,,,,,,,,,,,,,,,,,,,,,,,,,,,,,,,,,,,,,,,,,,,,,,,,,,,,,,,,,,,,,,,,,,,,,,,,105.27895787409985,57.76328032858961,124.46342607265767,124.46342607265767,92.90444138840027,82.2695586909592,4.0,4.1,-187,-268,0,-3,199,-252,97.56848478317261,97.5685601234436,97.57177424430847,97.58746695518494,97.73491334915161,97.73491334915161,97.73491334915161,97.73491334915161,97.73491334915161,97.73491334915161,97.73491334915161,98.8030276298523,2,1.209913730621338,None,,,,,,,,,,,,,,,,,,173,2,2025-03-03_12h53.10.006,comp,2024.2.4,53.91191683204969,2025-03-03 12h53.20.375155 -0500,
32,32,0,critical,wdh,35.0,3.0,lower,57.0,133.0,70.0,70.0,133.0,57.0,1,1.8934111595153809,None,,,,,0,0,0,0,0,32,32,74,98.82397150993347,,,,,,,,,,,,,,,,,,,,,,,,,,,,,,,,,,,,,,,,,,,,,,,,,,,,,,,,,,,,,,,,,,,,,,,,,,,,,,,,,57.0,133.0,70.0,70.0,133.0,57.0,3.0,3.2,-198,-254,0,-12,160,274,98.804514169693,98.8045973777771,98.80834770202637,98.82397150993347,98.96810364723206,98.96810364723206,98.96810364723206,98.96810364723206,98.96810364723206,98.96810364723206,98.96810364723206,100.73527789115906,1,1.8934111595153809,None,,,,,,,,,,,,,,,,,,173,2,2025-03-03_12h53.10.006,comp,2024.2.4,53.91191683204969,2025-03-03 12h53.20.375155 -0500,
33,33,0,filler_random,None,None,None,None,None,None,None,None,None,None,3,1.0465490818023682,None,,,,,0,0,0,0,0,33,33,152,100.75151562690735,,,,,,,,,,,,,,,,,,,,,,,,,,,,,,,,,,,,,,,,,,,,,,,,,,,,,,,,,,,,,,,,,,,,,,,,,,,,,,,,,149.77255882247476,81.863540254134,104.27632840099913,180.05050686338296,150.88000004556216,185.74830636162966,2.1,2.11,-227,280,0,283,279,-254,100.73694896697998,100.73702430725098,100.74127268791199,100.75151562690735,100.90240287780762,100.90240287780762,100.90240287780762,100.90240287780762,100.90240287780762,100.90240287780762,100.90240287780762,101.80249905586243,3,1.0465490818023682,None,,,,,,,,,,,,,,,,,,173,2,2025-03-03_12h53.10.006,comp,2024.2.4,53.91191683204969,2025-03-03 12h53.20.375155 -0500,
34,34,0,filler_square,None,None,None,None,None,None,None,None,None,None,1,0.690070629119873,None,,,,,0,0,0,0,0,34,34,181,101.81944608688354,,,,,,,,,,,,,,,,,,,,,,,,,,,,,,,,,,,,,,,,,,,,,,,,,,,,,,,,,,,,,,,,,,,,,,,,,,,,,,,,,189.6960742521835,189.6960742521835,68.58778531008119,99.309834684829,58.878605113028634,146.85928469347652,2.1,2.11,-241,286,0,271,219,-286,101.80429244041443,101.80436944961548,101.80852031707764,101.81944608688354,101.96993637084961,101.96993637084961,101.96993637084961,101.96993637084961,101.96993637084961,101.96993637084961,101.96993637084961,102.51642060279846,1,0.690070629119873,None,,,,,,,,,,,,,,,,,,173,2,2025-03-03_12h53.10.006,comp,2024.2.4,53.91191683204969,2025-03-03 12h53.20.375155 -0500,
35,35,0,critical,hwd,20.0,2.1,upper,200.0,125.0,125.0,200.0,141.0,141.0,1,2.3513436317443848,None,,,,,0,0,0,0,0,35,35,43,102.53460955619812,,,,,,,,,,,,,,,,,,,,,,,,,,,,,,,,,,,,,,,,,,,,,,,,,,,,,,,,,,,,,,,,,,,,,,,,,,,,,,,,,200.0,125.0,125.0,200.0,141.0,141.0,2.1,2.12,-258,-268,0,-287,266,275,102.51804518699646,102.51814222335815,102.5215094089508,102.53460955619812,102.66998147964478,102.66998147964478,102.66998147964478,102.66998147964478,102.66998147964478,102.66998147964478,102.66998147964478,104.88826608657837,1,2.3513436317443848,None,,,,,,,,,,,,,,,,,,173,2,2025-03-03_12h53.10.006,comp,2024.2.4,53.91191683204969,2025-03-03 12h53.20.375155 -0500,
36,36,0,critical,wdh,20.0,4.0,upper,125.0,200.0,141.0,141.0,200.0,125.0,3,1.6120147705078125,None,,,,,0,0,0,0,0,36,36,83,104.90544009208679,,,,,,,,,,,,,,,,,,,,,,,,,,,,,,,,,,,,,,,,,,,,,,,,,,,,,,,,,,,,,,,,,,,,,,,,,,,,,,,,,125.0,200.0,141.0,141.0,200.0,125.0,4.0,4.2,-266,3,0,-255,229,-16,104.89008450508118,104.89016604423523,104.89413046836853,104.90544009208679,105.0537486076355,105.0537486076355,105.0537486076355,105.0537486076355,105.0537486076355,105.0537486076355,105.0537486076355,106.52330780029297,3,1.6120147705078125,None,,,,,,,,,,,,,,,,,,173,2,2025-03-03_12h53.10.006,comp,2024.2.4,53.91191683204969,2025-03-03 12h53.20.375155 -0500,
37,37,0,critical,dwh,35.0,3.0,lower,70.0,70.0,57.0,133.0,133.0,57.0,2,1.4953467845916748,None,,,,,0,0,0,0,0,37,37,62,106.54273390769958,,,,,,,,,,,,,,,,,,,,,,,,,,,,,,,,,,,,,,,,,,,,,,,,,,,,,,,,,,,,,,,,,,,,,,,,,,,,,,,,,70.0,70.0,57.0,133.0,133.0,57.0,3.0,3.2,-198,-284,0,12,191,277,106.52501726150513,106.5251476764679,106.5286328792572,106.54273390769958,106.68681359291077,106.68681359291077,106.68681359291077,106.68681359291077,106.68681359291077,106.68681359291077,106.68681359291077,108.04065752029419,2,1.4953467845916748,None,,,,,,,,,,,,,,,,,,173,2,2025-03-03_12h53.10.006,comp,2024.2.4,53.91191683204969,2025-03-03 12h53.20.375155 -0500,
38,38,0,critical,hdw,20.0,2.1,upper,200.0,125.0,141.0,141.0,125.0,200.0,1,2.244798183441162,None,,,,,0,0,0,0,0,38,38,23,108.0570318698883,,,,,,,,,,,,,,,,,,,,,,,,,,,,,,,,,,,,,,,,,,,,,,,,,,,,,,,,,,,,,,,,,,,,,,,,,,,,,,,,,200.0,125.0,141.0,141.0,125.0,200.0,2.1,2.12,-229,-271,0,-259,266,284,108.042165517807,108.04224610328674,108.04550886154175,108.0570318698883,108.203449010849,108.203449010849,108.203449010849,108.203449010849,108.203449010849,108.203449010849,108.203449010849,110.32102346420288,1,2.244798183441162,None,,,,,,,,,,,,,,,,,,173,2,2025-03-03_12h53.10.006,comp,2024.2.4,53.91191683204969,2025-03-03 12h53.20.375155 -0500,
39,39,0,critical,wdh,20.0,3.0,upper,125.0,200.0,141.0,141.0,200.0,125.0,3,1.5981988906860352,None,,,,,0,0,0,0,0,39,39,81,110.33553743362427,,,,,,,,,,,,,,,,,,,,,,,,,,,,,,,,,,,,,,,,,,,,,,,,,,,,,,,,,,,,,,,,,,,,,,,,,,,,,,,,,125.0,200.0,141.0,141.0,200.0,125.0,3.0,3.1,-266,287,0,19,229,-269,110.32215213775635,110.32220339775085,110.32422471046448,110.33553743362427,110.4936454296112,110.4936454296112,110.4936454296112,110.4936454296112,110.4936454296112,110.4936454296112,110.4936454296112,111.93979120254517,3,1.5981988906860352,None,,,,,,,,,,,,,,,,,,173,2,2025-03-03_12h53.10.006,comp,2024.2.4,53.91191683204969,2025-03-03 12h53.20.375155 -0500,
40,40,0,filler_random,None,None,None,None,None,None,None,None,None,None,2,1.0806565284729004,None,,,,,0,0,0,0,0,40,40,144,111.95698976516724,,,,,,,,,,,,,,,,,,,,,,,,,,,,,,,,,,,,,,,,,,,,,,,,,,,,,,,,,,,,,,,,,,,,,,,,,,,,,,,,,90.64023708175938,85.87568934170731,198.45329097290946,144.43015162600733,96.19771731459406,85.10204528923006,4.0,4.1,-211,-258,0,-7,211,-262,111.94172239303589,111.9418785572052,111.94606924057007,111.95698976516724,112.10257291793823,112.10257291793823,112.10257291793823,112.10257291793823,112.10257291793823,112.10257291793823,112.10257291793823,113.05532574653625,2,1.0806565284729004,None,,,,,,,,,,,,,,,,,,173,2,2025-03-03_12h53.10.006,comp,2024.2.4,53.91191683204969,2025-03-03 12h53.20.375155 -0500,
41,41,0,critical,dwh,35.0,2.1,lower,70.0,70.0,57.0,133.0,133.0,57.0,2,3.9062421321868896,None,,,,,0,0,0,0,0,41,41,28,113.0751748085022,,,,,,,,,,,,,,,,,,,,,,,,,,,,,,,,,,,,,,,,,,,,,,,,,,,,,,,,,,,,,,,,,,,,,,,,,,,,,,,,,70.0,70.0,57.0,133.0,133.0,57.0,2.1,2.12,-198,-279,0,-286,191,270,113.05680227279663,113.05690884590149,113.06027317047119,113.0751748085022,113.22205686569214,113.22205686569214,113.22205686569214,113.22205686569214,113.22205686569214,113.22205686569214,113.22205686569214,116.98581337928772,2,3.9062421321868896,None,,,,,,,,,,,,,,,,,,173,2,2025-03-03_12h53.10.006,comp,2024.2.4,53.91191683204969,2025-03-03 12h53.20.375155 -0500,
42,42,0,filler_square,None,None,None,None,None,None,None,None,None,None,3,0.9131083488464355,None,,,,,0,0,0,0,0,42,42,209,117.00507855415344,,,,,,,,,,,,,,,,,,,,,,,,,,,,,,,,,,,,,,,,,,,,,,,,,,,,,,,,,,,,,,,,,,,,,,,,,,,,,,,,,78.54741530285604,61.47976922608998,69.24490773512252,88.01700364078022,162.18061825585715,162.18061825585715,4.0,4.2,-171,19,0,-282,221,1,116.98779225349426,116.98790907859802,116.99128293991089,117.00507855415344,117.15357184410095,117.15357184410095,117.15357184410095,117.15357184410095,117.15357184410095,117.15357184410095,117.15357184410095,117.92156028747559,3,0.9131083488464355,None,,,,,,,,,,,,,,,,,,173,2,2025-03-03_12h53.10.006,comp,2024.2.4,53.91191683204969,2025-03-03 12h53.20.375155 -0500,
43,43,0,critical,wdh,35.0,2.1,upper,125.0,200.0,127.0,127.0,200.0,125.0,3,1.2772924900054932,None,,,,,0,0,0,0,0,43,43,9,117.93698239326477,,,,,,,,,,,,,,,,,,,,,,,,,,,,,,,,,,,,,,,,,,,,,,,,,,,,,,,,,,,,,,,,,,,,,,,,,,,,,,,,,125.0,200.0,127.0,127.0,200.0,125.0,2.1,2.11,-260,266,0,263,222,-281,117.92320084571838,117.92328214645386,117.92672944068909,117.93698239326477,118.0891535282135,118.0891535282135,118.0891535282135,118.0891535282135,118.0891535282135,118.0891535282135,118.0891535282135,119.22575545310974,3,1.2772924900054932,None,,,,,,,,,,,,,,,,,,173,2,2025-03-03_12h53.10.006,comp,2024.2.4,53.91191683204969,2025-03-03 12h53.20.375155 -0500,
44,44,0,filler_square,None,None,None,None,None,None,None,None,None,None,1,1.1399357318878174,None,,,,,0,0,0,0,0,44,44,203,119.24269437789917,,,,,,,,,,,,,,,,,,,,,,,,,,,,,,,,,,,,,,,,,,,,,,,,,,,,,,,,,,,,,,,,,,,,,,,,,,,,,,,,,136.7468048507823,136.7468048507823,86.55572871397096,136.00751623969887,116.05031680084929,105.8646879295031,4.0,4.1,-232,-285,0,-7,217,-286,119.22799491882324,119.22807550430298,119.23200368881226,119.24269437789917,119.39788246154785,119.39788246154785,119.39788246154785,119.39788246154785,119.39788246154785,119.39788246154785,119.39788246154785,120.39037656784058,1,1.1399357318878174,None,,,,,,,,,,,,,,,,,,173,2,2025-03-03_12h53.10.006,comp,2024.2.4,53.91191683204969,2025-03-03 12h53.20.375155 -0500,
45,45,0,filler_square,None,None,None,None,None,None,None,None,None,None,3,0.7913250923156738,None,,,,,0,0,0,0,0,45,45,177,120.40676641464233,,,,,,,,,,,,,,,,,,,,,,,,,,,,,,,,,,,,,,,,,,,,,,,,,,,,,,,,,,,,,,,,,,,,,,,,,,,,,,,,,147.5129141021258,75.77441560500309,94.1623953654836,78.68083025475816,172.8559746449505,172.8559746449505,3.0,3.1,-173,277,0,13,222,-252,120.39201140403748,120.39208626747131,120.39534759521484,120.40676641464233,120.55781316757202,120.55781316757202,120.55781316757202,120.55781316757202,120.55781316757202,120.55781316757202,120.55781316757202,121.20354342460632,3,0.7913250923156738,None,,,,,,,,,,,,,,,,,,173,2,2025-03-03_12h53.10.006,comp,2024.2.4,53.91191683204969,2025-03-03 12h53.20.375155 -0500,
46,46,0,critical,hdw,35.0,3.0,upper,200.0,125.0,127.0,127.0,125.0,200.0,1,1.5913715362548828,None,,,,,0,0,0,0,0,46,46,111,121.22260689735413,,,,,,,,,,,,,,,,,,,,,,,,,,,,,,,,,,,,,,,,,,,,,,,,,,,,,,,,,,,,,,,,,,,,,,,,,,,,,,,,,200.0,125.0,127.0,127.0,125.0,200.0,3.0,3.2,-222,-281,0,-11,260,252,121.20516324043274,121.20523858070374,121.20861649513245,121.22260689735413,121.3581645488739,121.3581645488739,121.3581645488739,121.3581645488739,121.3581645488739,121.3581645488739,121.3581645488739,122.82586097717285,1,1.5913715362548828,None,,,,,,,,,,,,,,,,,,173,2,2025-03-03_12h53.10.006,comp,2024.2.4,53.91191683204969,2025-03-03 12h53.20.375155 -0500,
47,47,0,critical,hdw,35.0,1.0,lower,133.0,57.0,70.0,70.0,57.0,133.0,3,2.0031328201293945,None,,,,,0,0,0,0,0,47,47,108,122.84223294258118,,,,,,,,,,,,,,,,,,,,,,,,,,,,,,,,,,,,,,,,,,,,,,,,,,,,,,,,,,,,,,,,,,,,,,,,,,,,,,,,,133.0,57.0,70.0,70.0,57.0,133.0,1.0,1.1,-640,275,-480,289,-282,288,122.82742953300476,122.82750582695007,122.83164572715759,122.84223294258118,122.97885751724243,122.97885751724243,122.97885751724243,122.97885751724243,122.97885751724243,122.97885751724243,122.97885751724243,124.8594434261322,3,2.0031328201293945,None,,,,,,,,,,,,,,,,,,173,2,2025-03-03_12h53.10.006,comp,2024.2.4,53.91191683204969,2025-03-03 12h53.20.375155 -0500,
48,48,0,critical,whd,35.0,4.0,lower,57.0,133.0,133.0,57.0,70.0,70.0,1,4.44330096244812,None,,,,,0,0,0,0,0,48,48,88,124.87476897239685,,,,,,,,,,,,,,,,,,,,,,,,,,,,,,,,,,,,,,,,,,,,,,,,,,,,,,,,,,,,,,,,,,,,,,,,,,,,,,,,,57.0,133.0,133.0,57.0,70.0,70.0,4.0,4.1,-191,-276,0,8,160,-282,124.86093282699585,124.86100673675537,124.86455607414246,124.87476897239685,125.02632975578308,125.02632975578308,125.02632975578308,125.02632975578308,125.02632975578308,125.02632975578308,125.02632975578308,129.32771968841553,1,4.44330096244812,None,,,,,,,,,,,,,,,,,,173,2,2025-03-03_12h53.10.006,comp,2024.2.4,53.91191683204969,2025-03-03 12h53.20.375155 -0500,
49,49,0,critical,dwh,35.0,2.1,upper,127.0,127.0,125.0,200.0,200.0,125.0,3,4.413276672363281,None,,,,,0,0,0,0,0,49,49,29,129.3445270061493,,,,,,,,,,,,,,,,,,,,,,,,,,,,,,,,,,,,,,,,,,,,,,,,,,,,,,,,,,,,,,,,,,,,,,,,,,,,,,,,,127.0,127.0,125.0,200.0,200.0,125.0,2.1,2.11,-260,284,0,263,258,-275,129.32923483848572,129.32931184768677,129.33352637290955,129.3445270061493,129.50019693374634,129.50019693374634,129.50019693374634,129.50019693374634,129.50019693374634,129.50019693374634,129.50019693374634,133.76767659187317,3,4.413276672363281,None,,,,,,,,,,,,,,,,,,173,2,2025-03-03_12h53.10.006,comp,2024.2.4,53.91191683204969,2025-03-03 12h53.20.375155 -0500,
50,50,0,critical,dwh,35.0,1.0,upper,127.0,127.0,125.0,200.0,200.0,125.0,2,1.3371448516845703,None,,,,,0,0,0,0,0,50,50,61,133.78854060173035,,,,,,,,,,,,,,,,,,,,,,,,,,,,,,,,,,,,,,,,,,,,,,,,,,,,,,,,,,,,,,,,,,,,,,,,,,,,,,,,,127.0,127.0,125.0,200.0,200.0,125.0,1.0,1.1,-740,274,-480,255,-222,273,133.76929092407227,133.76936841011047,133.7727451324463,133.78854060173035,133.92974424362183,133.92974424362183,133.92974424362183,133.92974424362183,133.92974424362183,133.92974424362183,133.92974424362183,135.13246273994446,2,1.3371448516845703,None,,,,,,,,,,,,,,,,,,173,2,2025-03-03_12h53.10.006,comp,2024.2.4,53.91191683204969,2025-03-03 12h53.20.375155 -0500,
51,51,0,critical,dwh,20.0,4.0,lower,78.0,78.0,57.0,133.0,133.0,57.0,1,2.464782238006592,None,,,,,0,0,0,0,0,51,51,70,135.14864325523376,,,,,,,,,,,,,,,,,,,,,,,,,,,,,,,,,,,,,,,,,,,,,,,,,,,,,,,,,,,,,,,,,,,,,,,,,,,,,,,,,78.0,78.0,57.0,133.0,133.0,57.0,4.0,4.2,-202,-5,0,-254,191,-19,135.13410902023315,135.13418579101562,135.13795375823975,135.14864325523376,135.29510498046875,135.29510498046875,135.29510498046875,135.29510498046875,135.29510498046875,135.29510498046875,135.29510498046875,137.63021111488342,1,2.464782238006592,None,,,,,,,,,,,,,,,,,,173,2,2025-03-03_12h53.10.006,comp,2024.2.4,53.91191683204969,2025-03-03 12h53.20.375155 -0500,
52,52,0,filler_square,None,None,None,None,None,None,None,None,None,None,3,1.3618688583374023,None,,,,,0,0,0,0,0,52,52,197,137.64563488960266,,,,,,,,,,,,,,,,,,,,,,,,,,,,,,,,,,,,,,,,,,,,,,,,,,,,,,,,,,,,,,,,,,,,,,,,,,,,,,,,,63.27209164505798,63.02336191258269,66.370142298315,66.31474687445834,79.10407963230537,79.10407963230537,4.0,4.1,-161,-256,0,8,169,-287,137.63196563720703,137.63204193115234,137.63537168502808,137.64563488960266,137.79107189178467,137.79107189178467,137.79107189178467,137.79107189178467,137.79107189178467,137.79107189178467,137.79107189178467,139.01271605491638,3,1.3618688583374023,None,,,,,,,,,,,,,,,,,,173,2,2025-03-03_12h53.10.006,comp,2024.2.4,53.91191683204969,2025-03-03 12h53.20.375155 -0500,
53,53,0,filler_random,None,None,None,None,None,None,None,None,None,None,2,1.7920751571655273,None,,,,,0,0,0,0,0,53,53,133,139.02927112579346,,,,,,,,,,,,,,,,,,,,,,,,,,,,,,,,,,,,,,,,,,,,,,,,,,,,,,,,,,,,,,,,,,,,,,,,,,,,,,,,,173.85585397737594,91.78923888047038,167.04495568046582,178.05187808493037,128.9746824536331,158.49723300900962,2.1,2.12,-231,-272,0,-282,264,255,139.0144395828247,139.01451563835144,139.01764702796936,139.02927112579346,139.18342661857605,139.18342661857605,139.18342661857605,139.18342661857605,139.18342661857605,139.18342661857605,139.18342661857605,140.83326983451843,2,1.7920751571655273,None,,,,,,,,,,,,,,,,,,173,2,2025-03-03_12h53.10.006,comp,2024.2.4,53.91191683204969,2025-03-03 12h53.20.375155 -0500,
54,54,0,critical,wdh,20.0,2.1,upper,125.0,200.0,141.0,141.0,200.0,125.0,1,1.6681206226348877,None,,,,,0,0,0,0,0,54,54,11,140.84929633140564,,,,,,,,,,,,,,,,,,,,,,,,,,,,,,,,,,,,,,,,,,,,,,,,,,,,,,,,,,,,,,,,,,,,,,,,,,,,,,,,,125.0,200.0,141.0,141.0,200.0,125.0,2.1,2.11,-266,272,0,255,229,-254,140.83477663993835,140.8348891735077,140.83818101882935,140.84929633140564,140.99791169166565,140.99791169166565,140.99791169166565,140.99791169166565,140.99791169166565,140.99791169166565,140.99791169166565,142.53211092948914,1,1.6681206226348877,None,,,,,,,,,,,,,,,,,,173,2,2025-03-03_12h53.10.006,comp,2024.2.4,53.91191683204969,2025-03-03 12h53.20.375155 -0500,
55,55,0,filler_random,None,None,None,None,None,None,None,None,None,None,2,2.488863229751587,None,,,,,0,0,0,0,0,55,55,163,142.54872965812683,,,,,,,,,,,,,,,,,,,,,,,,,,,,,,,,,,,,,,,,,,,,,,,,,,,,,,,,,,,,,,,,,,,,,,,,,,,,,,,,,89.9571175821948,164.91953570047335,124.61584563677295,149.83843939335173,65.74859960010747,134.96656447122916,1.0,1.2,-253,-4,0,18,238,-16,142.5337290763855,142.53380846977234,142.53793263435364,142.54872965812683,142.69623231887817,142.69623231887817,142.69623231887817,142.69623231887817,142.69623231887817,142.69623231887817,142.69623231887817,145.05273914337158,2,2.488863229751587,None,,,,,,,,,,,,,,,,,,173,2,2025-03-03_12h53.10.006,comp,2024.2.4,53.91191683204969,2025-03-03 12h53.20.375155 -0500,
56,56,0,critical,hdw,20.0,1.0,lower,133.0,57.0,78.0,78.0,57.0,133.0,3,3.079256296157837,None,,,,,0,0,0,0,0,56,56,114,145.07063627243042,,,,,,,,,,,,,,,,,,,,,,,,,,,,,,,,,,,,,,,,,,,,,,,,,,,,,,,,,,,,,,,,,,,,,,,,,,,,,,,,,133.0,57.0,78.0,78.0,57.0,133.0,1.0,1.2,-164,8,0,-7,202,19,145.05439710617065,145.05447435379028,145.05789184570312,145.07063627243042,145.22009015083313,145.22009015083313,145.22009015083313,145.22009015083313,145.22009015083313,145.22009015083313,145.22009015083313,148.16726732254028,3,3.079256296157837,None,,,,,,,,,,,,,,,,,,173,2,2025-03-03_12h53.10.006,comp,2024.2.4,53.91191683204969,2025-03-03 12h53.20.375155 -0500,
57,57,0,critical,hdw,35.0,2.1,lower,133.0,57.0,70.0,70.0,57.0,133.0,3,1.0389394760131836,None,,,,,0,0,0,0,0,57,57,20,148.1833634376526,,,,,,,,,,,,,,,,,,,,,,,,,,,,,,,,,,,,,,,,,,,,,,,,,,,,,,,,,,,,,,,,,,,,,,,,,,,,,,,,,133.0,57.0,70.0,70.0,57.0,133.0,2.1,2.11,-160,282,0,255,198,-290,148.16875958442688,148.1688575744629,148.17305827140808,148.1833634376526,148.33567905426025,148.33567905426025,148.33567905426025,148.33567905426025,148.33567905426025,148.33567905426025,148.33567905426025,149.2401955127716,3,1.0389394760131836,None,,,,,,,,,,,,,,,,,,173,2,2025-03-03_12h53.10.006,comp,2024.2.4,53.91191683204969,2025-03-03 12h53.20.375155 -0500,
58,58,0,filler_square,None,None,None,None,None,None,None,None,None,None,2,1.803534746170044,None,,,,,0,0,0,0,0,58,58,176,149.25842380523682,,,,,,,,,,,,,,,,,,,,,,,,,,,,,,,,,,,,,,,,,,,,,,,,,,,,,,,,,,,,,,,,,,,,,,,,,,,,,,,,,91.43232658311894,86.35677698403636,99.16550121587322,99.16550121587322,61.01861762443609,82.9009254224959,2.1,2.11,-189,277,0,273,187,-276,149.24191784858704,149.24199318885803,149.24494647979736,149.25842380523682,149.4007110595703,149.4007110595703,149.4007110595703,149.4007110595703,149.4007110595703,149.4007110595703,149.4007110595703,151.06889009475708,2,1.803534746170044,None,,,,,,,,,,,,,,,,,,173,2,2025-03-03_12h53.10.006,comp,2024.2.4,53.91191683204969,2025-03-03 12h53.20.375155 -0500,
59,59,0,filler_square,None,None,None,None,None,None,None,None,None,None,3,2.1595826148986816,None,,,,,0,0,0,0,0,59,59,204,151.08578395843506,,,,,,,,,,,,,,,,,,,,,,,,,,,,,,,,,,,,,,,,,,,,,,,,,,,,,,,,,,,,,,,,,,,,,,,,,,,,,,,,,111.38736772684794,111.38736772684794,108.30222894089655,103.74361719164527,102.13604366281965,104.6155107299011,3.0,3.1,-204,257,0,-7,200,-273,151.07064652442932,151.07075452804565,151.07495713233948,151.08578395843506,151.23869228363037,151.23869228363037,151.23869228363037,151.23869228363037,151.23869228363037,151.23869228363037,151.23869228363037,153.25809812545776,3,2.1595826148986816,None,,,,,,,,,,,,,,,,,,173,2,2025-03-03_12h53.10.006,comp,2024.2.4,53.91191683204969,2025-03-03 12h53.20.375155 -0500,
60,60,0,critical,dwh,20.0,3.0,upper,141.0,141.0,125.0,200.0,200.0,125.0,2,1.4342947006225586,None,,,,,0,0,0,0,0,60,60,69,153.2773687839508,,,,,,,,,,,,,,,,,,,,,,,,,,,,,,,,,,,,,,,,,,,,,,,,,,,,,,,,,,,,,,,,,,,,,,,,,,,,,,,,,141.0,141.0,125.0,200.0,200.0,125.0,3.0,3.2,-266,-287,0,17,258,250,153.2596046924591,153.25968074798584,153.26264595985413,153.2773687839508,153.41597509384155,153.41597509384155,153.41597509384155,153.41597509384155,153.41597509384155,153.41597509384155,153.41597509384155,154.7192656993866,2,1.4342947006225586,None,,,,,,,,,,,,,,,,,,173,2,2025-03-03_12h53.10.006,comp,2024.2.4,53.91191683204969,2025-03-03 12h53.20.375155 -0500,
61,61,0,critical,hdw,35.0,4.0,lower,133.0,57.0,70.0,70.0,57.0,133.0,1,3.180908203125,None,,,,,0,0,0,0,0,61,61,112,154.7371745109558,,,,,,,,,,,,,,,,,,,,,,,,,,,,,,,,,,,,,,,,,,,,,,,,,,,,,,,,,,,,,,,,,,,,,,,,,,,,,,,,,133.0,57.0,70.0,70.0,57.0,133.0,4.0,4.1,-160,-284,0,-7,198,-259,154.72075271606445,154.72082924842834,154.72404098510742,154.7371745109558,154.88489890098572,154.88489890098572,154.88489890098572,154.88489890098572,154.88489890098572,154.88489890098572,154.88489890098572,157.92049431800842,1,3.180908203125,None,,,,,,,,,,,,,,,,,,173,2,2025-03-03_12h53.10.006,comp,2024.2.4,53.91191683204969,2025-03-03 12h53.20.375155 -0500,
62,62,0,critical,hwd,35.0,1.0,lower,133.0,57.0,57.0,133.0,70.0,70.0,2,2.894566774368286,None,,,,,0,0,0,0,0,62,62,96,157.93487930297852,,,,,,,,,,,,,,,,,,,,,,,,,,,,,,,,,,,,,,,,,,,,,,,,,,,,,,,,,,,,,,,,,,,,,,,,,,,,,,,,,133.0,57.0,57.0,133.0,70.0,70.0,1.0,1.2,-191,13,0,7,198,-8,157.9219799041748,157.92205786705017,157.92529225349426,157.93487930297852,158.08645939826965,158.08645939826965,158.08645939826965,158.08645939826965,158.08645939826965,158.08645939826965,158.08645939826965,160.83843517303467,2,2.894566774368286,None,,,,,,,,,,,,,,,,,,173,2,2025-03-03_12h53.10.006,comp,2024.2.4,53.91191683204969,2025-03-03 12h53.20.375155 -0500,
63,63,0,critical,dhw,35.0,4.0,lower,70.0,70.0,133.0,57.0,57.0,133.0,3,1.52662992477417,None,,,,,0,0,0,0,0,63,63,52,160.855309009552,,,,,,,,,,,,,,,,,,,,,,,,,,,,,,,,,,,,,,,,,,,,,,,,,,,,,,,,,,,,,,,,,,,,,,,,,,,,,,,,,70.0,70.0,133.0,57.0,57.0,133.0,4.0,4.1,-160,-285,0,11,191,-288,160.83996677398682,160.8400661945343,160.84413480758667,160.855309009552,161.00450825691223,161.00450825691223,161.00450825691223,161.00450825691223,161.00450825691223,161.00450825691223,161.00450825691223,162.38706302642822,3,1.52662992477417,None,,,,,,,,,,,,,,,,,,173,2,2025-03-03_12h53.10.006,comp,2024.2.4,53.91191683204969,2025-03-03 12h53.20.375155 -0500,
64,64,0,critical,hdw,20.0,2.1,lower,133.0,57.0,78.0,78.0,57.0,133.0,1,1.6305334568023682,None,,,,,0,0,0,0,0,64,64,46,162.40697264671326,,,,,,,,,,,,,,,,,,,,,,,,,,,,,,,,,,,,,,,,,,,,,,,,,,,,,,,,,,,,,,,,,,,,,,,,,,,,,,,,,133.0,57.0,78.0,78.0,57.0,133.0,2.1,2.12,-164,-258,0,-255,202,269,162.388605594635,162.3886821269989,162.3919780254364,162.40697264671326,162.55506372451782,162.55506372451782,162.55506372451782,162.55506372451782,162.55506372451782,162.55506372451782,162.55506372451782,164.03999757766724,1,1.6305334568023682,None,,,,,,,,,,,,,,,,,,173,2,2025-03-03_12h53.10.006,comp,2024.2.4,53.91191683204969,2025-03-03 12h53.20.375155 -0500,
65,65,0,filler_square,None,None,None,None,None,None,None,None,None,None,2,1.268416404724121,None,,,,,0,0,0,0,0,65,65,201,164.0578260421753,,,,,,,,,,,,,,,,,,,,,,,,,,,,,,,,,,,,,,,,,,,,,,,,,,,,,,,,,,,,,,,,,,,,,,,,,,,,,,,,,65.05974482789249,129.97879106229482,156.76969780466862,156.76969780466862,139.5642540899724,145.53882148983126,3.0,3.2,-239,-280,0,0,247,284,164.04186511039734,164.04196691513062,164.0449640750885,164.0578260421753,164.2068612575531,164.2068612575531,164.2068612575531,164.2068612575531,164.2068612575531,164.2068612575531,164.2068612575531,165.32833576202393,2,1.268416404724121,None,,,,,,,,,,,,,,,,,,173,2,2025-03-03_12h53.10.006,comp,2024.2.4,53.91191683204969,2025-03-03 12h53.20.375155 -0500,
66,66,0,filler_square,None,None,None,None,None,None,None,None,None,None,1,1.4217755794525146,None,,,,,0,0,0,0,0,66,66,172,165.34446692466736,,,,,,,,,,,,,,,,,,,,,,,,,,,,,,,,,,,,,,,,,,,,,,,,,,,,,,,,,,,,,,,,,,,,,,,,,,,,,,,,,134.69905048433196,134.69905048433196,96.72792045755226,94.26925380251622,108.63617578801441,84.64820893270876,1.0,1.1,-690,262,-480,264,-295,288,165.3302001953125,165.33030796051025,165.33363032341003,165.34446692466736,165.48807835578918,165.48807835578918,165.48807835578918,165.48807835578918,165.48807835578918,165.48807835578918,165.48807835578918,166.77421879768372,1,1.4217755794525146,None,,,,,,,,,,,,,,,,,,173,2,2025-03-03_12h53.10.006,comp,2024.2.4,53.91191683204969,2025-03-03 12h53.20.375155 -0500,
67,67,0,critical,wdh,20.0,4.0,lower,57.0,133.0,78.0,78.0,133.0,57.0,2,2.871378183364868,None,,,,,0,0,0,0,0,67,67,82,166.7905993461609,,,,,,,,,,,,,,,,,,,,,,,,,,,,,,,,,,,,,,,,,,,,,,,,,,,,,,,,,,,,,,,,,,,,,,,,,,,,,,,,,57.0,133.0,78.0,78.0,133.0,57.0,4.0,4.1,-202,-266,0,-20,164,-270,166.77577352523804,166.7759313583374,166.78000330924988,166.7905993461609,166.9455749988556,166.9455749988556,166.9455749988556,166.9455749988556,166.9455749988556,166.9455749988556,166.9455749988556,169.6734538078308,2,2.871378183364868,None,,,,,,,,,,,,,,,,,,173,2,2025-03-03_12h53.10.006,comp,2024.2.4,53.91191683204969,2025-03-03 12h53.20.375155 -0500,
68,68,0,filler_random,None,None,None,None,None,None,None,None,None,None,3,0.898653507232666,None,,,,,0,0,0,0,0,68,68,168,169.69087624549866,,,,,,,,,,,,,,,,,,,,,,,,,,,,,,,,,,,,,,,,,,,,,,,,,,,,,,,,,,,,,,,,,,,,,,,,,,,,,,,,,167.43267580537378,67.20727953479151,111.58758735684447,135.56129904367623,132.54003963774,185.68398001827745,4.0,4.1,-197,-269,0,-5,257,-261,169.67519402503967,169.67527151107788,169.67936515808105,169.69087624549866,169.84018564224243,169.84018564224243,169.84018564224243,169.84018564224243,169.84018564224243,169.84018564224243,169.84018564224243,170.59231162071228,3,0.898653507232666,None,,,,,,,,,,,,,,,,,,173,2,2025-03-03_12h53.10.006,comp,2024.2.4,53.91191683204969,2025-03-03 12h53.20.375155 -0500,
69,69,0,critical,hwd,20.0,2.1,lower,133.0,57.0,57.0,133.0,78.0,78.0,2,3.3237104415893555,None,,,,,0,0,0,0,0,69,69,42,170.6107337474823,,,,,,,,,,,,,,,,,,,,,,,,,,,,,,,,,,,,,,,,,,,,,,,,,,,,,,,,,,,,,,,,,,,,,,,,,,,,,,,,,133.0,57.0,57.0,133.0,78.0,78.0,2.1,2.11,-191,274,0,250,202,-286,170.59400010108948,170.59407877922058,170.59786295890808,170.6107337474823,170.75731754302979,170.75731754302979,170.75731754302979,170.75731754302979,170.75731754302979,170.75731754302979,170.75731754302979,173.94170022010803,2,3.3237104415893555,None,,,,,,,,,,,,,,,,,,173,2,2025-03-03_12h53.10.006,comp,2024.2.4,53.91191683204969,2025-03-03 12h53.20.375155 -0500,
70,70,0,filler_random,None,None,None,None,None,None,None,None,None,None,1,1.5370395183563232,None,,,,,0,0,0,0,0,70,70,137,173.9564561843872,,,,,,,,,,,,,,,,,,,,,,,,,,,,,,,,,,,,,,,,,,,,,,,,,,,,,,,,,,,,,,,,,,,,,,,,,,,,,,,,,185.4154087311781,179.29726910492235,189.49444049170336,148.32418612195306,135.46153555295462,112.77844195796482,2.2,2.21,-260,-285,0,253,227,281,173.9434370994568,173.9435167312622,173.9467625617981,173.9564561843872,174.1068160533905,174.1068160533905,174.1068160533905,174.1068160533905,174.1068160533905,174.1068160533905,174.1068160533905,175.50814270973206,1,1.5370395183563232,None,,,,,,,,,,,,,,,,,,173,2,2025-03-03_12h53.10.006,comp,2024.2.4,53.91191683204969,2025-03-03 12h53.20.375155 -0500,
71,71,0,filler_square,None,None,None,None,None,None,None,None,None,None,1,1.1541273593902588,None,,,,,0,0,0,0,0,71,71,199,175.52335906028748,,,,,,,,,,,,,,,,,,,,,,,,,,,,,,,,,,,,,,,,,,,,,,,,,,,,,,,,,,,,,,,,,,,,,,,,,,,,,,,,,99.74537136724001,99.74537136724001,80.62612823856873,90.22295896153166,83.36779543792254,78.52612568182434,2.2,2.21,-191,-281,0,290,180,251,175.50986909866333,175.50994896888733,175.51314878463745,175.52335906028748,175.6615252494812,175.6615252494812,175.6615252494812,175.6615252494812,175.6615252494812,175.6615252494812,175.6615252494812,176.69439435005188,1,1.1541273593902588,None,,,,,,,,,,,,,,,,,,173,2,2025-03-03_12h53.10.006,comp,2024.2.4,53.91191683204969,2025-03-03 12h53.20.375155 -0500,
72,72,0,filler_random,None,None,None,None,None,None,None,None,None,None,1,2.0855722427368164,None,,,,,0,0,0,0,0,72,72,151,176.71206951141357,,,,,,,,,,,,,,,,,,,,,,,,,,,,,,,,,,,,,,,,,,,,,,,,,,,,,,,,,,,,,,,,,,,,,,,,,,,,,,,,,79.32676602565905,132.04359169383417,63.99847628052558,105.31755027688776,57.543387894816355,185.1793438755801,2.2,2.22,-215,289,0,-266,241,-280,176.69617414474487,176.69625067710876,176.69942474365234,176.71206951141357,176.85906720161438,176.85906720161438,176.85906720161438,176.85906720161438,176.85906720161438,176.85906720161438,176.85906720161438,178.80670762062073,1,2.0855722427368164,None,,,,,,,,,,,,,,,,,,173,2,2025-03-03_12h53.10.006,comp,2024.2.4,53.91191683204969,2025-03-03 12h53.20.375155 -0500,
73,73,0,filler_random,None,None,None,None,None,None,None,None,None,None,3,1.757720947265625,None,,,,,0,0,0,0,0,73,73,132,178.82376384735107,,,,,,,,,,,,,,,,,,,,,,,,,,,,,,,,,,,,,,,,,,,,,,,,,,,,,,,,,,,,,,,,,,,,,,,,,,,,,,,,,67.24926674834975,103.0500861607369,185.67068559932747,72.18495518858452,146.30317005824202,164.46732213892426,1.0,1.2,-184,10,0,-3,214,14,178.80845046043396,178.80853939056396,178.81194233894348,178.82376384735107,178.9598081111908,178.9598081111908,178.9598081111908,178.9598081111908,178.9598081111908,178.9598081111908,178.9598081111908,180.59275770187378,3,1.757720947265625,None,,,,,,,,,,,,,,,,,,173,2,2025-03-03_12h53.10.006,comp,2024.2.4,53.91191683204969,2025-03-03 12h53.20.375155 -0500,
74,74,0,filler_random,None,None,None,None,None,None,None,None,None,None,3,1.9724586009979248,None,,,,,0,0,0,0,0,74,74,130,180.60892987251282,,,,,,,,,,,,,,,,,,,,,,,,,,,,,,,,,,,,,,,,,,,,,,,,,,,,,,,,,,,,,,,,,,,,,,,,,,,,,,,,,80.38256929244329,166.94789276851293,63.88433934538357,191.63359807673572,140.4230612592711,127.5919114864984,2.2,2.22,-275,265,0,-275,256,-271,180.59444546699524,180.59452152252197,180.59760975837708,180.60892987251282,180.7652039527893,180.7652039527893,180.7652039527893,180.7652039527893,180.7652039527893,180.7652039527893,180.7652039527893,182.59417533874512,3,1.9724586009979248,None,,,,,,,,,,,,,,,,,,173,2,2025-03-03_12h53.10.006,comp,2024.2.4,53.91191683204969,2025-03-03 12h53.20.375155 -0500,
75,75,0,critical,hwd,35.0,2.1,upper,200.0,125.0,125.0,200.0,127.0,127.0,2,3.3218629360198975,None,,,,,0,0,0,0,0,75,75,41,182.61165285110474,,,,,,,,,,,,,,,,,,,,,,,,,,,,,,,,,,,,,,,,,,,,,,,,,,,,,,,,,,,,,,,,,,,,,,,,,,,,,,,,,200.0,125.0,125.0,200.0,127.0,127.0,2.1,2.11,-258,281,0,276,260,-278,182.5956666469574,182.59574127197266,182.59902215003967,182.61165285110474,182.76410746574402,182.76410746574402,182.76410746574402,182.76410746574402,182.76410746574402,182.76410746574402,182.76410746574402,185.9507555961609,2,3.3218629360198975,None,,,,,,,,,,,,,,,,,,173,2,2025-03-03_12h53.10.006,comp,2024.2.4,53.91191683204969,2025-03-03 12h53.20.375155 -0500,
76,76,0,filler_square,None,None,None,None,None,None,None,None,None,None,2,1.8756988048553467,None,,,,,0,0,0,0,0,76,76,202,185.9699261188507,,,,,,,,,,,,,,,,,,,,,,,,,,,,,,,,,,,,,,,,,,,,,,,,,,,,,,,,,,,,,,,,,,,,,,,,,,,,,,,,,57.54597646803077,59.18778779912793,68.02286007169846,68.02286007169846,58.41082180585308,62.92523428760069,2.2,2.22,-160,261,0,-284,161,-256,185.95276713371277,185.95287990570068,185.95620727539062,185.9699261188507,186.11415576934814,186.11415576934814,186.11415576934814,186.11415576934814,186.11415576934814,186.11415576934814,186.11415576934814,187.85580229759216,2,1.8756988048553467,None,,,,,,,,,,,,,,,,,,173,2,2025-03-03_12h53.10.006,comp,2024.2.4,53.91191683204969,2025-03-03 12h53.20.375155 -0500,
77,77,0,critical,hdw,35.0,2.1,lower,133.0,57.0,70.0,70.0,57.0,133.0,1,3.540952682495117,None,,,,,0,0,0,0,0,77,77,44,187.87272357940674,,,,,,,,,,,,,,,,,,,,,,,,,,,,,,,,,,,,,,,,,,,,,,,,,,,,,,,,,,,,,,,,,,,,,,,,,,,,,,,,,133.0,57.0,70.0,70.0,57.0,133.0,2.1,2.12,-160,-254,0,-258,198,289,187.85739398002625,187.8574686050415,187.86092948913574,187.87272357940674,188.0122857093811,188.0122857093811,188.0122857093811,188.0122857093811,188.0122857093811,188.0122857093811,188.0122857093811,191.41598796844482,1,3.540952682495117,None,,,,,,,,,,,,,,,,,,173,2,2025-03-03_12h53.10.006,comp,2024.2.4,53.91191683204969,2025-03-03 12h53.20.375155 -0500,
78,78,0,filler_square,None,None,None,None,None,None,None,None,None,None,2,1.2127606868743896,None,,,,,0,0,0,0,0,78,78,187,191.43334674835205,,,,,,,,,,,,,,,,,,,,,,,,,,,,,,,,,,,,,,,,,,,,,,,,,,,,,,,,,,,,,,,,,,,,,,,,,,,,,,,,,81.76606203399811,81.58153640077086,176.05371179676484,176.05371179676484,137.49723956874425,165.60637021459715,3.0,3.1,-225,258,0,-11,267,-271,191.41815662384033,191.41823887825012,191.42180514335632,191.43334674835205,191.5796341896057,191.5796341896057,191.5796341896057,191.5796341896057,191.5796341896057,191.5796341896057,191.5796341896057,192.6539351940155,2,1.2127606868743896,None,,,,,,,,,,,,,,,,,,173,2,2025-03-03_12h53.10.006,comp,2024.2.4,53.91191683204969,2025-03-03 12h53.20.375155 -0500,
79,79,0,critical,hwd,20.0,2.1,upper,200.0,125.0,125.0,200.0,141.0,141.0,2,3.2953245639801025,None,,,,,0,0,0,0,0,79,79,19,192.6707456111908,,,,,,,,,,,,,,,,,,,,,,,,,,,,,,,,,,,,,,,,,,,,,,,,,,,,,,,,,,,,,,,,,,,,,,,,,,,,,,,,,200.0,125.0,125.0,200.0,141.0,141.0,2.1,2.12,-258,-281,0,-268,266,289,192.65558910369873,192.65566658973694,192.65908002853394,192.6707456111908,192.81512451171875,192.81512451171875,192.81512451171875,192.81512451171875,192.81512451171875,192.81512451171875,192.81512451171875,195.9816780090332,2,3.2953245639801025,None,,,,,,,,,,,,,,,,,,173,2,2025-03-03_12h53.10.006,comp,2024.2.4,53.91191683204969,2025-03-03 12h53.20.375155 -0500,
80,80,0,filler_square,None,None,None,None,None,None,None,None,None,None,3,2.2241175174713135,None,,,,,0,0,0,0,0,80,80,182,195.9979338645935,,,,,,,,,,,,,,,,,,,,,,,,,,,,,,,,,,,,,,,,,,,,,,,,,,,,,,,,,,,,,,,,,,,,,,,,,,,,,,,,,57.39245176685772,71.9740699584512,72.68845581294634,83.82417311811031,94.68029078128367,94.68029078128367,3.0,3.1,-174,262,0,5,185,-286,195.9837305545807,195.98380661010742,195.98760294914246,195.9979338645935,196.15205693244934,196.15205693244934,196.15205693244934,196.15205693244934,196.15205693244934,196.15205693244934,196.15205693244934,198.22971177101135,3,2.2241175174713135,None,,,,,,,,,,,,,,,,,,173,2,2025-03-03_12h53.10.006,comp,2024.2.4,53.91191683204969,2025-03-03 12h53.20.375155 -0500,
81,81,0,critical,hdw,20.0,2.1,upper,200.0,125.0,141.0,141.0,125.0,200.0,3,2.0862162113189697,None,,,,,0,0,0,0,0,81,81,47,198.24727392196655,,,,,,,,,,,,,,,,,,,,,,,,,,,,,,,,,,,,,,,,,,,,,,,,,,,,,,,,,,,,,,,,,,,,,,,,,,,,,,,,,200.0,125.0,141.0,141.0,125.0,200.0,2.1,2.11,-229,259,0,276,266,-288,198.23130869865417,198.23138666152954,198.23479461669922,198.24727392196655,198.38743948936462,198.38743948936462,198.38743948936462,198.38743948936462,198.38743948936462,198.38743948936462,198.38743948936462,200.34935927391052,3,2.0862162113189697,None,,,,,,,,,,,,,,,,,,173,2,2025-03-03_12h53.10.006,comp,2024.2.4,53.91191683204969,2025-03-03 12h53.20.375155 -0500,
82,82,0,filler_random,None,None,None,None,None,None,None,None,None,None,2,1.8958714008331299,None,,,,,0,0,0,0,0,82,82,160,200.36597347259521,,,,,,,,,,,,,,,,,,,,,,,,,,,,,,,,,,,,,,,,,,,,,,,,,,,,,,,,,,,,,,,,,,,,,,,,,,,,,,,,,155.94469865226642,93.7353907089749,103.74204201781723,191.81559216986662,66.19533598828474,163.24694179194802,3.0,3.2,-239,-252,0,8,274,275,200.3509750366211,200.35104942321777,200.35441184043884,200.36597347259521,200.52232813835144,200.52232813835144,200.52232813835144,200.52232813835144,200.52232813835144,200.52232813835144,200.52232813835144,202.2698130607605,2,1.8958714008331299,None,,,,,,,,,,,,,,,,,,173,2,2025-03-03_12h53.10.006,comp,2024.2.4,53.91191683204969,2025-03-03 12h53.20.375155 -0500,
83,83,0,critical,dwh,20.0,4.0,upper,141.0,141.0,125.0,200.0,200.0,125.0,2,1.547621250152588,None,,,,,0,0,0,0,0,83,83,71,202.28998064994812,,,,,,,,,,,,,,,,,,,,,,,,,,,,,,,,,,,,,,,,,,,,,,,,,,,,,,,,,,,,,,,,,,,,,,,,,,,,,,,,,141.0,141.0,125.0,200.0,200.0,125.0,4.0,4.1,-266,-282,0,4,258,-255,202.27156352996826,202.27164006233215,202.27520537376404,202.28998064994812,202.4375500679016,202.4375500679016,202.4375500679016,202.4375500679016,202.4375500679016,202.4375500679016,202.4375500679016,203.85105085372925,2,1.547621250152588,None,,,,,,,,,,,,,,,,,,173,2,2025-03-03_12h53.10.006,comp,2024.2.4,53.91191683204969,2025-03-03 12h53.20.375155 -0500,
84,84,0,critical,whd,35.0,1.0,lower,57.0,133.0,133.0,57.0,70.0,70.0,1,3.243485450744629,None,,,,,0,0,0,0,0,84,84,84,203.8669786453247,,,,,,,,,,,,,,,,,,,,,,,,,,,,,,,,,,,,,,,,,,,,,,,,,,,,,,,,,,,,,,,,,,,,,,,,,,,,,,,,,57.0,133.0,133.0,57.0,70.0,70.0,1.0,1.3,289,-279,480,-281,640,-268,203.8524980545044,203.8525745868683,203.85671877861023,203.8669786453247,204.01771235466003,204.01771235466003,204.01771235466003,204.01771235466003,204.01771235466003,204.01771235466003,204.01771235466003,207.1187925338745,1,3.243485450744629,None,,,,,,,,,,,,,,,,,,173,2,2025-03-03_12h53.10.006,comp,2024.2.4,53.91191683204969,2025-03-03 12h53.20.375155 -0500,
85,85,0,critical,dhw,20.0,4.0,upper,141.0,141.0,200.0,125.0,125.0,200.0,3,1.535029411315918,None,,,,,0,0,0,0,0,85,85,59,207.13493251800537,,,,,,,,,,,,,,,,,,,,,,,,,,,,,,,,,,,,,,,,,,,,,,,,,,,,,,,,,,,,,,,,,,,,,,,,,,,,,,,,,141.0,141.0,200.0,125.0,125.0,200.0,4.0,4.1,-229,-259,0,-5,258,-253,207.12027144432068,207.12035012245178,207.12392854690552,207.13493251800537,207.28408074378967,207.28408074378967,207.28408074378967,207.28408074378967,207.28408074378967,207.28408074378967,207.28408074378967,208.67409777641296,3,1.535029411315918,None,,,,,,,,,,,,,,,,,,173,2,2025-03-03_12h53.10.006,comp,2024.2.4,53.91191683204969,2025-03-03 12h53.20.375155 -0500,
86,86,0,filler_random,None,None,None,None,None,None,None,None,None,None,3,1.9958446025848389,None,,,,,0,0,0,0,0,86,86,155,208.68979334831238,,,,,,,,,,,,,,,,,,,,,,,,,,,,,,,,,,,,,,,,,,,,,,,,,,,,,,,,,,,,,,,,,,,,,,,,,,,,,,,,,71.14298297801206,154.2407693424699,72.66802489164903,163.2082880489367,190.52454317951913,93.94404513891848,1.0,1.2,-255,6,0,-20,225,1,208.67589592933655,208.67597794532776,208.6791603565216,208.68979334831238,208.86181902885437,208.86181902885437,208.86181902885437,208.86181902885437,208.86181902885437,208.86181902885437,208.86181902885437,210.70347809791565,3,1.9958446025848389,None,,,,,,,,,,,,,,,,,,173,2,2025-03-03_12h53.10.006,comp,2024.2.4,53.91191683204969,2025-03-03 12h53.20.375155 -0500,
87,87,0,filler_random,None,None,None,None,None,None,None,None,None,None,3,1.0073134899139404,None,,,,,0,0,0,0,0,87,87,157,210.7189383506775,,,,,,,,,,,,,,,,,,,,,,,,,,,,,,,,,,,,,,,,,,,,,,,,,,,,,,,,,,,,,,,,,,,,,,,,,,,,,,,,,62.951679695302325,99.6994981322304,81.6859554213699,64.95508025615273,192.07594257866444,111.96571997281674,2.2,2.22,-178,278,0,-252,184,-285,210.7051968574524,210.7052710056305,210.70867824554443,210.7189383506775,210.87092542648315,210.87092542648315,210.87092542648315,210.87092542648315,210.87092542648315,210.87092542648315,210.87092542648315,211.73698258399963,3,1.0073134899139404,None,,,,,,,,,,,,,,,,,,173,2,2025-03-03_12h53.10.006,comp,2024.2.4,53.91191683204969,2025-03-03 12h53.20.375155 -0500,
88,88,0,critical,dwh,35.0,4.0,upper,127.0,127.0,125.0,200.0,200.0,125.0,3,1.5330886840820312,None,,,,,0,0,0,0,0,88,88,65,211.75291466712952,,,,,,,,,,,,,,,,,,,,,,,,,,,,,,,,,,,,,,,,,,,,,,,,,,,,,,,,,,,,,,,,,,,,,,,,,,,,,,,,,127.0,127.0,125.0,200.0,200.0,125.0,4.0,4.1,-260,-276,0,-5,258,-271,211.73858737945557,211.73868370056152,211.74234676361084,211.75291466712952,211.90674257278442,211.90674257278442,211.90674257278442,211.90674257278442,211.90674257278442,211.90674257278442,211.90674257278442,213.29052448272705,3,1.5330886840820312,None,,,,,,,,,,,,,,,,,,173,2,2025-03-03_12h53.10.006,comp,2024.2.4,53.91191683204969,2025-03-03 12h53.20.375155 -0500,
89,89,0,critical,dhw,20.0,1.0,upper,141.0,141.0,200.0,125.0,125.0,200.0,2,1.5387849807739258,None,,,,,0,0,0,0,0,89,89,55,213.3073763847351,,,,,,,,,,,,,,,,,,,,,,,,,,,,,,,,,,,,,,,,,,,,,,,,,,,,,,,,,,,,,,,,,,,,,,,,,,,,,,,,,141.0,141.0,200.0,125.0,125.0,200.0,1.0,1.1,-709,259,-480,261,-222,283,213.2921690940857,213.29225039482117,213.29575419425964,213.3073763847351,213.45516800880432,213.45516800880432,213.45516800880432,213.45516800880432,213.45516800880432,213.45516800880432,213.45516800880432,214.85470414161682,2,1.5387849807739258,None,,,,,,,,,,,,,,,,,,173,2,2025-03-03_12h53.10.006,comp,2024.2.4,53.91191683204969,2025-03-03 12h53.20.375155 -0500,
90,90,0,filler_square,None,None,None,None,None,None,None,None,None,None,1,0.8634779453277588,None,,,,,0,0,0,0,0,90,90,183,214.870787858963,,,,,,,,,,,,,,,,,,,,,,,,,,,,,,,,,,,,,,,,,,,,,,,,,,,,,,,,,,,,,,,,,,,,,,,,,,,,,,,,,182.41628744318788,182.41628744318788,181.28669355959926,66.72771824267505,57.70637673339502,155.60477854938927,2.1,2.12,-221,-267,0,-250,207,286,214.85655570030212,214.85663390159607,214.86019039154053,214.870787858963,215.01915979385376,215.01915979385376,215.01915979385376,215.01915979385376,215.01915979385376,215.01915979385376,215.01915979385376,215.7382688522339,1,0.8634779453277588,None,,,,,,,,,,,,,,,,,,173,2,2025-03-03_12h53.10.006,comp,2024.2.4,53.91191683204969,2025-03-03 12h53.20.375155 -0500,
91,91,0,critical,dwh,20.0,2.1,lower,78.0,78.0,57.0,133.0,133.0,57.0,2,3.1953816413879395,None,,,,,0,0,0,0,0,91,91,30,215.75455689430237,,,,,,,,,,,,,,,,,,,,,,,,,,,,,,,,,,,,,,,,,,,,,,,,,,,,,,,,,,,,,,,,,,,,,,,,,,,,,,,,,78.0,78.0,57.0,133.0,133.0,57.0,2.1,2.12,-202,-273,0,-285,191,251,215.73989391326904,215.739972114563,215.74373173713684,215.75455689430237,215.90380597114563,215.90380597114563,215.90380597114563,215.90380597114563,215.90380597114563,215.90380597114563,215.90380597114563,218.9542269706726,2,3.1953816413879395,None,,,,,,,,,,,,,,,,,,173,2,2025-03-03_12h53.10.006,comp,2024.2.4,53.91191683204969,2025-03-03 12h53.20.375155 -0500,
92,92,0,critical,wdh,35.0,1.0,lower,57.0,133.0,70.0,70.0,133.0,57.0,1,2.4986302852630615,None,,,,,0,0,0,0,0,92,92,72,218.97112560272217,,,,,,,,,,,,,,,,,,,,,,,,,,,,,,,,,,,,,,,,,,,,,,,,,,,,,,,,,,,,,,,,,,,,,,,,,,,,,,,,,57.0,133.0,70.0,70.0,133.0,57.0,1.0,1.1,-678,270,-480,278,-320,288,218.95574474334717,218.9558219909668,218.95930314064026,218.97112560272217,219.110413312912,219.110413312912,219.110413312912,219.110413312912,219.110413312912,219.110413312912,219.110413312912,221.47571468353271,1,2.4986302852630615,None,,,,,,,,,,,,,,,,,,173,2,2025-03-03_12h53.10.006,comp,2024.2.4,53.91191683204969,2025-03-03 12h53.20.375155 -0500,
93,93,0,critical,whd,20.0,4.0,lower,57.0,133.0,133.0,57.0,78.0,78.0,1,3.935514211654663,None,,,,,0,0,0,0,0,93,93,94,221.495210647583,,,,,,,,,,,,,,,,,,,,,,,,,,,,,,,,,,,,,,,,,,,,,,,,,,,,,,,,,,,,,,,,,,,,,,,,,,,,,,,,,57.0,133.0,133.0,57.0,78.0,78.0,4.0,4.1,-191,-290,0,18,164,-264,221.4773190021515,221.477397441864,221.4806044101715,221.495210647583,221.63979506492615,221.63979506492615,221.63979506492615,221.63979506492615,221.63979506492615,221.63979506492615,221.63979506492615,225.4417963027954,1,3.935514211654663,None,,,,,,,,,,,,,,,,,,173,2,2025-03-03_12h53.10.006,comp,2024.2.4,53.91191683204969,2025-03-03 12h53.20.375155 -0500,
94,94,0,critical,hwd,20.0,4.0,upper,200.0,125.0,125.0,200.0,141.0,141.0,3,3.5639455318450928,None,,,,,0,0,0,0,0,94,94,107,225.45773553848267,,,,,,,,,,,,,,,,,,,,,,,,,,,,,,,,,,,,,,,,,,,,,,,,,,,,,,,,,,,,,,,,,,,,,,,,,,,,,,,,,200.0,125.0,125.0,200.0,141.0,141.0,4.0,4.1,-258,-273,0,-11,266,-284,225.4433147907257,225.4433948993683,225.447030544281,225.45773553848267,225.60809659957886,225.60809659957886,225.60809659957886,225.60809659957886,225.60809659957886,225.60809659957886,225.60809659957886,229.03206300735474,3,3.5639455318450928,None,,,,,,,,,,,,,,,,,,173,2,2025-03-03_12h53.10.006,comp,2024.2.4,53.91191683204969,2025-03-03 12h53.20.375155 -0500,
95,95,0,critical,whd,35.0,2.1,lower,57.0,133.0,133.0,57.0,70.0,70.0,1,2.396251916885376,None,,,,,0,0,0,0,0,95,95,36,229.04966402053833,,,,,,,,,,,,,,,,,,,,,,,,,,,,,,,,,,,,,,,,,,,,,,,,,,,,,,,,,,,,,,,,,,,,,,,,,,,,,,,,,57.0,133.0,133.0,57.0,70.0,70.0,2.1,2.11,-191,268,0,264,160,-256,229.0335669517517,229.03364372253418,229.03662276268005,229.04966402053833,229.19466423988342,229.19466423988342,229.19466423988342,229.19466423988342,229.19466423988342,229.19466423988342,229.19466423988342,231.46644258499146,1,2.396251916885376,None,,,,,,,,,,,,,,,,,,173,2,2025-03-03_12h53.10.006,comp,2024.2.4,53.91191683204969,2025-03-03 12h53.20.375155 -0500,
96,96,0,filler_random,None,None,None,None,None,None,None,None,None,None,1,2.8232226371765137,None,,,,,0,0,0,0,0,96,96,140,231.48629546165466,,,,,,,,,,,,,,,,,,,,,,,,,,,,,,,,,,,,,,,,,,,,,,,,,,,,,,,,,,,,,,,,,,,,,,,,,,,,,,,,,176.03097020649994,145.70505953203843,127.70883885837495,140.332840221561,105.26930541352284,78.252240138259,2.2,2.21,-239,-281,0,257,205,267,231.4681408405304,231.46821522712708,231.47160696983337,231.48629546165466,231.62752842903137,231.62752842903137,231.62752842903137,231.62752842903137,231.62752842903137,231.62752842903137,231.62752842903137,234.32675433158875,1,2.8232226371765137,None,,,,,,,,,,,,,,,,,,173,2,2025-03-03_12h53.10.006,comp,2024.2.4,53.91191683204969,2025-03-03 12h53.20.375155 -0500,
97,97,0,critical,whd,20.0,2.1,upper,125.0,200.0,200.0,125.0,141.0,141.0,1,2.1317880153656006,None,,,,,0,0,0,0,0,97,97,15,234.34582042694092,,,,,,,,,,,,,,,,,,,,,,,,,,,,,,,,,,,,,,,,,,,,,,,,,,,,,,,,,,,,,,,,,,,,,,,,,,,,,,,,,125.0,200.0,200.0,125.0,141.0,141.0,2.1,2.11,-258,256,0,276,229,-283,234.32828640937805,234.32836079597473,234.33141374588013,234.34582042694092,234.49344038963318,234.49344038963318,234.49344038963318,234.49344038963318,234.49344038963318,234.49344038963318,234.49344038963318,236.4938042163849,1,2.1317880153656006,None,,,,,,,,,,,,,,,,,,173,2,2025-03-03_12h53.10.006,comp,2024.2.4,53.91191683204969,2025-03-03 12h53.20.375155 -0500,
98,98,0,critical,dwh,35.0,2.1,lower,70.0,70.0,57.0,133.0,133.0,57.0,3,1.64772629737854,None,,,,,0,0,0,0,0,98,98,4,236.51015543937683,,,,,,,,,,,,,,,,,,,,,,,,,,,,,,,,,,,,,,,,,,,,,,,,,,,,,,,,,,,,,,,,,,,,,,,,,,,,,,,,,70.0,70.0,57.0,133.0,133.0,57.0,2.1,2.11,-198,277,0,256,191,-284,236.49536442756653,236.49544024467468,236.4987816810608,236.51015543937683,236.66367959976196,236.66367959976196,236.66367959976196,236.66367959976196,236.66367959976196,236.66367959976196,236.66367959976196,238.16113996505737,3,1.64772629737854,None,,,,,,,,,,,,,,,,,,173,2,2025-03-03_12h53.10.006,comp,2024.2.4,53.91191683204969,2025-03-03 12h53.20.375155 -0500,
99,99,0,critical,hdw,35.0,2.1,upper,200.0,125.0,127.0,127.0,125.0,200.0,1,1.7798867225646973,None,,,,,0,0,0,0,0,99,99,45,238.17771172523499,,,,,,,,,,,,,,,,,,,,,,,,,,,,,,,,,,,,,,,,,,,,,,,,,,,,,,,,,,,,,,,,,,,,,,,,,,,,,,,,,200.0,125.0,127.0,127.0,125.0,200.0,2.1,2.12,-222,-261,0,-260,260,262,238.16259813308716,238.16267204284668,238.16597080230713,238.17771172523499,238.32499146461487,238.32499146461487,238.32499146461487,238.32499146461487,238.32499146461487,238.32499146461487,238.32499146461487,239.96342778205872,1,1.7798867225646973,None,,,,,,,,,,,,,,,,,,173,2,2025-03-03_12h53.10.006,comp,2024.2.4,53.91191683204969,2025-03-03 12h53.20.375155 -0500,
100,100,0,catch,None,None,None,None,None,None,None,None,None,None,3,1.1367192268371582,None,,,,,0,0,0,0,0,100,100,127,239.9815125465393,,,,,,,,,,,,,,,,,,,,,,,,,,,,,,,,,,,,,,,,,,,,,,,,,,,,,,,,,,,,,,,,,,,,,,,,,,,,,,,,,80,110,97,93,156,169,4.0,4.2,-198,15,0,-264,227,13,239.96523332595825,239.96531009674072,239.96847414970398,239.9815125465393,240.1290442943573,240.1290442943573,240.1290442943573,240.1290442943573,240.1290442943573,240.1290442943573,240.1290442943573,241.12543058395386,3,1.1367192268371582,None,,,,,,,,,,,,,,,,,,173,2,2025-03-03_12h53.10.006,comp,2024.2.4,53.91191683204969,2025-03-03 12h53.20.375155 -0500,
101,101,0,critical,wdh,20.0,1.0,lower,57.0,133.0,78.0,78.0,133.0,57.0,1,2.3991494178771973,None,,,,,0,0,0,0,0,101,101,78,241.1431622505188,,,,,,,,,,,,,,,,,,,,,,,,,,,,,,,,,,,,,,,,,,,,,,,,,,,,,,,,,,,,,,,,,,,,,,,,,,,,,,,,,57.0,133.0,78.0,78.0,133.0,57.0,1.0,1.1,-682,289,-480,287,-316,290,241.1263289451599,241.12640571594238,241.12935662269592,241.1431622505188,241.27987241744995,241.27987241744995,241.27987241744995,241.27987241744995,241.27987241744995,241.27987241744995,241.27987241744995,243.5491213798523,1,2.3991494178771973,None,,,,,,,,,,,,,,,,,,173,2,2025-03-03_12h53.10.006,comp,2024.2.4,53.91191683204969,2025-03-03 12h53.20.375155 -0500,
102,102,0,critical,whd,35.0,1.0,upper,125.0,200.0,200.0,125.0,127.0,127.0,2,1.5667212009429932,None,,,,,0,0,0,0,0,102,102,85,243.5669538974762,,,,,,,,,,,,,,,,,,,,,,,,,,,,,,,,,,,,,,,,,,,,,,,,,,,,,,,,,,,,,,,,,,,,,,,,,,,,,,,,,125.0,200.0,200.0,125.0,127.0,127.0,1.0,1.2,-258,-4,0,0,222,16,243.55068516731262,243.55076265335083,243.5539629459381,243.5669538974762,243.71345853805542,243.71345853805542,243.71345853805542,243.71345853805542,243.71345853805542,243.71345853805542,243.71345853805542,245.14701557159424,2,1.5667212009429932,None,,,,,,,,,,,,,,,,,,173,2,2025-03-03_12h53.10.006,comp,2024.2.4,53.91191683204969,2025-03-03 12h53.20.375155 -0500,
103,103,0,critical,wdh,35.0,4.0,lower,57.0,133.0,70.0,70.0,133.0,57.0,3,2.026780128479004,None,,,,,0,0,0,0,0,103,103,76,245.16339826583862,,,,,,,,,,,,,,,,,,,,,,,,,,,,,,,,,,,,,,,,,,,,,,,,,,,,,,,,,,,,,,,,,,,,,,,,,,,,,,,,,57.0,133.0,70.0,70.0,133.0,57.0,4.0,4.2,-198,-18,0,-268,160,15,245.14847779273987,245.1485517024994,245.15150952339172,245.16339826583862,245.3100574016571,245.3100574016571,245.3100574016571,245.3100574016571,245.3100574016571,245.3100574016571,245.3100574016571,247.19836163520813,3,2.026780128479004,None,,,,,,,,,,,,,,,,,,173,2,2025-03-03_12h53.10.006,comp,2024.2.4,53.91191683204969,2025-03-03 12h53.20.375155 -0500,
104,104,0,critical,whd,20.0,2.1,upper,125.0,200.0,200.0,125.0,141.0,141.0,1,2.9894213676452637,None,,,,,0,0,0,0,0,104,104,39,247.2171311378479,,,,,,,,,,,,,,,,,,,,,,,,,,,,,,,,,,,,,,,,,,,,,,,,,,,,,,,,,,,,,,,,,,,,,,,,,,,,,,,,,125.0,200.0,200.0,125.0,141.0,141.0,2.1,2.11,-258,251,0,288,229,-281,247.19980216026306,247.19990468025208,247.2032015323639,247.2171311378479,247.37121319770813,247.37121319770813,247.37121319770813,247.37121319770813,247.37121319770813,247.37121319770813,247.37121319770813,250.21660351753235,1,2.9894213676452637,None,,,,,,,,,,,,,,,,,,173,2,2025-03-03_12h53.10.006,comp,2024.2.4,53.91191683204969,2025-03-03 12h53.20.375155 -0500,
105,105,0,filler_square,None,None,None,None,None,None,None,None,None,None,2,1.7887654304504395,None,,,,,0,0,0,0,0,105,105,206,250.23341584205627,,,,,,,,,,,,,,,,,,,,,,,,,,,,,,,,,,,,,,,,,,,,,,,,,,,,,,,,,,,,,,,,,,,,,,,,,,,,,,,,,68.05433624512892,63.27657750866986,79.15088362034983,79.15088362034983,75.64332694824847,61.20062227849932,1.0,1.1,-647,284,-480,275,-314,251,250.21873021125793,250.21880888938904,250.22248792648315,250.23341584205627,250.38144636154175,250.38144636154175,250.38144636154175,250.38144636154175,250.38144636154175,250.38144636154175,250.38144636154175,252.0331609249115,2,1.7887654304504395,None,,,,,,,,,,,,,,,,,,173,2,2025-03-03_12h53.10.006,comp,2024.2.4,53.91191683204969,2025-03-03 12h53.20.375155 -0500,
106,106,0,filler_square,None,None,None,None,None,None,None,None,None,None,2,1.812490701675415,None,,,,,0,0,0,0,0,106,106,178,252.0495023727417,,,,,,,,,,,,,,,,,,,,,,,,,,,,,,,,,,,,,,,,,,,,,,,,,,,,,,,,,,,,,,,,,,,,,,,,,,,,,,,,,79.85925868094881,126.74586969523261,131.6066160988782,131.6066160988782,83.67712521709706,106.87922909634642,2.2,2.22,-225,268,0,-290,215,-289,252.03520154953003,252.03527855873108,252.0388207435608,252.0495023727417,252.1970818042755,252.1970818042755,252.1970818042755,252.1970818042755,252.1970818042755,252.1970818042755,252.1970818042755,253.86410999298096,2,1.812490701675415,None,,,,,,,,,,,,,,,,,,173,2,2025-03-03_12h53.10.006,comp,2024.2.4,53.91191683204969,2025-03-03 12h53.20.375155 -0500,
107,107,0,filler_random,None,None,None,None,None,None,None,None,None,None,2,1.410689353942871,None,,,,,0,0,0,0,0,107,107,161,253.88293600082397,,,,,,,,,,,,,,,,,,,,,,,,,,,,,,,,,,,,,,,,,,,,,,,,,,,,,,,,,,,,,,,,,,,,,,,,,,,,,,,,,103.23502064340994,103.23851301155356,100.26649620644781,199.98485260842475,198.98961948277733,71.73009634915536,2.2,2.22,-248,277,0,-252,232,-288,253.86605596542358,253.8661346435547,253.86948704719543,253.88293600082397,254.01789355278015,254.01789355278015,254.01789355278015,254.01789355278015,254.01789355278015,254.01789355278015,254.01789355278015,255.3075611591339,2,1.410689353942871,None,,,,,,,,,,,,,,,,,,173,2,2025-03-03_12h53.10.006,comp,2024.2.4,53.91191683204969,2025-03-03 12h53.20.375155 -0500,
108,108,0,critical,hdw,20.0,3.0,upper,200.0,125.0,141.0,141.0,125.0,200.0,1,1.3710300922393799,None,,,,,0,0,0,0,0,108,108,117,255.32333898544312,,,,,,,,,,,,,,,,,,,,,,,,,,,,,,,,,,,,,,,,,,,,,,,,,,,,,,,,,,,,,,,,,,,,,,,,,,,,,,,,,200.0,125.0,141.0,141.0,125.0,200.0,3.0,3.2,-229,-263,0,-19,266,257,255.309091091156,255.30916810035706,255.3122079372406,255.32333898544312,255.46749830245972,255.46749830245972,255.46749830245972,255.46749830245972,255.46749830245972,255.46749830245972,255.46749830245972,256.7015070915222,1,1.3710300922393799,None,,,,,,,,,,,,,,,,,,173,2,2025-03-03_12h53.10.006,comp,2024.2.4,53.91191683204969,2025-03-03 12h53.20.375155 -0500,
109,109,0,filler_square,None,None,None,None,None,None,None,None,None,None,1,1.2398197650909424,None,,,,,0,0,0,0,0,109,109,180,256.7181222438812,,,,,,,,,,,,,,,,,,,,,,,,,,,,,,,,,,,,,,,,,,,,,,,,,,,,,,,,,,,,,,,,,,,,,,,,,,,,,,,,,192.7773636935341,192.7773636935341,149.64779370526463,125.42282272131983,114.83129812341716,144.7088639059484,1.0,1.1,-735,278,-480,253,-249,256,256.70330786705017,256.70338702201843,256.7074329853058,256.7181222438812,256.86593890190125,256.86593890190125,256.86593890190125,256.86593890190125,256.86593890190125,256.86593890190125,256.86593890190125,257.96780014038086,1,1.2398197650909424,None,,,,,,,,,,,,,,,,,,173,2,2025-03-03_12h53.10.006,comp,2024.2.4,53.91191683204969,2025-03-03 12h53.20.375155 -0500,
110,110,0,critical,whd,35.0,2.1,lower,57.0,133.0,133.0,57.0,70.0,70.0,2,3.2774105072021484,None,,,,,0,0,0,0,0,110,110,12,257.98426723480225,,,,,,,,,,,,,,,,,,,,,,,,,,,,,,,,,,,,,,,,,,,,,,,,,,,,,,,,,,,,,,,,,,,,,,,,,,,,,,,,,57.0,133.0,133.0,57.0,70.0,70.0,2.1,2.11,-191,266,0,258,160,-275,257.96933817863464,257.96941471099854,257.9726996421814,257.98426723480225,258.1402940750122,258.1402940750122,258.1402940750122,258.1402940750122,258.1402940750122,258.1402940750122,258.1402940750122,261.276407957077,2,3.2774105072021484,None,,,,,,,,,,,,,,,,,,173,2,2025-03-03_12h53.10.006,comp,2024.2.4,53.91191683204969,2025-03-03 12h53.20.375155 -0500,
111,111,0,filler_random,None,None,None,None,None,None,None,None,None,None,2,1.437246561050415,None,,,,,0,0,0,0,0,111,111,169,261.2968144416809,,,,,,,,,,,,,,,,,,,,,,,,,,,,,,,,,,,,,,,,,,,,,,,,,,,,,,,,,,,,,,,,,,,,,,,,,,,,,,,,,187.08929027795241,125.5716934309822,188.37847493866633,197.03860497959957,166.48741402306118,120.19000257544513,3.0,3.2,-257,-252,0,-14,255,269,261.27810192108154,261.278178691864,261.2811508178711,261.2968144416809,261.436753988266,261.436753988266,261.436753988266,261.436753988266,261.436753988266,261.436753988266,261.436753988266,262.73729252815247,2,1.437246561050415,None,,,,,,,,,,,,,,,,,,173,2,2025-03-03_12h53.10.006,comp,2024.2.4,53.91191683204969,2025-03-03 12h53.20.375155 -0500,
112,112,0,critical,hwd,35.0,2.1,lower,133.0,57.0,57.0,133.0,70.0,70.0,1,2.532231330871582,None,,,,,0,0,0,0,0,112,112,40,262.7534739971161,,,,,,,,,,,,,,,,,,,,,,,,,,,,,,,,,,,,,,,,,,,,,,,,,,,,,,,,,,,,,,,,,,,,,,,,,,,,,,,,,133.0,57.0,57.0,133.0,70.0,70.0,2.1,2.12,-191,-267,0,-282,198,258,262.73908710479736,262.7391939163208,262.74274730682373,262.7534739971161,262.9064109325409,262.9064109325409,262.9064109325409,262.9064109325409,262.9064109325409,262.9064109325409,262.9064109325409,265.3027079105377,1,2.532231330871582,None,,,,,,,,,,,,,,,,,,173,2,2025-03-03_12h53.10.006,comp,2024.2.4,53.91191683204969,2025-03-03 12h53.20.375155 -0500,
113,113,0,critical,dhw,20.0,4.0,lower,78.0,78.0,133.0,57.0,57.0,133.0,2,1.5592870712280273,None,,,,,0,0,0,0,0,113,113,58,265.31893515586853,,,,,,,,,,,,,,,,,,,,,,,,,,,,,,,,,,,,,,,,,,,,,,,,,,,,,,,,,,,,,,,,,,,,,,,,,,,,,,,,,78.0,78.0,133.0,57.0,57.0,133.0,4.0,4.1,-164,-271,0,12,191,-271,265.3042800426483,265.30435729026794,265.30753803253174,265.31893515586853,265.4721009731293,265.4721009731293,265.4721009731293,265.4721009731293,265.4721009731293,265.4721009731293,265.4721009731293,266.8877692222595,2,1.5592870712280273,None,,,,,,,,,,,,,,,,,,173,2,2025-03-03_12h53.10.006,comp,2024.2.4,53.91191683204969,2025-03-03 12h53.20.375155 -0500,
114,114,0,filler_square,None,None,None,None,None,None,None,None,None,None,1,0.757227897644043,None,,,,,0,0,0,0,0,114,114,192,266.90439558029175,,,,,,,,,,,,,,,,,,,,,,,,,,,,,,,,,,,,,,,,,,,,,,,,,,,,,,,,,,,,,,,,,,,,,,,,,,,,,,,,,192.880609481626,192.880609481626,100.13132954202158,142.20510583066905,146.5974706953829,100.06566978946927,3.0,3.2,-264,-261,0,-10,217,271,266.88974380493164,266.88982248306274,266.893408536911,266.90439558029175,267.05712962150574,267.05712962150574,267.05712962150574,267.05712962150574,267.05712962150574,267.05712962150574,267.05712962150574,267.67712926864624,1,0.757227897644043,None,,,,,,,,,,,,,,,,,,173,2,2025-03-03_12h53.10.006,comp,2024.2.4,53.91191683204969,2025-03-03 12h53.20.375155 -0500,
115,115,0,filler_random,None,None,None,None,None,None,None,None,None,None,1,0.860706090927124,None,,,,,0,0,0,0,0,115,115,158,267.6976509094238,,,,,,,,,,,,,,,,,,,,,,,,,,,,,,,,,,,,,,,,,,,,,,,,,,,,,,,,,,,,,,,,,,,,,,,,,,,,,,,,,171.6323694000988,177.68085899093367,93.74896153333464,107.74072196314137,69.82367271239305,93.94879889504045,1.0,1.3,241,-281,480,-284,677,-272,267.6788694858551,267.6790039539337,267.68235182762146,267.6976509094238,267.8376078605652,267.8376078605652,267.8376078605652,267.8376078605652,267.8376078605652,267.8376078605652,267.8376078605652,268.5651934146881,1,0.860706090927124,None,,,,,,,,,,,,,,,,,,173,2,2025-03-03_12h53.10.006,comp,2024.2.4,53.91191683204969,2025-03-03 12h53.20.375155 -0500,
116,116,0,catch,None,None,None,None,None,None,None,None,None,None,1,1.1366193294525146,None,,,,,0,0,0,0,0,116,116,123,268.5824296474457,,,,,,,,,,,,,,,,,,,,,,,,,,,,,,,,,,,,,,,,,,,,,,,,,,,,,,,,,,,,,,,,,,,,,,,,,,,,,,,,,151,174,79,111,60,130,3.0,3.1,-238,276,0,13,216,-284,268.5673248767853,268.567400932312,268.5708177089691,268.5824296474457,268.7201290130615,268.7201290130615,268.7201290130615,268.7201290130615,268.7201290130615,268.7201290130615,268.7201290130615,269.7210171222687,1,1.1366193294525146,None,,,,,,,,,,,,,,,,,,173,2,2025-03-03_12h53.10.006,comp,2024.2.4,53.91191683204969,2025-03-03 12h53.20.375155 -0500,
117,117,0,filler_square,None,None,None,None,None,None,None,None,None,None,3,3.427520275115967,None,,,,,0,0,0,0,0,117,117,190,269.73839592933655,,,,,,,,,,,,,,,,,,,,,,,,,,,,,,,,,,,,,,,,,,,,,,,,,,,,,,,,,,,,,,,,,,,,,,,,,,,,,,,,,60.268560404253854,62.75889176693483,63.76641815520346,63.76641815520346,59.79212178006922,57.65217635206169,3.0,3.1,-159,251,0,-18,157,-267,269.7228055000305,269.7230625152588,269.7265114784241,269.73839592933655,269.89034628868103,269.89034628868103,269.89034628868103,269.89034628868103,269.89034628868103,269.89034628868103,269.89034628868103,273.1794409751892,3,3.427520275115967,None,,,,,,,,,,,,,,,,,,173,2,2025-03-03_12h53.10.006,comp,2024.2.4,53.91191683204969,2025-03-03 12h53.20.375155 -0500,
118,118,0,critical,wdh,20.0,2.1,lower,57.0,133.0,78.0,78.0,133.0,57.0,1,2.3446953296661377,None,,,,,0,0,0,0,0,118,118,10,273.1969590187073,,,,,,,,,,,,,,,,,,,,,,,,,,,,,,,,,,,,,,,,,,,,,,,,,,,,,,,,,,,,,,,,,,,,,,,,,,,,,,,,,57.0,133.0,78.0,78.0,133.0,57.0,2.1,2.12,-202,-252,0,-273,164,271,273.1809365749359,273.1810133457184,273.18396854400635,273.1969590187073,273.33952164649963,273.33952164649963,273.33952164649963,273.33952164649963,273.33952164649963,273.33952164649963,273.33952164649963,275.5562644004822,1,2.3446953296661377,None,,,,,,,,,,,,,,,,,,173,2,2025-03-03_12h53.10.006,comp,2024.2.4,53.91191683204969,2025-03-03 12h53.20.375155 -0500,
119,119,0,catch,None,None,None,None,None,None,None,None,None,None,1,1.592738151550293,None,,,,,0,0,0,0,0,119,119,128,275.5728282928467,,,,,,,,,,,,,,,,,,,,,,,,,,,,,,,,,,,,,,,,,,,,,,,,,,,,,,,,,,,,,,,,,,,,,,,,,,,,,,,,,130,195,131,59,92,98,3.0,3.1,-223,288,0,7,174,-266,275.55826020240784,275.5583441257477,275.5615830421448,275.5728282928467,275.7236089706421,275.7236089706421,275.7236089706421,275.7236089706421,275.7236089706421,275.7236089706421,275.7236089706421,277.1754684448242,1,1.592738151550293,None,,,,,,,,,,,,,,,,,,173,2,2025-03-03_12h53.10.006,comp,2024.2.4,53.91191683204969,2025-03-03 12h53.20.375155 -0500,
120,120,0,filler_random,None,None,None,None,None,None,None,None,None,None,3,2.4536054134368896,None,,,,,0,0,0,0,0,120,120,134,277.19202423095703,,,,,,,,,,,,,,,,,,,,,,,,,,,,,,,,,,,,,,,,,,,,,,,,,,,,,,,,,,,,,,,,,,,,,,,,,,,,,,,,,78.36012198413052,142.59116466522943,155.83534731775111,123.0181905844901,86.9483595565111,199.92880298557878,3.0,3.1,-229,272,0,-6,257,-288,277.1770942211151,277.1772201061249,277.18137407302856,277.19202423095703,277.3280792236328,277.3280792236328,277.3280792236328,277.3280792236328,277.3280792236328,277.3280792236328,277.3280792236328,279.6569712162018,3,2.4536054134368896,None,,,,,,,,,,,,,,,,,,173,2,2025-03-03_12h53.10.006,comp,2024.2.4,53.91191683204969,2025-03-03 12h53.20.375155 -0500,
121,121,0,catch,None,None,None,None,None,None,None,None,None,None,3,1.2445011138916016,None,,,,,0,0,0,0,0,121,121,122,279.67394161224365,,,,,,,,,,,,,,,,,,,,,,,,,,,,,,,,,,,,,,,,,,,,,,,,,,,,,,,,,,,,,,,,,,,,,,,,,,,,,,,,,77,113,80,110,188,137,4.0,4.1,-208,-285,0,-9,220,-290,279.65891695022583,279.65900111198425,279.66223406791687,279.67394161224365,279.8129482269287,279.8129482269287,279.8129482269287,279.8129482269287,279.8129482269287,279.8129482269287,279.8129482269287,280.9255256652832,3,1.2445011138916016,None,,,,,,,,,,,,,,,,,,173,2,2025-03-03_12h53.10.006,comp,2024.2.4,53.91191683204969,2025-03-03 12h53.20.375155 -0500,
122,122,0,filler_random,None,None,None,None,None,None,None,None,None,None,1,2.999519109725952,None,,,,,0,0,0,0,0,122,122,148,280.94234561920166,,,,,,,,,,,,,,,,,,,,,,,,,,,,,,,,,,,,,,,,,,,,,,,,,,,,,,,,,,,,,,,,,,,,,,,,,,,,,,,,,198.98865740327219,72.1774584238162,76.33229534414147,108.80767369147014,163.87110798794185,58.14165542367269,2.1,2.11,-186,262,0,281,179,-254,280.92744421958923,280.9275290966034,280.93134689331055,280.94234561920166,281.0917193889618,281.0917193889618,281.0917193889618,281.0917193889618,281.0917193889618,281.0917193889618,281.0917193889618,283.94399762153625,1,2.999519109725952,None,,,,,,,,,,,,,,,,,,173,2,2025-03-03_12h53.10.006,comp,2024.2.4,53.91191683204969,2025-03-03 12h53.20.375155 -0500,
123,123,0,filler_square,None,None,None,None,None,None,None,None,None,None,3,1.4372575283050537,None,,,,,0,0,0,0,0,123,123,195,283.96040296554565,,,,,,,,,,,,,,,,,,,,,,,,,,,,,,,,,,,,,,,,,,,,,,,,,,,,,,,,,,,,,,,,,,,,,,,,,,,,,,,,,72.48479150282458,69.21693396656806,62.98435087956138,67.53919014152292,75.0309438821659,75.0309438821659,2.2,2.22,-164,262,0,-287,167,-266,283.9459638595581,283.94606280326843,283.949453830719,283.96040296554565,284.11138010025024,284.11138010025024,284.11138010025024,284.11138010025024,284.11138010025024,284.11138010025024,284.11138010025024,285.41029357910156,3,1.4372575283050537,None,,,,,,,,,,,,,,,,,,173,2,2025-03-03_12h53.10.006,comp,2024.2.4,53.91191683204969,2025-03-03 12h53.20.375155 -0500,
124,124,0,catch,None,None,None,None,None,None,None,None,None,None,2,1.4503169059753418,None,,,,,0,0,0,0,0,124,124,121,285.4273478984833,,,,,,,,,,,,,,,,,,,,,,,,,,,,,,,,,,,,,,,,,,,,,,,,,,,,,,,,,,,,,,,,,,,,,,,,,,,,,,,,,120,70,197,128,103,87,2.2,2.22,-195,279,0,-286,204,-260,285.4125003814697,285.4125781059265,285.41619896888733,285.4273478984833,285.586350440979,285.586350440979,285.586350440979,285.586350440979,285.586350440979,285.586350440979,285.586350440979,286.89381647109985,2,1.4503169059753418,None,,,,,,,,,,,,,,,,,,173,2,2025-03-03_12h53.10.006,comp,2024.2.4,53.91191683204969,2025-03-03 12h53.20.375155 -0500,
125,125,0,filler_random,None,None,None,None,None,None,None,None,None,None,3,1.0885603427886963,None,,,,,0,0,0,0,0,125,125,131,286.9093978404999,,,,,,,,,,,,,,,,,,,,,,,,,,,,,,,,,,,,,,,,,,,,,,,,,,,,,,,,,,,,,,,,,,,,,,,,,,,,,,,,,188.98805556147568,95.78557865299535,140.43115188351098,108.45269544268936,146.89745571120955,183.09114009839448,4.0,4.1,-198,-273,0,12,242,-274,286.89558005332947,286.89565777778625,286.89913868904114,286.9093978404999,287.05869150161743,287.05869150161743,287.05869150161743,287.05869150161743,287.05869150161743,287.05869150161743,287.05869150161743,288.0001826286316,3,1.0885603427886963,None,,,,,,,,,,,,,,,,,,173,2,2025-03-03_12h53.10.006,comp,2024.2.4,53.91191683204969,2025-03-03 12h53.20.375155 -0500,
126,126,0,critical,hdw,20.0,2.1,lower,133.0,57.0,78.0,78.0,57.0,133.0,3,1.5459933280944824,None,,,,,0,0,0,0,0,126,126,22,288.02063155174255,,,,,,,,,,,,,,,,,,,,,,,,,,,,,,,,,,,,,,,,,,,,,,,,,,,,,,,,,,,,,,,,,,,,,,,,,,,,,,,,,133.0,57.0,78.0,78.0,57.0,133.0,2.1,2.11,-164,270,0,259,202,-252,288.00172305107117,288.0017993450165,288.00496006011963,288.02063155174255,288.16088604927063,288.16088604927063,288.16088604927063,288.16088604927063,288.16088604927063,288.16088604927063,288.16088604927063,289.58247566223145,3,1.5459933280944824,None,,,,,,,,,,,,,,,,,,173,2,2025-03-03_12h53.10.006,comp,2024.2.4,53.91191683204969,2025-03-03 12h53.20.375155 -0500,
127,127,0,critical,dwh,20.0,2.1,upper,141.0,141.0,125.0,200.0,200.0,125.0,2,2.4541807174682617,None,,,,,0,0,0,0,0,127,127,7,289.6003165245056,,,,,,,,,,,,,,,,,,,,,,,,,,,,,,,,,,,,,,,,,,,,,,,,,,,,,,,,,,,,,,,,,,,,,,,,,,,,,,,,,141.0,141.0,125.0,200.0,200.0,125.0,2.1,2.12,-266,-288,0,-261,258,280,289.58419919013977,289.58433294296265,289.5876543521881,289.6003165245056,289.745459318161,289.745459318161,289.745459318161,289.745459318161,289.745459318161,289.745459318161,289.745459318161,292.0622344017029,2,2.4541807174682617,None,,,,,,,,,,,,,,,,,,173,2,2025-03-03_12h53.10.006,comp,2024.2.4,53.91191683204969,2025-03-03 12h53.20.375155 -0500,
128,128,0,filler_random,None,None,None,None,None,None,None,None,None,None,1,1.832200288772583,None,,,,,0,0,0,0,0,128,128,141,292.078241109848,,,,,,,,,,,,,,,,,,,,,,,,,,,,,,,,,,,,,,,,,,,,,,,,,,,,,,,,,,,,,,,,,,,,,,,,,,,,,,,,,163.82661388932345,196.66649907203904,199.60481561279624,120.70530573753618,135.32524626295998,129.4351719138072,2.2,2.22,-255,271,0,-276,221,-265,292.06399154663086,292.0640678405762,292.0675129890442,292.078241109848,292.2275924682617,292.2275924682617,292.2275924682617,292.2275924682617,292.2275924682617,292.2275924682617,292.2275924682617,293.91869473457336,1,1.832200288772583,None,,,,,,,,,,,,,,,,,,173,2,2025-03-03_12h53.10.006,comp,2024.2.4,53.91191683204969,2025-03-03 12h53.20.375155 -0500,
129,129,0,critical,hwd,35.0,4.0,upper,200.0,125.0,125.0,200.0,127.0,127.0,1,2.1511075496673584,None,,,,,0,0,0,0,0,129,129,101,293.9362907409668,,,,,,,,,,,,,,,,,,,,,,,,,,,,,,,,,,,,,,,,,,,,,,,,,,,,,,,,,,,,,,,,,,,,,,,,,,,,,,,,,200.0,125.0,125.0,200.0,127.0,127.0,4.0,4.1,-258,-256,0,-8,260,-253,293.92021346092224,293.9202923774719,293.92338466644287,293.9362907409668,294.0792660713196,294.0792660713196,294.0792660713196,294.0792660713196,294.0792660713196,294.0792660713196,294.0792660713196,296.0982551574707,1,2.1511075496673584,None,,,,,,,,,,,,,,,,,,173,2,2025-03-03_12h53.10.006,comp,2024.2.4,53.91191683204969,2025-03-03 12h53.20.375155 -0500,
130,130,0,filler_square,None,None,None,None,None,None,None,None,None,None,2,1.427706241607666,None,,,,,0,0,0,0,0,130,130,175,296.1146080493927,,,,,,,,,,,,,,,,,,,,,,,,,,,,,,,,,,,,,,,,,,,,,,,,,,,,,,,,,,,,,,,,,,,,,,,,,,,,,,,,,88.60535866073708,144.76893609343753,159.52646742223334,159.52646742223334,69.77198699582925,133.0666980281579,2.1,2.11,-248,279,0,284,242,-252,296.1001226902008,296.1002414226532,296.103688955307,296.1146080493927,296.26450061798096,296.26450061798096,296.26450061798096,296.26450061798096,296.26450061798096,296.26450061798096,296.26450061798096,297.54808712005615,2,1.427706241607666,None,,,,,,,,,,,,,,,,,,173,2,2025-03-03_12h53.10.006,comp,2024.2.4,53.91191683204969,2025-03-03 12h53.20.375155 -0500,
131,131,0,critical,dhw,35.0,3.0,upper,127.0,127.0,200.0,125.0,125.0,200.0,2,1.8983864784240723,None,,,,,0,0,0,0,0,131,131,51,297.5641920566559,,,,,,,,,,,,,,,,,,,,,,,,,,,,,,,,,,,,,,,,,,,,,,,,,,,,,,,,,,,,,,,,,,,,,,,,,,,,,,,,,127.0,127.0,200.0,125.0,125.0,200.0,3.0,3.1,-222,259,0,18,258,-253,297.549679517746,297.54976081848145,297.5533800125122,297.5641920566559,297.71744894981384,297.71744894981384,297.71744894981384,297.71744894981384,297.71744894981384,297.71744894981384,297.71744894981384,299.46853041648865,2,1.8983864784240723,None,,,,,,,,,,,,,,,,,,173,2,2025-03-03_12h53.10.006,comp,2024.2.4,53.91191683204969,2025-03-03 12h53.20.375155 -0500,
132,132,0,filler_random,None,None,None,None,None,None,None,None,None,None,3,1.7958481311798096,None,,,,,0,0,0,0,0,132,132,154,299.4898819923401,,,,,,,,,,,,,,,,,,,,,,,,,,,,,,,,,,,,,,,,,,,,,,,,,,,,,,,,,,,,,,,,,,,,,,,,,,,,,,,,,184.50093817390518,61.27697421514768,91.05449669909503,124.56255446672,155.0051979709473,136.6490247060728,2.1,2.12,-189,-284,0,-270,227,263,299.47044706344604,299.4705982208252,299.4740288257599,299.4898819923401,299.6374053955078,299.6374053955078,299.6374053955078,299.6374053955078,299.6374053955078,299.6374053955078,299.6374053955078,301.2968714237213,3,1.7958481311798096,None,,,,,,,,,,,,,,,,,,173,2,2025-03-03_12h53.10.006,comp,2024.2.4,53.91191683204969,2025-03-03 12h53.20.375155 -0500,
133,133,0,critical,hwd,35.0,3.0,upper,200.0,125.0,125.0,200.0,127.0,127.0,1,1.724593162536621,None,,,,,0,0,0,0,0,133,133,99,301.3138780593872,,,,,,,,,,,,,,,,,,,,,,,,,,,,,,,,,,,,,,,,,,,,,,,,,,,,,,,,,,,,,,,,,,,,,,,,,,,,,,,,,200.0,125.0,125.0,200.0,127.0,127.0,3.0,3.2,-258,-277,0,-18,260,253,301.298424243927,301.29850149154663,301.30214190483093,301.3138780593872,301.4648218154907,301.4648218154907,301.4648218154907,301.4648218154907,301.4648218154907,301.4648218154907,301.4648218154907,303.0453929901123,1,1.724593162536621,None,,,,,,,,,,,,,,,,,,173,2,2025-03-03_12h53.10.006,comp,2024.2.4,53.91191683204969,2025-03-03 12h53.20.375155 -0500,
134,134,0,critical,hwd,20.0,3.0,upper,200.0,125.0,125.0,200.0,141.0,141.0,2,3.152608633041382,None,,,,,0,0,0,0,0,134,134,105,303.0612165927887,,,,,,,,,,,,,,,,,,,,,,,,,,,,,,,,,,,,,,,,,,,,,,,,,,,,,,,,,,,,,,,,,,,,,,,,,,,,,,,,,200.0,125.0,125.0,200.0,141.0,141.0,3.0,3.1,-258,261,0,4,266,-271,303.0469980239868,303.04707431793213,303.05047941207886,303.0612165927887,303.19962906837463,303.19962906837463,303.19962906837463,303.19962906837463,303.19962906837463,303.19962906837463,303.19962906837463,306.2166795730591,2,3.152608633041382,None,,,,,,,,,,,,,,,,,,173,2,2025-03-03_12h53.10.006,comp,2024.2.4,53.91191683204969,2025-03-03 12h53.20.375155 -0500,
135,135,0,critical,whd,20.0,1.0,lower,57.0,133.0,133.0,57.0,78.0,78.0,2,6.365300178527832,None,,,,,0,0,0,0,0,135,135,90,306.2325177192688,,,,,,,,,,,,,,,,,,,,,,,,,,,,,,,,,,,,,,,,,,,,,,,,,,,,,,,,,,,,,,,,,,,,,,,,,,,,,,,,,57.0,133.0,133.0,57.0,78.0,78.0,1.0,1.2,-191,-20,0,-19,164,5,306.2181866168976,306.2182631492615,306.22172832489014,306.2325177192688,306.3817574977875,306.3817574977875,306.3817574977875,306.3817574977875,306.3817574977875,306.3817574977875,306.3817574977875,312.6017701625824,2,6.365300178527832,None,,,,,,,,,,,,,,,,,,173,2,2025-03-03_12h53.10.006,comp,2024.2.4,53.91191683204969,2025-03-03 12h53.20.375155 -0500,
136,136,0,critical,dhw,35.0,1.0,lower,70.0,70.0,133.0,57.0,57.0,133.0,2,1.6602091789245605,None,,,,,0,0,0,0,0,136,136,48,312.61762714385986,,,,,,,,,,,,,,,,,,,,,,,,,,,,,,,,,,,,,,,,,,,,,,,,,,,,,,,,,,,,,,,,,,,,,,,,,,,,,,,,,70.0,70.0,133.0,57.0,57.0,133.0,1.0,1.1,-640,273,-480,257,-289,276,312.6033217906952,312.6033980846405,312.60697865486145,312.61762714385986,312.77451515197754,312.77451515197754,312.77451515197754,312.77451515197754,312.77451515197754,312.77451515197754,312.77451515197754,314.2961537837982,2,1.6602091789245605,None,,,,,,,,,,,,,,,,,,173,2,2025-03-03_12h53.10.006,comp,2024.2.4,53.91191683204969,2025-03-03 12h53.20.375155 -0500,
137,137,0,critical,dwh,35.0,4.0,lower,70.0,70.0,57.0,133.0,133.0,57.0,2,3.4092633724212646,None,,,,,0,0,0,0,0,137,137,64,314.31655073165894,,,,,,,,,,,,,,,,,,,,,,,,,,,,,,,,,,,,,,,,,,,,,,,,,,,,,,,,,,,,,,,,,,,,,,,,,,,,,,,,,70.0,70.0,57.0,133.0,133.0,57.0,4.0,4.1,-198,-254,0,8,191,-264,314.297669172287,314.29774260520935,314.30113220214844,314.31655073165894,314.45237469673157,314.45237469673157,314.45237469673157,314.45237469673157,314.45237469673157,314.45237469673157,314.45237469673157,317.7359571456909,2,3.4092633724212646,None,,,,,,,,,,,,,,,,,,173,2,2025-03-03_12h53.10.006,comp,2024.2.4,53.91191683204969,2025-03-03 12h53.20.375155 -0500,
138,138,0,filler_random,None,None,None,None,None,None,None,None,None,None,2,1.4770140647888184,None,,,,,0,0,0,0,0,138,138,156,317.75286078453064,,,,,,,,,,,,,,,,,,,,,,,,,,,,,,,,,,,,,,,,,,,,,,,,,,,,,,,,,,,,,,,,,,,,,,,,,,,,,,,,,189.46920942946264,139.9487238407431,148.8611998692811,161.29415610956187,128.59184204339817,63.86157867528589,3.0,3.1,-247,263,0,0,209,-259,317.7376868724823,317.7378194332123,317.741215467453,317.75286078453064,317.9082908630371,317.9082908630371,317.9082908630371,317.9082908630371,317.9082908630371,317.9082908630371,317.9082908630371,319.24099254608154,2,1.4770140647888184,None,,,,,,,,,,,,,,,,,,173,2,2025-03-03_12h53.10.006,comp,2024.2.4,53.91191683204969,2025-03-03 12h53.20.375155 -0500,
139,139,0,filler_random,None,None,None,None,None,None,None,None,None,None,3,1.1450145244598389,None,,,,,0,0,0,0,0,139,139,159,319.26090693473816,,,,,,,,,,,,,,,,,,,,,,,,,,,,,,,,,,,,,,,,,,,,,,,,,,,,,,,,,,,,,,,,,,,,,,,,,,,,,,,,,61.992663713121395,115.35697088358917,81.73552931199964,84.20342276459698,125.57899864938827,174.92106987359566,2.1,2.12,-196,-254,0,-272,226,258,319.24292731285095,319.24300599098206,319.24643087387085,319.26090693473816,319.4050843715668,319.4050843715668,319.4050843715668,319.4050843715668,319.4050843715668,319.4050843715668,319.4050843715668,320.42407393455505,3,1.1450145244598389,None,,,,,,,,,,,,,,,,,,173,2,2025-03-03_12h53.10.006,comp,2024.2.4,53.91191683204969,2025-03-03 12h53.20.375155 -0500,
