thisN,thisTrialN,thisRepN,effect,order,distance,config,diag,h_1,w_1,h_2,w_2,h_3,w_3,rect_choice.keys,rect_choice.rt,rect_choice.duration,instructions_loop.thisRepN,instructions_loop.thisTrialN,instructions_loop.thisN,instructions_loop.thisIndex,blocks.thisRepN,blocks.thisTrialN,blocks.thisN,blocks.thisIndex,trials.thisRepN,trials.thisTrialN,trials.thisN,trials.thisIndex,thisRow.t,notes,consent.started,agree_button.started,decline_button.started,consent_img.started,mouse.started,consent.stopped,agree_button.numClicks,agree_button.timesOn,agree_button.timesOff,decline_button.numClicks,decline_button.timesOn,decline_button.timesOff,mouse.x,mouse.y,mouse.leftButton,mouse.midButton,mouse.rightButton,mouse.time,mouse.clicked_name,exp_params.started,exp_params.stopped,welcome.started,welcome_text.started,welcome.stopped,instructions_1.started,instructions_1_text_1.started,instructions_1_text_2.started,key_resp.started,instructions_1.stopped,instructions_loop.key_resp.keys,instructions_loop.key_resp.rt,instructions_loop.key_resp.duration,instructions_2.started,instructions_2_text_1.started,instructions_2_text_2.started,key_resp_2.started,instructions_2.stopped,instructions_loop.key_resp_2.keys,instructions_loop.key_resp_2.rt,instructions_loop.key_resp_2.duration,instructions_3.started,instructions_3_text_1.started,r1_instr3.started,r2_instr3.started,r3_instr3.started,r1_instr3_label.started,r2_instr3_label.started,r3_instr3_label.started,instructions_3_text_3.started,instructions_3_text_4.started,key_resp_3.started,instructions_3.stopped,instructions_loop.key_resp_3.keys,instructions_loop.key_resp_3.rt,instructions_loop.key_resp_3.duration,instructions_4.started,instructions_4_text_1.started,instructions_4_text_3.started,instructions_4_text_2.started,key_resp_4.started,instructions_4.stopped,instructions_loop.key_resp_4.keys,instructions_loop.key_resp_4.rt,instructions_loop.key_resp_4.duration,instructions_5.started,instructions_5_text_1.started,instructions_5_text_2.started,key_resp_5.started,instructions_5.stopped,instructions_loop.key_resp_5.keys,instructions_loop.key_resp_5.rt,instructions_loop.key_resp_5.duration,start_exp.started,start_exp_text.started,key_resp_6.started,start_exp.stopped,key_resp_6.keys,key_resp_6.rt,key_resp_6.duration,h_1_tmp,w_1_tmp,h_2_tmp,w_2_tmp,h_3_tmp,w_3_tmp,config_tmp,config_tmp_1,r_1_x,r_1_y,r_2_x,r_2_y,r_3_x,r_3_y,pre_trial.started,pre_trial.stopped,choice_trial.started,rect_choice.started,r_1.started,r_2.started,r_3.started,r_1_label.started,r_2_label.started,r_3_label.started,prompt.started,choice_trial.stopped,trials.rect_choice.keys,trials.rect_choice.rt,trials.rect_choice.duration,end_block.started,end_block_text.started,end_block.stopped,end.started,end_text.started,key_resp_7.started,end.stopped,key_resp_7.keys,key_resp_7.rt,key_resp_7.duration,debriefing.started,debrief_form.started,end_debrief.started,debriefing.stopped,end_debrief.keys,end_debrief.rt,end_debrief.duration,participant,computer,date,expName,psychopyVersion,frameRate,expStart,
,,,,,,,,,,,,,,,,,,,,,,,,,,,,,,,0.015918254852294922,0.04359698295593262,0.04359698295593262,0.04359698295593262,0.015443086624145508,9.712642431259155,1,[9.667858362197876],[9.667868614196777],0,,,[-69.0],[-529.0],[1],[0],[0],[9.695409774780273],['agree_button'],,,,,,,,,,,,,,,,,,,,,,,,,,,,,,,,,,,,,,,,,,,,,,,,,,,,,,,,,,,,,,,,,,,,,,,,,,,,,,,,,,,,,,,,,,,,,,,,,,,,,,,,,,,174,3,2025-03-03_12h54.29.313,comp,2024.2.4,60.03148776843323,2025-03-03 12h54.37.567115 -0500,
,,,,,,,,,,,,,,,,,,,,,,,,,,,,,,,,,,,,,,,,,,,,,,,,,,9.712904453277588,9.712937355041504,,,,,,,,,,,,,,,,,,,,,,,,,,,,,,,,,,,,,,,,,,,,,,,,,,,,,,,,,,,,,,,,,,,,,,,,,,,,,,,,,,,,,,,,,,,,,,,,,,,,,,,,,174,3,2025-03-03_12h54.29.313,comp,2024.2.4,60.03148776843323,2025-03-03 12h54.37.567115 -0500,
,,,,,,,,,,,,,,,,,,,,,,,,,,,,,,,,,,,,,,,,,,,,,,,,,,,,9.712958812713623,9.726468086242676,11.719541549682617,,,,,,,,,,,,,,,,,,,,,,,,,,,,,,,,,,,,,,,,,,,,,,,,,,,,,,,,,,,,,,,,,,,,,,,,,,,,,,,,,,,,,,,,,,,,,,,,,,,,,,174,3,2025-03-03_12h54.29.313,comp,2024.2.4,60.03148776843323,2025-03-03 12h54.37.567115 -0500,
0,0,0,,,,,,,,,,,,,,,0,0,0,0,,,,,,,,,11.735962867736816,,,,,,,,,,,,,,,,,,,,,,,,,,11.720085382461548,11.735962867736816,11.735962867736816,13.219162702560425,15.853701114654541,space,2.6251440048217773,None,15.853774309158325,15.869741916656494,15.869741916656494,17.369661808013916,28.287137746810913,space,10.916290760040283,None,28.287232875823975,28.309280395507812,28.309280395507812,28.309280395507812,28.309280395507812,28.309280395507812,28.309280395507812,28.309280395507812,28.309280395507812,28.309280395507812,29.80278182029724,32.40410232543945,space,2.593390703201294,None,32.40418791770935,32.41985106468201,32.41985106468201,32.41985106468201,33.91910123825073,38.88711142539978,space,4.9560863971710205,None,38.887192487716675,38.90239977836609,38.90239977836609,40.40224599838257,40.736775159835815,space,0.3214864730834961,None,40.736886978149414,40.75227880477905,40.75227880477905,41.7033588886261,space,0.9387595653533936,None,,,,,,,,,,,,,,,,,,,,,,,,,,,,,,,,,,,,,,,,,,,,,,,174,3,2025-03-03_12h54.29.313,comp,2024.2.4,60.03148776843323,2025-03-03 12h54.37.567115 -0500,
0,0,0,filler_square,None,None,None,None,None,None,None,None,None,None,2,3.560698986053467,None,,,,,0,0,0,0,0,0,0,179,41.76293087005615,,,,,,,,,,,,,,,,,,,,,,,,,,,,,,,,,,,,,,,,,,,,,,,,,,,,,,,,,,,,,,,,,,,,,,,,,,,,,,,,,81.76735120519803,72.6285518181932,138.25832839793264,138.25832839793264,101.33811452754257,99.16863190630579,2.1,2.12,-201,-279,0,-270,215,250,41.74942660331726,41.74947452545166,41.75149917602539,41.76293087005615,41.90935802459717,41.90935802459717,41.90935802459717,41.90935802459717,41.90935802459717,41.90935802459717,41.90935802459717,45.3367965221405,2,3.560698986053467,None,,,,,,,,,,,,,,,,,,174,3,2025-03-03_12h54.29.313,comp,2024.2.4,60.03148776843323,2025-03-03 12h54.37.567115 -0500,
1,1,0,filler_random,None,None,None,None,None,None,None,None,None,None,1,1.2190501689910889,None,,,,,0,0,0,0,0,1,1,160,45.35218858718872,,,,,,,,,,,,,,,,,,,,,,,,,,,,,,,,,,,,,,,,,,,,,,,,,,,,,,,,,,,,,,,,,,,,,,,,,,,,,,,,,146.10020080225536,181.31331409526416,107.43937012035599,125.3726803029759,122.33091352745437,75.40468986629477,4.0,4.1,-249,-262,0,20,196,-254,45.3377149105072,45.337756633758545,45.34020948410034,45.35218858718872,45.50249886512756,45.50249886512756,45.50249886512756,45.50249886512756,45.50249886512756,45.50249886512756,45.50249886512756,46.586854457855225,1,1.2190501689910889,None,,,,,,,,,,,,,,,,,,174,3,2025-03-03_12h54.29.313,comp,2024.2.4,60.03148776843323,2025-03-03 12h54.37.567115 -0500,
2,2,0,filler_square,None,None,None,None,None,None,None,None,None,None,1,0.9529170989990234,None,,,,,0,0,0,0,0,2,2,183,46.60233736038208,,,,,,,,,,,,,,,,,,,,,,,,,,,,,,,,,,,,,,,,,,,,,,,,,,,,,,,,,,,,,,,,,,,,,,,,,,,,,,,,,153.35056543818274,153.35056543818274,98.30708448959179,89.0298606005687,57.72208182222495,107.64035431565918,2.1,2.11,-217,271,0,262,194,-290,46.58779954910278,46.58784103393555,46.590332984924316,46.60233736038208,46.75246047973633,46.75246047973633,46.75246047973633,46.75246047973633,46.75246047973633,46.75246047973633,46.75246047973633,47.570080041885376,1,0.9529170989990234,None,,,,,,,,,,,,,,,,,,174,3,2025-03-03_12h54.29.313,comp,2024.2.4,60.03148776843323,2025-03-03 12h54.37.567115 -0500,
3,3,0,filler_square,None,None,None,None,None,None,None,None,None,None,3,0.8894565105438232,None,,,,,0,0,0,0,0,3,3,199,47.58554673194885,,,,,,,,,,,,,,,,,,,,,,,,,,,,,,,,,,,,,,,,,,,,,,,,,,,,,,,,,,,,,,,,,,,,,,,,,,,,,,,,,72.68806774067116,107.59777195061335,66.92357930592614,114.99999472226976,181.83156933445628,181.83156933445628,2.2,2.21,-207,-269,0,281,244,268,47.57105851173401,47.571099281311035,47.57367420196533,47.58554673194885,47.735992193222046,47.735992193222046,47.735992193222046,47.735992193222046,47.735992193222046,47.735992193222046,47.735992193222046,48.486713886260986,3,0.8894565105438232,None,,,,,,,,,,,,,,,,,,174,3,2025-03-03_12h54.29.313,comp,2024.2.4,60.03148776843323,2025-03-03 12h54.37.567115 -0500,
4,4,0,critical,dhw,35.0,2.1,lower,70.0,70.0,133.0,57.0,57.0,133.0,3,1.7578074932098389,None,,,,,0,0,0,0,0,4,4,0,48.50244760513306,,,,,,,,,,,,,,,,,,,,,,,,,,,,,,,,,,,,,,,,,,,,,,,,,,,,,,,,,,,,,,,,,,,,,,,,,,,,,,,,,70.0,70.0,133.0,57.0,57.0,133.0,2.1,2.11,-160,260,0,287,191,-268,48.487518548965454,48.487560987472534,48.4900107383728,48.50244760513306,48.65237736701965,48.65237736701965,48.65237736701965,48.65237736701965,48.65237736701965,48.65237736701965,48.65237736701965,50.2701370716095,3,1.7578074932098389,None,,,,,,,,,,,,,,,,,,174,3,2025-03-03_12h54.29.313,comp,2024.2.4,60.03148776843323,2025-03-03 12h54.37.567115 -0500,
5,5,0,filler_square,None,None,None,None,None,None,None,None,None,None,2,1.1338276863098145,None,,,,,0,0,0,0,0,5,5,187,50.285889625549316,,,,,,,,,,,,,,,,,,,,,,,,,,,,,,,,,,,,,,,,,,,,,,,,,,,,,,,,,,,,,,,,,,,,,,,,,,,,,,,,,98.50355724646292,76.66789224114359,147.6003843858593,147.6003843858593,125.28826284555696,139.71823855568707,2.2,2.22,-208,282,0,-289,240,-267,50.27114415168762,50.271186113357544,50.273417234420776,50.285889625549316,50.43572449684143,50.43572449684143,50.43572449684143,50.43572449684143,50.43572449684143,50.43572449684143,50.43572449684143,51.436861515045166,2,1.1338276863098145,None,,,,,,,,,,,,,,,,,,174,3,2025-03-03_12h54.29.313,comp,2024.2.4,60.03148776843323,2025-03-03 12h54.37.567115 -0500,
6,6,0,catch,None,None,None,None,None,None,None,None,None,None,2,0.9437599182128906,None,,,,,0,0,0,0,0,6,6,128,51.45222616195679,,,,,,,,,,,,,,,,,,,,,,,,,,,,,,,,,,,,,,,,,,,,,,,,,,,,,,,,,,,,,,,,,,,,,,,,,,,,,,,,,110,80,158,167,114,76,3.0,3.1,-220,287,0,-5,218,-261,51.43792676925659,51.43796968460083,51.440468549728394,51.45222616195679,51.602476358413696,51.602476358413696,51.602476358413696,51.602476358413696,51.602476358413696,51.602476358413696,51.602476358413696,52.40347599983215,2,0.9437599182128906,None,,,,,,,,,,,,,,,,,,174,3,2025-03-03_12h54.29.313,comp,2024.2.4,60.03148776843323,2025-03-03 12h54.37.567115 -0500,
7,7,0,critical,hdw,35.0,4.0,upper,200.0,125.0,127.0,127.0,125.0,200.0,3,4.471850395202637,None,,,,,0,0,0,0,0,7,7,113,52.419148206710815,,,,,,,,,,,,,,,,,,,,,,,,,,,,,,,,,,,,,,,,,,,,,,,,,,,,,,,,,,,,,,,,,,,,,,,,,,,,,,,,,200.0,125.0,127.0,127.0,125.0,200.0,4.0,4.1,-222,-267,0,-9,260,-250,52.404335021972656,52.4043755531311,52.40689754486084,52.419148206710815,52.56941533088684,52.56941533088684,52.56941533088684,52.56941533088684,52.56941533088684,52.56941533088684,52.56941533088684,56.90399694442749,3,4.471850395202637,None,,,,,,,,,,,,,,,,,,174,3,2025-03-03_12h54.29.313,comp,2024.2.4,60.03148776843323,2025-03-03 12h54.37.567115 -0500,
8,8,0,filler_random,None,None,None,None,None,None,None,None,None,None,1,1.0046818256378174,None,,,,,0,0,0,0,0,8,8,157,56.9189248085022,,,,,,,,,,,,,,,,,,,,,,,,,,,,,,,,,,,,,,,,,,,,,,,,,,,,,,,,,,,,,,,,,,,,,,,,,,,,,,,,,130.63595166168164,198.1663590354935,122.74617237818711,77.24097971518833,93.00766440991363,150.81432934546257,4.0,4.2,-234,18,0,-253,210,-3,56.90490674972534,56.904947996139526,56.9074444770813,56.9189248085022,57.06913995742798,57.06913995742798,57.06913995742798,57.06913995742798,57.06913995742798,57.06913995742798,57.06913995742798,57.93680953979492,1,1.0046818256378174,None,,,,,,,,,,,,,,,,,,174,3,2025-03-03_12h54.29.313,comp,2024.2.4,60.03148776843323,2025-03-03 12h54.37.567115 -0500,
9,9,0,filler_square,None,None,None,None,None,None,None,None,None,None,2,0.8839428424835205,None,,,,,0,0,0,0,0,9,9,186,57.95217323303223,,,,,,,,,,,,,,,,,,,,,,,,,,,,,,,,,,,,,,,,,,,,,,,,,,,,,,,,,,,,,,,,,,,,,,,,,,,,,,,,,145.1124961827988,69.75206902950937,192.5484936958216,192.5484936958216,185.1084369843315,103.67624626238867,2.2,2.21,-227,-252,0,273,244,264,57.93777680397034,57.93781852722168,57.94027829170227,57.95217323303223,58.102863073349,58.102863073349,58.102863073349,58.102863073349,58.102863073349,58.102863073349,58.102863073349,58.837284088134766,2,0.8839428424835205,None,,,,,,,,,,,,,,,,,,174,3,2025-03-03_12h54.29.313,comp,2024.2.4,60.03148776843323,2025-03-03 12h54.37.567115 -0500,
10,10,0,filler_square,None,None,None,None,None,None,None,None,None,None,3,1.1273987293243408,None,,,,,0,0,0,0,0,10,10,190,58.85242486000061,,,,,,,,,,,,,,,,,,,,,,,,,,,,,,,,,,,,,,,,,,,,,,,,,,,,,,,,,,,,,,,,,,,,,,,,,,,,,,,,,149.69279243200197,103.39851654238552,135.69133721952238,115.05180857969364,162.19743230439173,162.19743230439173,4.0,4.2,-205,17,0,-290,235,-8,58.8383207321167,58.83838152885437,58.84093618392944,58.85242486000061,59.00239038467407,59.00239038467407,59.00239038467407,59.00239038467407,59.00239038467407,59.00239038467407,59.00239038467407,59.98693919181824,3,1.1273987293243408,None,,,,,,,,,,,,,,,,,,174,3,2025-03-03_12h54.29.313,comp,2024.2.4,60.03148776843323,2025-03-03 12h54.37.567115 -0500,
11,11,0,critical,dwh,35.0,2.1,upper,127.0,127.0,125.0,200.0,200.0,125.0,3,1.3530941009521484,None,,,,,0,0,0,0,0,11,11,5,60.002434492111206,,,,,,,,,,,,,,,,,,,,,,,,,,,,,,,,,,,,,,,,,,,,,,,,,,,,,,,,,,,,,,,,,,,,,,,,,,,,,,,,,127.0,127.0,125.0,200.0,200.0,125.0,2.1,2.11,-260,272,0,256,258,-270,59.987709283828735,59.9877507686615,59.990143060684204,60.002434492111206,60.1524875164032,60.1524875164032,60.1524875164032,60.1524875164032,60.1524875164032,60.1524875164032,60.1524875164032,61.37042474746704,3,1.3530941009521484,None,,,,,,,,,,,,,,,,,,174,3,2025-03-03_12h54.29.313,comp,2024.2.4,60.03148776843323,2025-03-03 12h54.37.567115 -0500,
12,12,0,critical,hdw,20.0,4.0,upper,200.0,125.0,141.0,141.0,125.0,200.0,1,5.201496362686157,None,,,,,0,0,0,0,0,12,12,119,61.38553977012634,,,,,,,,,,,,,,,,,,,,,,,,,,,,,,,,,,,,,,,,,,,,,,,,,,,,,,,,,,,,,,,,,,,,,,,,,,,,,,,,,200.0,125.0,141.0,141.0,125.0,200.0,4.0,4.2,-229,-13,0,-279,266,19,61.37121391296387,61.37126922607422,61.37334704399109,61.38553977012634,61.53581523895264,61.53581523895264,61.53581523895264,61.53581523895264,61.53581523895264,61.53581523895264,61.53581523895264,66.60368347167969,1,5.201496362686157,None,,,,,,,,,,,,,,,,,,174,3,2025-03-03_12h54.29.313,comp,2024.2.4,60.03148776843323,2025-03-03 12h54.37.567115 -0500,
13,13,0,filler_square,None,None,None,None,None,None,None,None,None,None,1,3.809042453765869,None,,,,,0,0,0,0,0,13,13,171,66.61876034736633,,,,,,,,,,,,,,,,,,,,,,,,,,,,,,,,,,,,,,,,,,,,,,,,,,,,,,,,,,,,,,,,,,,,,,,,,,,,,,,,,122.12495599813607,122.12495599813607,101.73164619429683,62.66306422340861,66.69583533152193,82.12495339965703,2.2,2.21,-188,-254,0,265,168,255,66.6046712398529,66.60471320152283,66.60708928108215,66.61876034736633,66.76889872550964,66.76889872550964,66.76889872550964,66.76889872550964,66.76889872550964,66.76889872550964,66.76889872550964,70.43661403656006,1,3.809042453765869,None,,,,,,,,,,,,,,,,,,174,3,2025-03-03_12h54.29.313,comp,2024.2.4,60.03148776843323,2025-03-03 12h54.37.567115 -0500,
14,14,0,catch,None,None,None,None,None,None,None,None,None,None,1,0.800137996673584,None,,,,,0,0,0,0,0,14,14,123,70.45230436325073,,,,,,,,,,,,,,,,,,,,,,,,,,,,,,,,,,,,,,,,,,,,,,,,,,,,,,,,,,,,,,,,,,,,,,,,,,,,,,,,,129,196,67,123,101,89,4.0,4.2,-256,-20,0,-268,202,-15,70.43769383430481,70.43773865699768,70.43988180160522,70.45230436325073,70.60237407684326,70.60237407684326,70.60237407684326,70.60237407684326,70.60237407684326,70.60237407684326,70.60237407684326,71.26992726325989,1,0.800137996673584,None,,,,,,,,,,,,,,,,,,174,3,2025-03-03_12h54.29.313,comp,2024.2.4,60.03148776843323,2025-03-03 12h54.37.567115 -0500,
15,15,0,filler_random,None,None,None,None,None,None,None,None,None,None,2,2.9894747734069824,None,,,,,0,0,0,0,0,15,15,155,71.28532552719116,,,,,,,,,,,,,,,,,,,,,,,,,,,,,,,,,,,,,,,,,,,,,,,,,,,,,,,,,,,,,,,,,,,,,,,,,,,,,,,,,121.72914806555639,67.73151327536118,145.970944791558,65.48892195755454,120.99212265369272,60.32550042531379,2.2,2.22,-163,272,0,-261,159,-265,71.27094864845276,71.27099084854126,71.27362966537476,71.28532552719116,71.43549489974976,71.43549489974976,71.43549489974976,71.43549489974976,71.43549489974976,71.43549489974976,71.43549489974976,74.28666114807129,2,2.9894747734069824,None,,,,,,,,,,,,,,,,,,174,3,2025-03-03_12h54.29.313,comp,2024.2.4,60.03148776843323,2025-03-03 12h54.37.567115 -0500,
16,16,0,critical,dhw,35.0,2.1,lower,70.0,70.0,133.0,57.0,57.0,133.0,3,2.0309832096099854,None,,,,,0,0,0,0,0,16,16,24,74.30203032493591,,,,,,,,,,,,,,,,,,,,,,,,,,,,,,,,,,,,,,,,,,,,,,,,,,,,,,,,,,,,,,,,,,,,,,,,,,,,,,,,,70.0,70.0,133.0,57.0,57.0,133.0,2.1,2.11,-160,261,0,289,191,-254,74.28753304481506,74.28757286071777,74.29005599021912,74.30203032493591,74.4520628452301,74.4520628452301,74.4520628452301,74.4520628452301,74.4520628452301,74.4520628452301,74.4520628452301,76.3367862701416,3,2.0309832096099854,None,,,,,,,,,,,,,,,,,,174,3,2025-03-03_12h54.29.313,comp,2024.2.4,60.03148776843323,2025-03-03 12h54.37.567115 -0500,
17,17,0,critical,dwh,20.0,2.1,upper,141.0,141.0,125.0,200.0,200.0,125.0,2,6.922393798828125,None,,,,,0,0,0,0,0,17,17,7,76.35232591629028,,,,,,,,,,,,,,,,,,,,,,,,,,,,,,,,,,,,,,,,,,,,,,,,,,,,,,,,,,,,,,,,,,,,,,,,,,,,,,,,,141.0,141.0,125.0,200.0,200.0,125.0,2.1,2.12,-266,-267,0,-266,258,265,76.33756828308105,76.33760857582092,76.33995771408081,76.35232591629028,76.5023500919342,76.5023500919342,76.5023500919342,76.5023500919342,76.5023500919342,76.5023500919342,76.5023500919342,83.28689575195312,2,6.922393798828125,None,,,,,,,,,,,,,,,,,,174,3,2025-03-03_12h54.29.313,comp,2024.2.4,60.03148776843323,2025-03-03 12h54.37.567115 -0500,
18,18,0,critical,dwh,20.0,2.1,lower,78.0,78.0,57.0,133.0,133.0,57.0,2,2.501023530960083,None,,,,,0,0,0,0,0,18,18,30,83.30188393592834,,,,,,,,,,,,,,,,,,,,,,,,,,,,,,,,,,,,,,,,,,,,,,,,,,,,,,,,,,,,,,,,,,,,,,,,,,,,,,,,,78.0,78.0,57.0,133.0,133.0,57.0,2.1,2.12,-202,-265,0,-285,191,252,83.2877106666565,83.28775358200073,83.29028630256653,83.30188393592834,83.45211720466614,83.45211720466614,83.45211720466614,83.45211720466614,83.45211720466614,83.45211720466614,83.45211720466614,85.81986951828003,2,2.501023530960083,None,,,,,,,,,,,,,,,,,,174,3,2025-03-03_12h54.29.313,comp,2024.2.4,60.03148776843323,2025-03-03 12h54.37.567115 -0500,
19,19,0,filler_random,None,None,None,None,None,None,None,None,None,None,1,1.335498332977295,None,,,,,0,0,0,0,0,19,19,130,85.83531403541565,,,,,,,,,,,,,,,,,,,,,,,,,,,,,,,,,,,,,,,,,,,,,,,,,,,,,,,,,,,,,,,,,,,,,,,,,,,,,,,,,117.4427334691525,179.5900169685907,77.01399906182657,194.70925296052803,60.822910730414236,94.9944459870272,4.0,4.1,-283,-260,0,1,241,-269,85.82078981399536,85.82083177566528,85.82335209846497,85.83531403541565,85.98557615280151,85.98557615280151,85.98557615280151,85.98557615280151,85.98557615280151,85.98557615280151,85.98557615280151,87.1865816116333,1,1.335498332977295,None,,,,,,,,,,,,,,,,,,174,3,2025-03-03_12h54.29.313,comp,2024.2.4,60.03148776843323,2025-03-03 12h54.37.567115 -0500,
20,20,0,filler_square,None,None,None,None,None,None,None,None,None,None,1,2.936943292617798,None,,,,,0,0,0,0,0,20,20,180,87.2019853591919,,,,,,,,,,,,,,,,,,,,,,,,,,,,,,,,,,,,,,,,,,,,,,,,,,,,,,,,,,,,,,,,,,,,,,,,,,,,,,,,,92.51941288674578,92.51941288674578,63.48729539585531,85.3376764031573,68.50976474772318,79.98850833534314,2.2,2.21,-185,-284,0,260,179,262,87.18755006790161,87.18759322166443,87.19000029563904,87.2019853591919,87.35206127166748,87.35206127166748,87.35206127166748,87.35206127166748,87.35206127166748,87.35206127166748,87.35206127166748,90.15334248542786,1,2.936943292617798,None,,,,,,,,,,,,,,,,,,174,3,2025-03-03_12h54.29.313,comp,2024.2.4,60.03148776843323,2025-03-03 12h54.37.567115 -0500,
21,21,0,filler_square,None,None,None,None,None,None,None,None,None,None,1,0.8839013576507568,None,,,,,0,0,0,0,0,21,21,202,90.168705701828,,,,,,,,,,,,,,,,,,,,,,,,,,,,,,,,,,,,,,,,,,,,,,,,,,,,,,,,,,,,,,,,,,,,,,,,,,,,,,,,,152.79033775217442,152.79033775217442,67.00411116343415,100.49316361772333,105.77106735397994,147.42990948332692,3.0,3.1,-223,252,0,-9,220,-267,90.15430116653442,90.15434288978577,90.15643763542175,90.168705701828,90.31889462471008,90.31889462471008,90.31889462471008,90.31889462471008,90.31889462471008,90.31889462471008,90.31889462471008,91.0698070526123,1,0.8839013576507568,None,,,,,,,,,,,,,,,,,,174,3,2025-03-03_12h54.29.313,comp,2024.2.4,60.03148776843323,2025-03-03 12h54.37.567115 -0500,
22,22,0,critical,dhw,35.0,4.0,upper,127.0,127.0,200.0,125.0,125.0,200.0,3,1.2539453506469727,None,,,,,0,0,0,0,0,22,22,53,91.08508825302124,,,,,,,,,,,,,,,,,,,,,,,,,,,,,,,,,,,,,,,,,,,,,,,,,,,,,,,,,,,,,,,,,,,,,,,,,,,,,,,,,127.0,127.0,200.0,125.0,125.0,200.0,4.0,4.1,-222,-269,0,11,258,-255,91.07059669494629,91.07063841819763,91.07310318946838,91.08508825302124,91.2355010509491,91.2355010509491,91.2355010509491,91.2355010509491,91.2355010509491,91.2355010509491,91.2355010509491,92.35348010063171,3,1.2539453506469727,None,,,,,,,,,,,,,,,,,,174,3,2025-03-03_12h54.29.313,comp,2024.2.4,60.03148776843323,2025-03-03 12h54.37.567115 -0500,
23,23,0,critical,whd,20.0,1.0,upper,125.0,200.0,200.0,125.0,141.0,141.0,1,3.267253875732422,None,,,,,0,0,0,0,0,23,23,91,92.36858892440796,,,,,,,,,,,,,,,,,,,,,,,,,,,,,,,,,,,,,,,,,,,,,,,,,,,,,,,,,,,,,,,,,,,,,,,,,,,,,,,,,125.0,200.0,200.0,125.0,141.0,141.0,1.0,1.1,-738,256,-480,274,-251,272,92.354248046875,92.35429048538208,92.35636353492737,92.36858892440796,92.5189049243927,92.5189049243927,92.5189049243927,92.5189049243927,92.5189049243927,92.5189049243927,92.5189049243927,95.65336108207703,1,3.267253875732422,None,,,,,,,,,,,,,,,,,,174,3,2025-03-03_12h54.29.313,comp,2024.2.4,60.03148776843323,2025-03-03 12h54.37.567115 -0500,
24,24,0,filler_square,None,None,None,None,None,None,None,None,None,None,3,0.7021102905273438,None,,,,,0,0,0,0,0,24,24,176,95.66867303848267,,,,,,,,,,,,,,,,,,,,,,,,,,,,,,,,,,,,,,,,,,,,,,,,,,,,,,,,,,,,,,,,,,,,,,,,,,,,,,,,,74.40047558569198,163.7230226370851,100.39084015438817,77.33342128826409,186.1824005472812,186.1824005472812,1.0,1.1,-697,266,-480,266,-252,289,95.65434789657593,95.65438985824585,95.6564793586731,95.66867303848267,95.81878328323364,95.81878328323364,95.81878328323364,95.81878328323364,95.81878328323364,95.81878328323364,95.81878328323364,96.3865475654602,3,0.7021102905273438,None,,,,,,,,,,,,,,,,,,174,3,2025-03-03_12h54.29.313,comp,2024.2.4,60.03148776843323,2025-03-03 12h54.37.567115 -0500,
25,25,0,critical,whd,35.0,1.0,upper,125.0,200.0,200.0,125.0,127.0,127.0,2,2.7301573753356934,None,,,,,0,0,0,0,0,25,25,85,96.40188026428223,,,,,,,,,,,,,,,,,,,,,,,,,,,,,,,,,,,,,,,,,,,,,,,,,,,,,,,,,,,,,,,,,,,,,,,,,,,,,,,,,125.0,200.0,200.0,125.0,127.0,127.0,1.0,1.2,-258,-4,0,-4,222,-17,96.38735961914062,96.38740181922913,96.3898549079895,96.40188026428223,96.55224633216858,96.55224633216858,96.55224633216858,96.55224633216858,96.55224633216858,96.55224633216858,96.55224633216858,99.13671231269836,2,2.7301573753356934,None,,,,,,,,,,,,,,,,,,174,3,2025-03-03_12h54.29.313,comp,2024.2.4,60.03148776843323,2025-03-03 12h54.37.567115 -0500,
26,26,0,filler_square,None,None,None,None,None,None,None,None,None,None,1,7.780505657196045,None,,,,,0,0,0,0,0,26,26,178,99.15216016769409,,,,,,,,,,,,,,,,,,,,,,,,,,,,,,,,,,,,,,,,,,,,,,,,,,,,,,,,,,,,,,,,,,,,,,,,,,,,,,,,,62.88190037073346,62.88190037073346,61.67441555242069,59.529126054827366,62.40551997501416,59.271691337404945,2.1,2.11,-157,262,0,265,155,-253,99.13771629333496,99.13775897026062,99.13986253738403,99.15216016769409,99.30183792114258,99.30183792114258,99.30183792114258,99.30183792114258,99.30183792114258,99.30183792114258,99.30183792114258,106.93658971786499,1,7.780505657196045,None,,,,,,,,,,,,,,,,,,174,3,2025-03-03_12h54.29.313,comp,2024.2.4,60.03148776843323,2025-03-03 12h54.37.567115 -0500,
27,27,0,filler_random,None,None,None,None,None,None,None,None,None,None,2,0.9078733921051025,None,,,,,0,0,0,0,0,27,27,159,106.95248293876648,,,,,,,,,,,,,,,,,,,,,,,,,,,,,,,,,,,,,,,,,,,,,,,,,,,,,,,,,,,,,,,,,,,,,,,,,,,,,,,,,144.05717076213836,97.98986764182524,150.40376943036475,187.8220954343371,109.31625042966385,116.22304613712606,2.2,2.21,-239,-270,0,266,248,256,106.93750643730164,106.93754959106445,106.93967938423157,106.95248293876648,107.10212182998657,107.10212182998657,107.10212182998657,107.10212182998657,107.10212182998657,107.10212182998657,107.10212182998657,107.8698160648346,2,0.9078733921051025,None,,,,,,,,,,,,,,,,,,174,3,2025-03-03_12h54.29.313,comp,2024.2.4,60.03148776843323,2025-03-03 12h54.37.567115 -0500,
28,28,0,critical,hdw,35.0,3.0,lower,133.0,57.0,70.0,70.0,57.0,133.0,3,2.1833317279815674,None,,,,,0,0,0,0,0,28,28,110,107.88543224334717,,,,,,,,,,,,,,,,,,,,,,,,,,,,,,,,,,,,,,,,,,,,,,,,,,,,,,,,,,,,,,,,,,,,,,,,,,,,,,,,,133.0,57.0,70.0,70.0,57.0,133.0,3.0,3.2,-160,-268,0,4,198,282,107.87061524391174,107.87065768241882,107.8730354309082,107.88543224334717,108.03523206710815,108.03523206710815,108.03523206710815,108.03523206710815,108.03523206710815,108.03523206710815,108.03523206710815,110.08632946014404,3,2.1833317279815674,None,,,,,,,,,,,,,,,,,,174,3,2025-03-03_12h54.29.313,comp,2024.2.4,60.03148776843323,2025-03-03 12h54.37.567115 -0500,
29,29,0,critical,whd,35.0,2.1,upper,125.0,200.0,200.0,125.0,127.0,127.0,2,1.8621160984039307,None,,,,,0,0,0,0,0,29,29,13,110.10179877281189,,,,,,,,,,,,,,,,,,,,,,,,,,,,,,,,,,,,,,,,,,,,,,,,,,,,,,,,,,,,,,,,,,,,,,,,,,,,,,,,,125.0,200.0,200.0,125.0,127.0,127.0,2.1,2.11,-258,285,0,255,222,-254,110.0871205329895,110.08716297149658,110.089519739151,110.10179877281189,110.25216293334961,110.25216293334961,110.25216293334961,110.25216293334961,110.25216293334961,110.25216293334961,110.25216293334961,111.9699981212616,2,1.8621160984039307,None,,,,,,,,,,,,,,,,,,174,3,2025-03-03_12h54.29.313,comp,2024.2.4,60.03148776843323,2025-03-03 12h54.37.567115 -0500,
30,30,0,filler_square,None,None,None,None,None,None,None,None,None,None,2,4.089284658432007,None,,,,,0,0,0,0,0,30,30,200,111.98532629013062,,,,,,,,,,,,,,,,,,,,,,,,,,,,,,,,,,,,,,,,,,,,,,,,,,,,,,,,,,,,,,,,,,,,,,,,,,,,,,,,,57.165070592627664,57.130408208685,57.73363775844252,57.73363775844252,57.673515193793314,57.46726436031591,3.0,3.1,-153,263,0,12,154,-279,111.97094511985779,111.97098708152771,111.97353839874268,111.98532629013062,112.13525223731995,112.13525223731995,112.13525223731995,112.13525223731995,112.13525223731995,112.13525223731995,112.13525223731995,116.08616161346436,2,4.089284658432007,None,,,,,,,,,,,,,,,,,,174,3,2025-03-03_12h54.29.313,comp,2024.2.4,60.03148776843323,2025-03-03 12h54.37.567115 -0500,
31,31,0,critical,whd,20.0,2.1,upper,125.0,200.0,200.0,125.0,141.0,141.0,1,4.399722576141357,None,,,,,0,0,0,0,0,31,31,39,116.1019332408905,,,,,,,,,,,,,,,,,,,,,,,,,,,,,,,,,,,,,,,,,,,,,,,,,,,,,,,,,,,,,,,,,,,,,,,,,,,,,,,,,125.0,200.0,200.0,125.0,141.0,141.0,2.1,2.12,-258,-286,0,-285,229,273,116.08697128295898,116.08701419830322,116.08902025222778,116.1019332408905,116.25207352638245,116.25207352638245,116.25207352638245,116.25207352638245,116.25207352638245,116.25207352638245,116.25207352638245,120.5034761428833,1,4.399722576141357,None,,,,,,,,,,,,,,,,,,174,3,2025-03-03_12h54.29.313,comp,2024.2.4,60.03148776843323,2025-03-03 12h54.37.567115 -0500,
32,32,0,filler_square,None,None,None,None,None,None,None,None,None,None,3,0.9879357814788818,None,,,,,0,0,0,0,0,32,32,207,120.51871538162231,,,,,,,,,,,,,,,,,,,,,,,,,,,,,,,,,,,,,,,,,,,,,,,,,,,,,,,,,,,,,,,,,,,,,,,,,,,,,,,,,144.65833067612846,158.7801251874318,138.16746318042232,127.15112417983902,169.6416925446484,169.6416925446484,1.0,1.2,-239,-11,0,-9,244,11,120.50460433959961,120.5046489238739,120.50694727897644,120.51871538162231,120.66867017745972,120.66867017745972,120.66867017745972,120.66867017745972,120.66867017745972,120.66867017745972,120.66867017745972,121.51987409591675,3,0.9879357814788818,None,,,,,,,,,,,,,,,,,,174,3,2025-03-03_12h54.29.313,comp,2024.2.4,60.03148776843323,2025-03-03 12h54.37.567115 -0500,
33,33,0,critical,dwh,35.0,3.0,lower,70.0,70.0,57.0,133.0,133.0,57.0,2,1.4918146133422852,None,,,,,0,0,0,0,0,33,33,62,121.53569293022156,,,,,,,,,,,,,,,,,,,,,,,,,,,,,,,,,,,,,,,,,,,,,,,,,,,,,,,,,,,,,,,,,,,,,,,,,,,,,,,,,70.0,70.0,57.0,133.0,133.0,57.0,3.0,3.1,-198,258,0,4,191,-262,121.52069020271301,121.52073216438293,121.52325248718262,121.53569293022156,121.68513894081116,121.68513894081116,121.68513894081116,121.68513894081116,121.68513894081116,121.68513894081116,121.68513894081116,123.03628420829773,2,1.4918146133422852,None,,,,,,,,,,,,,,,,,,174,3,2025-03-03_12h54.29.313,comp,2024.2.4,60.03148776843323,2025-03-03 12h54.37.567115 -0500,
34,34,0,catch,None,None,None,None,None,None,None,None,None,None,3,0.865332841873169,None,,,,,0,0,0,0,0,34,34,127,123.0520589351654,,,,,,,,,,,,,,,,,,,,,,,,,,,,,,,,,,,,,,,,,,,,,,,,,,,,,,,,,,,,,,,,,,,,,,,,,,,,,,,,,124,66,93,97,166,159,2.1,2.11,-178,260,0,269,224,-281,123.03733968734741,123.03738307952881,123.0395495891571,123.0520589351654,123.20197010040283,123.20197010040283,123.20197010040283,123.20197010040283,123.20197010040283,123.20197010040283,123.20197010040283,123.91992378234863,3,0.865332841873169,None,,,,,,,,,,,,,,,,,,174,3,2025-03-03_12h54.29.313,comp,2024.2.4,60.03148776843323,2025-03-03 12h54.37.567115 -0500,
35,35,0,critical,hwd,35.0,2.1,upper,200.0,125.0,125.0,200.0,127.0,127.0,1,1.4676618576049805,None,,,,,0,0,0,0,0,35,35,17,123.93531513214111,,,,,,,,,,,,,,,,,,,,,,,,,,,,,,,,,,,,,,,,,,,,,,,,,,,,,,,,,,,,,,,,,,,,,,,,,,,,,,,,,200.0,125.0,125.0,200.0,127.0,127.0,2.1,2.11,-258,287,0,265,260,-275,123.92074537277222,123.92078685760498,123.9229850769043,123.93531513214111,124.08533358573914,124.08533358573914,124.08533358573914,124.08533358573914,124.08533358573914,124.08533358573914,124.08533358573914,125.41979813575745,1,1.4676618576049805,None,,,,,,,,,,,,,,,,,,174,3,2025-03-03_12h54.29.313,comp,2024.2.4,60.03148776843323,2025-03-03 12h54.37.567115 -0500,
36,36,0,critical,wdh,35.0,2.1,upper,125.0,200.0,127.0,127.0,200.0,125.0,1,2.2818150520324707,None,,,,,0,0,0,0,0,36,36,9,125.43514013290405,,,,,,,,,,,,,,,,,,,,,,,,,,,,,,,,,,,,,,,,,,,,,,,,,,,,,,,,,,,,,,,,,,,,,,,,,,,,,,,,,125.0,200.0,127.0,127.0,200.0,125.0,2.1,2.12,-260,-254,0,-286,222,259,125.4206166267395,125.42065858840942,125.42307567596436,125.43514013290405,125.58530378341675,125.58530378341675,125.58530378341675,125.58530378341675,125.58530378341675,125.58530378341675,125.58530378341675,127.72010254859924,1,2.2818150520324707,None,,,,,,,,,,,,,,,,,,174,3,2025-03-03_12h54.29.313,comp,2024.2.4,60.03148776843323,2025-03-03 12h54.37.567115 -0500,
37,37,0,filler_square,None,None,None,None,None,None,None,None,None,None,2,1.7659077644348145,None,,,,,0,0,0,0,0,37,37,172,127.73543047904968,,,,,,,,,,,,,,,,,,,,,,,,,,,,,,,,,,,,,,,,,,,,,,,,,,,,,,,,,,,,,,,,,,,,,,,,,,,,,,,,,59.29915148294715,57.20822566315626,60.040012195295645,63.10934198052166,65.59747934116992,65.59747934116992,2.1,2.11,-156,290,0,271,160,-288,127.72107481956482,127.7211172580719,127.723637342453,127.73543047904968,127.88509035110474,127.88509035110474,127.88509035110474,127.88509035110474,127.88509035110474,127.88509035110474,127.88509035110474,129.5029776096344,2,1.7659077644348145,None,,,,,,,,,,,,,,,,,,174,3,2025-03-03_12h54.29.313,comp,2024.2.4,60.03148776843323,2025-03-03 12h54.37.567115 -0500,
38,38,0,filler_square,None,None,None,None,None,None,None,None,None,None,2,1.4362194538116455,None,,,,,0,0,0,0,0,38,38,191,129.518723487854,,,,,,,,,,,,,,,,,,,,,,,,,,,,,,,,,,,,,,,,,,,,,,,,,,,,,,,,,,,,,,,,,,,,,,,,,,,,,,,,,99.37278248685068,88.58128208984203,100.00730379260386,100.00730379260386,76.13390502434518,98.63648948180857,3.0,3.1,-190,286,0,-4,195,-280,129.5039622783661,129.50400495529175,129.50670194625854,129.518723487854,129.66842675209045,129.66842675209045,129.66842675209045,129.66842675209045,129.66842675209045,129.66842675209045,129.66842675209045,130.96974968910217,2,1.4362194538116455,None,,,,,,,,,,,,,,,,,,174,3,2025-03-03_12h54.29.313,comp,2024.2.4,60.03148776843323,2025-03-03 12h54.37.567115 -0500,
39,39,0,critical,wdh,20.0,2.1,upper,125.0,200.0,141.0,141.0,200.0,125.0,3,1.467560052871704,None,,,,,0,0,0,0,0,39,39,11,130.98495817184448,,,,,,,,,,,,,,,,,,,,,,,,,,,,,,,,,,,,,,,,,,,,,,,,,,,,,,,,,,,,,,,,,,,,,,,,,,,,,,,,,125.0,200.0,141.0,141.0,200.0,125.0,2.1,2.12,-266,-254,0,-263,229,276,130.97053480148315,130.97057509422302,130.97294998168945,130.98495817184448,131.13525533676147,131.13525533676147,131.13525533676147,131.13525533676147,131.13525533676147,131.13525533676147,131.13525533676147,132.47001361846924,3,1.467560052871704,None,,,,,,,,,,,,,,,,,,174,3,2025-03-03_12h54.29.313,comp,2024.2.4,60.03148776843323,2025-03-03 12h54.37.567115 -0500,
40,40,0,critical,dhw,20.0,1.0,upper,141.0,141.0,200.0,125.0,125.0,200.0,3,8.094287872314453,None,,,,,0,0,0,0,0,40,40,55,132.48510360717773,,,,,,,,,,,,,,,,,,,,,,,,,,,,,,,,,,,,,,,,,,,,,,,,,,,,,,,,,,,,,,,,,,,,,,,,,,,,,,,,,141.0,141.0,200.0,125.0,125.0,200.0,1.0,1.3,251,-284,480,-277,738,-286,132.47085881233215,132.47089982032776,132.473397731781,132.48510360717773,132.63528418540955,132.63528418540955,132.63528418540955,132.63528418540955,132.63528418540955,132.63528418540955,132.63528418540955,140.58637952804565,3,8.094287872314453,None,,,,,,,,,,,,,,,,,,174,3,2025-03-03_12h54.29.313,comp,2024.2.4,60.03148776843323,2025-03-03 12h54.37.567115 -0500,
41,41,0,filler_square,None,None,None,None,None,None,None,None,None,None,2,0.841500997543335,None,,,,,0,0,0,0,0,41,41,185,140.60201168060303,,,,,,,,,,,,,,,,,,,,,,,,,,,,,,,,,,,,,,,,,,,,,,,,,,,,,,,,,,,,,,,,,,,,,,,,,,,,,,,,,108.50829023011164,111.43226389788458,157.434701808416,157.434701808416,139.26390870121233,60.611126671001315,2.1,2.12,-230,-278,0,-254,205,281,140.58734607696533,140.58739042282104,140.5895094871521,140.60201168060303,140.75188541412354,140.75188541412354,140.75188541412354,140.75188541412354,140.75188541412354,140.75188541412354,140.75188541412354,141.4528796672821,2,0.841500997543335,None,,,,,,,,,,,,,,,,,,174,3,2025-03-03_12h54.29.313,comp,2024.2.4,60.03148776843323,2025-03-03 12h54.37.567115 -0500,
42,42,0,critical,whd,35.0,4.0,lower,57.0,133.0,133.0,57.0,70.0,70.0,1,3.422508478164673,None,,,,,0,0,0,0,0,42,42,88,141.46838521957397,,,,,,,,,,,,,,,,,,,,,,,,,,,,,,,,,,,,,,,,,,,,,,,,,,,,,,,,,,,,,,,,,,,,,,,,,,,,,,,,,57.0,133.0,133.0,57.0,70.0,70.0,4.0,4.2,-191,10,0,-255,160,17,141.45364809036255,141.45369052886963,141.45619082450867,141.46838521957397,141.61822986602783,141.61822986602783,141.61822986602783,141.61822986602783,141.61822986602783,141.61822986602783,141.61822986602783,144.90386271476746,1,3.422508478164673,None,,,,,,,,,,,,,,,,,,174,3,2025-03-03_12h54.29.313,comp,2024.2.4,60.03148776843323,2025-03-03 12h54.37.567115 -0500,
43,43,0,critical,dwh,20.0,3.0,lower,78.0,78.0,57.0,133.0,133.0,57.0,2,3.3720109462738037,None,,,,,0,0,0,0,0,43,43,68,144.91845798492432,,,,,,,,,,,,,,,,,,,,,,,,,,,,,,,,,,,,,,,,,,,,,,,,,,,,,,,,,,,,,,,,,,,,,,,,,,,,,,,,,78.0,78.0,57.0,133.0,133.0,57.0,3.0,3.2,-202,-288,0,14,191,266,144.90469408035278,144.90473580360413,144.9066822528839,144.91845798492432,145.06835460662842,145.06835460662842,145.06835460662842,145.06835460662842,145.06835460662842,145.06835460662842,145.06835460662842,148.30289316177368,2,3.3720109462738037,None,,,,,,,,,,,,,,,,,,174,3,2025-03-03_12h54.29.313,comp,2024.2.4,60.03148776843323,2025-03-03 12h54.37.567115 -0500,
44,44,0,critical,hwd,35.0,2.1,upper,200.0,125.0,125.0,200.0,127.0,127.0,1,1.461026906967163,None,,,,,0,0,0,0,0,44,44,41,148.31827759742737,,,,,,,,,,,,,,,,,,,,,,,,,,,,,,,,,,,,,,,,,,,,,,,,,,,,,,,,,,,,,,,,,,,,,,,,,,,,,,,,,200.0,125.0,125.0,200.0,127.0,127.0,2.1,2.12,-258,-289,0,-262,260,284,148.3037030696869,148.30374383926392,148.30571484565735,148.31827759742737,148.46870374679565,148.46870374679565,148.46870374679565,148.46870374679565,148.46870374679565,148.46870374679565,148.46870374679565,149.7862024307251,1,1.461026906967163,None,,,,,,,,,,,,,,,,,,174,3,2025-03-03_12h54.29.313,comp,2024.2.4,60.03148776843323,2025-03-03 12h54.37.567115 -0500,
45,45,0,critical,hwd,35.0,2.1,lower,133.0,57.0,57.0,133.0,70.0,70.0,2,4.672558069229126,None,,,,,0,0,0,0,0,45,45,40,149.80178904533386,,,,,,,,,,,,,,,,,,,,,,,,,,,,,,,,,,,,,,,,,,,,,,,,,,,,,,,,,,,,,,,,,,,,,,,,,,,,,,,,,133.0,57.0,57.0,133.0,70.0,70.0,2.1,2.12,-191,-263,0,-274,198,282,149.78699684143066,149.78703951835632,149.78925848007202,149.80178904533386,149.95174026489258,149.95174026489258,149.95174026489258,149.95174026489258,149.95174026489258,149.95174026489258,149.95174026489258,154.4858763217926,2,4.672558069229126,None,,,,,,,,,,,,,,,,,,174,3,2025-03-03_12h54.29.313,comp,2024.2.4,60.03148776843323,2025-03-03 12h54.37.567115 -0500,
46,46,0,filler_random,None,None,None,None,None,None,None,None,None,None,1,1.021226406097412,None,,,,,0,0,0,0,0,46,46,138,154.5016644001007,,,,,,,,,,,,,,,,,,,,,,,,,,,,,,,,,,,,,,,,,,,,,,,,,,,,,,,,,,,,,,,,,,,,,,,,,,,,,,,,,170.62895575726978,198.37720339999652,93.9401134872436,155.4035313289423,156.4673426125958,70.3196672717754,4.0,4.2,-273,14,0,-252,209,17,154.48676252365112,154.48680472373962,154.4893777370453,154.5016644001007,154.65176391601562,154.65176391601562,154.65176391601562,154.65176391601562,154.65176391601562,154.65176391601562,154.65176391601562,155.5362033843994,1,1.021226406097412,None,,,,,,,,,,,,,,,,,,174,3,2025-03-03_12h54.29.313,comp,2024.2.4,60.03148776843323,2025-03-03 12h54.37.567115 -0500,
47,47,0,filler_random,None,None,None,None,None,None,None,None,None,None,2,0.8438434600830078,None,,,,,0,0,0,0,0,47,47,134,155.55147528648376,,,,,,,,,,,,,,,,,,,,,,,,,,,,,,,,,,,,,,,,,,,,,,,,,,,,,,,,,,,,,,,,,,,,,,,,,,,,,,,,,92.44313321480448,98.11555830578413,167.35415527389037,136.99630301964856,99.13888684719461,142.00520364406032,4.0,4.1,-214,-272,0,-10,236,-289,155.53707885742188,155.53712010383606,155.5391263961792,155.55147528648376,155.70176696777344,155.70176696777344,155.70176696777344,155.70176696777344,155.70176696777344,155.70176696777344,155.70176696777344,156.40276622772217,2,0.8438434600830078,None,,,,,,,,,,,,,,,,,,174,3,2025-03-03_12h54.29.313,comp,2024.2.4,60.03148776843323,2025-03-03 12h54.37.567115 -0500,
48,48,0,critical,dwh,35.0,4.0,lower,70.0,70.0,57.0,133.0,133.0,57.0,3,1.0719127655029297,None,,,,,0,0,0,0,0,48,48,64,156.41835236549377,,,,,,,,,,,,,,,,,,,,,,,,,,,,,,,,,,,,,,,,,,,,,,,,,,,,,,,,,,,,,,,,,,,,,,,,,,,,,,,,,70.0,70.0,57.0,133.0,133.0,57.0,4.0,4.1,-198,-257,0,-9,191,-278,156.4035758972168,156.40361857414246,156.40605545043945,156.41835236549377,156.56831812858582,156.56831812858582,156.56831812858582,156.56831812858582,156.56831812858582,156.56831812858582,156.56831812858582,157.50281381607056,3,1.0719127655029297,None,,,,,,,,,,,,,,,,,,174,3,2025-03-03_12h54.29.313,comp,2024.2.4,60.03148776843323,2025-03-03 12h54.37.567115 -0500,
49,49,0,filler_random,None,None,None,None,None,None,None,None,None,None,2,1.534010887145996,None,,,,,0,0,0,0,0,49,49,161,157.5182511806488,,,,,,,,,,,,,,,,,,,,,,,,,,,,,,,,,,,,,,,,,,,,,,,,,,,,,,,,,,,,,,,,,,,,,,,,,,,,,,,,,97.48360756740999,194.42822821637665,181.23650659986947,193.02523176321947,168.64841037230923,135.27101267158966,3.0,3.1,-290,289,0,8,260,-289,157.50373005867004,157.50377225875854,157.50649571418762,157.5182511806488,157.6852822303772,157.6852822303772,157.6852822303772,157.6852822303772,157.6852822303772,157.6852822303772,157.6852822303772,159.06970477104187,2,1.534010887145996,None,,,,,,,,,,,,,,,,,,174,3,2025-03-03_12h54.29.313,comp,2024.2.4,60.03148776843323,2025-03-03 12h54.37.567115 -0500,
50,50,0,filler_square,None,None,None,None,None,None,None,None,None,None,3,1.2943246364593506,None,,,,,0,0,0,0,0,50,50,197,159.08491015434265,,,,,,,,,,,,,,,,,,,,,,,,,,,,,,,,,,,,,,,,,,,,,,,,,,,,,,,,,,,,,,,,,,,,,,,,,,,,,,,,,58.16867062533278,59.39590144954701,65.86431097883538,65.86431097883538,64.26573485333226,57.97880960678103,4.0,4.2,-159,6,0,-266,158,15,159.07071042060852,159.07075214385986,159.07317733764648,159.08491015434265,159.2348654270172,159.2348654270172,159.2348654270172,159.2348654270172,159.2348654270172,159.2348654270172,159.2348654270172,160.38616466522217,3,1.2943246364593506,None,,,,,,,,,,,,,,,,,,174,3,2025-03-03_12h54.29.313,comp,2024.2.4,60.03148776843323,2025-03-03 12h54.37.567115 -0500,
51,51,0,critical,hdw,35.0,1.0,upper,200.0,125.0,127.0,127.0,125.0,200.0,3,1.8015809059143066,None,,,,,0,0,0,0,0,51,51,109,160.40179347991943,,,,,,,,,,,,,,,,,,,,,,,,,,,,,,,,,,,,,,,,,,,,,,,,,,,,,,,,,,,,,,,,,,,,,,,,,,,,,,,,,200.0,125.0,127.0,127.0,125.0,200.0,1.0,1.2,-222,17,0,5,260,17,160.38694739341736,160.38698983192444,160.38925337791443,160.40179347991943,160.551922082901,160.551922082901,160.551922082901,160.551922082901,160.551922082901,160.551922082901,160.551922082901,162.22013807296753,3,1.8015809059143066,None,,,,,,,,,,,,,,,,,,174,3,2025-03-03_12h54.29.313,comp,2024.2.4,60.03148776843323,2025-03-03 12h54.37.567115 -0500,
52,52,0,filler_random,None,None,None,None,None,None,None,None,None,None,2,1.6247828006744385,None,,,,,0,0,0,0,0,52,52,136,162.23494863510132,,,,,,,,,,,,,,,,,,,,,,,,,,,,,,,,,,,,,,,,,,,,,,,,,,,,,,,,,,,,,,,,,,,,,,,,,,,,,,,,,85.613211988481,196.48819064931752,132.4659078321642,130.78823645556787,105.53214315644145,83.27145918196224,4.0,4.1,-260,-251,0,3,203,-286,162.22107863426208,162.221120595932,162.22360491752625,162.23494863510132,162.38503336906433,162.38503336906433,162.38503336906433,162.38503336906433,162.38503336906433,162.38503336906433,162.38503336906433,163.86955881118774,2,1.6247828006744385,None,,,,,,,,,,,,,,,,,,174,3,2025-03-03_12h54.29.313,comp,2024.2.4,60.03148776843323,2025-03-03 12h54.37.567115 -0500,
53,53,0,critical,wdh,20.0,4.0,lower,57.0,133.0,78.0,78.0,133.0,57.0,1,2.7740695476531982,None,,,,,0,0,0,0,0,53,53,82,163.8854374885559,,,,,,,,,,,,,,,,,,,,,,,,,,,,,,,,,,,,,,,,,,,,,,,,,,,,,,,,,,,,,,,,,,,,,,,,,,,,,,,,,57.0,133.0,78.0,78.0,133.0,57.0,4.0,4.2,-202,-2,0,-271,164,-10,163.87036275863647,163.87040519714355,163.87254428863525,163.8854374885559,164.03487181663513,164.03487181663513,164.03487181663513,164.03487181663513,164.03487181663513,164.03487181663513,164.03487181663513,166.66940474510193,1,2.7740695476531982,None,,,,,,,,,,,,,,,,,,174,3,2025-03-03_12h54.29.313,comp,2024.2.4,60.03148776843323,2025-03-03 12h54.37.567115 -0500,
54,54,0,filler_square,None,None,None,None,None,None,None,None,None,None,3,1.3891141414642334,None,,,,,0,0,0,0,0,54,54,193,166.6850986480713,,,,,,,,,,,,,,,,,,,,,,,,,,,,,,,,,,,,,,,,,,,,,,,,,,,,,,,,,,,,,,,,,,,,,,,,,,,,,,,,,67.73961958049573,73.94918125653257,62.40335796699169,60.21221403104175,81.43575034445654,81.43575034445654,3.0,3.2,-163,-289,0,13,167,258,166.6703634262085,166.67040419578552,166.6725902557373,166.6850986480713,166.83480668067932,166.83480668067932,166.83480668067932,166.83480668067932,166.83480668067932,166.83480668067932,166.83480668067932,168.08607459068298,3,1.3891141414642334,None,,,,,,,,,,,,,,,,,,174,3,2025-03-03_12h54.29.313,comp,2024.2.4,60.03148776843323,2025-03-03 12h54.37.567115 -0500,
55,55,0,critical,dhw,20.0,2.1,upper,141.0,141.0,200.0,125.0,125.0,200.0,2,2.1887593269348145,None,,,,,0,0,0,0,0,55,55,3,168.10139679908752,,,,,,,,,,,,,,,,,,,,,,,,,,,,,,,,,,,,,,,,,,,,,,,,,,,,,,,,,,,,,,,,,,,,,,,,,,,,,,,,,141.0,141.0,200.0,125.0,125.0,200.0,2.1,2.12,-229,-276,0,-258,258,274,168.08688688278198,168.086927652359,168.08946871757507,168.10139679908752,168.25168800354004,168.25168800354004,168.25168800354004,168.25168800354004,168.25168800354004,168.25168800354004,168.25168800354004,170.30286073684692,2,2.1887593269348145,None,,,,,,,,,,,,,,,,,,174,3,2025-03-03_12h54.29.313,comp,2024.2.4,60.03148776843323,2025-03-03 12h54.37.567115 -0500,
56,56,0,critical,hwd,20.0,2.1,lower,133.0,57.0,57.0,133.0,78.0,78.0,1,2.188117504119873,None,,,,,0,0,0,0,0,56,56,42,170.31807136535645,,,,,,,,,,,,,,,,,,,,,,,,,,,,,,,,,,,,,,,,,,,,,,,,,,,,,,,,,,,,,,,,,,,,,,,,,,,,,,,,,133.0,57.0,57.0,133.0,78.0,78.0,2.1,2.12,-191,-280,0,-251,202,261,170.30366492271423,170.30370688438416,170.30616164207458,170.31807136535645,170.46819233894348,170.46819233894348,170.46819233894348,170.46819233894348,170.46819233894348,170.46819233894348,170.46819233894348,172.51942992210388,1,2.188117504119873,None,,,,,,,,,,,,,,,,,,174,3,2025-03-03_12h54.29.313,comp,2024.2.4,60.03148776843323,2025-03-03 12h54.37.567115 -0500,
57,57,0,critical,dhw,20.0,3.0,lower,78.0,78.0,133.0,57.0,57.0,133.0,3,2.9879729747772217,None,,,,,0,0,0,0,0,57,57,56,172.53482270240784,,,,,,,,,,,,,,,,,,,,,,,,,,,,,,,,,,,,,,,,,,,,,,,,,,,,,,,,,,,,,,,,,,,,,,,,,,,,,,,,,78.0,78.0,133.0,57.0,57.0,133.0,3.0,3.2,-164,-289,0,-5,191,269,172.52021026611328,172.52026844024658,172.52261662483215,172.53482270240784,172.6848394870758,172.6848394870758,172.6848394870758,172.6848394870758,172.6848394870758,172.6848394870758,172.6848394870758,175.53613090515137,3,2.9879729747772217,None,,,,,,,,,,,,,,,,,,174,3,2025-03-03_12h54.29.313,comp,2024.2.4,60.03148776843323,2025-03-03 12h54.37.567115 -0500,
58,58,0,filler_square,None,None,None,None,None,None,None,None,None,None,1,1.250896692276001,None,,,,,0,0,0,0,0,58,58,192,175.5513880252838,,,,,,,,,,,,,,,,,,,,,,,,,,,,,,,,,,,,,,,,,,,,,,,,,,,,,,,,,,,,,,,,,,,,,,,,,,,,,,,,,190.69846457148034,190.69846457148034,135.7301163112191,109.39229076385979,90.11522749569406,95.93005174634573,3.0,3.1,-246,277,0,-1,199,-259,175.53708624839783,175.53712797164917,175.53971338272095,175.5513880252838,175.70161962509155,175.70161962509155,175.70161962509155,175.70161962509155,175.70161962509155,175.70161962509155,175.70161962509155,176.8194625377655,1,1.250896692276001,None,,,,,,,,,,,,,,,,,,174,3,2025-03-03_12h54.29.313,comp,2024.2.4,60.03148776843323,2025-03-03 12h54.37.567115 -0500,
59,59,0,critical,dwh,35.0,2.1,upper,127.0,127.0,125.0,200.0,200.0,125.0,2,3.6822433471679688,None,,,,,0,0,0,0,0,59,59,29,176.83479189872742,,,,,,,,,,,,,,,,,,,,,,,,,,,,,,,,,,,,,,,,,,,,,,,,,,,,,,,,,,,,,,,,,,,,,,,,,,,,,,,,,127.0,127.0,125.0,200.0,200.0,125.0,2.1,2.12,-260,-268,0,-270,258,253,176.82028532028198,176.8203263282776,176.8236048221588,176.83479189872742,176.985107421875,176.985107421875,176.985107421875,176.985107421875,176.985107421875,176.985107421875,176.985107421875,180.51960277557373,2,3.6822433471679688,None,,,,,,,,,,,,,,,,,,174,3,2025-03-03_12h54.29.313,comp,2024.2.4,60.03148776843323,2025-03-03 12h54.37.567115 -0500,
60,60,0,critical,dhw,35.0,3.0,lower,70.0,70.0,133.0,57.0,57.0,133.0,2,3.933185338973999,None,,,,,0,0,0,0,0,60,60,50,180.535094499588,,,,,,,,,,,,,,,,,,,,,,,,,,,,,,,,,,,,,,,,,,,,,,,,,,,,,,,,,,,,,,,,,,,,,,,,,,,,,,,,,70.0,70.0,133.0,57.0,57.0,133.0,3.0,3.2,-160,-269,0,9,191,255,180.52071928977966,180.52076053619385,180.52289843559265,180.535094499588,180.68483304977417,180.68483304977417,180.68483304977417,180.68483304977417,180.68483304977417,180.68483304977417,180.68483304977417,184.48591113090515,2,3.933185338973999,None,,,,,,,,,,,,,,,,,,174,3,2025-03-03_12h54.29.313,comp,2024.2.4,60.03148776843323,2025-03-03 12h54.37.567115 -0500,
61,61,0,critical,dwh,20.0,3.0,upper,141.0,141.0,125.0,200.0,200.0,125.0,2,2.7008814811706543,None,,,,,0,0,0,0,0,61,61,69,184.50135898590088,,,,,,,,,,,,,,,,,,,,,,,,,,,,,,,,,,,,,,,,,,,,,,,,,,,,,,,,,,,,,,,,,,,,,,,,,,,,,,,,,141.0,141.0,125.0,200.0,200.0,125.0,3.0,3.1,-266,261,0,-7,258,-280,184.48671770095825,184.48675751686096,184.48887085914612,184.50135898590088,184.65162634849548,184.65162634849548,184.65162634849548,184.65162634849548,184.65162634849548,184.65162634849548,184.65162634849548,187.21958661079407,2,2.7008814811706543,None,,,,,,,,,,,,,,,,,,174,3,2025-03-03_12h54.29.313,comp,2024.2.4,60.03148776843323,2025-03-03 12h54.37.567115 -0500,
62,62,0,critical,dwh,20.0,1.0,lower,78.0,78.0,57.0,133.0,133.0,57.0,2,2.919586181640625,None,,,,,0,0,0,0,0,62,62,66,187.2347366809845,,,,,,,,,,,,,,,,,,,,,,,,,,,,,,,,,,,,,,,,,,,,,,,,,,,,,,,,,,,,,,,,,,,,,,,,,,,,,,,,,78.0,78.0,57.0,133.0,133.0,57.0,1.0,1.2,-202,18,0,9,191,7,187.22036004066467,187.2204029560089,187.22250056266785,187.2347366809845,187.3846845626831,187.3846845626831,187.3846845626831,187.3846845626831,187.3846845626831,187.3846845626831,187.3846845626831,190.1698887348175,2,2.919586181640625,None,,,,,,,,,,,,,,,,,,174,3,2025-03-03_12h54.29.313,comp,2024.2.4,60.03148776843323,2025-03-03 12h54.37.567115 -0500,
63,63,0,critical,wdh,35.0,1.0,upper,125.0,200.0,127.0,127.0,200.0,125.0,1,2.385343313217163,None,,,,,0,0,0,0,0,63,63,73,190.1850781440735,,,,,,,,,,,,,,,,,,,,,,,,,,,,,,,,,,,,,,,,,,,,,,,,,,,,,,,,,,,,,,,,,,,,,,,,,,,,,,,,,125.0,200.0,127.0,127.0,200.0,125.0,1.0,1.3,220,-274,480,-255,702,-274,190.17072558403015,190.17076802253723,190.17272543907166,190.1850781440735,190.33523654937744,190.33523654937744,190.33523654937744,190.33523654937744,190.33523654937744,190.33523654937744,190.33523654937744,192.58660864830017,1,2.385343313217163,None,,,,,,,,,,,,,,,,,,174,3,2025-03-03_12h54.29.313,comp,2024.2.4,60.03148776843323,2025-03-03 12h54.37.567115 -0500,
64,64,0,filler_random,None,None,None,None,None,None,None,None,None,None,1,1.425649642944336,None,,,,,0,0,0,0,0,64,64,151,192.60135889053345,,,,,,,,,,,,,,,,,,,,,,,,,,,,,,,,,,,,,,,,,,,,,,,,,,,,,,,,,,,,,,,,,,,,,,,,,,,,,,,,,155.28942278695214,194.79607930639597,57.663556060934006,178.57876071953655,135.41045404764608,82.75525049075624,1.0,1.3,197,-250,480,-279,707,-251,192.58761167526245,192.58766770362854,192.5900378227234,192.60135889053345,192.7516052722931,192.7516052722931,192.7516052722931,192.7516052722931,192.7516052722931,192.7516052722931,192.7516052722931,194.03595399856567,1,1.425649642944336,None,,,,,,,,,,,,,,,,,,174,3,2025-03-03_12h54.29.313,comp,2024.2.4,60.03148776843323,2025-03-03 12h54.37.567115 -0500,
65,65,0,catch,None,None,None,None,None,None,None,None,None,None,2,0.8167247772216797,None,,,,,0,0,0,0,0,65,65,126,194.051509141922,,,,,,,,,,,,,,,,,,,,,,,,,,,,,,,,,,,,,,,,,,,,,,,,,,,,,,,,,,,,,,,,,,,,,,,,,,,,,,,,,59,131,147,178,123,67,2.2,2.21,-250,-280,0,288,218,271,194.0370433330536,194.03708577156067,194.03956079483032,194.051509141922,194.20149087905884,194.20149087905884,194.20149087905884,194.20149087905884,194.20149087905884,194.20149087905884,194.20149087905884,194.88585209846497,2,0.8167247772216797,None,,,,,,,,,,,,,,,,,,174,3,2025-03-03_12h54.29.313,comp,2024.2.4,60.03148776843323,2025-03-03 12h54.37.567115 -0500,
66,66,0,critical,dwh,20.0,2.1,upper,141.0,141.0,125.0,200.0,200.0,125.0,2,2.3992626667022705,None,,,,,0,0,0,0,0,66,66,31,194.90125012397766,,,,,,,,,,,,,,,,,,,,,,,,,,,,,,,,,,,,,,,,,,,,,,,,,,,,,,,,,,,,,,,,,,,,,,,,,,,,,,,,,141.0,141.0,125.0,200.0,200.0,125.0,2.1,2.12,-266,-274,0,-252,258,273,194.88664770126343,194.8866889476776,194.88915491104126,194.90125012397766,195.05152893066406,195.05152893066406,195.05152893066406,195.05152893066406,195.05152893066406,195.05152893066406,195.05152893066406,197.30277180671692,2,2.3992626667022705,None,,,,,,,,,,,,,,,,,,174,3,2025-03-03_12h54.29.313,comp,2024.2.4,60.03148776843323,2025-03-03 12h54.37.567115 -0500,
67,67,0,filler_square,None,None,None,None,None,None,None,None,None,None,3,1.3332798480987549,None,,,,,0,0,0,0,0,67,67,194,197.3182508945465,,,,,,,,,,,,,,,,,,,,,,,,,,,,,,,,,,,,,,,,,,,,,,,,,,,,,,,,,,,,,,,,,,,,,,,,,,,,,,,,,58.56606576862007,65.09243353201798,66.87879395642452,66.87879395642452,62.03062435992344,57.580758483619746,4.0,4.2,-162,16,0,-258,158,-11,197.30373668670654,197.30378031730652,197.30589532852173,197.3182508945465,197.46794152259827,197.46794152259827,197.46794152259827,197.46794152259827,197.46794152259827,197.46794152259827,197.46794152259827,198.66893482208252,3,1.3332798480987549,None,,,,,,,,,,,,,,,,,,174,3,2025-03-03_12h54.29.313,comp,2024.2.4,60.03148776843323,2025-03-03 12h54.37.567115 -0500,
68,68,0,critical,hdw,35.0,2.1,upper,200.0,125.0,127.0,127.0,125.0,200.0,3,1.638190507888794,None,,,,,0,0,0,0,0,68,68,45,198.6844973564148,,,,,,,,,,,,,,,,,,,,,,,,,,,,,,,,,,,,,,,,,,,,,,,,,,,,,,,,,,,,,,,,,,,,,,,,,,,,,,,,,200.0,125.0,127.0,127.0,125.0,200.0,2.1,2.11,-222,255,0,281,260,-259,198.6696901321411,198.6697292327881,198.67220449447632,198.6844973564148,198.83480143547058,198.83480143547058,198.83480143547058,198.83480143547058,198.83480143547058,198.83480143547058,198.83480143547058,200.33600401878357,3,1.638190507888794,None,,,,,,,,,,,,,,,,,,174,3,2025-03-03_12h54.29.313,comp,2024.2.4,60.03148776843323,2025-03-03 12h54.37.567115 -0500,
69,69,0,critical,dhw,35.0,4.0,lower,70.0,70.0,133.0,57.0,57.0,133.0,3,2.667393922805786,None,,,,,0,0,0,0,0,69,69,52,200.35115003585815,,,,,,,,,,,,,,,,,,,,,,,,,,,,,,,,,,,,,,,,,,,,,,,,,,,,,,,,,,,,,,,,,,,,,,,,,,,,,,,,,70.0,70.0,133.0,57.0,57.0,133.0,4.0,4.1,-160,-288,0,0,191,-267,200.33682107925415,200.33686137199402,200.33933019638062,200.35115003585815,200.5012605190277,200.5012605190277,200.5012605190277,200.5012605190277,200.5012605190277,200.5012605190277,200.5012605190277,203.0360622406006,3,2.667393922805786,None,,,,,,,,,,,,,,,,,,174,3,2025-03-03_12h54.29.313,comp,2024.2.4,60.03148776843323,2025-03-03 12h54.37.567115 -0500,
70,70,0,critical,dwh,35.0,2.1,lower,70.0,70.0,57.0,133.0,133.0,57.0,3,2.5348124504089355,None,,,,,0,0,0,0,0,70,70,28,203.0512819290161,,,,,,,,,,,,,,,,,,,,,,,,,,,,,,,,,,,,,,,,,,,,,,,,,,,,,,,,,,,,,,,,,,,,,,,,,,,,,,,,,70.0,70.0,57.0,133.0,133.0,57.0,2.1,2.11,-198,272,0,266,191,-255,203.03686451911926,203.0369052886963,203.03941226005554,203.0512819290161,203.20133423805237,203.20133423805237,203.20133423805237,203.20133423805237,203.20133423805237,203.20133423805237,203.20133423805237,205.6026041507721,3,2.5348124504089355,None,,,,,,,,,,,,,,,,,,174,3,2025-03-03_12h54.29.313,comp,2024.2.4,60.03148776843323,2025-03-03 12h54.37.567115 -0500,
71,71,0,filler_random,None,None,None,None,None,None,None,None,None,None,3,1.1854779720306396,None,,,,,0,0,0,0,0,71,71,143,205.6179175376892,,,,,,,,,,,,,,,,,,,,,,,,,,,,,,,,,,,,,,,,,,,,,,,,,,,,,,,,,,,,,,,,,,,,,,,,,,,,,,,,,106.5175884219758,160.45564665009158,105.18782933416287,105.79836888669729,141.74671237912602,160.89144848198362,1.0,1.1,-709,279,-480,272,-251,279,205.60351300239563,205.6035544872284,205.60592603683472,205.6179175376892,205.7680745124817,205.7680745124817,205.7680745124817,205.7680745124817,205.7680745124817,205.7680745124817,205.7680745124817,206.8191270828247,3,1.1854779720306396,None,,,,,,,,,,,,,,,,,,174,3,2025-03-03_12h54.29.313,comp,2024.2.4,60.03148776843323,2025-03-03 12h54.37.567115 -0500,
72,72,0,filler_square,None,None,None,None,None,None,None,None,None,None,3,0.9673500061035156,None,,,,,0,0,0,0,0,72,72,173,206.8346288204193,,,,,,,,,,,,,,,,,,,,,,,,,,,,,,,,,,,,,,,,,,,,,,,,,,,,,,,,,,,,,,,,,,,,,,,,,,,,,,,,,101.5651238530814,63.73658458163472,189.71033174768434,109.49041212738719,193.94663779592523,193.94663779592523,2.2,2.22,-183,283,0,-268,248,-274,206.82010555267334,206.82014632225037,206.82342529296875,206.8346288204193,206.98479461669922,206.98479461669922,206.98479461669922,206.98479461669922,206.98479461669922,206.98479461669922,206.98479461669922,207.81917214393616,3,0.9673500061035156,None,,,,,,,,,,,,,,,,,,174,3,2025-03-03_12h54.29.313,comp,2024.2.4,60.03148776843323,2025-03-03 12h54.37.567115 -0500,
73,73,0,filler_random,None,None,None,None,None,None,None,None,None,None,2,1.1283366680145264,None,,,,,0,0,0,0,0,73,73,140,207.83451175689697,,,,,,,,,,,,,,,,,,,,,,,,,,,,,,,,,,,,,,,,,,,,,,,,,,,,,,,,,,,,,,,,,,,,,,,,,,,,,,,,,76.39268320745305,142.934931981663,178.42859150595808,130.37001698623968,92.27251969493938,117.27761002772667,2.1,2.11,-233,282,0,276,220,-264,207.82008624076843,207.82012701034546,207.82221484184265,207.83451175689697,207.98464727401733,207.98464727401733,207.98464727401733,207.98464727401733,207.98464727401733,207.98464727401733,207.98464727401733,208.96918082237244,2,1.1283366680145264,None,,,,,,,,,,,,,,,,,,174,3,2025-03-03_12h54.29.313,comp,2024.2.4,60.03148776843323,2025-03-03 12h54.37.567115 -0500,
74,74,0,critical,dwh,20.0,1.0,upper,141.0,141.0,125.0,200.0,200.0,125.0,2,5.010344505310059,None,,,,,0,0,0,0,0,74,74,67,208.98461270332336,,,,,,,,,,,,,,,,,,,,,,,,,,,,,,,,,,,,,,,,,,,,,,,,,,,,,,,,,,,,,,,,,,,,,,,,,,,,,,,,,141.0,141.0,125.0,200.0,200.0,125.0,1.0,1.2,-266,19,0,-12,258,-1,208.96999502182007,208.9700357913971,208.9723093509674,208.98461270332336,209.13536405563354,209.13536405563354,209.13536405563354,209.13536405563354,209.13536405563354,209.13536405563354,209.13536405563354,214.00254368782043,2,5.010344505310059,None,,,,,,,,,,,,,,,,,,174,3,2025-03-03_12h54.29.313,comp,2024.2.4,60.03148776843323,2025-03-03 12h54.37.567115 -0500,
75,75,0,critical,dwh,20.0,2.1,lower,78.0,78.0,57.0,133.0,133.0,57.0,3,2.167992115020752,None,,,,,0,0,0,0,0,75,75,6,214.01801466941833,,,,,,,,,,,,,,,,,,,,,,,,,,,,,,,,,,,,,,,,,,,,,,,,,,,,,,,,,,,,,,,,,,,,,,,,,,,,,,,,,78.0,78.0,57.0,133.0,133.0,57.0,2.1,2.11,-202,267,0,287,191,-273,214.00332164764404,214.00336146354675,214.00571489334106,214.01801466941833,214.16794538497925,214.16794538497925,214.16794538497925,214.16794538497925,214.16794538497925,214.16794538497925,214.16794538497925,216.20239162445068,3,2.167992115020752,None,,,,,,,,,,,,,,,,,,174,3,2025-03-03_12h54.29.313,comp,2024.2.4,60.03148776843323,2025-03-03 12h54.37.567115 -0500,
76,76,0,critical,whd,35.0,3.0,upper,125.0,200.0,200.0,125.0,127.0,127.0,1,1.8503801822662354,None,,,,,0,0,0,0,0,76,76,87,216.2178816795349,,,,,,,,,,,,,,,,,,,,,,,,,,,,,,,,,,,,,,,,,,,,,,,,,,,,,,,,,,,,,,,,,,,,,,,,,,,,,,,,,125.0,200.0,200.0,125.0,127.0,127.0,3.0,3.1,-258,268,0,-19,222,-268,216.2031741142273,216.20323061943054,216.20531678199768,216.2178816795349,216.36814856529236,216.36814856529236,216.36814856529236,216.36814856529236,216.36814856529236,216.36814856529236,216.36814856529236,218.06960201263428,1,1.8503801822662354,None,,,,,,,,,,,,,,,,,,174,3,2025-03-03_12h54.29.313,comp,2024.2.4,60.03148776843323,2025-03-03 12h54.37.567115 -0500,
77,77,0,critical,hwd,35.0,1.0,upper,200.0,125.0,125.0,200.0,127.0,127.0,2,2.621013879776001,None,,,,,0,0,0,0,0,77,77,97,218.08481860160828,,,,,,,,,,,,,,,,,,,,,,,,,,,,,,,,,,,,,,,,,,,,,,,,,,,,,,,,,,,,,,,,,,,,,,,,,,,,,,,,,200.0,125.0,125.0,200.0,127.0,127.0,1.0,1.2,-258,15,0,18,260,-15,218.0703763961792,218.07041883468628,218.07253670692444,218.08481860160828,218.2347526550293,218.2347526550293,218.2347526550293,218.2347526550293,218.2347526550293,218.2347526550293,218.2347526550293,220.71998071670532,2,2.621013879776001,None,,,,,,,,,,,,,,,,,,174,3,2025-03-03_12h54.29.313,comp,2024.2.4,60.03148776843323,2025-03-03 12h54.37.567115 -0500,
78,78,0,filler_random,None,None,None,None,None,None,None,None,None,None,2,0.9377095699310303,None,,,,,0,0,0,0,0,78,78,148,220.7360725402832,,,,,,,,,,,,,,,,,,,,,,,,,,,,,,,,,,,,,,,,,,,,,,,,,,,,,,,,,,,,,,,,,,,,,,,,,,,,,,,,,86.48300805930094,125.19787005587858,183.46152677458898,113.0767871662395,79.75314417225938,108.78010016592218,1.0,1.3,265,-258,480,-271,687,-272,220.72097158432007,220.72101378440857,220.72391057014465,220.7360725402832,220.8845808506012,220.8845808506012,220.8845808506012,220.8845808506012,220.8845808506012,220.8845808506012,220.8845808506012,221.6858274936676,2,0.9377095699310303,None,,,,,,,,,,,,,,,,,,174,3,2025-03-03_12h54.29.313,comp,2024.2.4,60.03148776843323,2025-03-03 12h54.37.567115 -0500,
79,79,0,filler_random,None,None,None,None,None,None,None,None,None,None,1,2.6937825679779053,None,,,,,0,0,0,0,0,79,79,169,221.70104932785034,,,,,,,,,,,,,,,,,,,,,,,,,,,,,,,,,,,,,,,,,,,,,,,,,,,,,,,,,,,,,,,,,,,,,,,,,,,,,,,,,99.87602700818384,166.76648724494382,102.50491235204721,119.62388762359967,157.2115405461842,62.212317050166256,2.2,2.22,-239,288,0,-261,187,-266,221.68672704696655,221.68676829338074,221.68925595283508,221.70104932785034,221.85131311416626,221.85131311416626,221.85131311416626,221.85131311416626,221.85131311416626,221.85131311416626,221.85131311416626,224.40254712104797,1,2.6937825679779053,None,,,,,,,,,,,,,,,,,,174,3,2025-03-03_12h54.29.313,comp,2024.2.4,60.03148776843323,2025-03-03 12h54.37.567115 -0500,
80,80,0,filler_random,None,None,None,None,None,None,None,None,None,None,3,1.2410905361175537,None,,,,,0,0,0,0,0,80,80,145,224.41807460784912,,,,,,,,,,,,,,,,,,,,,,,,,,,,,,,,,,,,,,,,,,,,,,,,,,,,,,,,,,,,,,,,,,,,,,,,,,,,,,,,,132.87485336896316,117.56379306323171,73.52450259873316,153.09897235419302,111.2043990101194,169.7118692934601,1.0,1.1,-711,285,-480,274,-223,253,224.40346217155457,224.40350532531738,224.40586686134338,224.41807460784912,224.56797671318054,224.56797671318054,224.56797671318054,224.56797671318054,224.56797671318054,224.56797671318054,224.56797671318054,225.66900396347046,3,1.2410905361175537,None,,,,,,,,,,,,,,,,,,174,3,2025-03-03_12h54.29.313,comp,2024.2.4,60.03148776843323,2025-03-03 12h54.37.567115 -0500,
81,81,0,filler_square,None,None,None,None,None,None,None,None,None,None,1,1.2780365943908691,None,,,,,0,0,0,0,0,81,81,203,225.68461108207703,,,,,,,,,,,,,,,,,,,,,,,,,,,,,,,,,,,,,,,,,,,,,,,,,,,,,,,,,,,,,,,,,,,,,,,,,,,,,,,,,119.40373209603852,119.40373209603852,69.95966418798861,57.575462659218054,85.92347409741762,99.92509983597435,2.1,2.11,-184,275,0,266,175,-268,225.66996002197266,225.67000150680542,225.6724977493286,225.68461108207703,225.83450293540955,225.83450293540955,225.83450293540955,225.83450293540955,225.83450293540955,225.83450293540955,225.83450293540955,226.96894812583923,1,1.2780365943908691,None,,,,,,,,,,,,,,,,,,174,3,2025-03-03_12h54.29.313,comp,2024.2.4,60.03148776843323,2025-03-03 12h54.37.567115 -0500,
82,82,0,filler_square,None,None,None,None,None,None,None,None,None,None,2,0.8014249801635742,None,,,,,0,0,0,0,0,82,82,184,226.9845576286316,,,,,,,,,,,,,,,,,,,,,,,,,,,,,,,,,,,,,,,,,,,,,,,,,,,,,,,,,,,,,,,,,,,,,,,,,,,,,,,,,71.50232112769899,86.18315094275592,147.09016310874495,147.09016310874495,57.419126715991894,139.46618624953072,2.2,2.22,-213,251,0,-263,239,-254,226.96995067596436,226.96999311447144,226.9725856781006,226.9845576286316,227.13454842567444,227.13454842567444,227.13454842567444,227.13454842567444,227.13454842567444,227.13454842567444,227.13454842567444,227.8021912574768,2,0.8014249801635742,None,,,,,,,,,,,,,,,,,,174,3,2025-03-03_12h54.29.313,comp,2024.2.4,60.03148776843323,2025-03-03 12h54.37.567115 -0500,
83,83,0,critical,hwd,35.0,2.1,lower,133.0,57.0,57.0,133.0,70.0,70.0,2,2.561049699783325,None,,,,,0,0,0,0,0,83,83,16,227.817640542984,,,,,,,,,,,,,,,,,,,,,,,,,,,,,,,,,,,,,,,,,,,,,,,,,,,,,,,,,,,,,,,,,,,,,,,,,,,,,,,,,133.0,57.0,57.0,133.0,70.0,70.0,2.1,2.12,-191,-272,0,-273,198,264,227.80298614501953,227.80302739143372,227.80533456802368,227.817640542984,227.96788430213928,227.96788430213928,227.96788430213928,227.96788430213928,227.96788430213928,227.96788430213928,227.96788430213928,230.38549160957336,2,2.561049699783325,None,,,,,,,,,,,,,,,,,,174,3,2025-03-03_12h54.29.313,comp,2024.2.4,60.03148776843323,2025-03-03 12h54.37.567115 -0500,
84,84,0,critical,dhw,35.0,1.0,lower,70.0,70.0,133.0,57.0,57.0,133.0,3,1.9300920963287354,None,,,,,0,0,0,0,0,84,84,48,230.40157055854797,,,,,,,,,,,,,,,,,,,,,,,,,,,,,,,,,,,,,,,,,,,,,,,,,,,,,,,,,,,,,,,,,,,,,,,,,,,,,,,,,70.0,70.0,133.0,57.0,57.0,133.0,1.0,1.3,320,-255,480,-259,671,-253,230.38627076148987,230.3863115310669,230.38839197158813,230.40157055854797,230.5510847568512,230.5510847568512,230.5510847568512,230.5510847568512,230.5510847568512,230.5510847568512,230.5510847568512,232.33569025993347,3,1.9300920963287354,None,,,,,,,,,,,,,,,,,,174,3,2025-03-03_12h54.29.313,comp,2024.2.4,60.03148776843323,2025-03-03 12h54.37.567115 -0500,
85,85,0,critical,hdw,35.0,3.0,upper,200.0,125.0,127.0,127.0,125.0,200.0,3,2.2505335807800293,None,,,,,0,0,0,0,0,85,85,111,232.35135006904602,,,,,,,,,,,,,,,,,,,,,,,,,,,,,,,,,,,,,,,,,,,,,,,,,,,,,,,,,,,,,,,,,,,,,,,,,,,,,,,,,200.0,125.0,127.0,127.0,125.0,200.0,3.0,3.1,-222,266,0,17,260,-275,232.3364794254303,232.3365216255188,232.3388795852661,232.35135006904602,232.50127124786377,232.50127124786377,232.50127124786377,232.50127124786377,232.50127124786377,232.50127124786377,232.50127124786377,234.6191222667694,3,2.2505335807800293,None,,,,,,,,,,,,,,,,,,174,3,2025-03-03_12h54.29.313,comp,2024.2.4,60.03148776843323,2025-03-03 12h54.37.567115 -0500,
86,86,0,critical,hwd,20.0,2.1,upper,200.0,125.0,125.0,200.0,141.0,141.0,2,1.3284249305725098,None,,,,,0,0,0,0,0,86,86,19,234.63427686691284,,,,,,,,,,,,,,,,,,,,,,,,,,,,,,,,,,,,,,,,,,,,,,,,,,,,,,,,,,,,,,,,,,,,,,,,,,,,,,,,,200.0,125.0,125.0,200.0,141.0,141.0,2.1,2.11,-258,263,0,275,266,-265,234.6199324131012,234.61997175216675,234.62214922904968,234.63427686691284,234.78465104103088,234.78465104103088,234.78465104103088,234.78465104103088,234.78465104103088,234.78465104103088,234.78465104103088,235.96919107437134,2,1.3284249305725098,None,,,,,,,,,,,,,,,,,,174,3,2025-03-03_12h54.29.313,comp,2024.2.4,60.03148776843323,2025-03-03 12h54.37.567115 -0500,
87,87,0,critical,hdw,35.0,2.1,upper,200.0,125.0,127.0,127.0,125.0,200.0,3,1.426318883895874,None,,,,,0,0,0,0,0,87,87,21,235.98454427719116,,,,,,,,,,,,,,,,,,,,,,,,,,,,,,,,,,,,,,,,,,,,,,,,,,,,,,,,,,,,,,,,,,,,,,,,,,,,,,,,,200.0,125.0,127.0,127.0,125.0,200.0,2.1,2.11,-222,285,0,252,260,-286,235.96999645233154,235.97003722190857,235.97211122512817,235.98454427719116,236.1346080303192,236.1346080303192,236.1346080303192,236.1346080303192,236.1346080303192,236.1346080303192,236.1346080303192,237.4191710948944,3,1.426318883895874,None,,,,,,,,,,,,,,,,,,174,3,2025-03-03_12h54.29.313,comp,2024.2.4,60.03148776843323,2025-03-03 12h54.37.567115 -0500,
88,88,0,critical,wdh,20.0,2.1,lower,57.0,133.0,78.0,78.0,133.0,57.0,1,2.3673291206359863,None,,,,,0,0,0,0,0,88,88,10,237.4345304965973,,,,,,,,,,,,,,,,,,,,,,,,,,,,,,,,,,,,,,,,,,,,,,,,,,,,,,,,,,,,,,,,,,,,,,,,,,,,,,,,,57.0,133.0,78.0,78.0,133.0,57.0,2.1,2.12,-202,-269,0,-260,164,289,237.41998481750488,237.4200267791748,237.42258763313293,237.4345304965973,237.58442640304565,237.58442640304565,237.58442640304565,237.58442640304565,237.58442640304565,237.58442640304565,237.58442640304565,239.81898880004883,1,2.3673291206359863,None,,,,,,,,,,,,,,,,,,174,3,2025-03-03_12h54.29.313,comp,2024.2.4,60.03148776843323,2025-03-03 12h54.37.567115 -0500,
89,89,0,critical,hwd,35.0,4.0,upper,200.0,125.0,125.0,200.0,127.0,127.0,2,2.2393639087677,None,,,,,0,0,0,0,0,89,89,101,239.83432269096375,,,,,,,,,,,,,,,,,,,,,,,,,,,,,,,,,,,,,,,,,,,,,,,,,,,,,,,,,,,,,,,,,,,,,,,,,,,,,,,,,200.0,125.0,125.0,200.0,127.0,127.0,4.0,4.1,-258,-251,0,-4,260,-262,239.81979489326477,239.8198356628418,239.82234954833984,239.83432269096375,239.98465776443481,239.98465776443481,239.98465776443481,239.98465776443481,239.98465776443481,239.98465776443481,239.98465776443481,242.0857436656952,2,2.2393639087677,None,,,,,,,,,,,,,,,,,,174,3,2025-03-03_12h54.29.313,comp,2024.2.4,60.03148776843323,2025-03-03 12h54.37.567115 -0500,
90,90,0,filler_square,None,None,None,None,None,None,None,None,None,None,2,1.109863042831421,None,,,,,0,0,0,0,0,90,90,195,242.10088109970093,,,,,,,,,,,,,,,,,,,,,,,,,,,,,,,,,,,,,,,,,,,,,,,,,,,,,,,,,,,,,,,,,,,,,,,,,,,,,,,,,156.62266046004106,83.97464200530551,160.42639130857617,160.42639130857617,116.07083914468025,129.39228988876567,2.2,2.21,-218,-286,0,255,241,268,242.08671140670776,242.08675169944763,242.08916926383972,242.10088109970093,242.25107383728027,242.25107383728027,242.25107383728027,242.25107383728027,242.25107383728027,242.25107383728027,242.25107383728027,243.2189953327179,2,1.109863042831421,None,,,,,,,,,,,,,,,,,,174,3,2025-03-03_12h54.29.313,comp,2024.2.4,60.03148776843323,2025-03-03 12h54.37.567115 -0500,
91,91,0,critical,dwh,20.0,4.0,lower,78.0,78.0,57.0,133.0,133.0,57.0,3,1.839202880859375,None,,,,,0,0,0,0,0,91,91,70,243.23451685905457,,,,,,,,,,,,,,,,,,,,,,,,,,,,,,,,,,,,,,,,,,,,,,,,,,,,,,,,,,,,,,,,,,,,,,,,,,,,,,,,,78.0,78.0,57.0,133.0,133.0,57.0,4.0,4.1,-202,-283,0,-15,191,-265,243.21979212760925,243.21983408927917,243.2224097251892,243.23451685905457,243.38434886932373,243.38434886932373,243.38434886932373,243.38434886932373,243.38434886932373,243.38434886932373,243.38434886932373,245.08565592765808,3,1.839202880859375,None,,,,,,,,,,,,,,,,,,174,3,2025-03-03_12h54.29.313,comp,2024.2.4,60.03148776843323,2025-03-03 12h54.37.567115 -0500,
92,92,0,critical,wdh,35.0,1.0,lower,57.0,133.0,70.0,70.0,133.0,57.0,3,1.6155731678009033,None,,,,,0,0,0,0,0,92,92,72,245.10089755058289,,,,,,,,,,,,,,,,,,,,,,,,,,,,,,,,,,,,,,,,,,,,,,,,,,,,,,,,,,,,,,,,,,,,,,,,,,,,,,,,,57.0,133.0,70.0,70.0,133.0,57.0,1.0,1.2,-198,15,0,19,160,3,245.08643746376038,245.08647966384888,245.08864212036133,245.10089755058289,245.2511432170868,245.2511432170868,245.2511432170868,245.2511432170868,245.2511432170868,245.2511432170868,245.2511432170868,246.71897983551025,3,1.6155731678009033,None,,,,,,,,,,,,,,,,,,174,3,2025-03-03_12h54.29.313,comp,2024.2.4,60.03148776843323,2025-03-03 12h54.37.567115 -0500,
93,93,0,critical,whd,20.0,2.1,lower,57.0,133.0,133.0,57.0,78.0,78.0,1,3.50830078125,None,,,,,0,0,0,0,0,93,93,38,246.73443007469177,,,,,,,,,,,,,,,,,,,,,,,,,,,,,,,,,,,,,,,,,,,,,,,,,,,,,,,,,,,,,,,,,,,,,,,,,,,,,,,,,57.0,133.0,133.0,57.0,78.0,78.0,2.1,2.11,-191,278,0,266,164,-256,246.71977043151855,246.71981263160706,246.7223629951477,246.73443007469177,246.88435173034668,246.88435173034668,246.88435173034668,246.88435173034668,246.88435173034668,246.88435173034668,246.88435173034668,250.25202918052673,1,3.50830078125,None,,,,,,,,,,,,,,,,,,174,3,2025-03-03_12h54.29.313,comp,2024.2.4,60.03148776843323,2025-03-03 12h54.37.567115 -0500,
94,94,0,critical,hdw,35.0,4.0,lower,133.0,57.0,70.0,70.0,57.0,133.0,1,3.542806625366211,None,,,,,0,0,0,0,0,94,94,112,250.26781177520752,,,,,,,,,,,,,,,,,,,,,,,,,,,,,,,,,,,,,,,,,,,,,,,,,,,,,,,,,,,,,,,,,,,,,,,,,,,,,,,,,133.0,57.0,70.0,70.0,57.0,133.0,4.0,4.2,-160,11,0,-262,198,12,250.25277876853943,250.25281763076782,250.25537419319153,250.26781177520752,250.41787910461426,250.41787910461426,250.41787910461426,250.41787910461426,250.41787910461426,250.41787910461426,250.41787910461426,253.81867837905884,1,3.542806625366211,None,,,,,,,,,,,,,,,,,,174,3,2025-03-03_12h54.29.313,comp,2024.2.4,60.03148776843323,2025-03-03 12h54.37.567115 -0500,
95,95,0,critical,hdw,20.0,2.1,upper,200.0,125.0,141.0,141.0,125.0,200.0,1,1.8661620616912842,None,,,,,0,0,0,0,0,95,95,23,253.83435535430908,,,,,,,,,,,,,,,,,,,,,,,,,,,,,,,,,,,,,,,,,,,,,,,,,,,,,,,,,,,,,,,,,,,,,,,,,,,,,,,,,200.0,125.0,141.0,141.0,125.0,200.0,2.1,2.12,-229,-282,0,-272,266,289,253.81945776939392,253.81949925422668,253.8219952583313,253.83435535430908,253.9849214553833,253.9849214553833,253.9849214553833,253.9849214553833,253.9849214553833,253.9849214553833,253.9849214553833,255.71901845932007,1,1.8661620616912842,None,,,,,,,,,,,,,,,,,,174,3,2025-03-03_12h54.29.313,comp,2024.2.4,60.03148776843323,2025-03-03 12h54.37.567115 -0500,
96,96,0,filler_random,None,None,None,None,None,None,None,None,None,None,3,0.8515021800994873,None,,,,,0,0,0,0,0,96,96,165,255.73428297042847,,,,,,,,,,,,,,,,,,,,,,,,,,,,,,,,,,,,,,,,,,,,,,,,,,,,,,,,,,,,,,,,,,,,,,,,,,,,,,,,,77.6673128285077,114.38396912527179,117.00902487186794,103.56547306967978,104.36520464873328,169.15361944320068,3.0,3.2,-205,-262,0,20,232,260,255.7199137210846,255.71995544433594,255.72247433662415,255.73428297042847,255.88440871238708,255.88440871238708,255.88440871238708,255.88440871238708,255.88440871238708,255.88440871238708,255.88440871238708,256.60210824012756,3,0.8515021800994873,None,,,,,,,,,,,,,,,,,,174,3,2025-03-03_12h54.29.313,comp,2024.2.4,60.03148776843323,2025-03-03 12h54.37.567115 -0500,
97,97,0,filler_random,None,None,None,None,None,None,None,None,None,None,3,1.088120698928833,None,,,,,0,0,0,0,0,97,97,163,256.61749148368835,,,,,,,,,,,,,,,,,,,,,,,,,,,,,,,,,,,,,,,,,,,,,,,,,,,,,,,,,,,,,,,,,,,,,,,,,,,,,,,,,155.99751160726953,71.830825095062,108.24158147284301,165.4253604596409,196.62328591626644,98.46875312373331,1.0,1.2,-215,-16,0,-10,228,-18,256.6029794216156,256.6030201911926,256.6055474281311,256.61749148368835,256.76774740219116,256.76774740219116,256.76774740219116,256.76774740219116,256.76774740219116,256.76774740219116,256.76774740219116,257.7191307544708,3,1.088120698928833,None,,,,,,,,,,,,,,,,,,174,3,2025-03-03_12h54.29.313,comp,2024.2.4,60.03148776843323,2025-03-03 12h54.37.567115 -0500,
98,98,0,critical,dhw,20.0,4.0,lower,78.0,78.0,133.0,57.0,57.0,133.0,3,2.2838501930236816,None,,,,,0,0,0,0,0,98,98,58,257.7341821193695,,,,,,,,,,,,,,,,,,,,,,,,,,,,,,,,,,,,,,,,,,,,,,,,,,,,,,,,,,,,,,,,,,,,,,,,,,,,,,,,,78.0,78.0,133.0,57.0,57.0,133.0,4.0,4.1,-164,-255,0,5,191,-255,257.71993494033813,257.7199761867523,257.7224991321564,257.7341821193695,257.8844356536865,257.8844356536865,257.8844356536865,257.8844356536865,257.8844356536865,257.8844356536865,257.8844356536865,260.035427570343,3,2.2838501930236816,None,,,,,,,,,,,,,,,,,,174,3,2025-03-03_12h54.29.313,comp,2024.2.4,60.03148776843323,2025-03-03 12h54.37.567115 -0500,
99,99,0,filler_random,None,None,None,None,None,None,None,None,None,None,2,5.833153486251831,None,,,,,0,0,0,0,0,99,99,131,260.05084586143494,,,,,,,,,,,,,,,,,,,,,,,,,,,,,,,,,,,,,,,,,,,,,,,,,,,,,,,,,,,,,,,,,,,,,,,,,,,,,,,,,153.39640550807255,93.34246101401797,133.13360398834305,137.45496936469291,102.04223430312942,66.78672961143425,2.2,2.21,-211,-290,0,276,198,265,260.03634810447693,260.03639006614685,260.03966546058655,260.05084586143494,260.20093989372253,260.20093989372253,260.20093989372253,260.20093989372253,260.20093989372253,260.20093989372253,260.20093989372253,265.90206813812256,2,5.833153486251831,None,,,,,,,,,,,,,,,,,,174,3,2025-03-03_12h54.29.313,comp,2024.2.4,60.03148776843323,2025-03-03 12h54.37.567115 -0500,
100,100,0,critical,wdh,35.0,4.0,upper,125.0,200.0,127.0,127.0,200.0,125.0,3,1.2524480819702148,None,,,,,0,0,0,0,0,100,100,77,265.9173662662506,,,,,,,,,,,,,,,,,,,,,,,,,,,,,,,,,,,,,,,,,,,,,,,,,,,,,,,,,,,,,,,,,,,,,,,,,,,,,,,,,125.0,200.0,127.0,127.0,200.0,125.0,4.0,4.1,-260,-262,0,4,222,-251,265.9028527736664,265.90289282798767,265.9050483703613,265.9173662662506,266.06774163246155,266.06774163246155,266.06774163246155,266.06774163246155,266.06774163246155,266.06774163246155,266.06774163246155,267.1853494644165,3,1.2524480819702148,None,,,,,,,,,,,,,,,,,,174,3,2025-03-03_12h54.29.313,comp,2024.2.4,60.03148776843323,2025-03-03 12h54.37.567115 -0500,
101,101,0,critical,hdw,20.0,1.0,upper,200.0,125.0,141.0,141.0,125.0,200.0,3,2.088987350463867,None,,,,,0,0,0,0,0,101,101,115,267.20059728622437,,,,,,,,,,,,,,,,,,,,,,,,,,,,,,,,,,,,,,,,,,,,,,,,,,,,,,,,,,,,,,,,,,,,,,,,,,,,,,,,,200.0,125.0,141.0,141.0,125.0,200.0,1.0,1.3,251,-251,480,-266,746,-254,267.1861135959625,267.1861538887024,267.1884536743164,267.20059728622437,267.3509621620178,267.3509621620178,267.3509621620178,267.3509621620178,267.3509621620178,267.3509621620178,267.3509621620178,269.30223298072815,3,2.088987350463867,None,,,,,,,,,,,,,,,,,,174,3,2025-03-03_12h54.29.313,comp,2024.2.4,60.03148776843323,2025-03-03 12h54.37.567115 -0500,
102,102,0,critical,dwh,20.0,4.0,upper,141.0,141.0,125.0,200.0,200.0,125.0,3,3.068356513977051,None,,,,,0,0,0,0,0,102,102,71,269.31732726097107,,,,,,,,,,,,,,,,,,,,,,,,,,,,,,,,,,,,,,,,,,,,,,,,,,,,,,,,,,,,,,,,,,,,,,,,,,,,,,,,,141.0,141.0,125.0,200.0,200.0,125.0,4.0,4.2,-266,14,0,-274,258,7,269.303010225296,269.30305218696594,269.3053641319275,269.31732726097107,269.467821598053,269.467821598053,269.467821598053,269.467821598053,269.467821598053,269.467821598053,269.467821598053,272.40234184265137,3,3.068356513977051,None,,,,,,,,,,,,,,,,,,174,3,2025-03-03_12h54.29.313,comp,2024.2.4,60.03148776843323,2025-03-03 12h54.37.567115 -0500,
103,103,0,critical,dhw,20.0,2.1,upper,141.0,141.0,200.0,125.0,125.0,200.0,3,2.6416540145874023,None,,,,,0,0,0,0,0,103,103,27,272.41738963127136,,,,,,,,,,,,,,,,,,,,,,,,,,,,,,,,,,,,,,,,,,,,,,,,,,,,,,,,,,,,,,,,,,,,,,,,,,,,,,,,,141.0,141.0,200.0,125.0,125.0,200.0,2.1,2.11,-229,276,0,258,258,-270,272.4031171798706,272.40315794944763,272.4054582118988,272.41738963127136,272.56767773628235,272.56767773628235,272.56767773628235,272.56767773628235,272.56767773628235,272.56767773628235,272.56767773628235,275.0687599182129,3,2.6416540145874023,None,,,,,,,,,,,,,,,,,,174,3,2025-03-03_12h54.29.313,comp,2024.2.4,60.03148776843323,2025-03-03 12h54.37.567115 -0500,
104,104,0,critical,hdw,35.0,1.0,lower,133.0,57.0,70.0,70.0,57.0,133.0,3,1.5501360893249512,None,,,,,0,0,0,0,0,104,104,108,275.0842730998993,,,,,,,,,,,,,,,,,,,,,,,,,,,,,,,,,,,,,,,,,,,,,,,,,,,,,,,,,,,,,,,,,,,,,,,,,,,,,,,,,133.0,57.0,70.0,70.0,57.0,133.0,1.0,1.3,320,-266,480,-267,678,-262,275.0695514678955,275.06959319114685,275.0719723701477,275.0842730998993,275.2341296672821,275.2341296672821,275.2341296672821,275.2341296672821,275.2341296672821,275.2341296672821,275.2341296672821,276.65192794799805,3,1.5501360893249512,None,,,,,,,,,,,,,,,,,,174,3,2025-03-03_12h54.29.313,comp,2024.2.4,60.03148776843323,2025-03-03 12h54.37.567115 -0500,
105,105,0,critical,hwd,20.0,3.0,upper,200.0,125.0,125.0,200.0,141.0,141.0,1,2.2173044681549072,None,,,,,0,0,0,0,0,105,105,105,276.66728138923645,,,,,,,,,,,,,,,,,,,,,,,,,,,,,,,,,,,,,,,,,,,,,,,,,,,,,,,,,,,,,,,,,,,,,,,,,,,,,,,,,200.0,125.0,125.0,200.0,141.0,141.0,3.0,3.2,-258,-268,0,20,266,285,276.65271735191345,276.6527578830719,276.6552698612213,276.66728138923645,276.8176238536835,276.8176238536835,276.8176238536835,276.8176238536835,276.8176238536835,276.8176238536835,276.8176238536835,278.88585352897644,1,2.2173044681549072,None,,,,,,,,,,,,,,,,,,174,3,2025-03-03_12h54.29.313,comp,2024.2.4,60.03148776843323,2025-03-03 12h54.37.567115 -0500,
106,106,0,filler_square,None,None,None,None,None,None,None,None,None,None,2,1.2845444679260254,None,,,,,0,0,0,0,0,106,106,206,278.9010806083679,,,,,,,,,,,,,,,,,,,,,,,,,,,,,,,,,,,,,,,,,,,,,,,,,,,,,,,,,,,,,,,,,,,,,,,,,,,,,,,,,59.96845961698498,80.71944727685863,100.51406814624924,100.51406814624924,99.1506253102259,70.96118528601446,1.0,1.1,-667,279,-480,285,-298,273,278.8868248462677,278.8868741989136,278.8889706134796,278.9010806083679,279.0510256290436,279.0510256290436,279.0510256290436,279.0510256290436,279.0510256290436,279.0510256290436,279.0510256290436,280.2022042274475,2,1.2845444679260254,None,,,,,,,,,,,,,,,,,,174,3,2025-03-03_12h54.29.313,comp,2024.2.4,60.03148776843323,2025-03-03 12h54.37.567115 -0500,
107,107,0,catch,None,None,None,None,None,None,None,None,None,None,1,0.9289612770080566,None,,,,,0,0,0,0,0,107,107,121,280.21746158599854,,,,,,,,,,,,,,,,,,,,,,,,,,,,,,,,,,,,,,,,,,,,,,,,,,,,,,,,,,,,,,,,,,,,,,,,,,,,,,,,,150,175,72,118,85,105,2.1,2.11,-242,271,0,269,208,-267,280.2032780647278,280.2033214569092,280.2058644294739,280.21746158599854,280.3674759864807,280.3674759864807,280.3674759864807,280.3674759864807,280.3674759864807,280.3674759864807,280.3674759864807,281.15211296081543,1,0.9289612770080566,None,,,,,,,,,,,,,,,,,,174,3,2025-03-03_12h54.29.313,comp,2024.2.4,60.03148776843323,2025-03-03 12h54.37.567115 -0500,
108,108,0,critical,wdh,35.0,2.1,lower,57.0,133.0,70.0,70.0,133.0,57.0,3,1.2339110374450684,None,,,,,0,0,0,0,0,108,108,32,281.1676630973816,,,,,,,,,,,,,,,,,,,,,,,,,,,,,,,,,,,,,,,,,,,,,,,,,,,,,,,,,,,,,,,,,,,,,,,,,,,,,,,,,57.0,133.0,70.0,70.0,133.0,57.0,2.1,2.12,-198,-258,0,-251,160,251,281.15295028686523,281.1529929637909,281.1555998325348,281.1676630973816,281.3174674510956,281.3174674510956,281.3174674510956,281.3174674510956,281.3174674510956,281.3174674510956,281.3174674510956,282.418612241745,3,1.2339110374450684,None,,,,,,,,,,,,,,,,,,174,3,2025-03-03_12h54.29.313,comp,2024.2.4,60.03148776843323,2025-03-03 12h54.37.567115 -0500,
109,109,0,critical,hwd,20.0,2.1,upper,200.0,125.0,125.0,200.0,141.0,141.0,1,2.5604469776153564,None,,,,,0,0,0,0,0,109,109,43,282.4340114593506,,,,,,,,,,,,,,,,,,,,,,,,,,,,,,,,,,,,,,,,,,,,,,,,,,,,,,,,,,,,,,,,,,,,,,,,,,,,,,,,,200.0,125.0,125.0,200.0,141.0,141.0,2.1,2.12,-258,-253,0,-268,266,259,282.41944456100464,282.419486284256,282.4219756126404,282.4340114593506,282.58433532714844,282.58433532714844,282.58433532714844,282.58433532714844,282.58433532714844,282.58433532714844,282.58433532714844,285.00215101242065,1,2.5604469776153564,None,,,,,,,,,,,,,,,,,,174,3,2025-03-03_12h54.29.313,comp,2024.2.4,60.03148776843323,2025-03-03 12h54.37.567115 -0500,
110,110,0,critical,hdw,35.0,2.1,lower,133.0,57.0,70.0,70.0,57.0,133.0,1,8.255903482437134,None,,,,,0,0,0,0,0,110,110,44,285.017516374588,,,,,,,,,,,,,,,,,,,,,,,,,,,,,,,,,,,,,,,,,,,,,,,,,,,,,,,,,,,,,,,,,,,,,,,,,,,,,,,,,133.0,57.0,70.0,70.0,57.0,133.0,2.1,2.12,-160,-280,0,-276,198,288,285.0029311180115,285.002970457077,285.0051500797272,285.017516374588,285.1674430370331,285.1674430370331,285.1674430370331,285.1674430370331,285.1674430370331,285.1674430370331,285.1674430370331,293.28504371643066,1,8.255903482437134,None,,,,,,,,,,,,,,,,,,174,3,2025-03-03_12h54.29.313,comp,2024.2.4,60.03148776843323,2025-03-03 12h54.37.567115 -0500,
111,111,0,critical,dhw,35.0,2.1,upper,127.0,127.0,200.0,125.0,125.0,200.0,3,1.350379228591919,None,,,,,0,0,0,0,0,111,111,1,293.30081033706665,,,,,,,,,,,,,,,,,,,,,,,,,,,,,,,,,,,,,,,,,,,,,,,,,,,,,,,,,,,,,,,,,,,,,,,,,,,,,,,,,127.0,127.0,200.0,125.0,125.0,200.0,2.1,2.12,-222,-283,0,-258,258,274,293.2858555316925,293.28589963912964,293.2884831428528,293.30081033706665,293.45090770721436,293.45090770721436,293.45090770721436,293.45090770721436,293.45090770721436,293.45090770721436,293.45090770721436,294.6687066555023,3,1.350379228591919,None,,,,,,,,,,,,,,,,,,174,3,2025-03-03_12h54.29.313,comp,2024.2.4,60.03148776843323,2025-03-03 12h54.37.567115 -0500,
112,112,0,critical,whd,35.0,3.0,lower,57.0,133.0,133.0,57.0,70.0,70.0,2,1.4856178760528564,None,,,,,0,0,0,0,0,112,112,86,294.68391394615173,,,,,,,,,,,,,,,,,,,,,,,,,,,,,,,,,,,,,,,,,,,,,,,,,,,,,,,,,,,,,,,,,,,,,,,,,,,,,,,,,57.0,133.0,133.0,57.0,70.0,70.0,3.0,3.1,-191,283,0,-6,160,-284,294.66953587532043,294.6695783138275,294.67194724082947,294.68391394615173,294.8339161872864,294.8339161872864,294.8339161872864,294.8339161872864,294.8339161872864,294.8339161872864,294.8339161872864,296.1851489543915,2,1.4856178760528564,None,,,,,,,,,,,,,,,,,,174,3,2025-03-03_12h54.29.313,comp,2024.2.4,60.03148776843323,2025-03-03 12h54.37.567115 -0500,
113,113,0,filler_random,None,None,None,None,None,None,None,None,None,None,3,0.9212331771850586,None,,,,,0,0,0,0,0,113,113,149,296.20069003105164,,,,,,,,,,,,,,,,,,,,,,,,,,,,,,,,,,,,,,,,,,,,,,,,,,,,,,,,,,,,,,,,,,,,,,,,,,,,,,,,,138.26269689472826,92.2499264011533,100.52193736058129,90.45579675059845,124.92770529960939,162.00635890975514,2.1,2.11,-187,268,0,251,222,-263,296.1860637664795,296.1861062049866,296.1896369457245,296.20069003105164,296.3507227897644,296.3507227897644,296.3507227897644,296.3507227897644,296.3507227897644,296.3507227897644,296.3507227897644,297.13509225845337,3,0.9212331771850586,None,,,,,,,,,,,,,,,,,,174,3,2025-03-03_12h54.29.313,comp,2024.2.4,60.03148776843323,2025-03-03 12h54.37.567115 -0500,
114,114,0,critical,wdh,20.0,4.0,upper,125.0,200.0,141.0,141.0,200.0,125.0,3,1.1229112148284912,None,,,,,0,0,0,0,0,114,114,83,297.1505241394043,,,,,,,,,,,,,,,,,,,,,,,,,,,,,,,,,,,,,,,,,,,,,,,,,,,,,,,,,,,,,,,,,,,,,,,,,,,,,,,,,125.0,200.0,141.0,141.0,200.0,125.0,4.0,4.1,-266,-272,0,10,229,-285,297.13589692115784,297.1359386444092,297.1380183696747,297.1505241394043,297.3008966445923,297.3008966445923,297.3008966445923,297.3008966445923,297.3008966445923,297.3008966445923,297.3008966445923,298.2855565547943,3,1.1229112148284912,None,,,,,,,,,,,,,,,,,,174,3,2025-03-03_12h54.29.313,comp,2024.2.4,60.03148776843323,2025-03-03 12h54.37.567115 -0500,
115,115,0,filler_random,None,None,None,None,None,None,None,None,None,None,3,1.3340561389923096,None,,,,,0,0,0,0,0,115,115,150,298.30063700675964,,,,,,,,,,,,,,,,,,,,,,,,,,,,,,,,,,,,,,,,,,,,,,,,,,,,,,,,,,,,,,,,,,,,,,,,,,,,,,,,,128.10096789481366,106.84555240591051,68.8920890234984,57.560215762555025,92.67145083277086,156.3526129794004,3.0,3.2,-178,-262,0,-20,203,260,298.28645944595337,298.28650188446045,298.288613319397,298.30063700675964,298.45071482658386,298.45071482658386,298.45071482658386,298.45071482658386,298.45071482658386,298.45071482658386,298.45071482658386,299.65180015563965,3,1.3340561389923096,None,,,,,,,,,,,,,,,,,,174,3,2025-03-03_12h54.29.313,comp,2024.2.4,60.03148776843323,2025-03-03 12h54.37.567115 -0500,
116,116,0,critical,dwh,35.0,1.0,lower,70.0,70.0,57.0,133.0,133.0,57.0,3,1.791698932647705,None,,,,,0,0,0,0,0,116,116,60,299.66718220710754,,,,,,,,,,,,,,,,,,,,,,,,,,,,,,,,,,,,,,,,,,,,,,,,,,,,,,,,,,,,,,,,,,,,,,,,,,,,,,,,,70.0,70.0,57.0,133.0,133.0,57.0,1.0,1.2,-198,-2,0,-14,191,18,299.65259051322937,299.65263199806213,299.65509700775146,299.66718220710754,299.8173613548279,299.8173613548279,299.8173613548279,299.8173613548279,299.8173613548279,299.8173613548279,299.8173613548279,301.46845293045044,3,1.791698932647705,None,,,,,,,,,,,,,,,,,,174,3,2025-03-03_12h54.29.313,comp,2024.2.4,60.03148776843323,2025-03-03 12h54.37.567115 -0500,
117,117,0,filler_random,None,None,None,None,None,None,None,None,None,None,3,0.8163485527038574,None,,,,,0,0,0,0,0,117,117,146,301.4840507507324,,,,,,,,,,,,,,,,,,,,,,,,,,,,,,,,,,,,,,,,,,,,,,,,,,,,,,,,,,,,,,,,,,,,,,,,,,,,,,,,,167.4309187343942,58.29570603281194,161.64372213452918,57.46106115194742,151.32201901833784,140.7591327231508,2.1,2.12,-154,-274,0,-267,195,277,301.46932196617126,301.469361782074,301.4713809490204,301.4840507507324,301.6340637207031,301.6340637207031,301.6340637207031,301.6340637207031,301.6340637207031,301.6340637207031,301.6340637207031,302.30196714401245,3,0.8163485527038574,None,,,,,,,,,,,,,,,,,,174,3,2025-03-03_12h54.29.313,comp,2024.2.4,60.03148776843323,2025-03-03 12h54.37.567115 -0500,
118,118,0,filler_square,None,None,None,None,None,None,None,None,None,None,2,1.0288019180297852,None,,,,,0,0,0,0,0,118,118,170,302.3174147605896,,,,,,,,,,,,,,,,,,,,,,,,,,,,,,,,,,,,,,,,,,,,,,,,,,,,,,,,,,,,,,,,,,,,,,,,,,,,,,,,,146.61729046416136,128.1111802788722,155.7285349960144,155.7285349960144,85.16120041053762,76.25269852266072,2.2,2.22,-238,289,0,-260,212,-258,302.3028872013092,302.3029274940491,302.30539774894714,302.3174147605896,302.4675130844116,302.4675130844116,302.4675130844116,302.4675130844116,302.4675130844116,302.4675130844116,302.4675130844116,303.35182428359985,2,1.0288019180297852,None,,,,,,,,,,,,,,,,,,174,3,2025-03-03_12h54.29.313,comp,2024.2.4,60.03148776843323,2025-03-03 12h54.37.567115 -0500,
119,119,0,filler_random,None,None,None,None,None,None,None,None,None,None,3,0.8180005550384521,None,,,,,0,0,0,0,0,119,119,137,303.36748695373535,,,,,,,,,,,,,,,,,,,,,,,,,,,,,,,,,,,,,,,,,,,,,,,,,,,,,,,,,,,,,,,,,,,,,,,,,,,,,,,,,88.77661913457567,122.9443383435869,87.20875339124622,151.1206589449693,197.58252859086517,181.51876129515608,3.0,3.1,-233,278,0,-5,262,-254,303.35271644592285,303.3527567386627,303.3551836013794,303.36748695373535,303.5175485610962,303.5175485610962,303.5175485610962,303.5175485610962,303.5175485610962,303.5175485610962,303.5175485610962,304.2018413543701,3,0.8180005550384521,None,,,,,,,,,,,,,,,,,,174,3,2025-03-03_12h54.29.313,comp,2024.2.4,60.03148776843323,2025-03-03 12h54.37.567115 -0500,
120,120,0,filler_random,None,None,None,None,None,None,None,None,None,None,3,1.017075538635254,None,,,,,0,0,0,0,0,120,120,154,304.21729826927185,,,,,,,,,,,,,,,,,,,,,,,,,,,,,,,,,,,,,,,,,,,,,,,,,,,,,,,,,,,,,,,,,,,,,,,,,,,,,,,,,120.19135909515911,169.92230708846915,187.4839045085262,58.734991335199176,136.49700978370416,196.89539862111124,2.1,2.12,-210,-253,0,-278,224,281,304.20274591445923,304.20278668403625,304.20519042015076,304.21729826927185,304.3674988746643,304.3674988746643,304.3674988746643,304.3674988746643,304.3674988746643,304.3674988746643,304.3674988746643,305.23558926582336,3,1.017075538635254,None,,,,,,,,,,,,,,,,,,174,3,2025-03-03_12h54.29.313,comp,2024.2.4,60.03148776843323,2025-03-03 12h54.37.567115 -0500,
121,121,0,filler_random,None,None,None,None,None,None,None,None,None,None,1,1.4801442623138428,None,,,,,0,0,0,0,0,121,121,142,305.2507040500641,,,,,,,,,,,,,,,,,,,,,,,,,,,,,,,,,,,,,,,,,,,,,,,,,,,,,,,,,,,,,,,,,,,,,,,,,,,,,,,,,193.49410735067443,188.0853367439419,142.17049954580506,116.55763652775315,142.4075368881107,137.2457121120271,3.0,3.2,-248,-254,0,9,223,250,305.2365176677704,305.2365758419037,305.23911213874817,305.2507040500641,305.40078711509705,305.40078711509705,305.40078711509705,305.40078711509705,305.40078711509705,305.40078711509705,305.40078711509705,306.7354962825775,1,1.4801442623138428,None,,,,,,,,,,,,,,,,,,174,3,2025-03-03_12h54.29.313,comp,2024.2.4,60.03148776843323,2025-03-03 12h54.37.567115 -0500,
122,122,0,critical,wdh,20.0,3.0,upper,125.0,200.0,141.0,141.0,200.0,125.0,3,1.4185817241668701,None,,,,,0,0,0,0,0,122,122,81,306.7507326602936,,,,,,,,,,,,,,,,,,,,,,,,,,,,,,,,,,,,,,,,,,,,,,,,,,,,,,,,,,,,,,,,,,,,,,,,,,,,,,,,,125.0,200.0,141.0,141.0,200.0,125.0,3.0,3.2,-266,-255,0,7,229,251,306.73628997802734,306.736332654953,306.73844742774963,306.7507326602936,306.9008541107178,306.9008541107178,306.9008541107178,306.9008541107178,306.9008541107178,306.9008541107178,306.9008541107178,308.1852068901062,3,1.4185817241668701,None,,,,,,,,,,,,,,,,,,174,3,2025-03-03_12h54.29.313,comp,2024.2.4,60.03148776843323,2025-03-03 12h54.37.567115 -0500,
123,123,0,filler_random,None,None,None,None,None,None,None,None,None,None,2,1.5214707851409912,None,,,,,0,0,0,0,0,123,123,152,308.2004792690277,,,,,,,,,,,,,,,,,,,,,,,,,,,,,,,,,,,,,,,,,,,,,,,,,,,,,,,,,,,,,,,,,,,,,,,,,,,,,,,,,64.14662500822833,129.70167963885817,96.68702401759546,167.666634495621,100.89898684572023,90.77423915400848,4.0,4.2,-245,-19,0,-290,225,14,308.18606185913086,308.1861023902893,308.18832898139954,308.2004792690277,308.35068345069885,308.35068345069885,308.35068345069885,308.35068345069885,308.35068345069885,308.35068345069885,308.35068345069885,309.73530888557434,2,1.5214707851409912,None,,,,,,,,,,,,,,,,,,174,3,2025-03-03_12h54.29.313,comp,2024.2.4,60.03148776843323,2025-03-03 12h54.37.567115 -0500,
124,124,0,filler_square,None,None,None,None,None,None,None,None,None,None,2,2.3957955837249756,None,,,,,0,0,0,0,0,124,124,201,309.75060963630676,,,,,,,,,,,,,,,,,,,,,,,,,,,,,,,,,,,,,,,,,,,,,,,,,,,,,,,,,,,,,,,,,,,,,,,,,,,,,,,,,57.015257714599414,57.015257714599414,57.0107019262025,57.002566430183684,57.00565740772189,57.00169006002607,3.0,3.1,-153,272,0,-1,153,-252,309.7362723350525,309.7363135814667,309.73840498924255,309.75060963630676,309.90052461624146,309.90052461624146,309.90052461624146,309.90052461624146,309.90052461624146,309.90052461624146,309.90052461624146,312.151682138443,2,2.3957955837249756,None,,,,,,,,,,,,,,,,,,174,3,2025-03-03_12h54.29.313,comp,2024.2.4,60.03148776843323,2025-03-03 12h54.37.567115 -0500,
125,125,0,critical,hwd,20.0,1.0,lower,133.0,57.0,57.0,133.0,78.0,78.0,2,2.5165812969207764,None,,,,,0,0,0,0,0,125,125,102,312.16736221313477,,,,,,,,,,,,,,,,,,,,,,,,,,,,,,,,,,,,,,,,,,,,,,,,,,,,,,,,,,,,,,,,,,,,,,,,,,,,,,,,,133.0,57.0,57.0,133.0,78.0,78.0,1.0,1.1,-671,285,-480,278,-278,282,312.15247225761414,312.15251421928406,312.1549334526062,312.16736221313477,312.3173053264618,312.3173053264618,312.3173053264618,312.3173053264618,312.3173053264618,312.3173053264618,312.3173053264618,314.7016956806183,2,2.5165812969207764,None,,,,,,,,,,,,,,,,,,174,3,2025-03-03_12h54.29.313,comp,2024.2.4,60.03148776843323,2025-03-03 12h54.37.567115 -0500,
126,126,0,filler_square,None,None,None,None,None,None,None,None,None,None,1,0.9249203205108643,None,,,,,0,0,0,0,0,126,126,198,314.7171881198883,,,,,,,,,,,,,,,,,,,,,,,,,,,,,,,,,,,,,,,,,,,,,,,,,,,,,,,,,,,,,,,,,,,,,,,,,,,,,,,,,136.3467844980703,136.3467844980703,82.48410314691478,60.40782559204255,80.85827139511463,57.8615472782058,2.2,2.22,-194,287,0,-271,155,-279,314.70266580581665,314.70270824432373,314.70513558387756,314.7171881198883,314.8671998977661,314.8671998977661,314.8671998977661,314.8671998977661,314.8671998977661,314.8671998977661,314.8671998977661,315.65173506736755,1,0.9249203205108643,None,,,,,,,,,,,,,,,,,,174,3,2025-03-03_12h54.29.313,comp,2024.2.4,60.03148776843323,2025-03-03 12h54.37.567115 -0500,
127,127,0,filler_square,None,None,None,None,None,None,None,None,None,None,3,0.8326747417449951,None,,,,,0,0,0,0,0,127,127,175,315.66739225387573,,,,,,,,,,,,,,,,,,,,,,,,,,,,,,,,,,,,,,,,,,,,,,,,,,,,,,,,,,,,,,,,,,,,,,,,,,,,,,,,,106.08277756601213,62.81392984099989,91.13475784595727,68.86169972543891,115.78921297649032,115.78921297649032,3.0,3.2,-162,-255,0,-18,188,256,315.65271973609924,315.6527626514435,315.6551821231842,315.66739225387573,315.8172380924225,315.8172380924225,315.8172380924225,315.8172380924225,315.8172380924225,315.8172380924225,315.8172380924225,316.50188422203064,3,0.8326747417449951,None,,,,,,,,,,,,,,,,,,174,3,2025-03-03_12h54.29.313,comp,2024.2.4,60.03148776843323,2025-03-03 12h54.37.567115 -0500,
128,128,0,critical,dhw,20.0,2.1,lower,78.0,78.0,133.0,57.0,57.0,133.0,3,1.5557963848114014,None,,,,,0,0,0,0,0,128,128,26,316.51740288734436,,,,,,,,,,,,,,,,,,,,,,,,,,,,,,,,,,,,,,,,,,,,,,,,,,,,,,,,,,,,,,,,,,,,,,,,,,,,,,,,,78.0,78.0,133.0,57.0,57.0,133.0,2.1,2.12,-164,-281,0,-270,191,254,316.50268483161926,316.50272727012634,316.50515365600586,316.51740288734436,316.6671714782715,316.6671714782715,316.6671714782715,316.6671714782715,316.6671714782715,316.6671714782715,316.6671714782715,318.0852494239807,3,1.5557963848114014,None,,,,,,,,,,,,,,,,,,174,3,2025-03-03_12h54.29.313,comp,2024.2.4,60.03148776843323,2025-03-03 12h54.37.567115 -0500,
129,129,0,filler_random,None,None,None,None,None,None,None,None,None,None,2,1.652843713760376,None,,,,,0,0,0,0,0,129,129,168,318.10042333602905,,,,,,,,,,,,,,,,,,,,,,,,,,,,,,,,,,,,,,,,,,,,,,,,,,,,,,,,,,,,,,,,,,,,,,,,,,,,,,,,,118.56300275390578,75.843953863096,165.06256822809814,166.90386575440596,184.31921193083133,114.06941523764439,1.0,1.3,263,-284,480,-272,716,-284,318.0861599445343,318.0862011909485,318.08831000328064,318.10042333602905,318.2506983280182,318.2506983280182,318.2506983280182,318.2506983280182,318.2506983280182,318.2506983280182,318.2506983280182,319.76839780807495,2,1.652843713760376,None,,,,,,,,,,,,,,,,,,174,3,2025-03-03_12h54.29.313,comp,2024.2.4,60.03148776843323,2025-03-03 12h54.37.567115 -0500,
130,130,0,critical,dhw,20.0,4.0,upper,141.0,141.0,200.0,125.0,125.0,200.0,3,1.4586305618286133,None,,,,,0,0,0,0,0,130,130,59,319.7837028503418,,,,,,,,,,,,,,,,,,,,,,,,,,,,,,,,,,,,,,,,,,,,,,,,,,,,,,,,,,,,,,,,,,,,,,,,,,,,,,,,,141.0,141.0,200.0,125.0,125.0,200.0,4.0,4.2,-229,-11,0,-287,258,4,319.76915287971497,319.7691926956177,319.77153277397156,319.7837028503418,319.9342141151428,319.9342141151428,319.9342141151428,319.9342141151428,319.9342141151428,319.9342141151428,319.9342141151428,321.25196981430054,3,1.4586305618286133,None,,,,,,,,,,,,,,,,,,174,3,2025-03-03_12h54.29.313,comp,2024.2.4,60.03148776843323,2025-03-03 12h54.37.567115 -0500,
131,131,0,filler_square,None,None,None,None,None,None,None,None,None,None,3,0.9910809993743896,None,,,,,0,0,0,0,0,131,131,196,321.26735734939575,,,,,,,,,,,,,,,,,,,,,,,,,,,,,,,,,,,,,,,,,,,,,,,,,,,,,,,,,,,,,,,,,,,,,,,,,,,,,,,,,124.61511431428582,83.30977091476265,110.20175309996057,77.04617834874477,167.0474121312671,167.0474121312671,4.0,4.2,-176,-19,0,-267,218,12,321.2529170513153,321.2529582977295,321.2554626464844,321.26735734939575,321.4172992706299,321.4172992706299,321.4172992706299,321.4172992706299,321.4172992706299,321.4172992706299,321.4172992706299,322.2682693004608,3,0.9910809993743896,None,,,,,,,,,,,,,,,,,,174,3,2025-03-03_12h54.29.313,comp,2024.2.4,60.03148776843323,2025-03-03 12h54.37.567115 -0500,
132,132,0,critical,hwd,20.0,3.0,lower,133.0,57.0,57.0,133.0,78.0,78.0,2,1.237715482711792,None,,,,,0,0,0,0,0,132,132,104,322.2840528488159,,,,,,,,,,,,,,,,,,,,,,,,,,,,,,,,,,,,,,,,,,,,,,,,,,,,,,,,,,,,,,,,,,,,,,,,,,,,,,,,,133.0,57.0,57.0,133.0,78.0,78.0,3.0,3.1,-191,279,0,5,202,-264,322.26902961730957,322.2690706253052,322.27132415771484,322.2840528488159,322.4338629245758,322.4338629245758,322.4338629245758,322.4338629245758,322.4338629245758,322.4338629245758,322.4338629245758,323.53484559059143,2,1.237715482711792,None,,,,,,,,,,,,,,,,,,174,3,2025-03-03_12h54.29.313,comp,2024.2.4,60.03148776843323,2025-03-03 12h54.37.567115 -0500,
133,133,0,critical,whd,20.0,2.1,lower,57.0,133.0,133.0,57.0,78.0,78.0,2,2.2508976459503174,None,,,,,0,0,0,0,0,133,133,14,323.55033922195435,,,,,,,,,,,,,,,,,,,,,,,,,,,,,,,,,,,,,,,,,,,,,,,,,,,,,,,,,,,,,,,,,,,,,,,,,,,,,,,,,57.0,133.0,133.0,57.0,78.0,78.0,2.1,2.11,-191,259,0,279,164,-255,323.53566908836365,323.5357117652893,323.53823137283325,323.55033922195435,323.7005081176758,323.7005081176758,323.7005081176758,323.7005081176758,323.7005081176758,323.7005081176758,323.7005081176758,325.81836795806885,2,2.2508976459503174,None,,,,,,,,,,,,,,,,,,174,3,2025-03-03_12h54.29.313,comp,2024.2.4,60.03148776843323,2025-03-03 12h54.37.567115 -0500,
134,134,0,critical,hdw,20.0,4.0,lower,133.0,57.0,78.0,78.0,57.0,133.0,3,1.4007163047790527,None,,,,,0,0,0,0,0,134,134,118,325.8336741924286,,,,,,,,,,,,,,,,,,,,,,,,,,,,,,,,,,,,,,,,,,,,,,,,,,,,,,,,,,,,,,,,,,,,,,,,,,,,,,,,,133.0,57.0,78.0,78.0,57.0,133.0,4.0,4.2,-164,11,0,-268,202,5,325.81913709640503,325.81917786598206,325.82133054733276,325.8336741924286,325.9837827682495,325.9837827682495,325.9837827682495,325.9837827682495,325.9837827682495,325.9837827682495,325.9837827682495,327.25156140327454,3,1.4007163047790527,None,,,,,,,,,,,,,,,,,,174,3,2025-03-03_12h54.29.313,comp,2024.2.4,60.03148776843323,2025-03-03 12h54.37.567115 -0500,
135,135,0,critical,wdh,20.0,1.0,upper,125.0,200.0,141.0,141.0,200.0,125.0,1,2.4222819805145264,None,,,,,0,0,0,0,0,135,135,79,327.2670304775238,,,,,,,,,,,,,,,,,,,,,,,,,,,,,,,,,,,,,,,,,,,,,,,,,,,,,,,,,,,,,,,,,,,,,,,,,,,,,,,,,125.0,200.0,141.0,141.0,200.0,125.0,1.0,1.2,-266,11,0,-7,229,17,327.25232768058777,327.25236988067627,327.25474309921265,327.2670304775238,327.41741609573364,327.41741609573364,327.41741609573364,327.41741609573364,327.41741609573364,327.41741609573364,327.41741609573364,329.70208382606506,1,2.4222819805145264,None,,,,,,,,,,,,,,,,,,174,3,2025-03-03_12h54.29.313,comp,2024.2.4,60.03148776843323,2025-03-03 12h54.37.567115 -0500,
136,136,0,critical,hwd,35.0,1.0,lower,133.0,57.0,57.0,133.0,70.0,70.0,2,2.6769485473632812,None,,,,,0,0,0,0,0,136,136,96,329.71714663505554,,,,,,,,,,,,,,,,,,,,,,,,,,,,,,,,,,,,,,,,,,,,,,,,,,,,,,,,,,,,,,,,,,,,,,,,,,,,,,,,,133.0,57.0,57.0,133.0,70.0,70.0,1.0,1.3,289,-263,480,-271,678,-273,329.7029058933258,329.70294666290283,329.7054433822632,329.71714663505554,329.8674340248108,329.8674340248108,329.8674340248108,329.8674340248108,329.8674340248108,329.8674340248108,329.8674340248108,332.40149211883545,2,2.6769485473632812,None,,,,,,,,,,,,,,,,,,174,3,2025-03-03_12h54.29.313,comp,2024.2.4,60.03148776843323,2025-03-03 12h54.37.567115 -0500,
137,137,0,filler_square,None,None,None,None,None,None,None,None,None,None,1,0.8410851955413818,None,,,,,0,0,0,0,0,137,137,204,332.41754126548767,,,,,,,,,,,,,,,,,,,,,,,,,,,,,,,,,,,,,,,,,,,,,,,,,,,,,,,,,,,,,,,,,,,,,,,,,,,,,,,,,167.6345904181217,167.6345904181217,114.7333456160323,90.81793157578858,146.5579171381175,83.49355532652311,1.0,1.3,255,-270,480,-254,663,-258,332.4024758338928,332.4025180339813,332.40508103370667,332.41754126548767,332.5839605331421,332.5839605331421,332.5839605331421,332.5839605331421,332.5839605331421,332.5839605331421,332.5839605331421,333.268337726593,1,0.8410851955413818,None,,,,,,,,,,,,,,,,,,174,3,2025-03-03_12h54.29.313,comp,2024.2.4,60.03148776843323,2025-03-03 12h54.37.567115 -0500,
138,138,0,catch,None,None,None,None,None,None,None,None,None,None,2,0.8780395984649658,None,,,,,0,0,0,0,0,138,138,122,333.2839422225952,,,,,,,,,,,,,,,,,,,,,,,,,,,,,,,,,,,,,,,,,,,,,,,,,,,,,,,,,,,,,,,,,,,,,,,,,,,,,,,,,77,113,182,143,95,95,1.0,1.1,-704,257,-480,263,-265,276,333.26938676834106,333.26942896842957,333.271516084671,333.2839422225952,333.43390464782715,333.43390464782715,333.43390464782715,333.43390464782715,333.43390464782715,333.43390464782715,333.43390464782715,334.16829895973206,2,0.8780395984649658,None,,,,,,,,,,,,,,,,,,174,3,2025-03-03_12h54.29.313,comp,2024.2.4,60.03148776843323,2025-03-03 12h54.37.567115 -0500,
139,139,0,filler_random,None,None,None,None,None,None,None,None,None,None,3,1.0503358840942383,None,,,,,0,0,0,0,0,139,139,144,334.18380975723267,,,,,,,,,,,,,,,,,,,,,,,,,,,,,,,,,,,,,,,,,,,,,,,,,,,,,,,,,,,,,,,,,,,,,,,,,,,,,,,,,63.87315117546471,103.53312967922142,70.37971729216208,102.2650557284662,172.78548295166507,61.77483851832092,2.1,2.11,-199,280,0,268,178,-269,334.1691999435425,334.16925525665283,334.1716055870056,334.18380975723267,334.33388328552246,334.33388328552246,334.33388328552246,334.33388328552246,334.33388328552246,334.33388328552246,334.33388328552246,335.23527812957764,3,1.0503358840942383,None,,,,,,,,,,,,,,,,,,174,3,2025-03-03_12h54.29.313,comp,2024.2.4,60.03148776843323,2025-03-03 12h54.37.567115 -0500,
