thisN,thisTrialN,thisRepN,effect,order,distance,config,diag,h_1,w_1,h_2,w_2,h_3,w_3,rect_choice.keys,rect_choice.rt,rect_choice.duration,instructions_loop.thisRepN,instructions_loop.thisTrialN,instructions_loop.thisN,instructions_loop.thisIndex,blocks.thisRepN,blocks.thisTrialN,blocks.thisN,blocks.thisIndex,trials.thisRepN,trials.thisTrialN,trials.thisN,trials.thisIndex,thisRow.t,notes,consent.started,agree_button.started,decline_button.started,consent_img.started,mouse.started,consent.stopped,agree_button.numClicks,agree_button.timesOn,agree_button.timesOff,decline_button.numClicks,decline_button.timesOn,decline_button.timesOff,mouse.x,mouse.y,mouse.leftButton,mouse.midButton,mouse.rightButton,mouse.time,mouse.clicked_name,exp_params.started,exp_params.stopped,welcome.started,welcome_text.started,welcome.stopped,instructions_1.started,instructions_1_text_1.started,instructions_1_text_2.started,key_resp.started,instructions_1.stopped,instructions_loop.key_resp.keys,instructions_loop.key_resp.rt,instructions_loop.key_resp.duration,instructions_2.started,instructions_2_text_1.started,instructions_2_text_2.started,key_resp_2.started,instructions_2.stopped,instructions_loop.key_resp_2.keys,instructions_loop.key_resp_2.rt,instructions_loop.key_resp_2.duration,instructions_3.started,instructions_3_text_1.started,r1_instr3.started,r2_instr3.started,r3_instr3.started,r1_instr3_label.started,r2_instr3_label.started,r3_instr3_label.started,instructions_3_text_3.started,instructions_3_text_4.started,key_resp_3.started,instructions_3.stopped,instructions_loop.key_resp_3.keys,instructions_loop.key_resp_3.rt,instructions_loop.key_resp_3.duration,instructions_4.started,instructions_4_text_1.started,instructions_4_text_3.started,instructions_4_text_2.started,key_resp_4.started,instructions_4.stopped,instructions_loop.key_resp_4.keys,instructions_loop.key_resp_4.rt,instructions_loop.key_resp_4.duration,instructions_5.started,instructions_5_text_1.started,instructions_5_text_2.started,key_resp_5.started,instructions_5.stopped,instructions_loop.key_resp_5.keys,instructions_loop.key_resp_5.rt,instructions_loop.key_resp_5.duration,start_exp.started,start_exp_text.started,key_resp_6.started,start_exp.stopped,key_resp_6.keys,key_resp_6.rt,key_resp_6.duration,h_1_tmp,w_1_tmp,h_2_tmp,w_2_tmp,h_3_tmp,w_3_tmp,config_tmp,config_tmp_1,r_1_x,r_1_y,r_2_x,r_2_y,r_3_x,r_3_y,pre_trial.started,pre_trial.stopped,choice_trial.started,rect_choice.started,r_1.started,r_2.started,r_3.started,r_1_label.started,r_2_label.started,r_3_label.started,prompt.started,choice_trial.stopped,trials.rect_choice.keys,trials.rect_choice.rt,trials.rect_choice.duration,end_block.started,end_block_text.started,end_block.stopped,end.started,end_text.started,key_resp_7.started,end.stopped,key_resp_7.keys,key_resp_7.rt,key_resp_7.duration,debriefing.started,debrief_form.started,end_debrief.started,debriefing.stopped,end_debrief.keys,end_debrief.rt,end_debrief.duration,participant,computer,date,expName,psychopyVersion,frameRate,expStart,
,,,,,,,,,,,,,,,,,,,,,,,,,,,,,,,0.01961374282836914,0.03442502021789551,0.03442502021789551,0.03442502021789551,0.019418954849243164,25.1193528175354,1,[25.0830135345459],[25.08303213119507],0,,,[-84.0],[-518.0],[1],[0],[0],[25.0993492603302],['agree_button'],,,,,,,,,,,,,,,,,,,,,,,,,,,,,,,,,,,,,,,,,,,,,,,,,,,,,,,,,,,,,,,,,,,,,,,,,,,,,,,,,,,,,,,,,,,,,,,,,,,,,,,,,,,175,1,2025-03-03_14h54.43.673,comp,2024.2.4,None,2025-03-03 14h55.12.083964 -0500,
,,,,,,,,,,,,,,,,,,,,,,,,,,,,,,,,,,,,,,,,,,,,,,,,,,25.11976909637451,25.119821071624756,,,,,,,,,,,,,,,,,,,,,,,,,,,,,,,,,,,,,,,,,,,,,,,,,,,,,,,,,,,,,,,,,,,,,,,,,,,,,,,,,,,,,,,,,,,,,,,,,,,,,,,,,175,1,2025-03-03_14h54.43.673,comp,2024.2.4,None,2025-03-03 14h55.12.083964 -0500,
,,,,,,,,,,,,,,,,,,,,,,,,,,,,,,,,,,,,,,,,,,,,,,,,,,,,25.11985492706299,25.13244342803955,27.121137380599976,,,,,,,,,,,,,,,,,,,,,,,,,,,,,,,,,,,,,,,,,,,,,,,,,,,,,,,,,,,,,,,,,,,,,,,,,,,,,,,,,,,,,,,,,,,,,,,,,,,,,,175,1,2025-03-03_14h54.43.673,comp,2024.2.4,None,2025-03-03 14h55.12.083964 -0500,
0,0,0,,,,,,,,,,,,,,,0,0,0,0,,,,,,,,,27.14629077911377,,,,,,,,,,,,,,,,,,,,,,,,,,27.122041702270508,27.14629077911377,27.14629077911377,28.62013530731201,31.424252033233643,space,2.799004554748535,None,31.424405813217163,31.44008469581604,31.44008469581604,32.939589977264404,36.97309422492981,space,4.023402452468872,None,36.97326135635376,37.003172636032104,37.003172636032104,37.003172636032104,37.003172636032104,37.003172636032104,37.003172636032104,37.003172636032104,37.003172636032104,37.003172636032104,38.475090980529785,50.872320890426636,space,12.383971691131592,None,50.87248921394348,50.890300273895264,50.890300273895264,50.890300273895264,52.37693548202515,56.58133554458618,space,4.202057600021362,None,56.5814950466156,56.59668207168579,56.59668207168579,58.08803367614746,58.94896411895752,space,0.8517184257507324,None,58.94920349121094,58.96428442001343,58.96428442001343,59.94917821884155,space,0.9753966331481934,None,,,,,,,,,,,,,,,,,,,,,,,,,,,,,,,,,,,,,,,,,,,,,,,175,1,2025-03-03_14h54.43.673,comp,2024.2.4,None,2025-03-03 14h55.12.083964 -0500,
0,0,0,critical,hwd,20.0,2.1,lower,133.0,57.0,57.0,133.0,78.0,78.0,2,6.894438982009888,None,,,,,0,0,0,0,0,0,0,42,60.02868914604187,,,,,,,,,,,,,,,,,,,,,,,,,,,,,,,,,,,,,,,,,,,,,,,,,,,,,,,,,,,,,,,,,,,,,,,,,,,,,,,,,133.0,57.0,57.0,133.0,78.0,78.0,2.1,2.11,-191,277,0,264,202,-274,60.01241087913513,60.01245331764221,60.014079332351685,60.02868914604187,60.17613220214844,60.17613220214844,60.17613220214844,60.17613220214844,60.17613220214844,60.17613220214844,60.17613220214844,66.93610978126526,2,6.894438982009888,None,,,,,,,,,,,,,,,,,,175,1,2025-03-03_14h54.43.673,comp,2024.2.4,None,2025-03-03 14h55.12.083964 -0500,
1,1,0,critical,wdh,35.0,1.0,upper,125.0,200.0,127.0,127.0,200.0,125.0,1,3.8885536193847656,None,,,,,0,0,0,0,0,1,1,73,66.95447611808777,,,,,,,,,,,,,,,,,,,,,,,,,,,,,,,,,,,,,,,,,,,,,,,,,,,,,,,,,,,,,,,,,,,,,,,,,,,,,,,,,125.0,200.0,127.0,127.0,200.0,125.0,1.0,1.2,-260,-13,0,-11,222,-3,66.93767309188843,66.93780279159546,66.94097518920898,66.95447611808777,67.10138726234436,67.10138726234436,67.10138726234436,67.10138726234436,67.10138726234436,67.10138726234436,67.10138726234436,70.85822772979736,1,3.8885536193847656,None,,,,,,,,,,,,,,,,,,175,1,2025-03-03_14h54.43.673,comp,2024.2.4,None,2025-03-03 14h55.12.083964 -0500,
2,2,0,critical,dwh,20.0,2.1,upper,141.0,141.0,125.0,200.0,200.0,125.0,2,5.879603862762451,None,,,,,0,0,0,0,0,2,2,31,70.87611222267151,,,,,,,,,,,,,,,,,,,,,,,,,,,,,,,,,,,,,,,,,,,,,,,,,,,,,,,,,,,,,,,,,,,,,,,,,,,,,,,,,141.0,141.0,125.0,200.0,200.0,125.0,2.1,2.11,-266,263,0,257,258,-265,70.86015272140503,70.86023664474487,70.86454272270203,70.87611222267151,71.01900053024292,71.01900053024292,71.01900053024292,71.01900053024292,71.01900053024292,71.01900053024292,71.01900053024292,76.75989842414856,2,5.879603862762451,None,,,,,,,,,,,,,,,,,,175,1,2025-03-03_14h54.43.673,comp,2024.2.4,None,2025-03-03 14h55.12.083964 -0500,
3,3,0,critical,dhw,35.0,1.0,lower,70.0,70.0,133.0,57.0,57.0,133.0,3,6.930361032485962,None,,,,,0,0,0,0,0,3,3,48,76.77696681022644,,,,,,,,,,,,,,,,,,,,,,,,,,,,,,,,,,,,,,,,,,,,,,,,,,,,,,,,,,,,,,,,,,,,,,,,,,,,,,,,,70.0,70.0,133.0,57.0,57.0,133.0,1.0,1.1,-640,261,-480,266,-289,267,76.76157712936401,76.76170587539673,76.76517701148987,76.77696681022644,76.92038798332214,76.92038798332214,76.92038798332214,76.92038798332214,76.92038798332214,76.92038798332214,76.92038798332214,83.72455048561096,3,6.930361032485962,None,,,,,,,,,,,,,,,,,,175,1,2025-03-03_14h54.43.673,comp,2024.2.4,None,2025-03-03 14h55.12.083964 -0500,
4,4,0,critical,hdw,20.0,2.1,lower,133.0,57.0,78.0,78.0,57.0,133.0,3,3.630669593811035,None,,,,,0,0,0,0,0,4,4,46,83.74059176445007,,,,,,,,,,,,,,,,,,,,,,,,,,,,,,,,,,,,,,,,,,,,,,,,,,,,,,,,,,,,,,,,,,,,,,,,,,,,,,,,,133.0,57.0,78.0,78.0,57.0,133.0,2.1,2.11,-164,259,0,270,202,-271,83.72604155540466,83.72611951828003,83.73033905029297,83.74059176445007,83.89052987098694,83.89052987098694,83.89052987098694,83.89052987098694,83.89052987098694,83.89052987098694,83.89052987098694,87.37534475326538,3,3.630669593811035,None,,,,,,,,,,,,,,,,,,175,1,2025-03-03_14h54.43.673,comp,2024.2.4,None,2025-03-03 14h55.12.083964 -0500,
5,5,0,critical,whd,20.0,3.0,upper,125.0,200.0,200.0,125.0,141.0,141.0,1,2.111557960510254,None,,,,,0,0,0,0,0,5,5,93,87.39620590209961,,,,,,,,,,,,,,,,,,,,,,,,,,,,,,,,,,,,,,,,,,,,,,,,,,,,,,,,,,,,,,,,,,,,,,,,,,,,,,,,,125.0,200.0,200.0,125.0,141.0,141.0,3.0,3.1,-258,261,0,18,229,-290,87.37683176994324,87.37691020965576,87.38021898269653,87.39620590209961,87.5401771068573,87.5401771068573,87.5401771068573,87.5401771068573,87.5401771068573,87.5401771068573,87.5401771068573,89.51329612731934,1,2.111557960510254,None,,,,,,,,,,,,,,,,,,175,1,2025-03-03_14h54.43.673,comp,2024.2.4,None,2025-03-03 14h55.12.083964 -0500,
6,6,0,critical,hwd,35.0,3.0,upper,200.0,125.0,125.0,200.0,127.0,127.0,2,1.522188663482666,None,,,,,0,0,0,0,0,6,6,99,89.52966499328613,,,,,,,,,,,,,,,,,,,,,,,,,,,,,,,,,,,,,,,,,,,,,,,,,,,,,,,,,,,,,,,,,,,,,,,,,,,,,,,,,200.0,125.0,125.0,200.0,127.0,127.0,3.0,3.1,-258,273,0,-8,260,-276,89.51507878303528,89.51521515846252,89.51890325546265,89.52966499328613,89.67276692390442,89.67276692390442,89.67276692390442,89.67276692390442,89.67276692390442,89.67276692390442,89.67276692390442,91.05968809127808,2,1.522188663482666,None,,,,,,,,,,,,,,,,,,175,1,2025-03-03_14h54.43.673,comp,2024.2.4,None,2025-03-03 14h55.12.083964 -0500,
7,7,0,critical,whd,35.0,2.1,lower,57.0,133.0,133.0,57.0,70.0,70.0,1,2.3920745849609375,None,,,,,0,0,0,0,0,7,7,12,91.07628035545349,,,,,,,,,,,,,,,,,,,,,,,,,,,,,,,,,,,,,,,,,,,,,,,,,,,,,,,,,,,,,,,,,,,,,,,,,,,,,,,,,57.0,133.0,133.0,57.0,70.0,70.0,2.1,2.11,-191,271,0,272,160,-266,91.06121182441711,91.06129097938538,91.06550025939941,91.07628035545349,91.22382616996765,91.22382616996765,91.22382616996765,91.22382616996765,91.22382616996765,91.22382616996765,91.22382616996765,93.4755802154541,1,2.3920745849609375,None,,,,,,,,,,,,,,,,,,175,1,2025-03-03_14h54.43.673,comp,2024.2.4,None,2025-03-03 14h55.12.083964 -0500,
8,8,0,critical,dwh,35.0,1.0,lower,70.0,70.0,57.0,133.0,133.0,57.0,2,1.7731518745422363,None,,,,,0,0,0,0,0,8,8,60,93.4945342540741,,,,,,,,,,,,,,,,,,,,,,,,,,,,,,,,,,,,,,,,,,,,,,,,,,,,,,,,,,,,,,,,,,,,,,,,,,,,,,,,,70.0,70.0,57.0,133.0,133.0,57.0,1.0,1.1,-678,268,-480,272,-289,255,93.47719597816467,93.47727632522583,93.48074865341187,93.4945342540741,93.64409947395325,93.64409947395325,93.64409947395325,93.64409947395325,93.64409947395325,93.64409947395325,93.64409947395325,95.27622699737549,2,1.7731518745422363,None,,,,,,,,,,,,,,,,,,175,1,2025-03-03_14h54.43.673,comp,2024.2.4,None,2025-03-03 14h55.12.083964 -0500,
9,9,0,critical,hdw,20.0,2.1,upper,200.0,125.0,141.0,141.0,125.0,200.0,3,4.63579249382019,None,,,,,0,0,0,0,0,9,9,47,95.29594373703003,,,,,,,,,,,,,,,,,,,,,,,,,,,,,,,,,,,,,,,,,,,,,,,,,,,,,,,,,,,,,,,,,,,,,,,,,,,,,,,,,200.0,125.0,141.0,141.0,125.0,200.0,2.1,2.11,-229,283,0,256,266,-279,95.2778251171112,95.27789878845215,95.28138184547424,95.29594373703003,95.42952609062195,95.42952609062195,95.42952609062195,95.42952609062195,95.42952609062195,95.42952609062195,95.42952609062195,99.93921852111816,3,4.63579249382019,None,,,,,,,,,,,,,,,,,,175,1,2025-03-03_14h54.43.673,comp,2024.2.4,None,2025-03-03 14h55.12.083964 -0500,
10,10,0,critical,wdh,35.0,3.0,upper,125.0,200.0,127.0,127.0,200.0,125.0,1,12.359869241714478,None,,,,,0,0,0,0,0,10,10,75,99.95548415184021,,,,,,,,,,,,,,,,,,,,,,,,,,,,,,,,,,,,,,,,,,,,,,,,,,,,,,,,,,,,,,,,,,,,,,,,,,,,,,,,,125.0,200.0,127.0,127.0,200.0,125.0,3.0,3.2,-260,-268,0,-8,222,289,99.94072437286377,99.94080352783203,99.94387483596802,99.95548415184021,100.09607648849487,100.09607648849487,100.09607648849487,100.09607648849487,100.09607648849487,100.09607648849487,100.09607648849487,112.3344213962555,1,12.359869241714478,None,,,,,,,,,,,,,,,,,,175,1,2025-03-03_14h54.43.673,comp,2024.2.4,None,2025-03-03 14h55.12.083964 -0500,
11,11,0,critical,hdw,20.0,1.0,upper,200.0,125.0,141.0,141.0,125.0,200.0,3,2.556697130203247,None,,,,,0,0,0,0,0,11,11,115,112.3505208492279,,,,,,,,,,,,,,,,,,,,,,,,,,,,,,,,,,,,,,,,,,,,,,,,,,,,,,,,,,,,,,,,,,,,,,,,,,,,,,,,,200.0,125.0,141.0,141.0,125.0,200.0,1.0,1.2,-229,-7,0,2,266,17,112.3359010219574,112.33597803115845,112.33917164802551,112.3505208492279,112.49925422668457,112.49925422668457,112.49925422668457,112.49925422668457,112.49925422668457,112.49925422668457,112.49925422668457,114.9222993850708,3,2.556697130203247,None,,,,,,,,,,,,,,,,,,175,1,2025-03-03_14h54.43.673,comp,2024.2.4,None,2025-03-03 14h55.12.083964 -0500,
12,12,0,critical,wdh,20.0,4.0,lower,57.0,133.0,78.0,78.0,133.0,57.0,1,2.6819920539855957,None,,,,,0,0,0,0,0,12,12,82,114.93727135658264,,,,,,,,,,,,,,,,,,,,,,,,,,,,,,,,,,,,,,,,,,,,,,,,,,,,,,,,,,,,,,,,,,,,,,,,,,,,,,,,,57.0,133.0,78.0,78.0,133.0,57.0,4.0,4.1,-202,-271,0,-11,164,-270,114.92382907867432,114.92390608787537,114.92697429656982,114.93727135658264,115.0832166671753,115.0832166671753,115.0832166671753,115.0832166671753,115.0832166671753,115.0832166671753,115.0832166671753,117.6335220336914,1,2.6819920539855957,None,,,,,,,,,,,,,,,,,,175,1,2025-03-03_14h54.43.673,comp,2024.2.4,None,2025-03-03 14h55.12.083964 -0500,
13,13,0,critical,hdw,35.0,2.1,lower,133.0,57.0,70.0,70.0,57.0,133.0,3,2.190207004547119,None,,,,,0,0,0,0,0,13,13,44,117.65361547470093,,,,,,,,,,,,,,,,,,,,,,,,,,,,,,,,,,,,,,,,,,,,,,,,,,,,,,,,,,,,,,,,,,,,,,,,,,,,,,,,,133.0,57.0,70.0,70.0,57.0,133.0,2.1,2.12,-160,-260,0,-273,198,289,117.635094165802,117.63517642021179,117.63847589492798,117.65361547470093,117.80057668685913,117.80057668685913,117.80057668685913,117.80057668685913,117.80057668685913,117.80057668685913,117.80057668685913,119.85226726531982,3,2.190207004547119,None,,,,,,,,,,,,,,,,,,175,1,2025-03-03_14h54.43.673,comp,2024.2.4,None,2025-03-03 14h55.12.083964 -0500,
14,14,0,filler_random,None,None,None,None,None,None,None,None,None,None,3,2.295632839202881,None,,,,,0,0,0,0,0,14,14,157,119.86830568313599,,,,,,,,,,,,,,,,,,,,,,,,,,,,,,,,,,,,,,,,,,,,,,,,,,,,,,,,,,,,,,,,,,,,,,,,,,,,,,,,,77.87545389668871,153.25275536292696,61.80049318843264,179.66431272184033,104.17976706529333,198.39550463344057,2.1,2.12,-262,-253,0,-277,285,265,119.85390329360962,119.85398435592651,119.8574903011322,119.86830568313599,120.01895117759705,120.01895117759705,120.01895117759705,120.01895117759705,120.01895117759705,120.01895117759705,120.01895117759705,122.16854810714722,3,2.295632839202881,None,,,,,,,,,,,,,,,,,,175,1,2025-03-03_14h54.43.673,comp,2024.2.4,None,2025-03-03 14h55.12.083964 -0500,
15,15,0,catch,None,None,None,None,None,None,None,None,None,None,2,1.297088861465454,None,,,,,0,0,0,0,0,15,15,126,122.18630981445312,,,,,,,,,,,,,,,,,,,,,,,,,,,,,,,,,,,,,,,,,,,,,,,,,,,,,,,,,,,,,,,,,,,,,,,,,,,,,,,,,72,118,197,128,83,107,2.1,2.11,-219,288,0,262,214,-269,122.17073607444763,122.17081499099731,122.1745400428772,122.18630981445312,122.33796381950378,122.33796381950378,122.33796381950378,122.33796381950378,122.33796381950378,122.33796381950378,122.33796381950378,123.50352144241333,2,1.297088861465454,None,,,,,,,,,,,,,,,,,,175,1,2025-03-03_14h54.43.673,comp,2024.2.4,None,2025-03-03 14h55.12.083964 -0500,
16,16,0,filler_random,None,None,None,None,None,None,None,None,None,None,1,2.8125991821289062,None,,,,,0,0,0,0,0,16,16,133,123.51928520202637,,,,,,,,,,,,,,,,,,,,,,,,,,,,,,,,,,,,,,,,,,,,,,,,,,,,,,,,,,,,,,,,,,,,,,,,,,,,,,,,,150.64446887462492,196.99937725692166,121.32783660337405,116.73732753211851,112.35229344616766,187.1700522598276,3.0,3.2,-253,-280,0,-2,248,270,123.5053060054779,123.50539422035217,123.50881743431091,123.51928520202637,123.67035293579102,123.67035293579102,123.67035293579102,123.67035293579102,123.67035293579102,123.67035293579102,123.67035293579102,126.33396863937378,1,2.8125991821289062,None,,,,,,,,,,,,,,,,,,175,1,2025-03-03_14h54.43.673,comp,2024.2.4,None,2025-03-03 14h55.12.083964 -0500,
17,17,0,filler_random,None,None,None,None,None,None,None,None,None,None,2,1.2125110626220703,None,,,,,0,0,0,0,0,17,17,154,126.35110187530518,,,,,,,,,,,,,,,,,,,,,,,,,,,,,,,,,,,,,,,,,,,,,,,,,,,,,,,,,,,,,,,,,,,,,,,,,,,,,,,,,92.435165513867,162.68741756568397,140.0666632581664,178.91281671536012,180.54114876949023,112.00213263641692,1.0,1.3,213,-281,480,-256,721,-269,126.33573174476624,126.3358108997345,126.33889508247375,126.35110187530518,126.48748850822449,126.48748850822449,126.48748850822449,126.48748850822449,126.48748850822449,126.48748850822449,126.48748850822449,127.57145881652832,2,1.2125110626220703,None,,,,,,,,,,,,,,,,,,175,1,2025-03-03_14h54.43.673,comp,2024.2.4,None,2025-03-03 14h55.12.083964 -0500,
18,18,0,critical,whd,20.0,4.0,lower,57.0,133.0,133.0,57.0,78.0,78.0,1,2.3765664100646973,None,,,,,0,0,0,0,0,18,18,94,127.5874330997467,,,,,,,,,,,,,,,,,,,,,,,,,,,,,,,,,,,,,,,,,,,,,,,,,,,,,,,,,,,,,,,,,,,,,,,,,,,,,,,,,57.0,133.0,133.0,57.0,78.0,78.0,4.0,4.2,-191,17,0,-272,164,8,127.572988986969,127.57309055328369,127.57667064666748,127.5874330997467,127.73737812042236,127.73737812042236,127.73737812042236,127.73737812042236,127.73737812042236,127.73737812042236,127.73737812042236,129.9713613986969,1,2.3765664100646973,None,,,,,,,,,,,,,,,,,,175,1,2025-03-03_14h54.43.673,comp,2024.2.4,None,2025-03-03 14h55.12.083964 -0500,
19,19,0,critical,dhw,35.0,3.0,lower,70.0,70.0,133.0,57.0,57.0,133.0,3,1.7121174335479736,None,,,,,0,0,0,0,0,19,19,50,129.98755383491516,,,,,,,,,,,,,,,,,,,,,,,,,,,,,,,,,,,,,,,,,,,,,,,,,,,,,,,,,,,,,,,,,,,,,,,,,,,,,,,,,70.0,70.0,133.0,57.0,57.0,133.0,3.0,3.1,-160,268,0,11,191,-266,129.97295236587524,129.97306942939758,129.97676491737366,129.98755383491516,130.13489890098572,130.13489890098572,130.13489890098572,130.13489890098572,130.13489890098572,130.13489890098572,130.13489890098572,131.70333456993103,3,1.7121174335479736,None,,,,,,,,,,,,,,,,,,175,1,2025-03-03_14h54.43.673,comp,2024.2.4,None,2025-03-03 14h55.12.083964 -0500,
20,20,0,critical,dhw,35.0,1.0,upper,127.0,127.0,200.0,125.0,125.0,200.0,3,2.0761466026306152,None,,,,,0,0,0,0,0,20,20,49,131.71995782852173,,,,,,,,,,,,,,,,,,,,,,,,,,,,,,,,,,,,,,,,,,,,,,,,,,,,,,,,,,,,,,,,,,,,,,,,,,,,,,,,,127.0,127.0,200.0,125.0,125.0,200.0,1.0,1.3,258,-278,480,-272,738,-269,131.70486640930176,131.70494318008423,131.70818567276,131.71995782852173,131.86012315750122,131.86012315750122,131.86012315750122,131.86012315750122,131.86012315750122,131.86012315750122,131.86012315750122,133.8032956123352,3,2.0761466026306152,None,,,,,,,,,,,,,,,,,,175,1,2025-03-03_14h54.43.673,comp,2024.2.4,None,2025-03-03 14h55.12.083964 -0500,
21,21,0,critical,dwh,20.0,4.0,upper,141.0,141.0,125.0,200.0,200.0,125.0,2,2.0148215293884277,None,,,,,0,0,0,0,0,21,21,71,133.82036876678467,,,,,,,,,,,,,,,,,,,,,,,,,,,,,,,,,,,,,,,,,,,,,,,,,,,,,,,,,,,,,,,,,,,,,,,,,,,,,,,,,141.0,141.0,125.0,200.0,200.0,125.0,4.0,4.2,-266,-9,0,-272,258,-3,133.80484747886658,133.80492854118347,133.80804181098938,133.82036876678467,133.97112655639648,133.97112655639648,133.97112655639648,133.97112655639648,133.97112655639648,133.97112655639648,133.97112655639648,135.84691667556763,2,2.0148215293884277,None,,,,,,,,,,,,,,,,,,175,1,2025-03-03_14h54.43.673,comp,2024.2.4,None,2025-03-03 14h55.12.083964 -0500,
22,22,0,filler_square,None,None,None,None,None,None,None,None,None,None,1,1.2601542472839355,None,,,,,0,0,0,0,0,22,22,180,135.86359810829163,,,,,,,,,,,,,,,,,,,,,,,,,,,,,,,,,,,,,,,,,,,,,,,,,,,,,,,,,,,,,,,,,,,,,,,,,,,,,,,,,134.6112257750895,134.6112257750895,126.89743609952774,59.62303262030071,126.71133362446828,62.74735505587967,1.0,1.3,287,-255,480,-274,637,-286,135.84894227981567,135.8490526676178,135.85257387161255,135.86359810829163,136.00712537765503,136.00712537765503,136.00712537765503,136.00712537765503,136.00712537765503,136.00712537765503,136.00712537765503,137.12960577011108,1,1.2601542472839355,None,,,,,,,,,,,,,,,,,,175,1,2025-03-03_14h54.43.673,comp,2024.2.4,None,2025-03-03 14h55.12.083964 -0500,
23,23,0,critical,whd,35.0,2.1,upper,125.0,200.0,200.0,125.0,127.0,127.0,1,1.4210398197174072,None,,,,,0,0,0,0,0,23,23,13,137.15011525154114,,,,,,,,,,,,,,,,,,,,,,,,,,,,,,,,,,,,,,,,,,,,,,,,,,,,,,,,,,,,,,,,,,,,,,,,,,,,,,,,,125.0,200.0,200.0,125.0,127.0,127.0,2.1,2.11,-258,257,0,254,222,-261,137.13115096092224,137.13122820854187,137.13440942764282,137.15011525154114,137.29500150680542,137.29500150680542,137.29500150680542,137.29500150680542,137.29500150680542,137.29500150680542,137.29500150680542,138.58473181724548,1,1.4210398197174072,None,,,,,,,,,,,,,,,,,,175,1,2025-03-03_14h54.43.673,comp,2024.2.4,None,2025-03-03 14h55.12.083964 -0500,
24,24,0,filler_square,None,None,None,None,None,None,None,None,None,None,2,1.517066478729248,None,,,,,0,0,0,0,0,24,24,199,138.6061553955078,,,,,,,,,,,,,,,,,,,,,,,,,,,,,,,,,,,,,,,,,,,,,,,,,,,,,,,,,,,,,,,,,,,,,,,,,,,,,,,,,135.79489456708373,173.22810636112098,175.51266335582548,175.51266335582548,139.63146470088833,170.74898900110554,4.0,4.2,-270,6,0,-266,269,-16,138.58668446540833,138.58679103851318,138.59024620056152,138.6061553955078,138.74160623550415,138.74160623550415,138.74160623550415,138.74160623550415,138.74160623550415,138.74160623550415,138.74160623550415,140.12727046012878,2,1.517066478729248,None,,,,,,,,,,,,,,,,,,175,1,2025-03-03_14h54.43.673,comp,2024.2.4,None,2025-03-03 14h55.12.083964 -0500,
25,25,0,critical,wdh,35.0,4.0,upper,125.0,200.0,127.0,127.0,200.0,125.0,1,1.370680809020996,None,,,,,0,0,0,0,0,25,25,77,140.14454102516174,,,,,,,,,,,,,,,,,,,,,,,,,,,,,,,,,,,,,,,,,,,,,,,,,,,,,,,,,,,,,,,,,,,,,,,,,,,,,,,,,125.0,200.0,127.0,127.0,200.0,125.0,4.0,4.1,-260,-277,0,1,222,-268,140.12911748886108,140.1292552947998,140.13363075256348,140.14454102516174,140.29490089416504,140.29490089416504,140.29490089416504,140.29490089416504,140.29490089416504,140.29490089416504,140.29490089416504,141.53314208984375,1,1.370680809020996,None,,,,,,,,,,,,,,,,,,175,1,2025-03-03_14h54.43.673,comp,2024.2.4,None,2025-03-03 14h55.12.083964 -0500,
26,26,0,critical,hwd,35.0,1.0,lower,133.0,57.0,57.0,133.0,70.0,70.0,2,1.2201004028320312,None,,,,,0,0,0,0,0,26,26,96,141.55121517181396,,,,,,,,,,,,,,,,,,,,,,,,,,,,,,,,,,,,,,,,,,,,,,,,,,,,,,,,,,,,,,,,,,,,,,,,,,,,,,,,,133.0,57.0,57.0,133.0,70.0,70.0,1.0,1.1,-671,257,-480,263,-282,283,141.53477501869202,141.53485107421875,141.53841710090637,141.55121517181396,141.69095087051392,141.69095087051392,141.69095087051392,141.69095087051392,141.69095087051392,141.69095087051392,141.69095087051392,142.7903709411621,2,1.2201004028320312,None,,,,,,,,,,,,,,,,,,175,1,2025-03-03_14h54.43.673,comp,2024.2.4,None,2025-03-03 14h55.12.083964 -0500,
27,27,0,critical,hwd,20.0,4.0,lower,133.0,57.0,57.0,133.0,78.0,78.0,2,5.371211051940918,None,,,,,0,0,0,0,0,27,27,106,142.8082616329193,,,,,,,,,,,,,,,,,,,,,,,,,,,,,,,,,,,,,,,,,,,,,,,,,,,,,,,,,,,,,,,,,,,,,,,,,,,,,,,,,133.0,57.0,57.0,133.0,78.0,78.0,4.0,4.1,-191,-290,0,-1,202,-285,142.79193544387817,142.79204273223877,142.7955310344696,142.8082616329193,142.95829558372498,142.95829558372498,142.95829558372498,142.95829558372498,142.95829558372498,142.95829558372498,142.95829558372498,148.18207383155823,2,5.371211051940918,None,,,,,,,,,,,,,,,,,,175,1,2025-03-03_14h54.43.673,comp,2024.2.4,None,2025-03-03 14h55.12.083964 -0500,
28,28,0,filler_random,None,None,None,None,None,None,None,None,None,None,1,1.2350952625274658,None,,,,,0,0,0,0,0,28,28,164,148.200097322464,,,,,,,,,,,,,,,,,,,,,,,,,,,,,,,,,,,,,,,,,,,,,,,,,,,,,,,,,,,,,,,,,,,,,,,,,,,,,,,,,190.1633853915443,166.2842072402181,108.54313883165145,79.59833610628407,193.4854296967058,123.25738469527411,2.1,2.12,-219,-274,0,-270,197,288,148.18379402160645,148.18387150764465,148.1869556903839,148.200097322464,148.34291911125183,148.34291911125183,148.34291911125183,148.34291911125183,148.34291911125183,148.34291911125183,148.34291911125183,149.44841289520264,1,1.2350952625274658,None,,,,,,,,,,,,,,,,,,175,1,2025-03-03_14h54.43.673,comp,2024.2.4,None,2025-03-03 14h55.12.083964 -0500,
29,29,0,critical,hwd,20.0,1.0,lower,133.0,57.0,57.0,133.0,78.0,78.0,2,2.5313241481781006,None,,,,,0,0,0,0,0,29,29,102,149.46385192871094,,,,,,,,,,,,,,,,,,,,,,,,,,,,,,,,,,,,,,,,,,,,,,,,,,,,,,,,,,,,,,,,,,,,,,,,,,,,,,,,,133.0,57.0,57.0,133.0,78.0,78.0,1.0,1.2,-191,18,0,-3,202,-15,149.44998598098755,149.4501039981842,149.4532551765442,149.46385192871094,149.61084938049316,149.61084938049316,149.61084938049316,149.61084938049316,149.61084938049316,149.61084938049316,149.61084938049316,152.01315879821777,2,2.5313241481781006,None,,,,,,,,,,,,,,,,,,175,1,2025-03-03_14h54.43.673,comp,2024.2.4,None,2025-03-03 14h55.12.083964 -0500,
30,30,0,critical,dwh,20.0,1.0,upper,141.0,141.0,125.0,200.0,200.0,125.0,2,1.7004985809326172,None,,,,,0,0,0,0,0,30,30,67,152.03074264526367,,,,,,,,,,,,,,,,,,,,,,,,,,,,,,,,,,,,,,,,,,,,,,,,,,,,,,,,,,,,,,,,,,,,,,,,,,,,,,,,,141.0,141.0,125.0,200.0,200.0,125.0,1.0,1.2,-266,1,0,7,258,11,152.0147511959076,152.01485204696655,152.01803421974182,152.03074264526367,152.1783561706543,152.1783561706543,152.1783561706543,152.1783561706543,152.1783561706543,152.1783561706543,152.1783561706543,153.74449253082275,2,1.7004985809326172,None,,,,,,,,,,,,,,,,,,175,1,2025-03-03_14h54.43.673,comp,2024.2.4,None,2025-03-03 14h55.12.083964 -0500,
31,31,0,critical,dhw,20.0,1.0,upper,141.0,141.0,200.0,125.0,125.0,200.0,3,1.9468917846679688,None,,,,,0,0,0,0,0,31,31,55,153.76120400428772,,,,,,,,,,,,,,,,,,,,,,,,,,,,,,,,,,,,,,,,,,,,,,,,,,,,,,,,,,,,,,,,,,,,,,,,,,,,,,,,,141.0,141.0,200.0,125.0,125.0,200.0,1.0,1.3,251,-267,480,-255,738,-262,153.74614262580872,153.74624586105347,153.74987530708313,153.76120400428772,153.916362285614,153.916362285614,153.916362285614,153.916362285614,153.916362285614,153.916362285614,153.916362285614,155.71410965919495,3,1.9468917846679688,None,,,,,,,,,,,,,,,,,,175,1,2025-03-03_14h54.43.673,comp,2024.2.4,None,2025-03-03 14h55.12.083964 -0500,
32,32,0,filler_square,None,None,None,None,None,None,None,None,None,None,3,1.4087445735931396,None,,,,,0,0,0,0,0,32,32,175,155.7311291694641,,,,,,,,,,,,,,,,,,,,,,,,,,,,,,,,,,,,,,,,,,,,,,,,,,,,,,,,,,,,,,,,,,,,,,,,,,,,,,,,,85.15335616453358,125.97688713808583,93.61614631312214,137.3848381375103,145.87244365333785,145.87244365333785,2.1,2.11,-228,264,0,273,238,-264,155.7162036895752,155.7162845134735,155.72005414962769,155.7311291694641,155.88027596473694,155.88027596473694,155.88027596473694,155.88027596473694,155.88027596473694,155.88027596473694,155.88027596473694,157.14713788032532,3,1.4087445735931396,None,,,,,,,,,,,,,,,,,,175,1,2025-03-03_14h54.43.673,comp,2024.2.4,None,2025-03-03 14h55.12.083964 -0500,
33,33,0,critical,dwh,35.0,1.0,upper,127.0,127.0,125.0,200.0,200.0,125.0,2,1.2000043392181396,None,,,,,0,0,0,0,0,33,33,61,157.16320705413818,,,,,,,,,,,,,,,,,,,,,,,,,,,,,,,,,,,,,,,,,,,,,,,,,,,,,,,,,,,,,,,,,,,,,,,,,,,,,,,,,127.0,127.0,125.0,200.0,200.0,125.0,1.0,1.2,-260,10,0,15,258,14,157.14868116378784,157.14876198768616,157.15246868133545,157.16320705413818,157.3047788143158,157.3047788143158,157.3047788143158,157.3047788143158,157.3047788143158,157.3047788143158,157.3047788143158,158.38005828857422,2,1.2000043392181396,None,,,,,,,,,,,,,,,,,,175,1,2025-03-03_14h54.43.673,comp,2024.2.4,None,2025-03-03 14h55.12.083964 -0500,
34,34,0,filler_random,None,None,None,None,None,None,None,None,None,None,1,1.3920211791992188,None,,,,,0,0,0,0,0,34,34,144,158.39636135101318,,,,,,,,,,,,,,,,,,,,,,,,,,,,,,,,,,,,,,,,,,,,,,,,,,,,,,,,,,,,,,,,,,,,,,,,,,,,,,,,,132.2780068506633,121.43927462289659,61.47388821489142,181.27866752656044,119.97197319399194,110.20292755844736,3.0,3.2,-247,-269,0,-7,242,278,158.38205194473267,158.38213419914246,158.38588905334473,158.39636135101318,158.54613065719604,158.54613065719604,158.54613065719604,158.54613065719604,158.54613065719604,158.54613065719604,158.54613065719604,159.79493117332458,1,1.3920211791992188,None,,,,,,,,,,,,,,,,,,175,1,2025-03-03_14h54.43.673,comp,2024.2.4,None,2025-03-03 14h55.12.083964 -0500,
35,35,0,critical,whd,35.0,4.0,upper,125.0,200.0,200.0,125.0,127.0,127.0,1,1.6721396446228027,None,,,,,0,0,0,0,0,35,35,89,159.81151604652405,,,,,,,,,,,,,,,,,,,,,,,,,,,,,,,,,,,,,,,,,,,,,,,,,,,,,,,,,,,,,,,,,,,,,,,,,,,,,,,,,125.0,200.0,200.0,125.0,127.0,127.0,4.0,4.2,-258,9,0,-258,222,19,159.79651594161987,159.79659342765808,159.80011105537415,159.81151604652405,159.95733761787415,159.95733761787415,159.95733761787415,159.95733761787415,159.95733761787415,159.95733761787415,159.95733761787415,161.49272274971008,1,1.6721396446228027,None,,,,,,,,,,,,,,,,,,175,1,2025-03-03_14h54.43.673,comp,2024.2.4,None,2025-03-03 14h55.12.083964 -0500,
36,36,0,critical,hdw,35.0,2.1,upper,200.0,125.0,127.0,127.0,125.0,200.0,3,1.3810441493988037,None,,,,,0,0,0,0,0,36,36,45,161.51121401786804,,,,,,,,,,,,,,,,,,,,,,,,,,,,,,,,,,,,,,,,,,,,,,,,,,,,,,,,,,,,,,,,,,,,,,,,,,,,,,,,,200.0,125.0,127.0,127.0,125.0,200.0,2.1,2.12,-222,-278,0,-256,260,270,161.49427604675293,161.49435305595398,161.49785470962524,161.51121401786804,161.64872574806213,161.64872574806213,161.64872574806213,161.64872574806213,161.64872574806213,161.64872574806213,161.64872574806213,162.89891266822815,3,1.3810441493988037,None,,,,,,,,,,,,,,,,,,175,1,2025-03-03_14h54.43.673,comp,2024.2.4,None,2025-03-03 14h55.12.083964 -0500,
37,37,0,filler_random,None,None,None,None,None,None,None,None,None,None,2,1.4428117275238037,None,,,,,0,0,0,0,0,37,37,161,162.92099404335022,,,,,,,,,,,,,,,,,,,,,,,,,,,,,,,,,,,,,,,,,,,,,,,,,,,,,,,,,,,,,,,,,,,,,,,,,,,,,,,,,116.18615268438923,73.57309690743419,123.96026740775712,191.29586548727244,96.20347913584254,140.9000479405499,1.0,1.1,-708,275,-480,272,-218,257,162.90081882476807,162.90090227127075,162.90461802482605,162.92099404335022,163.06487202644348,163.06487202644348,163.06487202644348,163.06487202644348,163.06487202644348,163.06487202644348,163.06487202644348,164.38191509246826,2,1.4428117275238037,None,,,,,,,,,,,,,,,,,,175,1,2025-03-03_14h54.43.673,comp,2024.2.4,None,2025-03-03 14h55.12.083964 -0500,
38,38,0,filler_square,None,None,None,None,None,None,None,None,None,None,2,1.2932977676391602,None,,,,,0,0,0,0,0,38,38,179,164.39835810661316,,,,,,,,,,,,,,,,,,,,,,,,,,,,,,,,,,,,,,,,,,,,,,,,,,,,,,,,,,,,,,,,,,,,,,,,,,,,,,,,,156.13278261317072,138.2413997715181,193.19700283865004,193.19700283865004,133.40576085381107,107.00006412155295,1.0,1.2,-262,4,0,-2,246,11,164.38392901420593,164.38402771949768,164.38797235488892,164.39835810661316,164.54731702804565,164.54731702804565,164.54731702804565,164.54731702804565,164.54731702804565,164.54731702804565,164.54731702804565,165.7020709514618,2,1.2932977676391602,None,,,,,,,,,,,,,,,,,,175,1,2025-03-03_14h54.43.673,comp,2024.2.4,None,2025-03-03 14h55.12.083964 -0500,
39,39,0,filler_random,None,None,None,None,None,None,None,None,None,None,2,1.2664339542388916,None,,,,,0,0,0,0,0,39,39,145,165.7209393978119,,,,,,,,,,,,,,,,,,,,,,,,,,,,,,,,,,,,,,,,,,,,,,,,,,,,,,,,,,,,,,,,,,,,,,,,,,,,,,,,,110.29790855312606,64.65732261840701,121.27381491237487,119.59156798721958,61.47722192919752,126.73461439703757,2.2,2.22,-188,262,0,-269,219,-279,165.70419478416443,165.70433473587036,165.70758032798767,165.7209393978119,165.8670744895935,165.8670744895935,165.8670744895935,165.8670744895935,165.8670744895935,165.8670744895935,165.8670744895935,166.99786591529846,2,1.2664339542388916,None,,,,,,,,,,,,,,,,,,175,1,2025-03-03_14h54.43.673,comp,2024.2.4,None,2025-03-03 14h55.12.083964 -0500,
40,40,0,critical,dhw,20.0,2.1,upper,141.0,141.0,200.0,125.0,125.0,200.0,3,1.557661533355713,None,,,,,0,0,0,0,0,40,40,3,167.01362442970276,,,,,,,,,,,,,,,,,,,,,,,,,,,,,,,,,,,,,,,,,,,,,,,,,,,,,,,,,,,,,,,,,,,,,,,,,,,,,,,,,141.0,141.0,200.0,125.0,125.0,200.0,2.1,2.12,-229,-268,0,-278,258,279,166.99938321113586,166.99946331977844,167.0026092529297,167.01362442970276,167.15456008911133,167.15456008911133,167.15456008911133,167.15456008911133,167.15456008911133,167.15456008911133,167.15456008911133,168.58221006393433,3,1.557661533355713,None,,,,,,,,,,,,,,,,,,175,1,2025-03-03_14h54.43.673,comp,2024.2.4,None,2025-03-03 14h55.12.083964 -0500,
41,41,0,critical,wdh,20.0,2.1,upper,125.0,200.0,141.0,141.0,200.0,125.0,1,1.7484326362609863,None,,,,,0,0,0,0,0,41,41,35,168.5989284515381,,,,,,,,,,,,,,,,,,,,,,,,,,,,,,,,,,,,,,,,,,,,,,,,,,,,,,,,,,,,,,,,,,,,,,,,,,,,,,,,,125.0,200.0,141.0,141.0,200.0,125.0,2.1,2.12,-266,-285,0,-278,229,266,168.58371114730835,168.58378887176514,168.58715653419495,168.5989284515381,168.73939061164856,168.73939061164856,168.73939061164856,168.73939061164856,168.73939061164856,168.73939061164856,168.73939061164856,170.363343000412,1,1.7484326362609863,None,,,,,,,,,,,,,,,,,,175,1,2025-03-03_14h54.43.673,comp,2024.2.4,None,2025-03-03 14h55.12.083964 -0500,
42,42,0,filler_square,None,None,None,None,None,None,None,None,None,None,1,1.1090819835662842,None,,,,,0,0,0,0,0,42,42,209,170.38314485549927,,,,,,,,,,,,,,,,,,,,,,,,,,,,,,,,,,,,,,,,,,,,,,,,,,,,,,,,,,,,,,,,,,,,,,,,,,,,,,,,,184.2573846724252,184.2573846724252,90.76380160539392,148.63247754793906,116.7603062298389,112.92504782856085,3.0,3.2,-262,-256,0,9,227,273,170.3653326034546,170.36541223526,170.3689525127411,170.38314485549927,170.51784944534302,170.51784944534302,170.51784944534302,170.51784944534302,170.51784944534302,170.51784944534302,170.51784944534302,171.50145888328552,1,1.1090819835662842,None,,,,,,,,,,,,,,,,,,175,1,2025-03-03_14h54.43.673,comp,2024.2.4,None,2025-03-03 14h55.12.083964 -0500,
43,43,0,critical,hdw,35.0,1.0,upper,200.0,125.0,127.0,127.0,125.0,200.0,3,3.5341320037841797,None,,,,,0,0,0,0,0,43,43,109,171.5179090499878,,,,,,,,,,,,,,,,,,,,,,,,,,,,,,,,,,,,,,,,,,,,,,,,,,,,,,,,,,,,,,,,,,,,,,,,,,,,,,,,,200.0,125.0,127.0,127.0,125.0,200.0,1.0,1.1,-702,283,-480,275,-220,279,171.50313329696655,171.50324964523315,171.5069077014923,171.5179090499878,171.66646242141724,171.66646242141724,171.66646242141724,171.66646242141724,171.66646242141724,171.66646242141724,171.66646242141724,175.0701208114624,3,3.5341320037841797,None,,,,,,,,,,,,,,,,,,175,1,2025-03-03_14h54.43.673,comp,2024.2.4,None,2025-03-03 14h55.12.083964 -0500,
44,44,0,critical,dhw,35.0,4.0,lower,70.0,70.0,133.0,57.0,57.0,133.0,2,2.4067466259002686,None,,,,,0,0,0,0,0,44,44,52,175.08590531349182,,,,,,,,,,,,,,,,,,,,,,,,,,,,,,,,,,,,,,,,,,,,,,,,,,,,,,,,,,,,,,,,,,,,,,,,,,,,,,,,,70.0,70.0,133.0,57.0,57.0,133.0,4.0,4.2,-160,-15,0,-263,191,-10,175.07173585891724,175.07185649871826,175.07552194595337,175.08590531349182,175.2363760471344,175.2363760471344,175.2363760471344,175.2363760471344,175.2363760471344,175.2363760471344,175.2363760471344,177.5033519268036,2,2.4067466259002686,None,,,,,,,,,,,,,,,,,,175,1,2025-03-03_14h54.43.673,comp,2024.2.4,None,2025-03-03 14h55.12.083964 -0500,
45,45,0,critical,dhw,35.0,2.1,upper,127.0,127.0,200.0,125.0,125.0,200.0,3,1.56388258934021,None,,,,,0,0,0,0,0,45,45,25,177.5194833278656,,,,,,,,,,,,,,,,,,,,,,,,,,,,,,,,,,,,,,,,,,,,,,,,,,,,,,,,,,,,,,,,,,,,,,,,,,,,,,,,,127.0,127.0,200.0,125.0,125.0,200.0,2.1,2.12,-222,-284,0,-288,258,261,177.50494575500488,177.50505661964417,177.50858759880066,177.5194833278656,177.6706485748291,177.6706485748291,177.6706485748291,177.6706485748291,177.6706485748291,177.6706485748291,177.6706485748291,179.0875542163849,3,1.56388258934021,None,,,,,,,,,,,,,,,,,,175,1,2025-03-03_14h54.43.673,comp,2024.2.4,None,2025-03-03 14h55.12.083964 -0500,
46,46,0,filler_square,None,None,None,None,None,None,None,None,None,None,3,1.7618136405944824,None,,,,,0,0,0,0,0,46,46,186,179.10579919815063,,,,,,,,,,,,,,,,,,,,,,,,,,,,,,,,,,,,,,,,,,,,,,,,,,,,,,,,,,,,,,,,,,,,,,,,,,,,,,,,,61.34514296984033,58.33422822375237,64.78721540692679,67.80273498297609,69.07121418924483,69.07121418924483,2.2,2.22,-159,278,0,-276,164,-286,179.0894069671631,179.08948612213135,179.09276413917542,179.10579919815063,179.25411796569824,179.25411796569824,179.25411796569824,179.25411796569824,179.25411796569824,179.25411796569824,179.25411796569824,180.87231421470642,3,1.7618136405944824,None,,,,,,,,,,,,,,,,,,175,1,2025-03-03_14h54.43.673,comp,2024.2.4,None,2025-03-03 14h55.12.083964 -0500,
47,47,0,critical,hdw,20.0,4.0,lower,133.0,57.0,78.0,78.0,57.0,133.0,3,2.28175687789917,None,,,,,0,0,0,0,0,47,47,118,180.88956451416016,,,,,,,,,,,,,,,,,,,,,,,,,,,,,,,,,,,,,,,,,,,,,,,,,,,,,,,,,,,,,,,,,,,,,,,,,,,,,,,,,133.0,57.0,78.0,78.0,57.0,133.0,4.0,4.2,-164,10,0,-262,202,-20,180.8739311695099,180.8740451335907,180.87765049934387,180.88956451416016,181.03760957717896,181.03760957717896,181.03760957717896,181.03760957717896,181.03760957717896,181.03760957717896,181.03760957717896,183.188157081604,3,2.28175687789917,None,,,,,,,,,,,,,,,,,,175,1,2025-03-03_14h54.43.673,comp,2024.2.4,None,2025-03-03 14h55.12.083964 -0500,
48,48,0,filler_random,None,None,None,None,None,None,None,None,None,None,1,0.9755330085754395,None,,,,,0,0,0,0,0,48,48,135,183.20467376708984,,,,,,,,,,,,,,,,,,,,,,,,,,,,,,,,,,,,,,,,,,,,,,,,,,,,,,,,,,,,,,,,,,,,,,,,,,,,,,,,,187.52672771424665,125.81283102055635,115.23384651601638,71.88147922782943,76.91240689084628,68.24824716471001,2.2,2.22,-195,276,0,-289,166,-284,183.18994402885437,183.1900510787964,183.19428205490112,183.20467376708984,183.3614330291748,183.3614330291748,183.3614330291748,183.3614330291748,183.3614330291748,183.3614330291748,183.3614330291748,184.18875980377197,1,0.9755330085754395,None,,,,,,,,,,,,,,,,,,175,1,2025-03-03_14h54.43.673,comp,2024.2.4,None,2025-03-03 14h55.12.083964 -0500,
49,49,0,critical,hwd,35.0,2.1,lower,133.0,57.0,57.0,133.0,70.0,70.0,2,3.5185534954071045,None,,,,,0,0,0,0,0,49,49,40,184.20485091209412,,,,,,,,,,,,,,,,,,,,,,,,,,,,,,,,,,,,,,,,,,,,,,,,,,,,,,,,,,,,,,,,,,,,,,,,,,,,,,,,,133.0,57.0,57.0,133.0,70.0,70.0,2.1,2.12,-191,-281,0,-269,198,252,184.1903851032257,184.19046783447266,184.19407486915588,184.20485091209412,184.35215640068054,184.35215640068054,184.35215640068054,184.35215640068054,184.35215640068054,184.35215640068054,184.35215640068054,187.72819995880127,2,3.5185534954071045,None,,,,,,,,,,,,,,,,,,175,1,2025-03-03_14h54.43.673,comp,2024.2.4,None,2025-03-03 14h55.12.083964 -0500,
50,50,0,filler_square,None,None,None,None,None,None,None,None,None,None,3,1.0727403163909912,None,,,,,0,0,0,0,0,50,50,192,187.746887922287,,,,,,,,,,,,,,,,,,,,,,,,,,,,,,,,,,,,,,,,,,,,,,,,,,,,,,,,,,,,,,,,,,,,,,,,,,,,,,,,,70.40919155545801,60.83422902779251,61.715732715471844,62.80412088738291,73.54170402864278,73.54170402864278,2.2,2.21,-158,-266,0,262,164,278,187.73012399673462,187.7302122116089,187.73357152938843,187.746887922287,187.88677954673767,187.88677954673767,187.88677954673767,187.88677954673767,187.88677954673767,187.88677954673767,187.88677954673767,188.8241686820984,3,1.0727403163909912,None,,,,,,,,,,,,,,,,,,175,1,2025-03-03_14h54.43.673,comp,2024.2.4,None,2025-03-03 14h55.12.083964 -0500,
51,51,0,critical,dhw,35.0,3.0,upper,127.0,127.0,200.0,125.0,125.0,200.0,3,1.898604154586792,None,,,,,0,0,0,0,0,51,51,51,188.8407232761383,,,,,,,,,,,,,,,,,,,,,,,,,,,,,,,,,,,,,,,,,,,,,,,,,,,,,,,,,,,,,,,,,,,,,,,,,,,,,,,,,127.0,127.0,200.0,125.0,125.0,200.0,3.0,3.2,-222,-264,0,20,258,260,188.82581663131714,188.82594656944275,188.8299117088318,188.8407232761383,188.98945426940918,188.98945426940918,188.98945426940918,188.98945426940918,188.98945426940918,188.98945426940918,188.98945426940918,190.74212503433228,3,1.898604154586792,None,,,,,,,,,,,,,,,,,,175,1,2025-03-03_14h54.43.673,comp,2024.2.4,None,2025-03-03 14h55.12.083964 -0500,
52,52,0,critical,hdw,35.0,3.0,upper,200.0,125.0,127.0,127.0,125.0,200.0,1,1.052645206451416,None,,,,,0,0,0,0,0,52,52,111,190.7586853504181,,,,,,,,,,,,,,,,,,,,,,,,,,,,,,,,,,,,,,,,,,,,,,,,,,,,,,,,,,,,,,,,,,,,,,,,,,,,,,,,,200.0,125.0,127.0,127.0,125.0,200.0,3.0,3.1,-222,277,0,1,260,-287,190.74375438690186,190.74388766288757,190.74758434295654,190.7586853504181,190.90809178352356,190.90809178352356,190.90809178352356,190.90809178352356,190.90809178352356,190.90809178352356,190.90809178352356,191.8264422416687,1,1.052645206451416,None,,,,,,,,,,,,,,,,,,175,1,2025-03-03_14h54.43.673,comp,2024.2.4,None,2025-03-03 14h55.12.083964 -0500,
53,53,0,critical,dhw,20.0,4.0,lower,78.0,78.0,133.0,57.0,57.0,133.0,3,3.753450870513916,None,,,,,0,0,0,0,0,53,53,58,191.84255075454712,,,,,,,,,,,,,,,,,,,,,,,,,,,,,,,,,,,,,,,,,,,,,,,,,,,,,,,,,,,,,,,,,,,,,,,,,,,,,,,,,78.0,78.0,133.0,57.0,57.0,133.0,4.0,4.2,-164,17,0,-256,191,-7,191.82804346084595,191.8281238079071,191.83137226104736,191.84255075454712,191.9928674697876,191.9928674697876,191.9928674697876,191.9928674697876,191.9928674697876,191.9928674697876,191.9928674697876,195.60342478752136,3,3.753450870513916,None,,,,,,,,,,,,,,,,,,175,1,2025-03-03_14h54.43.673,comp,2024.2.4,None,2025-03-03 14h55.12.083964 -0500,
54,54,0,critical,dwh,20.0,2.1,lower,78.0,78.0,57.0,133.0,133.0,57.0,2,1.7503166198730469,None,,,,,0,0,0,0,0,54,54,6,195.62111449241638,,,,,,,,,,,,,,,,,,,,,,,,,,,,,,,,,,,,,,,,,,,,,,,,,,,,,,,,,,,,,,,,,,,,,,,,,,,,,,,,,78.0,78.0,57.0,133.0,133.0,57.0,2.1,2.11,-202,289,0,280,191,-283,195.60490441322327,195.60498523712158,195.60804796218872,195.62111449241638,195.75910067558289,195.75910067558289,195.75910067558289,195.75910067558289,195.75910067558289,195.75910067558289,195.75910067558289,197.3821461200714,2,1.7503166198730469,None,,,,,,,,,,,,,,,,,,175,1,2025-03-03_14h54.43.673,comp,2024.2.4,None,2025-03-03 14h55.12.083964 -0500,
55,55,0,critical,whd,20.0,2.1,upper,125.0,200.0,200.0,125.0,141.0,141.0,2,2.313990831375122,None,,,,,0,0,0,0,0,55,55,15,197.40253400802612,,,,,,,,,,,,,,,,,,,,,,,,,,,,,,,,,,,,,,,,,,,,,,,,,,,,,,,,,,,,,,,,,,,,,,,,,,,,,,,,,125.0,200.0,200.0,125.0,141.0,141.0,2.1,2.11,-258,254,0,272,229,-266,197.3836030960083,197.38367915153503,197.38676023483276,197.40253400802612,197.54323482513428,197.54323482513428,197.54323482513428,197.54323482513428,197.54323482513428,197.54323482513428,197.54323482513428,199.72712016105652,2,2.313990831375122,None,,,,,,,,,,,,,,,,,,175,1,2025-03-03_14h54.43.673,comp,2024.2.4,None,2025-03-03 14h55.12.083964 -0500,
56,56,0,critical,wdh,35.0,2.1,upper,125.0,200.0,127.0,127.0,200.0,125.0,1,1.6508197784423828,None,,,,,0,0,0,0,0,56,56,9,199.74462914466858,,,,,,,,,,,,,,,,,,,,,,,,,,,,,,,,,,,,,,,,,,,,,,,,,,,,,,,,,,,,,,,,,,,,,,,,,,,,,,,,,125.0,200.0,127.0,127.0,200.0,125.0,2.1,2.11,-260,274,0,265,222,-285,199.7286913394928,199.7287712097168,199.7329671382904,199.74462914466858,199.8934907913208,199.8934907913208,199.8934907913208,199.8934907913208,199.8934907913208,199.8934907913208,199.8934907913208,201.40865063667297,1,1.6508197784423828,None,,,,,,,,,,,,,,,,,,175,1,2025-03-03_14h54.43.673,comp,2024.2.4,None,2025-03-03 14h55.12.083964 -0500,
57,57,0,critical,hwd,20.0,2.1,lower,133.0,57.0,57.0,133.0,78.0,78.0,2,4.891656160354614,None,,,,,0,0,0,0,0,57,57,18,201.4238293170929,,,,,,,,,,,,,,,,,,,,,,,,,,,,,,,,,,,,,,,,,,,,,,,,,,,,,,,,,,,,,,,,,,,,,,,,,,,,,,,,,133.0,57.0,57.0,133.0,78.0,78.0,2.1,2.12,-191,-263,0,-274,202,267,201.4101438522339,201.41021943092346,201.41326761245728,201.4238293170929,201.56298184394836,201.56298184394836,201.56298184394836,201.56298184394836,201.56298184394836,201.56298184394836,201.56298184394836,206.33157300949097,2,4.891656160354614,None,,,,,,,,,,,,,,,,,,175,1,2025-03-03_14h54.43.673,comp,2024.2.4,None,2025-03-03 14h55.12.083964 -0500,
58,58,0,critical,hdw,35.0,4.0,upper,200.0,125.0,127.0,127.0,125.0,200.0,3,2.5207672119140625,None,,,,,0,0,0,0,0,58,58,113,206.34774684906006,,,,,,,,,,,,,,,,,,,,,,,,,,,,,,,,,,,,,,,,,,,,,,,,,,,,,,,,,,,,,,,,,,,,,,,,,,,,,,,,,200.0,125.0,127.0,127.0,125.0,200.0,4.0,4.2,-222,7,0,-280,260,4,206.33331203460693,206.33344984054565,206.33709287643433,206.34774684906006,206.4954972267151,206.4954972267151,206.4954972267151,206.4954972267151,206.4954972267151,206.4954972267151,206.4954972267151,208.87539720535278,3,2.5207672119140625,None,,,,,,,,,,,,,,,,,,175,1,2025-03-03_14h54.43.673,comp,2024.2.4,None,2025-03-03 14h55.12.083964 -0500,
59,59,0,critical,whd,35.0,2.1,upper,125.0,200.0,200.0,125.0,127.0,127.0,2,3.8429059982299805,None,,,,,0,0,0,0,0,59,59,37,208.8965404033661,,,,,,,,,,,,,,,,,,,,,,,,,,,,,,,,,,,,,,,,,,,,,,,,,,,,,,,,,,,,,,,,,,,,,,,,,,,,,,,,,125.0,200.0,200.0,125.0,127.0,127.0,2.1,2.12,-258,-265,0,-268,222,282,208.8769793510437,208.8771209716797,208.88065433502197,208.8965404033661,209.02997279167175,209.02997279167175,209.02997279167175,209.02997279167175,209.02997279167175,209.02997279167175,209.02997279167175,212.7551531791687,2,3.8429059982299805,None,,,,,,,,,,,,,,,,,,175,1,2025-03-03_14h54.43.673,comp,2024.2.4,None,2025-03-03 14h55.12.083964 -0500,
60,60,0,critical,hdw,35.0,3.0,lower,133.0,57.0,70.0,70.0,57.0,133.0,3,1.8639137744903564,None,,,,,0,0,0,0,0,60,60,110,212.77166986465454,,,,,,,,,,,,,,,,,,,,,,,,,,,,,,,,,,,,,,,,,,,,,,,,,,,,,,,,,,,,,,,,,,,,,,,,,,,,,,,,,133.0,57.0,70.0,70.0,57.0,133.0,3.0,3.2,-160,-250,0,6,198,255,212.75676846504211,212.756844997406,212.7603793144226,212.77166986465454,212.91261434555054,212.91261434555054,212.91261434555054,212.91261434555054,212.91261434555054,212.91261434555054,212.91261434555054,214.64962005615234,3,1.8639137744903564,None,,,,,,,,,,,,,,,,,,175,1,2025-03-03_14h54.43.673,comp,2024.2.4,None,2025-03-03 14h55.12.083964 -0500,
61,61,0,filler_square,None,None,None,None,None,None,None,None,None,None,2,3.930177927017212,None,,,,,0,0,0,0,0,61,61,171,214.6652307510376,,,,,,,,,,,,,,,,,,,,,,,,,,,,,,,,,,,,,,,,,,,,,,,,,,,,,,,,,,,,,,,,,,,,,,,,,,,,,,,,,104.48302854730744,109.84116023638501,134.28829148692242,134.28829148692242,104.33417550493132,111.21801127963619,4.0,4.2,-218,-14,0,-253,219,-7,214.65153408050537,214.65161609649658,214.65499305725098,214.6652307510376,214.81409406661987,214.81409406661987,214.81409406661987,214.81409406661987,214.81409406661987,214.81409406661987,214.81409406661987,218.60023617744446,2,3.930177927017212,None,,,,,,,,,,,,,,,,,,175,1,2025-03-03_14h54.43.673,comp,2024.2.4,None,2025-03-03 14h55.12.083964 -0500,
62,62,0,critical,hwd,35.0,2.1,lower,133.0,57.0,57.0,133.0,70.0,70.0,2,1.4906120300292969,None,,,,,0,0,0,0,0,62,62,16,218.61679100990295,,,,,,,,,,,,,,,,,,,,,,,,,,,,,,,,,,,,,,,,,,,,,,,,,,,,,,,,,,,,,,,,,,,,,,,,,,,,,,,,,133.0,57.0,57.0,133.0,70.0,70.0,2.1,2.11,-191,268,0,281,198,-251,218.60170125961304,218.60177779197693,218.60519075393677,218.61679100990295,218.766108751297,218.766108751297,218.766108751297,218.766108751297,218.766108751297,218.766108751297,218.766108751297,220.11656498908997,2,1.4906120300292969,None,,,,,,,,,,,,,,,,,,175,1,2025-03-03_14h54.43.673,comp,2024.2.4,None,2025-03-03 14h55.12.083964 -0500,
63,63,0,filler_square,None,None,None,None,None,None,None,None,None,None,3,0.9180407524108887,None,,,,,0,0,0,0,0,63,63,194,220.1336634159088,,,,,,,,,,,,,,,,,,,,,,,,,,,,,,,,,,,,,,,,,,,,,,,,,,,,,,,,,,,,,,,,,,,,,,,,,,,,,,,,,65.61828024214876,57.3827060110325,78.93457413878295,84.36514350959469,116.8163778780388,116.8163778780388,4.0,4.1,-167,-264,0,7,197,-289,220.11829710006714,220.1183726787567,220.12258076667786,220.1336634159088,220.2816936969757,220.2816936969757,220.2816936969757,220.2816936969757,220.2816936969757,220.2816936969757,220.2816936969757,221.05511593818665,3,0.9180407524108887,None,,,,,,,,,,,,,,,,,,175,1,2025-03-03_14h54.43.673,comp,2024.2.4,None,2025-03-03 14h55.12.083964 -0500,
64,64,0,critical,dwh,20.0,2.1,lower,78.0,78.0,57.0,133.0,133.0,57.0,2,2.3471627235412598,None,,,,,0,0,0,0,0,64,64,30,221.07230520248413,,,,,,,,,,,,,,,,,,,,,,,,,,,,,,,,,,,,,,,,,,,,,,,,,,,,,,,,,,,,,,,,,,,,,,,,,,,,,,,,,78.0,78.0,57.0,133.0,133.0,57.0,2.1,2.12,-202,-278,0,-274,191,259,221.05669569969177,221.05677556991577,221.05999779701233,221.07230520248413,221.216894865036,221.216894865036,221.216894865036,221.216894865036,221.216894865036,221.216894865036,221.216894865036,223.43607592582703,2,2.3471627235412598,None,,,,,,,,,,,,,,,,,,175,1,2025-03-03_14h54.43.673,comp,2024.2.4,None,2025-03-03 14h55.12.083964 -0500,
65,65,0,filler_square,None,None,None,None,None,None,None,None,None,None,3,1.3043701648712158,None,,,,,0,0,0,0,0,65,65,195,223.45176553726196,,,,,,,,,,,,,,,,,,,,,,,,,,,,,,,,,,,,,,,,,,,,,,,,,,,,,,,,,,,,,,,,,,,,,,,,,,,,,,,,,74.86590650849143,86.58549957408111,67.79214101739299,68.56990702930592,87.85512756877262,87.85512756877262,1.0,1.3,306,-287,480,-267,654,-258,223.43803763389587,223.438129901886,223.44147324562073,223.45176553726196,223.60850310325623,223.60850310325623,223.60850310325623,223.60850310325623,223.60850310325623,223.60850310325623,223.60850310325623,224.7676646709442,3,1.3043701648712158,None,,,,,,,,,,,,,,,,,,175,1,2025-03-03_14h54.43.673,comp,2024.2.4,None,2025-03-03 14h55.12.083964 -0500,
66,66,0,filler_square,None,None,None,None,None,None,None,None,None,None,3,2.363129138946533,None,,,,,0,0,0,0,0,66,66,174,224.78445267677307,,,,,,,,,,,,,,,,,,,,,,,,,,,,,,,,,,,,,,,,,,,,,,,,,,,,,,,,,,,,,,,,,,,,,,,,,,,,,,,,,70.42117757243909,72.29752909436198,71.33550491231011,74.89092287168438,76.16536783891183,76.16536783891183,2.1,2.12,-170,-288,0,-261,172,273,224.76971411705017,224.7697982788086,224.77364563941956,224.78445267677307,224.93290638923645,224.93290638923645,224.93290638923645,224.93290638923645,224.93290638923645,224.93290638923645,224.93290638923645,227.16294193267822,3,2.363129138946533,None,,,,,,,,,,,,,,,,,,175,1,2025-03-03_14h54.43.673,comp,2024.2.4,None,2025-03-03 14h55.12.083964 -0500,
67,67,0,filler_random,None,None,None,None,None,None,None,None,None,None,3,1.3327131271362305,None,,,,,0,0,0,0,0,67,67,162,227.18317127227783,,,,,,,,,,,,,,,,,,,,,,,,,,,,,,,,,,,,,,,,,,,,,,,,,,,,,,,,,,,,,,,,,,,,,,,,,,,,,,,,,161.50910255606183,90.89612898377055,114.31922588975117,72.11619105055959,177.38332974358661,140.711052077744,2.1,2.12,-178,-261,0,-277,202,261,227.1646692752838,227.16474795341492,227.1679105758667,227.18317127227783,227.31472945213318,227.31472945213318,227.31472945213318,227.31472945213318,227.31472945213318,227.31472945213318,227.31472945213318,228.51802897453308,3,1.3327131271362305,None,,,,,,,,,,,,,,,,,,175,1,2025-03-03_14h54.43.673,comp,2024.2.4,None,2025-03-03 14h55.12.083964 -0500,
68,68,0,critical,dhw,20.0,4.0,upper,141.0,141.0,200.0,125.0,125.0,200.0,2,0.8215570449829102,None,,,,,0,0,0,0,0,68,68,59,228.53434228897095,,,,,,,,,,,,,,,,,,,,,,,,,,,,,,,,,,,,,,,,,,,,,,,,,,,,,,,,,,,,,,,,,,,,,,,,,,,,,,,,,141.0,141.0,200.0,125.0,125.0,200.0,4.0,4.1,-229,-283,0,14,258,-261,228.51969170570374,228.51980686187744,228.5234580039978,228.53434228897095,228.6899950504303,228.6899950504303,228.6899950504303,228.6899950504303,228.6899950504303,228.6899950504303,228.6899950504303,229.37353610992432,2,0.8215570449829102,None,,,,,,,,,,,,,,,,,,175,1,2025-03-03_14h54.43.673,comp,2024.2.4,None,2025-03-03 14h55.12.083964 -0500,
69,69,0,critical,hwd,35.0,2.1,upper,200.0,125.0,125.0,200.0,127.0,127.0,1,1.0051789283752441,None,,,,,0,0,0,0,0,69,69,17,229.39023232460022,,,,,,,,,,,,,,,,,,,,,,,,,,,,,,,,,,,,,,,,,,,,,,,,,,,,,,,,,,,,,,,,,,,,,,,,,,,,,,,,,200.0,125.0,125.0,200.0,127.0,127.0,2.1,2.12,-258,-252,0,-276,260,258,229.3752245903015,229.37532877922058,229.37899160385132,229.39023232460022,229.53518772125244,229.53518772125244,229.53518772125244,229.53518772125244,229.53518772125244,229.53518772125244,229.53518772125244,230.40460419654846,1,1.0051789283752441,None,,,,,,,,,,,,,,,,,,175,1,2025-03-03_14h54.43.673,comp,2024.2.4,None,2025-03-03 14h55.12.083964 -0500,
70,70,0,critical,whd,20.0,1.0,lower,57.0,133.0,133.0,57.0,78.0,78.0,1,1.9353129863739014,None,,,,,0,0,0,0,0,70,70,90,230.42084980010986,,,,,,,,,,,,,,,,,,,,,,,,,,,,,,,,,,,,,,,,,,,,,,,,,,,,,,,,,,,,,,,,,,,,,,,,,,,,,,,,,57.0,133.0,133.0,57.0,78.0,78.0,1.0,1.3,289,-270,480,-273,644,-258,230.40624904632568,230.4063675403595,230.41006231307983,230.42084980010986,230.56934928894043,230.56934928894043,230.56934928894043,230.56934928894043,230.56934928894043,230.56934928894043,230.56934928894043,232.3629949092865,1,1.9353129863739014,None,,,,,,,,,,,,,,,,,,175,1,2025-03-03_14h54.43.673,comp,2024.2.4,None,2025-03-03 14h55.12.083964 -0500,
71,71,0,filler_random,None,None,None,None,None,None,None,None,None,None,2,0.8723247051239014,None,,,,,0,0,0,0,0,71,71,158,232.37968230247498,,,,,,,,,,,,,,,,,,,,,,,,,,,,,,,,,,,,,,,,,,,,,,,,,,,,,,,,,,,,,,,,,,,,,,,,,,,,,,,,,104.5448597015056,98.55680665553339,104.65366592000456,108.03600600178189,153.76038672259435,102.93958698255017,4.0,4.1,-199,-288,0,9,201,-265,232.36493372917175,232.36508464813232,232.36879444122314,232.37968230247498,232.52458357810974,232.52458357810974,232.52458357810974,232.52458357810974,232.52458357810974,232.52458357810974,232.52458357810974,233.25626492500305,2,0.8723247051239014,None,,,,,,,,,,,,,,,,,,175,1,2025-03-03_14h54.43.673,comp,2024.2.4,None,2025-03-03 14h55.12.083964 -0500,
72,72,0,critical,dhw,20.0,3.0,lower,78.0,78.0,133.0,57.0,57.0,133.0,2,2.211341142654419,None,,,,,0,0,0,0,0,72,72,56,233.27272820472717,,,,,,,,,,,,,,,,,,,,,,,,,,,,,,,,,,,,,,,,,,,,,,,,,,,,,,,,,,,,,,,,,,,,,,,,,,,,,,,,,78.0,78.0,133.0,57.0,57.0,133.0,3.0,3.1,-164,272,0,5,191,-271,233.25805497169495,233.25816130638123,233.26143097877502,233.27272820472717,233.42020320892334,233.42020320892334,233.42020320892334,233.42020320892334,233.42020320892334,233.42020320892334,233.42020320892334,235.50315833091736,2,2.211341142654419,None,,,,,,,,,,,,,,,,,,175,1,2025-03-03_14h54.43.673,comp,2024.2.4,None,2025-03-03 14h55.12.083964 -0500,
73,73,0,filler_square,None,None,None,None,None,None,None,None,None,None,2,0.9323656558990479,None,,,,,0,0,0,0,0,73,73,203,235.51925587654114,,,,,,,,,,,,,,,,,,,,,,,,,,,,,,,,,,,,,,,,,,,,,,,,,,,,,,,,,,,,,,,,,,,,,,,,,,,,,,,,,101.23759087939436,101.23759087939436,67.66131240083666,96.41781270450622,68.47932717865345,62.08920540322053,2.2,2.21,-195,-277,0,271,175,262,235.50492358207703,235.5050003528595,235.50829911231995,235.51925587654114,235.67179703712463,235.67179703712463,235.67179703712463,235.67179703712463,235.67179703712463,235.67179703712463,235.67179703712463,236.4572048187256,2,0.9323656558990479,None,,,,,,,,,,,,,,,,,,175,1,2025-03-03_14h54.43.673,comp,2024.2.4,None,2025-03-03 14h55.12.083964 -0500,
74,74,0,filler_random,None,None,None,None,None,None,None,None,None,None,2,1.1512796878814697,None,,,,,0,0,0,0,0,74,74,156,236.47615838050842,,,,,,,,,,,,,,,,,,,,,,,,,,,,,,,,,,,,,,,,,,,,,,,,,,,,,,,,,,,,,,,,,,,,,,,,,,,,,,,,,129.47471847654634,130.19664583895047,199.2784875719885,164.09878856303533,76.38638062201568,59.3593998532839,1.0,1.3,237,-285,480,-270,688,-256,236.45911383628845,236.459214925766,236.46277713775635,236.47615838050842,236.626788854599,236.626788854599,236.626788854599,236.626788854599,236.626788854599,236.626788854599,236.626788854599,237.64331245422363,2,1.1512796878814697,None,,,,,,,,,,,,,,,,,,175,1,2025-03-03_14h54.43.673,comp,2024.2.4,None,2025-03-03 14h55.12.083964 -0500,
75,75,0,critical,dwh,35.0,4.0,lower,70.0,70.0,57.0,133.0,133.0,57.0,3,3.1295974254608154,None,,,,,0,0,0,0,0,75,75,64,237.6586995124817,,,,,,,,,,,,,,,,,,,,,,,,,,,,,,,,,,,,,,,,,,,,,,,,,,,,,,,,,,,,,,,,,,,,,,,,,,,,,,,,,70.0,70.0,57.0,133.0,133.0,57.0,4.0,4.2,-198,5,0,-274,191,-16,237.6448245048523,237.64490127563477,237.64838433265686,237.6586995124817,237.80814123153687,237.80814123153687,237.80814123153687,237.80814123153687,237.80814123153687,237.80814123153687,237.80814123153687,240.79383969306946,3,3.1295974254608154,None,,,,,,,,,,,,,,,,,,175,1,2025-03-03_14h54.43.673,comp,2024.2.4,None,2025-03-03 14h55.12.083964 -0500,
76,76,0,filler_random,None,None,None,None,None,None,None,None,None,None,2,0.9386320114135742,None,,,,,0,0,0,0,0,76,76,141,240.80956888198853,,,,,,,,,,,,,,,,,,,,,,,,,,,,,,,,,,,,,,,,,,,,,,,,,,,,,,,,,,,,,,,,,,,,,,,,,,,,,,,,,125.97260402284492,150.41655394959295,164.78280679363925,142.36044301892952,152.7450914507578,118.80211763036228,1.0,1.3,238,-266,480,-253,707,-268,240.7956702709198,240.79574966430664,240.7988543510437,240.80956888198853,240.95668482780457,240.95668482780457,240.95668482780457,240.95668482780457,240.95668482780457,240.95668482780457,240.95668482780457,241.75672030448914,2,0.9386320114135742,None,,,,,,,,,,,,,,,,,,175,1,2025-03-03_14h54.43.673,comp,2024.2.4,None,2025-03-03 14h55.12.083964 -0500,
77,77,0,catch,None,None,None,None,None,None,None,None,None,None,3,1.00665283203125,None,,,,,0,0,0,0,0,77,77,124,241.77285480499268,,,,,,,,,,,,,,,,,,,,,,,,,,,,,,,,,,,,,,,,,,,,,,,,,,,,,,,,,,,,,,,,,,,,,,,,,,,,,,,,,106,84,118,72,177,148,2.2,2.22,-174,287,0,-278,206,-265,241.7586317062378,241.7587103843689,241.76222610473633,241.77285480499268,241.9241659641266,241.9241659641266,241.9241659641266,241.9241659641266,241.9241659641266,241.9241659641266,241.9241659641266,242.80060982704163,3,1.00665283203125,None,,,,,,,,,,,,,,,,,,175,1,2025-03-03_14h54.43.673,comp,2024.2.4,None,2025-03-03 14h55.12.083964 -0500,
78,78,0,critical,whd,20.0,2.1,lower,57.0,133.0,133.0,57.0,78.0,78.0,1,2.1823151111602783,None,,,,,0,0,0,0,0,78,78,38,242.82113313674927,,,,,,,,,,,,,,,,,,,,,,,,,,,,,,,,,,,,,,,,,,,,,,,,,,,,,,,,,,,,,,,,,,,,,,,,,,,,,,,,,57.0,133.0,133.0,57.0,78.0,78.0,2.1,2.12,-191,-270,0,-254,164,273,242.80228877067566,242.8024182319641,242.80584263801575,242.82113313674927,242.9577579498291,242.9577579498291,242.9577579498291,242.9577579498291,242.9577579498291,242.9577579498291,242.9577579498291,245.0156021118164,1,2.1823151111602783,None,,,,,,,,,,,,,,,,,,175,1,2025-03-03_14h54.43.673,comp,2024.2.4,None,2025-03-03 14h55.12.083964 -0500,
79,79,0,critical,dhw,20.0,3.0,upper,141.0,141.0,200.0,125.0,125.0,200.0,3,1.2706170082092285,None,,,,,0,0,0,0,0,79,79,57,245.0297658443451,,,,,,,,,,,,,,,,,,,,,,,,,,,,,,,,,,,,,,,,,,,,,,,,,,,,,,,,,,,,,,,,,,,,,,,,,,,,,,,,,141.0,141.0,200.0,125.0,125.0,200.0,3.0,3.2,-229,-254,0,15,258,288,245.01714062690735,245.0172188282013,245.02035403251648,245.0297658443451,245.17762398719788,245.17762398719788,245.17762398719788,245.17762398719788,245.17762398719788,245.17762398719788,245.17762398719788,246.30704641342163,3,1.2706170082092285,None,,,,,,,,,,,,,,,,,,175,1,2025-03-03_14h54.43.673,comp,2024.2.4,None,2025-03-03 14h55.12.083964 -0500,
80,80,0,filler_square,None,None,None,None,None,None,None,None,None,None,1,1.8800253868103027,None,,,,,0,0,0,0,0,80,80,172,246.32414317131042,,,,,,,,,,,,,,,,,,,,,,,,,,,,,,,,,,,,,,,,,,,,,,,,,,,,,,,,,,,,,,,,,,,,,,,,,,,,,,,,,59.27376068989889,59.27376068989889,57.988739427531314,59.14078625626403,57.729543087531034,58.89830685274356,4.0,4.2,-155,12,0,-255,155,-15,246.30883145332336,246.30891299247742,246.31233406066895,246.32414317131042,246.46595406532288,246.46595406532288,246.46595406532288,246.46595406532288,246.46595406532288,246.46595406532288,246.46595406532288,248.20827531814575,1,1.8800253868103027,None,,,,,,,,,,,,,,,,,,175,1,2025-03-03_14h54.43.673,comp,2024.2.4,None,2025-03-03 14h55.12.083964 -0500,
81,81,0,filler_random,None,None,None,None,None,None,None,None,None,None,2,1.0985229015350342,None,,,,,0,0,0,0,0,81,81,152,248.22507858276367,,,,,,,,,,,,,,,,,,,,,,,,,,,,,,,,,,,,,,,,,,,,,,,,,,,,,,,,,,,,,,,,,,,,,,,,,,,,,,,,,74.31512773023633,183.14855631947054,165.09877924194922,117.84215347128082,133.78059846244253,96.8650818342822,1.0,1.3,234,-254,480,-280,683,-268,248.2099986076355,248.21010446548462,248.2133927345276,248.22507858276367,248.37920451164246,248.37920451164246,248.37920451164246,248.37920451164246,248.37920451164246,248.37920451164246,248.37920451164246,249.32917380332947,2,1.0985229015350342,None,,,,,,,,,,,,,,,,,,175,1,2025-03-03_14h54.43.673,comp,2024.2.4,None,2025-03-03 14h55.12.083964 -0500,
82,82,0,critical,dhw,20.0,2.1,lower,78.0,78.0,133.0,57.0,57.0,133.0,3,1.2661724090576172,None,,,,,0,0,0,0,0,82,82,26,249.3454189300537,,,,,,,,,,,,,,,,,,,,,,,,,,,,,,,,,,,,,,,,,,,,,,,,,,,,,,,,,,,,,,,,,,,,,,,,,,,,,,,,,78.0,78.0,133.0,57.0,57.0,133.0,2.1,2.12,-164,-288,0,-287,191,262,249.33084750175476,249.33093190193176,249.33458638191223,249.3454189300537,249.49713373184204,249.49713373184204,249.49713373184204,249.49713373184204,249.49713373184204,249.49713373184204,249.49713373184204,250.62540245056152,3,1.2661724090576172,None,,,,,,,,,,,,,,,,,,175,1,2025-03-03_14h54.43.673,comp,2024.2.4,None,2025-03-03 14h55.12.083964 -0500,
83,83,0,filler_square,None,None,None,None,None,None,None,None,None,None,2,1.2258188724517822,None,,,,,0,0,0,0,0,83,83,189,250.64258074760437,,,,,,,,,,,,,,,,,,,,,,,,,,,,,,,,,,,,,,,,,,,,,,,,,,,,,,,,,,,,,,,,,,,,,,,,,,,,,,,,,92.36758307023499,75.88515052531525,96.67731604887399,96.67731604887399,75.75668607415156,89.01839657490973,1.0,1.3,298,-276,480,-281,669,-268,250.62724113464355,250.6273205280304,250.6305570602417,250.64258074760437,250.7929368019104,250.7929368019104,250.7929368019104,250.7929368019104,250.7929368019104,250.7929368019104,250.7929368019104,251.87651109695435,2,1.2258188724517822,None,,,,,,,,,,,,,,,,,,175,1,2025-03-03_14h54.43.673,comp,2024.2.4,None,2025-03-03 14h55.12.083964 -0500,
84,84,0,filler_square,None,None,None,None,None,None,None,None,None,None,3,1.0478999614715576,None,,,,,0,0,0,0,0,84,84,181,251.89278268814087,,,,,,,,,,,,,,,,,,,,,,,,,,,,,,,,,,,,,,,,,,,,,,,,,,,,,,,,,,,,,,,,,,,,,,,,,,,,,,,,,74.86053059734911,128.69397114659432,110.3868822961851,111.54479958039543,131.45548611162855,131.45548611162855,1.0,1.3,264,-252,480,-261,698,-280,251.87837076187134,251.87845277786255,251.88208413124084,251.89278268814087,252.04781031608582,252.04781031608582,252.04781031608582,252.04781031608582,252.04781031608582,252.04781031608582,252.04781031608582,252.94435691833496,3,1.0478999614715576,None,,,,,,,,,,,,,,,,,,175,1,2025-03-03_14h54.43.673,comp,2024.2.4,None,2025-03-03 14h55.12.083964 -0500,
85,85,0,filler_square,None,None,None,None,None,None,None,None,None,None,2,1.0060279369354248,None,,,,,0,0,0,0,0,85,85,201,252.96645259857178,,,,,,,,,,,,,,,,,,,,,,,,,,,,,,,,,,,,,,,,,,,,,,,,,,,,,,,,,,,,,,,,,,,,,,,,,,,,,,,,,134.96946657552027,124.0973209472954,167.43489166385888,167.43489166385888,103.24520707145001,151.22348565917036,3.0,3.1,-242,287,0,-3,255,-261,252.94641947746277,252.946551322937,252.95062136650085,252.96645259857178,253.11658310890198,253.11658310890198,253.11658310890198,253.11658310890198,253.11658310890198,253.11658310890198,253.11658310890198,253.97839736938477,2,1.0060279369354248,None,,,,,,,,,,,,,,,,,,175,1,2025-03-03_14h54.43.673,comp,2024.2.4,None,2025-03-03 14h55.12.083964 -0500,
86,86,0,critical,dwh,35.0,2.1,upper,127.0,127.0,125.0,200.0,200.0,125.0,2,1.2727665901184082,None,,,,,0,0,0,0,0,86,86,29,253.99488759040833,,,,,,,,,,,,,,,,,,,,,,,,,,,,,,,,,,,,,,,,,,,,,,,,,,,,,,,,,,,,,,,,,,,,,,,,,,,,,,,,,127.0,127.0,125.0,200.0,200.0,125.0,2.1,2.12,-260,-287,0,-264,258,265,253.980238199234,253.98033118247986,253.98411798477173,253.99488759040833,254.15005683898926,254.15005683898926,254.15005683898926,254.15005683898926,254.15005683898926,254.15005683898926,254.15005683898926,255.28044629096985,2,1.2727665901184082,None,,,,,,,,,,,,,,,,,,175,1,2025-03-03_14h54.43.673,comp,2024.2.4,None,2025-03-03 14h55.12.083964 -0500,
87,87,0,filler_square,None,None,None,None,None,None,None,None,None,None,1,0.9919843673706055,None,,,,,0,0,0,0,0,87,87,190,255.30010724067688,,,,,,,,,,,,,,,,,,,,,,,,,,,,,,,,,,,,,,,,,,,,,,,,,,,,,,,,,,,,,,,,,,,,,,,,,,,,,,,,,191.9380711018145,191.9380711018145,137.16396128383613,149.3306706088643,96.29195163609745,175.42697780988436,2.1,2.12,-267,-283,0,-251,258,286,255.28248739242554,255.28257203102112,255.28627395629883,255.30010724067688,255.44427824020386,255.44427824020386,255.44427824020386,255.44427824020386,255.44427824020386,255.44427824020386,255.44427824020386,256.298779964447,1,0.9919843673706055,None,,,,,,,,,,,,,,,,,,175,1,2025-03-03_14h54.43.673,comp,2024.2.4,None,2025-03-03 14h55.12.083964 -0500,
88,88,0,filler_square,None,None,None,None,None,None,None,None,None,None,2,1.7190346717834473,None,,,,,0,0,0,0,0,88,88,185,256.31724667549133,,,,,,,,,,,,,,,,,,,,,,,,,,,,,,,,,,,,,,,,,,,,,,,,,,,,,,,,,,,,,,,,,,,,,,,,,,,,,,,,,76.90929698849608,87.5109953949864,87.23155061806159,88.93367608110668,91.8388074211095,91.8388074211095,2.1,2.12,-184,-277,0,-289,186,262,256.3008043766022,256.30090141296387,256.30430579185486,256.31724667549133,256.46188163757324,256.46188163757324,256.46188163757324,256.46188163757324,256.46188163757324,256.46188163757324,256.46188163757324,258.0451464653015,2,1.7190346717834473,None,,,,,,,,,,,,,,,,,,175,1,2025-03-03_14h54.43.673,comp,2024.2.4,None,2025-03-03 14h55.12.083964 -0500,
89,89,0,critical,whd,20.0,4.0,upper,125.0,200.0,200.0,125.0,141.0,141.0,1,1.4946870803833008,None,,,,,0,0,0,0,0,89,89,95,258.06156063079834,,,,,,,,,,,,,,,,,,,,,,,,,,,,,,,,,,,,,,,,,,,,,,,,,,,,,,,,,,,,,,,,,,,,,,,,,,,,,,,,,125.0,200.0,200.0,125.0,141.0,141.0,4.0,4.2,-258,5,0,-280,229,9,258.046737909317,258.0468199253082,258.0504493713379,258.06156063079834,258.2111442089081,258.2111442089081,258.2111442089081,258.2111442089081,258.2111442089081,258.2111442089081,258.2111442089081,259.5623288154602,1,1.4946870803833008,None,,,,,,,,,,,,,,,,,,175,1,2025-03-03_14h54.43.673,comp,2024.2.4,None,2025-03-03 14h55.12.083964 -0500,
90,90,0,critical,hwd,20.0,4.0,upper,200.0,125.0,125.0,200.0,141.0,141.0,1,1.1365094184875488,None,,,,,0,0,0,0,0,90,90,107,259.5791380405426,,,,,,,,,,,,,,,,,,,,,,,,,,,,,,,,,,,,,,,,,,,,,,,,,,,,,,,,,,,,,,,,,,,,,,,,,,,,,,,,,200.0,125.0,125.0,200.0,141.0,141.0,4.0,4.2,-258,-16,0,-270,266,-18,259.5638520717621,259.5639317035675,259.56748604774475,259.5791380405426,259.72967886924744,259.72967886924744,259.72967886924744,259.72967886924744,259.72967886924744,259.72967886924744,259.72967886924744,260.7291257381439,1,1.1365094184875488,None,,,,,,,,,,,,,,,,,,175,1,2025-03-03_14h54.43.673,comp,2024.2.4,None,2025-03-03 14h55.12.083964 -0500,
91,91,0,critical,whd,35.0,2.1,lower,57.0,133.0,133.0,57.0,70.0,70.0,1,1.9145934581756592,None,,,,,0,0,0,0,0,91,91,36,260.7454626560211,,,,,,,,,,,,,,,,,,,,,,,,,,,,,,,,,,,,,,,,,,,,,,,,,,,,,,,,,,,,,,,,,,,,,,,,,,,,,,,,,57.0,133.0,133.0,57.0,70.0,70.0,2.1,2.11,-191,253,0,251,160,-252,260.7305533885956,260.7306263446808,260.7341368198395,260.7454626560211,260.898136138916,260.898136138916,260.898136138916,260.898136138916,260.898136138916,260.898136138916,260.898136138916,262.67831921577454,1,1.9145934581756592,None,,,,,,,,,,,,,,,,,,175,1,2025-03-03_14h54.43.673,comp,2024.2.4,None,2025-03-03 14h55.12.083964 -0500,
92,92,0,critical,hwd,35.0,4.0,lower,133.0,57.0,57.0,133.0,70.0,70.0,2,1.707526445388794,None,,,,,0,0,0,0,0,92,92,100,262.69631457328796,,,,,,,,,,,,,,,,,,,,,,,,,,,,,,,,,,,,,,,,,,,,,,,,,,,,,,,,,,,,,,,,,,,,,,,,,,,,,,,,,133.0,57.0,57.0,133.0,70.0,70.0,4.0,4.1,-191,-253,0,-10,198,-253,262.6798892021179,262.6799666881561,262.68366026878357,262.69631457328796,262.84810733795166,262.84810733795166,262.84810733795166,262.84810733795166,262.84810733795166,262.84810733795166,262.84810733795166,264.40596747398376,2,1.707526445388794,None,,,,,,,,,,,,,,,,,,175,1,2025-03-03_14h54.43.673,comp,2024.2.4,None,2025-03-03 14h55.12.083964 -0500,
93,93,0,critical,hdw,35.0,2.1,upper,200.0,125.0,127.0,127.0,125.0,200.0,1,1.534816026687622,None,,,,,0,0,0,0,0,93,93,21,264.4215626716614,,,,,,,,,,,,,,,,,,,,,,,,,,,,,,,,,,,,,,,,,,,,,,,,,,,,,,,,,,,,,,,,,,,,,,,,,,,,,,,,,200.0,125.0,127.0,127.0,125.0,200.0,2.1,2.11,-222,283,0,275,260,-272,264.4074821472168,264.40755891799927,264.4106595516205,264.4215626716614,264.5638418197632,264.5638418197632,264.5638418197632,264.5638418197632,264.5638418197632,264.5638418197632,264.5638418197632,265.9633479118347,1,1.534816026687622,None,,,,,,,,,,,,,,,,,,175,1,2025-03-03_14h54.43.673,comp,2024.2.4,None,2025-03-03 14h55.12.083964 -0500,
94,94,0,filler_random,None,None,None,None,None,None,None,None,None,None,2,1.632629632949829,None,,,,,0,0,0,0,0,94,94,163,265.97952675819397,,,,,,,,,,,,,,,,,,,,,,,,,,,,,,,,,,,,,,,,,,,,,,,,,,,,,,,,,,,,,,,,,,,,,,,,,,,,,,,,,130.3638559748484,126.69121192429238,80.74688764199114,181.76104678948144,134.79113070865247,123.49826279871883,4.0,4.1,-250,-254,0,-17,249,-284,265.96513628959656,265.9652142524719,265.96874356269836,265.97952675819397,266.13275623321533,266.13275623321533,266.13275623321533,266.13275623321533,266.13275623321533,266.13275623321533,266.13275623321533,267.614182472229,2,1.632629632949829,None,,,,,,,,,,,,,,,,,,175,1,2025-03-03_14h54.43.673,comp,2024.2.4,None,2025-03-03 14h55.12.083964 -0500,
95,95,0,critical,hwd,35.0,3.0,lower,133.0,57.0,57.0,133.0,70.0,70.0,2,1.4841282367706299,None,,,,,0,0,0,0,0,95,95,98,267.63202929496765,,,,,,,,,,,,,,,,,,,,,,,,,,,,,,,,,,,,,,,,,,,,,,,,,,,,,,,,,,,,,,,,,,,,,,,,,,,,,,,,,133.0,57.0,57.0,133.0,70.0,70.0,3.0,3.1,-191,260,0,-3,198,-251,267.61580300331116,267.61588501930237,267.619580745697,267.63202929496765,267.78261518478394,267.78261518478394,267.78261518478394,267.78261518478394,267.78261518478394,267.78261518478394,267.78261518478394,269.1239833831787,2,1.4841282367706299,None,,,,,,,,,,,,,,,,,,175,1,2025-03-03_14h54.43.673,comp,2024.2.4,None,2025-03-03 14h55.12.083964 -0500,
96,96,0,filler_random,None,None,None,None,None,None,None,None,None,None,3,0.9657292366027832,None,,,,,0,0,0,0,0,96,96,166,269.14262986183167,,,,,,,,,,,,,,,,,,,,,,,,,,,,,,,,,,,,,,,,,,,,,,,,,,,,,,,,,,,,,,,,,,,,,,,,,,,,,,,,,132.79635901069076,160.99192494065244,159.34925721369748,94.18312629689854,174.3400981123723,199.26791380178088,3.0,3.2,-224,-274,0,9,243,276,269.12571263313293,269.12579250335693,269.1289162635803,269.14262986183167,269.27757358551025,269.27757358551025,269.27757358551025,269.27757358551025,269.27757358551025,269.27757358551025,269.27757358551025,270.11578488349915,3,0.9657292366027832,None,,,,,,,,,,,,,,,,,,175,1,2025-03-03_14h54.43.673,comp,2024.2.4,None,2025-03-03 14h55.12.083964 -0500,
97,97,0,catch,None,None,None,None,None,None,None,None,None,None,1,0.9760582447052002,None,,,,,0,0,0,0,0,97,97,122,270.13257241249084,,,,,,,,,,,,,,,,,,,,,,,,,,,,,,,,,,,,,,,,,,,,,,,,,,,,,,,,,,,,,,,,,,,,,,,,,,,,,,,,,156,169,133,57,79,111,1.0,1.2,-209,20,0,-6,180,-6,270.1177296638489,270.1178126335144,270.1210939884186,270.13257241249084,270.2821364402771,270.2821364402771,270.2821364402771,270.2821364402771,270.2821364402771,270.2821364402771,270.2821364402771,271.1152038574219,1,0.9760582447052002,None,,,,,,,,,,,,,,,,,,175,1,2025-03-03_14h54.43.673,comp,2024.2.4,None,2025-03-03 14h55.12.083964 -0500,
98,98,0,filler_square,None,None,None,None,None,None,None,None,None,None,3,1.1825473308563232,None,,,,,0,0,0,0,0,98,98,197,271.1333360671997,,,,,,,,,,,,,,,,,,,,,,,,,,,,,,,,,,,,,,,,,,,,,,,,,,,,,,,,,,,,,,,,,,,,,,,,,,,,,,,,,107.1937794383304,87.43254997946238,63.97728701900224,61.882739739139275,141.36788061110798,141.36788061110798,3.0,3.1,-171,282,0,0,198,-277,271.1172208786011,271.1173040866852,271.12091159820557,271.1333360671997,271.28351521492004,271.28351521492004,271.28351521492004,271.28351521492004,271.28351521492004,271.28351521492004,271.28351521492004,272.319917678833,3,1.1825473308563232,None,,,,,,,,,,,,,,,,,,175,1,2025-03-03_14h54.43.673,comp,2024.2.4,None,2025-03-03 14h55.12.083964 -0500,
99,99,0,critical,whd,20.0,2.1,lower,57.0,133.0,133.0,57.0,78.0,78.0,2,1.5135571956634521,None,,,,,0,0,0,0,0,99,99,14,272.33811116218567,,,,,,,,,,,,,,,,,,,,,,,,,,,,,,,,,,,,,,,,,,,,,,,,,,,,,,,,,,,,,,,,,,,,,,,,,,,,,,,,,57.0,133.0,133.0,57.0,78.0,78.0,2.1,2.12,-191,-262,0,-284,164,276,272.3218266963959,272.321905374527,272.3249831199646,272.33811116218567,272.48349618911743,272.48349618911743,272.48349618911743,272.48349618911743,272.48349618911743,272.48349618911743,272.48349618911743,273.8672685623169,2,1.5135571956634521,None,,,,,,,,,,,,,,,,,,175,1,2025-03-03_14h54.43.673,comp,2024.2.4,None,2025-03-03 14h55.12.083964 -0500,
100,100,0,critical,wdh,20.0,4.0,upper,125.0,200.0,141.0,141.0,200.0,125.0,1,2.039271116256714,None,,,,,0,0,0,0,0,100,100,83,273.8849275112152,,,,,,,,,,,,,,,,,,,,,,,,,,,,,,,,,,,,,,,,,,,,,,,,,,,,,,,,,,,,,,,,,,,,,,,,,,,,,,,,,125.0,200.0,141.0,141.0,200.0,125.0,4.0,4.1,-266,-254,0,10,229,-288,273.86879086494446,273.8688690662384,273.8721742630005,273.8849275112152,274.0342824459076,274.0342824459076,274.0342824459076,274.0342824459076,274.0342824459076,274.0342824459076,274.0342824459076,275.9331693649292,1,2.039271116256714,None,,,,,,,,,,,,,,,,,,175,1,2025-03-03_14h54.43.673,comp,2024.2.4,None,2025-03-03 14h55.12.083964 -0500,
101,101,0,filler_square,None,None,None,None,None,None,None,None,None,None,3,3.077693462371826,None,,,,,0,0,0,0,0,101,101,177,275.95077681541443,,,,,,,,,,,,,,,,,,,,,,,,,,,,,,,,,,,,,,,,,,,,,,,,,,,,,,,,,,,,,,,,,,,,,,,,,,,,,,,,,57.77333743507848,57.07502930831956,57.795158443281814,57.387808346253465,57.85053401351003,57.85053401351003,2.2,2.21,-153,-271,0,277,154,261,275.9349434375763,275.93505668640137,275.9384596347809,275.95077681541443,276.1014790534973,276.1014790534973,276.1014790534973,276.1014790534973,276.1014790534973,276.1014790534973,276.1014790534973,279.0364873409271,3,3.077693462371826,None,,,,,,,,,,,,,,,,,,175,1,2025-03-03_14h54.43.673,comp,2024.2.4,None,2025-03-03 14h55.12.083964 -0500,
102,102,0,filler_square,None,None,None,None,None,None,None,None,None,None,2,1.4148874282836914,None,,,,,0,0,0,0,0,102,102,205,279.0533821582794,,,,,,,,,,,,,,,,,,,,,,,,,,,,,,,,,,,,,,,,,,,,,,,,,,,,,,,,,,,,,,,,,,,,,,,,,,,,,,,,,62.01485122685415,62.688610349506575,77.27818808151149,77.27818808151149,74.88527265520523,62.16494734755885,2.2,2.22,-166,277,0,-277,166,-276,279.03856110572815,279.0386426448822,279.04250717163086,279.0533821582794,279.2028214931488,279.2028214931488,279.2028214931488,279.2028214931488,279.2028214931488,279.2028214931488,279.2028214931488,280.47085309028625,2,1.4148874282836914,None,,,,,,,,,,,,,,,,,,175,1,2025-03-03_14h54.43.673,comp,2024.2.4,None,2025-03-03 14h55.12.083964 -0500,
103,103,0,filler_square,None,None,None,None,None,None,None,None,None,None,2,1.2677357196807861,None,,,,,0,0,0,0,0,103,103,206,280.48795461654663,,,,,,,,,,,,,,,,,,,,,,,,,,,,,,,,,,,,,,,,,,,,,,,,,,,,,,,,,,,,,,,,,,,,,,,,,,,,,,,,,98.92138378516654,131.00072632981437,147.01198507564712,147.01198507564712,128.19055272358838,140.64189325758014,1.0,1.3,245,-279,480,-252,720,-251,280.4728045463562,280.47288966178894,280.47632479667664,280.48795461654663,280.6348776817322,280.6348776817322,280.6348776817322,280.6348776817322,280.6348776817322,280.6348776817322,280.6348776817322,281.76948642730713,2,1.2677357196807861,None,,,,,,,,,,,,,,,,,,175,1,2025-03-03_14h54.43.673,comp,2024.2.4,None,2025-03-03 14h55.12.083964 -0500,
104,104,0,critical,hdw,20.0,3.0,upper,200.0,125.0,141.0,141.0,125.0,200.0,3,2.178189992904663,None,,,,,0,0,0,0,0,104,104,117,281.7853915691376,,,,,,,,,,,,,,,,,,,,,,,,,,,,,,,,,,,,,,,,,,,,,,,,,,,,,,,,,,,,,,,,,,,,,,,,,,,,,,,,,200.0,125.0,141.0,141.0,125.0,200.0,3.0,3.2,-229,-257,0,-1,266,258,281.7710659503937,281.77120327949524,281.77464985847473,281.7853915691376,281.93644189834595,281.93644189834595,281.93644189834595,281.93644189834595,281.93644189834595,281.93644189834595,281.93644189834595,283.9793643951416,3,2.178189992904663,None,,,,,,,,,,,,,,,,,,175,1,2025-03-03_14h54.43.673,comp,2024.2.4,None,2025-03-03 14h55.12.083964 -0500,
105,105,0,critical,whd,35.0,4.0,lower,57.0,133.0,133.0,57.0,70.0,70.0,1,1.4492065906524658,None,,,,,0,0,0,0,0,105,105,88,283.99524974823,,,,,,,,,,,,,,,,,,,,,,,,,,,,,,,,,,,,,,,,,,,,,,,,,,,,,,,,,,,,,,,,,,,,,,,,,,,,,,,,,57.0,133.0,133.0,57.0,70.0,70.0,4.0,4.2,-191,19,0,-286,160,-6,283.9808647632599,283.98094272613525,283.98403692245483,283.99524974823,284.1369426250458,284.1369426250458,284.1369426250458,284.1369426250458,284.1369426250458,284.1369426250458,284.1369426250458,285.45383882522583,1,1.4492065906524658,None,,,,,,,,,,,,,,,,,,175,1,2025-03-03_14h54.43.673,comp,2024.2.4,None,2025-03-03 14h55.12.083964 -0500,
106,106,0,filler_square,None,None,None,None,None,None,None,None,None,None,3,0.8527803421020508,None,,,,,0,0,0,0,0,106,106,183,285.4708995819092,,,,,,,,,,,,,,,,,,,,,,,,,,,,,,,,,,,,,,,,,,,,,,,,,,,,,,,,,,,,,,,,,,,,,,,,,,,,,,,,,119.76019440062957,183.5897339266665,135.19588824997916,90.28560210683372,188.2869227639265,188.2869227639265,4.0,4.2,-233,-20,0,-273,235,3,285.4558825492859,285.4559817314148,285.4602782726288,285.4708995819092,285.62135004997253,285.62135004997253,285.62135004997253,285.62135004997253,285.62135004997253,285.62135004997253,285.62135004997253,286.3359010219574,3,0.8527803421020508,None,,,,,,,,,,,,,,,,,,175,1,2025-03-03_14h54.43.673,comp,2024.2.4,None,2025-03-03 14h55.12.083964 -0500,
107,107,0,filler_random,None,None,None,None,None,None,None,None,None,None,1,1.316058874130249,None,,,,,0,0,0,0,0,107,107,159,286.3519299030304,,,,,,,,,,,,,,,,,,,,,,,,,,,,,,,,,,,,,,,,,,,,,,,,,,,,,,,,,,,,,,,,,,,,,,,,,,,,,,,,,183.30560700342855,186.6908852416082,122.6230392546596,97.3097361120184,138.35167244721146,117.69556541884674,3.0,3.2,-238,-270,0,-13,204,273,286.33773398399353,286.33784437179565,286.341340303421,286.3519299030304,286.49178862571716,286.49178862571716,286.49178862571716,286.49178862571716,286.49178862571716,286.49178862571716,286.49178862571716,287.6702857017517,1,1.316058874130249,None,,,,,,,,,,,,,,,,,,175,1,2025-03-03_14h54.43.673,comp,2024.2.4,None,2025-03-03 14h55.12.083964 -0500,
108,108,0,filler_random,None,None,None,None,None,None,None,None,None,None,2,0.856680154800415,None,,,,,0,0,0,0,0,108,108,138,287.69166326522827,,,,,,,,,,,,,,,,,,,,,,,,,,,,,,,,,,,,,,,,,,,,,,,,,,,,,,,,,,,,,,,,,,,,,,,,,,,,,,,,,86.84874294362798,95.71615814823662,191.44550167575846,177.6034922799949,133.48164894132395,68.73197197535383,2.1,2.11,-233,284,0,254,219,-265,287.6721031665802,287.6722357273102,287.6759867668152,287.69166326522827,287.83902740478516,287.83902740478516,287.83902740478516,287.83902740478516,287.83902740478516,287.83902740478516,287.83902740478516,288.5516347885132,2,0.856680154800415,None,,,,,,,,,,,,,,,,,,175,1,2025-03-03_14h54.43.673,comp,2024.2.4,None,2025-03-03 14h55.12.083964 -0500,
109,109,0,critical,hdw,20.0,2.1,lower,133.0,57.0,78.0,78.0,57.0,133.0,3,1.6036949157714844,None,,,,,0,0,0,0,0,109,109,22,288.5679838657379,,,,,,,,,,,,,,,,,,,,,,,,,,,,,,,,,,,,,,,,,,,,,,,,,,,,,,,,,,,,,,,,,,,,,,,,,,,,,,,,,133.0,57.0,78.0,78.0,57.0,133.0,2.1,2.12,-164,-268,0,-287,202,270,288.55328130722046,288.553364276886,288.5564670562744,288.5679838657379,288.7200834751129,288.7200834751129,288.7200834751129,288.7200834751129,288.7200834751129,288.7200834751129,288.7200834751129,290.1894829273224,3,1.6036949157714844,None,,,,,,,,,,,,,,,,,,175,1,2025-03-03_14h54.43.673,comp,2024.2.4,None,2025-03-03 14h55.12.083964 -0500,
110,110,0,filler_random,None,None,None,None,None,None,None,None,None,None,1,0.9500284194946289,None,,,,,0,0,0,0,0,110,110,137,290.2057580947876,,,,,,,,,,,,,,,,,,,,,,,,,,,,,,,,,,,,,,,,,,,,,,,,,,,,,,,,,,,,,,,,,,,,,,,,,,,,,,,,,174.5663568641782,171.86627752605366,187.7895759490839,101.42837756019183,66.55041094562898,92.97005095984487,3.0,3.2,-233,-273,0,8,193,253,290.19118666648865,290.191269159317,290.19546008110046,290.2057580947876,290.3551049232483,290.3551049232483,290.3551049232483,290.3551049232483,290.3551049232483,290.3551049232483,290.3551049232483,291.1687889099121,1,0.9500284194946289,None,,,,,,,,,,,,,,,,,,175,1,2025-03-03_14h54.43.673,comp,2024.2.4,None,2025-03-03 14h55.12.083964 -0500,
111,111,0,filler_square,None,None,None,None,None,None,None,None,None,None,3,1.522742509841919,None,,,,,0,0,0,0,0,111,111,178,291.18484258651733,,,,,,,,,,,,,,,,,,,,,,,,,,,,,,,,,,,,,,,,,,,,,,,,,,,,,,,,,,,,,,,,,,,,,,,,,,,,,,,,,58.5049934561831,72.27396845248184,72.22492805568734,57.96718496786895,72.46215593833888,72.46215593833888,3.0,3.2,-161,-269,0,18,161,265,291.170618057251,291.17069602012634,291.1737837791443,291.18484258651733,291.3251066207886,291.3251066207886,291.3251066207886,291.3251066207886,291.3251066207886,291.3251066207886,291.3251066207886,292.72391152381897,3,1.522742509841919,None,,,,,,,,,,,,,,,,,,175,1,2025-03-03_14h54.43.673,comp,2024.2.4,None,2025-03-03 14h55.12.083964 -0500,
112,112,0,filler_random,None,None,None,None,None,None,None,None,None,None,3,1.7103180885314941,None,,,,,0,0,0,0,0,112,112,165,292.7419903278351,,,,,,,,,,,,,,,,,,,,,,,,,,,,,,,,,,,,,,,,,,,,,,,,,,,,,,,,,,,,,,,,,,,,,,,,,,,,,,,,,125.5500077235344,57.58220662134333,94.01191822552104,117.97334558904502,142.16987500994134,80.5540173455374,2.2,2.22,-184,282,0,-282,195,-258,292.72575187683105,292.7258656024933,292.7293746471405,292.7419903278351,292.8876748085022,292.8876748085022,292.8876748085022,292.8876748085022,292.8876748085022,292.8876748085022,292.8876748085022,294.4609773159027,3,1.7103180885314941,None,,,,,,,,,,,,,,,,,,175,1,2025-03-03_14h54.43.673,comp,2024.2.4,None,2025-03-03 14h55.12.083964 -0500,
113,113,0,filler_random,None,None,None,None,None,None,None,None,None,None,3,1.5902669429779053,None,,,,,0,0,0,0,0,113,113,131,294.4780020713806,,,,,,,,,,,,,,,,,,,,,,,,,,,,,,,,,,,,,,,,,,,,,,,,,,,,,,,,,,,,,,,,,,,,,,,,,,,,,,,,,136.09337877561,179.87774342217574,169.3867433452341,145.76452447990687,186.93736077523937,183.52806189872166,2.1,2.11,-259,261,0,289,261,-285,294.46312713623047,294.4632098674774,294.4663894176483,294.4780020713806,294.6264295578003,294.6264295578003,294.6264295578003,294.6264295578003,294.6264295578003,294.6264295578003,294.6264295578003,296.0749464035034,3,1.5902669429779053,None,,,,,,,,,,,,,,,,,,175,1,2025-03-03_14h54.43.673,comp,2024.2.4,None,2025-03-03 14h55.12.083964 -0500,
114,114,0,critical,dwh,20.0,1.0,lower,78.0,78.0,57.0,133.0,133.0,57.0,1,2.992433547973633,None,,,,,0,0,0,0,0,114,114,66,296.091504573822,,,,,,,,,,,,,,,,,,,,,,,,,,,,,,,,,,,,,,,,,,,,,,,,,,,,,,,,,,,,,,,,,,,,,,,,,,,,,,,,,78.0,78.0,57.0,133.0,133.0,57.0,1.0,1.3,278,-290,480,-265,671,-260,296.07659912109375,296.07667875289917,296.0804657936096,296.091504573822,296.2416546344757,296.2416546344757,296.2416546344757,296.2416546344757,296.2416546344757,296.2416546344757,296.2416546344757,299.0940320491791,1,2.992433547973633,None,,,,,,,,,,,,,,,,,,175,1,2025-03-03_14h54.43.673,comp,2024.2.4,None,2025-03-03 14h55.12.083964 -0500,
115,115,0,filler_square,None,None,None,None,None,None,None,None,None,None,3,0.8581662178039551,None,,,,,0,0,0,0,0,115,115,176,299.1135308742523,,,,,,,,,,,,,,,,,,,,,,,,,,,,,,,,,,,,,,,,,,,,,,,,,,,,,,,,,,,,,,,,,,,,,,,,,,,,,,,,,155.3566974895335,60.29966261402648,140.12193897203235,133.52972179078597,180.90901653875505,180.90901653875505,4.0,4.2,-193,2,0,-285,253,11,299.0960578918457,299.09617805480957,299.0994439125061,299.1135308742523,299.25880193710327,299.25880193710327,299.25880193710327,299.25880193710327,299.25880193710327,299.25880193710327,299.25880193710327,299.98896884918213,3,0.8581662178039551,None,,,,,,,,,,,,,,,,,,175,1,2025-03-03_14h54.43.673,comp,2024.2.4,None,2025-03-03 14h55.12.083964 -0500,
116,116,0,critical,hwd,20.0,1.0,upper,200.0,125.0,125.0,200.0,141.0,141.0,2,1.487694263458252,None,,,,,0,0,0,0,0,116,116,103,300.00395917892456,,,,,,,,,,,,,,,,,,,,,,,,,,,,,,,,,,,,,,,,,,,,,,,,,,,,,,,,,,,,,,,,,,,,,,,,,,,,,,,,,200.0,125.0,125.0,200.0,141.0,141.0,1.0,1.2,-258,-1,0,-6,266,-5,299.9905071258545,299.9905860424042,299.9936773777008,300.00395917892456,300.16420817375183,300.16420817375183,300.16420817375183,300.16420817375183,300.16420817375183,300.16420817375183,300.16420817375183,301.5097653865814,2,1.487694263458252,None,,,,,,,,,,,,,,,,,,175,1,2025-03-03_14h54.43.673,comp,2024.2.4,None,2025-03-03 14h55.12.083964 -0500,
117,117,0,critical,hdw,20.0,3.0,lower,133.0,57.0,78.0,78.0,57.0,133.0,3,3.908919095993042,None,,,,,0,0,0,0,0,117,117,116,301.52784633636475,,,,,,,,,,,,,,,,,,,,,,,,,,,,,,,,,,,,,,,,,,,,,,,,,,,,,,,,,,,,,,,,,,,,,,,,,,,,,,,,,133.0,57.0,78.0,78.0,57.0,133.0,3.0,3.1,-164,257,0,-15,202,-288,301.5114085674286,301.51151990890503,301.51498341560364,301.52784633636475,301.684574842453,301.684574842453,301.684574842453,301.684574842453,301.684574842453,301.684574842453,301.684574842453,305.44412875175476,3,3.908919095993042,None,,,,,,,,,,,,,,,,,,175,1,2025-03-03_14h54.43.673,comp,2024.2.4,None,2025-03-03 14h55.12.083964 -0500,
118,118,0,critical,dwh,35.0,3.0,upper,127.0,127.0,125.0,200.0,200.0,125.0,2,0.8146312236785889,None,,,,,0,0,0,0,0,118,118,63,305.46097588539124,,,,,,,,,,,,,,,,,,,,,,,,,,,,,,,,,,,,,,,,,,,,,,,,,,,,,,,,,,,,,,,,,,,,,,,,,,,,,,,,,127.0,127.0,125.0,200.0,200.0,125.0,3.0,3.1,-260,257,0,8,258,-261,305.4457747936249,305.44590640068054,305.4501848220825,305.46097588539124,305.60976552963257,305.60976552963257,305.60976552963257,305.60976552963257,305.60976552963257,305.60976552963257,305.60976552963257,306.2779359817505,2,0.8146312236785889,None,,,,,,,,,,,,,,,,,,175,1,2025-03-03_14h54.43.673,comp,2024.2.4,None,2025-03-03 14h55.12.083964 -0500,
119,119,0,filler_random,None,None,None,None,None,None,None,None,None,None,2,0.8533000946044922,None,,,,,0,0,0,0,0,119,119,160,306.29439997673035,,,,,,,,,,,,,,,,,,,,,,,,,,,,,,,,,,,,,,,,,,,,,,,,,,,,,,,,,,,,,,,,,,,,,,,,,,,,,,,,,161.16952794196573,111.38937604012877,124.2695910438058,129.84230693921296,64.42367103956141,169.94133742638274,1.0,1.2,-217,-16,0,11,246,-8,306.27992153167725,306.2800793647766,306.283704996109,306.29439997673035,306.4475476741791,306.4475476741791,306.4475476741791,306.4475476741791,306.4475476741791,306.4475476741791,306.4475476741791,307.1598057746887,2,0.8533000946044922,None,,,,,,,,,,,,,,,,,,175,1,2025-03-03_14h54.43.673,comp,2024.2.4,None,2025-03-03 14h55.12.083964 -0500,
120,120,0,filler_square,None,None,None,None,None,None,None,None,None,None,2,0.7521486282348633,None,,,,,0,0,0,0,0,120,120,170,307.17970061302185,,,,,,,,,,,,,,,,,,,,,,,,,,,,,,,,,,,,,,,,,,,,,,,,,,,,,,,,,,,,,,,,,,,,,,,,,,,,,,,,,188.27812586046258,155.56428216669465,195.59312824184633,195.59312824184633,143.64703368404747,96.88195407533088,3.0,3.1,-272,286,0,0,242,-268,307.16154193878174,307.16161942481995,307.164986371994,307.17970061302185,307.3273403644562,307.3273403644562,307.3273403644562,307.3273403644562,307.3273403644562,307.3273403644562,307.3273403644562,307.9490945339203,2,0.7521486282348633,None,,,,,,,,,,,,,,,,,,175,1,2025-03-03_14h54.43.673,comp,2024.2.4,None,2025-03-03 14h55.12.083964 -0500,
121,121,0,critical,whd,20.0,3.0,lower,57.0,133.0,133.0,57.0,78.0,78.0,2,1.5360875129699707,None,,,,,0,0,0,0,0,121,121,92,307.96508717536926,,,,,,,,,,,,,,,,,,,,,,,,,,,,,,,,,,,,,,,,,,,,,,,,,,,,,,,,,,,,,,,,,,,,,,,,,,,,,,,,,57.0,133.0,133.0,57.0,78.0,78.0,3.0,3.1,-191,263,0,8,164,-266,307.95062375068665,307.9507031440735,307.9547595977783,307.96508717536926,308.1124484539032,308.1124484539032,308.1124484539032,308.1124484539032,308.1124484539032,308.1124484539032,308.1124484539032,309.51151037216187,2,1.5360875129699707,None,,,,,,,,,,,,,,,,,,175,1,2025-03-03_14h54.43.673,comp,2024.2.4,None,2025-03-03 14h55.12.083964 -0500,
122,122,0,filler_square,None,None,None,None,None,None,None,None,None,None,2,1.3960890769958496,None,,,,,0,0,0,0,0,122,122,182,309.5282950401306,,,,,,,,,,,,,,,,,,,,,,,,,,,,,,,,,,,,,,,,,,,,,,,,,,,,,,,,,,,,,,,,,,,,,,,,,,,,,,,,,57.32423259932368,70.61468078457953,86.07987179386953,86.07987179386953,65.28862685851084,70.99110316028876,2.2,2.22,-174,270,0,-254,175,-281,309.5134663581848,309.51356530189514,309.51744747161865,309.5282950401306,309.67630529403687,309.67630529403687,309.67630529403687,309.67630529403687,309.67630529403687,309.67630529403687,309.67630529403687,310.9317445755005,2,1.3960890769958496,None,,,,,,,,,,,,,,,,,,175,1,2025-03-03_14h54.43.673,comp,2024.2.4,None,2025-03-03 14h55.12.083964 -0500,
123,123,0,critical,wdh,35.0,2.1,upper,125.0,200.0,127.0,127.0,200.0,125.0,3,1.3761553764343262,None,,,,,0,0,0,0,0,123,123,33,310.94832134246826,,,,,,,,,,,,,,,,,,,,,,,,,,,,,,,,,,,,,,,,,,,,,,,,,,,,,,,,,,,,,,,,,,,,,,,,,,,,,,,,,125.0,200.0,127.0,127.0,200.0,125.0,2.1,2.11,-260,258,0,279,222,-270,310.93362641334534,310.9337282180786,310.9374632835388,310.94832134246826,311.09357595443726,311.09357595443726,311.09357595443726,311.09357595443726,311.09357595443726,311.09357595443726,311.09357595443726,312.3291985988617,3,1.3761553764343262,None,,,,,,,,,,,,,,,,,,175,1,2025-03-03_14h54.43.673,comp,2024.2.4,None,2025-03-03 14h55.12.083964 -0500,
124,124,0,critical,wdh,35.0,2.1,lower,57.0,133.0,70.0,70.0,133.0,57.0,3,1.4174644947052002,None,,,,,0,0,0,0,0,124,124,32,312.346129655838,,,,,,,,,,,,,,,,,,,,,,,,,,,,,,,,,,,,,,,,,,,,,,,,,,,,,,,,,,,,,,,,,,,,,,,,,,,,,,,,,57.0,133.0,70.0,70.0,133.0,57.0,2.1,2.12,-198,-269,0,-267,160,276,312.33093905448914,312.33109855651855,312.334837436676,312.346129655838,312.4979934692383,312.4979934692383,312.4979934692383,312.4979934692383,312.4979934692383,312.4979934692383,312.4979934692383,313.7814395427704,3,1.4174644947052002,None,,,,,,,,,,,,,,,,,,175,1,2025-03-03_14h54.43.673,comp,2024.2.4,None,2025-03-03 14h55.12.083964 -0500,
125,125,0,filler_random,None,None,None,None,None,None,None,None,None,None,2,0.8460168838500977,None,,,,,0,0,0,0,0,125,125,132,313.79842805862427,,,,,,,,,,,,,,,,,,,,,,,,,,,,,,,,,,,,,,,,,,,,,,,,,,,,,,,,,,,,,,,,,,,,,,,,,,,,,,,,,153.04330385629797,141.3134101874089,196.0638857391054,158.7625265400598,61.13249187051951,99.70544071112809,2.2,2.21,-246,-276,0,278,225,266,313.783305644989,313.78338599205017,313.7872190475464,313.79842805862427,313.9460895061493,313.9460895061493,313.9460895061493,313.9460895061493,313.9460895061493,313.9460895061493,313.9460895061493,314.64993047714233,2,0.8460168838500977,None,,,,,,,,,,,,,,,,,,175,1,2025-03-03_14h54.43.673,comp,2024.2.4,None,2025-03-03 14h55.12.083964 -0500,
126,126,0,critical,dhw,20.0,2.1,upper,141.0,141.0,200.0,125.0,125.0,200.0,2,0.7690885066986084,None,,,,,0,0,0,0,0,126,126,27,314.6667711734772,,,,,,,,,,,,,,,,,,,,,,,,,,,,,,,,,,,,,,,,,,,,,,,,,,,,,,,,,,,,,,,,,,,,,,,,,,,,,,,,,141.0,141.0,200.0,125.0,125.0,200.0,2.1,2.11,-229,266,0,252,258,-287,314.6515636444092,314.6516444683075,314.6551983356476,314.6667711734772,314.8123502731323,314.8123502731323,314.8123502731323,314.8123502731323,314.8123502731323,314.8123502731323,314.8123502731323,315.4380683898926,2,0.7690885066986084,None,,,,,,,,,,,,,,,,,,175,1,2025-03-03_14h54.43.673,comp,2024.2.4,None,2025-03-03 14h55.12.083964 -0500,
127,127,0,critical,whd,20.0,2.1,upper,125.0,200.0,200.0,125.0,141.0,141.0,3,1.9555580615997314,None,,,,,0,0,0,0,0,127,127,39,315.4561336040497,,,,,,,,,,,,,,,,,,,,,,,,,,,,,,,,,,,,,,,,,,,,,,,,,,,,,,,,,,,,,,,,,,,,,,,,,,,,,,,,,125.0,200.0,200.0,125.0,141.0,141.0,2.1,2.12,-258,-282,0,-259,229,263,315.43959069252014,315.4396698474884,315.44272780418396,315.4561336040497,315.5961799621582,315.5961799621582,315.5961799621582,315.5961799621582,315.5961799621582,315.5961799621582,315.5961799621582,317.4138503074646,3,1.9555580615997314,None,,,,,,,,,,,,,,,,,,175,1,2025-03-03_14h54.43.673,comp,2024.2.4,None,2025-03-03 14h55.12.083964 -0500,
128,128,0,filler_square,None,None,None,None,None,None,None,None,None,None,3,0.7575714588165283,None,,,,,0,0,0,0,0,128,128,202,317.4301152229309,,,,,,,,,,,,,,,,,,,,,,,,,,,,,,,,,,,,,,,,,,,,,,,,,,,,,,,,,,,,,,,,,,,,,,,,,,,,,,,,,80.58601221447793,70.94026323798,77.0511065668439,145.19511527679282,157.8016747349141,157.8016747349141,1.0,1.2,-204,-12,0,-13,247,-11,317.41563749313354,317.4157178401947,317.4193580150604,317.4301152229309,317.58152198791504,317.58152198791504,317.58152198791504,317.58152198791504,317.58152198791504,317.58152198791504,317.58152198791504,318.19707226753235,3,0.7575714588165283,None,,,,,,,,,,,,,,,,,,175,1,2025-03-03_14h54.43.673,comp,2024.2.4,None,2025-03-03 14h55.12.083964 -0500,
129,129,0,critical,whd,35.0,1.0,lower,57.0,133.0,133.0,57.0,70.0,70.0,2,1.6167020797729492,None,,,,,0,0,0,0,0,129,129,84,318.2114794254303,,,,,,,,,,,,,,,,,,,,,,,,,,,,,,,,,,,,,,,,,,,,,,,,,,,,,,,,,,,,,,,,,,,,,,,,,,,,,,,,,57.0,133.0,133.0,57.0,70.0,70.0,1.0,1.2,-191,4,0,-10,160,-1,318.19857811927795,318.198655128479,318.2021155357361,318.2114794254303,318.35502338409424,318.35502338409424,318.35502338409424,318.35502338409424,318.35502338409424,318.35502338409424,318.35502338409424,319.8314757347107,2,1.6167020797729492,None,,,,,,,,,,,,,,,,,,175,1,2025-03-03_14h54.43.673,comp,2024.2.4,None,2025-03-03 14h55.12.083964 -0500,
130,130,0,catch,None,None,None,None,None,None,None,None,None,None,2,0.908318042755127,None,,,,,0,0,0,0,0,130,130,128,319.8479766845703,,,,,,,,,,,,,,,,,,,,,,,,,,,,,,,,,,,,,,,,,,,,,,,,,,,,,,,,,,,,,,,,,,,,,,,,,,,,,,,,,82,108,192,133,104,86,2.2,2.22,-216,254,0,-275,206,-258,319.83345580101013,319.8335382938385,319.83716583251953,319.8479766845703,319.9960768222809,319.9960768222809,319.9960768222809,319.9960768222809,319.9960768222809,319.9960768222809,319.9960768222809,320.7633800506592,2,0.908318042755127,None,,,,,,,,,,,,,,,,,,175,1,2025-03-03_14h54.43.673,comp,2024.2.4,None,2025-03-03 14h55.12.083964 -0500,
131,131,0,filler_random,None,None,None,None,None,None,None,None,None,None,2,0.9438939094543457,None,,,,,0,0,0,0,0,131,131,155,320.7804539203644,,,,,,,,,,,,,,,,,,,,,,,,,,,,,,,,,,,,,,,,,,,,,,,,,,,,,,,,,,,,,,,,,,,,,,,,,,,,,,,,,176.47231659167102,189.78582798230954,182.6910634765145,146.6688382420337,107.24921481932934,107.71901627699225,2.2,2.21,-264,-284,0,271,223,258,320.7651309967041,320.7652108669281,320.7685945034027,320.7804539203644,320.93120551109314,320.93120551109314,320.93120551109314,320.93120551109314,320.93120551109314,320.93120551109314,320.93120551109314,321.7320308685303,2,0.9438939094543457,None,,,,,,,,,,,,,,,,,,175,1,2025-03-03_14h54.43.673,comp,2024.2.4,None,2025-03-03 14h55.12.083964 -0500,
132,132,0,critical,dhw,35.0,2.1,lower,70.0,70.0,133.0,57.0,57.0,133.0,3,1.7435905933380127,None,,,,,0,0,0,0,0,132,132,0,321.74868273735046,,,,,,,,,,,,,,,,,,,,,,,,,,,,,,,,,,,,,,,,,,,,,,,,,,,,,,,,,,,,,,,,,,,,,,,,,,,,,,,,,70.0,70.0,133.0,57.0,57.0,133.0,2.1,2.12,-160,-262,0,-274,191,280,321.73366522789,321.73374605178833,321.7379410266876,321.74868273735046,321.89939284324646,321.89939284324646,321.89939284324646,321.89939284324646,321.89939284324646,321.89939284324646,321.89939284324646,323.5011901855469,3,1.7435905933380127,None,,,,,,,,,,,,,,,,,,175,1,2025-03-03_14h54.43.673,comp,2024.2.4,None,2025-03-03 14h55.12.083964 -0500,
133,133,0,filler_random,None,None,None,None,None,None,None,None,None,None,1,1.6355507373809814,None,,,,,0,0,0,0,0,133,133,130,323.5202434062958,,,,,,,,,,,,,,,,,,,,,,,,,,,,,,,,,,,,,,,,,,,,,,,,,,,,,,,,,,,,,,,,,,,,,,,,,,,,,,,,,118.36086814818424,156.25913432557303,127.48663567865778,72.73230478833484,80.7907573669344,199.47926719916904,2.2,2.21,-210,-287,0,250,232,271,323.502977848053,323.5030815601349,323.5063683986664,323.5202434062958,323.66721510887146,323.66721510887146,323.66721510887146,323.66721510887146,323.66721510887146,323.66721510887146,323.66721510887146,325.1579954624176,1,1.6355507373809814,None,,,,,,,,,,,,,,,,,,175,1,2025-03-03_14h54.43.673,comp,2024.2.4,None,2025-03-03 14h55.12.083964 -0500,
134,134,0,critical,hwd,35.0,1.0,upper,200.0,125.0,125.0,200.0,127.0,127.0,2,1.9805409908294678,None,,,,,0,0,0,0,0,134,134,97,325.17587208747864,,,,,,,,,,,,,,,,,,,,,,,,,,,,,,,,,,,,,,,,,,,,,,,,,,,,,,,,,,,,,,,,,,,,,,,,,,,,,,,,,200.0,125.0,125.0,200.0,127.0,127.0,1.0,1.1,-738,251,-480,271,-220,258,325.15952801704407,325.15962982177734,325.16278052330017,325.17587208747864,325.31768131256104,325.31768131256104,325.31768131256104,325.31768131256104,325.31768131256104,325.31768131256104,325.31768131256104,327.1679172515869,2,1.9805409908294678,None,,,,,,,,,,,,,,,,,,175,1,2025-03-03_14h54.43.673,comp,2024.2.4,None,2025-03-03 14h55.12.083964 -0500,
135,135,0,critical,wdh,20.0,3.0,lower,57.0,133.0,78.0,78.0,133.0,57.0,1,1.5551738739013672,None,,,,,0,0,0,0,0,135,135,80,327.18449091911316,,,,,,,,,,,,,,,,,,,,,,,,,,,,,,,,,,,,,,,,,,,,,,,,,,,,,,,,,,,,,,,,,,,,,,,,,,,,,,,,,57.0,133.0,78.0,78.0,133.0,57.0,3.0,3.1,-202,256,0,10,164,-266,327.1694755554199,327.16956615448,327.1732313632965,327.18449091911316,327.33243560791016,327.33243560791016,327.33243560791016,327.33243560791016,327.33243560791016,327.33243560791016,327.33243560791016,328.7505359649658,1,1.5551738739013672,None,,,,,,,,,,,,,,,,,,175,1,2025-03-03_14h54.43.673,comp,2024.2.4,None,2025-03-03 14h55.12.083964 -0500,
136,136,0,critical,wdh,20.0,2.1,lower,57.0,133.0,78.0,78.0,133.0,57.0,1,1.149749994277954,None,,,,,0,0,0,0,0,136,136,34,328.76665329933167,,,,,,,,,,,,,,,,,,,,,,,,,,,,,,,,,,,,,,,,,,,,,,,,,,,,,,,,,,,,,,,,,,,,,,,,,,,,,,,,,57.0,133.0,78.0,78.0,133.0,57.0,2.1,2.11,-202,270,0,278,164,-271,328.7522249221802,328.7523081302643,328.75584387779236,328.76665329933167,328.9172902107239,328.9172902107239,328.9172902107239,328.9172902107239,328.9172902107239,328.9172902107239,328.9172902107239,329.92204451560974,1,1.149749994277954,None,,,,,,,,,,,,,,,,,,175,1,2025-03-03_14h54.43.673,comp,2024.2.4,None,2025-03-03 14h55.12.083964 -0500,
137,137,0,filler_square,None,None,None,None,None,None,None,None,None,None,2,1.5454049110412598,None,,,,,0,0,0,0,0,137,137,198,329.9384398460388,,,,,,,,,,,,,,,,,,,,,,,,,,,,,,,,,,,,,,,,,,,,,,,,,,,,,,,,,,,,,,,,,,,,,,,,,,,,,,,,,71.56263439603254,71.56263439603254,70.33552167240325,67.87594249292381,69.24029278963135,68.63158323353787,3.0,3.1,-166,266,0,-3,164,-260,329.92396450042725,329.92412877082825,329.9275200366974,329.9384398460388,330.0841097831726,330.0841097831726,330.0841097831726,330.0841097831726,330.0841097831726,330.0841097831726,330.0841097831726,331.4904429912567,2,1.5454049110412598,None,,,,,,,,,,,,,,,,,,175,1,2025-03-03_14h54.43.673,comp,2024.2.4,None,2025-03-03 14h55.12.083964 -0500,
138,138,0,critical,dhw,35.0,2.1,upper,127.0,127.0,200.0,125.0,125.0,200.0,3,1.8553452491760254,None,,,,,0,0,0,0,0,138,138,1,331.50869822502136,,,,,,,,,,,,,,,,,,,,,,,,,,,,,,,,,,,,,,,,,,,,,,,,,,,,,,,,,,,,,,,,,,,,,,,,,,,,,,,,,127.0,127.0,200.0,125.0,125.0,200.0,2.1,2.12,-222,-281,0,-284,258,252,331.4920597076416,331.4921417236328,331.4956679344177,331.50869822502136,331.65271282196045,331.65271282196045,331.65271282196045,331.65271282196045,331.65271282196045,331.65271282196045,331.65271282196045,333.3695068359375,3,1.8553452491760254,None,,,,,,,,,,,,,,,,,,175,1,2025-03-03_14h54.43.673,comp,2024.2.4,None,2025-03-03 14h55.12.083964 -0500,
139,139,0,critical,dwh,20.0,3.0,lower,78.0,78.0,57.0,133.0,133.0,57.0,2,1.333320140838623,None,,,,,0,0,0,0,0,139,139,68,333.3904995918274,,,,,,,,,,,,,,,,,,,,,,,,,,,,,,,,,,,,,,,,,,,,,,,,,,,,,,,,,,,,,,,,,,,,,,,,,,,,,,,,,78.0,78.0,57.0,133.0,133.0,57.0,3.0,3.2,-202,-283,0,14,191,269,333.3711085319519,333.3712115287781,333.3747720718384,333.3904995918274,333.53559708595276,333.53559708595276,333.53559708595276,333.53559708595276,333.53559708595276,333.53559708595276,333.53559708595276,334.7375843524933,2,1.333320140838623,None,,,,,,,,,,,,,,,,,,175,1,2025-03-03_14h54.43.673,comp,2024.2.4,None,2025-03-03 14h55.12.083964 -0500,
140,140,0,filler_square,None,None,None,None,None,None,None,None,None,None,3,2.095292568206787,None,,,,,0,0,0,0,0,140,140,188,334.7563865184784,,,,,,,,,,,,,,,,,,,,,,,,,,,,,,,,,,,,,,,,,,,,,,,,,,,,,,,,,,,,,,,,,,,,,,,,,,,,,,,,,119.50758055589372,110.77967030789239,64.21219444501358,111.5954982076527,125.23060193732586,125.23060193732586,4.0,4.1,-207,-287,0,-17,214,-270,334.73967027664185,334.73975110054016,334.74339151382446,334.7563865184784,334.9018728733063,334.9018728733063,334.9018728733063,334.9018728733063,334.9018728733063,334.9018728733063,334.9018728733063,336.86861538887024,3,2.095292568206787,None,,,,,,,,,,,,,,,,,,175,1,2025-03-03_14h54.43.673,comp,2024.2.4,None,2025-03-03 14h55.12.083964 -0500,
141,141,0,filler_square,None,None,None,None,None,None,None,None,None,None,1,0.8949003219604492,None,,,,,0,0,0,0,0,141,141,191,336.88542580604553,,,,,,,,,,,,,,,,,,,,,,,,,,,,,,,,,,,,,,,,,,,,,,,,,,,,,,,,,,,,,,,,,,,,,,,,,,,,,,,,,111.63633199345446,111.63633199345446,73.37817746102392,94.6578026231696,58.340070794218896,59.18944591231861,1.0,1.2,-199,1,0,-10,173,3,336.8706216812134,336.8707036972046,336.8742034435272,336.88542580604553,337.0360851287842,337.0360851287842,337.0360851287842,337.0360851287842,337.0360851287842,337.0360851287842,337.0360851287842,337.78762578964233,1,0.8949003219604492,None,,,,,,,,,,,,,,,,,,175,1,2025-03-03_14h54.43.673,comp,2024.2.4,None,2025-03-03 14h55.12.083964 -0500,
142,142,0,critical,wdh,35.0,1.0,lower,57.0,133.0,70.0,70.0,133.0,57.0,3,1.51991868019104,None,,,,,0,0,0,0,0,142,142,72,337.80381631851196,,,,,,,,,,,,,,,,,,,,,,,,,,,,,,,,,,,,,,,,,,,,,,,,,,,,,,,,,,,,,,,,,,,,,,,,,,,,,,,,,57.0,133.0,70.0,70.0,133.0,57.0,1.0,1.1,-678,274,-480,288,-320,256,337.78920245170593,337.789338350296,337.792977809906,337.80381631851196,337.9535210132599,337.9535210132599,337.9535210132599,337.9535210132599,337.9535210132599,337.9535210132599,337.9535210132599,339.3410542011261,3,1.51991868019104,None,,,,,,,,,,,,,,,,,,175,1,2025-03-03_14h54.43.673,comp,2024.2.4,None,2025-03-03 14h55.12.083964 -0500,
