thisN,thisTrialN,thisRepN,effect,order,distance,config,diag,h_1,w_1,h_2,w_2,h_3,w_3,rect_choice.keys,rect_choice.rt,rect_choice.duration,instructions_loop.thisRepN,instructions_loop.thisTrialN,instructions_loop.thisN,instructions_loop.thisIndex,blocks.thisRepN,blocks.thisTrialN,blocks.thisN,blocks.thisIndex,trials.thisRepN,trials.thisTrialN,trials.thisN,trials.thisIndex,thisRow.t,notes,consent.started,agree_button.started,decline_button.started,consent_img.started,mouse.started,consent.stopped,agree_button.numClicks,agree_button.timesOn,agree_button.timesOff,decline_button.numClicks,decline_button.timesOn,decline_button.timesOff,mouse.x,mouse.y,mouse.leftButton,mouse.midButton,mouse.rightButton,mouse.time,mouse.clicked_name,exp_params.started,exp_params.stopped,welcome.started,welcome_text.started,welcome.stopped,instructions_1.started,instructions_1_text_1.started,instructions_1_text_2.started,key_resp.started,instructions_1.stopped,instructions_loop.key_resp.keys,instructions_loop.key_resp.rt,instructions_loop.key_resp.duration,instructions_2.started,instructions_2_text_1.started,instructions_2_text_2.started,key_resp_2.started,instructions_2.stopped,instructions_loop.key_resp_2.keys,instructions_loop.key_resp_2.rt,instructions_loop.key_resp_2.duration,instructions_3.started,instructions_3_text_1.started,r1_instr3.started,r2_instr3.started,r3_instr3.started,r1_instr3_label.started,r2_instr3_label.started,r3_instr3_label.started,instructions_3_text_3.started,instructions_3_text_4.started,key_resp_3.started,instructions_3.stopped,instructions_loop.key_resp_3.keys,instructions_loop.key_resp_3.rt,instructions_loop.key_resp_3.duration,instructions_4.started,instructions_4_text_1.started,instructions_4_text_3.started,instructions_4_text_2.started,key_resp_4.started,instructions_4.stopped,instructions_loop.key_resp_4.keys,instructions_loop.key_resp_4.rt,instructions_loop.key_resp_4.duration,instructions_5.started,instructions_5_text_1.started,instructions_5_text_2.started,key_resp_5.started,instructions_5.stopped,instructions_loop.key_resp_5.keys,instructions_loop.key_resp_5.rt,instructions_loop.key_resp_5.duration,start_exp.started,start_exp_text.started,key_resp_6.started,start_exp.stopped,key_resp_6.keys,key_resp_6.rt,key_resp_6.duration,h_1_tmp,w_1_tmp,h_2_tmp,w_2_tmp,h_3_tmp,w_3_tmp,config_tmp,config_tmp_1,r_1_x,r_1_y,r_2_x,r_2_y,r_3_x,r_3_y,pre_trial.started,pre_trial.stopped,choice_trial.started,rect_choice.started,r_1.started,r_2.started,r_3.started,r_1_label.started,r_2_label.started,r_3_label.started,prompt.started,choice_trial.stopped,trials.rect_choice.keys,trials.rect_choice.rt,trials.rect_choice.duration,end_block.started,end_block_text.started,end_block.stopped,end.started,end_text.started,key_resp_7.started,end.stopped,key_resp_7.keys,key_resp_7.rt,key_resp_7.duration,debriefing.started,debrief_form.started,end_debrief.started,debriefing.stopped,end_debrief.keys,end_debrief.rt,end_debrief.duration,participant,computer,date,expName,psychopyVersion,frameRate,expStart,
,,,,,,,,,,,,,,,,,,,,,,,,,,,,,,,0.01470637321472168,0.038244009017944336,0.038244009017944336,0.038244009017944336,0.014461517333984375,39.92929172515869,1,[39.88900566101074],[39.88902473449707],0,,,[-58.0],[-504.0],[1],[0],[0],[39.91422390937805],['agree_button'],,,,,,,,,,,,,,,,,,,,,,,,,,,,,,,,,,,,,,,,,,,,,,,,,,,,,,,,,,,,,,,,,,,,,,,,,,,,,,,,,,,,,,,,,,,,,,,,,,,,,,,,,,,176,2,2025-03-03_14h54.41.786,comp,2024.2.4,None,2025-03-03 14h55.15.113667 -0500,
,,,,,,,,,,,,,,,,,,,,,,,,,,,,,,,,,,,,,,,,,,,,,,,,,,39.92978310585022,39.92984199523926,,,,,,,,,,,,,,,,,,,,,,,,,,,,,,,,,,,,,,,,,,,,,,,,,,,,,,,,,,,,,,,,,,,,,,,,,,,,,,,,,,,,,,,,,,,,,,,,,,,,,,,,,176,2,2025-03-03_14h54.41.786,comp,2024.2.4,None,2025-03-03 14h55.15.113667 -0500,
,,,,,,,,,,,,,,,,,,,,,,,,,,,,,,,,,,,,,,,,,,,,,,,,,,,,39.929880142211914,39.94487500190735,41.93225049972534,,,,,,,,,,,,,,,,,,,,,,,,,,,,,,,,,,,,,,,,,,,,,,,,,,,,,,,,,,,,,,,,,,,,,,,,,,,,,,,,,,,,,,,,,,,,,,,,,,,,,,176,2,2025-03-03_14h54.41.786,comp,2024.2.4,None,2025-03-03 14h55.15.113667 -0500,
0,0,0,,,,,,,,,,,,,,,0,0,0,0,,,,,,,,,41.949061155319214,,,,,,,,,,,,,,,,,,,,,,,,,,41.93313121795654,41.949061155319214,41.949061155319214,43.4335355758667,45.754589319229126,space,2.3010666370391846,None,45.75477623939514,45.772671937942505,45.772671937942505,47.26361322402954,53.81934428215027,space,6.542937278747559,None,53.819493770599365,53.84930968284607,53.84930968284607,53.84930968284607,53.84930968284607,53.84930968284607,53.84930968284607,53.84930968284607,53.84930968284607,53.84930968284607,55.31867527961731,60.010244607925415,space,4.6720099449157715,None,60.01044011116028,60.02722764015198,60.02722764015198,60.02722764015198,61.52034664154053,64.90611386299133,space,3.382749080657959,None,64.9062659740448,64.92553997039795,64.92553997039795,66.40637707710266,66.90841507911682,space,0.49660301208496094,None,66.90861487388611,66.92323803901672,66.92323803901672,67.89418244361877,space,0.9638566970825195,None,,,,,,,,,,,,,,,,,,,,,,,,,,,,,,,,,,,,,,,,,,,,,,,176,2,2025-03-03_14h54.41.786,comp,2024.2.4,None,2025-03-03 14h55.15.113667 -0500,
0,0,0,critical,dhw,20.0,2.1,lower,78.0,78.0,133.0,57.0,57.0,133.0,3,4.6847100257873535,None,,,,,0,0,0,0,0,0,0,2,67.97118163108826,,,,,,,,,,,,,,,,,,,,,,,,,,,,,,,,,,,,,,,,,,,,,,,,,,,,,,,,,,,,,,,,,,,,,,,,,,,,,,,,,78.0,78.0,133.0,57.0,57.0,133.0,2.1,2.12,-164,-273,0,-259,191,263,67.95417189598083,67.9542121887207,67.95567846298218,67.97118163108826,68.11408710479736,68.11408710479736,68.11408710479736,68.11408710479736,68.11408710479736,68.11408710479736,68.11408710479736,72.66074967384338,3,4.6847100257873535,None,,,,,,,,,,,,,,,,,,176,2,2025-03-03_14h54.41.786,comp,2024.2.4,None,2025-03-03 14h55.15.113667 -0500,
1,1,0,critical,whd,35.0,3.0,lower,57.0,133.0,133.0,57.0,70.0,70.0,1,3.890751838684082,None,,,,,0,0,0,0,0,1,1,86,72.6760482788086,,,,,,,,,,,,,,,,,,,,,,,,,,,,,,,,,,,,,,,,,,,,,,,,,,,,,,,,,,,,,,,,,,,,,,,,,,,,,,,,,57.0,133.0,133.0,57.0,70.0,70.0,3.0,3.1,-191,259,0,9,160,-287,72.66226744651794,72.66234564781189,72.66530418395996,72.6760482788086,72.82557892799377,72.82557892799377,72.82557892799377,72.82557892799377,72.82557892799377,72.82557892799377,72.82557892799377,76.57820916175842,1,3.890751838684082,None,,,,,,,,,,,,,,,,,,176,2,2025-03-03_14h54.41.786,comp,2024.2.4,None,2025-03-03 14h55.15.113667 -0500,
2,2,0,critical,hwd,20.0,4.0,lower,133.0,57.0,57.0,133.0,78.0,78.0,2,1.9546022415161133,None,,,,,0,0,0,0,0,2,2,106,76.59606385231018,,,,,,,,,,,,,,,,,,,,,,,,,,,,,,,,,,,,,,,,,,,,,,,,,,,,,,,,,,,,,,,,,,,,,,,,,,,,,,,,,133.0,57.0,57.0,133.0,78.0,78.0,4.0,4.1,-191,-290,0,18,202,-285,76.57975006103516,76.57982683181763,76.58299422264099,76.59606385231018,76.74378728866577,76.74378728866577,76.74378728866577,76.74378728866577,76.74378728866577,76.74378728866577,76.74378728866577,78.56633615493774,2,1.9546022415161133,None,,,,,,,,,,,,,,,,,,176,2,2025-03-03_14h54.41.786,comp,2024.2.4,None,2025-03-03 14h55.15.113667 -0500,
3,3,0,critical,dhw,20.0,1.0,lower,78.0,78.0,133.0,57.0,57.0,133.0,3,1.8120856285095215,None,,,,,0,0,0,0,0,3,3,54,78.58668637275696,,,,,,,,,,,,,,,,,,,,,,,,,,,,,,,,,,,,,,,,,,,,,,,,,,,,,,,,,,,,,,,,,,,,,,,,,,,,,,,,,78.0,78.0,133.0,57.0,57.0,133.0,1.0,1.3,316,-285,480,-256,671,-270,78.56794691085815,78.5680284500122,78.57130026817322,78.58668637275696,78.72755932807922,78.72755932807922,78.72755932807922,78.72755932807922,78.72755932807922,78.72755932807922,78.72755932807922,80.41156935691833,3,1.8120856285095215,None,,,,,,,,,,,,,,,,,,176,2,2025-03-03_14h54.41.786,comp,2024.2.4,None,2025-03-03 14h55.15.113667 -0500,
4,4,0,critical,hwd,35.0,2.1,upper,200.0,125.0,125.0,200.0,127.0,127.0,2,3.252495050430298,None,,,,,0,0,0,0,0,4,4,41,80.42673587799072,,,,,,,,,,,,,,,,,,,,,,,,,,,,,,,,,,,,,,,,,,,,,,,,,,,,,,,,,,,,,,,,,,,,,,,,,,,,,,,,,200.0,125.0,125.0,200.0,127.0,127.0,2.1,2.12,-258,-273,0,-260,260,262,80.41304683685303,80.41312170028687,80.41605687141418,80.42673587799072,80.58142066001892,80.58142066001892,80.58142066001892,80.58142066001892,80.58142066001892,80.58142066001892,80.58142066001892,83.6967785358429,2,3.252495050430298,None,,,,,,,,,,,,,,,,,,176,2,2025-03-03_14h54.41.786,comp,2024.2.4,None,2025-03-03 14h55.15.113667 -0500,
5,5,0,critical,dwh,20.0,3.0,upper,141.0,141.0,125.0,200.0,200.0,125.0,2,2.566490650177002,None,,,,,0,0,0,0,0,5,5,69,83.7127742767334,,,,,,,,,,,,,,,,,,,,,,,,,,,,,,,,,,,,,,,,,,,,,,,,,,,,,,,,,,,,,,,,,,,,,,,,,,,,,,,,,141.0,141.0,125.0,200.0,200.0,125.0,3.0,3.2,-266,-251,0,6,258,253,83.69836950302124,83.69844794273376,83.70251607894897,83.7127742767334,83.86907482147217,83.86907482147217,83.86907482147217,83.86907482147217,83.86907482147217,83.86907482147217,83.86907482147217,86.28188347816467,2,2.566490650177002,None,,,,,,,,,,,,,,,,,,176,2,2025-03-03_14h54.41.786,comp,2024.2.4,None,2025-03-03 14h55.15.113667 -0500,
6,6,0,filler_square,None,None,None,None,None,None,None,None,None,None,2,1.2126641273498535,None,,,,,0,0,0,0,0,6,6,200,86.2985508441925,,,,,,,,,,,,,,,,,,,,,,,,,,,,,,,,,,,,,,,,,,,,,,,,,,,,,,,,,,,,,,,,,,,,,,,,,,,,,,,,,148.0995155271211,140.72746331715362,183.62577702329713,183.62577702329713,131.47074611838576,128.94679691964342,3.0,3.1,-258,272,0,4,252,-278,86.28399229049683,86.28412127494812,86.28783226013184,86.2985508441925,86.44732642173767,86.44732642173767,86.44732642173767,86.44732642173767,86.44732642173767,86.44732642173767,86.44732642173767,87.52022433280945,2,1.2126641273498535,None,,,,,,,,,,,,,,,,,,176,2,2025-03-03_14h54.41.786,comp,2024.2.4,None,2025-03-03 14h55.15.113667 -0500,
7,7,0,critical,whd,35.0,4.0,lower,57.0,133.0,133.0,57.0,70.0,70.0,1,1.133638620376587,None,,,,,0,0,0,0,0,7,7,88,87.5377140045166,,,,,,,,,,,,,,,,,,,,,,,,,,,,,,,,,,,,,,,,,,,,,,,,,,,,,,,,,,,,,,,,,,,,,,,,,,,,,,,,,57.0,133.0,133.0,57.0,70.0,70.0,4.0,4.2,-191,-5,0,-261,160,-13,87.52177381515503,87.52184963226318,87.52475166320801,87.5377140045166,87.67972469329834,87.67972469329834,87.67972469329834,87.67972469329834,87.67972469329834,87.67972469329834,87.67972469329834,88.68209886550903,1,1.133638620376587,None,,,,,,,,,,,,,,,,,,176,2,2025-03-03_14h54.41.786,comp,2024.2.4,None,2025-03-03 14h55.15.113667 -0500,
8,8,0,filler_square,None,None,None,None,None,None,None,None,None,None,1,1.6599657535552979,None,,,,,0,0,0,0,0,8,8,192,88.69884157180786,,,,,,,,,,,,,,,,,,,,,,,,,,,,,,,,,,,,,,,,,,,,,,,,,,,,,,,,,,,,,,,,,,,,,,,,,,,,,,,,,180.97785505199693,180.97785505199693,180.27369206712393,110.16519069100491,105.04829620892605,133.77284132703764,2.1,2.11,-242,261,0,281,218,-290,88.68403339385986,88.68416428565979,88.68800354003906,88.69884157180786,88.83513498306274,88.83513498306274,88.83513498306274,88.83513498306274,88.83513498306274,88.83513498306274,88.83513498306274,90.36780261993408,1,1.6599657535552979,None,,,,,,,,,,,,,,,,,,176,2,2025-03-03_14h54.41.786,comp,2024.2.4,None,2025-03-03 14h55.15.113667 -0500,
9,9,0,critical,whd,20.0,2.1,lower,57.0,133.0,133.0,57.0,78.0,78.0,2,4.038865327835083,None,,,,,0,0,0,0,0,9,9,38,90.38445854187012,,,,,,,,,,,,,,,,,,,,,,,,,,,,,,,,,,,,,,,,,,,,,,,,,,,,,,,,,,,,,,,,,,,,,,,,,,,,,,,,,57.0,133.0,133.0,57.0,78.0,78.0,2.1,2.12,-191,-277,0,-258,164,271,90.36961793899536,90.36971950531006,90.37354969978333,90.38445854187012,90.53426933288574,90.53426933288574,90.53426933288574,90.53426933288574,90.53426933288574,90.53426933288574,90.53426933288574,94.43410682678223,2,4.038865327835083,None,,,,,,,,,,,,,,,,,,176,2,2025-03-03_14h54.41.786,comp,2024.2.4,None,2025-03-03 14h55.15.113667 -0500,
10,10,0,critical,hwd,20.0,1.0,upper,200.0,125.0,125.0,200.0,141.0,141.0,2,2.007176637649536,None,,,,,0,0,0,0,0,10,10,103,94.44962215423584,,,,,,,,,,,,,,,,,,,,,,,,,,,,,,,,,,,,,,,,,,,,,,,,,,,,,,,,,,,,,,,,,,,,,,,,,,,,,,,,,200.0,125.0,125.0,200.0,141.0,141.0,1.0,1.3,222,-284,480,-280,746,-273,94.43558716773987,94.43571138381958,94.43892431259155,94.44962215423584,94.60241794586182,94.60241794586182,94.60241794586182,94.60241794586182,94.60241794586182,94.60241794586182,94.60241794586182,96.46754050254822,2,2.007176637649536,None,,,,,,,,,,,,,,,,,,176,2,2025-03-03_14h54.41.786,comp,2024.2.4,None,2025-03-03 14h55.15.113667 -0500,
11,11,0,filler_random,None,None,None,None,None,None,None,None,None,None,1,4.0285680294036865,None,,,,,0,0,0,0,0,11,11,148,96.48374605178833,,,,,,,,,,,,,,,,,,,,,,,,,,,,,,,,,,,,,,,,,,,,,,,,,,,,,,,,,,,,,,,,,,,,,,,,,,,,,,,,,197.24824714701404,140.20766398722247,192.40222379090466,127.99082599879955,75.59120297113662,58.720392705838904,1.0,1.3,250,-290,480,-289,669,-283,96.46926712989807,96.46934628486633,96.47286939620972,96.48374605178833,96.63488411903381,96.63488411903381,96.63488411903381,96.63488411903381,96.63488411903381,96.63488411903381,96.63488411903381,100.51754117012024,1,4.0285680294036865,None,,,,,,,,,,,,,,,,,,176,2,2025-03-03_14h54.41.786,comp,2024.2.4,None,2025-03-03 14h55.15.113667 -0500,
12,12,0,catch,None,None,None,None,None,None,None,None,None,None,2,0.830071210861206,None,,,,,0,0,0,0,0,12,12,128,100.53727221488953,,,,,,,,,,,,,,,,,,,,,,,,,,,,,,,,,,,,,,,,,,,,,,,,,,,,,,,,,,,,,,,,,,,,,,,,,,,,,,,,,113,77,171,154,128,62,1.0,1.2,-212,-19,0,5,204,-18,100.51969170570374,100.51977252960205,100.52313780784607,100.53727221488953,100.68573260307312,100.68573260307312,100.68573260307312,100.68573260307312,100.68573260307312,100.68573260307312,100.68573260307312,101.36939096450806,2,0.830071210861206,None,,,,,,,,,,,,,,,,,,176,2,2025-03-03_14h54.41.786,comp,2024.2.4,None,2025-03-03 14h55.15.113667 -0500,
13,13,0,critical,wdh,35.0,3.0,upper,125.0,200.0,127.0,127.0,200.0,125.0,3,1.1903517246246338,None,,,,,0,0,0,0,0,13,13,75,101.38509893417358,,,,,,,,,,,,,,,,,,,,,,,,,,,,,,,,,,,,,,,,,,,,,,,,,,,,,,,,,,,,,,,,,,,,,,,,,,,,,,,,,125.0,200.0,127.0,127.0,200.0,125.0,3.0,3.2,-260,-258,0,3,222,290,101.3709020614624,101.37097787857056,101.37420558929443,101.38509893417358,101.53775763511658,101.53775763511658,101.53775763511658,101.53775763511658,101.53775763511658,101.53775763511658,101.53775763511658,102.58558249473572,3,1.1903517246246338,None,,,,,,,,,,,,,,,,,,176,2,2025-03-03_14h54.41.786,comp,2024.2.4,None,2025-03-03 14h55.15.113667 -0500,
14,14,0,critical,hwd,20.0,2.1,lower,133.0,57.0,57.0,133.0,78.0,78.0,2,1.518665075302124,None,,,,,0,0,0,0,0,14,14,42,102.6002984046936,,,,,,,,,,,,,,,,,,,,,,,,,,,,,,,,,,,,,,,,,,,,,,,,,,,,,,,,,,,,,,,,,,,,,,,,,,,,,,,,,133.0,57.0,57.0,133.0,78.0,78.0,2.1,2.12,-191,-273,0,-279,202,281,102.58624863624573,102.58628010749817,102.5874490737915,102.6002984046936,102.75360345840454,102.75360345840454,102.75360345840454,102.75360345840454,102.75360345840454,102.75360345840454,102.75360345840454,104.13696646690369,2,1.518665075302124,None,,,,,,,,,,,,,,,,,,176,2,2025-03-03_14h54.41.786,comp,2024.2.4,None,2025-03-03 14h55.15.113667 -0500,
15,15,0,filler_square,None,None,None,None,None,None,None,None,None,None,1,0.8541712760925293,None,,,,,0,0,0,0,0,15,15,178,104.15269947052002,,,,,,,,,,,,,,,,,,,,,,,,,,,,,,,,,,,,,,,,,,,,,,,,,,,,,,,,,,,,,,,,,,,,,,,,,,,,,,,,,177.37906234452117,177.37906234452117,121.74030536845433,124.98661947974041,117.60472246901548,90.30875080160791,2.1,2.11,-247,269,0,259,204,-284,104.13872456550598,104.13880014419556,104.14222288131714,104.15269947052002,104.30520606040955,104.30520606040955,104.30520606040955,104.30520606040955,104.30520606040955,104.30520606040955,104.30520606040955,105.02008533477783,1,0.8541712760925293,None,,,,,,,,,,,,,,,,,,176,2,2025-03-03_14h54.41.786,comp,2024.2.4,None,2025-03-03 14h55.15.113667 -0500,
16,16,0,filler_square,None,None,None,None,None,None,None,None,None,None,3,0.8427181243896484,None,,,,,0,0,0,0,0,16,16,174,105.03661680221558,,,,,,,,,,,,,,,,,,,,,,,,,,,,,,,,,,,,,,,,,,,,,,,,,,,,,,,,,,,,,,,,,,,,,,,,,,,,,,,,,76.63090147239751,130.34796075993097,126.94072415278067,112.41690396282937,197.94670252481396,197.94670252481396,1.0,1.1,-697,267,-480,281,-229,265,105.02187848091125,105.02201652526855,105.02538990974426,105.03661680221558,105.19209551811218,105.19209551811218,105.19209551811218,105.19209551811218,105.19209551811218,105.19209551811218,105.19209551811218,105.88371920585632,3,0.8427181243896484,None,,,,,,,,,,,,,,,,,,176,2,2025-03-03_14h54.41.786,comp,2024.2.4,None,2025-03-03 14h55.15.113667 -0500,
17,17,0,critical,whd,20.0,3.0,upper,125.0,200.0,200.0,125.0,141.0,141.0,2,1.5464451313018799,None,,,,,0,0,0,0,0,17,17,93,105.90089321136475,,,,,,,,,,,,,,,,,,,,,,,,,,,,,,,,,,,,,,,,,,,,,,,,,,,,,,,,,,,,,,,,,,,,,,,,,,,,,,,,,125.0,200.0,200.0,125.0,141.0,141.0,3.0,3.2,-258,-252,0,-9,229,262,105.88520121574402,105.88527727127075,105.88813018798828,105.90089321136475,106.03610944747925,106.03610944747925,106.03610944747925,106.03610944747925,106.03610944747925,106.03610944747925,106.03610944747925,107.45503425598145,2,1.5464451313018799,None,,,,,,,,,,,,,,,,,,176,2,2025-03-03_14h54.41.786,comp,2024.2.4,None,2025-03-03 14h55.15.113667 -0500,
18,18,0,filler_square,None,None,None,None,None,None,None,None,None,None,3,0.9988586902618408,None,,,,,0,0,0,0,0,18,18,175,107.47226572036743,,,,,,,,,,,,,,,,,,,,,,,,,,,,,,,,,,,,,,,,,,,,,,,,,,,,,,,,,,,,,,,,,,,,,,,,,,,,,,,,,111.76606506940033,123.42744752124885,71.89732956430217,63.48109312949563,163.02267891542758,163.02267891542758,2.1,2.11,-189,276,0,278,209,-283,107.45724749565125,107.4573769569397,107.46109366416931,107.47226572036743,107.6192901134491,107.6192901134491,107.6192901134491,107.6192901134491,107.6192901134491,107.6192901134491,107.6192901134491,108.47662329673767,3,0.9988586902618408,None,,,,,,,,,,,,,,,,,,176,2,2025-03-03_14h54.41.786,comp,2024.2.4,None,2025-03-03 14h55.15.113667 -0500,
19,19,0,filler_random,None,None,None,None,None,None,None,None,None,None,2,0.8747291564941406,None,,,,,0,0,0,0,0,19,19,150,108.492018699646,,,,,,,,,,,,,,,,,,,,,,,,,,,,,,,,,,,,,,,,,,,,,,,,,,,,,,,,,,,,,,,,,,,,,,,,,,,,,,,,,161.45630483869667,189.30039098314018,176.1300501778764,197.5844304484922,81.57862381441646,65.74859551738835,4.0,4.1,-289,-285,0,17,228,-252,108.47841310501099,108.47849130630493,108.48138642311096,108.492018699646,108.63692212104797,108.63692212104797,108.63692212104797,108.63692212104797,108.63692212104797,108.63692212104797,108.63692212104797,109.37579727172852,2,0.8747291564941406,None,,,,,,,,,,,,,,,,,,176,2,2025-03-03_14h54.41.786,comp,2024.2.4,None,2025-03-03 14h55.15.113667 -0500,
20,20,0,critical,hdw,35.0,3.0,upper,200.0,125.0,127.0,127.0,125.0,200.0,3,1.2631654739379883,None,,,,,0,0,0,0,0,20,20,111,109.3916711807251,,,,,,,,,,,,,,,,,,,,,,,,,,,,,,,,,,,,,,,,,,,,,,,,,,,,,,,,,,,,,,,,,,,,,,,,,,,,,,,,,200.0,125.0,127.0,127.0,125.0,200.0,3.0,3.1,-222,262,0,7,260,-276,109.37741565704346,109.37754011154175,109.38082027435303,109.3916711807251,109.53755640983582,109.53755640983582,109.53755640983582,109.53755640983582,109.53755640983582,109.53755640983582,109.53755640983582,110.66951274871826,3,1.2631654739379883,None,,,,,,,,,,,,,,,,,,176,2,2025-03-03_14h54.41.786,comp,2024.2.4,None,2025-03-03 14h55.15.113667 -0500,
21,21,0,filler_random,None,None,None,None,None,None,None,None,None,None,1,0.9409847259521484,None,,,,,0,0,0,0,0,21,21,142,110.68972992897034,,,,,,,,,,,,,,,,,,,,,,,,,,,,,,,,,,,,,,,,,,,,,,,,,,,,,,,,,,,,,,,,,,,,,,,,,,,,,,,,,198.20716675246135,192.7596303296364,100.3447306266333,198.03971416618876,60.663363206971866,179.8239897679499,2.2,2.22,-291,267,0,-288,285,-282,110.67153310775757,110.67161178588867,110.67488694190979,110.68972992897034,110.83844709396362,110.83844709396362,110.83844709396362,110.83844709396362,110.83844709396362,110.83844709396362,110.83844709396362,111.64881825447083,1,0.9409847259521484,None,,,,,,,,,,,,,,,,,,176,2,2025-03-03_14h54.41.786,comp,2024.2.4,None,2025-03-03 14h55.15.113667 -0500,
22,22,0,filler_random,None,None,None,None,None,None,None,None,None,None,2,0.772045373916626,None,,,,,0,0,0,0,0,22,22,133,111.66673016548157,,,,,,,,,,,,,,,,,,,,,,,,,,,,,,,,,,,,,,,,,,,,,,,,,,,,,,,,,,,,,,,,,,,,,,,,,,,,,,,,,154.9028634599242,127.26502982698922,181.06213098253494,141.53782150133145,88.95543838213393,116.48248752229583,2.1,2.11,-230,272,0,255,225,-273,111.6507453918457,111.65082144737244,111.6540846824646,111.66673016548157,111.81068539619446,111.81068539619446,111.81068539619446,111.81068539619446,111.81068539619446,111.81068539619446,111.81068539619446,112.45486497879028,2,0.772045373916626,None,,,,,,,,,,,,,,,,,,176,2,2025-03-03_14h54.41.786,comp,2024.2.4,None,2025-03-03 14h55.15.113667 -0500,
23,23,0,critical,dhw,35.0,2.1,lower,70.0,70.0,133.0,57.0,57.0,133.0,3,1.448951244354248,None,,,,,0,0,0,0,0,23,23,24,112.47058868408203,,,,,,,,,,,,,,,,,,,,,,,,,,,,,,,,,,,,,,,,,,,,,,,,,,,,,,,,,,,,,,,,,,,,,,,,,,,,,,,,,70.0,70.0,133.0,57.0,57.0,133.0,2.1,2.11,-160,287,0,274,191,-279,112.45631623268127,112.45639109611511,112.45937275886536,112.47058868408203,112.62155270576477,112.62155270576477,112.62155270576477,112.62155270576477,112.62155270576477,112.62155270576477,112.62155270576477,113.92280220985413,3,1.448951244354248,None,,,,,,,,,,,,,,,,,,176,2,2025-03-03_14h54.41.786,comp,2024.2.4,None,2025-03-03 14h55.15.113667 -0500,
24,24,0,critical,wdh,20.0,2.1,lower,57.0,133.0,78.0,78.0,133.0,57.0,3,1.5803031921386719,None,,,,,0,0,0,0,0,24,24,10,113.93853402137756,,,,,,,,,,,,,,,,,,,,,,,,,,,,,,,,,,,,,,,,,,,,,,,,,,,,,,,,,,,,,,,,,,,,,,,,,,,,,,,,,57.0,133.0,78.0,78.0,133.0,57.0,2.1,2.11,-202,253,0,279,164,-281,113.92431426048279,113.92439222335815,113.92769598960876,113.93853402137756,114.08981943130493,114.08981943130493,114.08981943130493,114.08981943130493,114.08981943130493,114.08981943130493,114.08981943130493,115.53116178512573,3,1.5803031921386719,None,,,,,,,,,,,,,,,,,,176,2,2025-03-03_14h54.41.786,comp,2024.2.4,None,2025-03-03 14h55.15.113667 -0500,
25,25,0,critical,dhw,20.0,1.0,upper,141.0,141.0,200.0,125.0,125.0,200.0,3,1.5359349250793457,None,,,,,0,0,0,0,0,25,25,55,115.55127763748169,,,,,,,,,,,,,,,,,,,,,,,,,,,,,,,,,,,,,,,,,,,,,,,,,,,,,,,,,,,,,,,,,,,,,,,,,,,,,,,,,141.0,141.0,200.0,125.0,125.0,200.0,1.0,1.2,-229,3,0,-7,258,8,115.53266143798828,115.53274178504944,115.5356240272522,115.55127763748169,115.69479155540466,115.69479155540466,115.69479155540466,115.69479155540466,115.69479155540466,115.69479155540466,115.69479155540466,117.09805369377136,3,1.5359349250793457,None,,,,,,,,,,,,,,,,,,176,2,2025-03-03_14h54.41.786,comp,2024.2.4,None,2025-03-03 14h55.15.113667 -0500,
26,26,0,critical,dhw,35.0,4.0,upper,127.0,127.0,200.0,125.0,125.0,200.0,3,1.1458184719085693,None,,,,,0,0,0,0,0,26,26,53,117.1188805103302,,,,,,,,,,,,,,,,,,,,,,,,,,,,,,,,,,,,,,,,,,,,,,,,,,,,,,,,,,,,,,,,,,,,,,,,,,,,,,,,,127.0,127.0,200.0,125.0,125.0,200.0,4.0,4.1,-222,-255,0,-17,258,-254,117.0996265411377,117.09973645210266,117.10326361656189,117.1188805103302,117.25760626792908,117.25760626792908,117.25760626792908,117.25760626792908,117.25760626792908,117.25760626792908,117.25760626792908,118.2754590511322,3,1.1458184719085693,None,,,,,,,,,,,,,,,,,,176,2,2025-03-03_14h54.41.786,comp,2024.2.4,None,2025-03-03 14h55.15.113667 -0500,
27,27,0,filler_random,None,None,None,None,None,None,None,None,None,None,1,0.7868771553039551,None,,,,,0,0,0,0,0,27,27,152,118.29187107086182,,,,,,,,,,,,,,,,,,,,,,,,,,,,,,,,,,,,,,,,,,,,,,,,,,,,,,,,,,,,,,,,,,,,,,,,,,,,,,,,,171.45595430988712,187.49650563874485,108.09061565687648,78.5913113387906,89.58410238478741,160.99930389385378,3.0,3.1,-229,255,0,13,216,-286,118.27745366096497,118.27755045890808,118.28091955184937,118.29187107086182,118.44134068489075,118.44134068489075,118.44134068489075,118.44134068489075,118.44134068489075,118.44134068489075,118.44134068489075,119.09025073051453,1,0.7868771553039551,None,,,,,,,,,,,,,,,,,,176,2,2025-03-03_14h54.41.786,comp,2024.2.4,None,2025-03-03 14h55.15.113667 -0500,
28,28,0,critical,dwh,20.0,2.1,upper,141.0,141.0,125.0,200.0,200.0,125.0,3,1.2763428688049316,None,,,,,0,0,0,0,0,28,28,31,119.1070008277893,,,,,,,,,,,,,,,,,,,,,,,,,,,,,,,,,,,,,,,,,,,,,,,,,,,,,,,,,,,,,,,,,,,,,,,,,,,,,,,,,141.0,141.0,125.0,200.0,200.0,125.0,2.1,2.11,-266,277,0,254,258,-280,119.09191131591797,119.09198999404907,119.09546303749084,119.1070008277893,119.25811743736267,119.25811743736267,119.25811743736267,119.25811743736267,119.25811743736267,119.25811743736267,119.25811743736267,120.3916368484497,3,1.2763428688049316,None,,,,,,,,,,,,,,,,,,176,2,2025-03-03_14h54.41.786,comp,2024.2.4,None,2025-03-03 14h55.15.113667 -0500,
29,29,0,filler_random,None,None,None,None,None,None,None,None,None,None,1,1.0383355617523193,None,,,,,0,0,0,0,0,29,29,153,120.40839004516602,,,,,,,,,,,,,,,,,,,,,,,,,,,,,,,,,,,,,,,,,,,,,,,,,,,,,,,,,,,,,,,,,,,,,,,,,,,,,,,,,175.6190462267361,134.4820856868385,155.46853059062028,74.24646141410602,97.10065912082567,74.62895178180017,1.0,1.3,280,-287,480,-288,650,-281,120.39342975616455,120.3935067653656,120.39767289161682,120.40839004516602,120.56002283096313,120.56002283096313,120.56002283096313,120.56002283096313,120.56002283096313,120.56002283096313,120.56002283096313,121.46099948883057,1,1.0383355617523193,None,,,,,,,,,,,,,,,,,,176,2,2025-03-03_14h54.41.786,comp,2024.2.4,None,2025-03-03 14h55.15.113667 -0500,
30,30,0,critical,hwd,35.0,2.1,lower,133.0,57.0,57.0,133.0,70.0,70.0,2,4.133968114852905,None,,,,,0,0,0,0,0,30,30,16,121.48083543777466,,,,,,,,,,,,,,,,,,,,,,,,,,,,,,,,,,,,,,,,,,,,,,,,,,,,,,,,,,,,,,,,,,,,,,,,,,,,,,,,,133.0,57.0,57.0,133.0,70.0,70.0,2.1,2.12,-191,-257,0,-259,198,275,121.46278285980225,121.46288561820984,121.46588468551636,121.48083543777466,121.6250216960907,121.6250216960907,121.6250216960907,121.6250216960907,121.6250216960907,121.6250216960907,121.6250216960907,125.63199496269226,2,4.133968114852905,None,,,,,,,,,,,,,,,,,,176,2,2025-03-03_14h54.41.786,comp,2024.2.4,None,2025-03-03 14h55.15.113667 -0500,
31,31,0,critical,wdh,35.0,4.0,lower,57.0,133.0,70.0,70.0,133.0,57.0,3,0.948131799697876,None,,,,,0,0,0,0,0,31,31,76,125.65060043334961,,,,,,,,,,,,,,,,,,,,,,,,,,,,,,,,,,,,,,,,,,,,,,,,,,,,,,,,,,,,,,,,,,,,,,,,,,,,,,,,,57.0,133.0,70.0,70.0,133.0,57.0,4.0,4.1,-198,-269,0,8,160,-275,125.63408184051514,125.63416004180908,125.6370575428009,125.65060043334961,125.79037189483643,125.79037189483643,125.79037189483643,125.79037189483643,125.79037189483643,125.79037189483643,125.79037189483643,126.6081874370575,3,0.948131799697876,None,,,,,,,,,,,,,,,,,,176,2,2025-03-03_14h54.41.786,comp,2024.2.4,None,2025-03-03 14h55.15.113667 -0500,
32,32,0,critical,whd,20.0,3.0,lower,57.0,133.0,133.0,57.0,78.0,78.0,1,4.261721849441528,None,,,,,0,0,0,0,0,32,32,92,126.62502002716064,,,,,,,,,,,,,,,,,,,,,,,,,,,,,,,,,,,,,,,,,,,,,,,,,,,,,,,,,,,,,,,,,,,,,,,,,,,,,,,,,57.0,133.0,133.0,57.0,78.0,78.0,3.0,3.2,-191,-261,0,1,164,288,126.60983991622925,126.60991764068604,126.61330389976501,126.62502002716064,126.76157903671265,126.76157903671265,126.76157903671265,126.76157903671265,126.76157903671265,126.76157903671265,126.76157903671265,130.9011881351471,1,4.261721849441528,None,,,,,,,,,,,,,,,,,,176,2,2025-03-03_14h54.41.786,comp,2024.2.4,None,2025-03-03 14h55.15.113667 -0500,
33,33,0,filler_square,None,None,None,None,None,None,None,None,None,None,3,1.0292842388153076,None,,,,,0,0,0,0,0,33,33,172,130.92149662971497,,,,,,,,,,,,,,,,,,,,,,,,,,,,,,,,,,,,,,,,,,,,,,,,,,,,,,,,,,,,,,,,,,,,,,,,,,,,,,,,,82.13678148676416,60.4581644510846,74.96329197318688,85.15333663620662,96.38870281134515,96.38870281134515,4.0,4.1,-169,-252,0,-5,187,-260,130.9032142162323,130.9032928943634,130.90656423568726,130.92149662971497,131.06158185005188,131.06158185005188,131.06158185005188,131.06158185005188,131.06158185005188,131.06158185005188,131.06158185005188,131.96078824996948,3,1.0292842388153076,None,,,,,,,,,,,,,,,,,,176,2,2025-03-03_14h54.41.786,comp,2024.2.4,None,2025-03-03 14h55.15.113667 -0500,
34,34,0,critical,dwh,35.0,4.0,upper,127.0,127.0,125.0,200.0,200.0,125.0,2,1.3417465686798096,None,,,,,0,0,0,0,0,34,34,65,131.97724652290344,,,,,,,,,,,,,,,,,,,,,,,,,,,,,,,,,,,,,,,,,,,,,,,,,,,,,,,,,,,,,,,,,,,,,,,,,,,,,,,,,127.0,127.0,125.0,200.0,200.0,125.0,4.0,4.1,-260,-277,0,7,258,-253,131.96237230300903,131.96245074272156,131.9654185771942,131.97724652290344,132.12975883483887,132.12975883483887,132.12975883483887,132.12975883483887,132.12975883483887,132.12975883483887,132.12975883483887,133.33046913146973,2,1.3417465686798096,None,,,,,,,,,,,,,,,,,,176,2,2025-03-03_14h54.41.786,comp,2024.2.4,None,2025-03-03 14h55.15.113667 -0500,
35,35,0,critical,dwh,35.0,1.0,upper,127.0,127.0,125.0,200.0,200.0,125.0,2,3.261364698410034,None,,,,,0,0,0,0,0,35,35,61,133.34611129760742,,,,,,,,,,,,,,,,,,,,,,,,,,,,,,,,,,,,,,,,,,,,,,,,,,,,,,,,,,,,,,,,,,,,,,,,,,,,,,,,,127.0,127.0,125.0,200.0,200.0,125.0,1.0,1.3,220,-282,480,-286,738,-274,133.33205842971802,133.33217215538025,133.33551383018494,133.34611129760742,133.49300718307495,133.49300718307495,133.49300718307495,133.49300718307495,133.49300718307495,133.49300718307495,133.49300718307495,136.61159563064575,2,3.261364698410034,None,,,,,,,,,,,,,,,,,,176,2,2025-03-03_14h54.41.786,comp,2024.2.4,None,2025-03-03 14h55.15.113667 -0500,
36,36,0,catch,None,None,None,None,None,None,None,None,None,None,1,0.899491548538208,None,,,,,0,0,0,0,0,36,36,120,136.6273055076599,,,,,,,,,,,,,,,,,,,,,,,,,,,,,,,,,,,,,,,,,,,,,,,,,,,,,,,,,,,,,,,,,,,,,,,,,,,,,,,,,150,175,86,104,83,107,1.0,1.1,-716,268,-480,275,-278,282,136.61353516578674,136.6136155128479,136.61668968200684,136.6273055076599,136.76978373527527,136.76978373527527,136.76978373527527,136.76978373527527,136.76978373527527,136.76978373527527,136.76978373527527,137.53031158447266,1,0.899491548538208,None,,,,,,,,,,,,,,,,,,176,2,2025-03-03_14h54.41.786,comp,2024.2.4,None,2025-03-03 14h55.15.113667 -0500,
37,37,0,critical,wdh,20.0,4.0,lower,57.0,133.0,78.0,78.0,133.0,57.0,1,2.7885353565216064,None,,,,,0,0,0,0,0,37,37,82,137.54626178741455,,,,,,,,,,,,,,,,,,,,,,,,,,,,,,,,,,,,,,,,,,,,,,,,,,,,,,,,,,,,,,,,,,,,,,,,,,,,,,,,,57.0,133.0,78.0,78.0,133.0,57.0,4.0,4.2,-202,2,0,-269,164,-1,137.53197860717773,137.53211283683777,137.5355544090271,137.54626178741455,137.6987760066986,137.6987760066986,137.6987760066986,137.6987760066986,137.6987760066986,137.6987760066986,137.6987760066986,140.34715247154236,1,2.7885353565216064,None,,,,,,,,,,,,,,,,,,176,2,2025-03-03_14h54.41.786,comp,2024.2.4,None,2025-03-03 14h55.15.113667 -0500,
38,38,0,critical,wdh,20.0,2.1,lower,57.0,133.0,78.0,78.0,133.0,57.0,1,1.249418020248413,None,,,,,0,0,0,0,0,38,38,34,140.36543321609497,,,,,,,,,,,,,,,,,,,,,,,,,,,,,,,,,,,,,,,,,,,,,,,,,,,,,,,,,,,,,,,,,,,,,,,,,,,,,,,,,57.0,133.0,78.0,78.0,133.0,57.0,2.1,2.11,-202,277,0,263,164,-283,140.34870505332947,140.3487823009491,140.3517792224884,140.36543321609497,140.51348972320557,140.51348972320557,140.51348972320557,140.51348972320557,140.51348972320557,140.51348972320557,140.51348972320557,141.63215899467468,1,1.249418020248413,None,,,,,,,,,,,,,,,,,,176,2,2025-03-03_14h54.41.786,comp,2024.2.4,None,2025-03-03 14h55.15.113667 -0500,
39,39,0,filler_square,None,None,None,None,None,None,None,None,None,None,3,0.837899923324585,None,,,,,0,0,0,0,0,39,39,184,141.6491003036499,,,,,,,,,,,,,,,,,,,,,,,,,,,,,,,,,,,,,,,,,,,,,,,,,,,,,,,,,,,,,,,,,,,,,,,,,,,,,,,,,66.1857319338402,96.79416141428777,58.98823633630725,66.08315758187797,113.12696301259197,113.12696301259197,2.2,2.21,-177,-272,0,285,186,265,141.63399577140808,141.6340696811676,141.6380648612976,141.6491003036499,141.79749369621277,141.79749369621277,141.79749369621277,141.79749369621277,141.79749369621277,141.79749369621277,141.79749369621277,142.4973747730255,3,0.837899923324585,None,,,,,,,,,,,,,,,,,,176,2,2025-03-03_14h54.41.786,comp,2024.2.4,None,2025-03-03 14h55.15.113667 -0500,
40,40,0,filler_square,None,None,None,None,None,None,None,None,None,None,3,0.8694491386413574,None,,,,,0,0,0,0,0,40,40,207,142.51337432861328,,,,,,,,,,,,,,,,,,,,,,,,,,,,,,,,,,,,,,,,,,,,,,,,,,,,,,,,,,,,,,,,,,,,,,,,,,,,,,,,,61.2223498362179,117.46232580548633,108.89102330306281,117.02933067010696,171.83517219138076,171.83517219138076,2.1,2.11,-213,264,0,258,240,-285,142.49917483329773,142.49924850463867,142.5021231174469,142.51337432861328,142.67024946212769,142.67024946212769,142.67024946212769,142.67024946212769,142.67024946212769,142.67024946212769,142.67024946212769,143.38600325584412,3,0.8694491386413574,None,,,,,,,,,,,,,,,,,,176,2,2025-03-03_14h54.41.786,comp,2024.2.4,None,2025-03-03 14h55.15.113667 -0500,
41,41,0,critical,dhw,35.0,3.0,lower,70.0,70.0,133.0,57.0,57.0,133.0,2,1.0771310329437256,None,,,,,0,0,0,0,0,41,41,50,143.4023802280426,,,,,,,,,,,,,,,,,,,,,,,,,,,,,,,,,,,,,,,,,,,,,,,,,,,,,,,,,,,,,,,,,,,,,,,,,,,,,,,,,70.0,70.0,133.0,57.0,57.0,133.0,3.0,3.1,-160,266,0,-6,191,-273,143.3876838684082,143.38782477378845,143.391761302948,143.4023802280426,143.54878115653992,143.54878115653992,143.54878115653992,143.54878115653992,143.54878115653992,143.54878115653992,143.54878115653992,144.48586010932922,2,1.0771310329437256,None,,,,,,,,,,,,,,,,,,176,2,2025-03-03_14h54.41.786,comp,2024.2.4,None,2025-03-03 14h55.15.113667 -0500,
42,42,0,critical,wdh,20.0,2.1,upper,125.0,200.0,141.0,141.0,200.0,125.0,3,1.574812650680542,None,,,,,0,0,0,0,0,42,42,35,144.50447964668274,,,,,,,,,,,,,,,,,,,,,,,,,,,,,,,,,,,,,,,,,,,,,,,,,,,,,,,,,,,,,,,,,,,,,,,,,,,,,,,,,125.0,200.0,141.0,141.0,200.0,125.0,2.1,2.11,-266,269,0,286,229,-266,144.48749160766602,144.4875729084015,144.49048590660095,144.50447964668274,144.64958238601685,144.64958238601685,144.64958238601685,144.64958238601685,144.64958238601685,144.64958238601685,144.64958238601685,146.08769464492798,3,1.574812650680542,None,,,,,,,,,,,,,,,,,,176,2,2025-03-03_14h54.41.786,comp,2024.2.4,None,2025-03-03 14h55.15.113667 -0500,
43,43,0,filler_square,None,None,None,None,None,None,None,None,None,None,1,1.1779475212097168,None,,,,,0,0,0,0,0,43,43,193,146.10885572433472,,,,,,,,,,,,,,,,,,,,,,,,,,,,,,,,,,,,,,,,,,,,,,,,,,,,,,,,,,,,,,,,,,,,,,,,,,,,,,,,,180.58439052273573,180.58439052273573,176.94285120600887,141.15593648126077,122.1487273177835,137.13806913227995,4.0,4.1,-257,-277,0,1,235,-273,146.0897297859192,146.0898106098175,146.093079328537,146.10885572433472,146.24899673461914,146.24899673461914,146.24899673461914,146.24899673461914,146.24899673461914,146.24899673461914,146.24899673461914,147.30136108398438,1,1.1779475212097168,None,,,,,,,,,,,,,,,,,,176,2,2025-03-03_14h54.41.786,comp,2024.2.4,None,2025-03-03 14h55.15.113667 -0500,
44,44,0,critical,dhw,35.0,2.1,upper,127.0,127.0,200.0,125.0,125.0,200.0,3,1.1352734565734863,None,,,,,0,0,0,0,0,44,44,1,147.31951546669006,,,,,,,,,,,,,,,,,,,,,,,,,,,,,,,,,,,,,,,,,,,,,,,,,,,,,,,,,,,,,,,,,,,,,,,,,,,,,,,,,127.0,127.0,200.0,125.0,125.0,200.0,2.1,2.11,-222,288,0,289,258,-290,147.3030982017517,147.3032145500183,147.30675148963928,147.31951546669006,147.4663417339325,147.4663417339325,147.4663417339325,147.4663417339325,147.4663417339325,147.4663417339325,147.4663417339325,148.4710648059845,3,1.1352734565734863,None,,,,,,,,,,,,,,,,,,176,2,2025-03-03_14h54.41.786,comp,2024.2.4,None,2025-03-03 14h55.15.113667 -0500,
45,45,0,critical,dhw,20.0,2.1,lower,78.0,78.0,133.0,57.0,57.0,133.0,2,1.3357813358306885,None,,,,,0,0,0,0,0,45,45,26,148.4870147705078,,,,,,,,,,,,,,,,,,,,,,,,,,,,,,,,,,,,,,,,,,,,,,,,,,,,,,,,,,,,,,,,,,,,,,,,,,,,,,,,,78.0,78.0,133.0,57.0,57.0,133.0,2.1,2.12,-164,-251,0,-283,191,257,148.472758769989,148.47289514541626,148.47634959220886,148.4870147705078,148.63723921775818,148.63723921775818,148.63723921775818,148.63723921775818,148.63723921775818,148.63723921775818,148.63723921775818,149.83353781700134,2,1.3357813358306885,None,,,,,,,,,,,,,,,,,,176,2,2025-03-03_14h54.41.786,comp,2024.2.4,None,2025-03-03 14h55.15.113667 -0500,
46,46,0,critical,dwh,20.0,2.1,lower,78.0,78.0,57.0,133.0,133.0,57.0,3,1.6924986839294434,None,,,,,0,0,0,0,0,46,46,6,149.85119557380676,,,,,,,,,,,,,,,,,,,,,,,,,,,,,,,,,,,,,,,,,,,,,,,,,,,,,,,,,,,,,,,,,,,,,,,,,,,,,,,,,78.0,78.0,57.0,133.0,133.0,57.0,2.1,2.12,-202,-259,0,-276,191,281,149.83500409126282,149.83507871627808,149.83814120292664,149.85119557380676,150.00323343276978,150.00323343276978,150.00323343276978,150.00323343276978,150.00323343276978,150.00323343276978,150.00323343276978,151.5502908229828,3,1.6924986839294434,None,,,,,,,,,,,,,,,,,,176,2,2025-03-03_14h54.41.786,comp,2024.2.4,None,2025-03-03 14h55.15.113667 -0500,
47,47,0,critical,dwh,20.0,2.1,upper,141.0,141.0,125.0,200.0,200.0,125.0,3,5.159641981124878,None,,,,,0,0,0,0,0,47,47,7,151.5677454471588,,,,,,,,,,,,,,,,,,,,,,,,,,,,,,,,,,,,,,,,,,,,,,,,,,,,,,,,,,,,,,,,,,,,,,,,,,,,,,,,,141.0,141.0,125.0,200.0,200.0,125.0,2.1,2.11,-266,258,0,264,258,-264,151.5518946647644,151.55196857452393,151.55521893501282,151.5677454471588,151.72088265419006,151.72088265419006,151.72088265419006,151.72088265419006,151.72088265419006,151.72088265419006,151.72088265419006,156.73785066604614,3,5.159641981124878,None,,,,,,,,,,,,,,,,,,176,2,2025-03-03_14h54.41.786,comp,2024.2.4,None,2025-03-03 14h55.15.113667 -0500,
48,48,0,critical,dwh,35.0,2.1,upper,127.0,127.0,125.0,200.0,200.0,125.0,2,1.5809147357940674,None,,,,,0,0,0,0,0,48,48,29,156.75428557395935,,,,,,,,,,,,,,,,,,,,,,,,,,,,,,,,,,,,,,,,,,,,,,,,,,,,,,,,,,,,,,,,,,,,,,,,,,,,,,,,,127.0,127.0,125.0,200.0,200.0,125.0,2.1,2.12,-260,-283,0,-253,258,278,156.73946952819824,156.73956942558289,156.74310159683228,156.75428557395935,156.9011471271515,156.9011471271515,156.9011471271515,156.9011471271515,156.9011471271515,156.9011471271515,156.9011471271515,158.35282850265503,2,1.5809147357940674,None,,,,,,,,,,,,,,,,,,176,2,2025-03-03_14h54.41.786,comp,2024.2.4,None,2025-03-03 14h55.15.113667 -0500,
49,49,0,critical,dhw,20.0,3.0,lower,78.0,78.0,133.0,57.0,57.0,133.0,3,1.6175181865692139,None,,,,,0,0,0,0,0,49,49,56,158.3735134601593,,,,,,,,,,,,,,,,,,,,,,,,,,,,,,,,,,,,,,,,,,,,,,,,,,,,,,,,,,,,,,,,,,,,,,,,,,,,,,,,,78.0,78.0,133.0,57.0,57.0,133.0,3.0,3.1,-164,284,0,-8,191,-258,158.35445880889893,158.35456490516663,158.35815739631653,158.3735134601593,158.52925658226013,158.52925658226013,158.52925658226013,158.52925658226013,158.52925658226013,158.52925658226013,158.52925658226013,160.00403237342834,3,1.6175181865692139,None,,,,,,,,,,,,,,,,,,176,2,2025-03-03_14h54.41.786,comp,2024.2.4,None,2025-03-03 14h55.15.113667 -0500,
50,50,0,critical,whd,20.0,4.0,lower,57.0,133.0,133.0,57.0,78.0,78.0,1,4.011935472488403,None,,,,,0,0,0,0,0,50,50,94,160.02002811431885,,,,,,,,,,,,,,,,,,,,,,,,,,,,,,,,,,,,,,,,,,,,,,,,,,,,,,,,,,,,,,,,,,,,,,,,,,,,,,,,,57.0,133.0,133.0,57.0,78.0,78.0,4.0,4.2,-191,1,0,-266,164,-15,160.00555992126465,160.00563645362854,160.00906801223755,160.02002811431885,160.16943788528442,160.16943788528442,160.16943788528442,160.16943788528442,160.16943788528442,160.16943788528442,160.16943788528442,164.04145765304565,1,4.011935472488403,None,,,,,,,,,,,,,,,,,,176,2,2025-03-03_14h54.41.786,comp,2024.2.4,None,2025-03-03 14h55.15.113667 -0500,
51,51,0,critical,hwd,35.0,1.0,lower,133.0,57.0,57.0,133.0,70.0,70.0,1,2.962505340576172,None,,,,,0,0,0,0,0,51,51,96,164.060400724411,,,,,,,,,,,,,,,,,,,,,,,,,,,,,,,,,,,,,,,,,,,,,,,,,,,,,,,,,,,,,,,,,,,,,,,,,,,,,,,,,133.0,57.0,57.0,133.0,70.0,70.0,1.0,1.3,289,-290,480,-290,678,-286,164.04326581954956,164.0433976650238,164.04683470726013,164.060400724411,164.20624327659607,164.20624327659607,164.20624327659607,164.20624327659607,164.20624327659607,164.20624327659607,164.20624327659607,167.03879690170288,1,2.962505340576172,None,,,,,,,,,,,,,,,,,,176,2,2025-03-03_14h54.41.786,comp,2024.2.4,None,2025-03-03 14h55.15.113667 -0500,
52,52,0,critical,hwd,35.0,1.0,upper,200.0,125.0,125.0,200.0,127.0,127.0,2,1.6062908172607422,None,,,,,0,0,0,0,0,52,52,97,167.06480050086975,,,,,,,,,,,,,,,,,,,,,,,,,,,,,,,,,,,,,,,,,,,,,,,,,,,,,,,,,,,,,,,,,,,,,,,,,,,,,,,,,200.0,125.0,125.0,200.0,127.0,127.0,1.0,1.1,-738,257,-480,258,-220,253,167.04029536247253,167.04036903381348,167.04350996017456,167.06480050086975,167.2062463760376,167.2062463760376,167.2062463760376,167.2062463760376,167.2062463760376,167.2062463760376,167.2062463760376,168.67561388015747,2,1.6062908172607422,None,,,,,,,,,,,,,,,,,,176,2,2025-03-03_14h54.41.786,comp,2024.2.4,None,2025-03-03 14h55.15.113667 -0500,
53,53,0,filler_square,None,None,None,None,None,None,None,None,None,None,1,2.875490665435791,None,,,,,0,0,0,0,0,53,53,198,168.69219160079956,,,,,,,,,,,,,,,,,,,,,,,,,,,,,,,,,,,,,,,,,,,,,,,,,,,,,,,,,,,,,,,,,,,,,,,,,,,,,,,,,123.18548117104231,123.18548117104231,110.44403993968791,91.31564353999875,80.32968983060482,103.55278444375551,4.0,4.2,-203,-12,0,-260,193,4,168.6775197982788,168.67759799957275,168.68075370788574,168.69219160079956,168.84075665473938,168.84075665473938,168.84075665473938,168.84075665473938,168.84075665473938,168.84075665473938,168.84075665473938,171.57313776016235,1,2.875490665435791,None,,,,,,,,,,,,,,,,,,176,2,2025-03-03_14h54.41.786,comp,2024.2.4,None,2025-03-03 14h55.15.113667 -0500,
54,54,0,filler_random,None,None,None,None,None,None,None,None,None,None,3,0.9099395275115967,None,,,,,0,0,0,0,0,54,54,157,171.59345316886902,,,,,,,,,,,,,,,,,,,,,,,,,,,,,,,,,,,,,,,,,,,,,,,,,,,,,,,,,,,,,,,,,,,,,,,,,,,,,,,,,91.91503778075699,148.72905416491363,140.0245758787749,84.66564370822876,157.0679183422663,96.43356323190434,2.2,2.22,-213,254,0,-262,187,-279,171.574848651886,171.57492423057556,171.5780520439148,171.59345316886902,171.74015259742737,171.74015259742737,171.74015259742737,171.74015259742737,171.74015259742737,171.74015259742737,171.74015259742737,172.50832438468933,3,0.9099395275115967,None,,,,,,,,,,,,,,,,,,176,2,2025-03-03_14h54.41.786,comp,2024.2.4,None,2025-03-03 14h55.15.113667 -0500,
55,55,0,critical,hwd,35.0,2.1,lower,133.0,57.0,57.0,133.0,70.0,70.0,2,1.3218510150909424,None,,,,,0,0,0,0,0,55,55,40,172.52502584457397,,,,,,,,,,,,,,,,,,,,,,,,,,,,,,,,,,,,,,,,,,,,,,,,,,,,,,,,,,,,,,,,,,,,,,,,,,,,,,,,,133.0,57.0,57.0,133.0,70.0,70.0,2.1,2.12,-191,-279,0,-288,198,269,172.5100018978119,172.51010870933533,172.51426887512207,172.52502584457397,172.681396484375,172.681396484375,172.681396484375,172.681396484375,172.681396484375,172.681396484375,172.681396484375,173.86532521247864,2,1.3218510150909424,None,,,,,,,,,,,,,,,,,,176,2,2025-03-03_14h54.41.786,comp,2024.2.4,None,2025-03-03 14h55.15.113667 -0500,
56,56,0,critical,dhw,35.0,2.1,lower,70.0,70.0,133.0,57.0,57.0,133.0,3,1.2323153018951416,None,,,,,0,0,0,0,0,56,56,0,173.88246178627014,,,,,,,,,,,,,,,,,,,,,,,,,,,,,,,,,,,,,,,,,,,,,,,,,,,,,,,,,,,,,,,,,,,,,,,,,,,,,,,,,70.0,70.0,133.0,57.0,57.0,133.0,2.1,2.11,-160,285,0,262,191,-288,173.86685037612915,173.86692690849304,173.869802236557,173.88246178627014,174.0255434513092,174.0255434513092,174.0255434513092,174.0255434513092,174.0255434513092,174.0255434513092,174.0255434513092,175.14018511772156,3,1.2323153018951416,None,,,,,,,,,,,,,,,,,,176,2,2025-03-03_14h54.41.786,comp,2024.2.4,None,2025-03-03 14h55.15.113667 -0500,
57,57,0,critical,whd,35.0,2.1,upper,125.0,200.0,200.0,125.0,127.0,127.0,2,1.1005516052246094,None,,,,,0,0,0,0,0,57,57,13,175.1551651954651,,,,,,,,,,,,,,,,,,,,,,,,,,,,,,,,,,,,,,,,,,,,,,,,,,,,,,,,,,,,,,,,,,,,,,,,,,,,,,,,,125.0,200.0,200.0,125.0,127.0,127.0,2.1,2.11,-258,257,0,266,222,-278,175.14169645309448,175.14177203178406,175.1445803642273,175.1551651954651,175.30909609794617,175.30909609794617,175.30909609794617,175.30909609794617,175.30909609794617,175.30909609794617,175.30909609794617,176.25912308692932,2,1.1005516052246094,None,,,,,,,,,,,,,,,,,,176,2,2025-03-03_14h54.41.786,comp,2024.2.4,None,2025-03-03 14h55.15.113667 -0500,
58,58,0,critical,hwd,20.0,1.0,lower,133.0,57.0,57.0,133.0,78.0,78.0,2,1.9239416122436523,None,,,,,0,0,0,0,0,58,58,102,176.27500796318054,,,,,,,,,,,,,,,,,,,,,,,,,,,,,,,,,,,,,,,,,,,,,,,,,,,,,,,,,,,,,,,,,,,,,,,,,,,,,,,,,133.0,57.0,57.0,133.0,78.0,78.0,1.0,1.2,-191,2,0,9,202,8,176.26063561439514,176.26074862480164,176.26417636871338,176.27500796318054,176.43133902549744,176.43133902549744,176.43133902549744,176.43133902549744,176.43133902549744,176.43133902549744,176.43133902549744,178.21004462242126,2,1.9239416122436523,None,,,,,,,,,,,,,,,,,,176,2,2025-03-03_14h54.41.786,comp,2024.2.4,None,2025-03-03 14h55.15.113667 -0500,
59,59,0,filler_square,None,None,None,None,None,None,None,None,None,None,2,3.257976531982422,None,,,,,0,0,0,0,0,59,59,183,178.22973132133484,,,,,,,,,,,,,,,,,,,,,,,,,,,,,,,,,,,,,,,,,,,,,,,,,,,,,,,,,,,,,,,,,,,,,,,,,,,,,,,,,61.10127679851742,120.89730978771266,144.86927221838374,144.86927221838374,58.69772983189305,114.44913922409775,4.0,4.1,-229,-277,0,2,226,-281,178.21174502372742,178.21181893348694,178.21516752243042,178.22973132133484,178.36926007270813,178.36926007270813,178.36926007270813,178.36926007270813,178.36926007270813,178.36926007270813,178.36926007270813,181.4944543838501,2,3.257976531982422,None,,,,,,,,,,,,,,,,,,176,2,2025-03-03_14h54.41.786,comp,2024.2.4,None,2025-03-03 14h55.15.113667 -0500,
60,60,0,critical,hdw,20.0,2.1,upper,200.0,125.0,141.0,141.0,125.0,200.0,3,1.0561540126800537,None,,,,,0,0,0,0,0,60,60,47,181.5109589099884,,,,,,,,,,,,,,,,,,,,,,,,,,,,,,,,,,,,,,,,,,,,,,,,,,,,,,,,,,,,,,,,,,,,,,,,,,,,,,,,,200.0,125.0,141.0,141.0,125.0,200.0,2.1,2.11,-229,275,0,252,266,-269,181.4960334300995,181.4961121082306,181.50018978118896,181.5109589099884,181.65867376327515,181.65867376327515,181.65867376327515,181.65867376327515,181.65867376327515,181.65867376327515,181.65867376327515,182.57762360572815,3,1.0561540126800537,None,,,,,,,,,,,,,,,,,,176,2,2025-03-03_14h54.41.786,comp,2024.2.4,None,2025-03-03 14h55.15.113667 -0500,
61,61,0,critical,wdh,35.0,3.0,lower,57.0,133.0,70.0,70.0,133.0,57.0,3,1.7175559997558594,None,,,,,0,0,0,0,0,61,61,74,182.59363436698914,,,,,,,,,,,,,,,,,,,,,,,,,,,,,,,,,,,,,,,,,,,,,,,,,,,,,,,,,,,,,,,,,,,,,,,,,,,,,,,,,57.0,133.0,70.0,70.0,133.0,57.0,3.0,3.1,-198,267,0,-4,160,-282,182.5792305469513,182.5793137550354,182.58271551132202,182.59363436698914,182.7357668876648,182.7357668876648,182.7357668876648,182.7357668876648,182.7357668876648,182.7357668876648,182.7357668876648,184.3153841495514,3,1.7175559997558594,None,,,,,,,,,,,,,,,,,,176,2,2025-03-03_14h54.41.786,comp,2024.2.4,None,2025-03-03 14h55.15.113667 -0500,
62,62,0,filler_square,None,None,None,None,None,None,None,None,None,None,3,2.3680405616760254,None,,,,,0,0,0,0,0,62,62,205,184.3354697227478,,,,,,,,,,,,,,,,,,,,,,,,,,,,,,,,,,,,,,,,,,,,,,,,,,,,,,,,,,,,,,,,,,,,,,,,,,,,,,,,,114.99723663755084,105.65189134768679,75.64499293938103,91.55602745431064,122.5556339951723,122.5556339951723,4.0,4.2,-195,2,0,-288,203,-4,184.31743049621582,184.31751108169556,184.3204209804535,184.3354697227478,184.477135181427,184.477135181427,184.477135181427,184.477135181427,184.477135181427,184.477135181427,184.477135181427,186.71430611610413,3,2.3680405616760254,None,,,,,,,,,,,,,,,,,,176,2,2025-03-03_14h54.41.786,comp,2024.2.4,None,2025-03-03 14h55.15.113667 -0500,
63,63,0,filler_random,None,None,None,None,None,None,None,None,None,None,1,2.5401923656463623,None,,,,,0,0,0,0,0,63,63,138,186.7309274673462,,,,,,,,,,,,,,,,,,,,,,,,,,,,,,,,,,,,,,,,,,,,,,,,,,,,,,,,,,,,,,,,,,,,,,,,,,,,,,,,,164.94635459701635,175.07063971747988,77.793133089294,98.5056406661221,90.08763361391843,193.5714502524432,1.0,1.3,247,-276,480,-264,722,-286,186.71646523475647,186.71654605865479,186.7201063632965,186.7309274673462,186.87781834602356,186.87781834602356,186.87781834602356,186.87781834602356,186.87781834602356,186.87781834602356,186.87781834602356,189.28408336639404,1,2.5401923656463623,None,,,,,,,,,,,,,,,,,,176,2,2025-03-03_14h54.41.786,comp,2024.2.4,None,2025-03-03 14h55.15.113667 -0500,
64,64,0,catch,None,None,None,None,None,None,None,None,None,None,3,0.946885347366333,None,,,,,0,0,0,0,0,64,64,129,189.3000795841217,,,,,,,,,,,,,,,,,,,,,,,,,,,,,,,,,,,,,,,,,,,,,,,,,,,,,,,,,,,,,,,,,,,,,,,,,,,,,,,,,117,73,77,113,134,191,3.0,3.1,-189,265,0,16,248,-280,189.28605794906616,189.28613805770874,189.28931307792664,189.3000795841217,189.44890522956848,189.44890522956848,189.44890522956848,189.44890522956848,189.44890522956848,189.44890522956848,189.44890522956848,190.2625710964203,3,0.946885347366333,None,,,,,,,,,,,,,,,,,,176,2,2025-03-03_14h54.41.786,comp,2024.2.4,None,2025-03-03 14h55.15.113667 -0500,
65,65,0,filler_square,None,None,None,None,None,None,None,None,None,None,2,1.4090197086334229,None,,,,,0,0,0,0,0,65,65,197,190.278737783432,,,,,,,,,,,,,,,,,,,,,,,,,,,,,,,,,,,,,,,,,,,,,,,,,,,,,,,,,,,,,,,,,,,,,,,,,,,,,,,,,64.53910322723712,59.57467458705551,103.54521940888722,103.54521940888722,63.58564314668077,71.24021129786688,2.2,2.22,-178,268,0,-288,183,-280,190.26438188552856,190.2644557952881,190.26749730110168,190.278737783432,190.43574452400208,190.43574452400208,190.43574452400208,190.43574452400208,190.43574452400208,190.43574452400208,190.43574452400208,191.69925260543823,2,1.4090197086334229,None,,,,,,,,,,,,,,,,,,176,2,2025-03-03_14h54.41.786,comp,2024.2.4,None,2025-03-03 14h55.15.113667 -0500,
66,66,0,critical,hwd,35.0,3.0,lower,133.0,57.0,57.0,133.0,70.0,70.0,2,2.756361961364746,None,,,,,0,0,0,0,0,66,66,98,191.71539616584778,,,,,,,,,,,,,,,,,,,,,,,,,,,,,,,,,,,,,,,,,,,,,,,,,,,,,,,,,,,,,,,,,,,,,,,,,,,,,,,,,133.0,57.0,57.0,133.0,70.0,70.0,3.0,3.1,-191,280,0,-14,198,-285,191.7008638381958,191.7009425163269,191.70432353019714,191.71539616584778,191.87039422988892,191.87039422988892,191.87039422988892,191.87039422988892,191.87039422988892,191.87039422988892,191.87039422988892,194.48251223564148,2,2.756361961364746,None,,,,,,,,,,,,,,,,,,176,2,2025-03-03_14h54.41.786,comp,2024.2.4,None,2025-03-03 14h55.15.113667 -0500,
67,67,0,critical,dwh,35.0,2.1,lower,70.0,70.0,57.0,133.0,133.0,57.0,3,1.1804563999176025,None,,,,,0,0,0,0,0,67,67,28,194.4985899925232,,,,,,,,,,,,,,,,,,,,,,,,,,,,,,,,,,,,,,,,,,,,,,,,,,,,,,,,,,,,,,,,,,,,,,,,,,,,,,,,,70.0,70.0,57.0,133.0,133.0,57.0,2.1,2.11,-198,287,0,287,191,-285,194.48409271240234,194.48417115211487,194.4877531528473,194.4985899925232,194.6471607685089,194.6471607685089,194.6471607685089,194.6471607685089,194.6471607685089,194.6471607685089,194.6471607685089,195.69729208946228,3,1.1804563999176025,None,,,,,,,,,,,,,,,,,,176,2,2025-03-03_14h54.41.786,comp,2024.2.4,None,2025-03-03 14h55.15.113667 -0500,
68,68,0,filler_random,None,None,None,None,None,None,None,None,None,None,1,0.9347169399261475,None,,,,,0,0,0,0,0,68,68,144,195.71273851394653,,,,,,,,,,,,,,,,,,,,,,,,,,,,,,,,,,,,,,,,,,,,,,,,,,,,,,,,,,,,,,,,,,,,,,,,,,,,,,,,,180.42251381956896,154.11078603809807,197.9557336742001,58.470427905321245,139.94027353420705,173.32779568391413,4.0,4.2,-202,-10,0,-288,212,5,195.6990294456482,195.69910621643066,195.70228457450867,195.71273851394653,195.86606192588806,195.86606192588806,195.86606192588806,195.86606192588806,195.86606192588806,195.86606192588806,195.86606192588806,196.66688442230225,1,0.9347169399261475,None,,,,,,,,,,,,,,,,,,176,2,2025-03-03_14h54.41.786,comp,2024.2.4,None,2025-03-03 14h55.15.113667 -0500,
69,69,0,critical,wdh,35.0,2.1,lower,57.0,133.0,70.0,70.0,133.0,57.0,3,2.8905837535858154,None,,,,,0,0,0,0,0,69,69,8,196.68486499786377,,,,,,,,,,,,,,,,,,,,,,,,,,,,,,,,,,,,,,,,,,,,,,,,,,,,,,,,,,,,,,,,,,,,,,,,,,,,,,,,,57.0,133.0,70.0,70.0,133.0,57.0,2.1,2.12,-198,-261,0,-263,160,258,196.66845989227295,196.66859102249146,196.67233443260193,196.68486499786377,196.83178067207336,196.83178067207336,196.83178067207336,196.83178067207336,196.83178067207336,196.83178067207336,196.83178067207336,199.58382058143616,3,2.8905837535858154,None,,,,,,,,,,,,,,,,,,176,2,2025-03-03_14h54.41.786,comp,2024.2.4,None,2025-03-03 14h55.15.113667 -0500,
70,70,0,critical,dwh,20.0,1.0,upper,141.0,141.0,125.0,200.0,200.0,125.0,3,2.3594446182250977,None,,,,,0,0,0,0,0,70,70,67,199.60009622573853,,,,,,,,,,,,,,,,,,,,,,,,,,,,,,,,,,,,,,,,,,,,,,,,,,,,,,,,,,,,,,,,,,,,,,,,,,,,,,,,,141.0,141.0,125.0,200.0,200.0,125.0,1.0,1.3,214,-272,480,-259,738,-264,199.58545327186584,199.58558773994446,199.58917045593262,199.60009622573853,199.74834561347961,199.74834561347961,199.74834561347961,199.74834561347961,199.74834561347961,199.74834561347961,199.74834561347961,201.96828746795654,3,2.3594446182250977,None,,,,,,,,,,,,,,,,,,176,2,2025-03-03_14h54.41.786,comp,2024.2.4,None,2025-03-03 14h55.15.113667 -0500,
71,71,0,critical,wdh,20.0,4.0,upper,125.0,200.0,141.0,141.0,200.0,125.0,3,2.127615451812744,None,,,,,0,0,0,0,0,71,71,83,201.98389315605164,,,,,,,,,,,,,,,,,,,,,,,,,,,,,,,,,,,,,,,,,,,,,,,,,,,,,,,,,,,,,,,,,,,,,,,,,,,,,,,,,125.0,200.0,141.0,141.0,200.0,125.0,4.0,4.2,-266,-4,0,-266,229,10,201.9697985649109,201.96987652778625,201.9731330871582,201.98389315605164,202.1315085887909,202.1315085887909,202.1315085887909,202.1315085887909,202.1315085887909,202.1315085887909,202.1315085887909,204.1188611984253,3,2.127615451812744,None,,,,,,,,,,,,,,,,,,176,2,2025-03-03_14h54.41.786,comp,2024.2.4,None,2025-03-03 14h55.15.113667 -0500,
72,72,0,critical,whd,20.0,2.1,upper,125.0,200.0,200.0,125.0,141.0,141.0,2,1.3844211101531982,None,,,,,0,0,0,0,0,72,72,15,204.1346881389618,,,,,,,,,,,,,,,,,,,,,,,,,,,,,,,,,,,,,,,,,,,,,,,,,,,,,,,,,,,,,,,,,,,,,,,,,,,,,,,,,125.0,200.0,200.0,125.0,141.0,141.0,2.1,2.12,-258,-284,0,-274,229,252,204.12047815322876,204.12055778503418,204.12396097183228,204.1346881389618,204.283020734787,204.283020734787,204.283020734787,204.283020734787,204.283020734787,204.283020734787,204.283020734787,205.53492975234985,2,1.3844211101531982,None,,,,,,,,,,,,,,,,,,176,2,2025-03-03_14h54.41.786,comp,2024.2.4,None,2025-03-03 14h55.15.113667 -0500,
73,73,0,critical,hdw,35.0,2.1,lower,133.0,57.0,70.0,70.0,57.0,133.0,3,1.4976234436035156,None,,,,,0,0,0,0,0,73,73,44,205.55025029182434,,,,,,,,,,,,,,,,,,,,,,,,,,,,,,,,,,,,,,,,,,,,,,,,,,,,,,,,,,,,,,,,,,,,,,,,,,,,,,,,,133.0,57.0,70.0,70.0,57.0,133.0,2.1,2.11,-160,264,0,251,198,-284,205.53647661209106,205.5365560054779,205.54001593589783,205.55025029182434,205.70124340057373,205.70124340057373,205.70124340057373,205.70124340057373,205.70124340057373,205.70124340057373,205.70124340057373,207.05438613891602,3,1.4976234436035156,None,,,,,,,,,,,,,,,,,,176,2,2025-03-03_14h54.41.786,comp,2024.2.4,None,2025-03-03 14h55.15.113667 -0500,
74,74,0,critical,dhw,35.0,3.0,upper,127.0,127.0,200.0,125.0,125.0,200.0,2,1.6874909400939941,None,,,,,0,0,0,0,0,74,74,51,207.07186079025269,,,,,,,,,,,,,,,,,,,,,,,,,,,,,,,,,,,,,,,,,,,,,,,,,,,,,,,,,,,,,,,,,,,,,,,,,,,,,,,,,127.0,127.0,200.0,125.0,125.0,200.0,3.0,3.1,-222,264,0,17,258,-259,207.056165933609,207.05630326271057,207.05975246429443,207.07186079025269,207.22307467460632,207.22307467460632,207.22307467460632,207.22307467460632,207.22307467460632,207.22307467460632,207.22307467460632,208.76909971237183,2,1.6874909400939941,None,,,,,,,,,,,,,,,,,,176,2,2025-03-03_14h54.41.786,comp,2024.2.4,None,2025-03-03 14h55.15.113667 -0500,
75,75,0,critical,dhw,35.0,4.0,lower,70.0,70.0,133.0,57.0,57.0,133.0,3,1.1455657482147217,None,,,,,0,0,0,0,0,75,75,52,208.7894742488861,,,,,,,,,,,,,,,,,,,,,,,,,,,,,,,,,,,,,,,,,,,,,,,,,,,,,,,,,,,,,,,,,,,,,,,,,,,,,,,,,70.0,70.0,133.0,57.0,57.0,133.0,4.0,4.1,-160,-273,0,10,191,-251,208.77057194709778,208.77068519592285,208.77375864982605,208.7894742488861,208.93604016304016,208.93604016304016,208.93604016304016,208.93604016304016,208.93604016304016,208.93604016304016,208.93604016304016,209.95132112503052,3,1.1455657482147217,None,,,,,,,,,,,,,,,,,,176,2,2025-03-03_14h54.41.786,comp,2024.2.4,None,2025-03-03 14h55.15.113667 -0500,
76,76,0,filler_random,None,None,None,None,None,None,None,None,None,None,3,1.8366875648498535,None,,,,,0,0,0,0,0,76,76,143,209.9704201221466,,,,,,,,,,,,,,,,,,,,,,,,,,,,,,,,,,,,,,,,,,,,,,,,,,,,,,,,,,,,,,,,,,,,,,,,,,,,,,,,,103.45142948363042,154.3540725212444,114.70481768034398,161.21969100403493,161.57699222345087,164.7195375212434,2.2,2.22,-254,261,0,-275,259,-253,209.9531533718109,209.95325779914856,209.95662379264832,209.9704201221466,210.12004446983337,210.12004446983337,210.12004446983337,210.12004446983337,210.12004446983337,210.12004446983337,210.12004446983337,211.81919121742249,3,1.8366875648498535,None,,,,,,,,,,,,,,,,,,176,2,2025-03-03_14h54.41.786,comp,2024.2.4,None,2025-03-03 14h55.15.113667 -0500,
77,77,0,filler_random,None,None,None,None,None,None,None,None,None,None,3,1.2284293174743652,None,,,,,0,0,0,0,0,77,77,151,211.83477306365967,,,,,,,,,,,,,,,,,,,,,,,,,,,,,,,,,,,,,,,,,,,,,,,,,,,,,,,,,,,,,,,,,,,,,,,,,,,,,,,,,107.90553278763662,100.02751999713794,110.07159739654662,129.6715052529679,177.8646397156145,115.0311019916617,3.0,3.2,-211,-274,0,12,218,250,211.82092094421387,211.82099866867065,211.82418823242188,211.83477306365967,211.9767165184021,211.9767165184021,211.9767165184021,211.9767165184021,211.9767165184021,211.9767165184021,211.9767165184021,213.07648730278015,3,1.2284293174743652,None,,,,,,,,,,,,,,,,,,176,2,2025-03-03_14h54.41.786,comp,2024.2.4,None,2025-03-03 14h55.15.113667 -0500,
78,78,0,filler_random,None,None,None,None,None,None,None,None,None,None,3,0.8508303165435791,None,,,,,0,0,0,0,0,78,78,132,213.09227108955383,,,,,,,,,,,,,,,,,,,,,,,,,,,,,,,,,,,,,,,,,,,,,,,,,,,,,,,,,,,,,,,,,,,,,,,,,,,,,,,,,106.8129877180317,69.09127402113782,71.82760562506989,147.62954515570908,169.5826798706061,180.71345535963195,3.0,3.1,-204,270,0,4,260,-284,213.07819151878357,213.07826781272888,213.08115005493164,213.09227108955383,213.23729395866394,213.23729395866394,213.23729395866394,213.23729395866394,213.23729395866394,213.23729395866394,213.23729395866394,213.9533088207245,3,0.8508303165435791,None,,,,,,,,,,,,,,,,,,176,2,2025-03-03_14h54.41.786,comp,2024.2.4,None,2025-03-03 14h55.15.113667 -0500,
79,79,0,filler_square,None,None,None,None,None,None,None,None,None,None,2,1.1420953273773193,None,,,,,0,0,0,0,0,79,79,194,213.96922612190247,,,,,,,,,,,,,,,,,,,,,,,,,,,,,,,,,,,,,,,,,,,,,,,,,,,,,,,,,,,,,,,,,,,,,,,,,,,,,,,,,61.337252215981586,73.68732954147502,75.6810691307438,75.6810691307438,62.68248068371526,57.654769584401535,2.1,2.11,-171,282,0,282,163,-274,213.95503401756287,213.95511198043823,213.9581639766693,213.96922612190247,214.12216997146606,214.12216997146606,214.12216997146606,214.12216997146606,214.12216997146606,214.12216997146606,214.12216997146606,215.12020254135132,2,1.1420953273773193,None,,,,,,,,,,,,,,,,,,176,2,2025-03-03_14h54.41.786,comp,2024.2.4,None,2025-03-03 14h55.15.113667 -0500,
80,80,0,filler_square,None,None,None,None,None,None,None,None,None,None,3,1.3625624179840088,None,,,,,0,0,0,0,0,80,80,199,215.14046692848206,,,,,,,,,,,,,,,,,,,,,,,,,,,,,,,,,,,,,,,,,,,,,,,,,,,,,,,,,,,,,,,,,,,,,,,,,,,,,,,,,61.34075546541134,59.707977498349265,61.80443659443817,61.80443659443817,58.810374445519976,60.16107290178425,3.0,3.1,-157,259,0,9,157,-252,215.12192749977112,215.12200331687927,215.12517166137695,215.14046692848206,215.2788918018341,215.2788918018341,215.2788918018341,215.2788918018341,215.2788918018341,215.2788918018341,215.2788918018341,216.5051233768463,3,1.3625624179840088,None,,,,,,,,,,,,,,,,,,176,2,2025-03-03_14h54.41.786,comp,2024.2.4,None,2025-03-03 14h55.15.113667 -0500,
81,81,0,filler_random,None,None,None,None,None,None,None,None,None,None,2,1.3496956825256348,None,,,,,0,0,0,0,0,81,81,146,216.52159070968628,,,,,,,,,,,,,,,,,,,,,,,,,,,,,,,,,,,,,,,,,,,,,,,,,,,,,,,,,,,,,,,,,,,,,,,,,,,,,,,,,126.94799015648624,107.1859002582622,177.71779030856646,111.85219679544149,69.31309102435642,88.99987051930367,1.0,1.3,274,-289,480,-251,676,-253,216.50721716880798,216.5072979927063,216.5108621120453,216.52159070968628,216.67121171951294,216.67121171951294,216.67121171951294,216.67121171951294,216.67121171951294,216.67121171951294,216.67121171951294,217.87502932548523,2,1.3496956825256348,None,,,,,,,,,,,,,,,,,,176,2,2025-03-03_14h54.41.786,comp,2024.2.4,None,2025-03-03 14h55.15.113667 -0500,
82,82,0,critical,wdh,35.0,4.0,upper,125.0,200.0,127.0,127.0,200.0,125.0,1,1.9531621932983398,None,,,,,0,0,0,0,0,82,82,77,217.8941469192505,,,,,,,,,,,,,,,,,,,,,,,,,,,,,,,,,,,,,,,,,,,,,,,,,,,,,,,,,,,,,,,,,,,,,,,,,,,,,,,,,125.0,200.0,127.0,127.0,200.0,125.0,4.0,4.1,-260,-284,0,-4,222,-288,217.87678027153015,217.87691497802734,217.88007855415344,217.8941469192505,218.03909635543823,218.03909635543823,218.03909635543823,218.03909635543823,218.03909635543823,218.03909635543823,218.03909635543823,219.85416722297668,1,1.9531621932983398,None,,,,,,,,,,,,,,,,,,176,2,2025-03-03_14h54.41.786,comp,2024.2.4,None,2025-03-03 14h55.15.113667 -0500,
83,83,0,catch,None,None,None,None,None,None,None,None,None,None,2,0.8541305065155029,None,,,,,0,0,0,0,0,83,83,122,219.87289261817932,,,,,,,,,,,,,,,,,,,,,,,,,,,,,,,,,,,,,,,,,,,,,,,,,,,,,,,,,,,,,,,,,,,,,,,,,,,,,,,,,86,104,179,146,73,117,1.0,1.2,-221,6,0,-14,228,5,219.85625457763672,219.85633516311646,219.85970067977905,219.87289261817932,220.02519536018372,220.02519536018372,220.02519536018372,220.02519536018372,220.02519536018372,220.02519536018372,220.02519536018372,220.73884272575378,2,0.8541305065155029,None,,,,,,,,,,,,,,,,,,176,2,2025-03-03_14h54.41.786,comp,2024.2.4,None,2025-03-03 14h55.15.113667 -0500,
84,84,0,critical,hwd,20.0,3.0,upper,200.0,125.0,125.0,200.0,141.0,141.0,2,5.611341953277588,None,,,,,0,0,0,0,0,84,84,105,220.75578689575195,,,,,,,,,,,,,,,,,,,,,,,,,,,,,,,,,,,,,,,,,,,,,,,,,,,,,,,,,,,,,,,,,,,,,,,,,,,,,,,,,200.0,125.0,125.0,200.0,141.0,141.0,3.0,3.1,-258,260,0,3,266,-280,220.74039888381958,220.740478515625,220.74405455589294,220.75578689575195,220.90959477424622,220.90959477424622,220.90959477424622,220.90959477424622,220.90959477424622,220.90959477424622,220.90959477424622,226.3768060207367,2,5.611341953277588,None,,,,,,,,,,,,,,,,,,176,2,2025-03-03_14h54.41.786,comp,2024.2.4,None,2025-03-03 14h55.15.113667 -0500,
85,85,0,filler_random,None,None,None,None,None,None,None,None,None,None,3,1.2791471481323242,None,,,,,0,0,0,0,0,85,85,134,226.39230060577393,,,,,,,,,,,,,,,,,,,,,,,,,,,,,,,,,,,,,,,,,,,,,,,,,,,,,,,,,,,,,,,,,,,,,,,,,,,,,,,,,88.01305963752056,181.53612332486549,74.4821099655549,114.95081801048548,192.23715362456423,90.27733416061756,4.0,4.1,-244,-255,0,-14,199,-257,226.37846899032593,226.37854623794556,226.38161516189575,226.39230060577393,226.54063081741333,226.54063081741333,226.54063081741333,226.54063081741333,226.54063081741333,226.54063081741333,226.54063081741333,227.6757733821869,3,1.2791471481323242,None,,,,,,,,,,,,,,,,,,176,2,2025-03-03_14h54.41.786,comp,2024.2.4,None,2025-03-03 14h55.15.113667 -0500,
86,86,0,filler_random,None,None,None,None,None,None,None,None,None,None,3,1.0041286945343018,None,,,,,0,0,0,0,0,86,86,155,227.69179916381836,,,,,,,,,,,,,,,,,,,,,,,,,,,,,,,,,,,,,,,,,,,,,,,,,,,,,,,,,,,,,,,,,,,,,,,,,,,,,,,,,80.23633340789652,164.07176247960413,88.86683597871237,118.13238383171026,194.80756352234803,199.67173269192594,2.1,2.11,-237,277,0,268,255,-279,227.67740535736084,227.677481174469,227.6804118156433,227.69179916381836,227.8415014743805,227.8415014743805,227.8415014743805,227.8415014743805,227.8415014743805,227.8415014743805,227.8415014743805,228.71242237091064,3,1.0041286945343018,None,,,,,,,,,,,,,,,,,,176,2,2025-03-03_14h54.41.786,comp,2024.2.4,None,2025-03-03 14h55.15.113667 -0500,
87,87,0,filler_square,None,None,None,None,None,None,None,None,None,None,3,0.8223083019256592,None,,,,,0,0,0,0,0,87,87,176,228.72885131835938,,,,,,,,,,,,,,,,,,,,,,,,,,,,,,,,,,,,,,,,,,,,,,,,,,,,,,,,,,,,,,,,,,,,,,,,,,,,,,,,,77.2833595707982,156.5194768410807,83.22605590991921,117.77829538577237,192.77898224076174,192.77898224076174,2.1,2.11,-233,280,0,281,251,-284,228.71475291252136,228.71483445167542,228.71778082847595,228.72885131835938,228.87947797775269,228.87947797775269,228.87947797775269,228.87947797775269,228.87947797775269,228.87947797775269,228.87947797775269,229.56367683410645,3,0.8223083019256592,None,,,,,,,,,,,,,,,,,,176,2,2025-03-03_14h54.41.786,comp,2024.2.4,None,2025-03-03 14h55.15.113667 -0500,
88,88,0,critical,hdw,20.0,1.0,lower,133.0,57.0,78.0,78.0,57.0,133.0,3,1.474134922027588,None,,,,,0,0,0,0,0,88,88,114,229.58173274993896,,,,,,,,,,,,,,,,,,,,,,,,,,,,,,,,,,,,,,,,,,,,,,,,,,,,,,,,,,,,,,,,,,,,,,,,,,,,,,,,,133.0,57.0,78.0,78.0,57.0,133.0,1.0,1.2,-164,-11,0,9,202,-7,229.56512212753296,229.5651981830597,229.56809163093567,229.58173274993896,229.72577357292175,229.72577357292175,229.72577357292175,229.72577357292175,229.72577357292175,229.72577357292175,229.72577357292175,231.06100392341614,3,1.474134922027588,None,,,,,,,,,,,,,,,,,,176,2,2025-03-03_14h54.41.786,comp,2024.2.4,None,2025-03-03 14h55.15.113667 -0500,
89,89,0,critical,wdh,20.0,1.0,lower,57.0,133.0,78.0,78.0,133.0,57.0,1,1.4106965065002441,None,,,,,0,0,0,0,0,89,89,78,231.07680702209473,,,,,,,,,,,,,,,,,,,,,,,,,,,,,,,,,,,,,,,,,,,,,,,,,,,,,,,,,,,,,,,,,,,,,,,,,,,,,,,,,57.0,133.0,78.0,78.0,133.0,57.0,1.0,1.2,-202,12,0,3,164,-18,231.06240248680115,231.06247782707214,231.06599307060242,231.07680702209473,231.2247703075409,231.2247703075409,231.2247703075409,231.2247703075409,231.2247703075409,231.2247703075409,231.2247703075409,232.4923756122589,1,1.4106965065002441,None,,,,,,,,,,,,,,,,,,176,2,2025-03-03_14h54.41.786,comp,2024.2.4,None,2025-03-03 14h55.15.113667 -0500,
90,90,0,critical,whd,20.0,2.1,upper,125.0,200.0,200.0,125.0,141.0,141.0,2,3.408828020095825,None,,,,,0,0,0,0,0,90,90,39,232.5119071006775,,,,,,,,,,,,,,,,,,,,,,,,,,,,,,,,,,,,,,,,,,,,,,,,,,,,,,,,,,,,,,,,,,,,,,,,,,,,,,,,,125.0,200.0,200.0,125.0,141.0,141.0,2.1,2.12,-258,-266,0,-258,229,280,232.49398970603943,232.49406909942627,232.49745440483093,232.5119071006775,232.65996193885803,232.65996193885803,232.65996193885803,232.65996193885803,232.65996193885803,232.65996193885803,232.65996193885803,235.92704010009766,2,3.408828020095825,None,,,,,,,,,,,,,,,,,,176,2,2025-03-03_14h54.41.786,comp,2024.2.4,None,2025-03-03 14h55.15.113667 -0500,
91,91,0,filler_random,None,None,None,None,None,None,None,None,None,None,3,6.373584270477295,None,,,,,0,0,0,0,0,91,91,169,235.94555234909058,,,,,,,,,,,,,,,,,,,,,,,,,,,,,,,,,,,,,,,,,,,,,,,,,,,,,,,,,,,,,,,,,,,,,,,,,,,,,,,,,63.37409826859002,118.9218727251061,115.42874037741456,92.12987610479601,100.69115813349812,139.57816214738926,4.0,4.2,-202,-18,0,-289,212,-2,235.9287555217743,235.92883610725403,235.9320032596588,235.94555234909058,236.09592390060425,236.09592390060425,236.09592390060425,236.09592390060425,236.09592390060425,236.09592390060425,236.09592390060425,242.32896304130554,3,6.373584270477295,None,,,,,,,,,,,,,,,,,,176,2,2025-03-03_14h54.41.786,comp,2024.2.4,None,2025-03-03 14h55.15.113667 -0500,
92,92,0,critical,dwh,35.0,3.0,upper,127.0,127.0,125.0,200.0,200.0,125.0,2,1.725874662399292,None,,,,,0,0,0,0,0,92,92,63,242.34538674354553,,,,,,,,,,,,,,,,,,,,,,,,,,,,,,,,,,,,,,,,,,,,,,,,,,,,,,,,,,,,,,,,,,,,,,,,,,,,,,,,,127.0,127.0,125.0,200.0,200.0,125.0,3.0,3.2,-260,-276,0,15,258,289,242.33049273490906,242.33057260513306,242.33363223075867,242.34538674354553,242.4949288368225,242.4949288368225,242.4949288368225,242.4949288368225,242.4949288368225,242.4949288368225,242.4949288368225,244.07531213760376,2,1.725874662399292,None,,,,,,,,,,,,,,,,,,176,2,2025-03-03_14h54.41.786,comp,2024.2.4,None,2025-03-03 14h55.15.113667 -0500,
93,93,0,critical,hdw,20.0,1.0,upper,200.0,125.0,141.0,141.0,125.0,200.0,3,3.6182665824890137,None,,,,,0,0,0,0,0,93,93,115,244.09357905387878,,,,,,,,,,,,,,,,,,,,,,,,,,,,,,,,,,,,,,,,,,,,,,,,,,,,,,,,,,,,,,,,,,,,,,,,,,,,,,,,,200.0,125.0,141.0,141.0,125.0,200.0,1.0,1.3,251,-273,480,-287,746,-281,244.07700657844543,244.07713389396667,244.08038115501404,244.09357905387878,244.23081421852112,244.23081421852112,244.23081421852112,244.23081421852112,244.23081421852112,244.23081421852112,244.23081421852112,247.7172553539276,3,3.6182665824890137,None,,,,,,,,,,,,,,,,,,176,2,2025-03-03_14h54.41.786,comp,2024.2.4,None,2025-03-03 14h55.15.113667 -0500,
94,94,0,critical,dhw,20.0,4.0,lower,78.0,78.0,133.0,57.0,57.0,133.0,2,1.8810622692108154,None,,,,,0,0,0,0,0,94,94,58,247.7340385913849,,,,,,,,,,,,,,,,,,,,,,,,,,,,,,,,,,,,,,,,,,,,,,,,,,,,,,,,,,,,,,,,,,,,,,,,,,,,,,,,,78.0,78.0,133.0,57.0,57.0,133.0,4.0,4.1,-164,-274,0,13,191,-268,247.7188823223114,247.7189610004425,247.7224316596985,247.7340385913849,247.8804476261139,247.8804476261139,247.8804476261139,247.8804476261139,247.8804476261139,247.8804476261139,247.8804476261139,249.6313557624817,2,1.8810622692108154,None,,,,,,,,,,,,,,,,,,176,2,2025-03-03_14h54.41.786,comp,2024.2.4,None,2025-03-03 14h55.15.113667 -0500,
95,95,0,critical,whd,20.0,2.1,lower,57.0,133.0,133.0,57.0,78.0,78.0,3,1.5515499114990234,None,,,,,0,0,0,0,0,95,95,14,249.64754700660706,,,,,,,,,,,,,,,,,,,,,,,,,,,,,,,,,,,,,,,,,,,,,,,,,,,,,,,,,,,,,,,,,,,,,,,,,,,,,,,,,57.0,133.0,133.0,57.0,78.0,78.0,2.1,2.11,-191,282,0,276,164,-283,249.6329300403595,249.63300466537476,249.63631868362427,249.64754700660706,249.79815912246704,249.79815912246704,249.79815912246704,249.79815912246704,249.79815912246704,249.79815912246704,249.79815912246704,251.21573543548584,3,1.5515499114990234,None,,,,,,,,,,,,,,,,,,176,2,2025-03-03_14h54.41.786,comp,2024.2.4,None,2025-03-03 14h55.15.113667 -0500,
96,96,0,filler_random,None,None,None,None,None,None,None,None,None,None,3,1.7112524509429932,None,,,,,0,0,0,0,0,96,96,156,251.23193264007568,,,,,,,,,,,,,,,,,,,,,,,,,,,,,,,,,,,,,,,,,,,,,,,,,,,,,,,,,,,,,,,,,,,,,,,,,,,,,,,,,65.65200823727041,192.4231309334075,81.25719984289248,77.56940056858203,105.89471317731716,138.76304107773848,2.2,2.22,-231,268,0,-279,204,-280,251.2175588607788,251.21770644187927,251.22094559669495,251.23193264007568,251.3877944946289,251.3877944946289,251.3877944946289,251.3877944946289,251.3877944946289,251.3877944946289,251.3877944946289,252.9551842212677,3,1.7112524509429932,None,,,,,,,,,,,,,,,,,,176,2,2025-03-03_14h54.41.786,comp,2024.2.4,None,2025-03-03 14h55.15.113667 -0500,
97,97,0,critical,dwh,20.0,4.0,upper,141.0,141.0,125.0,200.0,200.0,125.0,3,1.9076013565063477,None,,,,,0,0,0,0,0,97,97,71,252.97145986557007,,,,,,,,,,,,,,,,,,,,,,,,,,,,,,,,,,,,,,,,,,,,,,,,,,,,,,,,,,,,,,,,,,,,,,,,,,,,,,,,,141.0,141.0,125.0,200.0,200.0,125.0,4.0,4.1,-266,-268,0,-20,258,-262,252.9568235874176,252.95690059661865,252.96021151542664,252.97145986557007,253.11798191070557,253.11798191070557,253.11798191070557,253.11798191070557,253.11798191070557,253.11798191070557,253.11798191070557,254.89089035987854,3,1.9076013565063477,None,,,,,,,,,,,,,,,,,,176,2,2025-03-03_14h54.41.786,comp,2024.2.4,None,2025-03-03 14h55.15.113667 -0500,
98,98,0,filler_square,None,None,None,None,None,None,None,None,None,None,1,1.1463446617126465,None,,,,,0,0,0,0,0,98,98,182,254.90955877304077,,,,,,,,,,,,,,,,,,,,,,,,,,,,,,,,,,,,,,,,,,,,,,,,,,,,,,,,,,,,,,,,,,,,,,,,,,,,,,,,,146.439277300174,146.439277300174,127.26284844501976,124.50824885211911,66.37965607095487,69.36191285542282,1.0,1.3,249,-275,480,-279,673,-250,254.8929944038391,254.89307641983032,254.8962926864624,254.90955877304077,255.0534942150116,255.0534942150116,255.0534942150116,255.0534942150116,255.0534942150116,255.0534942150116,255.0534942150116,256.067440032959,1,1.1463446617126465,None,,,,,,,,,,,,,,,,,,176,2,2025-03-03_14h54.41.786,comp,2024.2.4,None,2025-03-03 14h55.15.113667 -0500,
99,99,0,filler_random,None,None,None,None,None,None,None,None,None,None,1,0.938866376876831,None,,,,,0,0,0,0,0,99,99,154,256.0844497680664,,,,,,,,,,,,,,,,,,,,,,,,,,,,,,,,,,,,,,,,,,,,,,,,,,,,,,,,,,,,,,,,,,,,,,,,,,,,,,,,,176.31737589027531,125.62843646914307,67.96010210463953,90.88490870437161,87.50676188245548,86.43915605494229,4.0,4.1,-204,-263,0,10,185,-290,256.06922674179077,256.06935000419617,256.072874546051,256.0844497680664,256.23105931282043,256.23105931282043,256.23105931282043,256.23105931282043,256.23105931282043,256.23105931282043,256.23105931282043,257.03712940216064,1,0.938866376876831,None,,,,,,,,,,,,,,,,,,176,2,2025-03-03_14h54.41.786,comp,2024.2.4,None,2025-03-03 14h55.15.113667 -0500,
100,100,0,filler_random,None,None,None,None,None,None,None,None,None,None,1,2.0343995094299316,None,,,,,0,0,0,0,0,100,100,139,257.052757024765,,,,,,,,,,,,,,,,,,,,,,,,,,,,,,,,,,,,,,,,,,,,,,,,,,,,,,,,,,,,,,,,,,,,,,,,,,,,,,,,,100.44843069448079,81.67103530211644,95.9675342310723,71.4816798555701,111.67378973904013,59.173806514114155,2.1,2.11,-173,259,0,256,161,-272,257.0395402908325,257.0396201610565,257.04253673553467,257.052757024765,257.2076885700226,257.2076885700226,257.2076885700226,257.2076885700226,257.2076885700226,257.2076885700226,257.2076885700226,259.1017954349518,1,2.0343995094299316,None,,,,,,,,,,,,,,,,,,176,2,2025-03-03_14h54.41.786,comp,2024.2.4,None,2025-03-03 14h55.15.113667 -0500,
101,101,0,critical,hwd,20.0,2.1,lower,133.0,57.0,57.0,133.0,78.0,78.0,2,1.5947132110595703,None,,,,,0,0,0,0,0,101,101,18,259.11711502075195,,,,,,,,,,,,,,,,,,,,,,,,,,,,,,,,,,,,,,,,,,,,,,,,,,,,,,,,,,,,,,,,,,,,,,,,,,,,,,,,,133.0,57.0,57.0,133.0,78.0,78.0,2.1,2.12,-191,-278,0,-259,202,278,259.10330152511597,259.10337710380554,259.10688972473145,259.11711502075195,259.2709460258484,259.2709460258484,259.2709460258484,259.2709460258484,259.2709460258484,259.2709460258484,259.2709460258484,260.7190942764282,2,1.5947132110595703,None,,,,,,,,,,,,,,,,,,176,2,2025-03-03_14h54.41.786,comp,2024.2.4,None,2025-03-03 14h55.15.113667 -0500,
102,102,0,catch,None,None,None,None,None,None,None,None,None,None,3,0.8962488174438477,None,,,,,0,0,0,0,0,102,102,123,260.73542857170105,,,,,,,,,,,,,,,,,,,,,,,,,,,,,,,,,,,,,,,,,,,,,,,,,,,,,,,,,,,,,,,,,,,,,,,,,,,,,,,,,121,69,97,93,195,130,2.1,2.11,-177,266,0,262,208,-254,260.7209541797638,260.7210319042206,260.72447299957275,260.73542857170105,260.88939809799194,260.88939809799194,260.88939809799194,260.88939809799194,260.88939809799194,260.88939809799194,260.88939809799194,261.63444232940674,3,0.8962488174438477,None,,,,,,,,,,,,,,,,,,176,2,2025-03-03_14h54.41.786,comp,2024.2.4,None,2025-03-03 14h55.15.113667 -0500,
103,103,0,critical,wdh,20.0,2.1,upper,125.0,200.0,141.0,141.0,200.0,125.0,3,3.6207635402679443,None,,,,,0,0,0,0,0,103,103,11,261.6505789756775,,,,,,,,,,,,,,,,,,,,,,,,,,,,,,,,,,,,,,,,,,,,,,,,,,,,,,,,,,,,,,,,,,,,,,,,,,,,,,,,,125.0,200.0,141.0,141.0,200.0,125.0,2.1,2.11,-266,251,0,272,229,-284,261.6358873844147,261.63596367836,261.6388339996338,261.6505789756775,261.7864365577698,261.7864365577698,261.7864365577698,261.7864365577698,261.7864365577698,261.7864365577698,261.7864365577698,265.27418208122253,3,3.6207635402679443,None,,,,,,,,,,,,,,,,,,176,2,2025-03-03_14h54.41.786,comp,2024.2.4,None,2025-03-03 14h55.15.113667 -0500,
104,104,0,catch,None,None,None,None,None,None,None,None,None,None,3,0.7413387298583984,None,,,,,0,0,0,0,0,104,104,121,265.29039883613586,,,,,,,,,,,,,,,,,,,,,,,,,,,,,,,,,,,,,,,,,,,,,,,,,,,,,,,,,,,,,,,,,,,,,,,,,,,,,,,,,94,96,97,93,165,160,2.1,2.12,-190,-262,0,-250,222,272,265.2763030529022,265.2763817310333,265.27954626083374,265.29039883613586,265.43688464164734,265.43688464164734,265.43688464164734,265.43688464164734,265.43688464164734,265.43688464164734,265.43688464164734,266.04202818870544,3,0.7413387298583984,None,,,,,,,,,,,,,,,,,,176,2,2025-03-03_14h54.41.786,comp,2024.2.4,None,2025-03-03 14h55.15.113667 -0500,
105,105,0,critical,dwh,35.0,3.0,lower,70.0,70.0,57.0,133.0,133.0,57.0,2,1.1285927295684814,None,,,,,0,0,0,0,0,105,105,62,266.0625922679901,,,,,,,,,,,,,,,,,,,,,,,,,,,,,,,,,,,,,,,,,,,,,,,,,,,,,,,,,,,,,,,,,,,,,,,,,,,,,,,,,70.0,70.0,57.0,133.0,133.0,57.0,3.0,3.1,-198,279,0,10,191,-257,266.0435106754303,266.04358768463135,266.0468966960907,266.0625922679901,266.2014706134796,266.2014706134796,266.2014706134796,266.2014706134796,266.2014706134796,266.2014706134796,266.2014706134796,267.204074382782,2,1.1285927295684814,None,,,,,,,,,,,,,,,,,,176,2,2025-03-03_14h54.41.786,comp,2024.2.4,None,2025-03-03 14h55.15.113667 -0500,
106,106,0,filler_square,None,None,None,None,None,None,None,None,None,None,2,0.8115136623382568,None,,,,,0,0,0,0,0,106,106,202,267.220255613327,,,,,,,,,,,,,,,,,,,,,,,,,,,,,,,,,,,,,,,,,,,,,,,,,,,,,,,,,,,,,,,,,,,,,,,,,,,,,,,,,101.34127824002766,106.4661489237603,185.52163890681493,185.52163890681493,89.59091067639984,140.42903699360915,2.1,2.12,-242,-272,0,-289,259,284,267.2058687210083,267.2059452533722,267.20886063575745,267.220255613327,267.37643599510193,267.37643599510193,267.37643599510193,267.37643599510193,267.37643599510193,267.37643599510193,267.37643599510193,268.03705954551697,2,0.8115136623382568,None,,,,,,,,,,,,,,,,,,176,2,2025-03-03_14h54.41.786,comp,2024.2.4,None,2025-03-03 14h55.15.113667 -0500,
107,107,0,critical,whd,35.0,2.1,lower,57.0,133.0,133.0,57.0,70.0,70.0,1,2.092057228088379,None,,,,,0,0,0,0,0,107,107,12,268.0530140399933,,,,,,,,,,,,,,,,,,,,,,,,,,,,,,,,,,,,,,,,,,,,,,,,,,,,,,,,,,,,,,,,,,,,,,,,,,,,,,,,,57.0,133.0,133.0,57.0,70.0,70.0,2.1,2.12,-191,-275,0,-278,160,282,268.03860902786255,268.03871870040894,268.0420558452606,268.0530140399933,268.2054286003113,268.2054286003113,268.2054286003113,268.2054286003113,268.2054286003113,268.2054286003113,268.2054286003113,270.15601325035095,1,2.092057228088379,None,,,,,,,,,,,,,,,,,,176,2,2025-03-03_14h54.41.786,comp,2024.2.4,None,2025-03-03 14h55.15.113667 -0500,
108,108,0,filler_square,None,None,None,None,None,None,None,None,None,None,1,2.9956820011138916,None,,,,,0,0,0,0,0,108,108,201,270.1718637943268,,,,,,,,,,,,,,,,,,,,,,,,,,,,,,,,,,,,,,,,,,,,,,,,,,,,,,,,,,,,,,,,,,,,,,,,,,,,,,,,,137.4829728592449,137.4829728592449,132.42519472087622,134.73645228464054,87.88336399213789,58.973323472530176,4.0,4.1,-232,-252,0,-13,193,-258,270.1577990055084,270.15787839889526,270.16116523742676,270.1718637943268,270.3207497596741,270.3207497596741,270.3207497596741,270.3207497596741,270.3207497596741,270.3207497596741,270.3207497596741,273.1716651916504,1,2.9956820011138916,None,,,,,,,,,,,,,,,,,,176,2,2025-03-03_14h54.41.786,comp,2024.2.4,None,2025-03-03 14h55.15.113667 -0500,
109,109,0,critical,hwd,35.0,3.0,upper,200.0,125.0,125.0,200.0,127.0,127.0,2,2.427865505218506,None,,,,,0,0,0,0,0,109,109,99,273.18812561035156,,,,,,,,,,,,,,,,,,,,,,,,,,,,,,,,,,,,,,,,,,,,,,,,,,,,,,,,,,,,,,,,,,,,,,,,,,,,,,,,,200.0,125.0,125.0,200.0,127.0,127.0,3.0,3.1,-258,288,0,-5,260,-278,273.1731879711151,273.17326641082764,273.17632246017456,273.18812561035156,273.3425087928772,273.3425087928772,273.3425087928772,273.3425087928772,273.3425087928772,273.3425087928772,273.3425087928772,275.6240909099579,2,2.427865505218506,None,,,,,,,,,,,,,,,,,,176,2,2025-03-03_14h54.41.786,comp,2024.2.4,None,2025-03-03 14h55.15.113667 -0500,
110,110,0,filler_random,None,None,None,None,None,None,None,None,None,None,2,0.7430987358093262,None,,,,,0,0,0,0,0,110,110,158,275.6403839588165,,,,,,,,,,,,,,,,,,,,,,,,,,,,,,,,,,,,,,,,,,,,,,,,,,,,,,,,,,,,,,,,,,,,,,,,,,,,,,,,,57.9070191239052,69.42582756535437,185.15352583575407,162.3671629998373,67.94437359150002,169.70038247179107,4.0,4.1,-212,-280,0,8,262,-277,275.6258194446564,275.6259000301361,275.62928223609924,275.6403839588165,275.7951934337616,275.7951934337616,275.7951934337616,275.7951934337616,275.7951934337616,275.7951934337616,275.7951934337616,276.3957488536835,2,0.7430987358093262,None,,,,,,,,,,,,,,,,,,176,2,2025-03-03_14h54.41.786,comp,2024.2.4,None,2025-03-03 14h55.15.113667 -0500,
111,111,0,critical,whd,20.0,1.0,lower,57.0,133.0,133.0,57.0,78.0,78.0,1,4.34822940826416,None,,,,,0,0,0,0,0,111,111,90,276.41097497940063,,,,,,,,,,,,,,,,,,,,,,,,,,,,,,,,,,,,,,,,,,,,,,,,,,,,,,,,,,,,,,,,,,,,,,,,,,,,,,,,,57.0,133.0,133.0,57.0,78.0,78.0,1.0,1.2,-191,-4,0,19,164,-10,276.39724612236023,276.3973231315613,276.40023970603943,276.41097497940063,276.5574007034302,276.5574007034302,276.5574007034302,276.5574007034302,276.5574007034302,276.5574007034302,276.5574007034302,280.7764368057251,1,4.34822940826416,None,,,,,,,,,,,,,,,,,,176,2,2025-03-03_14h54.41.786,comp,2024.2.4,None,2025-03-03 14h55.15.113667 -0500,
112,112,0,filler_square,None,None,None,None,None,None,None,None,None,None,3,3.022430896759033,None,,,,,0,0,0,0,0,112,112,171,280.79276061058044,,,,,,,,,,,,,,,,,,,,,,,,,,,,,,,,,,,,,,,,,,,,,,,,,,,,,,,,,,,,,,,,,,,,,,,,,,,,,,,,,79.91141500117979,87.92165473056056,92.6128284204481,64.61318394466268,100.4085212442993,100.4085212442993,3.0,3.2,-172,-271,0,-9,179,277,280.77835845947266,280.7784867286682,280.7824695110321,280.79276061058044,280.942556142807,280.942556142807,280.942556142807,280.942556142807,280.942556142807,280.942556142807,280.942556142807,283.82530188560486,3,3.022430896759033,None,,,,,,,,,,,,,,,,,,176,2,2025-03-03_14h54.41.786,comp,2024.2.4,None,2025-03-03 14h55.15.113667 -0500,
113,113,0,filler_random,None,None,None,None,None,None,None,None,None,None,1,4.537092685699463,None,,,,,0,0,0,0,0,113,113,147,283.8461787700653,,,,,,,,,,,,,,,,,,,,,,,,,,,,,,,,,,,,,,,,,,,,,,,,,,,,,,,,,,,,,,,,,,,,,,,,,,,,,,,,,152.8060649072807,178.5296874202666,119.59528392926043,115.50882946527312,198.24779536179807,125.33856266014001,1.0,1.3,237,-282,480,-253,696,-282,283.8271188735962,283.8272354602814,283.8304340839386,283.8461787700653,283.9937090873718,283.9937090873718,283.9937090873718,283.9937090873718,283.9937090873718,283.9937090873718,283.9937090873718,288.40112137794495,1,4.537092685699463,None,,,,,,,,,,,,,,,,,,176,2,2025-03-03_14h54.41.786,comp,2024.2.4,None,2025-03-03 14h55.15.113667 -0500,
114,114,0,critical,hdw,35.0,3.0,lower,133.0,57.0,70.0,70.0,57.0,133.0,3,3.070761203765869,None,,,,,0,0,0,0,0,114,114,110,288.41647481918335,,,,,,,,,,,,,,,,,,,,,,,,,,,,,,,,,,,,,,,,,,,,,,,,,,,,,,,,,,,,,,,,,,,,,,,,,,,,,,,,,133.0,57.0,70.0,70.0,57.0,133.0,3.0,3.1,-160,273,0,18,198,-288,288.40271496772766,288.4027888774872,288.4061019420624,288.41647481918335,288.56258940696716,288.56258940696716,288.56258940696716,288.56258940696716,288.56258940696716,288.56258940696716,288.56258940696716,291.4973576068878,3,3.070761203765869,None,,,,,,,,,,,,,,,,,,176,2,2025-03-03_14h54.41.786,comp,2024.2.4,None,2025-03-03 14h55.15.113667 -0500,
115,115,0,critical,whd,35.0,2.1,upper,125.0,200.0,200.0,125.0,127.0,127.0,2,1.6373486518859863,None,,,,,0,0,0,0,0,115,115,37,291.5138864517212,,,,,,,,,,,,,,,,,,,,,,,,,,,,,,,,,,,,,,,,,,,,,,,,,,,,,,,,,,,,,,,,,,,,,,,,,,,,,,,,,125.0,200.0,200.0,125.0,127.0,127.0,2.1,2.11,-258,271,0,287,222,-259,291.4989972114563,291.4990782737732,291.50244522094727,291.5138864517212,291.66198921203613,291.66198921203613,291.66198921203613,291.66198921203613,291.66198921203613,291.66198921203613,291.66198921203613,293.16244173049927,2,1.6373486518859863,None,,,,,,,,,,,,,,,,,,176,2,2025-03-03_14h54.41.786,comp,2024.2.4,None,2025-03-03 14h55.15.113667 -0500,
116,116,0,critical,hdw,20.0,2.1,lower,133.0,57.0,78.0,78.0,57.0,133.0,1,2.7008626461029053,None,,,,,0,0,0,0,0,116,116,46,293.1785361766815,,,,,,,,,,,,,,,,,,,,,,,,,,,,,,,,,,,,,,,,,,,,,,,,,,,,,,,,,,,,,,,,,,,,,,,,,,,,,,,,,133.0,57.0,78.0,78.0,57.0,133.0,2.1,2.12,-164,-276,0,-284,202,276,293.1639940738678,293.16407561302185,293.16729068756104,293.1785361766815,293.32786989212036,293.32786989212036,293.32786989212036,293.32786989212036,293.32786989212036,293.32786989212036,293.32786989212036,295.88201570510864,1,2.7008626461029053,None,,,,,,,,,,,,,,,,,,176,2,2025-03-03_14h54.41.786,comp,2024.2.4,None,2025-03-03 14h55.15.113667 -0500,
117,117,0,critical,hdw,20.0,3.0,upper,200.0,125.0,141.0,141.0,125.0,200.0,3,1.3572959899902344,None,,,,,0,0,0,0,0,117,117,117,295.89873933792114,,,,,,,,,,,,,,,,,,,,,,,,,,,,,,,,,,,,,,,,,,,,,,,,,,,,,,,,,,,,,,,,,,,,,,,,,,,,,,,,,200.0,125.0,141.0,141.0,125.0,200.0,3.0,3.2,-229,-277,0,8,266,260,295.8838860988617,295.8839693069458,295.8879895210266,295.89873933792114,296.0466089248657,296.0466089248657,296.0466089248657,296.0466089248657,296.0466089248657,296.0466089248657,296.0466089248657,297.265287399292,3,1.3572959899902344,None,,,,,,,,,,,,,,,,,,176,2,2025-03-03_14h54.41.786,comp,2024.2.4,None,2025-03-03 14h55.15.113667 -0500,
118,118,0,critical,dwh,35.0,4.0,lower,70.0,70.0,57.0,133.0,133.0,57.0,2,2.638231039047241,None,,,,,0,0,0,0,0,118,118,64,297.2810254096985,,,,,,,,,,,,,,,,,,,,,,,,,,,,,,,,,,,,,,,,,,,,,,,,,,,,,,,,,,,,,,,,,,,,,,,,,,,,,,,,,70.0,70.0,57.0,133.0,133.0,57.0,4.0,4.2,-198,-4,0,-278,191,-18,297.2669286727905,297.26703691482544,297.2703342437744,297.2810254096985,297.4306128025055,297.4306128025055,297.4306128025055,297.4306128025055,297.4306128025055,297.4306128025055,297.4306128025055,299.93030428886414,2,2.638231039047241,None,,,,,,,,,,,,,,,,,,176,2,2025-03-03_14h54.41.786,comp,2024.2.4,None,2025-03-03 14h55.15.113667 -0500,
119,119,0,critical,hdw,20.0,3.0,lower,133.0,57.0,78.0,78.0,57.0,133.0,3,2.076465129852295,None,,,,,0,0,0,0,0,119,119,116,299.94674801826477,,,,,,,,,,,,,,,,,,,,,,,,,,,,,,,,,,,,,,,,,,,,,,,,,,,,,,,,,,,,,,,,,,,,,,,,,,,,,,,,,133.0,57.0,78.0,78.0,57.0,133.0,3.0,3.1,-164,278,0,-4,202,-279,299.9318759441376,299.9319553375244,299.9351341724396,299.94674801826477,300.0860278606415,300.0860278606415,300.0860278606415,300.0860278606415,300.0860278606415,300.0860278606415,300.0860278606415,302.0329375267029,3,2.076465129852295,None,,,,,,,,,,,,,,,,,,176,2,2025-03-03_14h54.41.786,comp,2024.2.4,None,2025-03-03 14h55.15.113667 -0500,
120,120,0,critical,dwh,35.0,2.1,lower,70.0,70.0,57.0,133.0,133.0,57.0,2,1.910881757736206,None,,,,,0,0,0,0,0,120,120,4,302.0484366416931,,,,,,,,,,,,,,,,,,,,,,,,,,,,,,,,,,,,,,,,,,,,,,,,,,,,,,,,,,,,,,,,,,,,,,,,,,,,,,,,,70.0,70.0,57.0,133.0,133.0,57.0,2.1,2.12,-198,-256,0,-271,191,253,302.03444027900696,302.034517288208,302.0377004146576,302.0484366416931,302.2044150829315,302.2044150829315,302.2044150829315,302.2044150829315,302.2044150829315,302.2044150829315,302.2044150829315,303.97422337532043,2,1.910881757736206,None,,,,,,,,,,,,,,,,,,176,2,2025-03-03_14h54.41.786,comp,2024.2.4,None,2025-03-03 14h55.15.113667 -0500,
121,121,0,critical,whd,35.0,4.0,upper,125.0,200.0,200.0,125.0,127.0,127.0,1,2.6085963249206543,None,,,,,0,0,0,0,0,121,121,89,303.9906859397888,,,,,,,,,,,,,,,,,,,,,,,,,,,,,,,,,,,,,,,,,,,,,,,,,,,,,,,,,,,,,,,,,,,,,,,,,,,,,,,,,125.0,200.0,200.0,125.0,127.0,127.0,4.0,4.2,-258,-20,0,-281,222,-12,303.9758369922638,303.9759359359741,303.9792685508728,303.9906859397888,304.1317539215088,304.1317539215088,304.1317539215088,304.1317539215088,304.1317539215088,304.1317539215088,304.1317539215088,306.6167182922363,1,2.6085963249206543,None,,,,,,,,,,,,,,,,,,176,2,2025-03-03_14h54.41.786,comp,2024.2.4,None,2025-03-03 14h55.15.113667 -0500,
122,122,0,filler_square,None,None,None,None,None,None,None,None,None,None,1,1.5589265823364258,None,,,,,0,0,0,0,0,122,122,180,306.63310623168945,,,,,,,,,,,,,,,,,,,,,,,,,,,,,,,,,,,,,,,,,,,,,,,,,,,,,,,,,,,,,,,,,,,,,,,,,,,,,,,,,90.8527482015532,90.8527482015532,63.22279092219353,63.606470197792504,90.76548981299777,82.82291951990754,3.0,3.2,-173,-258,0,-5,169,262,306.61880469322205,306.61888360977173,306.6225869655609,306.63310623168945,306.78232312202454,306.78232312202454,306.78232312202454,306.78232312202454,306.78232312202454,306.78232312202454,306.78232312202454,308.20077753067017,1,1.5589265823364258,None,,,,,,,,,,,,,,,,,,176,2,2025-03-03_14h54.41.786,comp,2024.2.4,None,2025-03-03 14h55.15.113667 -0500,
123,123,0,critical,dhw,20.0,2.1,upper,141.0,141.0,200.0,125.0,125.0,200.0,3,1.8712069988250732,None,,,,,0,0,0,0,0,123,123,27,308.21687030792236,,,,,,,,,,,,,,,,,,,,,,,,,,,,,,,,,,,,,,,,,,,,,,,,,,,,,,,,,,,,,,,,,,,,,,,,,,,,,,,,,141.0,141.0,200.0,125.0,125.0,200.0,2.1,2.11,-229,275,0,283,258,-273,308.2023606300354,308.20244216918945,308.2060401439667,308.21687030792236,308.37006545066833,308.37006545066833,308.37006545066833,308.37006545066833,308.37006545066833,308.37006545066833,308.37006545066833,310.10437655448914,3,1.8712069988250732,None,,,,,,,,,,,,,,,,,,176,2,2025-03-03_14h54.41.786,comp,2024.2.4,None,2025-03-03 14h55.15.113667 -0500,
124,124,0,critical,hdw,35.0,1.0,lower,133.0,57.0,70.0,70.0,57.0,133.0,3,2.815912961959839,None,,,,,0,0,0,0,0,124,124,108,310.1195330619812,,,,,,,,,,,,,,,,,,,,,,,,,,,,,,,,,,,,,,,,,,,,,,,,,,,,,,,,,,,,,,,,,,,,,,,,,,,,,,,,,133.0,57.0,70.0,70.0,57.0,133.0,1.0,1.3,320,-270,480,-264,678,-262,310.1060335636139,310.1061110496521,310.109069108963,310.1195330619812,310.27199840545654,310.27199840545654,310.27199840545654,310.27199840545654,310.27199840545654,310.27199840545654,310.27199840545654,312.93771266937256,3,2.815912961959839,None,,,,,,,,,,,,,,,,,,176,2,2025-03-03_14h54.41.786,comp,2024.2.4,None,2025-03-03 14h55.15.113667 -0500,
125,125,0,critical,hdw,35.0,1.0,upper,200.0,125.0,127.0,127.0,125.0,200.0,3,1.539900541305542,None,,,,,0,0,0,0,0,125,125,109,312.95604252815247,,,,,,,,,,,,,,,,,,,,,,,,,,,,,,,,,,,,,,,,,,,,,,,,,,,,,,,,,,,,,,,,,,,,,,,,,,,,,,,,,200.0,125.0,127.0,127.0,125.0,200.0,1.0,1.3,258,-279,480,-285,740,-257,312.9394037723541,312.93949031829834,312.94287848472595,312.95604252815247,313.101683139801,313.101683139801,313.101683139801,313.101683139801,313.101683139801,313.101683139801,313.101683139801,314.5034282207489,3,1.539900541305542,None,,,,,,,,,,,,,,,,,,176,2,2025-03-03_14h54.41.786,comp,2024.2.4,None,2025-03-03 14h55.15.113667 -0500,
126,126,0,filler_random,None,None,None,None,None,None,None,None,None,None,2,1.1033644676208496,None,,,,,0,0,0,0,0,126,126,136,314.5198321342468,,,,,,,,,,,,,,,,,,,,,,,,,,,,,,,,,,,,,,,,,,,,,,,,,,,,,,,,,,,,,,,,,,,,,,,,,,,,,,,,,58.38468907011055,68.89587771959064,98.25493328936925,140.03417698959106,139.9989700447713,69.62763407974597,2.2,2.21,-200,-253,0,269,201,286,314.5052785873413,314.5053722858429,314.50900530815125,314.5198321342468,314.67901253700256,314.67901253700256,314.67901253700256,314.67901253700256,314.67901253700256,314.67901253700256,314.67901253700256,315.639616727829,2,1.1033644676208496,None,,,,,,,,,,,,,,,,,,176,2,2025-03-03_14h54.41.786,comp,2024.2.4,None,2025-03-03 14h55.15.113667 -0500,
127,127,0,filler_square,None,None,None,None,None,None,None,None,None,None,2,0.9281725883483887,None,,,,,0,0,0,0,0,127,127,188,315.65551257133484,,,,,,,,,,,,,,,,,,,,,,,,,,,,,,,,,,,,,,,,,,,,,,,,,,,,,,,,,,,,,,,,,,,,,,,,,,,,,,,,,151.3177078162868,167.5237306538384,188.3460274856681,188.3460274856681,182.68341851267144,60.336620678007144,2.2,2.21,-274,-271,0,253,220,283,315.6420533657074,315.6421365737915,315.64505791664124,315.65551257133484,315.80314016342163,315.80314016342163,315.80314016342163,315.80314016342163,315.80314016342163,315.80314016342163,315.80314016342163,316.5860233306885,2,0.9281725883483887,None,,,,,,,,,,,,,,,,,,176,2,2025-03-03_14h54.41.786,comp,2024.2.4,None,2025-03-03 14h55.15.113667 -0500,
128,128,0,filler_square,None,None,None,None,None,None,None,None,None,None,1,0.7405023574829102,None,,,,,0,0,0,0,0,128,128,185,316.60280895233154,,,,,,,,,,,,,,,,,,,,,,,,,,,,,,,,,,,,,,,,,,,,,,,,,,,,,,,,,,,,,,,,,,,,,,,,,,,,,,,,,132.9684230121581,132.9684230121581,68.87032003103454,77.9166380823583,96.26532914912711,81.71409440333899,2.2,2.22,-201,264,0,-289,176,-253,316.5878255367279,316.5879030227661,316.59118485450745,316.60280895233154,316.75234627723694,316.75234627723694,316.75234627723694,316.75234627723694,316.75234627723694,316.75234627723694,316.75234627723694,317.35499000549316,1,0.7405023574829102,None,,,,,,,,,,,,,,,,,,176,2,2025-03-03_14h54.41.786,comp,2024.2.4,None,2025-03-03 14h55.15.113667 -0500,
129,129,0,filler_random,None,None,None,None,None,None,None,None,None,None,1,1.9143576622009277,None,,,,,0,0,0,0,0,129,129,164,317.3729681968689,,,,,,,,,,,,,,,,,,,,,,,,,,,,,,,,,,,,,,,,,,,,,,,,,,,,,,,,,,,,,,,,,,,,,,,,,,,,,,,,,99.91824791550638,135.45967301780092,68.62775466394042,140.08666980560758,87.23179220564239,128.69758447207212,2.1,2.12,-234,-257,0,-284,230,281,317.3567979335785,317.3569116592407,317.3602955341339,317.3729681968689,317.51798939704895,317.51798939704895,317.51798939704895,317.51798939704895,317.51798939704895,317.51798939704895,317.51798939704895,319.2895269393921,1,1.9143576622009277,None,,,,,,,,,,,,,,,,,,176,2,2025-03-03_14h54.41.786,comp,2024.2.4,None,2025-03-03 14h55.15.113667 -0500,
130,130,0,critical,dwh,35.0,1.0,lower,70.0,70.0,57.0,133.0,133.0,57.0,3,2.0143327713012695,None,,,,,0,0,0,0,0,130,130,60,319.3050274848938,,,,,,,,,,,,,,,,,,,,,,,,,,,,,,,,,,,,,,,,,,,,,,,,,,,,,,,,,,,,,,,,,,,,,,,,,,,,,,,,,70.0,70.0,57.0,133.0,133.0,57.0,1.0,1.1,-678,286,-480,285,-289,287,319.2911012172699,319.2911801338196,319.2943186759949,319.3050274848938,319.4525146484375,319.4525146484375,319.4525146484375,319.4525146484375,319.4525146484375,319.4525146484375,319.4525146484375,321.3216276168823,3,2.0143327713012695,None,,,,,,,,,,,,,,,,,,176,2,2025-03-03_14h54.41.786,comp,2024.2.4,None,2025-03-03 14h55.15.113667 -0500,
131,131,0,filler_square,None,None,None,None,None,None,None,None,None,None,2,0.9260909557342529,None,,,,,0,0,0,0,0,131,131,186,321.3380832672119,,,,,,,,,,,,,,,,,,,,,,,,,,,,,,,,,,,,,,,,,,,,,,,,,,,,,,,,,,,,,,,,,,,,,,,,,,,,,,,,,80.733621195424,100.77434487589807,103.65599012080685,103.65599012080685,93.10500104786027,73.56326959278238,3.0,3.1,-198,260,0,-11,185,-257,321.323383808136,321.3234615325928,321.3271851539612,321.3380832672119,321.486123085022,321.486123085022,321.486123085022,321.486123085022,321.486123085022,321.486123085022,321.486123085022,322.27166295051575,2,0.9260909557342529,None,,,,,,,,,,,,,,,,,,176,2,2025-03-03_14h54.41.786,comp,2024.2.4,None,2025-03-03 14h55.15.113667 -0500,
132,132,0,critical,hdw,20.0,2.1,upper,200.0,125.0,141.0,141.0,125.0,200.0,3,1.4020655155181885,None,,,,,0,0,0,0,0,132,132,23,322.28603529930115,,,,,,,,,,,,,,,,,,,,,,,,,,,,,,,,,,,,,,,,,,,,,,,,,,,,,,,,,,,,,,,,,,,,,,,,,,,,,,,,,200.0,125.0,141.0,141.0,125.0,200.0,2.1,2.11,-229,256,0,262,266,-255,322.27321219444275,322.27329111099243,322.2765462398529,322.28603529930115,322.4368977546692,322.4368977546692,322.4368977546692,322.4368977546692,322.4368977546692,322.4368977546692,322.4368977546692,323.6938018798828,3,1.4020655155181885,None,,,,,,,,,,,,,,,,,,176,2,2025-03-03_14h54.41.786,comp,2024.2.4,None,2025-03-03 14h55.15.113667 -0500,
133,133,0,critical,whd,35.0,3.0,upper,125.0,200.0,200.0,125.0,127.0,127.0,1,1.3775486946105957,None,,,,,0,0,0,0,0,133,133,87,323.7099597454071,,,,,,,,,,,,,,,,,,,,,,,,,,,,,,,,,,,,,,,,,,,,,,,,,,,,,,,,,,,,,,,,,,,,,,,,,,,,,,,,,125.0,200.0,200.0,125.0,127.0,127.0,3.0,3.1,-258,261,0,-12,222,-283,323.69532203674316,323.69539999961853,323.69833970069885,323.7099597454071,323.8552224636078,323.8552224636078,323.8552224636078,323.8552224636078,323.8552224636078,323.8552224636078,323.8552224636078,325.10772800445557,1,1.3775486946105957,None,,,,,,,,,,,,,,,,,,176,2,2025-03-03_14h54.41.786,comp,2024.2.4,None,2025-03-03 14h55.15.113667 -0500,
134,134,0,filler_random,None,None,None,None,None,None,None,None,None,None,3,1.2914912700653076,None,,,,,0,0,0,0,0,134,134,163,325.12555170059204,,,,,,,,,,,,,,,,,,,,,,,,,,,,,,,,,,,,,,,,,,,,,,,,,,,,,,,,,,,,,,,,,,,,,,,,,,,,,,,,,141.3029218245664,144.6772450526854,156.4556020257363,163.27067211461974,172.95594346288078,161.12371745411508,1.0,1.2,-250,-1,0,13,258,13,325.109521150589,325.1096875667572,325.1129512786865,325.12555170059204,325.2727723121643,325.2727723121643,325.2727723121643,325.2727723121643,325.2727723121643,325.2727723121643,325.2727723121643,326.42186665534973,3,1.2914912700653076,None,,,,,,,,,,,,,,,,,,176,2,2025-03-03_14h54.41.786,comp,2024.2.4,None,2025-03-03 14h55.15.113667 -0500,
135,135,0,critical,wdh,35.0,2.1,upper,125.0,200.0,127.0,127.0,200.0,125.0,3,1.3370156288146973,None,,,,,0,0,0,0,0,135,135,33,326.4383120536804,,,,,,,,,,,,,,,,,,,,,,,,,,,,,,,,,,,,,,,,,,,,,,,,,,,,,,,,,,,,,,,,,,,,,,,,,,,,,,,,,125.0,200.0,127.0,127.0,200.0,125.0,2.1,2.12,-260,-264,0,-289,222,269,326.4233524799347,326.4234299659729,326.42652893066406,326.4383120536804,326.5930700302124,326.5930700302124,326.5930700302124,326.5930700302124,326.5930700302124,326.5930700302124,326.5930700302124,327.7915201187134,3,1.3370156288146973,None,,,,,,,,,,,,,,,,,,176,2,2025-03-03_14h54.41.786,comp,2024.2.4,None,2025-03-03 14h55.15.113667 -0500,
136,136,0,filler_square,None,None,None,None,None,None,None,None,None,None,2,0.7762587070465088,None,,,,,0,0,0,0,0,136,136,190,327.8078112602234,,,,,,,,,,,,,,,,,,,,,,,,,,,,,,,,,,,,,,,,,,,,,,,,,,,,,,,,,,,,,,,,,,,,,,,,,,,,,,,,,121.77098401383074,99.06022454950423,183.47676608697338,183.47676608697338,150.11381891624114,169.6029136726023,4.0,4.1,-237,-262,0,2,273,-288,327.79361724853516,327.79373502731323,327.7975401878357,327.8078112602234,327.9460325241089,327.9460325241089,327.9460325241089,327.9460325241089,327.9460325241089,327.9460325241089,327.9460325241089,328.59166741371155,2,0.7762587070465088,None,,,,,,,,,,,,,,,,,,176,2,2025-03-03_14h54.41.786,comp,2024.2.4,None,2025-03-03 14h55.15.113667 -0500,
137,137,0,critical,dwh,20.0,3.0,lower,78.0,78.0,57.0,133.0,133.0,57.0,2,1.248086929321289,None,,,,,0,0,0,0,0,137,137,68,328.60811138153076,,,,,,,,,,,,,,,,,,,,,,,,,,,,,,,,,,,,,,,,,,,,,,,,,,,,,,,,,,,,,,,,,,,,,,,,,,,,,,,,,78.0,78.0,57.0,133.0,133.0,57.0,3.0,3.2,-202,-273,0,-11,191,255,328.59317111968994,328.5932469367981,328.59652757644653,328.60811138153076,328.7568426132202,328.7568426132202,328.7568426132202,328.7568426132202,328.7568426132202,328.7568426132202,328.7568426132202,329.86332082748413,2,1.248086929321289,None,,,,,,,,,,,,,,,,,,176,2,2025-03-03_14h54.41.786,comp,2024.2.4,None,2025-03-03 14h55.15.113667 -0500,
138,138,0,filler_random,None,None,None,None,None,None,None,None,None,None,2,1.0252985954284668,None,,,,,0,0,0,0,0,138,138,145,329.87868189811707,,,,,,,,,,,,,,,,,,,,,,,,,,,,,,,,,,,,,,,,,,,,,,,,,,,,,,,,,,,,,,,,,,,,,,,,,,,,,,,,,134.0210679470239,114.63507637341908,120.73581607071236,132.13536839980023,134.18415927528713,78.46113791246682,3.0,3.1,-219,286,0,-16,201,-286,329.8650541305542,329.86513471603394,329.86808824539185,329.87868189811707,330.027223110199,330.027223110199,330.027223110199,330.027223110199,330.027223110199,330.027223110199,330.027223110199,330.90872287750244,2,1.0252985954284668,None,,,,,,,,,,,,,,,,,,176,2,2025-03-03_14h54.41.786,comp,2024.2.4,None,2025-03-03 14h55.15.113667 -0500,
139,139,0,critical,dwh,20.0,4.0,lower,78.0,78.0,57.0,133.0,133.0,57.0,3,2.2181527614593506,None,,,,,0,0,0,0,0,139,139,70,330.9252247810364,,,,,,,,,,,,,,,,,,,,,,,,,,,,,,,,,,,,,,,,,,,,,,,,,,,,,,,,,,,,,,,,,,,,,,,,,,,,,,,,,78.0,78.0,57.0,133.0,133.0,57.0,4.0,4.1,-202,-253,0,-5,191,-283,330.9101893901825,330.91026544570923,330.9144277572632,330.9252247810364,331.0856041908264,331.0856041908264,331.0856041908264,331.0856041908264,331.0856041908264,331.0856041908264,331.0856041908264,333.16207671165466,3,2.2181527614593506,None,,,,,,,,,,,,,,,,,,176,2,2025-03-03_14h54.41.786,comp,2024.2.4,None,2025-03-03 14h55.15.113667 -0500,
140,140,0,critical,wdh,35.0,1.0,lower,57.0,133.0,70.0,70.0,133.0,57.0,1,3.086305856704712,None,,,,,0,0,0,0,0,140,140,72,333.17705941200256,,,,,,,,,,,,,,,,,,,,,,,,,,,,,,,,,,,,,,,,,,,,,,,,,,,,,,,,,,,,,,,,,,,,,,,,,,,,,,,,,57.0,133.0,70.0,70.0,133.0,57.0,1.0,1.1,-678,264,-480,276,-320,273,333.163724899292,333.16380882263184,333.16681480407715,333.17705941200256,333.32443857192993,333.32443857192993,333.32443857192993,333.32443857192993,333.32443857192993,333.32443857192993,333.32443857192993,336.27653408050537,1,3.086305856704712,None,,,,,,,,,,,,,,,,,,176,2,2025-03-03_14h54.41.786,comp,2024.2.4,None,2025-03-03 14h55.15.113667 -0500,
141,141,0,catch,None,None,None,None,None,None,None,None,None,None,3,0.8029868602752686,None,,,,,0,0,0,0,0,141,141,124,336.2923448085785,,,,,,,,,,,,,,,,,,,,,,,,,,,,,,,,,,,,,,,,,,,,,,,,,,,,,,,,,,,,,,,,,,,,,,,,,,,,,,,,,82,108,132,58,157,168,2.1,2.12,-179,-287,0,-289,209,280,336.27851462364197,336.27859234809875,336.2820544242859,336.2923448085785,336.44406628608704,336.44406628608704,336.44406628608704,336.44406628608704,336.44406628608704,336.44406628608704,336.44406628608704,337.1088800430298,3,0.8029868602752686,None,,,,,,,,,,,,,,,,,,176,2,2025-03-03_14h54.41.786,comp,2024.2.4,None,2025-03-03 14h55.15.113667 -0500,
142,142,0,filler_square,None,None,None,None,None,None,None,None,None,None,2,0.6960043907165527,None,,,,,0,0,0,0,0,142,142,204,337.12734174728394,,,,,,,,,,,,,,,,,,,,,,,,,,,,,,,,,,,,,,,,,,,,,,,,,,,,,,,,,,,,,,,,,,,,,,,,,,,,,,,,,72.25631628207954,70.69841913341466,183.3310060886991,183.3310060886991,163.24700574560666,74.00567872233094,2.1,2.11,-223,252,0,274,225,-267,337.11087942123413,337.11096024513245,337.1142647266388,337.12734174728394,337.2741823196411,337.2741823196411,337.2741823196411,337.2741823196411,337.2741823196411,337.2741823196411,337.2741823196411,337.84380316734314,2,0.6960043907165527,None,,,,,,,,,,,,,,,,,,176,2,2025-03-03_14h54.41.786,comp,2024.2.4,None,2025-03-03 14h55.15.113667 -0500,
