thisN,thisTrialN,thisRepN,effect,order,distance,config,diag,h_1,w_1,h_2,w_2,h_3,w_3,rect_choice.keys,rect_choice.rt,rect_choice.duration,instructions_loop.thisRepN,instructions_loop.thisTrialN,instructions_loop.thisN,instructions_loop.thisIndex,blocks.thisRepN,blocks.thisTrialN,blocks.thisN,blocks.thisIndex,trials.thisRepN,trials.thisTrialN,trials.thisN,trials.thisIndex,thisRow.t,notes,consent.started,agree_button.started,decline_button.started,consent_img.started,mouse.started,consent.stopped,agree_button.numClicks,agree_button.timesOn,agree_button.timesOff,decline_button.numClicks,decline_button.timesOn,decline_button.timesOff,mouse.x,mouse.y,mouse.leftButton,mouse.midButton,mouse.rightButton,mouse.time,mouse.clicked_name,exp_params.started,exp_params.stopped,welcome.started,welcome_text.started,welcome_text.stopped,welcome.stopped,instructions_1.started,instructions_1_text_1.started,instructions_1_text_2.started,key_resp.started,instructions_1.stopped,instructions_loop.key_resp.keys,instructions_loop.key_resp.rt,instructions_loop.key_resp.duration,instructions_2.started,instructions_2_text_1.started,instructions_2_text_2.started,key_resp_2.started,instructions_2.stopped,instructions_loop.key_resp_2.keys,instructions_loop.key_resp_2.rt,instructions_loop.key_resp_2.duration,instructions_3.started,instructions_3_text_1.started,r1_instr3.started,r2_instr3.started,r3_instr3.started,r1_instr3_label.started,r2_instr3_label.started,r3_instr3_label.started,instructions_3_text_3.started,instructions_3_text_4.started,key_resp_3.started,instructions_3.stopped,instructions_loop.key_resp_3.keys,instructions_loop.key_resp_3.rt,instructions_loop.key_resp_3.duration,instructions_4.started,instructions_4_text_1.started,instructions_4_text_3.started,instructions_4_text_2.started,key_resp_4.started,instructions_4.stopped,instructions_loop.key_resp_4.keys,instructions_loop.key_resp_4.rt,instructions_loop.key_resp_4.duration,instructions_5.started,instructions_5_text_1.started,instructions_5_text_2.started,key_resp_5.started,instructions_5.stopped,instructions_loop.key_resp_5.keys,instructions_loop.key_resp_5.rt,instructions_loop.key_resp_5.duration,start_exp.started,start_exp_text.started,key_resp_6.started,start_exp.stopped,key_resp_6.keys,key_resp_6.rt,key_resp_6.duration,h_1_tmp,w_1_tmp,h_2_tmp,w_2_tmp,h_3_tmp,w_3_tmp,config_tmp,config_tmp_1,r_1_x,r_1_y,r_2_x,r_2_y,r_3_x,r_3_y,pre_trial.started,pre_trial.stopped,choice_trial.started,rect_choice.started,r_1.started,r_2.started,r_3.started,r_1_label.started,r_2_label.started,r_3_label.started,prompt.started,choice_trial.stopped,trials.rect_choice.keys,trials.rect_choice.rt,trials.rect_choice.duration,end_block.started,end_block_text.started,end_block.stopped,end.started,end_text.started,key_resp_7.started,end.stopped,key_resp_7.keys,key_resp_7.rt,key_resp_7.duration,debriefing.started,debrief_form.started,end_debrief.started,debriefing.stopped,end_debrief.keys,end_debrief.rt,end_debrief.duration,participant,computer,date,expName,psychopyVersion,frameRate,expStart,
,,,,,,,,,,,,,,,,,,,,,,,,,,,,,,,0.01572871208190918,0.04227948188781738,0.04227948188781738,0.04227948188781738,0.01540374755859375,85.63570237159729,1,[85.59221935272217],[85.59223175048828],0,,,[-77.0],[-512.0],[1],[0],[0],[85.61941814422607],['agree_button'],,,,,,,,,,,,,,,,,,,,,,,,,,,,,,,,,,,,,,,,,,,,,,,,,,,,,,,,,,,,,,,,,,,,,,,,,,,,,,,,,,,,,,,,,,,,,,,,,,,,,,,,,,,,177,3,2025-03-03_14h58.05.497,comp,2024.2.4,60.837094883904435,2025-03-03 14h58.19.485857 -0500,
,,,,,,,,,,,,,,,,,,,,,,,,,,,,,,,,,,,,,,,,,,,,,,,,,,85.63595962524414,85.63599300384521,,,,,,,,,,,,,,,,,,,,,,,,,,,,,,,,,,,,,,,,,,,,,,,,,,,,,,,,,,,,,,,,,,,,,,,,,,,,,,,,,,,,,,,,,,,,,,,,,,,,,,,,,,177,3,2025-03-03_14h58.05.497,comp,2024.2.4,60.837094883904435,2025-03-03 14h58.19.485857 -0500,
,,,,,,,,,,,,,,,,,,,,,,,,,,,,,,,,,,,,,,,,,,,,,,,,,,,,85.63601589202881,85.64935684204102,87.6501977443695,87.63381624221802,,,,,,,,,,,,,,,,,,,,,,,,,,,,,,,,,,,,,,,,,,,,,,,,,,,,,,,,,,,,,,,,,,,,,,,,,,,,,,,,,,,,,,,,,,,,,,,,,,,,,,177,3,2025-03-03_14h58.05.497,comp,2024.2.4,60.837094883904435,2025-03-03 14h58.19.485857 -0500,
0,0,0,,,,,,,,,,,,,,,0,0,0,0,,,,,,,,,87.6501977443695,,,,,,,,,,,,,,,,,,,,,,,,,,,87.63437032699585,87.6501977443695,87.6501977443695,89.1503734588623,91.00146865844727,space,1.8361761569976807,None,91.0015504360199,91.01698112487793,91.01698112487793,92.51682829856873,103.25308728218079,space,10.7275230884552,None,103.25317406654358,103.279855966568,103.279855966568,103.279855966568,103.279855966568,103.279855966568,103.279855966568,103.279855966568,103.279855966568,103.279855966568,104.75403189659119,114.77123785018921,space,9.996490955352783,None,114.77132081985474,114.78959774971008,114.78959774971008,114.78959774971008,116.28493523597717,123.58430171012878,space,7.2852795124053955,None,123.58438754081726,123.59998488426208,123.59998488426208,125.09980964660645,129.53427243232727,space,4.41685938835144,None,129.53438353538513,129.54990100860596,129.54990100860596,132.56729197502136,space,3.004579544067383,None,,,,,,,,,,,,,,,,,,,,,,,,,,,,,,,,,,,,,,,,,,,,,,,177,3,2025-03-03_14h58.05.497,comp,2024.2.4,60.837094883904435,2025-03-03 14h58.19.485857 -0500,
0,0,0,critical,dhw,20.0,2.1,lower,78.0,78.0,133.0,57.0,57.0,133.0,2,12.24014163017273,None,,,,,0,0,0,0,0,0,0,26,132.62652611732483,,,,,,,,,,,,,,,,,,,,,,,,,,,,,,,,,,,,,,,,,,,,,,,,,,,,,,,,,,,,,,,,,,,,,,,,,,,,,,,,,,78.0,78.0,133.0,57.0,57.0,133.0,2.1,2.12,-164,-266,0,-276,191,264,132.61299324035645,132.61303782463074,132.61505722999573,132.62652611732483,132.76987195014954,132.76987195014954,132.76987195014954,132.76987195014954,132.76987195014954,132.76987195014954,132.76987195014954,144.88425517082214,2,12.24014163017273,None,,,,,,,,,,,,,,,,,,177,3,2025-03-03_14h58.05.497,comp,2024.2.4,60.837094883904435,2025-03-03 14h58.19.485857 -0500,
1,1,0,critical,dwh,20.0,2.1,lower,78.0,78.0,57.0,133.0,133.0,57.0,3,10.559152364730835,None,,,,,0,0,0,0,0,1,1,6,144.8996183872223,,,,,,,,,,,,,,,,,,,,,,,,,,,,,,,,,,,,,,,,,,,,,,,,,,,,,,,,,,,,,,,,,,,,,,,,,,,,,,,,,,78.0,78.0,57.0,133.0,133.0,57.0,2.1,2.12,-202,-252,0,-260,191,253,144.8850872516632,144.88512659072876,144.88768911361694,144.8996183872223,145.0499210357666,145.0499210357666,145.0499210357666,145.0499210357666,145.0499210357666,145.0499210357666,145.0499210357666,155.46741652488708,3,10.559152364730835,None,,,,,,,,,,,,,,,,,,177,3,2025-03-03_14h58.05.497,comp,2024.2.4,60.837094883904435,2025-03-03 14h58.19.485857 -0500,
2,2,0,critical,dhw,35.0,4.0,upper,127.0,127.0,200.0,125.0,125.0,200.0,3,8.465410232543945,None,,,,,0,0,0,0,0,2,2,53,155.4831235408783,,,,,,,,,,,,,,,,,,,,,,,,,,,,,,,,,,,,,,,,,,,,,,,,,,,,,,,,,,,,,,,,,,,,,,,,,,,,,,,,,,127.0,127.0,200.0,125.0,125.0,200.0,4.0,4.2,-222,-18,0,-285,258,-7,155.4682309627533,155.4682698249817,155.47056937217712,155.4831235408783,155.63321256637573,155.63321256637573,155.63321256637573,155.63321256637573,155.63321256637573,155.63321256637573,155.63321256637573,163.95133900642395,3,8.465410232543945,None,,,,,,,,,,,,,,,,,,177,3,2025-03-03_14h58.05.497,comp,2024.2.4,60.837094883904435,2025-03-03 14h58.19.485857 -0500,
3,3,0,filler_square,None,None,None,None,None,None,None,None,None,None,3,3.4354214668273926,None,,,,,0,0,0,0,0,3,3,205,163.96646285057068,,,,,,,,,,,,,,,,,,,,,,,,,,,,,,,,,,,,,,,,,,,,,,,,,,,,,,,,,,,,,,,,,,,,,,,,,,,,,,,,,,89.16357315011984,80.55829272923633,60.48792133982522,92.95731241052039,101.04610967877086,101.04610967877086,2.2,2.22,-183,287,0,-262,193,-287,163.95234751701355,163.9523890018463,163.9548852443695,163.96646285057068,164.1162347793579,164.1162347793579,164.1162347793579,164.1162347793579,164.1162347793579,164.1162347793579,164.1162347793579,167.41734886169434,3,3.4354214668273926,None,,,,,,,,,,,,,,,,,,177,3,2025-03-03_14h58.05.497,comp,2024.2.4,60.837094883904435,2025-03-03 14h58.19.485857 -0500,
4,4,0,catch,None,None,None,None,None,None,None,None,None,None,2,2.768986701965332,None,,,,,0,0,0,0,0,4,4,126,167.43285489082336,,,,,,,,,,,,,,,,,,,,,,,,,,,,,,,,,,,,,,,,,,,,,,,,,,,,,,,,,,,,,,,,,,,,,,,,,,,,,,,,,,101,89,128,197,75,115,2.1,2.11,-239,281,0,285,252,-250,167.41841411590576,167.4184696674347,167.42078113555908,167.43285489082336,167.58302688598633,167.58302688598633,167.58302688598633,167.58302688598633,167.58302688598633,167.58302688598633,167.58302688598633,170.21777367591858,2,2.768986701965332,None,,,,,,,,,,,,,,,,,,177,3,2025-03-03_14h58.05.497,comp,2024.2.4,60.837094883904435,2025-03-03 14h58.19.485857 -0500,
5,5,0,critical,whd,20.0,1.0,upper,125.0,200.0,200.0,125.0,141.0,141.0,2,5.145686864852905,None,,,,,0,0,0,0,0,5,5,91,170.23288130760193,,,,,,,,,,,,,,,,,,,,,,,,,,,,,,,,,,,,,,,,,,,,,,,,,,,,,,,,,,,,,,,,,,,,,,,,,,,,,,,,,,125.0,200.0,200.0,125.0,141.0,141.0,1.0,1.2,-258,-14,0,5,229,11,170.21856713294983,170.21860790252686,170.22071886062622,170.23288130760193,170.3831799030304,170.3831799030304,170.3831799030304,170.3831799030304,170.3831799030304,170.3831799030304,170.3831799030304,175.3842740058899,2,5.145686864852905,None,,,,,,,,,,,,,,,,,,177,3,2025-03-03_14h58.05.497,comp,2024.2.4,60.837094883904435,2025-03-03 14h58.19.485857 -0500,
6,6,0,critical,hdw,35.0,2.1,upper,200.0,125.0,127.0,127.0,125.0,200.0,3,5.178729057312012,None,,,,,0,0,0,0,0,6,6,21,175.39973092079163,,,,,,,,,,,,,,,,,,,,,,,,,,,,,,,,,,,,,,,,,,,,,,,,,,,,,,,,,,,,,,,,,,,,,,,,,,,,,,,,,,200.0,125.0,127.0,127.0,125.0,200.0,2.1,2.11,-222,255,0,276,260,-269,175.38510012626648,175.38514256477356,175.38782477378845,175.39973092079163,175.5498490333557,175.5498490333557,175.5498490333557,175.5498490333557,175.5498490333557,175.5498490333557,175.5498490333557,180.58415985107422,3,5.178729057312012,None,,,,,,,,,,,,,,,,,,177,3,2025-03-03_14h58.05.497,comp,2024.2.4,60.837094883904435,2025-03-03 14h58.19.485857 -0500,
7,7,0,critical,hwd,35.0,1.0,lower,133.0,57.0,57.0,133.0,70.0,70.0,1,3.7946736812591553,None,,,,,0,0,0,0,0,7,7,96,180.599778175354,,,,,,,,,,,,,,,,,,,,,,,,,,,,,,,,,,,,,,,,,,,,,,,,,,,,,,,,,,,,,,,,,,,,,,,,,,,,,,,,,,133.0,57.0,57.0,133.0,70.0,70.0,1.0,1.1,-671,290,-480,290,-282,283,180.58493065834045,180.58497047424316,180.58741354942322,180.599778175354,180.74956154823303,180.74956154823303,180.74956154823303,180.74956154823303,180.74956154823303,180.74956154823303,180.74956154823303,184.40065622329712,1,3.7946736812591553,None,,,,,,,,,,,,,,,,,,177,3,2025-03-03_14h58.05.497,comp,2024.2.4,60.837094883904435,2025-03-03 14h58.19.485857 -0500,
8,8,0,critical,hwd,35.0,4.0,lower,133.0,57.0,57.0,133.0,70.0,70.0,1,5.746976375579834,None,,,,,0,0,0,0,0,8,8,100,184.4162254333496,,,,,,,,,,,,,,,,,,,,,,,,,,,,,,,,,,,,,,,,,,,,,,,,,,,,,,,,,,,,,,,,,,,,,,,,,,,,,,,,,,133.0,57.0,57.0,133.0,70.0,70.0,4.0,4.2,-191,-19,0,-254,198,19,184.40142703056335,184.40148258209229,184.40385174751282,184.4162254333496,184.5660948753357,184.5660948753357,184.5660948753357,184.5660948753357,184.5660948753357,184.5660948753357,184.5660948753357,190.1673948764801,1,5.746976375579834,None,,,,,,,,,,,,,,,,,,177,3,2025-03-03_14h58.05.497,comp,2024.2.4,60.837094883904435,2025-03-03 14h58.19.485857 -0500,
9,9,0,critical,hwd,20.0,2.1,lower,133.0,57.0,57.0,133.0,78.0,78.0,1,4.091736316680908,None,,,,,0,0,0,0,0,9,9,42,190.18291997909546,,,,,,,,,,,,,,,,,,,,,,,,,,,,,,,,,,,,,,,,,,,,,,,,,,,,,,,,,,,,,,,,,,,,,,,,,,,,,,,,,,133.0,57.0,57.0,133.0,78.0,78.0,2.1,2.11,-191,273,0,268,202,-269,190.1681661605835,190.168203830719,190.17035961151123,190.18291997909546,190.33270692825317,190.33270692825317,190.33270692825317,190.33270692825317,190.33270692825317,190.33270692825317,190.33270692825317,194.28383445739746,1,4.091736316680908,None,,,,,,,,,,,,,,,,,,177,3,2025-03-03_14h58.05.497,comp,2024.2.4,60.837094883904435,2025-03-03 14h58.19.485857 -0500,
10,10,0,critical,dhw,35.0,3.0,upper,127.0,127.0,200.0,125.0,125.0,200.0,2,9.566761255264282,None,,,,,0,0,0,0,0,10,10,51,194.29977536201477,,,,,,,,,,,,,,,,,,,,,,,,,,,,,,,,,,,,,,,,,,,,,,,,,,,,,,,,,,,,,,,,,,,,,,,,,,,,,,,,,,127.0,127.0,200.0,125.0,125.0,200.0,3.0,3.2,-222,-276,0,-2,258,260,194.2846736907959,194.28471565246582,194.28718447685242,194.29977536201477,194.44962668418884,194.44962668418884,194.44962668418884,194.44962668418884,194.44962668418884,194.44962668418884,194.44962668418884,203.88409781455994,2,9.566761255264282,None,,,,,,,,,,,,,,,,,,177,3,2025-03-03_14h58.05.497,comp,2024.2.4,60.837094883904435,2025-03-03 14h58.19.485857 -0500,
11,11,0,critical,hdw,20.0,2.1,lower,133.0,57.0,78.0,78.0,57.0,133.0,3,3.454571485519409,None,,,,,0,0,0,0,0,11,11,46,203.89934968948364,,,,,,,,,,,,,,,,,,,,,,,,,,,,,,,,,,,,,,,,,,,,,,,,,,,,,,,,,,,,,,,,,,,,,,,,,,,,,,,,,,133.0,57.0,78.0,78.0,57.0,133.0,2.1,2.12,-164,-288,0,-264,202,283,203.88495087623596,203.88499331474304,203.88747191429138,203.89934968948364,204.0494773387909,204.0494773387909,204.0494773387909,204.0494773387909,204.0494773387909,204.0494773387909,204.0494773387909,207.36716961860657,3,3.454571485519409,None,,,,,,,,,,,,,,,,,,177,3,2025-03-03_14h58.05.497,comp,2024.2.4,60.837094883904435,2025-03-03 14h58.19.485857 -0500,
12,12,0,critical,dwh,35.0,1.0,upper,127.0,127.0,125.0,200.0,200.0,125.0,2,10.050920486450195,None,,,,,0,0,0,0,0,12,12,61,207.3824987411499,,,,,,,,,,,,,,,,,,,,,,,,,,,,,,,,,,,,,,,,,,,,,,,,,,,,,,,,,,,,,,,,,,,,,,,,,,,,,,,,,,127.0,127.0,125.0,200.0,200.0,125.0,1.0,1.3,220,-263,480,-262,738,-258,207.3679919242859,207.36803269386292,207.37068128585815,207.3824987411499,207.5328061580658,207.5328061580658,207.5328061580658,207.5328061580658,207.5328061580658,207.5328061580658,207.5328061580658,217.4505844116211,2,10.050920486450195,None,,,,,,,,,,,,,,,,,,177,3,2025-03-03_14h58.05.497,comp,2024.2.4,60.837094883904435,2025-03-03 14h58.19.485857 -0500,
13,13,0,filler_square,None,None,None,None,None,None,None,None,None,None,2,2.7603912353515625,None,,,,,0,0,0,0,0,13,13,206,217.46594047546387,,,,,,,,,,,,,,,,,,,,,,,,,,,,,,,,,,,,,,,,,,,,,,,,,,,,,,,,,,,,,,,,,,,,,,,,,,,,,,,,,,87.37161635168422,74.36837345849747,189.57898227823677,189.57898227823677,177.69304628123308,138.79462165616437,2.2,2.22,-228,251,0,-289,260,-276,217.4515597820282,217.4516019821167,217.45489311218262,217.46594047546387,217.61621856689453,217.61621856689453,217.61621856689453,217.61621856689453,217.61621856689453,217.61621856689453,217.61621856689453,220.2339780330658,2,2.7603912353515625,None,,,,,,,,,,,,,,,,,,177,3,2025-03-03_14h58.05.497,comp,2024.2.4,60.837094883904435,2025-03-03 14h58.19.485857 -0500,
14,14,0,filler_square,None,None,None,None,None,None,None,None,None,None,3,4.16059136390686,None,,,,,0,0,0,0,0,14,14,183,220.24951171875,,,,,,,,,,,,,,,,,,,,,,,,,,,,,,,,,,,,,,,,,,,,,,,,,,,,,,,,,,,,,,,,,,,,,,,,,,,,,,,,,,61.77146167415532,59.54133350864961,58.50610791707154,66.36016207956966,66.5031360476468,66.5031360476468,4.0,4.2,-159,1,0,-254,162,13,220.2349545955658,220.23499369621277,220.23745465278625,220.24951171875,220.39909148216248,220.39909148216248,220.39909148216248,220.39909148216248,220.39909148216248,220.39909148216248,220.39909148216248,224.41690325737,3,4.16059136390686,None,,,,,,,,,,,,,,,,,,177,3,2025-03-03_14h58.05.497,comp,2024.2.4,60.837094883904435,2025-03-03 14h58.19.485857 -0500,
15,15,0,filler_square,None,None,None,None,None,None,None,None,None,None,1,5.699387311935425,None,,,,,0,0,0,0,0,15,15,179,224.43272399902344,,,,,,,,,,,,,,,,,,,,,,,,,,,,,,,,,,,,,,,,,,,,,,,,,,,,,,,,,,,,,,,,,,,,,,,,,,,,,,,,,,182.1707814586843,182.1707814586843,109.95883386246834,66.24665762502526,130.204619612115,77.94868756621497,3.0,3.2,-220,-281,0,15,168,289,224.41782474517822,224.41786527633667,224.42023539543152,224.43272399902344,224.58270382881165,224.58270382881165,224.58270382881165,224.58270382881165,224.58270382881165,224.58270382881165,224.58270382881165,230.15043258666992,1,5.699387311935425,None,,,,,,,,,,,,,,,,,,177,3,2025-03-03_14h58.05.497,comp,2024.2.4,60.837094883904435,2025-03-03 14h58.19.485857 -0500,
16,16,0,critical,hdw,20.0,2.1,upper,200.0,125.0,141.0,141.0,125.0,200.0,3,5.3554792404174805,None,,,,,0,0,0,0,0,16,16,23,230.16570806503296,,,,,,,,,,,,,,,,,,,,,,,,,,,,,,,,,,,,,,,,,,,,,,,,,,,,,,,,,,,,,,,,,,,,,,,,,,,,,,,,,,200.0,125.0,141.0,141.0,125.0,200.0,2.1,2.11,-229,263,0,251,266,-258,230.1512529850006,230.1512942314148,230.15360236167908,230.16570806503296,230.31605076789856,230.31605076789856,230.31605076789856,230.31605076789856,230.31605076789856,230.31605076789856,230.31605076789856,235.53406500816345,3,5.3554792404174805,None,,,,,,,,,,,,,,,,,,177,3,2025-03-03_14h58.05.497,comp,2024.2.4,60.837094883904435,2025-03-03 14h58.19.485857 -0500,
17,17,0,critical,hwd,35.0,1.0,upper,200.0,125.0,125.0,200.0,127.0,127.0,2,6.987950325012207,None,,,,,0,0,0,0,0,17,17,97,235.54915690422058,,,,,,,,,,,,,,,,,,,,,,,,,,,,,,,,,,,,,,,,,,,,,,,,,,,,,,,,,,,,,,,,,,,,,,,,,,,,,,,,,,200.0,125.0,125.0,200.0,127.0,127.0,1.0,1.1,-738,284,-480,266,-220,287,235.53497743606567,235.53501868247986,235.5371823310852,235.54915690422058,235.69958448410034,235.69958448410034,235.69958448410034,235.69958448410034,235.69958448410034,235.69958448410034,235.69958448410034,242.55053544044495,2,6.987950325012207,None,,,,,,,,,,,,,,,,,,177,3,2025-03-03_14h58.05.497,comp,2024.2.4,60.837094883904435,2025-03-03 14h58.19.485857 -0500,
18,18,0,critical,hdw,20.0,3.0,lower,133.0,57.0,78.0,78.0,57.0,133.0,1,5.683974266052246,None,,,,,0,0,0,0,0,18,18,116,242.56564497947693,,,,,,,,,,,,,,,,,,,,,,,,,,,,,,,,,,,,,,,,,,,,,,,,,,,,,,,,,,,,,,,,,,,,,,,,,,,,,,,,,,133.0,57.0,78.0,78.0,57.0,133.0,3.0,3.1,-164,278,0,-17,202,-253,242.55129957199097,242.5513391494751,242.55334329605103,242.56564497947693,242.7157599925995,242.7157599925995,242.7157599925995,242.7157599925995,242.7157599925995,242.7157599925995,242.7157599925995,248.26682591438293,1,5.683974266052246,None,,,,,,,,,,,,,,,,,,177,3,2025-03-03_14h58.05.497,comp,2024.2.4,60.837094883904435,2025-03-03 14h58.19.485857 -0500,
19,19,0,critical,dwh,20.0,2.1,upper,141.0,141.0,125.0,200.0,200.0,125.0,2,7.2335968017578125,None,,,,,0,0,0,0,0,19,19,7,248.28232264518738,,,,,,,,,,,,,,,,,,,,,,,,,,,,,,,,,,,,,,,,,,,,,,,,,,,,,,,,,,,,,,,,,,,,,,,,,,,,,,,,,,141.0,141.0,125.0,200.0,200.0,125.0,2.1,2.11,-266,252,0,270,258,-268,248.26761388778687,248.267653465271,248.27005410194397,248.28232264518738,248.43264198303223,248.43264198303223,248.43264198303223,248.43264198303223,248.43264198303223,248.43264198303223,248.43264198303223,255.51731276512146,2,7.2335968017578125,None,,,,,,,,,,,,,,,,,,177,3,2025-03-03_14h58.05.497,comp,2024.2.4,60.837094883904435,2025-03-03 14h58.19.485857 -0500,
20,20,0,filler_random,None,None,None,None,None,None,None,None,None,None,1,3.7005746364593506,None,,,,,0,0,0,0,0,20,20,143,255.53256011009216,,,,,,,,,,,,,,,,,,,,,,,,,,,,,,,,,,,,,,,,,,,,,,,,,,,,,,,,,,,,,,,,,,,,,,,,,,,,,,,,,,175.52061329257387,154.16892895719852,126.75919520880998,104.29505485525846,87.42188511659376,143.54216245442788,2.2,2.22,-225,269,0,-254,220,-276,255.5182237625122,255.5182647705078,255.5204164981842,255.53256011009216,255.6825132369995,255.6825132369995,255.6825132369995,255.6825132369995,255.6825132369995,255.6825132369995,255.6825132369995,259.25029277801514,1,3.7005746364593506,None,,,,,,,,,,,,,,,,,,177,3,2025-03-03_14h58.05.497,comp,2024.2.4,60.837094883904435,2025-03-03 14h58.19.485857 -0500,
21,21,0,filler_random,None,None,None,None,None,None,None,None,None,None,3,1.9284172058105469,None,,,,,0,0,0,0,0,21,21,134,259.2655096054077,,,,,,,,,,,,,,,,,,,,,,,,,,,,,,,,,,,,,,,,,,,,,,,,,,,,,,,,,,,,,,,,,,,,,,,,,,,,,,,,,,72.10036612733914,65.49406969287213,101.2010334232119,75.3785450525504,184.42482480622303,167.00562801170247,4.0,4.1,-166,-277,0,13,217,-280,259.25121116638184,259.25125074386597,259.25352454185486,259.2655096054077,259.415819644928,259.415819644928,259.415819644928,259.415819644928,259.415819644928,259.415819644928,259.415819644928,261.20011496543884,3,1.9284172058105469,None,,,,,,,,,,,,,,,,,,177,3,2025-03-03_14h58.05.497,comp,2024.2.4,60.837094883904435,2025-03-03 14h58.19.485857 -0500,
22,22,0,catch,None,None,None,None,None,None,None,None,None,None,1,2.017354965209961,None,,,,,0,0,0,0,0,22,22,121,261.21575689315796,,,,,,,,,,,,,,,,,,,,,,,,,,,,,,,,,,,,,,,,,,,,,,,,,,,,,,,,,,,,,,,,,,,,,,,,,,,,,,,,,,200,125,132,58,102,88,1.0,1.3,292,-268,480,-258,649,-259,261.2011911869049,261.20123386383057,261.20383191108704,261.21575689315796,261.36571192741394,261.36571192741394,261.36571192741394,261.36571192741394,261.36571192741394,261.36571192741394,261.36571192741394,263.25013399124146,1,2.017354965209961,None,,,,,,,,,,,,,,,,,,177,3,2025-03-03_14h58.05.497,comp,2024.2.4,60.837094883904435,2025-03-03 14h58.19.485857 -0500,
23,23,0,critical,hdw,20.0,3.0,upper,200.0,125.0,141.0,141.0,125.0,200.0,3,5.033931016921997,None,,,,,0,0,0,0,0,23,23,117,263.26555156707764,,,,,,,,,,,,,,,,,,,,,,,,,,,,,,,,,,,,,,,,,,,,,,,,,,,,,,,,,,,,,,,,,,,,,,,,,,,,,,,,,,200.0,125.0,141.0,141.0,125.0,200.0,3.0,3.1,-229,285,0,-8,266,-258,263.2509651184082,263.25100564956665,263.2535808086395,263.26555156707764,263.4159777164459,263.4159777164459,263.4159777164459,263.4159777164459,263.4159777164459,263.4159777164459,263.4159777164459,268.31688833236694,3,5.033931016921997,None,,,,,,,,,,,,,,,,,,177,3,2025-03-03_14h58.05.497,comp,2024.2.4,60.837094883904435,2025-03-03 14h58.19.485857 -0500,
24,24,0,filler_square,None,None,None,None,None,None,None,None,None,None,1,2.5672249794006348,None,,,,,0,0,0,0,0,24,24,197,268.3322448730469,,,,,,,,,,,,,,,,,,,,,,,,,,,,,,,,,,,,,,,,,,,,,,,,,,,,,,,,,,,,,,,,,,,,,,,,,,,,,,,,,,88.80310088127722,88.80310088127722,88.69711093122103,73.21570354161753,68.35649006369673,57.41713712172773,2.1,2.11,-177,255,0,281,161,-276,268.3178827762604,268.31792545318604,268.3203389644623,268.3322448730469,268.48225569725037,268.48225569725037,268.48225569725037,268.48225569725037,268.48225569725037,268.48225569725037,268.48225569725037,270.9166693687439,1,2.5672249794006348,None,,,,,,,,,,,,,,,,,,177,3,2025-03-03_14h58.05.497,comp,2024.2.4,60.837094883904435,2025-03-03 14h58.19.485857 -0500,
25,25,0,critical,wdh,35.0,1.0,lower,57.0,133.0,70.0,70.0,133.0,57.0,3,7.277636766433716,None,,,,,0,0,0,0,0,25,25,72,270.93219232559204,,,,,,,,,,,,,,,,,,,,,,,,,,,,,,,,,,,,,,,,,,,,,,,,,,,,,,,,,,,,,,,,,,,,,,,,,,,,,,,,,,57.0,133.0,70.0,70.0,133.0,57.0,1.0,1.2,-198,16,0,7,160,-11,270.91745376586914,270.9174964427948,270.9198651313782,270.93219232559204,271.0822353363037,271.0822353363037,271.0822353363037,271.0822353363037,271.0822353363037,271.0822353363037,271.0822353363037,278.21675300598145,3,7.277636766433716,None,,,,,,,,,,,,,,,,,,177,3,2025-03-03_14h58.05.497,comp,2024.2.4,60.837094883904435,2025-03-03 14h58.19.485857 -0500,
26,26,0,critical,dwh,20.0,3.0,upper,141.0,141.0,125.0,200.0,200.0,125.0,3,4.833632946014404,None,,,,,0,0,0,0,0,26,26,69,278.23241209983826,,,,,,,,,,,,,,,,,,,,,,,,,,,,,,,,,,,,,,,,,,,,,,,,,,,,,,,,,,,,,,,,,,,,,,,,,,,,,,,,,,141.0,141.0,125.0,200.0,200.0,125.0,3.0,3.1,-266,253,0,-13,258,-286,278.21757912635803,278.2176196575165,278.21979093551636,278.23241209983826,278.38236808776855,278.38236808776855,278.38236808776855,278.38236808776855,278.38236808776855,278.38236808776855,278.38236808776855,283.08352279663086,3,4.833632946014404,None,,,,,,,,,,,,,,,,,,177,3,2025-03-03_14h58.05.497,comp,2024.2.4,60.837094883904435,2025-03-03 14h58.19.485857 -0500,
27,27,0,filler_random,None,None,None,None,None,None,None,None,None,None,2,2.102322816848755,None,,,,,0,0,0,0,0,27,27,142,283.0986747741699,,,,,,,,,,,,,,,,,,,,,,,,,,,,,,,,,,,,,,,,,,,,,,,,,,,,,,,,,,,,,,,,,,,,,,,,,,,,,,,,,,187.63937153173336,64.96396944906465,137.03921779463712,186.57763296051232,177.09991312396824,76.16481755714413,2.2,2.22,-222,282,0,-261,227,-282,283.0844647884369,283.0845081806183,283.0868318080902,283.0986747741699,283.24890875816345,283.24890875816345,283.24890875816345,283.24890875816345,283.24890875816345,283.24890875816345,283.24890875816345,285.2166748046875,2,2.102322816848755,None,,,,,,,,,,,,,,,,,,177,3,2025-03-03_14h58.05.497,comp,2024.2.4,60.837094883904435,2025-03-03 14h58.19.485857 -0500,
28,28,0,critical,dwh,20.0,2.1,lower,78.0,78.0,57.0,133.0,133.0,57.0,3,5.401015996932983,None,,,,,0,0,0,0,0,28,28,30,285.2320005893707,,,,,,,,,,,,,,,,,,,,,,,,,,,,,,,,,,,,,,,,,,,,,,,,,,,,,,,,,,,,,,,,,,,,,,,,,,,,,,,,,,78.0,78.0,57.0,133.0,133.0,57.0,2.1,2.11,-202,284,0,268,191,-262,285.2174770832062,285.2175180912018,285.21990156173706,285.2320005893707,285.38214349746704,285.38214349746704,285.38214349746704,285.38214349746704,285.38214349746704,285.38214349746704,285.38214349746704,290.6499037742615,3,5.401015996932983,None,,,,,,,,,,,,,,,,,,177,3,2025-03-03_14h58.05.497,comp,2024.2.4,60.837094883904435,2025-03-03 14h58.19.485857 -0500,
29,29,0,critical,whd,20.0,2.1,upper,125.0,200.0,200.0,125.0,141.0,141.0,2,2.8337934017181396,None,,,,,0,0,0,0,0,29,29,39,290.665372133255,,,,,,,,,,,,,,,,,,,,,,,,,,,,,,,,,,,,,,,,,,,,,,,,,,,,,,,,,,,,,,,,,,,,,,,,,,,,,,,,,,125.0,200.0,200.0,125.0,141.0,141.0,2.1,2.11,-258,269,0,265,229,-290,290.6507260799408,290.6507670879364,290.6532440185547,290.665372133255,290.815705537796,290.815705537796,290.815705537796,290.815705537796,290.815705537796,290.815705537796,290.815705537796,293.51685905456543,2,2.8337934017181396,None,,,,,,,,,,,,,,,,,,177,3,2025-03-03_14h58.05.497,comp,2024.2.4,60.837094883904435,2025-03-03 14h58.19.485857 -0500,
30,30,0,filler_square,None,None,None,None,None,None,None,None,None,None,1,6.093744993209839,None,,,,,0,0,0,0,0,30,30,180,293.5320384502411,,,,,,,,,,,,,,,,,,,,,,,,,,,,,,,,,,,,,,,,,,,,,,,,,,,,,,,,,,,,,,,,,,,,,,,,,,,,,,,,,,183.34875601018842,183.34875601018842,173.528235105399,166.33973606571396,95.26485365402505,153.68582207240075,4.0,4.1,-271,-263,0,5,256,-273,293.51780223846436,293.5178427696228,293.5202534198761,293.5320384502411,293.6823732852936,293.6823732852936,293.6823732852936,293.6823732852936,293.6823732852936,293.6823732852936,293.6823732852936,299.63343930244446,1,6.093744993209839,None,,,,,,,,,,,,,,,,,,177,3,2025-03-03_14h58.05.497,comp,2024.2.4,60.837094883904435,2025-03-03 14h58.19.485857 -0500,
31,31,0,catch,None,None,None,None,None,None,None,None,None,None,3,10.152110815048218,None,,,,,0,0,0,0,0,31,31,122,299.6488745212555,,,,,,,,,,,,,,,,,,,,,,,,,,,,,,,,,,,,,,,,,,,,,,,,,,,,,,,,,,,,,,,,,,,,,,,,,,,,,,,,,,115,75,124,66,182,143,2.1,2.11,-166,258,0,271,200,-268,299.6345193386078,299.634562253952,299.63688683509827,299.6488745212555,299.79879546165466,299.79879546165466,299.79879546165466,299.79879546165466,299.79879546165466,299.79879546165466,299.79879546165466,309.8164074420929,3,10.152110815048218,None,,,,,,,,,,,,,,,,,,177,3,2025-03-03_14h58.05.497,comp,2024.2.4,60.837094883904435,2025-03-03 14h58.19.485857 -0500,
32,32,0,critical,dwh,20.0,3.0,lower,78.0,78.0,57.0,133.0,133.0,57.0,3,3.672821044921875,None,,,,,0,0,0,0,0,32,32,68,309.83183574676514,,,,,,,,,,,,,,,,,,,,,,,,,,,,,,,,,,,,,,,,,,,,,,,,,,,,,,,,,,,,,,,,,,,,,,,,,,,,,,,,,,78.0,78.0,57.0,133.0,133.0,57.0,3.0,3.1,-202,286,0,14,191,-272,309.817191362381,309.81723284721375,309.81932044029236,309.83183574676514,309.98214077949524,309.98214077949524,309.98214077949524,309.98214077949524,309.98214077949524,309.98214077949524,309.98214077949524,313.51646399497986,3,3.672821044921875,None,,,,,,,,,,,,,,,,,,177,3,2025-03-03_14h58.05.497,comp,2024.2.4,60.837094883904435,2025-03-03 14h58.19.485857 -0500,
33,33,0,filler_random,None,None,None,None,None,None,None,None,None,None,3,1.7506060600280762,None,,,,,0,0,0,0,0,33,33,136,313.53187584877014,,,,,,,,,,,,,,,,,,,,,,,,,,,,,,,,,,,,,,,,,,,,,,,,,,,,,,,,,,,,,,,,,,,,,,,,,,,,,,,,,,143.87049539822658,136.6132479790792,116.34358141168673,143.43124536727842,193.70646297441763,190.9607009818986,2.1,2.11,-236,271,0,273,263,-263,313.51738262176514,313.5174231529236,313.5197832584381,313.53187584877014,313.68256855010986,313.68256855010986,313.68256855010986,313.68256855010986,313.68256855010986,313.68256855010986,313.68256855010986,315.30011200904846,3,1.7506060600280762,None,,,,,,,,,,,,,,,,,,177,3,2025-03-03_14h58.05.497,comp,2024.2.4,60.837094883904435,2025-03-03 14h58.19.485857 -0500,
34,34,0,critical,dhw,35.0,1.0,upper,127.0,127.0,200.0,125.0,125.0,200.0,3,3.9423601627349854,None,,,,,0,0,0,0,0,34,34,49,315.3152747154236,,,,,,,,,,,,,,,,,,,,,,,,,,,,,,,,,,,,,,,,,,,,,,,,,,,,,,,,,,,,,,,,,,,,,,,,,,,,,,,,,,127.0,127.0,200.0,125.0,125.0,200.0,1.0,1.2,-222,17,0,-3,258,-17,315.30090498924255,315.30094504356384,315.30346870422363,315.3152747154236,315.46547174453735,315.46547174453735,315.46547174453735,315.46547174453735,315.46547174453735,315.46547174453735,315.46547174453735,319.266569852829,3,3.9423601627349854,None,,,,,,,,,,,,,,,,,,177,3,2025-03-03_14h58.05.497,comp,2024.2.4,60.837094883904435,2025-03-03 14h58.19.485857 -0500,
35,35,0,filler_square,None,None,None,None,None,None,None,None,None,None,3,1.3594462871551514,None,,,,,0,0,0,0,0,35,35,172,319.28213453292847,,,,,,,,,,,,,,,,,,,,,,,,,,,,,,,,,,,,,,,,,,,,,,,,,,,,,,,,,,,,,,,,,,,,,,,,,,,,,,,,,,100.53924871754239,87.66084970393621,124.72593743193845,96.90548751654964,145.0363733826792,145.0363733826792,4.0,4.1,-188,-273,0,-11,217,-273,319.2675654888153,319.26760697364807,319.2697455883026,319.28213453292847,319.4321413040161,319.4321413040161,319.4321413040161,319.4321413040161,319.4321413040161,319.4321413040161,319.4321413040161,320.64982318878174,3,1.3594462871551514,None,,,,,,,,,,,,,,,,,,177,3,2025-03-03_14h58.05.497,comp,2024.2.4,60.837094883904435,2025-03-03 14h58.19.485857 -0500,
36,36,0,critical,wdh,35.0,4.0,lower,57.0,133.0,70.0,70.0,133.0,57.0,3,3.0085086822509766,None,,,,,0,0,0,0,0,36,36,76,320.66532254219055,,,,,,,,,,,,,,,,,,,,,,,,,,,,,,,,,,,,,,,,,,,,,,,,,,,,,,,,,,,,,,,,,,,,,,,,,,,,,,,,,,57.0,133.0,70.0,70.0,133.0,57.0,4.0,4.2,-198,4,0,-251,160,17,320.65066385269165,320.6507043838501,320.6531665325165,320.66532254219055,320.8152515888214,320.8152515888214,320.8152515888214,320.8152515888214,320.8152515888214,320.8152515888214,320.8152515888214,323.68454217910767,3,3.0085086822509766,None,,,,,,,,,,,,,,,,,,177,3,2025-03-03_14h58.05.497,comp,2024.2.4,60.837094883904435,2025-03-03 14h58.19.485857 -0500,
37,37,0,filler_square,None,None,None,None,None,None,None,None,None,None,1,1.2927358150482178,None,,,,,0,0,0,0,0,37,37,187,323.70073652267456,,,,,,,,,,,,,,,,,,,,,,,,,,,,,,,,,,,,,,,,,,,,,,,,,,,,,,,,,,,,,,,,,,,,,,,,,,,,,,,,,,187.7093106736943,187.7093106736943,74.47398412299125,134.31342609838646,96.7112924195259,144.26974008563417,1.0,1.2,-257,-3,0,6,235,20,323.68543553352356,323.6866817474365,323.68917417526245,323.70073652267456,323.8488435745239,323.8488435745239,323.8488435745239,323.8488435745239,323.8488435745239,323.8488435745239,323.8488435745239,324.99977135658264,1,1.2927358150482178,None,,,,,,,,,,,,,,,,,,177,3,2025-03-03_14h58.05.497,comp,2024.2.4,60.837094883904435,2025-03-03 14h58.19.485857 -0500,
38,38,0,critical,whd,20.0,1.0,lower,57.0,133.0,133.0,57.0,78.0,78.0,2,4.05000376701355,None,,,,,0,0,0,0,0,38,38,90,325.01555037498474,,,,,,,,,,,,,,,,,,,,,,,,,,,,,,,,,,,,,,,,,,,,,,,,,,,,,,,,,,,,,,,,,,,,,,,,,,,,,,,,,,57.0,133.0,133.0,57.0,78.0,78.0,1.0,1.2,-191,-16,0,-19,164,13,325.00057554244995,325.0006148815155,325.0030496120453,325.01555037498474,325.16514229774475,325.16514229774475,325.16514229774475,325.16514229774475,325.16514229774475,325.16514229774475,325.16514229774475,329.06669545173645,2,4.05000376701355,None,,,,,,,,,,,,,,,,,,177,3,2025-03-03_14h58.05.497,comp,2024.2.4,60.837094883904435,2025-03-03 14h58.19.485857 -0500,
39,39,0,critical,wdh,20.0,3.0,upper,125.0,200.0,141.0,141.0,200.0,125.0,1,3.4385671615600586,None,,,,,0,0,0,0,0,39,39,81,329.0819664001465,,,,,,,,,,,,,,,,,,,,,,,,,,,,,,,,,,,,,,,,,,,,,,,,,,,,,,,,,,,,,,,,,,,,,,,,,,,,,,,,,,125.0,200.0,141.0,141.0,200.0,125.0,3.0,3.1,-266,280,0,-14,229,-285,329.0676257610321,329.06768131256104,329.070276260376,329.0819664001465,329.23226499557495,329.23226499557495,329.23226499557495,329.23226499557495,329.23226499557495,329.23226499557495,329.23226499557495,332.5333569049835,1,3.4385671615600586,None,,,,,,,,,,,,,,,,,,177,3,2025-03-03_14h58.05.497,comp,2024.2.4,60.837094883904435,2025-03-03 14h58.19.485857 -0500,
40,40,0,critical,dhw,20.0,1.0,upper,141.0,141.0,200.0,125.0,125.0,200.0,2,3.7170848846435547,None,,,,,0,0,0,0,0,40,40,55,332.54851937294006,,,,,,,,,,,,,,,,,,,,,,,,,,,,,,,,,,,,,,,,,,,,,,,,,,,,,,,,,,,,,,,,,,,,,,,,,,,,,,,,,,141.0,141.0,200.0,125.0,125.0,200.0,1.0,1.2,-229,-8,0,-8,258,11,332.53415966033936,332.53420209884644,332.5367271900177,332.54851937294006,332.6988549232483,332.6988549232483,332.6988549232483,332.6988549232483,332.6988549232483,332.6988549232483,332.6988549232483,336.2832314968109,2,3.7170848846435547,None,,,,,,,,,,,,,,,,,,177,3,2025-03-03_14h58.05.497,comp,2024.2.4,60.837094883904435,2025-03-03 14h58.19.485857 -0500,
41,41,0,filler_square,None,None,None,None,None,None,None,None,None,None,1,2.8546500205993652,None,,,,,0,0,0,0,0,41,41,196,336.29851841926575,,,,,,,,,,,,,,,,,,,,,,,,,,,,,,,,,,,,,,,,,,,,,,,,,,,,,,,,,,,,,,,,,,,,,,,,,,,,,,,,,,74.50862986117163,74.50862986117163,66.63718378840854,71.94351360303975,60.19507822935102,67.00069174120054,2.2,2.21,-169,-257,0,256,165,260,336.28421545028687,336.28425669670105,336.28679060935974,336.29851841926575,336.4483723640442,336.4483723640442,336.4483723640442,336.4483723640442,336.4483723640442,336.4483723640442,336.4483723640442,339.1662640571594,1,2.8546500205993652,None,,,,,,,,,,,,,,,,,,177,3,2025-03-03_14h58.05.497,comp,2024.2.4,60.837094883904435,2025-03-03 14h58.19.485857 -0500,
42,42,0,critical,dwh,35.0,4.0,upper,127.0,127.0,125.0,200.0,200.0,125.0,3,5.292069673538208,None,,,,,0,0,0,0,0,42,42,65,339.18158292770386,,,,,,,,,,,,,,,,,,,,,,,,,,,,,,,,,,,,,,,,,,,,,,,,,,,,,,,,,,,,,,,,,,,,,,,,,,,,,,,,,,127.0,127.0,125.0,200.0,200.0,125.0,4.0,4.1,-260,-255,0,6,258,-281,339.16705322265625,339.16709208488464,339.16964888572693,339.18158292770386,339.3319261074066,339.3319261074066,339.3319261074066,339.3319261074066,339.3319261074066,339.3319261074066,339.3319261074066,344.48312997817993,3,5.292069673538208,None,,,,,,,,,,,,,,,,,,177,3,2025-03-03_14h58.05.497,comp,2024.2.4,60.837094883904435,2025-03-03 14h58.19.485857 -0500,
43,43,0,filler_random,None,None,None,None,None,None,None,None,None,None,3,2.270012378692627,None,,,,,0,0,0,0,0,43,43,163,344.4986915588379,,,,,,,,,,,,,,,,,,,,,,,,,,,,,,,,,,,,,,,,,,,,,,,,,,,,,,,,,,,,,,,,,,,,,,,,,,,,,,,,,,71.98445345005598,114.66318163126847,175.1039114412311,148.70273241541528,189.65463492184733,134.3753396319364,2.1,2.12,-228,-259,0,-284,238,262,344.48407673835754,344.4841182231903,344.4868040084839,344.4986915588379,344.64860248565674,344.64860248565674,344.64860248565674,344.64860248565674,344.64860248565674,344.64860248565674,344.64860248565674,346.7829866409302,3,2.270012378692627,None,,,,,,,,,,,,,,,,,,177,3,2025-03-03_14h58.05.497,comp,2024.2.4,60.837094883904435,2025-03-03 14h58.19.485857 -0500,
44,44,0,filler_square,None,None,None,None,None,None,None,None,None,None,2,1.9701902866363525,None,,,,,0,0,0,0,0,44,44,207,346.79848051071167,,,,,,,,,,,,,,,,,,,,,,,,,,,,,,,,,,,,,,,,,,,,,,,,,,,,,,,,,,,,,,,,,,,,,,,,,,,,,,,,,,112.14191624768607,62.40177789707264,115.76166937664846,115.76166937664846,72.93248511556769,92.27913676423017,1.0,1.1,-665,290,-480,269,-280,277,346.78396677970886,346.78400802612305,346.7865262031555,346.79848051071167,346.948392868042,346.948392868042,346.948392868042,346.948392868042,346.948392868042,346.948392868042,346.948392868042,348.78279542922974,2,1.9701902866363525,None,,,,,,,,,,,,,,,,,,177,3,2025-03-03_14h58.05.497,comp,2024.2.4,60.837094883904435,2025-03-03 14h58.19.485857 -0500,
45,45,0,critical,wdh,35.0,2.1,upper,125.0,200.0,127.0,127.0,200.0,125.0,1,2.234250545501709,None,,,,,0,0,0,0,0,45,45,9,348.7983331680298,,,,,,,,,,,,,,,,,,,,,,,,,,,,,,,,,,,,,,,,,,,,,,,,,,,,,,,,,,,,,,,,,,,,,,,,,,,,,,,,,,125.0,200.0,127.0,127.0,200.0,125.0,2.1,2.11,-260,279,0,273,222,-258,348.7836003303528,348.78363943099976,348.786084651947,348.7983331680298,348.9485328197479,348.9485328197479,348.9485328197479,348.9485328197479,348.9485328197479,348.9485328197479,348.9485328197479,351.04976511001587,1,2.234250545501709,None,,,,,,,,,,,,,,,,,,177,3,2025-03-03_14h58.05.497,comp,2024.2.4,60.837094883904435,2025-03-03 14h58.19.485857 -0500,
46,46,0,critical,hwd,35.0,4.0,upper,200.0,125.0,125.0,200.0,127.0,127.0,1,4.735651016235352,None,,,,,0,0,0,0,0,46,46,101,351.0650055408478,,,,,,,,,,,,,,,,,,,,,,,,,,,,,,,,,,,,,,,,,,,,,,,,,,,,,,,,,,,,,,,,,,,,,,,,,,,,,,,,,,200.0,125.0,125.0,200.0,127.0,127.0,4.0,4.1,-258,-267,0,8,260,-284,351.05056142807007,351.0506019592285,351.0527243614197,351.0650055408478,351.21527886390686,351.21527886390686,351.21527886390686,351.21527886390686,351.21527886390686,351.21527886390686,351.21527886390686,355.8165147304535,1,4.735651016235352,None,,,,,,,,,,,,,,,,,,177,3,2025-03-03_14h58.05.497,comp,2024.2.4,60.837094883904435,2025-03-03 14h58.19.485857 -0500,
47,47,0,catch,None,None,None,None,None,None,None,None,None,None,3,1.2670767307281494,None,,,,,0,0,0,0,0,47,47,125,355.83164072036743,,,,,,,,,,,,,,,,,,,,,,,,,,,,,,,,,,,,,,,,,,,,,,,,,,,,,,,,,,,,,,,,,,,,,,,,,,,,,,,,,,133,57,64,126,143,182,4.0,4.1,-188,-263,0,19,250,-269,355.8175778388977,355.8176200389862,355.8197376728058,355.83164072036743,355.9817533493042,355.9817533493042,355.9817533493042,355.9817533493042,355.9817533493042,355.9817533493042,355.9817533493042,357.1163258552551,3,1.2670767307281494,None,,,,,,,,,,,,,,,,,,177,3,2025-03-03_14h58.05.497,comp,2024.2.4,60.837094883904435,2025-03-03 14h58.19.485857 -0500,
48,48,0,catch,None,None,None,None,None,None,None,None,None,None,2,1.1998851299285889,None,,,,,0,0,0,0,0,48,48,120,357.13163137435913,,,,,,,,,,,,,,,,,,,,,,,,,,,,,,,,,,,,,,,,,,,,,,,,,,,,,,,,,,,,,,,,,,,,,,,,,,,,,,,,,,83,107,132,193,92,98,2.2,2.21,-246,-287,0,284,242,256,357.11740589141846,357.1174600124359,357.119802236557,357.13163137435913,357.28177666664124,357.28177666664124,357.28177666664124,357.28177666664124,357.28177666664124,357.28177666664124,357.28177666664124,358.3332669734955,2,1.1998851299285889,None,,,,,,,,,,,,,,,,,,177,3,2025-03-03_14h58.05.497,comp,2024.2.4,60.837094883904435,2025-03-03 14h58.19.485857 -0500,
49,49,0,filler_random,None,None,None,None,None,None,None,None,None,None,3,1.2771964073181152,None,,,,,0,0,0,0,0,49,49,130,358.3484935760498,,,,,,,,,,,,,,,,,,,,,,,,,,,,,,,,,,,,,,,,,,,,,,,,,,,,,,,,,,,,,,,,,,,,,,,,,,,,,,,,,,116.06060335592441,77.86075369714038,128.62937616001437,106.7786370318955,191.3175510545621,198.6906575617859,3.0,3.2,-188,-276,0,18,249,288,358.33434009552,358.3343811035156,358.33626890182495,358.3484935760498,358.4985432624817,358.4985432624817,358.4985432624817,358.4985432624817,358.4985432624817,358.4985432624817,358.4985432624817,359.63324332237244,3,1.2771964073181152,None,,,,,,,,,,,,,,,,,,177,3,2025-03-03_14h58.05.497,comp,2024.2.4,60.837094883904435,2025-03-03 14h58.19.485857 -0500,
50,50,0,critical,whd,20.0,2.1,lower,57.0,133.0,133.0,57.0,78.0,78.0,2,3.5198287963867188,None,,,,,0,0,0,0,0,50,50,14,359.64863562583923,,,,,,,,,,,,,,,,,,,,,,,,,,,,,,,,,,,,,,,,,,,,,,,,,,,,,,,,,,,,,,,,,,,,,,,,,,,,,,,,,,57.0,133.0,133.0,57.0,78.0,78.0,2.1,2.11,-191,283,0,273,164,-253,359.6340687274933,359.63411045074463,359.63660502433777,359.64863562583923,359.79834842681885,359.79834842681885,359.79834842681885,359.79834842681885,359.79834842681885,359.79834842681885,359.79834842681885,363.1826832294464,2,3.5198287963867188,None,,,,,,,,,,,,,,,,,,177,3,2025-03-03_14h58.05.497,comp,2024.2.4,60.837094883904435,2025-03-03 14h58.19.485857 -0500,
51,51,0,critical,hwd,20.0,3.0,lower,133.0,57.0,57.0,133.0,78.0,78.0,2,3.516963243484497,None,,,,,0,0,0,0,0,51,51,104,363.19799280166626,,,,,,,,,,,,,,,,,,,,,,,,,,,,,,,,,,,,,,,,,,,,,,,,,,,,,,,,,,,,,,,,,,,,,,,,,,,,,,,,,,133.0,57.0,57.0,133.0,78.0,78.0,3.0,3.2,-191,-250,0,2,202,269,363.1834828853607,363.1835231781006,363.1859164237976,363.19799280166626,363.34825682640076,363.34825682640076,363.34825682640076,363.34825682640076,363.34825682640076,363.34825682640076,363.34825682640076,366.7327091693878,2,3.516963243484497,None,,,,,,,,,,,,,,,,,,177,3,2025-03-03_14h58.05.497,comp,2024.2.4,60.837094883904435,2025-03-03 14h58.19.485857 -0500,
52,52,0,filler_square,None,None,None,None,None,None,None,None,None,None,1,1.2771697044372559,None,,,,,0,0,0,0,0,52,52,181,366.7480483055115,,,,,,,,,,,,,,,,,,,,,,,,,,,,,,,,,,,,,,,,,,,,,,,,,,,,,,,,,,,,,,,,,,,,,,,,,,,,,,,,,,129.0935648978438,129.0935648978438,60.74496362406676,91.32073502604314,70.04506185393844,74.31157341370519,2.2,2.22,-206,267,0,-263,179,-287,366.7336814403534,366.73372197151184,366.736102104187,366.7480483055115,366.89816975593567,366.89816975593567,366.89816975593567,366.89816975593567,366.89816975593567,366.89816975593567,366.89816975593567,368.0327274799347,1,1.2771697044372559,None,,,,,,,,,,,,,,,,,,177,3,2025-03-03_14h58.05.497,comp,2024.2.4,60.837094883904435,2025-03-03 14h58.19.485857 -0500,
53,53,0,critical,dwh,35.0,2.1,lower,70.0,70.0,57.0,133.0,133.0,57.0,2,2.4879367351531982,None,,,,,0,0,0,0,0,53,53,4,368.0484039783478,,,,,,,,,,,,,,,,,,,,,,,,,,,,,,,,,,,,,,,,,,,,,,,,,,,,,,,,,,,,,,,,,,,,,,,,,,,,,,,,,,70.0,70.0,57.0,133.0,133.0,57.0,2.1,2.12,-198,-276,0,-252,191,287,368.0335359573364,368.03357696533203,368.035986661911,368.0484039783478,368.1982493400574,368.1982493400574,368.1982493400574,368.1982493400574,368.1982493400574,368.1982493400574,368.1982493400574,370.5494136810303,2,2.4879367351531982,None,,,,,,,,,,,,,,,,,,177,3,2025-03-03_14h58.05.497,comp,2024.2.4,60.837094883904435,2025-03-03 14h58.19.485857 -0500,
54,54,0,filler_random,None,None,None,None,None,None,None,None,None,None,1,3.350123405456543,None,,,,,0,0,0,0,0,54,54,166,370.5647704601288,,,,,,,,,,,,,,,,,,,,,,,,,,,,,,,,,,,,,,,,,,,,,,,,,,,,,,,,,,,,,,,,,,,,,,,,,,,,,,,,,,99.99004833388943,170.80958644184162,71.8633619844326,147.72754875547906,64.87039867406013,191.1605443976725,2.2,2.21,-255,-251,0,277,265,279,370.5503375530243,370.5503783226013,370.55250120162964,370.5647704601288,370.71499729156494,370.71499729156494,370.71499729156494,370.71499729156494,370.71499729156494,370.71499729156494,370.71499729156494,373.93273425102234,1,3.350123405456543,None,,,,,,,,,,,,,,,,,,177,3,2025-03-03_14h58.05.497,comp,2024.2.4,60.837094883904435,2025-03-03 14h58.19.485857 -0500,
55,55,0,filler_square,None,None,None,None,None,None,None,None,None,None,2,1.2451531887054443,None,,,,,0,0,0,0,0,55,55,202,373.9480962753296,,,,,,,,,,,,,,,,,,,,,,,,,,,,,,,,,,,,,,,,,,,,,,,,,,,,,,,,,,,,,,,,,,,,,,,,,,,,,,,,,,78.08556533637226,99.73691506025872,184.01101151855,184.01101151855,70.92938665804803,151.60995085960025,4.0,4.2,-238,-15,0,-262,264,9,373.9336779117584,373.93371772766113,373.9360830783844,373.9480962753296,374.0983736515045,374.0983736515045,374.0983736515045,374.0983736515045,374.0983736515045,374.0983736515045,374.0983736515045,375.19948530197144,2,1.2451531887054443,None,,,,,,,,,,,,,,,,,,177,3,2025-03-03_14h58.05.497,comp,2024.2.4,60.837094883904435,2025-03-03 14h58.19.485857 -0500,
56,56,0,critical,dwh,20.0,1.0,upper,141.0,141.0,125.0,200.0,200.0,125.0,3,2.8582189083099365,None,,,,,0,0,0,0,0,56,56,67,375.2149991989136,,,,,,,,,,,,,,,,,,,,,,,,,,,,,,,,,,,,,,,,,,,,,,,,,,,,,,,,,,,,,,,,,,,,,,,,,,,,,,,,,,141.0,141.0,125.0,200.0,200.0,125.0,1.0,1.3,214,-277,480,-262,738,-284,375.20029759407043,375.2003378868103,375.2027018070221,375.2149991989136,375.36505365371704,375.36505365371704,375.36505365371704,375.36505365371704,375.36505365371704,375.36505365371704,375.36505365371704,378.08298087120056,3,2.8582189083099365,None,,,,,,,,,,,,,,,,,,177,3,2025-03-03_14h58.05.497,comp,2024.2.4,60.837094883904435,2025-03-03 14h58.19.485857 -0500,
57,57,0,filler_square,None,None,None,None,None,None,None,None,None,None,2,3.1832034587860107,None,,,,,0,0,0,0,0,57,57,173,378.0984215736389,,,,,,,,,,,,,,,,,,,,,,,,,,,,,,,,,,,,,,,,,,,,,,,,,,,,,,,,,,,,,,,,,,,,,,,,,,,,,,,,,,60.64494105273304,58.642146793708655,61.88426561438666,61.88426561438666,60.53843948544171,59.02636055235639,3.0,3.2,-156,-281,0,6,156,287,378.08397221565247,378.0840148925781,378.08647656440735,378.0984215736389,378.2480778694153,378.2480778694153,378.2480778694153,378.2480778694153,378.2480778694153,378.2480778694153,378.2480778694153,381.2993714809418,2,3.1832034587860107,None,,,,,,,,,,,,,,,,,,177,3,2025-03-03_14h58.05.497,comp,2024.2.4,60.837094883904435,2025-03-03 14h58.19.485857 -0500,
58,58,0,critical,hwd,20.0,2.1,upper,200.0,125.0,125.0,200.0,141.0,141.0,2,6.917556524276733,None,,,,,0,0,0,0,0,58,58,43,381.314728975296,,,,,,,,,,,,,,,,,,,,,,,,,,,,,,,,,,,,,,,,,,,,,,,,,,,,,,,,,,,,,,,,,,,,,,,,,,,,,,,,,,200.0,125.0,125.0,200.0,141.0,141.0,2.1,2.11,-258,268,0,277,266,-268,381.3001618385315,381.3002004623413,381.3022165298462,381.314728975296,381.4650204181671,381.4650204181671,381.4650204181671,381.4650204181671,381.4650204181671,381.4650204181671,381.4650204181671,388.24947476387024,2,6.917556524276733,None,,,,,,,,,,,,,,,,,,177,3,2025-03-03_14h58.05.497,comp,2024.2.4,60.837094883904435,2025-03-03 14h58.19.485857 -0500,
59,59,0,filler_random,None,None,None,None,None,None,None,None,None,None,2,4.071507930755615,None,,,,,0,0,0,0,0,59,59,151,388.2647068500519,,,,,,,,,,,,,,,,,,,,,,,,,,,,,,,,,,,,,,,,,,,,,,,,,,,,,,,,,,,,,,,,,,,,,,,,,,,,,,,,,,94.10580086313246,107.43361834354553,74.11732637802908,150.57199429112478,96.75116954196278,106.14338770784599,2.2,2.22,-225,269,0,-251,224,-283,388.25037837028503,388.25041913986206,388.25273847579956,388.2647068500519,388.4147551059723,388.4147551059723,388.4147551059723,388.4147551059723,388.4147551059723,388.4147551059723,388.4147551059723,392.34934973716736,2,4.071507930755615,None,,,,,,,,,,,,,,,,,,177,3,2025-03-03_14h58.05.497,comp,2024.2.4,60.837094883904435,2025-03-03 14h58.19.485857 -0500,
60,60,0,filler_square,None,None,None,None,None,None,None,None,None,None,2,1.4036052227020264,None,,,,,0,0,0,0,0,60,60,188,392.3646743297577,,,,,,,,,,,,,,,,,,,,,,,,,,,,,,,,,,,,,,,,,,,,,,,,,,,,,,,,,,,,,,,,,,,,,,,,,,,,,,,,,,62.740367154037024,104.28094841894193,190.7087020676817,190.7087020676817,88.04857935897999,173.91772505865634,3.0,3.1,-243,271,0,-7,278,-288,392.35031294822693,392.3503541946411,392.35286712646484,392.3646743297577,392.51492977142334,392.51492977142334,392.51492977142334,392.51492977142334,392.51492977142334,392.51492977142334,392.51492977142334,393.78259658813477,2,1.4036052227020264,None,,,,,,,,,,,,,,,,,,177,3,2025-03-03_14h58.05.497,comp,2024.2.4,60.837094883904435,2025-03-03 14h58.19.485857 -0500,
61,61,0,critical,dwh,35.0,3.0,lower,70.0,70.0,57.0,133.0,133.0,57.0,3,3.0341298580169678,None,,,,,0,0,0,0,0,61,61,62,393.79809856414795,,,,,,,,,,,,,,,,,,,,,,,,,,,,,,,,,,,,,,,,,,,,,,,,,,,,,,,,,,,,,,,,,,,,,,,,,,,,,,,,,,70.0,70.0,57.0,133.0,133.0,57.0,3.0,3.1,-198,258,0,16,191,-285,393.78343534469604,393.78348684310913,393.78597807884216,393.79809856414795,393.94825291633606,393.94825291633606,393.94825291633606,393.94825291633606,393.94825291633606,393.94825291633606,393.94825291633606,396.84919333457947,3,3.0341298580169678,None,,,,,,,,,,,,,,,,,,177,3,2025-03-03_14h58.05.497,comp,2024.2.4,60.837094883904435,2025-03-03 14h58.19.485857 -0500,
62,62,0,critical,dhw,35.0,2.1,upper,127.0,127.0,200.0,125.0,125.0,200.0,3,3.4083197116851807,None,,,,,0,0,0,0,0,62,62,1,396.86465430259705,,,,,,,,,,,,,,,,,,,,,,,,,,,,,,,,,,,,,,,,,,,,,,,,,,,,,,,,,,,,,,,,,,,,,,,,,,,,,,,,,,127.0,127.0,200.0,125.0,125.0,200.0,2.1,2.11,-222,252,0,256,258,-258,396.8499743938446,396.8500142097473,396.85252928733826,396.86465430259705,397.0148572921753,397.0148572921753,397.0148572921753,397.0148572921753,397.0148572921753,397.0148572921753,397.0148572921753,400.2827684879303,3,3.4083197116851807,None,,,,,,,,,,,,,,,,,,177,3,2025-03-03_14h58.05.497,comp,2024.2.4,60.837094883904435,2025-03-03 14h58.19.485857 -0500,
63,63,0,critical,dwh,20.0,4.0,upper,141.0,141.0,125.0,200.0,200.0,125.0,2,2.3583762645721436,None,,,,,0,0,0,0,0,63,63,71,400.29854011535645,,,,,,,,,,,,,,,,,,,,,,,,,,,,,,,,,,,,,,,,,,,,,,,,,,,,,,,,,,,,,,,,,,,,,,,,,,,,,,,,,,141.0,141.0,125.0,200.0,200.0,125.0,4.0,4.1,-266,-251,0,-8,258,-289,400.2836809158325,400.28372144699097,400.2860493659973,400.29854011535645,400.44824981689453,400.44824981689453,400.44824981689453,400.44824981689453,400.44824981689453,400.44824981689453,400.44824981689453,402.66606044769287,2,2.3583762645721436,None,,,,,,,,,,,,,,,,,,177,3,2025-03-03_14h58.05.497,comp,2024.2.4,60.837094883904435,2025-03-03 14h58.19.485857 -0500,
64,64,0,critical,dhw,20.0,2.1,upper,141.0,141.0,200.0,125.0,125.0,200.0,3,2.3007190227508545,None,,,,,0,0,0,0,0,64,64,27,402.6840796470642,,,,,,,,,,,,,,,,,,,,,,,,,,,,,,,,,,,,,,,,,,,,,,,,,,,,,,,,,,,,,,,,,,,,,,,,,,,,,,,,,,141.0,141.0,200.0,125.0,125.0,200.0,2.1,2.12,-229,-283,0,-282,258,280,402.6669092178345,402.66695165634155,402.6690905094147,402.6840796470642,402.8322925567627,402.8322925567627,402.8322925567627,402.8322925567627,402.8322925567627,402.8322925567627,402.8322925567627,404.99994230270386,3,2.3007190227508545,None,,,,,,,,,,,,,,,,,,177,3,2025-03-03_14h58.05.497,comp,2024.2.4,60.837094883904435,2025-03-03 14h58.19.485857 -0500,
65,65,0,filler_random,None,None,None,None,None,None,None,None,None,None,3,7.06696891784668,None,,,,,0,0,0,0,0,65,65,162,405.01464319229126,,,,,,,,,,,,,,,,,,,,,,,,,,,,,,,,,,,,,,,,,,,,,,,,,,,,,,,,,,,,,,,,,,,,,,,,,,,,,,,,,,159.83183422330774,123.55061514665093,73.82952240201499,197.9293434058139,109.49014506523206,161.9323162052366,4.0,4.1,-257,-252,0,-9,276,-252,405.0008900165558,405.00093269348145,405.0030517578125,405.01464319229126,405.16473841667175,405.16473841667175,405.16473841667175,405.16473841667175,405.16473841667175,405.16473841667175,405.16473841667175,412.0827782154083,3,7.06696891784668,None,,,,,,,,,,,,,,,,,,177,3,2025-03-03_14h58.05.497,comp,2024.2.4,60.837094883904435,2025-03-03 14h58.19.485857 -0500,
66,66,0,critical,wdh,35.0,1.0,upper,125.0,200.0,127.0,127.0,200.0,125.0,3,3.8865983486175537,None,,,,,0,0,0,0,0,66,66,73,412.09815645217896,,,,,,,,,,,,,,,,,,,,,,,,,,,,,,,,,,,,,,,,,,,,,,,,,,,,,,,,,,,,,,,,,,,,,,,,,,,,,,,,,,125.0,200.0,127.0,127.0,200.0,125.0,1.0,1.3,220,-282,480,-269,702,-271,412.08356642723083,412.08360838890076,412.08598923683167,412.09815645217896,412.24820137023926,412.24820137023926,412.24820137023926,412.24820137023926,412.24820137023926,412.24820137023926,412.24820137023926,415.99940490722656,3,3.8865983486175537,None,,,,,,,,,,,,,,,,,,177,3,2025-03-03_14h58.05.497,comp,2024.2.4,60.837094883904435,2025-03-03 14h58.19.485857 -0500,
67,67,0,filler_random,None,None,None,None,None,None,None,None,None,None,2,2.1854982376098633,None,,,,,0,0,0,0,0,67,67,154,416.0145547389984,,,,,,,,,,,,,,,,,,,,,,,,,,,,,,,,,,,,,,,,,,,,,,,,,,,,,,,,,,,,,,,,,,,,,,,,,,,,,,,,,,131.036598245425,113.84678262433283,118.0418078731872,175.7750839136287,72.72927922662277,175.9939160710495,2.2,2.21,-241,-261,0,288,272,261,416.0012209415436,416.00127387046814,416.0033025741577,416.0145547389984,416.1646728515625,416.1646728515625,416.1646728515625,416.1646728515625,416.1646728515625,416.1646728515625,416.1646728515625,418.21582531929016,2,2.1854982376098633,None,,,,,,,,,,,,,,,,,,177,3,2025-03-03_14h58.05.497,comp,2024.2.4,60.837094883904435,2025-03-03 14h58.19.485857 -0500,
68,68,0,critical,hdw,35.0,4.0,upper,200.0,125.0,127.0,127.0,125.0,200.0,3,2.8096890449523926,None,,,,,0,0,0,0,0,68,68,113,418.2311313152313,,,,,,,,,,,,,,,,,,,,,,,,,,,,,,,,,,,,,,,,,,,,,,,,,,,,,,,,,,,,,,,,,,,,,,,,,,,,,,,,,,200.0,125.0,127.0,127.0,125.0,200.0,4.0,4.1,-222,-289,0,9,260,-253,418.21662521362305,418.21666502952576,418.2190668582916,418.2311313152313,418.38147926330566,418.38147926330566,418.38147926330566,418.38147926330566,418.38147926330566,418.38147926330566,418.38147926330566,421.0492877960205,3,2.8096890449523926,None,,,,,,,,,,,,,,,,,,177,3,2025-03-03_14h58.05.497,comp,2024.2.4,60.837094883904435,2025-03-03 14h58.19.485857 -0500,
69,69,0,filler_random,None,None,None,None,None,None,None,None,None,None,3,2.449580192565918,None,,,,,0,0,0,0,0,69,69,155,421.0647089481354,,,,,,,,,,,,,,,,,,,,,,,,,,,,,,,,,,,,,,,,,,,,,,,,,,,,,,,,,,,,,,,,,,,,,,,,,,,,,,,,,,80.13546251739092,98.77478981088666,87.45639456438583,92.89379869476,79.31513541991592,142.25319662264238,2.2,2.21,-192,-275,0,284,214,256,421.05023217201233,421.0502746105194,421.0528779029846,421.0647089481354,421.2145309448242,421.2145309448242,421.2145309448242,421.2145309448242,421.2145309448242,421.2145309448242,421.2145309448242,423.51587748527527,3,2.449580192565918,None,,,,,,,,,,,,,,,,,,177,3,2025-03-03_14h58.05.497,comp,2024.2.4,60.837094883904435,2025-03-03 14h58.19.485857 -0500,
70,70,0,critical,wdh,20.0,2.1,lower,57.0,133.0,78.0,78.0,133.0,57.0,1,2.221214532852173,None,,,,,0,0,0,0,0,70,70,10,423.53130865097046,,,,,,,,,,,,,,,,,,,,,,,,,,,,,,,,,,,,,,,,,,,,,,,,,,,,,,,,,,,,,,,,,,,,,,,,,,,,,,,,,,57.0,133.0,78.0,78.0,133.0,57.0,2.1,2.11,-202,257,0,283,164,-283,423.51667833328247,423.5167191028595,423.5191442966461,423.53130865097046,423.6812491416931,423.6812491416931,423.6812491416931,423.6812491416931,423.6812491416931,423.6812491416931,423.6812491416931,425.76559948921204,1,2.221214532852173,None,,,,,,,,,,,,,,,,,,177,3,2025-03-03_14h58.05.497,comp,2024.2.4,60.837094883904435,2025-03-03 14h58.19.485857 -0500,
71,71,0,critical,wdh,35.0,3.0,lower,57.0,133.0,70.0,70.0,133.0,57.0,3,2.427771806716919,None,,,,,0,0,0,0,0,71,71,74,425.7810354232788,,,,,,,,,,,,,,,,,,,,,,,,,,,,,,,,,,,,,,,,,,,,,,,,,,,,,,,,,,,,,,,,,,,,,,,,,,,,,,,,,,57.0,133.0,70.0,70.0,133.0,57.0,3.0,3.2,-198,-257,0,3,160,259,425.7663698196411,425.7664089202881,425.7687029838562,425.7810354232788,425.9311726093292,425.9311726093292,425.9311726093292,425.9311726093292,425.9311726093292,425.9311726093292,425.9311726093292,428.2155406475067,3,2.427771806716919,None,,,,,,,,,,,,,,,,,,177,3,2025-03-03_14h58.05.497,comp,2024.2.4,60.837094883904435,2025-03-03 14h58.19.485857 -0500,
72,72,0,critical,wdh,20.0,2.1,upper,125.0,200.0,141.0,141.0,200.0,125.0,3,3.8093974590301514,None,,,,,0,0,0,0,0,72,72,35,428.23141956329346,,,,,,,,,,,,,,,,,,,,,,,,,,,,,,,,,,,,,,,,,,,,,,,,,,,,,,,,,,,,,,,,,,,,,,,,,,,,,,,,,,125.0,200.0,141.0,141.0,200.0,125.0,2.1,2.11,-266,282,0,259,229,-282,428.21632862091064,428.21636843681335,428.21870017051697,428.23141956329346,428.3813519477844,428.3813519477844,428.3813519477844,428.3813519477844,428.3813519477844,428.3813519477844,428.3813519477844,432.04925870895386,3,3.8093974590301514,None,,,,,,,,,,,,,,,,,,177,3,2025-03-03_14h58.05.497,comp,2024.2.4,60.837094883904435,2025-03-03 14h58.19.485857 -0500,
73,73,0,filler_square,None,None,None,None,None,None,None,None,None,None,2,1.168168544769287,None,,,,,0,0,0,0,0,73,73,189,432.0646388530731,,,,,,,,,,,,,,,,,,,,,,,,,,,,,,,,,,,,,,,,,,,,,,,,,,,,,,,,,,,,,,,,,,,,,,,,,,,,,,,,,,122.13369391874086,59.925518115206316,150.81847992448257,150.81847992448257,63.80075344430085,67.02465208549222,1.0,1.2,-201,-10,0,15,205,8,432.0501959323883,432.050235748291,432.05280566215515,432.0646388530731,432.21440744400024,432.21440744400024,432.21440744400024,432.21440744400024,432.21440744400024,432.21440744400024,432.21440744400024,433.2490704059601,2,1.168168544769287,None,,,,,,,,,,,,,,,,,,177,3,2025-03-03_14h58.05.497,comp,2024.2.4,60.837094883904435,2025-03-03 14h58.19.485857 -0500,
74,74,0,critical,wdh,35.0,2.1,lower,57.0,133.0,70.0,70.0,133.0,57.0,3,2.655385732650757,None,,,,,0,0,0,0,0,74,74,32,433.2644383907318,,,,,,,,,,,,,,,,,,,,,,,,,,,,,,,,,,,,,,,,,,,,,,,,,,,,,,,,,,,,,,,,,,,,,,,,,,,,,,,,,,57.0,133.0,70.0,70.0,133.0,57.0,2.1,2.12,-198,-261,0,-271,160,283,433.2498869895935,433.24992775917053,433.25242042541504,433.2644383907318,433.41450548171997,433.41450548171997,433.41450548171997,433.41450548171997,433.41450548171997,433.41450548171997,433.41450548171997,435.93231678009033,3,2.655385732650757,None,,,,,,,,,,,,,,,,,,177,3,2025-03-03_14h58.05.497,comp,2024.2.4,60.837094883904435,2025-03-03 14h58.19.485857 -0500,
75,75,0,critical,whd,35.0,2.1,lower,57.0,133.0,133.0,57.0,70.0,70.0,3,3.252366065979004,None,,,,,0,0,0,0,0,75,75,12,435.9475955963135,,,,,,,,,,,,,,,,,,,,,,,,,,,,,,,,,,,,,,,,,,,,,,,,,,,,,,,,,,,,,,,,,,,,,,,,,,,,,,,,,,57.0,133.0,133.0,57.0,70.0,70.0,2.1,2.11,-191,265,0,287,160,-268,435.93313002586365,435.933171749115,435.9358606338501,435.9475955963135,436.0977396965027,436.0977396965027,436.0977396965027,436.0977396965027,436.0977396965027,436.0977396965027,436.0977396965027,439.21556282043457,3,3.252366065979004,None,,,,,,,,,,,,,,,,,,177,3,2025-03-03_14h58.05.497,comp,2024.2.4,60.837094883904435,2025-03-03 14h58.19.485857 -0500,
76,76,0,critical,dhw,20.0,2.1,lower,78.0,78.0,133.0,57.0,57.0,133.0,3,2.8419039249420166,None,,,,,0,0,0,0,0,76,76,2,439.2308588027954,,,,,,,,,,,,,,,,,,,,,,,,,,,,,,,,,,,,,,,,,,,,,,,,,,,,,,,,,,,,,,,,,,,,,,,,,,,,,,,,,,78.0,78.0,133.0,57.0,57.0,133.0,2.1,2.11,-164,286,0,284,191,-259,439.2163350582123,439.21637654304504,439.21863293647766,439.2308588027954,439.38105154037476,439.38105154037476,439.38105154037476,439.38105154037476,439.38105154037476,439.38105154037476,439.38105154037476,442.08224296569824,3,2.8419039249420166,None,,,,,,,,,,,,,,,,,,177,3,2025-03-03_14h58.05.497,comp,2024.2.4,60.837094883904435,2025-03-03 14h58.19.485857 -0500,
77,77,0,catch,None,None,None,None,None,None,None,None,None,None,3,1.086158275604248,None,,,,,0,0,0,0,0,77,77,124,442.0979337692261,,,,,,,,,,,,,,,,,,,,,,,,,,,,,,,,,,,,,,,,,,,,,,,,,,,,,,,,,,,,,,,,,,,,,,,,,,,,,,,,,,99,91,120,70,160,165,2.1,2.11,-176,266,0,287,214,-269,442.08331990242004,442.0833628177643,442.08599853515625,442.0979337692261,442.2478585243225,442.2478585243225,442.2478585243225,442.2478585243225,442.2478585243225,442.2478585243225,442.2478585243225,443.1989378929138,3,1.086158275604248,None,,,,,,,,,,,,,,,,,,177,3,2025-03-03_14h58.05.497,comp,2024.2.4,60.837094883904435,2025-03-03 14h58.19.485857 -0500,
78,78,0,critical,dhw,20.0,3.0,lower,78.0,78.0,133.0,57.0,57.0,133.0,3,1.5054876804351807,None,,,,,0,0,0,0,0,78,78,56,443.2143249511719,,,,,,,,,,,,,,,,,,,,,,,,,,,,,,,,,,,,,,,,,,,,,,,,,,,,,,,,,,,,,,,,,,,,,,,,,,,,,,,,,,78.0,78.0,133.0,57.0,57.0,133.0,3.0,3.2,-164,-275,0,-17,191,264,443.1997013092041,443.1997411251068,443.202162027359,443.2143249511719,443.3643276691437,443.3643276691437,443.3643276691437,443.3643276691437,443.3643276691437,443.3643276691437,443.3643276691437,444.7322561740875,3,1.5054876804351807,None,,,,,,,,,,,,,,,,,,177,3,2025-03-03_14h58.05.497,comp,2024.2.4,60.837094883904435,2025-03-03 14h58.19.485857 -0500,
79,79,0,filler_square,None,None,None,None,None,None,None,None,None,None,2,1.5337748527526855,None,,,,,0,0,0,0,0,79,79,182,444.74761629104614,,,,,,,,,,,,,,,,,,,,,,,,,,,,,,,,,,,,,,,,,,,,,,,,,,,,,,,,,,,,,,,,,,,,,,,,,,,,,,,,,,99.01042493357915,137.51948275199064,153.8278394029198,153.8278394029198,113.29445771248305,75.4317525335813,4.0,4.1,-242,-259,0,-7,211,-258,444.73319959640503,444.7332398891449,444.7354247570038,444.74761629104614,444.8977618217468,444.8977618217468,444.8977618217468,444.8977618217468,444.8977618217468,444.8977618217468,444.8977618217468,446.29910349845886,2,1.5337748527526855,None,,,,,,,,,,,,,,,,,,177,3,2025-03-03_14h58.05.497,comp,2024.2.4,60.837094883904435,2025-03-03 14h58.19.485857 -0500,
80,80,0,critical,dwh,20.0,1.0,lower,78.0,78.0,57.0,133.0,133.0,57.0,3,2.558373212814331,None,,,,,0,0,0,0,0,80,80,66,446.31434392929077,,,,,,,,,,,,,,,,,,,,,,,,,,,,,,,,,,,,,,,,,,,,,,,,,,,,,,,,,,,,,,,,,,,,,,,,,,,,,,,,,,78.0,78.0,57.0,133.0,133.0,57.0,1.0,1.1,-682,250,-480,266,-289,270,446.2999074459076,446.2999475002289,446.30240869522095,446.31434392929077,446.46446466445923,446.46446466445923,446.46446466445923,446.46446466445923,446.46446466445923,446.46446466445923,446.46446466445923,448.88228058815,3,2.558373212814331,None,,,,,,,,,,,,,,,,,,177,3,2025-03-03_14h58.05.497,comp,2024.2.4,60.837094883904435,2025-03-03 14h58.19.485857 -0500,
81,81,0,filler_random,None,None,None,None,None,None,None,None,None,None,2,2.0217854976654053,None,,,,,0,0,0,0,0,81,81,131,448.89799094200134,,,,,,,,,,,,,,,,,,,,,,,,,,,,,,,,,,,,,,,,,,,,,,,,,,,,,,,,,,,,,,,,,,,,,,,,,,,,,,,,,,84.61940817997733,123.48114458937918,86.13515361825539,175.40897107193808,132.7293336652851,126.87548727522577,2.2,2.21,-245,-283,0,290,247,256,448.8832211494446,448.8832640647888,448.88543128967285,448.89799094200134,449.04792523384094,449.04792523384094,449.04792523384094,449.04792523384094,449.04792523384094,449.04792523384094,449.04792523384094,450.93241572380066,2,2.0217854976654053,None,,,,,,,,,,,,,,,,,,177,3,2025-03-03_14h58.05.497,comp,2024.2.4,60.837094883904435,2025-03-03 14h58.19.485857 -0500,
82,82,0,filler_random,None,None,None,None,None,None,None,None,None,None,2,1.9415264129638672,None,,,,,0,0,0,0,0,82,82,137,450.94759345054626,,,,,,,,,,,,,,,,,,,,,,,,,,,,,,,,,,,,,,,,,,,,,,,,,,,,,,,,,,,,,,,,,,,,,,,,,,,,,,,,,,77.17555797705946,172.80397733807715,111.53519063634789,193.50869024244088,122.38648065863698,135.68290630500934,4.0,4.2,-279,12,0,-275,261,4,450.9333162307739,450.9333562850952,450.9356837272644,450.94759345054626,451.0977795124054,451.0977795124054,451.0977795124054,451.0977795124054,451.0977795124054,451.0977795124054,451.0977795124054,452.89912271499634,2,1.9415264129638672,None,,,,,,,,,,,,,,,,,,177,3,2025-03-03_14h58.05.497,comp,2024.2.4,60.837094883904435,2025-03-03 14h58.19.485857 -0500,
83,83,0,filler_random,None,None,None,None,None,None,None,None,None,None,3,1.4157342910766602,None,,,,,0,0,0,0,0,83,83,164,452.91456413269043,,,,,,,,,,,,,,,,,,,,,,,,,,,,,,,,,,,,,,,,,,,,,,,,,,,,,,,,,,,,,,,,,,,,,,,,,,,,,,,,,,159.86746813673193,147.5403886816939,120.54166374197155,74.0931290648258,192.2103631216538,152.61498326016863,3.0,3.2,-207,-290,0,-14,209,275,452.9001302719116,452.9001717567444,452.90261220932007,452.91456413269043,453.0645453929901,453.0645453929901,453.0645453929901,453.0645453929901,453.0645453929901,453.0645453929901,453.0645453929901,454.33254313468933,3,1.4157342910766602,None,,,,,,,,,,,,,,,,,,177,3,2025-03-03_14h58.05.497,comp,2024.2.4,60.837094883904435,2025-03-03 14h58.19.485857 -0500,
84,84,0,filler_random,None,None,None,None,None,None,None,None,None,None,2,1.2678394317626953,None,,,,,0,0,0,0,0,84,84,138,454.347948551178,,,,,,,,,,,,,,,,,,,,,,,,,,,,,,,,,,,,,,,,,,,,,,,,,,,,,,,,,,,,,,,,,,,,,,,,,,,,,,,,,,61.808738716925426,129.10099453506314,160.09834923015202,167.11312337912048,115.96373655043917,154.02347647285038,4.0,4.1,-244,-285,0,6,257,-281,454.33343386650085,454.33348989486694,454.33568572998047,454.347948551178,454.4978075027466,454.4978075027466,454.4978075027466,454.4978075027466,454.4978075027466,454.4978075027466,454.4978075027466,455.63239550590515,2,1.2678394317626953,None,,,,,,,,,,,,,,,,,,177,3,2025-03-03_14h58.05.497,comp,2024.2.4,60.837094883904435,2025-03-03 14h58.19.485857 -0500,
85,85,0,filler_square,None,None,None,None,None,None,None,None,None,None,2,1.225081205368042,None,,,,,0,0,0,0,0,85,85,191,455.6476423740387,,,,,,,,,,,,,,,,,,,,,,,,,,,,,,,,,,,,,,,,,,,,,,,,,,,,,,,,,,,,,,,,,,,,,,,,,,,,,,,,,,85.56689587747738,134.37942431555715,190.33920853200638,190.33920853200638,187.82211480374923,89.7540901587048,2.1,2.12,-258,-279,0,-255,236,267,455.6333680152893,455.63340997695923,455.63596510887146,455.6476423740387,455.79801321029663,455.79801321029663,455.79801321029663,455.79801321029663,455.79801321029663,455.79801321029663,455.79801321029663,456.88241243362427,2,1.225081205368042,None,,,,,,,,,,,,,,,,,,177,3,2025-03-03_14h58.05.497,comp,2024.2.4,60.837094883904435,2025-03-03 14h58.19.485857 -0500,
86,86,0,filler_random,None,None,None,None,None,None,None,None,None,None,1,4.086111307144165,None,,,,,0,0,0,0,0,86,86,161,456.8978126049042,,,,,,,,,,,,,,,,,,,,,,,,,,,,,,,,,,,,,,,,,,,,,,,,,,,,,,,,,,,,,,,,,,,,,,,,,,,,,,,,,,180.1033152744692,112.98551401081524,131.31745017013532,103.3115451904454,124.3122946351235,64.84113279032535,1.0,1.2,-204,-12,0,7,180,-8,456.8833348751068,456.8833751678467,456.8856852054596,456.8978126049042,457.04789996147156,457.04789996147156,457.04789996147156,457.04789996147156,457.04789996147156,457.04789996147156,457.04789996147156,460.9988696575165,1,4.086111307144165,None,,,,,,,,,,,,,,,,,,177,3,2025-03-03_14h58.05.497,comp,2024.2.4,60.837094883904435,2025-03-03 14h58.19.485857 -0500,
87,87,0,filler_random,None,None,None,None,None,None,None,None,None,None,2,1.1784110069274902,None,,,,,0,0,0,0,0,87,87,140,461.01419949531555,,,,,,,,,,,,,,,,,,,,,,,,,,,,,,,,,,,,,,,,,,,,,,,,,,,,,,,,,,,,,,,,,,,,,,,,,,,,,,,,,,155.7525464867997,175.6360866555313,182.68171521434357,141.1108385741548,81.8197767307512,94.56740322386807,1.0,1.2,-254,5,0,-5,214,-19,460.9997777938843,460.9998185634613,461.0022678375244,461.01419949531555,461.16438341140747,461.16438341140747,461.16438341140747,461.16438341140747,461.16438341140747,461.16438341140747,461.16438341140747,462.1989312171936,2,1.1784110069274902,None,,,,,,,,,,,,,,,,,,177,3,2025-03-03_14h58.05.497,comp,2024.2.4,60.837094883904435,2025-03-03 14h58.19.485857 -0500,
88,88,0,critical,dwh,35.0,2.1,upper,127.0,127.0,125.0,200.0,200.0,125.0,2,1.5694620609283447,None,,,,,0,0,0,0,0,88,88,29,462.21432542800903,,,,,,,,,,,,,,,,,,,,,,,,,,,,,,,,,,,,,,,,,,,,,,,,,,,,,,,,,,,,,,,,,,,,,,,,,,,,,,,,,,127.0,127.0,125.0,200.0,200.0,125.0,2.1,2.12,-260,-262,0,-254,258,254,462.19975185394287,462.19979214668274,462.2022602558136,462.21432542800903,462.3644633293152,462.3644633293152,462.3644633293152,462.3644633293152,462.3644633293152,462.3644633293152,462.3644633293152,463.7991840839386,2,1.5694620609283447,None,,,,,,,,,,,,,,,,,,177,3,2025-03-03_14h58.05.497,comp,2024.2.4,60.837094883904435,2025-03-03 14h58.19.485857 -0500,
89,89,0,filler_random,None,None,None,None,None,None,None,None,None,None,1,2.738060712814331,None,,,,,0,0,0,0,0,89,89,152,463.8141350746155,,,,,,,,,,,,,,,,,,,,,,,,,,,,,,,,,,,,,,,,,,,,,,,,,,,,,,,,,,,,,,,,,,,,,,,,,,,,,,,,,,148.53245593700962,79.16535040605913,58.982350456519086,129.44141211287248,103.05150200685081,71.89511150950996,2.2,2.21,-200,-258,0,254,197,283,463.8000671863556,463.80010771751404,463.80258774757385,463.8141350746155,463.96422362327576,463.96422362327576,463.96422362327576,463.96422362327576,463.96422362327576,463.96422362327576,463.96422362327576,466.5653443336487,1,2.738060712814331,None,,,,,,,,,,,,,,,,,,177,3,2025-03-03_14h58.05.497,comp,2024.2.4,60.837094883904435,2025-03-03 14h58.19.485857 -0500,
90,90,0,critical,hdw,20.0,4.0,lower,133.0,57.0,78.0,78.0,57.0,133.0,1,2.0597383975982666,None,,,,,0,0,0,0,0,90,90,118,466.58079075813293,,,,,,,,,,,,,,,,,,,,,,,,,,,,,,,,,,,,,,,,,,,,,,,,,,,,,,,,,,,,,,,,,,,,,,,,,,,,,,,,,,133.0,57.0,78.0,78.0,57.0,133.0,4.0,4.1,-164,-278,0,10,202,-275,466.5661823749542,466.5662226676941,466.56833362579346,466.58079075813293,466.7309534549713,466.7309534549713,466.7309534549713,466.7309534549713,466.7309534549713,466.7309534549713,466.7309534549713,468.6486961841583,1,2.0597383975982666,None,,,,,,,,,,,,,,,,,,177,3,2025-03-03_14h58.05.497,comp,2024.2.4,60.837094883904435,2025-03-03 14h58.19.485857 -0500,
91,91,0,critical,whd,35.0,2.1,upper,125.0,200.0,200.0,125.0,127.0,127.0,1,2.6878650188446045,None,,,,,0,0,0,0,0,91,91,13,468.66438126564026,,,,,,,,,,,,,,,,,,,,,,,,,,,,,,,,,,,,,,,,,,,,,,,,,,,,,,,,,,,,,,,,,,,,,,,,,,,,,,,,,,125.0,200.0,200.0,125.0,127.0,127.0,2.1,2.11,-258,267,0,287,222,-281,468.6495108604431,468.64955139160156,468.6519458293915,468.66438126564026,468.8144404888153,468.8144404888153,468.8144404888153,468.8144404888153,468.8144404888153,468.8144404888153,468.8144404888153,471.36576199531555,1,2.6878650188446045,None,,,,,,,,,,,,,,,,,,177,3,2025-03-03_14h58.05.497,comp,2024.2.4,60.837094883904435,2025-03-03 14h58.19.485857 -0500,
92,92,0,filler_square,None,None,None,None,None,None,None,None,None,None,1,1.7387378215789795,None,,,,,0,0,0,0,0,92,92,192,471.3808403015137,,,,,,,,,,,,,,,,,,,,,,,,,,,,,,,,,,,,,,,,,,,,,,,,,,,,,,,,,,,,,,,,,,,,,,,,,,,,,,,,,,156.01900134172183,156.01900134172183,63.41209166694965,134.9690893588086,72.09135296151504,155.30987788452265,4.0,4.2,-241,1,0,-251,241,4,471.36670088768005,471.36674189567566,471.36886382102966,471.3808403015137,471.5309591293335,471.5309591293335,471.5309591293335,471.5309591293335,471.5309591293335,471.5309591293335,471.5309591293335,473.1321256160736,1,1.7387378215789795,None,,,,,,,,,,,,,,,,,,177,3,2025-03-03_14h58.05.497,comp,2024.2.4,60.837094883904435,2025-03-03 14h58.19.485857 -0500,
93,93,0,critical,dwh,20.0,2.1,upper,141.0,141.0,125.0,200.0,200.0,125.0,2,2.372056484222412,None,,,,,0,0,0,0,0,93,93,31,473.147474527359,,,,,,,,,,,,,,,,,,,,,,,,,,,,,,,,,,,,,,,,,,,,,,,,,,,,,,,,,,,,,,,,,,,,,,,,,,,,,,,,,,141.0,141.0,125.0,200.0,200.0,125.0,2.1,2.11,-266,251,0,254,258,-284,473.1329026222229,473.1329400539398,473.13548135757446,473.147474527359,473.29782581329346,473.29782581329346,473.29782581329346,473.29782581329346,473.29782581329346,473.29782581329346,473.29782581329346,475.53241658210754,2,2.372056484222412,None,,,,,,,,,,,,,,,,,,177,3,2025-03-03_14h58.05.497,comp,2024.2.4,60.837094883904435,2025-03-03 14h58.19.485857 -0500,
94,94,0,critical,wdh,20.0,3.0,lower,57.0,133.0,78.0,78.0,133.0,57.0,1,2.820096254348755,None,,,,,0,0,0,0,0,94,94,80,475.5476577281952,,,,,,,,,,,,,,,,,,,,,,,,,,,,,,,,,,,,,,,,,,,,,,,,,,,,,,,,,,,,,,,,,,,,,,,,,,,,,,,,,,57.0,133.0,78.0,78.0,133.0,57.0,3.0,3.2,-202,-269,0,7,164,267,475.5332374572754,475.5332772731781,475.53547716140747,475.5476577281952,475.6975121498108,475.6975121498108,475.6975121498108,475.6975121498108,475.6975121498108,475.6975121498108,475.6975121498108,478.3820080757141,1,2.820096254348755,None,,,,,,,,,,,,,,,,,,177,3,2025-03-03_14h58.05.497,comp,2024.2.4,60.837094883904435,2025-03-03 14h58.19.485857 -0500,
95,95,0,critical,hdw,35.0,3.0,lower,133.0,57.0,70.0,70.0,57.0,133.0,3,2.018162250518799,None,,,,,0,0,0,0,0,95,95,110,478.39744091033936,,,,,,,,,,,,,,,,,,,,,,,,,,,,,,,,,,,,,,,,,,,,,,,,,,,,,,,,,,,,,,,,,,,,,,,,,,,,,,,,,,133.0,57.0,70.0,70.0,57.0,133.0,3.0,3.2,-160,-269,0,0,198,254,478.38280510902405,478.3828454017639,478.3853323459625,478.39744091033936,478.54762959480286,478.54762959480286,478.54762959480286,478.54762959480286,478.54762959480286,478.54762959480286,478.54762959480286,480.4319784641266,3,2.018162250518799,None,,,,,,,,,,,,,,,,,,177,3,2025-03-03_14h58.05.497,comp,2024.2.4,60.837094883904435,2025-03-03 14h58.19.485857 -0500,
96,96,0,filler_random,None,None,None,None,None,None,None,None,None,None,1,3.4505255222320557,None,,,,,0,0,0,0,0,96,96,145,480.4474196434021,,,,,,,,,,,,,,,,,,,,,,,,,,,,,,,,,,,,,,,,,,,,,,,,,,,,,,,,,,,,,,,,,,,,,,,,,,,,,,,,,,101.31865245852836,188.04968881334625,88.76191492080004,144.56141172133545,107.26416532694027,135.5456431186209,2.1,2.12,-262,-266,0,-260,236,256,480.4328889846802,480.4329297542572,480.4358847141266,480.4474196434021,480.59760212898254,480.59760212898254,480.59760212898254,480.59760212898254,480.59760212898254,480.59760212898254,480.59760212898254,483.89935755729675,1,3.4505255222320557,None,,,,,,,,,,,,,,,,,,177,3,2025-03-03_14h58.05.497,comp,2024.2.4,60.837094883904435,2025-03-03 14h58.19.485857 -0500,
97,97,0,critical,hdw,20.0,1.0,lower,133.0,57.0,78.0,78.0,57.0,133.0,3,3.204815149307251,None,,,,,0,0,0,0,0,97,97,114,483.91467332839966,,,,,,,,,,,,,,,,,,,,,,,,,,,,,,,,,,,,,,,,,,,,,,,,,,,,,,,,,,,,,,,,,,,,,,,,,,,,,,,,,,133.0,57.0,78.0,78.0,57.0,133.0,1.0,1.1,-644,253,-480,275,-278,257,483.9001462459564,483.90018677711487,483.90212845802307,483.91467332839966,484.06418347358704,484.06418347358704,484.06418347358704,484.06418347358704,484.06418347358704,484.06418347358704,484.06418347358704,487.1320729255676,3,3.204815149307251,None,,,,,,,,,,,,,,,,,,177,3,2025-03-03_14h58.05.497,comp,2024.2.4,60.837094883904435,2025-03-03 14h58.19.485857 -0500,
98,98,0,critical,hwd,20.0,4.0,lower,133.0,57.0,57.0,133.0,78.0,78.0,1,3.5172784328460693,None,,,,,0,0,0,0,0,98,98,106,487.1474070549011,,,,,,,,,,,,,,,,,,,,,,,,,,,,,,,,,,,,,,,,,,,,,,,,,,,,,,,,,,,,,,,,,,,,,,,,,,,,,,,,,,133.0,57.0,57.0,133.0,78.0,78.0,4.0,4.1,-191,-257,0,20,202,-289,487.1328694820404,487.13291215896606,487.13561844825745,487.1474070549011,487.297550201416,487.297550201416,487.297550201416,487.297550201416,487.297550201416,487.297550201416,487.297550201416,490.682044506073,1,3.5172784328460693,None,,,,,,,,,,,,,,,,,,177,3,2025-03-03_14h58.05.497,comp,2024.2.4,60.837094883904435,2025-03-03 14h58.19.485857 -0500,
99,99,0,filler_square,None,None,None,None,None,None,None,None,None,None,1,1.2325737476348877,None,,,,,0,0,0,0,0,99,99,184,490.69740748405457,,,,,,,,,,,,,,,,,,,,,,,,,,,,,,,,,,,,,,,,,,,,,,,,,,,,,,,,,,,,,,,,,,,,,,,,,,,,,,,,,,126.82975738524719,126.82975738524719,65.18946756945617,74.29305524845185,62.11396451787508,97.49036989241495,2.1,2.11,-197,254,0,266,182,-276,490.6830174922943,490.6830577850342,490.68553352355957,490.69740748405457,490.84730291366577,490.84730291366577,490.84730291366577,490.84730291366577,490.84730291366577,490.84730291366577,490.84730291366577,491.94851517677307,1,1.2325737476348877,None,,,,,,,,,,,,,,,,,,177,3,2025-03-03_14h58.05.497,comp,2024.2.4,60.837094883904435,2025-03-03 14h58.19.485857 -0500,
100,100,0,critical,hwd,20.0,2.1,upper,200.0,125.0,125.0,200.0,141.0,141.0,2,2.8037309646606445,None,,,,,0,0,0,0,0,100,100,19,491.96397590637207,,,,,,,,,,,,,,,,,,,,,,,,,,,,,,,,,,,,,,,,,,,,,,,,,,,,,,,,,,,,,,,,,,,,,,,,,,,,,,,,,,200.0,125.0,125.0,200.0,141.0,141.0,2.1,2.11,-258,274,0,285,266,-256,491.9493064880371,491.949346780777,491.95168137550354,491.96397590637207,492.1148419380188,492.1148419380188,492.1148419380188,492.1148419380188,492.1148419380188,492.1148419380188,492.1148419380188,494.7820839881897,2,2.8037309646606445,None,,,,,,,,,,,,,,,,,,177,3,2025-03-03_14h58.05.497,comp,2024.2.4,60.837094883904435,2025-03-03 14h58.19.485857 -0500,
101,101,0,critical,hdw,35.0,1.0,lower,133.0,57.0,70.0,70.0,57.0,133.0,1,2.5485806465148926,None,,,,,0,0,0,0,0,101,101,108,494.7974388599396,,,,,,,,,,,,,,,,,,,,,,,,,,,,,,,,,,,,,,,,,,,,,,,,,,,,,,,,,,,,,,,,,,,,,,,,,,,,,,,,,,133.0,57.0,70.0,70.0,57.0,133.0,1.0,1.2,-160,7,0,19,198,-9,494.7828435897827,494.7828824520111,494.7854130268097,494.7974388599396,494.9474585056305,494.9474585056305,494.9474585056305,494.9474585056305,494.9474585056305,494.9474585056305,494.9474585056305,497.3488187789917,1,2.5485806465148926,None,,,,,,,,,,,,,,,,,,177,3,2025-03-03_14h58.05.497,comp,2024.2.4,60.837094883904435,2025-03-03 14h58.19.485857 -0500,
102,102,0,filler_random,None,None,None,None,None,None,None,None,None,None,2,2.0510621070861816,None,,,,,0,0,0,0,0,102,102,160,497.3644049167633,,,,,,,,,,,,,,,,,,,,,,,,,,,,,,,,,,,,,,,,,,,,,,,,,,,,,,,,,,,,,,,,,,,,,,,,,,,,,,,,,,184.362047086779,85.1571236600695,163.9769559437146,190.30449677741447,119.40294034876774,141.06257210712334,4.0,4.2,-234,18,0,-289,262,-3,497.3497076034546,497.3497474193573,497.3530983924866,497.3644049167633,497.5142698287964,497.5142698287964,497.5142698287964,497.5142698287964,497.5142698287964,497.5142698287964,497.5142698287964,499.4320056438446,2,2.0510621070861816,None,,,,,,,,,,,,,,,,,,177,3,2025-03-03_14h58.05.497,comp,2024.2.4,60.837094883904435,2025-03-03 14h58.19.485857 -0500,
103,103,0,filler_random,None,None,None,None,None,None,None,None,None,None,3,1.793311595916748,None,,,,,0,0,0,0,0,103,103,139,499.44729113578796,,,,,,,,,,,,,,,,,,,,,,,,,,,,,,,,,,,,,,,,,,,,,,,,,,,,,,,,,,,,,,,,,,,,,,,,,,,,,,,,,,112.65391925685375,159.7319682869333,115.47430720560769,85.8588761304354,177.68374405496795,108.84225210863335,4.0,4.2,-219,-1,0,-285,193,-10,499.43293619155884,499.4329776763916,499.4354796409607,499.44729113578796,499.59757256507874,499.59757256507874,499.59757256507874,499.59757256507874,499.59757256507874,499.59757256507874,499.59757256507874,501.248708486557,3,1.793311595916748,None,,,,,,,,,,,,,,,,,,177,3,2025-03-03_14h58.05.497,comp,2024.2.4,60.837094883904435,2025-03-03 14h58.19.485857 -0500,
104,104,0,filler_random,None,None,None,None,None,None,None,None,None,None,2,1.0978806018829346,None,,,,,0,0,0,0,0,104,104,153,501.2642123699188,,,,,,,,,,,,,,,,,,,,,,,,,,,,,,,,,,,,,,,,,,,,,,,,,,,,,,,,,,,,,,,,,,,,,,,,,,,,,,,,,,64.99288331885401,101.88730153316854,181.89738292249825,123.761541859343,157.67558937951847,104.1146900815539,2.2,2.21,-209,-263,0,264,210,262,501.24962425231934,501.24966406822205,501.2522690296173,501.2642123699188,501.41412806510925,501.41412806510925,501.41412806510925,501.41412806510925,501.41412806510925,501.41412806510925,501.41412806510925,502.36552906036377,2,1.0978806018829346,None,,,,,,,,,,,,,,,,,,177,3,2025-03-03_14h58.05.497,comp,2024.2.4,60.837094883904435,2025-03-03 14h58.19.485857 -0500,
105,105,0,filler_square,None,None,None,None,None,None,None,None,None,None,2,1.850710391998291,None,,,,,0,0,0,0,0,105,105,178,502.38083505630493,,,,,,,,,,,,,,,,,,,,,,,,,,,,,,,,,,,,,,,,,,,,,,,,,,,,,,,,,,,,,,,,,,,,,,,,,,,,,,,,,,61.27986388940377,112.67261926309921,142.20617617600175,142.20617617600175,130.2377122320252,83.20856060567652,4.0,4.2,-223,-15,0,-265,209,10,502.3664755821228,502.3665180206299,502.3687012195587,502.38083505630493,502.5307867527008,502.5307867527008,502.5307867527008,502.5307867527008,502.5307867527008,502.5307867527008,502.5307867527008,504.24849581718445,2,1.850710391998291,None,,,,,,,,,,,,,,,,,,177,3,2025-03-03_14h58.05.497,comp,2024.2.4,60.837094883904435,2025-03-03 14h58.19.485857 -0500,
106,106,0,filler_random,None,None,None,None,None,None,None,None,None,None,2,1.1514098644256592,None,,,,,0,0,0,0,0,106,106,158,504.26405572891235,,,,,,,,,,,,,,,,,,,,,,,,,,,,,,,,,,,,,,,,,,,,,,,,,,,,,,,,,,,,,,,,,,,,,,,,,,,,,,,,,,119.52970538108599,129.3093020556949,158.51419195396613,155.3564187301641,182.81151364488852,126.0534814478099,2.2,2.22,-238,279,0,-254,237,-267,504.2494146823883,504.2494704723358,504.25162506103516,504.26405572891235,504.4141330718994,504.4141330718994,504.4141330718994,504.4141330718994,504.4141330718994,504.4141330718994,504.4141330718994,505.43200063705444,2,1.1514098644256592,None,,,,,,,,,,,,,,,,,,177,3,2025-03-03_14h58.05.497,comp,2024.2.4,60.837094883904435,2025-03-03 14h58.19.485857 -0500,
107,107,0,critical,hdw,35.0,3.0,upper,200.0,125.0,127.0,127.0,125.0,200.0,3,1.8880748748779297,None,,,,,0,0,0,0,0,107,107,111,505.4472963809967,,,,,,,,,,,,,,,,,,,,,,,,,,,,,,,,,,,,,,,,,,,,,,,,,,,,,,,,,,,,,,,,,,,,,,,,,,,,,,,,,,200.0,125.0,127.0,127.0,125.0,200.0,3.0,3.2,-222,-268,0,-8,260,277,505.43279218673706,505.43283128738403,505.43526244163513,505.4472963809967,505.5975077152252,505.5975077152252,505.5975077152252,505.5975077152252,505.5975077152252,505.5975077152252,505.5975077152252,507.34861397743225,3,1.8880748748779297,None,,,,,,,,,,,,,,,,,,177,3,2025-03-03_14h58.05.497,comp,2024.2.4,60.837094883904435,2025-03-03 14h58.19.485857 -0500,
108,108,0,critical,hdw,35.0,1.0,upper,200.0,125.0,127.0,127.0,125.0,200.0,3,1.7662911415100098,None,,,,,0,0,0,0,0,108,108,109,507.3638062477112,,,,,,,,,,,,,,,,,,,,,,,,,,,,,,,,,,,,,,,,,,,,,,,,,,,,,,,,,,,,,,,,,,,,,,,,,,,,,,,,,,200.0,125.0,127.0,127.0,125.0,200.0,1.0,1.2,-222,4,0,-8,260,-6,507.3493719100952,507.3494122028351,507.35268354415894,507.3638062477112,507.514128446579,507.514128446579,507.514128446579,507.514128446579,507.514128446579,507.514128446579,507.514128446579,509.1321475505829,3,1.7662911415100098,None,,,,,,,,,,,,,,,,,,177,3,2025-03-03_14h58.05.497,comp,2024.2.4,60.837094883904435,2025-03-03 14h58.19.485857 -0500,
109,109,0,critical,hdw,35.0,4.0,lower,133.0,57.0,70.0,70.0,57.0,133.0,3,2.187866449356079,None,,,,,0,0,0,0,0,109,109,112,509.1475119590759,,,,,,,,,,,,,,,,,,,,,,,,,,,,,,,,,,,,,,,,,,,,,,,,,,,,,,,,,,,,,,,,,,,,,,,,,,,,,,,,,,133.0,57.0,70.0,70.0,57.0,133.0,4.0,4.1,-160,-278,0,-13,198,-264,509.1329448223114,509.13298511505127,509.135103225708,509.1475119590759,509.29758286476135,509.29758286476135,509.29758286476135,509.29758286476135,509.29758286476135,509.29758286476135,509.29758286476135,511.34834384918213,3,2.187866449356079,None,,,,,,,,,,,,,,,,,,177,3,2025-03-03_14h58.05.497,comp,2024.2.4,60.837094883904435,2025-03-03 14h58.19.485857 -0500,
110,110,0,filler_square,None,None,None,None,None,None,None,None,None,None,2,1.2041618824005127,None,,,,,0,0,0,0,0,110,110,204,511.3638436794281,,,,,,,,,,,,,,,,,,,,,,,,,,,,,,,,,,,,,,,,,,,,,,,,,,,,,,,,,,,,,,,,,,,,,,,,,,,,,,,,,,157.22353439032844,65.80951324707772,162.57973688948664,162.57973688948664,132.3171428526399,70.03390459680985,4.0,4.1,-210,-274,0,-19,212,-269,511.3493103981018,511.34935092926025,511.35143089294434,511.3638436794281,511.5140118598938,511.5140118598938,511.5140118598938,511.5140118598938,511.5140118598938,511.5140118598938,511.5140118598938,512.5819087028503,2,1.2041618824005127,None,,,,,,,,,,,,,,,,,,177,3,2025-03-03_14h58.05.497,comp,2024.2.4,60.837094883904435,2025-03-03 14h58.19.485857 -0500,
111,111,0,critical,hdw,35.0,2.1,upper,200.0,125.0,127.0,127.0,125.0,200.0,1,1.443288803100586,None,,,,,0,0,0,0,0,111,111,45,512.59725689888,,,,,,,,,,,,,,,,,,,,,,,,,,,,,,,,,,,,,,,,,,,,,,,,,,,,,,,,,,,,,,,,,,,,,,,,,,,,,,,,,,200.0,125.0,127.0,127.0,125.0,200.0,2.1,2.11,-222,285,0,255,260,-281,512.5826840400696,512.5827243328094,512.5851826667786,512.59725689888,512.7474267482758,512.7474267482758,512.7474267482758,512.7474267482758,512.7474267482758,512.7474267482758,512.7474267482758,514.0486001968384,1,1.443288803100586,None,,,,,,,,,,,,,,,,,,177,3,2025-03-03_14h58.05.497,comp,2024.2.4,60.837094883904435,2025-03-03 14h58.19.485857 -0500,
112,112,0,critical,wdh,35.0,4.0,upper,125.0,200.0,127.0,127.0,200.0,125.0,3,2.89735746383667,None,,,,,0,0,0,0,0,112,112,77,514.0640795230865,,,,,,,,,,,,,,,,,,,,,,,,,,,,,,,,,,,,,,,,,,,,,,,,,,,,,,,,,,,,,,,,,,,,,,,,,,,,,,,,,,125.0,200.0,127.0,127.0,200.0,125.0,4.0,4.1,-260,-284,0,-7,222,-278,514.0493745803833,514.0494146347046,514.0516018867493,514.0640795230865,514.2141823768616,514.2141823768616,514.2141823768616,514.2141823768616,514.2141823768616,514.2141823768616,514.2141823768616,516.9653804302216,3,2.89735746383667,None,,,,,,,,,,,,,,,,,,177,3,2025-03-03_14h58.05.497,comp,2024.2.4,60.837094883904435,2025-03-03 14h58.19.485857 -0500,
113,113,0,critical,hdw,20.0,2.1,lower,133.0,57.0,78.0,78.0,57.0,133.0,3,4.700078248977661,None,,,,,0,0,0,0,0,113,113,22,516.9806690216064,,,,,,,,,,,,,,,,,,,,,,,,,,,,,,,,,,,,,,,,,,,,,,,,,,,,,,,,,,,,,,,,,,,,,,,,,,,,,,,,,,133.0,57.0,78.0,78.0,57.0,133.0,2.1,2.11,-164,283,0,287,202,-267,516.9663169384003,516.9663579463959,516.9684131145477,516.9806690216064,517.1305825710297,517.1305825710297,517.1305825710297,517.1305825710297,517.1305825710297,517.1305825710297,517.1305825710297,521.6819005012512,3,4.700078248977661,None,,,,,,,,,,,,,,,,,,177,3,2025-03-03_14h58.05.497,comp,2024.2.4,60.837094883904435,2025-03-03 14h58.19.485857 -0500,
114,114,0,filler_square,None,None,None,None,None,None,None,None,None,None,3,3.205817222595215,None,,,,,0,0,0,0,0,114,114,176,521.6973993778229,,,,,,,,,,,,,,,,,,,,,,,,,,,,,,,,,,,,,,,,,,,,,,,,,,,,,,,,,,,,,,,,,,,,,,,,,,,,,,,,,,61.58461428189292,107.2515754870648,137.84109774375975,100.09562291479241,156.1260010207797,156.1260010207797,2.1,2.12,-200,-282,0,-290,224,277,521.6828582286835,521.6828997135162,521.6852641105652,521.6973993778229,521.8475363254547,521.8475363254547,521.8475363254547,521.8475363254547,521.8475363254547,521.8475363254547,521.8475363254547,524.9152231216431,3,3.205817222595215,None,,,,,,,,,,,,,,,,,,177,3,2025-03-03_14h58.05.497,comp,2024.2.4,60.837094883904435,2025-03-03 14h58.19.485857 -0500,
115,115,0,filler_random,None,None,None,None,None,None,None,None,None,None,2,1.0535814762115479,None,,,,,0,0,0,0,0,115,115,156,524.9304935932159,,,,,,,,,,,,,,,,,,,,,,,,,,,,,,,,,,,,,,,,,,,,,,,,,,,,,,,,,,,,,,,,,,,,,,,,,,,,,,,,,,97.22294815886359,87.82703329688752,161.13001035543857,194.97974820554327,119.41609791094118,132.6871007605103,2.2,2.22,-237,265,0,-264,260,-277,524.9161429405212,524.9161849021912,524.9187595844269,524.9304935932159,525.0806496143341,525.0806496143341,525.0806496143341,525.0806496143341,525.0806496143341,525.0806496143341,525.0806496143341,525.9985198974609,2,1.0535814762115479,None,,,,,,,,,,,,,,,,,,177,3,2025-03-03_14h58.05.497,comp,2024.2.4,60.837094883904435,2025-03-03 14h58.19.485857 -0500,
116,116,0,filler_random,None,None,None,None,None,None,None,None,None,None,3,2.699960470199585,None,,,,,0,0,0,0,0,116,116,149,526.0139224529266,,,,,,,,,,,,,,,,,,,,,,,,,,,,,,,,,,,,,,,,,,,,,,,,,,,,,,,,,,,,,,,,,,,,,,,,,,,,,,,,,,147.7469880839913,161.2384021678888,68.28743988059252,152.94832409973162,175.61997028097852,170.30592136322355,2.2,2.22,-253,269,0,-258,258,-267,525.9994294643402,525.9994866847992,526.0016767978668,526.0139224529266,526.1640796661377,526.1640796661377,526.1640796661377,526.1640796661377,526.1640796661377,526.1640796661377,526.1640796661377,528.7320935726166,3,2.699960470199585,None,,,,,,,,,,,,,,,,,,177,3,2025-03-03_14h58.05.497,comp,2024.2.4,60.837094883904435,2025-03-03 14h58.19.485857 -0500,
117,117,0,filler_square,None,None,None,None,None,None,None,None,None,None,2,2.556025505065918,None,,,,,0,0,0,0,0,117,117,201,528.7471108436584,,,,,,,,,,,,,,,,,,,,,,,,,,,,,,,,,,,,,,,,,,,,,,,,,,,,,,,,,,,,,,,,,,,,,,,,,,,,,,,,,,74.0692171492311,70.28599208673799,74.58993143426727,71.80773099314625,76.13136614114968,76.13136614114968,1.0,1.2,-167,0,0,14,170,-15,528.7330310344696,528.7330706119537,528.7355563640594,528.7471108436584,528.8970594406128,528.8970594406128,528.8970594406128,528.8970594406128,528.8970594406128,528.8970594406128,528.8970594406128,531.3151390552521,2,2.556025505065918,None,,,,,,,,,,,,,,,,,,177,3,2025-03-03_14h58.05.497,comp,2024.2.4,60.837094883904435,2025-03-03 14h58.19.485857 -0500,
118,118,0,critical,whd,20.0,2.1,upper,125.0,200.0,200.0,125.0,141.0,141.0,1,2.767090082168579,None,,,,,0,0,0,0,0,118,118,15,531.3303999900818,,,,,,,,,,,,,,,,,,,,,,,,,,,,,,,,,,,,,,,,,,,,,,,,,,,,,,,,,,,,,,,,,,,,,,,,,,,,,,,,,,125.0,200.0,200.0,125.0,141.0,141.0,2.1,2.12,-258,-287,0,-273,229,255,531.3159198760986,531.3159596920013,531.3184854984283,531.3303999900818,531.4807493686676,531.4807493686676,531.4807493686676,531.4807493686676,531.4807493686676,531.4807493686676,531.4807493686676,534.1151838302612,1,2.767090082168579,None,,,,,,,,,,,,,,,,,,177,3,2025-03-03_14h58.05.497,comp,2024.2.4,60.837094883904435,2025-03-03 14h58.19.485857 -0500,
119,119,0,filler_square,None,None,None,None,None,None,None,None,None,None,2,1.9887056350708008,None,,,,,0,0,0,0,0,119,119,203,534.1304636001587,,,,,,,,,,,,,,,,,,,,,,,,,,,,,,,,,,,,,,,,,,,,,,,,,,,,,,,,,,,,,,,,,,,,,,,,,,,,,,,,,,59.271922489549574,59.271922489549574,58.612967047819645,58.66895595079356,59.14380220686481,57.19885415193072,2.2,2.22,-155,276,0,-257,154,-284,534.1161196231842,534.1161584854126,534.1186783313751,534.1304636001587,534.2804846763611,534.2804846763611,534.2804846763611,534.2804846763611,534.2804846763611,534.2804846763611,534.2804846763611,536.1317420005798,2,1.9887056350708008,None,,,,,,,,,,,,,,,,,,177,3,2025-03-03_14h58.05.497,comp,2024.2.4,60.837094883904435,2025-03-03 14h58.19.485857 -0500,
120,120,0,critical,wdh,35.0,3.0,upper,125.0,200.0,127.0,127.0,200.0,125.0,1,5.46108078956604,None,,,,,0,0,0,0,0,120,120,75,536.1469490528107,,,,,,,,,,,,,,,,,,,,,,,,,,,,,,,,,,,,,,,,,,,,,,,,,,,,,,,,,,,,,,,,,,,,,,,,,,,,,,,,,,125.0,200.0,127.0,127.0,200.0,125.0,3.0,3.2,-260,-256,0,10,222,286,536.1325480937958,536.1325886249542,536.1350510120392,536.1469490528107,536.2974948883057,536.2974948883057,536.2974948883057,536.2974948883057,536.2974948883057,536.2974948883057,536.2974948883057,541.6151049137115,1,5.46108078956604,None,,,,,,,,,,,,,,,,,,177,3,2025-03-03_14h58.05.497,comp,2024.2.4,60.837094883904435,2025-03-03 14h58.19.485857 -0500,
121,121,0,filler_square,None,None,None,None,None,None,None,None,None,None,1,1.0169551372528076,None,,,,,0,0,0,0,0,121,121,190,541.6305689811707,,,,,,,,,,,,,,,,,,,,,,,,,,,,,,,,,,,,,,,,,,,,,,,,,,,,,,,,,,,,,,,,,,,,,,,,,,,,,,,,,,149.46572326080792,149.46572326080792,84.50629008747416,126.8981278187937,109.21836457274104,101.33172172979367,4.0,4.2,-234,8,0,-256,210,7,541.6160509586334,541.6160926818848,541.6185472011566,541.6305689811707,541.7805840969086,541.7805840969086,541.7805840969086,541.7805840969086,541.7805840969086,541.7805840969086,541.7805840969086,542.6649544239044,1,1.0169551372528076,None,,,,,,,,,,,,,,,,,,177,3,2025-03-03_14h58.05.497,comp,2024.2.4,60.837094883904435,2025-03-03 14h58.19.485857 -0500,
122,122,0,critical,dhw,35.0,2.1,upper,127.0,127.0,200.0,125.0,125.0,200.0,2,1.4337852001190186,None,,,,,0,0,0,0,0,122,122,25,542.6802871227264,,,,,,,,,,,,,,,,,,,,,,,,,,,,,,,,,,,,,,,,,,,,,,,,,,,,,,,,,,,,,,,,,,,,,,,,,,,,,,,,,,127.0,127.0,200.0,125.0,125.0,200.0,2.1,2.11,-222,287,0,281,258,-285,542.6657304763794,542.6657707691193,542.668200969696,542.6802871227264,542.8306884765625,542.8306884765625,542.8306884765625,542.8306884765625,542.8306884765625,542.8306884765625,542.8306884765625,544.1319379806519,2,1.4337852001190186,None,,,,,,,,,,,,,,,,,,177,3,2025-03-03_14h58.05.497,comp,2024.2.4,60.837094883904435,2025-03-03 14h58.19.485857 -0500,
123,123,0,critical,hwd,20.0,1.0,lower,133.0,57.0,57.0,133.0,78.0,78.0,2,2.341296672821045,None,,,,,0,0,0,0,0,123,123,102,544.146945476532,,,,,,,,,,,,,,,,,,,,,,,,,,,,,,,,,,,,,,,,,,,,,,,,,,,,,,,,,,,,,,,,,,,,,,,,,,,,,,,,,,133.0,57.0,57.0,133.0,78.0,78.0,1.0,1.1,-671,254,-480,267,-278,257,544.1327276229858,544.13276720047,544.1351249217987,544.146945476532,544.2972292900085,544.2972292900085,544.2972292900085,544.2972292900085,544.2972292900085,544.2972292900085,544.2972292900085,546.4981195926666,2,2.341296672821045,None,,,,,,,,,,,,,,,,,,177,3,2025-03-03_14h58.05.497,comp,2024.2.4,60.837094883904435,2025-03-03 14h58.19.485857 -0500,
124,124,0,filler_square,None,None,None,None,None,None,None,None,None,None,3,1.5744879245758057,None,,,,,0,0,0,0,0,124,124,174,546.5139427185059,,,,,,,,,,,,,,,,,,,,,,,,,,,,,,,,,,,,,,,,,,,,,,,,,,,,,,,,,,,,,,,,,,,,,,,,,,,,,,,,,,107.0271995524694,91.97598815089403,117.69144927361674,71.43106933544641,131.653898186744,131.653898186744,2.2,2.21,-178,-283,0,277,198,253,546.4990966320038,546.4991376399994,546.5017857551575,546.5139427185059,546.6637148857117,546.6637148857117,546.6637148857117,546.6637148857117,546.6637148857117,546.6637148857117,546.6637148857117,548.098203420639,3,1.5744879245758057,None,,,,,,,,,,,,,,,,,,177,3,2025-03-03_14h58.05.497,comp,2024.2.4,60.837094883904435,2025-03-03 14h58.19.485857 -0500,
125,125,0,filler_square,None,None,None,None,None,None,None,None,None,None,2,1.6782312393188477,None,,,,,0,0,0,0,0,125,125,193,548.1139149665833,,,,,,,,,,,,,,,,,,,,,,,,,,,,,,,,,,,,,,,,,,,,,,,,,,,,,,,,,,,,,,,,,,,,,,,,,,,,,,,,,,89.90969403957071,64.76255646128797,95.62824942815001,95.62824942815001,82.15179556866208,79.44384598960285,4.0,4.2,-176,-7,0,-290,184,6,548.0991604328156,548.0992014408112,548.1018788814545,548.1139149665833,548.2636330127716,548.2636330127716,548.2636330127716,548.2636330127716,548.2636330127716,548.2636330127716,548.2636330127716,549.7982268333435,2,1.6782312393188477,None,,,,,,,,,,,,,,,,,,177,3,2025-03-03_14h58.05.497,comp,2024.2.4,60.837094883904435,2025-03-03 14h58.19.485857 -0500,
126,126,0,critical,hwd,20.0,1.0,upper,200.0,125.0,125.0,200.0,141.0,141.0,2,2.1377360820770264,None,,,,,0,0,0,0,0,126,126,103,549.8138763904572,,,,,,,,,,,,,,,,,,,,,,,,,,,,,,,,,,,,,,,,,,,,,,,,,,,,,,,,,,,,,,,,,,,,,,,,,,,,,,,,,,200.0,125.0,125.0,200.0,141.0,141.0,1.0,1.2,-258,9,0,-10,266,-6,549.7989881038666,549.799028635025,549.8010251522064,549.8138763904572,549.9639368057251,549.9639368057251,549.9639368057251,549.9639368057251,549.9639368057251,549.9639368057251,549.9639368057251,551.9649751186371,2,2.1377360820770264,None,,,,,,,,,,,,,,,,,,177,3,2025-03-03_14h58.05.497,comp,2024.2.4,60.837094883904435,2025-03-03 14h58.19.485857 -0500,
127,127,0,critical,dhw,35.0,2.1,lower,70.0,70.0,133.0,57.0,57.0,133.0,3,11.675135374069214,None,,,,,0,0,0,0,0,127,127,0,551.9968473911285,,,,,,,,,,,,,,,,,,,,,,,,,,,,,,,,,,,,,,,,,,,,,,,,,,,,,,,,,,,,,,,,,,,,,,,,,,,,,,,,,,70.0,70.0,133.0,57.0,57.0,133.0,2.1,2.11,-160,257,0,267,191,-270,551.9657876491547,551.9658284187317,551.9682579040527,551.9968473911285,552.1302628517151,552.1302628517151,552.1302628517151,552.1302628517151,552.1302628517151,552.1302628517151,552.1302628517151,563.6813383102417,3,11.675135374069214,None,,,,,,,,,,,,,,,,,,177,3,2025-03-03_14h58.05.497,comp,2024.2.4,60.837094883904435,2025-03-03 14h58.19.485857 -0500,
128,128,0,filler_random,None,None,None,None,None,None,None,None,None,None,1,1.6948304176330566,None,,,,,0,0,0,0,0,128,128,133,563.6970903873444,,,,,,,,,,,,,,,,,,,,,,,,,,,,,,,,,,,,,,,,,,,,,,,,,,,,,,,,,,,,,,,,,,,,,,,,,,,,,,,,,,196.91436649882067,182.43593073939817,109.27099350584189,179.46772529839808,176.9016328885455,86.75237572199116,2.2,2.22,-277,261,0,-286,229,-252,563.6822557449341,563.6822969913483,563.68439412117,563.6970903873444,563.847377538681,563.847377538681,563.847377538681,563.847377538681,563.847377538681,563.847377538681,563.847377538681,565.3982737064362,1,1.6948304176330566,None,,,,,,,,,,,,,,,,,,177,3,2025-03-03_14h58.05.497,comp,2024.2.4,60.837094883904435,2025-03-03 14h58.19.485857 -0500,
129,129,0,critical,hwd,20.0,4.0,upper,200.0,125.0,125.0,200.0,141.0,141.0,2,1.650498390197754,None,,,,,0,0,0,0,0,129,129,107,565.413649559021,,,,,,,,,,,,,,,,,,,,,,,,,,,,,,,,,,,,,,,,,,,,,,,,,,,,,,,,,,,,,,,,,,,,,,,,,,,,,,,,,,200.0,125.0,125.0,200.0,141.0,141.0,4.0,4.2,-258,1,0,-284,266,9,565.3990733623505,565.3991146087646,565.4017403125763,565.413649559021,565.5638401508331,565.5638401508331,565.5638401508331,565.5638401508331,565.5638401508331,565.5638401508331,565.5638401508331,567.0815672874451,2,1.650498390197754,None,,,,,,,,,,,,,,,,,,177,3,2025-03-03_14h58.05.497,comp,2024.2.4,60.837094883904435,2025-03-03 14h58.19.485857 -0500,
130,130,0,critical,wdh,20.0,4.0,lower,57.0,133.0,78.0,78.0,133.0,57.0,3,1.5112874507904053,None,,,,,0,0,0,0,0,130,130,82,567.0968222618103,,,,,,,,,,,,,,,,,,,,,,,,,,,,,,,,,,,,,,,,,,,,,,,,,,,,,,,,,,,,,,,,,,,,,,,,,,,,,,,,,,57.0,133.0,78.0,78.0,133.0,57.0,4.0,4.1,-202,-278,0,16,164,-281,567.0823290348053,567.0823681354523,567.0843915939331,567.0968222618103,567.2471544742584,567.2471544742584,567.2471544742584,567.2471544742584,567.2471544742584,567.2471544742584,567.2471544742584,568.6147305965424,3,1.5112874507904053,None,,,,,,,,,,,,,,,,,,177,3,2025-03-03_14h58.05.497,comp,2024.2.4,60.837094883904435,2025-03-03 14h58.19.485857 -0500,
131,131,0,filler_square,None,None,None,None,None,None,None,None,None,None,1,2.2500112056732178,None,,,,,0,0,0,0,0,131,131,194,568.6304016113281,,,,,,,,,,,,,,,,,,,,,,,,,,,,,,,,,,,,,,,,,,,,,,,,,,,,,,,,,,,,,,,,,,,,,,,,,,,,,,,,,,60.17022410795041,60.17022410795041,57.727881904640306,58.71869338587513,58.99572969853643,57.3701523437925,2.2,2.22,-155,281,0,-285,154,-254,568.6157476902008,568.6157896518707,568.6179549694061,568.6304016113281,568.7802753448486,568.7802753448486,568.7802753448486,568.7802753448486,568.7802753448486,568.7802753448486,568.7802753448486,570.898042678833,1,2.2500112056732178,None,,,,,,,,,,,,,,,,,,177,3,2025-03-03_14h58.05.497,comp,2024.2.4,60.837094883904435,2025-03-03 14h58.19.485857 -0500,
132,132,0,critical,wdh,20.0,1.0,lower,57.0,133.0,78.0,78.0,133.0,57.0,1,1.4855501651763916,None,,,,,0,0,0,0,0,132,132,78,570.9134783744812,,,,,,,,,,,,,,,,,,,,,,,,,,,,,,,,,,,,,,,,,,,,,,,,,,,,,,,,,,,,,,,,,,,,,,,,,,,,,,,,,,57.0,133.0,78.0,78.0,133.0,57.0,1.0,1.2,-202,16,0,18,164,-9,570.8988242149353,570.8988647460938,570.9013516902924,570.9134783744812,571.0635459423065,571.0635459423065,571.0635459423065,571.0635459423065,571.0635459423065,571.0635459423065,571.0635459423065,572.4147214889526,1,1.4855501651763916,None,,,,,,,,,,,,,,,,,,177,3,2025-03-03_14h58.05.497,comp,2024.2.4,60.837094883904435,2025-03-03 14h58.19.485857 -0500,
133,133,0,critical,hwd,20.0,3.0,upper,200.0,125.0,125.0,200.0,141.0,141.0,1,1.737030029296875,None,,,,,0,0,0,0,0,133,133,105,572.4300742149353,,,,,,,,,,,,,,,,,,,,,,,,,,,,,,,,,,,,,,,,,,,,,,,,,,,,,,,,,,,,,,,,,,,,,,,,,,,,,,,,,,200.0,125.0,125.0,200.0,141.0,141.0,3.0,3.2,-258,-274,0,-19,266,267,572.4155106544495,572.415549993515,572.4179275035858,572.4300742149353,572.5804724693298,572.5804724693298,572.5804724693298,572.5804724693298,572.5804724693298,572.5804724693298,572.5804724693298,574.1816232204437,1,1.737030029296875,None,,,,,,,,,,,,,,,,,,177,3,2025-03-03_14h58.05.497,comp,2024.2.4,60.837094883904435,2025-03-03 14h58.19.485857 -0500,
134,134,0,critical,whd,20.0,3.0,lower,57.0,133.0,133.0,57.0,78.0,78.0,2,1.1008074283599854,None,,,,,0,0,0,0,0,134,134,92,574.1968650817871,,,,,,,,,,,,,,,,,,,,,,,,,,,,,,,,,,,,,,,,,,,,,,,,,,,,,,,,,,,,,,,,,,,,,,,,,,,,,,,,,,57.0,133.0,133.0,57.0,78.0,78.0,3.0,3.2,-191,-268,0,-5,164,260,574.1825172901154,574.1825580596924,574.1850166320801,574.1968650817871,574.3469557762146,574.3469557762146,574.3469557762146,574.3469557762146,574.3469557762146,574.3469557762146,574.3469557762146,575.3145670890808,2,1.1008074283599854,None,,,,,,,,,,,,,,,,,,177,3,2025-03-03_14h58.05.497,comp,2024.2.4,60.837094883904435,2025-03-03 14h58.19.485857 -0500,
135,135,0,critical,dhw,35.0,4.0,lower,70.0,70.0,133.0,57.0,57.0,133.0,3,1.5503954887390137,None,,,,,0,0,0,0,0,135,135,52,575.3299717903137,,,,,,,,,,,,,,,,,,,,,,,,,,,,,,,,,,,,,,,,,,,,,,,,,,,,,,,,,,,,,,,,,,,,,,,,,,,,,,,,,,70.0,70.0,133.0,57.0,57.0,133.0,4.0,4.1,-160,-267,0,18,191,-288,575.3153557777405,575.3153958320618,575.3177530765533,575.3299717903137,575.4803512096405,575.4803512096405,575.4803512096405,575.4803512096405,575.4803512096405,575.4803512096405,575.4803512096405,576.8980479240417,3,1.5503954887390137,None,,,,,,,,,,,,,,,,,,177,3,2025-03-03_14h58.05.497,comp,2024.2.4,60.837094883904435,2025-03-03 14h58.19.485857 -0500,
136,136,0,critical,dhw,35.0,3.0,lower,70.0,70.0,133.0,57.0,57.0,133.0,2,1.0159597396850586,None,,,,,0,0,0,0,0,136,136,50,576.9133558273315,,,,,,,,,,,,,,,,,,,,,,,,,,,,,,,,,,,,,,,,,,,,,,,,,,,,,,,,,,,,,,,,,,,,,,,,,,,,,,,,,,70.0,70.0,133.0,57.0,57.0,133.0,3.0,3.2,-160,-289,0,19,191,265,576.8988490104675,576.8988890647888,576.9013586044312,576.9133558273315,577.0635094642639,577.0635094642639,577.0635094642639,577.0635094642639,577.0635094642639,577.0635094642639,577.0635094642639,577.9315860271454,2,1.0159597396850586,None,,,,,,,,,,,,,,,,,,177,3,2025-03-03_14h58.05.497,comp,2024.2.4,60.837094883904435,2025-03-03 14h58.19.485857 -0500,
137,137,0,catch,None,None,None,None,None,None,None,None,None,None,3,1.198514461517334,None,,,,,0,0,0,0,0,137,137,127,577.9469866752625,,,,,,,,,,,,,,,,,,,,,,,,,,,,,,,,,,,,,,,,,,,,,,,,,,,,,,,,,,,,,,,,,,,,,,,,,,,,,,,,,,127,63,131,59,139,186,1.0,1.2,-157,6,0,2,218,-7,577.9325914382935,577.9326319694519,577.9347219467163,577.9469866752625,578.0970995426178,578.0970995426178,578.0970995426178,578.0970995426178,578.0970995426178,578.0970995426178,578.0970995426178,579.1483640670776,3,1.198514461517334,None,,,,,,,,,,,,,,,,,,177,3,2025-03-03_14h58.05.497,comp,2024.2.4,60.837094883904435,2025-03-03 14h58.19.485857 -0500,
138,138,0,critical,wdh,20.0,1.0,upper,125.0,200.0,141.0,141.0,200.0,125.0,1,3.7169084548950195,None,,,,,0,0,0,0,0,138,138,79,579.1637058258057,,,,,,,,,,,,,,,,,,,,,,,,,,,,,,,,,,,,,,,,,,,,,,,,,,,,,,,,,,,,,,,,,,,,,,,,,,,,,,,,,,125.0,200.0,141.0,141.0,200.0,125.0,1.0,1.3,214,-264,480,-264,709,-289,579.1491632461548,579.1492030620575,579.1515202522278,579.1637058258057,579.3137340545654,579.3137340545654,579.3137340545654,579.3137340545654,579.3137340545654,579.3137340545654,579.3137340545654,582.8817501068115,1,3.7169084548950195,None,,,,,,,,,,,,,,,,,,177,3,2025-03-03_14h58.05.497,comp,2024.2.4,60.837094883904435,2025-03-03 14h58.19.485857 -0500,
139,139,0,filler_square,None,None,None,None,None,None,None,None,None,None,3,1.0164692401885986,None,,,,,0,0,0,0,0,139,139,171,582.8971059322357,,,,,,,,,,,,,,,,,,,,,,,,,,,,,,,,,,,,,,,,,,,,,,,,,,,,,,,,,,,,,,,,,,,,,,,,,,,,,,,,,,64.4706419584728,113.91129822822384,108.02928009418,74.47051807988717,117.34187704028557,117.34187704028557,1.0,1.1,-670,266,-480,290,-288,252,582.8828818798065,582.8829386234283,582.8854222297668,582.8971059322357,583.0473594665527,583.0473594665527,583.0473594665527,583.0473594665527,583.0473594665527,583.0473594665527,583.0473594665527,583.9148511886597,3,1.0164692401885986,None,,,,,,,,,,,,,,,,,,177,3,2025-03-03_14h58.05.497,comp,2024.2.4,60.837094883904435,2025-03-03 14h58.19.485857 -0500,
