thisN,thisTrialN,thisRepN,effect,order,distance,config,diag,h_1,w_1,h_2,w_2,h_3,w_3,rect_choice.keys,rect_choice.rt,rect_choice.duration,instructions_loop.thisRepN,instructions_loop.thisTrialN,instructions_loop.thisN,instructions_loop.thisIndex,blocks.thisRepN,blocks.thisTrialN,blocks.thisN,blocks.thisIndex,trials.thisRepN,trials.thisTrialN,trials.thisN,trials.thisIndex,thisRow.t,notes,consent.started,agree_button.started,decline_button.started,consent_img.started,mouse.started,consent.stopped,agree_button.numClicks,agree_button.timesOn,agree_button.timesOff,decline_button.numClicks,decline_button.timesOn,decline_button.timesOff,mouse.x,mouse.y,mouse.leftButton,mouse.midButton,mouse.rightButton,mouse.time,mouse.clicked_name,exp_params.started,exp_params.stopped,welcome.started,welcome_text.started,welcome.stopped,instructions_1.started,instructions_1_text_1.started,instructions_1_text_2.started,key_resp.started,instructions_1.stopped,instructions_loop.key_resp.keys,instructions_loop.key_resp.rt,instructions_loop.key_resp.duration,instructions_2.started,instructions_2_text_1.started,instructions_2_text_2.started,key_resp_2.started,instructions_2.stopped,instructions_loop.key_resp_2.keys,instructions_loop.key_resp_2.rt,instructions_loop.key_resp_2.duration,instructions_3.started,instructions_3_text_1.started,r1_instr3.started,r2_instr3.started,r3_instr3.started,r1_instr3_label.started,r2_instr3_label.started,r3_instr3_label.started,instructions_3_text_3.started,instructions_3_text_4.started,key_resp_3.started,instructions_3.stopped,instructions_loop.key_resp_3.keys,instructions_loop.key_resp_3.rt,instructions_loop.key_resp_3.duration,instructions_4.started,instructions_4_text_1.started,instructions_4_text_3.started,instructions_4_text_2.started,key_resp_4.started,instructions_4.stopped,instructions_loop.key_resp_4.keys,instructions_loop.key_resp_4.rt,instructions_loop.key_resp_4.duration,instructions_5.started,instructions_5_text_1.started,instructions_5_text_2.started,key_resp_5.started,instructions_5.stopped,instructions_loop.key_resp_5.keys,instructions_loop.key_resp_5.rt,instructions_loop.key_resp_5.duration,start_exp.started,start_exp_text.started,key_resp_6.started,start_exp.stopped,key_resp_6.keys,key_resp_6.rt,key_resp_6.duration,h_1_tmp,w_1_tmp,h_2_tmp,w_2_tmp,h_3_tmp,w_3_tmp,config_tmp,config_tmp_1,r_1_x,r_1_y,r_2_x,r_2_y,r_3_x,r_3_y,pre_trial.started,pre_trial.stopped,choice_trial.started,rect_choice.started,r_1.started,r_2.started,r_3.started,r_1_label.started,r_2_label.started,r_3_label.started,prompt.started,choice_trial.stopped,trials.rect_choice.keys,trials.rect_choice.rt,trials.rect_choice.duration,end_block.started,end_block_text.started,end_block.stopped,end.started,end_text.started,key_resp_7.started,end.stopped,key_resp_7.keys,key_resp_7.rt,key_resp_7.duration,debriefing.started,debrief_form.started,end_debrief.started,debriefing.stopped,end_debrief.keys,end_debrief.rt,end_debrief.duration,participant,computer,date,expName,psychopyVersion,frameRate,expStart,
,,,,,,,,,,,,,,,,,,,,,,,,,,,,,,,0.014846086502075195,0.03515148162841797,0.03515148162841797,0.03515148162841797,0.014635324478149414,47.84778070449829,1,[47.81008744239807],[47.81011152267456],0,,,[-92.0],[-498.0],[1],[0],[0],[47.832361936569214],['agree_button'],,,,,,,,,,,,,,,,,,,,,,,,,,,,,,,,,,,,,,,,,,,,,,,,,,,,,,,,,,,,,,,,,,,,,,,,,,,,,,,,,,,,,,,,,,,,,,,,,,,,,,,,,,,178,1,2025-03-04_10h00.05.488,comp,2024.2.4,57.35298380722919,2025-03-04 10h00.58.989281 -0500,
,,,,,,,,,,,,,,,,,,,,,,,,,,,,,,,,,,,,,,,,,,,,,,,,,,47.848342180252075,47.84840798377991,,,,,,,,,,,,,,,,,,,,,,,,,,,,,,,,,,,,,,,,,,,,,,,,,,,,,,,,,,,,,,,,,,,,,,,,,,,,,,,,,,,,,,,,,,,,,,,,,,,,,,,,,178,1,2025-03-04_10h00.05.488,comp,2024.2.4,57.35298380722919,2025-03-04 10h00.58.989281 -0500,
,,,,,,,,,,,,,,,,,,,,,,,,,,,,,,,,,,,,,,,,,,,,,,,,,,,,47.84845161437988,47.864065408706665,49.8631751537323,,,,,,,,,,,,,,,,,,,,,,,,,,,,,,,,,,,,,,,,,,,,,,,,,,,,,,,,,,,,,,,,,,,,,,,,,,,,,,,,,,,,,,,,,,,,,,,,,,,,,,178,1,2025-03-04_10h00.05.488,comp,2024.2.4,57.35298380722919,2025-03-04 10h00.58.989281 -0500,
0,0,0,,,,,,,,,,,,,,,0,0,0,0,,,,,,,,,49.87935256958008,,,,,,,,,,,,,,,,,,,,,,,,,,49.864115476608276,49.87935256958008,49.87935256958008,51.363433599472046,52.699060678482056,space,1.3306515216827393,None,52.69921135902405,52.71396517753601,52.71396517753601,54.214223861694336,59.215548276901245,space,4.991601467132568,None,59.21569871902466,59.243985652923584,59.243985652923584,59.243985652923584,59.243985652923584,59.243985652923584,59.243985652923584,59.243985652923584,59.243985652923584,59.243985652923584,60.71844267845154,65.17115688323975,space,4.439415454864502,None,65.1713182926178,65.19282937049866,65.19282937049866,65.19282937049866,66.68364119529724,71.05344891548157,space,4.354353427886963,None,71.05360269546509,71.0684723854065,71.0684723854065,72.5533356666565,77.92300629615784,space,5.364972352981567,None,77.92320203781128,77.93879890441895,77.93879890441895,93.97669720649719,space,16.035833835601807,None,,,,,,,,,,,,,,,,,,,,,,,,,,,,,,,,,,,,,,,,,,,,,,,178,1,2025-03-04_10h00.05.488,comp,2024.2.4,57.35298380722919,2025-03-04 10h00.58.989281 -0500,
0,0,0,critical,whd,35.0,1.0,upper,125.0,200.0,200.0,125.0,127.0,127.0,2,4.657562732696533,None,,,,,0,0,0,0,0,0,0,85,94.05328321456909,,,,,,,,,,,,,,,,,,,,,,,,,,,,,,,,,,,,,,,,,,,,,,,,,,,,,,,,,,,,,,,,,,,,,,,,,,,,,,,,,125.0,200.0,200.0,125.0,127.0,127.0,1.0,1.1,-738,286,-480,279,-258,288,94.0372211933136,94.03725528717041,94.03842282295227,94.05328321456909,94.2031364440918,94.2031364440918,94.2031364440918,94.2031364440918,94.2031364440918,94.2031364440918,94.2031364440918,98.71396136283875,2,4.657562732696533,None,,,,,,,,,,,,,,,,,,178,1,2025-03-04_10h00.05.488,comp,2024.2.4,57.35298380722919,2025-03-04 10h00.58.989281 -0500,
1,1,0,filler_square,None,None,None,None,None,None,None,None,None,None,1,2.669276475906372,None,,,,,0,0,0,0,0,1,1,192,98.72893524169922,,,,,,,,,,,,,,,,,,,,,,,,,,,,,,,,,,,,,,,,,,,,,,,,,,,,,,,,,,,,,,,,,,,,,,,,,,,,,,,,,190.56590079612616,190.56590079612616,81.9641397554515,177.1507950817589,156.59639072786143,151.97122095389858,1.0,1.3,200,-277,480,-281,741,-258,98.71562123298645,98.71568703651428,98.71847987174988,98.72893524169922,98.88433742523193,98.88433742523193,98.88433742523193,98.88433742523193,98.88433742523193,98.88433742523193,98.88433742523193,101.41840505599976,1,2.669276475906372,None,,,,,,,,,,,,,,,,,,178,1,2025-03-04_10h00.05.488,comp,2024.2.4,57.35298380722919,2025-03-04 10h00.58.989281 -0500,
2,2,0,critical,wdh,35.0,2.1,lower,57.0,133.0,70.0,70.0,133.0,57.0,3,4.674554347991943,None,,,,,0,0,0,0,0,2,2,8,101.43613648414612,,,,,,,,,,,,,,,,,,,,,,,,,,,,,,,,,,,,,,,,,,,,,,,,,,,,,,,,,,,,,,,,,,,,,,,,,,,,,,,,,57.0,133.0,70.0,70.0,133.0,57.0,2.1,2.11,-198,288,0,260,160,-279,101.42016935348511,101.42029857635498,101.42357349395752,101.43613648414612,101.58151626586914,101.58151626586914,101.58151626586914,101.58151626586914,101.58151626586914,101.58151626586914,101.58151626586914,106.11293339729309,3,4.674554347991943,None,,,,,,,,,,,,,,,,,,178,1,2025-03-04_10h00.05.488,comp,2024.2.4,57.35298380722919,2025-03-04 10h00.58.989281 -0500,
3,3,0,catch,None,None,None,None,None,None,None,None,None,None,3,1.3139564990997314,None,,,,,0,0,0,0,0,3,3,122,106.13269281387329,,,,,,,,,,,,,,,,,,,,,,,,,,,,,,,,,,,,,,,,,,,,,,,,,,,,,,,,,,,,,,,,,,,,,,,,,,,,,,,,,58,132,106,84,132,193,2.2,2.22,-204,277,0,-264,234,-271,106.11510944366455,106.11519026756287,106.11855864524841,106.13269281387329,106.28832483291626,106.28832483291626,106.28832483291626,106.28832483291626,106.28832483291626,106.28832483291626,106.28832483291626,107.45050764083862,3,1.3139564990997314,None,,,,,,,,,,,,,,,,,,178,1,2025-03-04_10h00.05.488,comp,2024.2.4,57.35298380722919,2025-03-04 10h00.58.989281 -0500,
4,4,0,filler_random,None,None,None,None,None,None,None,None,None,None,1,2.299229383468628,None,,,,,0,0,0,0,0,4,4,143,107.46699118614197,,,,,,,,,,,,,,,,,,,,,,,,,,,,,,,,,,,,,,,,,,,,,,,,,,,,,,,,,,,,,,,,,,,,,,,,,,,,,,,,,172.9668794374141,107.10026718065151,77.28984246504356,107.79721784258732,91.03503761110932,112.06053861867997,1.0,1.2,-203,10,0,18,206,-8,107.45227432250977,107.45240497589111,107.45627760887146,107.46699118614197,107.62547135353088,107.62547135353088,107.62547135353088,107.62547135353088,107.62547135353088,107.62547135353088,107.62547135353088,109.78262829780579,1,2.299229383468628,None,,,,,,,,,,,,,,,,,,178,1,2025-03-04_10h00.05.488,comp,2024.2.4,57.35298380722919,2025-03-04 10h00.58.989281 -0500,
5,5,0,critical,hwd,20.0,4.0,upper,200.0,125.0,125.0,200.0,141.0,141.0,1,5.222083330154419,None,,,,,0,0,0,0,0,5,5,107,109.80036997795105,,,,,,,,,,,,,,,,,,,,,,,,,,,,,,,,,,,,,,,,,,,,,,,,,,,,,,,,,,,,,,,,,,,,,,,,,,,,,,,,,200.0,125.0,125.0,200.0,141.0,141.0,4.0,4.2,-258,13,0,-257,266,-17,109.7841727733612,109.78425025939941,109.78733420372009,109.80036997795105,109.95079278945923,109.95079278945923,109.95079278945923,109.95079278945923,109.95079278945923,109.95079278945923,109.95079278945923,115.03533220291138,1,5.222083330154419,None,,,,,,,,,,,,,,,,,,178,1,2025-03-04_10h00.05.488,comp,2024.2.4,57.35298380722919,2025-03-04 10h00.58.989281 -0500,
6,6,0,filler_square,None,None,None,None,None,None,None,None,None,None,2,1.6720731258392334,None,,,,,0,0,0,0,0,6,6,194,115.05397319793701,,,,,,,,,,,,,,,,,,,,,,,,,,,,,,,,,,,,,,,,,,,,,,,,,,,,,,,,,,,,,,,,,,,,,,,,,,,,,,,,,123.1205611945757,126.37382574048684,150.21130892011945,150.21130892011945,138.18922101957463,77.24853927836762,4.0,4.1,-234,-260,0,-20,210,-268,115.03740954399109,115.03749203681946,115.04056406021118,115.05397319793701,115.2021095752716,115.2021095752716,115.2021095752716,115.2021095752716,115.2021095752716,115.2021095752716,115.2021095752716,116.73545622825623,2,1.6720731258392334,None,,,,,,,,,,,,,,,,,,178,1,2025-03-04_10h00.05.488,comp,2024.2.4,57.35298380722919,2025-03-04 10h00.58.989281 -0500,
7,7,0,critical,dhw,20.0,2.1,upper,141.0,141.0,200.0,125.0,125.0,200.0,2,2.9828803539276123,None,,,,,0,0,0,0,0,7,7,3,116.75122547149658,,,,,,,,,,,,,,,,,,,,,,,,,,,,,,,,,,,,,,,,,,,,,,,,,,,,,,,,,,,,,,,,,,,,,,,,,,,,,,,,,141.0,141.0,200.0,125.0,125.0,200.0,2.1,2.12,-229,-283,0,-271,258,266,116.73690056800842,116.73701596260071,116.7404899597168,116.75122547149658,116.90281844139099,116.90281844139099,116.90281844139099,116.90281844139099,116.90281844139099,116.90281844139099,116.90281844139099,119.73732209205627,2,2.9828803539276123,None,,,,,,,,,,,,,,,,,,178,1,2025-03-04_10h00.05.488,comp,2024.2.4,57.35298380722919,2025-03-04 10h00.58.989281 -0500,
8,8,0,filler_random,None,None,None,None,None,None,None,None,None,None,3,1.852048635482788,None,,,,,0,0,0,0,0,8,8,140,119.75401520729065,,,,,,,,,,,,,,,,,,,,,,,,,,,,,,,,,,,,,,,,,,,,,,,,,,,,,,,,,,,,,,,,,,,,,,,,,,,,,,,,,59.67242576727633,168.15746056496647,180.41717012629113,60.74022194742544,86.04426120724892,195.92701334157766,2.2,2.21,-210,-268,0,262,224,280,119.73928785324097,119.73937106132507,119.74282383918762,119.75401520729065,119.90890288352966,119.90890288352966,119.90890288352966,119.90890288352966,119.90890288352966,119.90890288352966,119.90890288352966,121.62120723724365,3,1.852048635482788,None,,,,,,,,,,,,,,,,,,178,1,2025-03-04_10h00.05.488,comp,2024.2.4,57.35298380722919,2025-03-04 10h00.58.989281 -0500,
9,9,0,critical,hdw,35.0,4.0,upper,200.0,125.0,127.0,127.0,125.0,200.0,1,2.239903688430786,None,,,,,0,0,0,0,0,9,9,113,121.63898491859436,,,,,,,,,,,,,,,,,,,,,,,,,,,,,,,,,,,,,,,,,,,,,,,,,,,,,,,,,,,,,,,,,,,,,,,,,,,,,,,,,200.0,125.0,127.0,127.0,125.0,200.0,4.0,4.2,-222,-17,0,-254,260,-17,121.6228141784668,121.62289261817932,121.62621283531189,121.63898491859436,121.78682470321655,121.78682470321655,121.78682470321655,121.78682470321655,121.78682470321655,121.78682470321655,121.78682470321655,123.88702154159546,1,2.239903688430786,None,,,,,,,,,,,,,,,,,,178,1,2025-03-04_10h00.05.488,comp,2024.2.4,57.35298380722919,2025-03-04 10h00.58.989281 -0500,
10,10,0,critical,wdh,35.0,4.0,upper,125.0,200.0,127.0,127.0,200.0,125.0,3,2.3071706295013428,None,,,,,0,0,0,0,0,10,10,77,123.90761351585388,,,,,,,,,,,,,,,,,,,,,,,,,,,,,,,,,,,,,,,,,,,,,,,,,,,,,,,,,,,,,,,,,,,,,,,,,,,,,,,,,125.0,200.0,127.0,127.0,200.0,125.0,4.0,4.2,-260,7,0,-258,222,9,123.88859033584595,123.88867115974426,123.89207744598389,123.90761351585388,124.05389189720154,124.05389189720154,124.05389189720154,124.05389189720154,124.05389189720154,124.05389189720154,124.05389189720154,126.22179532051086,3,2.3071706295013428,None,,,,,,,,,,,,,,,,,,178,1,2025-03-04_10h00.05.488,comp,2024.2.4,57.35298380722919,2025-03-04 10h00.58.989281 -0500,
11,11,0,critical,dhw,35.0,2.1,lower,70.0,70.0,133.0,57.0,57.0,133.0,2,2.8886241912841797,None,,,,,0,0,0,0,0,11,11,24,126.23772430419922,,,,,,,,,,,,,,,,,,,,,,,,,,,,,,,,,,,,,,,,,,,,,,,,,,,,,,,,,,,,,,,,,,,,,,,,,,,,,,,,,70.0,70.0,133.0,57.0,57.0,133.0,2.1,2.12,-160,-273,0,-285,191,268,126.22334551811218,126.2234251499176,126.22697615623474,126.23772430419922,126.38655877113342,126.38655877113342,126.38655877113342,126.38655877113342,126.38655877113342,126.38655877113342,126.38655877113342,129.14978456497192,2,2.8886241912841797,None,,,,,,,,,,,,,,,,,,178,1,2025-03-04_10h00.05.488,comp,2024.2.4,57.35298380722919,2025-03-04 10h00.58.989281 -0500,
12,12,0,critical,hwd,35.0,2.1,lower,133.0,57.0,57.0,133.0,70.0,70.0,1,2.1433863639831543,None,,,,,0,0,0,0,0,12,12,16,129.16676497459412,,,,,,,,,,,,,,,,,,,,,,,,,,,,,,,,,,,,,,,,,,,,,,,,,,,,,,,,,,,,,,,,,,,,,,,,,,,,,,,,,133.0,57.0,57.0,133.0,70.0,70.0,2.1,2.12,-191,-268,0,-279,198,279,129.15126299858093,129.15133833885193,129.15419960021973,129.16676497459412,129.30596780776978,129.30596780776978,129.30596780776978,129.30596780776978,129.30596780776978,129.30596780776978,129.30596780776978,131.32442998886108,1,2.1433863639831543,None,,,,,,,,,,,,,,,,,,178,1,2025-03-04_10h00.05.488,comp,2024.2.4,57.35298380722919,2025-03-04 10h00.58.989281 -0500,
13,13,0,critical,dwh,20.0,2.1,lower,78.0,78.0,57.0,133.0,133.0,57.0,3,2.595222234725952,None,,,,,0,0,0,0,0,13,13,6,131.33959126472473,,,,,,,,,,,,,,,,,,,,,,,,,,,,,,,,,,,,,,,,,,,,,,,,,,,,,,,,,,,,,,,,,,,,,,,,,,,,,,,,,78.0,78.0,57.0,133.0,133.0,57.0,2.1,2.12,-202,-264,0,-267,191,269,131.32589554786682,131.32599234580994,131.32936024665833,131.33959126472473,131.49015402793884,131.49015402793884,131.49015402793884,131.49015402793884,131.49015402793884,131.49015402793884,131.49015402793884,133.93808698654175,3,2.595222234725952,None,,,,,,,,,,,,,,,,,,178,1,2025-03-04_10h00.05.488,comp,2024.2.4,57.35298380722919,2025-03-04 10h00.58.989281 -0500,
14,14,0,critical,whd,35.0,4.0,lower,57.0,133.0,133.0,57.0,70.0,70.0,1,2.0748848915100098,None,,,,,0,0,0,0,0,14,14,88,133.9551899433136,,,,,,,,,,,,,,,,,,,,,,,,,,,,,,,,,,,,,,,,,,,,,,,,,,,,,,,,,,,,,,,,,,,,,,,,,,,,,,,,,57.0,133.0,133.0,57.0,70.0,70.0,4.0,4.1,-191,-276,0,0,160,-266,133.93958568572998,133.93966817855835,133.94262409210205,133.9551899433136,134.10670971870422,134.10670971870422,134.10670971870422,134.10670971870422,134.10670971870422,134.10670971870422,134.10670971870422,136.03981184959412,1,2.0748848915100098,None,,,,,,,,,,,,,,,,,,178,1,2025-03-04_10h00.05.488,comp,2024.2.4,57.35298380722919,2025-03-04 10h00.58.989281 -0500,
15,15,0,critical,hdw,35.0,2.1,upper,200.0,125.0,127.0,127.0,125.0,200.0,1,2.702157497406006,None,,,,,0,0,0,0,0,15,15,45,136.05631852149963,,,,,,,,,,,,,,,,,,,,,,,,,,,,,,,,,,,,,,,,,,,,,,,,,,,,,,,,,,,,,,,,,,,,,,,,,,,,,,,,,200.0,125.0,127.0,127.0,125.0,200.0,2.1,2.12,-222,-260,0,-287,260,282,136.04137110710144,136.0414535999298,136.04450726509094,136.05631852149963,136.20431303977966,136.20431303977966,136.20431303977966,136.20431303977966,136.20431303977966,136.20431303977966,136.20431303977966,138.76113557815552,1,2.702157497406006,None,,,,,,,,,,,,,,,,,,178,1,2025-03-04_10h00.05.488,comp,2024.2.4,57.35298380722919,2025-03-04 10h00.58.989281 -0500,
16,16,0,critical,whd,35.0,2.1,upper,125.0,200.0,200.0,125.0,127.0,127.0,2,2.0407016277313232,None,,,,,0,0,0,0,0,16,16,13,138.78192973136902,,,,,,,,,,,,,,,,,,,,,,,,,,,,,,,,,,,,,,,,,,,,,,,,,,,,,,,,,,,,,,,,,,,,,,,,,,,,,,,,,125.0,200.0,200.0,125.0,127.0,127.0,2.1,2.12,-258,-260,0,-251,222,255,138.76322627067566,138.76336145401,138.76646399497986,138.78192973136902,138.92603206634521,138.92603206634521,138.92603206634521,138.92603206634521,138.92603206634521,138.92603206634521,138.92603206634521,140.8251338005066,2,2.0407016277313232,None,,,,,,,,,,,,,,,,,,178,1,2025-03-04_10h00.05.488,comp,2024.2.4,57.35298380722919,2025-03-04 10h00.58.989281 -0500,
17,17,0,critical,whd,35.0,3.0,upper,125.0,200.0,200.0,125.0,127.0,127.0,2,2.0846197605133057,None,,,,,0,0,0,0,0,17,17,87,140.8414855003357,,,,,,,,,,,,,,,,,,,,,,,,,,,,,,,,,,,,,,,,,,,,,,,,,,,,,,,,,,,,,,,,,,,,,,,,,,,,,,,,,125.0,200.0,200.0,125.0,127.0,127.0,3.0,3.2,-258,-256,0,-19,222,266,140.82669878005981,140.8267765045166,140.8297519683838,140.8414855003357,140.98944878578186,140.98944878578186,140.98944878578186,140.98944878578186,140.98944878578186,140.98944878578186,140.98944878578186,142.94214463233948,2,2.0846197605133057,None,,,,,,,,,,,,,,,,,,178,1,2025-03-04_10h00.05.488,comp,2024.2.4,57.35298380722919,2025-03-04 10h00.58.989281 -0500,
18,18,0,filler_square,None,None,None,None,None,None,None,None,None,None,1,4.728968620300293,None,,,,,0,0,0,0,0,18,18,185,142.9583797454834,,,,,,,,,,,,,,,,,,,,,,,,,,,,,,,,,,,,,,,,,,,,,,,,,,,,,,,,,,,,,,,,,,,,,,,,,,,,,,,,,64.35312965942288,64.35312965942288,63.51774910203865,63.738815166107315,57.60922873264862,59.578968926864746,2.1,2.11,-160,278,0,267,158,-260,142.94389581680298,142.94401741027832,142.9472210407257,142.9583797454834,143.1145555973053,143.1145555973053,143.1145555973053,143.1145555973053,143.1145555973053,143.1145555973053,143.1145555973053,147.69353103637695,1,4.728968620300293,None,,,,,,,,,,,,,,,,,,178,1,2025-03-04_10h00.05.488,comp,2024.2.4,57.35298380722919,2025-03-04 10h00.58.989281 -0500,
19,19,0,critical,dwh,35.0,2.1,upper,127.0,127.0,125.0,200.0,200.0,125.0,2,2.946953773498535,None,,,,,0,0,0,0,0,19,19,29,147.70991969108582,,,,,,,,,,,,,,,,,,,,,,,,,,,,,,,,,,,,,,,,,,,,,,,,,,,,,,,,,,,,,,,,,,,,,,,,,,,,,,,,,127.0,127.0,125.0,200.0,200.0,125.0,2.1,2.11,-260,272,0,259,258,-264,147.6950225830078,147.69510221481323,147.69812893867493,147.70991969108582,147.8501660823822,147.8501660823822,147.8501660823822,147.8501660823822,147.8501660823822,147.8501660823822,147.8501660823822,150.66339945793152,2,2.946953773498535,None,,,,,,,,,,,,,,,,,,178,1,2025-03-04_10h00.05.488,comp,2024.2.4,57.35298380722919,2025-03-04 10h00.58.989281 -0500,
20,20,0,critical,hwd,35.0,1.0,lower,133.0,57.0,57.0,133.0,70.0,70.0,1,2.0997841358184814,None,,,,,0,0,0,0,0,20,20,96,150.68238353729248,,,,,,,,,,,,,,,,,,,,,,,,,,,,,,,,,,,,,,,,,,,,,,,,,,,,,,,,,,,,,,,,,,,,,,,,,,,,,,,,,133.0,57.0,57.0,133.0,70.0,70.0,1.0,1.1,-671,272,-480,264,-282,260,150.66502141952515,150.66511154174805,150.66851592063904,150.68238353729248,150.82917189598083,150.82917189598083,150.82917189598083,150.82917189598083,150.82917189598083,150.82917189598083,150.82917189598083,152.79648280143738,1,2.0997841358184814,None,,,,,,,,,,,,,,,,,,178,1,2025-03-04_10h00.05.488,comp,2024.2.4,57.35298380722919,2025-03-04 10h00.58.989281 -0500,
21,21,0,critical,hdw,20.0,2.1,upper,200.0,125.0,141.0,141.0,125.0,200.0,1,2.778998374938965,None,,,,,0,0,0,0,0,21,21,23,152.81177306175232,,,,,,,,,,,,,,,,,,,,,,,,,,,,,,,,,,,,,,,,,,,,,,,,,,,,,,,,,,,,,,,,,,,,,,,,,,,,,,,,,200.0,125.0,141.0,141.0,125.0,200.0,2.1,2.11,-229,286,0,259,266,-250,152.79801106452942,152.79808712005615,152.80150437355042,152.81177306175232,152.96310091018677,152.96310091018677,152.96310091018677,152.96310091018677,152.96310091018677,152.96310091018677,152.96310091018677,155.59825229644775,1,2.778998374938965,None,,,,,,,,,,,,,,,,,,178,1,2025-03-04_10h00.05.488,comp,2024.2.4,57.35298380722919,2025-03-04 10h00.58.989281 -0500,
22,22,0,critical,dwh,35.0,2.1,upper,127.0,127.0,125.0,200.0,200.0,125.0,3,2.6082522869110107,None,,,,,0,0,0,0,0,22,22,5,155.61412024497986,,,,,,,,,,,,,,,,,,,,,,,,,,,,,,,,,,,,,,,,,,,,,,,,,,,,,,,,,,,,,,,,,,,,,,,,,,,,,,,,,127.0,127.0,125.0,200.0,200.0,125.0,2.1,2.12,-260,-289,0,-265,258,283,155.5997986793518,155.5998821258545,155.6033844947815,155.61412024497986,155.76715922355652,155.76715922355652,155.76715922355652,155.76715922355652,155.76715922355652,155.76715922355652,155.76715922355652,158.23335194587708,3,2.6082522869110107,None,,,,,,,,,,,,,,,,,,178,1,2025-03-04_10h00.05.488,comp,2024.2.4,57.35298380722919,2025-03-04 10h00.58.989281 -0500,
23,23,0,critical,whd,35.0,1.0,lower,57.0,133.0,133.0,57.0,70.0,70.0,2,2.8168721199035645,None,,,,,0,0,0,0,0,23,23,84,158.2540361881256,,,,,,,,,,,,,,,,,,,,,,,,,,,,,,,,,,,,,,,,,,,,,,,,,,,,,,,,,,,,,,,,,,,,,,,,,,,,,,,,,57.0,133.0,133.0,57.0,70.0,70.0,1.0,1.2,-191,-5,0,3,160,7,158.2348611354828,158.23501896858215,158.23826551437378,158.2540361881256,158.39905858039856,158.39905858039856,158.39905858039856,158.39905858039856,158.39905858039856,158.39905858039856,158.39905858039856,161.08255815505981,2,2.8168721199035645,None,,,,,,,,,,,,,,,,,,178,1,2025-03-04_10h00.05.488,comp,2024.2.4,57.35298380722919,2025-03-04 10h00.58.989281 -0500,
24,24,0,critical,whd,35.0,2.1,lower,57.0,133.0,133.0,57.0,70.0,70.0,2,2.5646262168884277,None,,,,,0,0,0,0,0,24,24,12,161.09803819656372,,,,,,,,,,,,,,,,,,,,,,,,,,,,,,,,,,,,,,,,,,,,,,,,,,,,,,,,,,,,,,,,,,,,,,,,,,,,,,,,,57.0,133.0,133.0,57.0,70.0,70.0,2.1,2.12,-191,-257,0,-279,160,276,161.0841999053955,161.08427786827087,161.0876910686493,161.09803819656372,161.25523900985718,161.25523900985718,161.25523900985718,161.25523900985718,161.25523900985718,161.25523900985718,161.25523900985718,163.66790175437927,2,2.5646262168884277,None,,,,,,,,,,,,,,,,,,178,1,2025-03-04_10h00.05.488,comp,2024.2.4,57.35298380722919,2025-03-04 10h00.58.989281 -0500,
25,25,0,critical,dwh,35.0,3.0,upper,127.0,127.0,125.0,200.0,200.0,125.0,3,3.5126900672912598,None,,,,,0,0,0,0,0,25,25,63,163.6860511302948,,,,,,,,,,,,,,,,,,,,,,,,,,,,,,,,,,,,,,,,,,,,,,,,,,,,,,,,,,,,,,,,,,,,,,,,,,,,,,,,,127.0,127.0,125.0,200.0,200.0,125.0,3.0,3.2,-260,-268,0,-8,258,262,163.66944241523743,163.66952061653137,163.67306780815125,163.6860511302948,163.83362817764282,163.83362817764282,163.83362817764282,163.83362817764282,163.83362817764282,163.83362817764282,163.83362817764282,167.21634244918823,3,3.5126900672912598,None,,,,,,,,,,,,,,,,,,178,1,2025-03-04_10h00.05.488,comp,2024.2.4,57.35298380722919,2025-03-04 10h00.58.989281 -0500,
26,26,0,critical,dhw,20.0,1.0,upper,141.0,141.0,200.0,125.0,125.0,200.0,2,6.196592330932617,None,,,,,0,0,0,0,0,26,26,55,167.23375129699707,,,,,,,,,,,,,,,,,,,,,,,,,,,,,,,,,,,,,,,,,,,,,,,,,,,,,,,,,,,,,,,,,,,,,,,,,,,,,,,,,141.0,141.0,200.0,125.0,125.0,200.0,1.0,1.2,-229,0,0,0,258,6,167.21785283088684,167.2179298400879,167.2212040424347,167.23375129699707,167.37202334403992,167.37202334403992,167.37202334403992,167.37202334403992,167.37202334403992,167.37202334403992,167.37202334403992,173.44619345664978,2,6.196592330932617,None,,,,,,,,,,,,,,,,,,178,1,2025-03-04_10h00.05.488,comp,2024.2.4,57.35298380722919,2025-03-04 10h00.58.989281 -0500,
27,27,0,critical,wdh,35.0,1.0,lower,57.0,133.0,70.0,70.0,133.0,57.0,1,1.4373185634613037,None,,,,,0,0,0,0,0,27,27,72,173.46589136123657,,,,,,,,,,,,,,,,,,,,,,,,,,,,,,,,,,,,,,,,,,,,,,,,,,,,,,,,,,,,,,,,,,,,,,,,,,,,,,,,,57.0,133.0,70.0,70.0,133.0,57.0,1.0,1.1,-678,260,-480,253,-320,264,173.4476821422577,173.44776248931885,173.45064425468445,173.46589136123657,173.60616040229797,173.60616040229797,173.60616040229797,173.60616040229797,173.60616040229797,173.60616040229797,173.60616040229797,174.90664196014404,1,1.4373185634613037,None,,,,,,,,,,,,,,,,,,178,1,2025-03-04_10h00.05.488,comp,2024.2.4,57.35298380722919,2025-03-04 10h00.58.989281 -0500,
28,28,0,critical,dwh,35.0,1.0,upper,127.0,127.0,125.0,200.0,200.0,125.0,2,1.5567617416381836,None,,,,,0,0,0,0,0,28,28,61,174.92168498039246,,,,,,,,,,,,,,,,,,,,,,,,,,,,,,,,,,,,,,,,,,,,,,,,,,,,,,,,,,,,,,,,,,,,,,,,,,,,,,,,,127.0,127.0,125.0,200.0,200.0,125.0,1.0,1.2,-260,-2,0,14,258,14,174.90829181671143,174.90839672088623,174.91170859336853,174.92168498039246,175.07004928588867,175.07004928588867,175.07004928588867,175.07004928588867,175.07004928588867,175.07004928588867,175.07004928588867,176.48853540420532,2,1.5567617416381836,None,,,,,,,,,,,,,,,,,,178,1,2025-03-04_10h00.05.488,comp,2024.2.4,57.35298380722919,2025-03-04 10h00.58.989281 -0500,
29,29,0,critical,dwh,20.0,3.0,upper,141.0,141.0,125.0,200.0,200.0,125.0,3,1.6776058673858643,None,,,,,0,0,0,0,0,29,29,69,176.50505661964417,,,,,,,,,,,,,,,,,,,,,,,,,,,,,,,,,,,,,,,,,,,,,,,,,,,,,,,,,,,,,,,,,,,,,,,,,,,,,,,,,141.0,141.0,125.0,200.0,200.0,125.0,3.0,3.1,-266,250,0,3,258,-256,176.49004912376404,176.4901475906372,176.49422192573547,176.50505661964417,176.65559148788452,176.65559148788452,176.65559148788452,176.65559148788452,176.65559148788452,176.65559148788452,176.65559148788452,178.18687653541565,3,1.6776058673858643,None,,,,,,,,,,,,,,,,,,178,1,2025-03-04_10h00.05.488,comp,2024.2.4,57.35298380722919,2025-03-04 10h00.58.989281 -0500,
30,30,0,filler_random,None,None,None,None,None,None,None,None,None,None,2,2.013885021209717,None,,,,,0,0,0,0,0,30,30,164,178.208398103714,,,,,,,,,,,,,,,,,,,,,,,,,,,,,,,,,,,,,,,,,,,,,,,,,,,,,,,,,,,,,,,,,,,,,,,,,,,,,,,,,114.45900710882893,80.77247681802007,143.8065381648274,181.63207213514897,159.6917470909824,83.6081746838568,2.1,2.11,-227,269,0,283,229,-279,178.18855500221252,178.18863201141357,178.19168090820312,178.208398103714,178.35649633407593,178.35649633407593,178.35649633407593,178.35649633407593,178.35649633407593,178.35649633407593,178.35649633407593,180.2397153377533,2,2.013885021209717,None,,,,,,,,,,,,,,,,,,178,1,2025-03-04_10h00.05.488,comp,2024.2.4,57.35298380722919,2025-03-04 10h00.58.989281 -0500,
31,31,0,catch,None,None,None,None,None,None,None,None,None,None,2,1.0862998962402344,None,,,,,0,0,0,0,0,31,31,123,180.25599360466003,,,,,,,,,,,,,,,,,,,,,,,,,,,,,,,,,,,,,,,,,,,,,,,,,,,,,,,,,,,,,,,,,,,,,,,,,,,,,,,,,71,119,186,139,64,126,3.0,3.2,-225,-281,0,2,228,261,180.24167108535767,180.24179410934448,180.2456283569336,180.25599360466003,180.40514707565308,180.40514707565308,180.40514707565308,180.40514707565308,180.40514707565308,180.40514707565308,180.40514707565308,181.35578680038452,2,1.0862998962402344,None,,,,,,,,,,,,,,,,,,178,1,2025-03-04_10h00.05.488,comp,2024.2.4,57.35298380722919,2025-03-04 10h00.58.989281 -0500,
32,32,0,filler_random,None,None,None,None,None,None,None,None,None,None,1,1.2775239944458008,None,,,,,0,0,0,0,0,32,32,154,181.37674164772034,,,,,,,,,,,,,,,,,,,,,,,,,,,,,,,,,,,,,,,,,,,,,,,,,,,,,,,,,,,,,,,,,,,,,,,,,,,,,,,,,156.37293435399113,144.48847910804642,79.86006570336951,115.82293190153842,70.21049140714302,130.97506868426586,4.0,4.1,-226,-282,0,-7,219,-262,181.3575417995453,181.35762214660645,181.36078000068665,181.37674164772034,181.52956318855286,181.52956318855286,181.52956318855286,181.52956318855286,181.52956318855286,181.52956318855286,181.52956318855286,182.65647268295288,1,1.2775239944458008,None,,,,,,,,,,,,,,,,,,178,1,2025-03-04_10h00.05.488,comp,2024.2.4,57.35298380722919,2025-03-04 10h00.58.989281 -0500,
33,33,0,critical,dhw,20.0,3.0,upper,141.0,141.0,200.0,125.0,125.0,200.0,3,3.7595388889312744,None,,,,,0,0,0,0,0,33,33,57,182.67098426818848,,,,,,,,,,,,,,,,,,,,,,,,,,,,,,,,,,,,,,,,,,,,,,,,,,,,,,,,,,,,,,,,,,,,,,,,,,,,,,,,,141.0,141.0,200.0,125.0,125.0,200.0,3.0,3.1,-229,262,0,-3,258,-259,182.65801429748535,182.65809416770935,182.66137194633484,182.67098426818848,182.82337498664856,182.82337498664856,182.82337498664856,182.82337498664856,182.82337498664856,182.82337498664856,182.82337498664856,186.4411437511444,3,3.7595388889312744,None,,,,,,,,,,,,,,,,,,178,1,2025-03-04_10h00.05.488,comp,2024.2.4,57.35298380722919,2025-03-04 10h00.58.989281 -0500,
34,34,0,critical,dwh,35.0,1.0,lower,70.0,70.0,57.0,133.0,133.0,57.0,2,3.4854495525360107,None,,,,,0,0,0,0,0,34,34,60,186.4570028781891,,,,,,,,,,,,,,,,,,,,,,,,,,,,,,,,,,,,,,,,,,,,,,,,,,,,,,,,,,,,,,,,,,,,,,,,,,,,,,,,,70.0,70.0,57.0,133.0,133.0,57.0,1.0,1.1,-678,276,-480,271,-289,275,186.44280767440796,186.44289803504944,186.44639444351196,186.4570028781891,186.60414600372314,186.60414600372314,186.60414600372314,186.60414600372314,186.60414600372314,186.60414600372314,186.60414600372314,189.94781947135925,2,3.4854495525360107,None,,,,,,,,,,,,,,,,,,178,1,2025-03-04_10h00.05.488,comp,2024.2.4,57.35298380722919,2025-03-04 10h00.58.989281 -0500,
35,35,0,filler_square,None,None,None,None,None,None,None,None,None,None,1,1.9595787525177002,None,,,,,0,0,0,0,0,35,35,177,189.966632604599,,,,,,,,,,,,,,,,,,,,,,,,,,,,,,,,,,,,,,,,,,,,,,,,,,,,,,,,,,,,,,,,,,,,,,,,,,,,,,,,,159.58680101135002,159.58680101135002,104.57000833179549,149.27635956053072,121.28673334067612,93.3002739195154,3.0,3.2,-250,-252,0,11,217,287,189.94960141181946,189.9496796131134,189.9525270462036,189.966632604599,190.10874319076538,190.10874319076538,190.10874319076538,190.10874319076538,190.10874319076538,190.10874319076538,190.10874319076538,191.94362258911133,1,1.9595787525177002,None,,,,,,,,,,,,,,,,,,178,1,2025-03-04_10h00.05.488,comp,2024.2.4,57.35298380722919,2025-03-04 10h00.58.989281 -0500,
36,36,0,critical,hdw,35.0,3.0,upper,200.0,125.0,127.0,127.0,125.0,200.0,1,3.5071935653686523,None,,,,,0,0,0,0,0,36,36,111,191.9630992412567,,,,,,,,,,,,,,,,,,,,,,,,,,,,,,,,,,,,,,,,,,,,,,,,,,,,,,,,,,,,,,,,,,,,,,,,,,,,,,,,,200.0,125.0,127.0,127.0,125.0,200.0,3.0,3.2,-222,-259,0,7,260,281,191.94512128829956,191.9452154636383,191.94830536842346,191.9630992412567,192.11110925674438,192.11110925674438,192.11110925674438,192.11110925674438,192.11110925674438,192.11110925674438,192.11110925674438,195.48109912872314,1,3.5071935653686523,None,,,,,,,,,,,,,,,,,,178,1,2025-03-04_10h00.05.488,comp,2024.2.4,57.35298380722919,2025-03-04 10h00.58.989281 -0500,
37,37,0,filler_square,None,None,None,None,None,None,None,None,None,None,1,2.5040204524993896,None,,,,,0,0,0,0,0,37,37,207,195.50244045257568,,,,,,,,,,,,,,,,,,,,,,,,,,,,,,,,,,,,,,,,,,,,,,,,,,,,,,,,,,,,,,,,,,,,,,,,,,,,,,,,,176.79116641346502,176.79116641346502,61.51367391051121,169.76325981743435,155.00203634903514,73.63720890571508,2.1,2.12,-269,-258,0,-287,218,269,195.48312497138977,195.4832091331482,195.4865710735321,195.50244045257568,195.6430459022522,195.6430459022522,195.6430459022522,195.6430459022522,195.6430459022522,195.6430459022522,195.6430459022522,198.01088786125183,1,2.5040204524993896,None,,,,,,,,,,,,,,,,,,178,1,2025-03-04_10h00.05.488,comp,2024.2.4,57.35298380722919,2025-03-04 10h00.58.989281 -0500,
38,38,0,critical,dwh,35.0,2.1,lower,70.0,70.0,57.0,133.0,133.0,57.0,3,2.651520013809204,None,,,,,0,0,0,0,0,38,38,4,198.0270438194275,,,,,,,,,,,,,,,,,,,,,,,,,,,,,,,,,,,,,,,,,,,,,,,,,,,,,,,,,,,,,,,,,,,,,,,,,,,,,,,,,70.0,70.0,57.0,133.0,133.0,57.0,2.1,2.12,-198,-274,0,-255,191,270,198.01247358322144,198.01255631446838,198.01600527763367,198.0270438194275,198.17623472213745,198.17623472213745,198.17623472213745,198.17623472213745,198.17623472213745,198.17623472213745,198.17623472213745,200.6834695339203,3,2.651520013809204,None,,,,,,,,,,,,,,,,,,178,1,2025-03-04_10h00.05.488,comp,2024.2.4,57.35298380722919,2025-03-04 10h00.58.989281 -0500,
39,39,0,critical,hdw,20.0,3.0,lower,133.0,57.0,78.0,78.0,57.0,133.0,1,1.8706626892089844,None,,,,,0,0,0,0,0,39,39,116,200.704039812088,,,,,,,,,,,,,,,,,,,,,,,,,,,,,,,,,,,,,,,,,,,,,,,,,,,,,,,,,,,,,,,,,,,,,,,,,,,,,,,,,133.0,57.0,78.0,78.0,57.0,133.0,3.0,3.2,-164,-258,0,19,202,263,200.6851887702942,200.68527102470398,200.68829202651978,200.704039812088,200.84611916542053,200.84611916542053,200.84611916542053,200.84611916542053,200.84611916542053,200.84611916542053,200.84611916542053,202.57798171043396,1,1.8706626892089844,None,,,,,,,,,,,,,,,,,,178,1,2025-03-04_10h00.05.488,comp,2024.2.4,57.35298380722919,2025-03-04 10h00.58.989281 -0500,
40,40,0,critical,whd,35.0,2.1,lower,57.0,133.0,133.0,57.0,70.0,70.0,2,3.047426700592041,None,,,,,0,0,0,0,0,40,40,36,202.59892988204956,,,,,,,,,,,,,,,,,,,,,,,,,,,,,,,,,,,,,,,,,,,,,,,,,,,,,,,,,,,,,,,,,,,,,,,,,,,,,,,,,57.0,133.0,133.0,57.0,70.0,70.0,2.1,2.12,-191,-274,0,-268,160,269,202.5796070098877,202.57971453666687,202.5830807685852,202.59892988204956,202.74512553215027,202.74512553215027,202.74512553215027,202.74512553215027,202.74512553215027,202.74512553215027,202.74512553215027,205.66450262069702,2,3.047426700592041,None,,,,,,,,,,,,,,,,,,178,1,2025-03-04_10h00.05.488,comp,2024.2.4,57.35298380722919,2025-03-04 10h00.58.989281 -0500,
41,41,0,critical,hwd,20.0,2.1,upper,200.0,125.0,125.0,200.0,141.0,141.0,1,1.7265264987945557,None,,,,,0,0,0,0,0,41,41,19,205.68012475967407,,,,,,,,,,,,,,,,,,,,,,,,,,,,,,,,,,,,,,,,,,,,,,,,,,,,,,,,,,,,,,,,,,,,,,,,,,,,,,,,,200.0,125.0,125.0,200.0,141.0,141.0,2.1,2.12,-258,-279,0,-280,266,289,205.66624975204468,205.66638374328613,205.66986680030823,205.68012475967407,205.8342320919037,205.8342320919037,205.8342320919037,205.8342320919037,205.8342320919037,205.8342320919037,205.8342320919037,207.4167821407318,1,1.7265264987945557,None,,,,,,,,,,,,,,,,,,178,1,2025-03-04_10h00.05.488,comp,2024.2.4,57.35298380722919,2025-03-04 10h00.58.989281 -0500,
42,42,0,critical,whd,20.0,1.0,lower,57.0,133.0,133.0,57.0,78.0,78.0,2,1.5960235595703125,None,,,,,0,0,0,0,0,42,42,90,207.43488764762878,,,,,,,,,,,,,,,,,,,,,,,,,,,,,,,,,,,,,,,,,,,,,,,,,,,,,,,,,,,,,,,,,,,,,,,,,,,,,,,,,57.0,133.0,133.0,57.0,78.0,78.0,1.0,1.3,289,-267,480,-263,644,-286,207.4183759689331,207.41845655441284,207.4214768409729,207.43488764762878,207.58226370811462,207.58226370811462,207.58226370811462,207.58226370811462,207.58226370811462,207.58226370811462,207.58226370811462,209.0330445766449,2,1.5960235595703125,None,,,,,,,,,,,,,,,,,,178,1,2025-03-04_10h00.05.488,comp,2024.2.4,57.35298380722919,2025-03-04 10h00.58.989281 -0500,
43,43,0,critical,dhw,35.0,2.1,upper,127.0,127.0,200.0,125.0,125.0,200.0,2,1.924726963043213,None,,,,,0,0,0,0,0,43,43,1,209.05005145072937,,,,,,,,,,,,,,,,,,,,,,,,,,,,,,,,,,,,,,,,,,,,,,,,,,,,,,,,,,,,,,,,,,,,,,,,,,,,,,,,,127.0,127.0,200.0,125.0,125.0,200.0,2.1,2.12,-222,-256,0,-277,258,278,209.03487086296082,209.03504037857056,209.03846335411072,209.05005145072937,209.19827914237976,209.19827914237976,209.19827914237976,209.19827914237976,209.19827914237976,209.19827914237976,209.19827914237976,210.98428869247437,2,1.924726963043213,None,,,,,,,,,,,,,,,,,,178,1,2025-03-04_10h00.05.488,comp,2024.2.4,57.35298380722919,2025-03-04 10h00.58.989281 -0500,
44,44,0,filler_random,None,None,None,None,None,None,None,None,None,None,1,1.010636329650879,None,,,,,0,0,0,0,0,44,44,146,211.0043487548828,,,,,,,,,,,,,,,,,,,,,,,,,,,,,,,,,,,,,,,,,,,,,,,,,,,,,,,,,,,,,,,,,,,,,,,,,,,,,,,,,197.42127147965363,148.65839402172395,172.7982184454385,89.25390232719164,83.11705541111863,83.70671397870285,4.0,4.1,-215,-276,0,-20,182,-256,210.9862310886383,210.98631310462952,210.98928332328796,211.0043487548828,211.15178108215332,211.15178108215332,211.15178108215332,211.15178108215332,211.15178108215332,211.15178108215332,211.15178108215332,212.01955342292786,1,1.010636329650879,None,,,,,,,,,,,,,,,,,,178,1,2025-03-04_10h00.05.488,comp,2024.2.4,57.35298380722919,2025-03-04 10h00.58.989281 -0500,
45,45,0,filler_random,None,None,None,None,None,None,None,None,None,None,1,1.8140344619750977,None,,,,,0,0,0,0,0,45,45,149,212.0402626991272,,,,,,,,,,,,,,,,,,,,,,,,,,,,,,,,,,,,,,,,,,,,,,,,,,,,,,,,,,,,,,,,,,,,,,,,,,,,,,,,,109.55437602431084,183.4314900383527,193.3611426751406,112.79882365618423,115.54858155946329,104.41435132824822,1.0,1.3,236,-288,480,-260,685,-280,212.02185535430908,212.0219612121582,212.0248682498932,212.0402626991272,212.18228602409363,212.18228602409363,212.18228602409363,212.18228602409363,212.18228602409363,212.18228602409363,212.18228602409363,213.8665325641632,1,1.8140344619750977,None,,,,,,,,,,,,,,,,,,178,1,2025-03-04_10h00.05.488,comp,2024.2.4,57.35298380722919,2025-03-04 10h00.58.989281 -0500,
46,46,0,critical,whd,35.0,4.0,upper,125.0,200.0,200.0,125.0,127.0,127.0,2,1.8838660717010498,None,,,,,0,0,0,0,0,46,46,89,213.88241910934448,,,,,,,,,,,,,,,,,,,,,,,,,,,,,,,,,,,,,,,,,,,,,,,,,,,,,,,,,,,,,,,,,,,,,,,,,,,,,,,,,125.0,200.0,200.0,125.0,127.0,127.0,4.0,4.1,-258,-266,0,-13,222,-278,213.86810278892517,213.86820697784424,213.87167763710022,213.88241910934448,214.03614568710327,214.03614568710327,214.03614568710327,214.03614568710327,214.03614568710327,214.03614568710327,214.03614568710327,215.7829990386963,2,1.8838660717010498,None,,,,,,,,,,,,,,,,,,178,1,2025-03-04_10h00.05.488,comp,2024.2.4,57.35298380722919,2025-03-04 10h00.58.989281 -0500,
47,47,0,filler_square,None,None,None,None,None,None,None,None,None,None,1,1.7513463497161865,None,,,,,0,0,0,0,0,47,47,202,215.7989354133606,,,,,,,,,,,,,,,,,,,,,,,,,,,,,,,,,,,,,,,,,,,,,,,,,,,,,,,,,,,,,,,,,,,,,,,,,,,,,,,,,115.75243799678937,115.75243799678937,87.42549511823991,99.27458609571761,99.2234141873566,92.34146749230466,2.1,2.12,-204,-286,0,-272,192,258,215.78501176834106,215.78509259223938,215.7886312007904,215.7989354133606,215.94887733459473,215.94887733459473,215.94887733459473,215.94887733459473,215.94887733459473,215.94887733459473,215.94887733459473,217.56690168380737,1,1.7513463497161865,None,,,,,,,,,,,,,,,,,,178,1,2025-03-04_10h00.05.488,comp,2024.2.4,57.35298380722919,2025-03-04 10h00.58.989281 -0500,
48,48,0,critical,dhw,20.0,1.0,lower,78.0,78.0,133.0,57.0,57.0,133.0,2,1.7363669872283936,None,,,,,0,0,0,0,0,48,48,54,217.5822901725769,,,,,,,,,,,,,,,,,,,,,,,,,,,,,,,,,,,,,,,,,,,,,,,,,,,,,,,,,,,,,,,,,,,,,,,,,,,,,,,,,78.0,78.0,133.0,57.0,57.0,133.0,1.0,1.2,-164,-5,0,-15,191,14,217.56842279434204,217.56850481033325,217.57168412208557,217.5822901725769,217.7341651916504,217.7341651916504,217.7341651916504,217.7341651916504,217.7341651916504,217.7341651916504,217.7341651916504,219.3236746788025,2,1.7363669872283936,None,,,,,,,,,,,,,,,,,,178,1,2025-03-04_10h00.05.488,comp,2024.2.4,57.35298380722919,2025-03-04 10h00.58.989281 -0500,
49,49,0,filler_square,None,None,None,None,None,None,None,None,None,None,1,0.7534453868865967,None,,,,,0,0,0,0,0,49,49,182,219.34153079986572,,,,,,,,,,,,,,,,,,,,,,,,,,,,,,,,,,,,,,,,,,,,,,,,,,,,,,,,,,,,,,,,,,,,,,,,,,,,,,,,,175.03720319493323,175.03720319493323,125.82584456549267,99.57773489495654,71.20450714629669,64.67399766646999,2.2,2.22,-233,271,0,-251,178,-266,219.3254578113556,219.32553839683533,219.32842254638672,219.34153079986572,219.48411107063293,219.48411107063293,219.48411107063293,219.48411107063293,219.48411107063293,219.48411107063293,219.48411107063293,220.1011781692505,1,0.7534453868865967,None,,,,,,,,,,,,,,,,,,178,1,2025-03-04_10h00.05.488,comp,2024.2.4,57.35298380722919,2025-03-04 10h00.58.989281 -0500,
50,50,0,filler_square,None,None,None,None,None,None,None,None,None,None,2,1.3619129657745361,None,,,,,0,0,0,0,0,50,50,184,220.11636424064636,,,,,,,,,,,,,,,,,,,,,,,,,,,,,,,,,,,,,,,,,,,,,,,,,,,,,,,,,,,,,,,,,,,,,,,,,,,,,,,,,65.88645870532807,63.86752853082568,84.40765506396497,84.40765506396497,59.51755024764093,79.38287431983585,3.0,3.1,-170,263,0,4,178,-258,220.10319662094116,220.10327887535095,220.10671019554138,220.11636424064636,220.26832580566406,220.26832580566406,220.26832580566406,220.26832580566406,220.26832580566406,220.26832580566406,220.26832580566406,221.4908151626587,2,1.3619129657745361,None,,,,,,,,,,,,,,,,,,178,1,2025-03-04_10h00.05.488,comp,2024.2.4,57.35298380722919,2025-03-04 10h00.58.989281 -0500,
51,51,0,filler_square,None,None,None,None,None,None,None,None,None,None,1,1.2983081340789795,None,,,,,0,0,0,0,0,51,51,174,221.5101261138916,,,,,,,,,,,,,,,,,,,,,,,,,,,,,,,,,,,,,,,,,,,,,,,,,,,,,,,,,,,,,,,,,,,,,,,,,,,,,,,,,183.7478419348825,183.7478419348825,178.56941311990334,69.59902407751431,87.71614782627188,172.65998832950422,3.0,3.2,-223,-250,0,-1,217,289,221.49257802963257,221.49265933036804,221.49562621116638,221.5101261138916,221.6502947807312,221.6502947807312,221.6502947807312,221.6502947807312,221.6502947807312,221.6502947807312,221.6502947807312,222.81896877288818,1,1.2983081340789795,None,,,,,,,,,,,,,,,,,,178,1,2025-03-04_10h00.05.488,comp,2024.2.4,57.35298380722919,2025-03-04 10h00.58.989281 -0500,
52,52,0,filler_square,None,None,None,None,None,None,None,None,None,None,3,1.2912204265594482,None,,,,,0,0,0,0,0,52,52,201,222.835125207901,,,,,,,,,,,,,,,,,,,,,,,,,,,,,,,,,,,,,,,,,,,,,,,,,,,,,,,,,,,,,,,,,,,,,,,,,,,,,,,,,79.35345315022563,83.7458648341949,67.19493269588408,64.30079217026838,93.65827159051365,93.65827159051365,2.1,2.12,-170,-275,0,-280,175,257,222.82072472572327,222.82080554962158,222.82435584068298,222.835125207901,222.9842119216919,222.9842119216919,222.9842119216919,222.9842119216919,222.9842119216919,222.9842119216919,222.9842119216919,224.13983058929443,3,1.2912204265594482,None,,,,,,,,,,,,,,,,,,178,1,2025-03-04_10h00.05.488,comp,2024.2.4,57.35298380722919,2025-03-04 10h00.58.989281 -0500,
53,53,0,filler_square,None,None,None,None,None,None,None,None,None,None,1,4.432526111602783,None,,,,,0,0,0,0,0,53,53,197,224.15788769721985,,,,,,,,,,,,,,,,,,,,,,,,,,,,,,,,,,,,,,,,,,,,,,,,,,,,,,,,,,,,,,,,,,,,,,,,,,,,,,,,,58.406762797542164,58.406762797542164,57.919586270121535,57.52852303445404,57.15692464294612,58.0398902054494,2.1,2.11,-154,253,0,260,154,-279,224.14170837402344,224.14178895950317,224.14476919174194,224.15788769721985,224.30296516418457,224.30296516418457,224.30296516418457,224.30296516418457,224.30296516418457,224.30296516418457,224.30296516418457,228.60411596298218,1,4.432526111602783,None,,,,,,,,,,,,,,,,,,178,1,2025-03-04_10h00.05.488,comp,2024.2.4,57.35298380722919,2025-03-04 10h00.58.989281 -0500,
54,54,0,filler_square,None,None,None,None,None,None,None,None,None,None,3,1.9462358951568604,None,,,,,0,0,0,0,0,54,54,204,228.6204137802124,,,,,,,,,,,,,,,,,,,,,,,,,,,,,,,,,,,,,,,,,,,,,,,,,,,,,,,,,,,,,,,,,,,,,,,,,,,,,,,,,65.8895659461569,134.35871981815473,155.27878269248959,164.21810308404744,180.1690468485596,180.1690468485596,4.0,4.1,-245,-251,0,16,268,-259,228.60596108436584,228.60605931282043,228.610107421875,228.6204137802124,228.769672870636,228.769672870636,228.769672870636,228.769672870636,228.769672870636,228.769672870636,228.769672870636,230.57135605812073,3,1.9462358951568604,None,,,,,,,,,,,,,,,,,,178,1,2025-03-04_10h00.05.488,comp,2024.2.4,57.35298380722919,2025-03-04 10h00.58.989281 -0500,
55,55,0,filler_random,None,None,None,None,None,None,None,None,None,None,1,1.2755663394927979,None,,,,,0,0,0,0,0,55,55,130,230.5880424976349,,,,,,,,,,,,,,,,,,,,,,,,,,,,,,,,,,,,,,,,,,,,,,,,,,,,,,,,,,,,,,,,,,,,,,,,,,,,,,,,,80.10654024079336,178.9388012141609,188.04197660867362,66.09185193751236,72.54657193959785,145.56525297408135,2.2,2.21,-219,-259,0,288,202,281,230.57312083244324,230.57320523262024,230.5772635936737,230.5880424976349,230.73856592178345,230.73856592178345,230.73856592178345,230.73856592178345,230.73856592178345,230.73856592178345,230.73856592178345,231.87001824378967,1,1.2755663394927979,None,,,,,,,,,,,,,,,,,,178,1,2025-03-04_10h00.05.488,comp,2024.2.4,57.35298380722919,2025-03-04 10h00.58.989281 -0500,
56,56,0,critical,hdw,20.0,2.1,lower,133.0,57.0,78.0,78.0,57.0,133.0,1,2.45548677444458,None,,,,,0,0,0,0,0,56,56,22,231.88700342178345,,,,,,,,,,,,,,,,,,,,,,,,,,,,,,,,,,,,,,,,,,,,,,,,,,,,,,,,,,,,,,,,,,,,,,,,,,,,,,,,,133.0,57.0,78.0,78.0,57.0,133.0,2.1,2.12,-164,-286,0,-251,202,285,231.87160420417786,231.87168264389038,231.87512016296387,231.88700342178345,232.03830981254578,232.03830981254578,232.03830981254578,232.03830981254578,232.03830981254578,232.03830981254578,232.03830981254578,234.3582890033722,1,2.45548677444458,None,,,,,,,,,,,,,,,,,,178,1,2025-03-04_10h00.05.488,comp,2024.2.4,57.35298380722919,2025-03-04 10h00.58.989281 -0500,
57,57,0,critical,dhw,20.0,2.1,upper,141.0,141.0,200.0,125.0,125.0,200.0,3,1.8906617164611816,None,,,,,0,0,0,0,0,57,57,27,234.37384963035583,,,,,,,,,,,,,,,,,,,,,,,,,,,,,,,,,,,,,,,,,,,,,,,,,,,,,,,,,,,,,,,,,,,,,,,,,,,,,,,,,141.0,141.0,200.0,125.0,125.0,200.0,2.1,2.12,-229,-289,0,-283,258,281,234.35975670814514,234.35983681678772,234.36353397369385,234.37384963035583,234.52112007141113,234.52112007141113,234.52112007141113,234.52112007141113,234.52112007141113,234.52112007141113,234.52112007141113,236.2713131904602,3,1.8906617164611816,None,,,,,,,,,,,,,,,,,,178,1,2025-03-04_10h00.05.488,comp,2024.2.4,57.35298380722919,2025-03-04 10h00.58.989281 -0500,
58,58,0,filler_square,None,None,None,None,None,None,None,None,None,None,3,1.8954541683197021,None,,,,,0,0,0,0,0,58,58,170,236.28763031959534,,,,,,,,,,,,,,,,,,,,,,,,,,,,,,,,,,,,,,,,,,,,,,,,,,,,,,,,,,,,,,,,,,,,,,,,,,,,,,,,,60.632669537376174,90.25210212969705,76.91284465922294,85.44436243173602,101.15083591752163,101.15083591752163,3.0,3.1,-184,266,0,7,189,-288,236.27309608459473,236.27317357063293,236.2760193347931,236.28763031959534,236.43981456756592,236.43981456756592,236.43981456756592,236.43981456756592,236.43981456756592,236.43981456756592,236.43981456756592,238.189519405365,3,1.8954541683197021,None,,,,,,,,,,,,,,,,,,178,1,2025-03-04_10h00.05.488,comp,2024.2.4,57.35298380722919,2025-03-04 10h00.58.989281 -0500,
59,59,0,filler_random,None,None,None,None,None,None,None,None,None,None,1,2.185192823410034,None,,,,,0,0,0,0,0,59,59,159,238.20525097846985,,,,,,,,,,,,,,,,,,,,,,,,,,,,,,,,,,,,,,,,,,,,,,,,,,,,,,,,,,,,,,,,,,,,,,,,,,,,,,,,,148.80513900497647,75.98860772590972,122.99944823579641,57.71729163646728,68.71052108566141,198.97663540949932,1.0,1.2,-163,-8,0,9,224,-17,238.19120955467224,238.19128918647766,238.19435596466064,238.20525097846985,238.3600516319275,238.3600516319275,238.3600516319275,238.3600516319275,238.3600516319275,238.3600516319275,238.3600516319275,240.4073896408081,1,2.185192823410034,None,,,,,,,,,,,,,,,,,,178,1,2025-03-04_10h00.05.488,comp,2024.2.4,57.35298380722919,2025-03-04 10h00.58.989281 -0500,
60,60,0,filler_square,None,None,None,None,None,None,None,None,None,None,2,1.615097999572754,None,,,,,0,0,0,0,0,60,60,176,240.42365288734436,,,,,,,,,,,,,,,,,,,,,,,,,,,,,,,,,,,,,,,,,,,,,,,,,,,,,,,,,,,,,,,,,,,,,,,,,,,,,,,,,75.03436474590553,66.7378661454889,77.95273594522963,77.95273594522963,67.70475928660943,65.7819061617042,3.0,3.1,-168,275,0,-12,168,-288,240.4094386100769,240.4095160961151,240.41291618347168,240.42365288734436,240.57540082931519,240.57540082931519,240.57540082931519,240.57540082931519,240.57540082931519,240.57540082931519,240.57540082931519,242.05748057365417,2,1.615097999572754,None,,,,,,,,,,,,,,,,,,178,1,2025-03-04_10h00.05.488,comp,2024.2.4,57.35298380722919,2025-03-04 10h00.58.989281 -0500,
61,61,0,critical,whd,35.0,3.0,lower,57.0,133.0,133.0,57.0,70.0,70.0,2,2.4811718463897705,None,,,,,0,0,0,0,0,61,61,86,242.07750535011292,,,,,,,,,,,,,,,,,,,,,,,,,,,,,,,,,,,,,,,,,,,,,,,,,,,,,,,,,,,,,,,,,,,,,,,,,,,,,,,,,57.0,133.0,133.0,57.0,70.0,70.0,3.0,3.2,-191,-269,0,15,160,265,242.058997631073,242.0590798854828,242.0621955394745,242.07750535011292,242.22702741622925,242.22702741622925,242.22702741622925,242.22702741622925,242.22702741622925,242.22702741622925,242.22702741622925,244.56230282783508,2,2.4811718463897705,None,,,,,,,,,,,,,,,,,,178,1,2025-03-04_10h00.05.488,comp,2024.2.4,57.35298380722919,2025-03-04 10h00.58.989281 -0500,
62,62,0,filler_random,None,None,None,None,None,None,None,None,None,None,3,0.8660633563995361,None,,,,,0,0,0,0,0,62,62,131,244.58024525642395,,,,,,,,,,,,,,,,,,,,,,,,,,,,,,,,,,,,,,,,,,,,,,,,,,,,,,,,,,,,,,,,,,,,,,,,,,,,,,,,,141.56829787089688,62.197011110521956,92.81855217700445,75.96593851487034,117.58715958776719,182.2369688507777,4.0,4.2,-165,9,0,-275,225,-8,244.56406116485596,244.5641438961029,244.5670735836029,244.58024525642395,244.72506403923035,244.72506403923035,244.72506403923035,244.72506403923035,244.72506403923035,244.72506403923035,244.72506403923035,245.45597171783447,3,0.8660633563995361,None,,,,,,,,,,,,,,,,,,178,1,2025-03-04_10h00.05.488,comp,2024.2.4,57.35298380722919,2025-03-04 10h00.58.989281 -0500,
63,63,0,critical,wdh,20.0,3.0,lower,57.0,133.0,78.0,78.0,133.0,57.0,3,2.1746466159820557,None,,,,,0,0,0,0,0,63,63,80,245.47182774543762,,,,,,,,,,,,,,,,,,,,,,,,,,,,,,,,,,,,,,,,,,,,,,,,,,,,,,,,,,,,,,,,,,,,,,,,,,,,,,,,,57.0,133.0,78.0,78.0,133.0,57.0,3.0,3.1,-202,254,0,-2,164,-284,245.45745062828064,245.4575319290161,245.4609694480896,245.47182774543762,245.60989785194397,245.60989785194397,245.60989785194397,245.60989785194397,245.60989785194397,245.60989785194397,245.60989785194397,247.6597273349762,3,2.1746466159820557,None,,,,,,,,,,,,,,,,,,178,1,2025-03-04_10h00.05.488,comp,2024.2.4,57.35298380722919,2025-03-04 10h00.58.989281 -0500,
64,64,0,filler_square,None,None,None,None,None,None,None,None,None,None,3,1.0593409538269043,None,,,,,0,0,0,0,0,64,64,190,247.67582607269287,,,,,,,,,,,,,,,,,,,,,,,,,,,,,,,,,,,,,,,,,,,,,,,,,,,,,,,,,,,,,,,,,,,,,,,,,,,,,,,,,71.01638482399402,80.22524123016166,62.49381189811389,97.40056149657632,106.32580546846795,106.32580546846795,2.1,2.12,-185,-286,0,-270,198,264,247.66147828102112,247.66155576705933,247.66468262672424,247.67582607269287,247.82614374160767,247.82614374160767,247.82614374160767,247.82614374160767,247.82614374160767,247.82614374160767,247.82614374160767,248.7440323829651,3,1.0593409538269043,None,,,,,,,,,,,,,,,,,,178,1,2025-03-04_10h00.05.488,comp,2024.2.4,57.35298380722919,2025-03-04 10h00.58.989281 -0500,
65,65,0,critical,hdw,20.0,4.0,upper,200.0,125.0,141.0,141.0,125.0,200.0,1,2.213024377822876,None,,,,,0,0,0,0,0,65,65,119,248.76188683509827,,,,,,,,,,,,,,,,,,,,,,,,,,,,,,,,,,,,,,,,,,,,,,,,,,,,,,,,,,,,,,,,,,,,,,,,,,,,,,,,,200.0,125.0,141.0,141.0,125.0,200.0,4.0,4.1,-229,-252,0,-2,266,-254,248.7455108165741,248.74558568000793,248.74889135360718,248.76188683509827,248.90944695472717,248.90944695472717,248.90944695472717,248.90944695472717,248.90944695472717,248.90944695472717,248.90944695472717,250.98083925247192,1,2.213024377822876,None,,,,,,,,,,,,,,,,,,178,1,2025-03-04_10h00.05.488,comp,2024.2.4,57.35298380722919,2025-03-04 10h00.58.989281 -0500,
66,66,0,filler_square,None,None,None,None,None,None,None,None,None,None,3,1.1643340587615967,None,,,,,0,0,0,0,0,66,66,178,251.00196433067322,,,,,,,,,,,,,,,,,,,,,,,,,,,,,,,,,,,,,,,,,,,,,,,,,,,,,,,,,,,,,,,,,,,,,,,,,,,,,,,,,111.64622931539105,118.26063253823108,96.15277955055724,167.89562851801148,197.59484854566637,197.59484854566637,2.1,2.11,-239,287,0,281,279,-263,250.98312973976135,250.9832248687744,250.98618626594543,251.00196433067322,251.14424562454224,251.14424562454224,251.14424562454224,251.14424562454224,251.14424562454224,251.14424562454224,251.14424562454224,252.17869520187378,3,1.1643340587615967,None,,,,,,,,,,,,,,,,,,178,1,2025-03-04_10h00.05.488,comp,2024.2.4,57.35298380722919,2025-03-04 10h00.58.989281 -0500,
67,67,0,critical,hdw,35.0,1.0,lower,133.0,57.0,70.0,70.0,57.0,133.0,3,3.707918643951416,None,,,,,0,0,0,0,0,67,67,108,252.194828748703,,,,,,,,,,,,,,,,,,,,,,,,,,,,,,,,,,,,,,,,,,,,,,,,,,,,,,,,,,,,,,,,,,,,,,,,,,,,,,,,,133.0,57.0,70.0,70.0,57.0,133.0,1.0,1.1,-640,288,-480,255,-282,276,252.18029308319092,252.1803684234619,252.18421864509583,252.194828748703,252.34717082977295,252.34717082977295,252.34717082977295,252.34717082977295,252.34717082977295,252.34717082977295,252.34717082977295,255.91242790222168,3,3.707918643951416,None,,,,,,,,,,,,,,,,,,178,1,2025-03-04_10h00.05.488,comp,2024.2.4,57.35298380722919,2025-03-04 10h00.58.989281 -0500,
68,68,0,critical,wdh,20.0,4.0,lower,57.0,133.0,78.0,78.0,133.0,57.0,2,1.838712215423584,None,,,,,0,0,0,0,0,68,68,82,255.9282443523407,,,,,,,,,,,,,,,,,,,,,,,,,,,,,,,,,,,,,,,,,,,,,,,,,,,,,,,,,,,,,,,,,,,,,,,,,,,,,,,,,57.0,133.0,78.0,78.0,133.0,57.0,4.0,4.2,-202,-19,0,-284,164,12,255.9139223098755,255.91403079032898,255.91744256019592,255.9282443523407,256.07969069480896,256.07969069480896,256.07969069480896,256.07969069480896,256.07969069480896,256.07969069480896,256.07969069480896,257.7841079235077,2,1.838712215423584,None,,,,,,,,,,,,,,,,,,178,1,2025-03-04_10h00.05.488,comp,2024.2.4,57.35298380722919,2025-03-04 10h00.58.989281 -0500,
69,69,0,filler_square,None,None,None,None,None,None,None,None,None,None,1,1.942894697189331,None,,,,,0,0,0,0,0,69,69,199,257.8003730773926,,,,,,,,,,,,,,,,,,,,,,,,,,,,,,,,,,,,,,,,,,,,,,,,,,,,,,,,,,,,,,,,,,,,,,,,,,,,,,,,,160.3771275127524,160.3771275127524,59.59684825301699,115.99868078066363,144.29670095553087,71.19073163062893,4.0,4.1,-234,-273,0,15,190,-275,257.78586196899414,257.78596329689026,257.7891089916229,257.8003730773926,257.94508385658264,257.94508385658264,257.94508385658264,257.94508385658264,257.94508385658264,257.94508385658264,257.94508385658264,259.748562335968,1,1.942894697189331,None,,,,,,,,,,,,,,,,,,178,1,2025-03-04_10h00.05.488,comp,2024.2.4,57.35298380722919,2025-03-04 10h00.58.989281 -0500,
70,70,0,critical,dhw,35.0,4.0,upper,127.0,127.0,200.0,125.0,125.0,200.0,3,1.2089283466339111,None,,,,,0,0,0,0,0,70,70,53,259.7658362388611,,,,,,,,,,,,,,,,,,,,,,,,,,,,,,,,,,,,,,,,,,,,,,,,,,,,,,,,,,,,,,,,,,,,,,,,,,,,,,,,,127.0,127.0,200.0,125.0,125.0,200.0,4.0,4.2,-222,19,0,-259,258,13,259.7501046657562,259.7502336502075,259.75419330596924,259.7658362388611,259.90251898765564,259.90251898765564,259.90251898765564,259.90251898765564,259.90251898765564,259.90251898765564,259.90251898765564,260.9813702106476,3,1.2089283466339111,None,,,,,,,,,,,,,,,,,,178,1,2025-03-04_10h00.05.488,comp,2024.2.4,57.35298380722919,2025-03-04 10h00.58.989281 -0500,
71,71,0,filler_square,None,None,None,None,None,None,None,None,None,None,2,0.943058967590332,None,,,,,0,0,0,0,0,71,71,209,260.9998791217804,,,,,,,,,,,,,,,,,,,,,,,,,,,,,,,,,,,,,,,,,,,,,,,,,,,,,,,,,,,,,,,,,,,,,,,,,,,,,,,,,84.7605814848485,67.45893092187791,140.0851253513628,140.0851253513628,137.94698653287324,67.41473396410053,1.0,1.2,-200,-2,0,9,200,-4,260.9832675457001,260.9833815097809,260.98669815063477,260.9998791217804,261.1469247341156,261.1469247341156,261.1469247341156,261.1469247341156,261.1469247341156,261.1469247341156,261.1469247341156,261.94862818717957,2,0.943058967590332,None,,,,,,,,,,,,,,,,,,178,1,2025-03-04_10h00.05.488,comp,2024.2.4,57.35298380722919,2025-03-04 10h00.58.989281 -0500,
72,72,0,critical,dwh,20.0,3.0,lower,78.0,78.0,57.0,133.0,133.0,57.0,2,2.1540138721466064,None,,,,,0,0,0,0,0,72,72,68,261.96459317207336,,,,,,,,,,,,,,,,,,,,,,,,,,,,,,,,,,,,,,,,,,,,,,,,,,,,,,,,,,,,,,,,,,,,,,,,,,,,,,,,,78.0,78.0,57.0,133.0,133.0,57.0,3.0,3.1,-202,266,0,-11,191,-270,261.9502534866333,261.95036268234253,261.9538402557373,261.96459317207336,262.1129033565521,262.1129033565521,262.1129033565521,262.1129033565521,262.1129033565521,262.1129033565521,262.1129033565521,264.1308569908142,2,2.1540138721466064,None,,,,,,,,,,,,,,,,,,178,1,2025-03-04_10h00.05.488,comp,2024.2.4,57.35298380722919,2025-03-04 10h00.58.989281 -0500,
73,73,0,catch,None,None,None,None,None,None,None,None,None,None,1,0.8588430881500244,None,,,,,0,0,0,0,0,73,73,127,264.1476092338562,,,,,,,,,,,,,,,,,,,,,,,,,,,,,,,,,,,,,,,,,,,,,,,,,,,,,,,,,,,,,,,,,,,,,,,,,,,,,,,,,155,170,84,106,94,96,2.1,2.12,-234,-281,0,-283,197,276,264.1329321861267,264.13303875923157,264.136225938797,264.1476092338562,264.30090975761414,264.30090975761414,264.30090975761414,264.30090975761414,264.30090975761414,264.30090975761414,264.30090975761414,265.0242693424225,1,0.8588430881500244,None,,,,,,,,,,,,,,,,,,178,1,2025-03-04_10h00.05.488,comp,2024.2.4,57.35298380722919,2025-03-04 10h00.58.989281 -0500,
74,74,0,filler_random,None,None,None,None,None,None,None,None,None,None,2,0.941274881362915,None,,,,,0,0,0,0,0,74,74,166,265.0417983531952,,,,,,,,,,,,,,,,,,,,,,,,,,,,,,,,,,,,,,,,,,,,,,,,,,,,,,,,,,,,,,,,,,,,,,,,,,,,,,,,,88.48719871921966,57.13505937358171,156.4685547484018,166.7891709667315,65.81667435372383,104.73490175855416,2.2,2.22,-208,257,0,-257,232,-258,265.02606320381165,265.02614402770996,265.02902126312256,265.0417983531952,265.18732714653015,265.18732714653015,265.18732714653015,265.18732714653015,265.18732714653015,265.18732714653015,265.18732714653015,265.98959708213806,2,0.941274881362915,None,,,,,,,,,,,,,,,,,,178,1,2025-03-04_10h00.05.488,comp,2024.2.4,57.35298380722919,2025-03-04 10h00.58.989281 -0500,
75,75,0,critical,dwh,20.0,2.1,lower,78.0,78.0,57.0,133.0,133.0,57.0,3,2.8548331260681152,None,,,,,0,0,0,0,0,75,75,30,266.0077521800995,,,,,,,,,,,,,,,,,,,,,,,,,,,,,,,,,,,,,,,,,,,,,,,,,,,,,,,,,,,,,,,,,,,,,,,,,,,,,,,,,78.0,78.0,57.0,133.0,133.0,57.0,2.1,2.12,-202,-272,0,-270,191,266,265.99122619628906,265.9913308620453,265.9946093559265,266.0077521800995,266.149778842926,266.149778842926,266.149778842926,266.149778842926,266.149778842926,266.149778842926,266.149778842926,268.86714005470276,3,2.8548331260681152,None,,,,,,,,,,,,,,,,,,178,1,2025-03-04_10h00.05.488,comp,2024.2.4,57.35298380722919,2025-03-04 10h00.58.989281 -0500,
76,76,0,critical,dwh,35.0,4.0,upper,127.0,127.0,125.0,200.0,200.0,125.0,2,0.8912854194641113,None,,,,,0,0,0,0,0,76,76,65,268.88387846946716,,,,,,,,,,,,,,,,,,,,,,,,,,,,,,,,,,,,,,,,,,,,,,,,,,,,,,,,,,,,,,,,,,,,,,,,,,,,,,,,,127.0,127.0,125.0,200.0,200.0,125.0,4.0,4.1,-260,-257,0,11,258,-256,268.86876916885376,268.86889910697937,268.87241220474243,268.88387846946716,269.03345561027527,269.03345561027527,269.03345561027527,269.03345561027527,269.03345561027527,269.03345561027527,269.03345561027527,269.78461384773254,2,0.8912854194641113,None,,,,,,,,,,,,,,,,,,178,1,2025-03-04_10h00.05.488,comp,2024.2.4,57.35298380722919,2025-03-04 10h00.58.989281 -0500,
77,77,0,critical,hdw,20.0,2.1,upper,200.0,125.0,141.0,141.0,125.0,200.0,1,2.0484793186187744,None,,,,,0,0,0,0,0,77,77,47,269.806188583374,,,,,,,,,,,,,,,,,,,,,,,,,,,,,,,,,,,,,,,,,,,,,,,,,,,,,,,,,,,,,,,,,,,,,,,,,,,,,,,,,200.0,125.0,141.0,141.0,125.0,200.0,2.1,2.12,-229,-256,0,-270,266,271,269.78631114959717,269.78644323349,269.78977608680725,269.806188583374,269.9510202407837,269.9510202407837,269.9510202407837,269.9510202407837,269.9510202407837,269.9510202407837,269.9510202407837,271.86904287338257,1,2.0484793186187744,None,,,,,,,,,,,,,,,,,,178,1,2025-03-04_10h00.05.488,comp,2024.2.4,57.35298380722919,2025-03-04 10h00.58.989281 -0500,
78,78,0,filler_square,None,None,None,None,None,None,None,None,None,None,3,1.6494836807250977,None,,,,,0,0,0,0,0,78,78,171,271.88496923446655,,,,,,,,,,,,,,,,,,,,,,,,,,,,,,,,,,,,,,,,,,,,,,,,,,,,,,,,,,,,,,,,,,,,,,,,,,,,,,,,,59.96268023779114,61.66600605695165,64.48096394666385,65.14731182176666,75.25457457445803,75.25457457445803,4.0,4.2,-159,9,0,-264,166,-18,271.87100172042847,271.8710849285126,271.87460374832153,271.88496923446655,272.035471200943,272.035471200943,272.035471200943,272.035471200943,272.035471200943,272.035471200943,272.035471200943,273.5523331165314,3,1.6494836807250977,None,,,,,,,,,,,,,,,,,,178,1,2025-03-04_10h00.05.488,comp,2024.2.4,57.35298380722919,2025-03-04 10h00.58.989281 -0500,
79,79,0,filler_square,None,None,None,None,None,None,None,None,None,None,3,0.9418148994445801,None,,,,,0,0,0,0,0,79,79,203,273.5693950653076,,,,,,,,,,,,,,,,,,,,,,,,,,,,,,,,,,,,,,,,,,,,,,,,,,,,,,,,,,,,,,,,,,,,,,,,,,,,,,,,,142.67926662743332,110.76549560680499,100.87727274937725,109.95156728011239,169.57802960485145,169.57802960485145,3.0,3.2,-206,-268,0,11,236,262,273.55439734458923,273.5544784069061,273.5577130317688,273.5693950653076,273.7211720943451,273.7211720943451,273.7211720943451,273.7211720943451,273.7211720943451,273.7211720943451,273.7211720943451,274.51858615875244,3,0.9418148994445801,None,,,,,,,,,,,,,,,,,,178,1,2025-03-04_10h00.05.488,comp,2024.2.4,57.35298380722919,2025-03-04 10h00.58.989281 -0500,
80,80,0,critical,whd,20.0,3.0,upper,125.0,200.0,200.0,125.0,141.0,141.0,1,2.105814218521118,None,,,,,0,0,0,0,0,80,80,93,274.53303933143616,,,,,,,,,,,,,,,,,,,,,,,,,,,,,,,,,,,,,,,,,,,,,,,,,,,,,,,,,,,,,,,,,,,,,,,,,,,,,,,,,125.0,200.0,200.0,125.0,141.0,141.0,3.0,3.2,-258,-279,0,7,229,268,274.52013659477234,274.5202190876007,274.52335929870605,274.53303933143616,274.68596506118774,274.68596506118774,274.68596506118774,274.68596506118774,274.68596506118774,274.68596506118774,274.68596506118774,276.6596157550812,1,2.105814218521118,None,,,,,,,,,,,,,,,,,,178,1,2025-03-04_10h00.05.488,comp,2024.2.4,57.35298380722919,2025-03-04 10h00.58.989281 -0500,
81,81,0,filler_random,None,None,None,None,None,None,None,None,None,None,3,1.0807712078094482,None,,,,,0,0,0,0,0,81,81,167,276.6777563095093,,,,,,,,,,,,,,,,,,,,,,,,,,,,,,,,,,,,,,,,,,,,,,,,,,,,,,,,,,,,,,,,,,,,,,,,,,,,,,,,,90.41425636506908,126.63319520642037,153.0403908249615,94.3674558643949,130.28171168365694,125.25630041969708,4.0,4.1,-207,-277,0,12,206,-251,276.66153740882874,276.6616187095642,276.66490745544434,276.6777563095093,276.82141971588135,276.82141971588135,276.82141971588135,276.82141971588135,276.82141971588135,276.82141971588135,276.82141971588135,277.7630491256714,3,1.0807712078094482,None,,,,,,,,,,,,,,,,,,178,1,2025-03-04_10h00.05.488,comp,2024.2.4,57.35298380722919,2025-03-04 10h00.58.989281 -0500,
82,82,0,critical,wdh,20.0,1.0,lower,57.0,133.0,78.0,78.0,133.0,57.0,1,2.2728612422943115,None,,,,,0,0,0,0,0,82,82,78,277.78164935112,,,,,,,,,,,,,,,,,,,,,,,,,,,,,,,,,,,,,,,,,,,,,,,,,,,,,,,,,,,,,,,,,,,,,,,,,,,,,,,,,57.0,133.0,78.0,78.0,133.0,57.0,1.0,1.3,278,-275,480,-251,644,-256,277.76451873779297,277.76459884643555,277.7674858570099,277.78164935112,277.91856122016907,277.91856122016907,277.91856122016907,277.91856122016907,277.91856122016907,277.91856122016907,277.91856122016907,280.07296991348267,1,2.2728612422943115,None,,,,,,,,,,,,,,,,,,178,1,2025-03-04_10h00.05.488,comp,2024.2.4,57.35298380722919,2025-03-04 10h00.58.989281 -0500,
83,83,0,critical,whd,20.0,2.1,upper,125.0,200.0,200.0,125.0,141.0,141.0,2,3.1389524936676025,None,,,,,0,0,0,0,0,83,83,39,280.0922260284424,,,,,,,,,,,,,,,,,,,,,,,,,,,,,,,,,,,,,,,,,,,,,,,,,,,,,,,,,,,,,,,,,,,,,,,,,,,,,,,,,125.0,200.0,200.0,125.0,141.0,141.0,2.1,2.12,-258,-262,0,-282,229,284,280.07458901405334,280.0747187137604,280.0782001018524,280.0922260284424,280.23753666877747,280.23753666877747,280.23753666877747,280.23753666877747,280.23753666877747,280.23753666877747,280.23753666877747,283.23864006996155,2,3.1389524936676025,None,,,,,,,,,,,,,,,,,,178,1,2025-03-04_10h00.05.488,comp,2024.2.4,57.35298380722919,2025-03-04 10h00.58.989281 -0500,
84,84,0,critical,hwd,20.0,2.1,lower,133.0,57.0,57.0,133.0,78.0,78.0,2,3.1923632621765137,None,,,,,0,0,0,0,0,84,84,42,283.2545883655548,,,,,,,,,,,,,,,,,,,,,,,,,,,,,,,,,,,,,,,,,,,,,,,,,,,,,,,,,,,,,,,,,,,,,,,,,,,,,,,,,133.0,57.0,57.0,133.0,78.0,78.0,2.1,2.11,-191,269,0,257,202,-254,283.24018716812134,283.2402696609497,283.24371337890625,283.2545883655548,283.4052743911743,283.4052743911743,283.4052743911743,283.4052743911743,283.4052743911743,283.4052743911743,283.4052743911743,286.45671367645264,2,3.1923632621765137,None,,,,,,,,,,,,,,,,,,178,1,2025-03-04_10h00.05.488,comp,2024.2.4,57.35298380722919,2025-03-04 10h00.58.989281 -0500,
85,85,0,critical,hdw,20.0,1.0,upper,200.0,125.0,141.0,141.0,125.0,200.0,1,2.3317532539367676,None,,,,,0,0,0,0,0,85,85,115,286.4747076034546,,,,,,,,,,,,,,,,,,,,,,,,,,,,,,,,,,,,,,,,,,,,,,,,,,,,,,,,,,,,,,,,,,,,,,,,,,,,,,,,,200.0,125.0,141.0,141.0,125.0,200.0,1.0,1.2,-229,9,0,-12,266,8,286.45818519592285,286.458261013031,286.4616496562958,286.4747076034546,286.6219906806946,286.6219906806946,286.6219906806946,286.6219906806946,286.6219906806946,286.6219906806946,286.6219906806946,288.8235294818878,1,2.3317532539367676,None,,,,,,,,,,,,,,,,,,178,1,2025-03-04_10h00.05.488,comp,2024.2.4,57.35298380722919,2025-03-04 10h00.58.989281 -0500,
86,86,0,critical,dhw,20.0,2.1,lower,78.0,78.0,133.0,57.0,57.0,133.0,2,2.4801087379455566,None,,,,,0,0,0,0,0,86,86,26,288.8391878604889,,,,,,,,,,,,,,,,,,,,,,,,,,,,,,,,,,,,,,,,,,,,,,,,,,,,,,,,,,,,,,,,,,,,,,,,,,,,,,,,,78.0,78.0,133.0,57.0,57.0,133.0,2.1,2.11,-164,264,0,257,191,-266,288.8250436782837,288.82516980171204,288.82853269577026,288.8391878604889,288.99207973480225,288.99207973480225,288.99207973480225,288.99207973480225,288.99207973480225,288.99207973480225,288.99207973480225,291.32607865333557,2,2.4801087379455566,None,,,,,,,,,,,,,,,,,,178,1,2025-03-04_10h00.05.488,comp,2024.2.4,57.35298380722919,2025-03-04 10h00.58.989281 -0500,
87,87,0,critical,wdh,35.0,1.0,upper,125.0,200.0,127.0,127.0,200.0,125.0,3,2.2802929878234863,None,,,,,0,0,0,0,0,87,87,73,291.343031167984,,,,,,,,,,,,,,,,,,,,,,,,,,,,,,,,,,,,,,,,,,,,,,,,,,,,,,,,,,,,,,,,,,,,,,,,,,,,,,,,,125.0,200.0,127.0,127.0,200.0,125.0,1.0,1.1,-740,281,-480,266,-258,266,291.3276844024658,291.32776856422424,291.3307580947876,291.343031167984,291.4959342479706,291.4959342479706,291.4959342479706,291.4959342479706,291.4959342479706,291.4959342479706,291.4959342479706,293.62888646125793,3,2.2802929878234863,None,,,,,,,,,,,,,,,,,,178,1,2025-03-04_10h00.05.488,comp,2024.2.4,57.35298380722919,2025-03-04 10h00.58.989281 -0500,
88,88,0,filler_random,None,None,None,None,None,None,None,None,None,None,1,2.097562074661255,None,,,,,0,0,0,0,0,88,88,144,293.6454436779022,,,,,,,,,,,,,,,,,,,,,,,,,,,,,,,,,,,,,,,,,,,,,,,,,,,,,,,,,,,,,,,,,,,,,,,,,,,,,,,,,173.66353600511417,99.78104069073753,96.53974895475804,164.1132542867165,168.4384239006463,77.29796317450605,4.0,4.2,-228,-8,0,-275,217,-10,293.6307923793793,293.63087344169617,293.63417053222656,293.6454436779022,293.791823387146,293.791823387146,293.791823387146,293.791823387146,293.791823387146,293.791823387146,293.791823387146,295.7455258369446,1,2.097562074661255,None,,,,,,,,,,,,,,,,,,178,1,2025-03-04_10h00.05.488,comp,2024.2.4,57.35298380722919,2025-03-04 10h00.58.989281 -0500,
89,89,0,critical,hwd,20.0,3.0,lower,133.0,57.0,57.0,133.0,78.0,78.0,2,2.987030506134033,None,,,,,0,0,0,0,0,89,89,104,295.7642891407013,,,,,,,,,,,,,,,,,,,,,,,,,,,,,,,,,,,,,,,,,,,,,,,,,,,,,,,,,,,,,,,,,,,,,,,,,,,,,,,,,133.0,57.0,57.0,133.0,78.0,78.0,3.0,3.2,-191,-262,0,-9,202,269,295.7472083568573,295.74729204177856,295.75023889541626,295.7642891407013,295.9094216823578,295.9094216823578,295.9094216823578,295.9094216823578,295.9094216823578,295.9094216823578,295.9094216823578,298.7562527656555,2,2.987030506134033,None,,,,,,,,,,,,,,,,,,178,1,2025-03-04_10h00.05.488,comp,2024.2.4,57.35298380722919,2025-03-04 10h00.58.989281 -0500,
90,90,0,critical,hwd,20.0,2.1,lower,133.0,57.0,57.0,133.0,78.0,78.0,2,3.1055908203125,None,,,,,0,0,0,0,0,90,90,18,298.7730631828308,,,,,,,,,,,,,,,,,,,,,,,,,,,,,,,,,,,,,,,,,,,,,,,,,,,,,,,,,,,,,,,,,,,,,,,,,,,,,,,,,133.0,57.0,57.0,133.0,78.0,78.0,2.1,2.11,-191,256,0,273,202,-287,298.75782799720764,298.7579040527344,298.76125288009644,298.7730631828308,298.9151680469513,298.9151680469513,298.9151680469513,298.9151680469513,298.9151680469513,298.9151680469513,298.9151680469513,301.89340901374817,2,3.1055908203125,None,,,,,,,,,,,,,,,,,,178,1,2025-03-04_10h00.05.488,comp,2024.2.4,57.35298380722919,2025-03-04 10h00.58.989281 -0500,
91,91,0,critical,hdw,35.0,2.1,upper,200.0,125.0,127.0,127.0,125.0,200.0,3,1.5374855995178223,None,,,,,0,0,0,0,0,91,91,21,301.90916180610657,,,,,,,,,,,,,,,,,,,,,,,,,,,,,,,,,,,,,,,,,,,,,,,,,,,,,,,,,,,,,,,,,,,,,,,,,,,,,,,,,200.0,125.0,127.0,127.0,125.0,200.0,2.1,2.12,-222,-281,0,-275,260,271,301.8950409889221,301.89516711235046,301.8987920284271,301.90916180610657,302.0626127719879,302.0626127719879,302.0626127719879,302.0626127719879,302.0626127719879,302.0626127719879,302.0626127719879,303.46418738365173,3,1.5374855995178223,None,,,,,,,,,,,,,,,,,,178,1,2025-03-04_10h00.05.488,comp,2024.2.4,57.35298380722919,2025-03-04 10h00.58.989281 -0500,
92,92,0,filler_random,None,None,None,None,None,None,None,None,None,None,1,0.8948123455047607,None,,,,,0,0,0,0,0,92,92,138,303.4803276062012,,,,,,,,,,,,,,,,,,,,,,,,,,,,,,,,,,,,,,,,,,,,,,,,,,,,,,,,,,,,,,,,,,,,,,,,,,,,,,,,,142.59178076451713,156.17475472259306,76.92049451987656,100.77112140239697,130.62188982300967,78.21119210137383,4.0,4.2,-224,14,0,-250,185,8,303.4657373428345,303.4658148288727,303.4696726799011,303.4803276062012,303.6240746974945,303.6240746974945,303.6240746974945,303.6240746974945,303.6240746974945,303.6240746974945,303.6240746974945,304.3937780857086,1,0.8948123455047607,None,,,,,,,,,,,,,,,,,,178,1,2025-03-04_10h00.05.488,comp,2024.2.4,57.35298380722919,2025-03-04 10h00.58.989281 -0500,
93,93,0,filler_square,None,None,None,None,None,None,None,None,None,None,2,1.3291308879852295,None,,,,,0,0,0,0,0,93,93,179,304.4136896133423,,,,,,,,,,,,,,,,,,,,,,,,,,,,,,,,,,,,,,,,,,,,,,,,,,,,,,,,,,,,,,,,,,,,,,,,,,,,,,,,,167.9508079050929,159.41587263273482,198.23765733787886,198.23765733787886,173.76369443979334,150.82171824750895,2.1,2.12,-275,-281,0,-256,271,251,304.39551544189453,304.3955912590027,304.39852952957153,304.4136896133423,304.56195855140686,304.56195855140686,304.56195855140686,304.56195855140686,304.56195855140686,304.56195855140686,304.56195855140686,305.76091504096985,2,1.3291308879852295,None,,,,,,,,,,,,,,,,,,178,1,2025-03-04_10h00.05.488,comp,2024.2.4,57.35298380722919,2025-03-04 10h00.58.989281 -0500,
94,94,0,critical,hdw,35.0,1.0,upper,200.0,125.0,127.0,127.0,125.0,200.0,1,2.237900733947754,None,,,,,0,0,0,0,0,94,94,109,305.77682614326477,,,,,,,,,,,,,,,,,,,,,,,,,,,,,,,,,,,,,,,,,,,,,,,,,,,,,,,,,,,,,,,,,,,,,,,,,,,,,,,,,200.0,125.0,127.0,127.0,125.0,200.0,1.0,1.2,-222,12,0,-14,260,-2,305.7623653411865,305.7624394893646,305.76562786102295,305.77682614326477,305.93010330200195,305.93010330200195,305.93010330200195,305.93010330200195,305.93010330200195,305.93010330200195,305.93010330200195,308.02734661102295,1,2.237900733947754,None,,,,,,,,,,,,,,,,,,178,1,2025-03-04_10h00.05.488,comp,2024.2.4,57.35298380722919,2025-03-04 10h00.58.989281 -0500,
95,95,0,critical,dwh,20.0,1.0,lower,78.0,78.0,57.0,133.0,133.0,57.0,2,1.5233969688415527,None,,,,,0,0,0,0,0,95,95,66,308.04308128356934,,,,,,,,,,,,,,,,,,,,,,,,,,,,,,,,,,,,,,,,,,,,,,,,,,,,,,,,,,,,,,,,,,,,,,,,,,,,,,,,,78.0,78.0,57.0,133.0,133.0,57.0,1.0,1.1,-682,272,-480,260,-289,263,308.02890491485596,308.02901101112366,308.03188848495483,308.04308128356934,308.19715642929077,308.19715642929077,308.19715642929077,308.19715642929077,308.19715642929077,308.19715642929077,308.19715642929077,309.5830326080322,2,1.5233969688415527,None,,,,,,,,,,,,,,,,,,178,1,2025-03-04_10h00.05.488,comp,2024.2.4,57.35298380722919,2025-03-04 10h00.58.989281 -0500,
96,96,0,filler_square,None,None,None,None,None,None,None,None,None,None,2,4.079530715942383,None,,,,,0,0,0,0,0,96,96,200,309.599027633667,,,,,,,,,,,,,,,,,,,,,,,,,,,,,,,,,,,,,,,,,,,,,,,,,,,,,,,,,,,,,,,,,,,,,,,,,,,,,,,,,124.74395224176055,138.21105931552097,139.3205725226731,139.3205725226731,118.15983039401564,92.43615280254855,2.2,2.22,-235,274,0,-290,212,-265,309.5850429534912,309.5851790904999,309.58867478370667,309.599027633667,309.7460014820099,309.7460014820099,309.7460014820099,309.7460014820099,309.7460014820099,309.7460014820099,309.7460014820099,313.6808009147644,2,4.079530715942383,None,,,,,,,,,,,,,,,,,,178,1,2025-03-04_10h00.05.488,comp,2024.2.4,57.35298380722919,2025-03-04 10h00.58.989281 -0500,
97,97,0,critical,wdh,35.0,4.0,lower,57.0,133.0,70.0,70.0,133.0,57.0,3,2.4700093269348145,None,,,,,0,0,0,0,0,97,97,76,313.6965973377228,,,,,,,,,,,,,,,,,,,,,,,,,,,,,,,,,,,,,,,,,,,,,,,,,,,,,,,,,,,,,,,,,,,,,,,,,,,,,,,,,57.0,133.0,70.0,70.0,133.0,57.0,4.0,4.2,-198,13,0,-265,160,-4,313.68237805366516,313.68246030807495,313.685822725296,313.6965973377228,313.85220313072205,313.85220313072205,313.85220313072205,313.85220313072205,313.85220313072205,313.85220313072205,313.85220313072205,316.18120098114014,3,2.4700093269348145,None,,,,,,,,,,,,,,,,,,178,1,2025-03-04_10h00.05.488,comp,2024.2.4,57.35298380722919,2025-03-04 10h00.58.989281 -0500,
98,98,0,critical,dhw,35.0,1.0,lower,70.0,70.0,133.0,57.0,57.0,133.0,2,1.6812870502471924,None,,,,,0,0,0,0,0,98,98,48,316.197687625885,,,,,,,,,,,,,,,,,,,,,,,,,,,,,,,,,,,,,,,,,,,,,,,,,,,,,,,,,,,,,,,,,,,,,,,,,,,,,,,,,70.0,70.0,133.0,57.0,57.0,133.0,1.0,1.2,-160,12,0,8,191,-13,316.1827669143677,316.1828467845917,316.18626499176025,316.197687625885,316.34685707092285,316.34685707092285,316.34685707092285,316.34685707092285,316.34685707092285,316.34685707092285,316.34685707092285,317.8812336921692,2,1.6812870502471924,None,,,,,,,,,,,,,,,,,,178,1,2025-03-04_10h00.05.488,comp,2024.2.4,57.35298380722919,2025-03-04 10h00.58.989281 -0500,
99,99,0,critical,hwd,35.0,1.0,upper,200.0,125.0,125.0,200.0,127.0,127.0,1,3.5387375354766846,None,,,,,0,0,0,0,0,99,99,97,317.9006962776184,,,,,,,,,,,,,,,,,,,,,,,,,,,,,,,,,,,,,,,,,,,,,,,,,,,,,,,,,,,,,,,,,,,,,,,,,,,,,,,,,200.0,125.0,125.0,200.0,127.0,127.0,1.0,1.2,-258,-9,0,-8,260,-3,317.88267493247986,317.88275241851807,317.8858530521393,317.9006962776184,318.0485348701477,318.0485348701477,318.0485348701477,318.0485348701477,318.0485348701477,318.0485348701477,318.0485348701477,321.4501175880432,1,3.5387375354766846,None,,,,,,,,,,,,,,,,,,178,1,2025-03-04_10h00.05.488,comp,2024.2.4,57.35298380722919,2025-03-04 10h00.58.989281 -0500,
100,100,0,filler_random,None,None,None,None,None,None,None,None,None,None,2,1.116236686706543,None,,,,,0,0,0,0,0,100,100,165,321.46628618240356,,,,,,,,,,,,,,,,,,,,,,,,,,,,,,,,,,,,,,,,,,,,,,,,,,,,,,,,,,,,,,,,,,,,,,,,,,,,,,,,,194.35062613887274,102.65082336616008,193.16819742963443,129.91292089867073,100.67702959051113,120.07310679809305,1.0,1.2,-212,12,0,12,221,-4,321.45192408561707,321.4520664215088,321.4555459022522,321.46628618240356,321.61668062210083,321.61668062210083,321.61668062210083,321.61668062210083,321.61668062210083,321.61668062210083,321.61668062210083,322.6003451347351,2,1.116236686706543,None,,,,,,,,,,,,,,,,,,178,1,2025-03-04_10h00.05.488,comp,2024.2.4,57.35298380722919,2025-03-04 10h00.58.989281 -0500,
101,101,0,critical,dwh,35.0,3.0,lower,70.0,70.0,57.0,133.0,133.0,57.0,3,2.7504262924194336,None,,,,,0,0,0,0,0,101,101,62,322.6162316799164,,,,,,,,,,,,,,,,,,,,,,,,,,,,,,,,,,,,,,,,,,,,,,,,,,,,,,,,,,,,,,,,,,,,,,,,,,,,,,,,,70.0,70.0,57.0,133.0,133.0,57.0,3.0,3.2,-198,-276,0,-2,191,274,322.60187220573425,322.60198426246643,322.6053886413574,322.6162316799164,322.76850628852844,322.76850628852844,322.76850628852844,322.76850628852844,322.76850628852844,322.76850628852844,322.76850628852844,325.3876783847809,3,2.7504262924194336,None,,,,,,,,,,,,,,,,,,178,1,2025-03-04_10h00.05.488,comp,2024.2.4,57.35298380722919,2025-03-04 10h00.58.989281 -0500,
102,102,0,filler_random,None,None,None,None,None,None,None,None,None,None,1,3.5059189796447754,None,,,,,0,0,0,0,0,102,102,163,325.40616059303284,,,,,,,,,,,,,,,,,,,,,,,,,,,,,,,,,,,,,,,,,,,,,,,,,,,,,,,,,,,,,,,,,,,,,,,,,,,,,,,,,152.63131310067803,109.33147846340621,80.66617326663145,195.0652565011045,69.51301400186428,86.27070745024297,2.2,2.21,-248,-277,0,264,237,274,325.38969373703003,325.3898060321808,325.39321088790894,325.40616059303284,325.55535411834717,325.55535411834717,325.55535411834717,325.55535411834717,325.55535411834717,325.55535411834717,325.55535411834717,328.9180099964142,1,3.5059189796447754,None,,,,,,,,,,,,,,,,,,178,1,2025-03-04_10h00.05.488,comp,2024.2.4,57.35298380722919,2025-03-04 10h00.58.989281 -0500,
103,103,0,filler_square,None,None,None,None,None,None,None,None,None,None,3,5.28339409828186,None,,,,,0,0,0,0,0,103,103,186,328.93300914764404,,,,,,,,,,,,,,,,,,,,,,,,,,,,,,,,,,,,,,,,,,,,,,,,,,,,,,,,,,,,,,,,,,,,,,,,,,,,,,,,,60.3977363061827,59.49655686528213,59.755769324433444,57.071751743074245,61.13724497019503,61.13724497019503,3.0,3.2,-154,-251,0,10,155,251,328.9195032119751,328.91955399513245,328.9215278625488,328.93300914764404,329.0745143890381,329.0745143890381,329.0745143890381,329.0745143890381,329.0745143890381,329.0745143890381,329.0745143890381,334.2210125923157,3,5.28339409828186,None,,,,,,,,,,,,,,,,,,178,1,2025-03-04_10h00.05.488,comp,2024.2.4,57.35298380722919,2025-03-04 10h00.58.989281 -0500,
104,104,0,filler_random,None,None,None,None,None,None,None,None,None,None,2,1.048797845840454,None,,,,,0,0,0,0,0,104,104,169,334.2382035255432,,,,,,,,,,,,,,,,,,,,,,,,,,,,,,,,,,,,,,,,,,,,,,,,,,,,,,,,,,,,,,,,,,,,,,,,,,,,,,,,,59.8414980515161,188.00917182628356,167.52491986265852,123.95431444442234,159.5084059006073,65.69808476540014,1.0,1.2,-252,9,0,13,191,-14,334.2227771282196,334.2229037284851,334.2261519432068,334.2382035255432,334.3938958644867,334.3938958644867,334.3938958644867,334.3938958644867,334.3938958644867,334.3938958644867,334.3938958644867,335.3045344352722,2,1.048797845840454,None,,,,,,,,,,,,,,,,,,178,1,2025-03-04_10h00.05.488,comp,2024.2.4,57.35298380722919,2025-03-04 10h00.58.989281 -0500,
105,105,0,filler_square,None,None,None,None,None,None,None,None,None,None,3,1.1432032585144043,None,,,,,0,0,0,0,0,105,105,188,335.32013177871704,,,,,,,,,,,,,,,,,,,,,,,,,,,,,,,,,,,,,,,,,,,,,,,,,,,,,,,,,,,,,,,,,,,,,,,,,,,,,,,,,59.72986678313061,70.43170454508855,83.02071871473046,82.83302187616343,89.50033023382997,89.50033023382997,3.0,3.2,-173,-271,0,-16,182,261,335.3064262866974,335.3065040111542,335.3098783493042,335.32013177871704,335.47044372558594,335.47044372558594,335.47044372558594,335.47044372558594,335.47044372558594,335.47044372558594,335.47044372558594,336.47126269340515,3,1.1432032585144043,None,,,,,,,,,,,,,,,,,,178,1,2025-03-04_10h00.05.488,comp,2024.2.4,57.35298380722919,2025-03-04 10h00.58.989281 -0500,
106,106,0,critical,wdh,20.0,1.0,upper,125.0,200.0,141.0,141.0,200.0,125.0,3,1.5770745277404785,None,,,,,0,0,0,0,0,106,106,79,336.4876992702484,,,,,,,,,,,,,,,,,,,,,,,,,,,,,,,,,,,,,,,,,,,,,,,,,,,,,,,,,,,,,,,,,,,,,,,,,,,,,,,,,125.0,200.0,141.0,141.0,200.0,125.0,1.0,1.2,-266,1,0,6,229,15,336.4726948738098,336.47277212142944,336.4758665561676,336.4876992702484,336.64141488075256,336.64141488075256,336.64141488075256,336.64141488075256,336.64141488075256,336.64141488075256,336.64141488075256,338.06917095184326,3,1.5770745277404785,None,,,,,,,,,,,,,,,,,,178,1,2025-03-04_10h00.05.488,comp,2024.2.4,57.35298380722919,2025-03-04 10h00.58.989281 -0500,
107,107,0,catch,None,None,None,None,None,None,None,None,None,None,1,1.4253661632537842,None,,,,,0,0,0,0,0,107,107,126,338.08638048171997,,,,,,,,,,,,,,,,,,,,,,,,,,,,,,,,,,,,,,,,,,,,,,,,,,,,,,,,,,,,,,,,,,,,,,,,,,,,,,,,,163,162,81,109,98,92,4.0,4.1,-232,-287,0,-8,196,-261,338.07113885879517,338.0712208747864,338.0741648674011,338.08638048171997,338.2220206260681,338.2220206260681,338.2220206260681,338.2220206260681,338.2220206260681,338.2220206260681,338.2220206260681,339.5226402282715,1,1.4253661632537842,None,,,,,,,,,,,,,,,,,,178,1,2025-03-04_10h00.05.488,comp,2024.2.4,57.35298380722919,2025-03-04 10h00.58.989281 -0500,
108,108,0,critical,dhw,20.0,4.0,lower,78.0,78.0,133.0,57.0,57.0,133.0,2,1.8858020305633545,None,,,,,0,0,0,0,0,108,108,58,339.5372087955475,,,,,,,,,,,,,,,,,,,,,,,,,,,,,,,,,,,,,,,,,,,,,,,,,,,,,,,,,,,,,,,,,,,,,,,,,,,,,,,,,78.0,78.0,133.0,57.0,57.0,133.0,4.0,4.2,-164,-13,0,-285,191,5,339.52415585517883,339.5242338180542,339.52763628959656,339.5372087955475,339.68733978271484,339.68733978271484,339.68733978271484,339.68733978271484,339.68733978271484,339.68733978271484,339.68733978271484,341.4394586086273,2,1.8858020305633545,None,,,,,,,,,,,,,,,,,,178,1,2025-03-04_10h00.05.488,comp,2024.2.4,57.35298380722919,2025-03-04 10h00.58.989281 -0500,
109,109,0,critical,dwh,20.0,4.0,upper,141.0,141.0,125.0,200.0,200.0,125.0,3,1.326627254486084,None,,,,,0,0,0,0,0,109,109,71,341.4560739994049,,,,,,,,,,,,,,,,,,,,,,,,,,,,,,,,,,,,,,,,,,,,,,,,,,,,,,,,,,,,,,,,,,,,,,,,,,,,,,,,,141.0,141.0,125.0,200.0,200.0,125.0,4.0,4.2,-266,19,0,-277,258,6,341.44090604782104,341.44100165367126,341.44465160369873,341.4560739994049,341.6053857803345,341.6053857803345,341.6053857803345,341.6053857803345,341.6053857803345,341.6053857803345,341.6053857803345,342.79561614990234,3,1.326627254486084,None,,,,,,,,,,,,,,,,,,178,1,2025-03-04_10h00.05.488,comp,2024.2.4,57.35298380722919,2025-03-04 10h00.58.989281 -0500,
110,110,0,filler_random,None,None,None,None,None,None,None,None,None,None,1,1.0075154304504395,None,,,,,0,0,0,0,0,110,110,135,342.8158688545227,,,,,,,,,,,,,,,,,,,,,,,,,,,,,,,,,,,,,,,,,,,,,,,,,,,,,,,,,,,,,,,,,,,,,,,,,,,,,,,,,199.69558065573162,82.79435039794777,120.84406698988465,68.53302289739688,188.69689628015325,58.39477309681787,3.0,3.2,-172,-268,0,1,159,275,342.79725408554077,342.79733753204346,342.8002345561981,342.8158688545227,342.95828914642334,342.95828914642334,342.95828914642334,342.95828914642334,342.95828914642334,342.95828914642334,342.95828914642334,343.8263416290283,1,1.0075154304504395,None,,,,,,,,,,,,,,,,,,178,1,2025-03-04_10h00.05.488,comp,2024.2.4,57.35298380722919,2025-03-04 10h00.58.989281 -0500,
111,111,0,catch,None,None,None,None,None,None,None,None,None,None,1,0.8677883148193359,None,,,,,0,0,0,0,0,111,111,120,343.8429698944092,,,,,,,,,,,,,,,,,,,,,,,,,,,,,,,,,,,,,,,,,,,,,,,,,,,,,,,,,,,,,,,,,,,,,,,,,,,,,,,,,174,151,66,124,65,125,2.2,2.22,-234,288,0,-262,220,-279,343.8290522098541,343.8291325569153,343.8320755958557,343.8429698944092,343.9909772872925,343.9909772872925,343.9909772872925,343.9909772872925,343.9909772872925,343.9909772872925,343.9909772872925,344.7277250289917,1,0.8677883148193359,None,,,,,,,,,,,,,,,,,,178,1,2025-03-04_10h00.05.488,comp,2024.2.4,57.35298380722919,2025-03-04 10h00.58.989281 -0500,
112,112,0,filler_random,None,None,None,None,None,None,None,None,None,None,3,2.3141775131225586,None,,,,,0,0,0,0,0,112,112,145,344.7484691143036,,,,,,,,,,,,,,,,,,,,,,,,,,,,,,,,,,,,,,,,,,,,,,,,,,,,,,,,,,,,,,,,,,,,,,,,,,,,,,,,,175.56880598137082,186.8616316038777,185.4269040848146,68.56164891638598,186.05791251031184,172.393177623712,2.2,2.22,-224,280,0,-278,216,-257,344.7295455932617,344.7296772003174,344.73317551612854,344.7484691143036,344.89102435112,344.89102435112,344.89102435112,344.89102435112,344.89102435112,344.89102435112,344.89102435112,347.07361006736755,3,2.3141775131225586,None,,,,,,,,,,,,,,,,,,178,1,2025-03-04_10h00.05.488,comp,2024.2.4,57.35298380722919,2025-03-04 10h00.58.989281 -0500,
113,113,0,filler_random,None,None,None,None,None,None,None,None,None,None,3,1.531764268875122,None,,,,,0,0,0,0,0,113,113,155,347.09088492393494,,,,,,,,,,,,,,,,,,,,,,,,,,,,,,,,,,,,,,,,,,,,,,,,,,,,,,,,,,,,,,,,,,,,,,,,,,,,,,,,,133.10605156418563,112.44738869019451,120.55947556107812,138.30034389406393,150.8266853524427,169.63451916370394,4.0,4.2,-221,-13,0,-277,250,-20,347.0753164291382,347.07539772987366,347.07845091819763,347.09088492393494,347.2373878955841,347.2373878955841,347.2373878955841,347.2373878955841,347.2373878955841,347.2373878955841,347.2373878955841,348.6410880088806,3,1.531764268875122,None,,,,,,,,,,,,,,,,,,178,1,2025-03-04_10h00.05.488,comp,2024.2.4,57.35298380722919,2025-03-04 10h00.58.989281 -0500,
114,114,0,critical,dwh,20.0,2.1,upper,141.0,141.0,125.0,200.0,200.0,125.0,3,2.6057252883911133,None,,,,,0,0,0,0,0,114,114,31,348.6569302082062,,,,,,,,,,,,,,,,,,,,,,,,,,,,,,,,,,,,,,,,,,,,,,,,,,,,,,,,,,,,,,,,,,,,,,,,,,,,,,,,,141.0,141.0,125.0,200.0,200.0,125.0,2.1,2.11,-266,260,0,258,258,-283,348.64259576797485,348.64267563819885,348.6457693576813,348.6569302082062,348.80834555625916,348.80834555625916,348.80834555625916,348.80834555625916,348.80834555625916,348.80834555625916,348.80834555625916,351.27846240997314,3,2.6057252883911133,None,,,,,,,,,,,,,,,,,,178,1,2025-03-04_10h00.05.488,comp,2024.2.4,57.35298380722919,2025-03-04 10h00.58.989281 -0500,
115,115,0,critical,wdh,35.0,2.1,upper,125.0,200.0,127.0,127.0,200.0,125.0,3,2.8562958240509033,None,,,,,0,0,0,0,0,115,115,33,351.2943866252899,,,,,,,,,,,,,,,,,,,,,,,,,,,,,,,,,,,,,,,,,,,,,,,,,,,,,,,,,,,,,,,,,,,,,,,,,,,,,,,,,125.0,200.0,127.0,127.0,200.0,125.0,2.1,2.12,-260,-283,0,-267,222,255,351.2802309989929,351.280366897583,351.2837495803833,351.2943866252899,351.44104838371277,351.44104838371277,351.44104838371277,351.44104838371277,351.44104838371277,351.44104838371277,351.44104838371277,354.160790681839,3,2.8562958240509033,None,,,,,,,,,,,,,,,,,,178,1,2025-03-04_10h00.05.488,comp,2024.2.4,57.35298380722919,2025-03-04 10h00.58.989281 -0500,
116,116,0,critical,dhw,20.0,2.1,lower,78.0,78.0,133.0,57.0,57.0,133.0,2,2.1982345581054688,None,,,,,0,0,0,0,0,116,116,2,354.1766402721405,,,,,,,,,,,,,,,,,,,,,,,,,,,,,,,,,,,,,,,,,,,,,,,,,,,,,,,,,,,,,,,,,,,,,,,,,,,,,,,,,78.0,78.0,133.0,57.0,57.0,133.0,2.1,2.11,-164,289,0,256,191,-253,354.16235995292664,354.16244173049927,354.16587471961975,354.1766402721405,354.3263237476349,354.3263237476349,354.3263237476349,354.3263237476349,354.3263237476349,354.3263237476349,354.3263237476349,356.3945894241333,2,2.1982345581054688,None,,,,,,,,,,,,,,,,,,178,1,2025-03-04_10h00.05.488,comp,2024.2.4,57.35298380722919,2025-03-04 10h00.58.989281 -0500,
117,117,0,critical,hwd,35.0,3.0,upper,200.0,125.0,125.0,200.0,127.0,127.0,2,1.3048572540283203,None,,,,,0,0,0,0,0,117,117,99,356.4147083759308,,,,,,,,,,,,,,,,,,,,,,,,,,,,,,,,,,,,,,,,,,,,,,,,,,,,,,,,,,,,,,,,,,,,,,,,,,,,,,,,,200.0,125.0,125.0,200.0,127.0,127.0,3.0,3.2,-258,-259,0,10,260,254,356.39621329307556,356.39629912376404,356.3997874259949,356.4147083759308,356.5612177848816,356.5612177848816,356.5612177848816,356.5612177848816,356.5612177848816,356.5612177848816,356.5612177848816,357.72813630104065,2,1.3048572540283203,None,,,,,,,,,,,,,,,,,,178,1,2025-03-04_10h00.05.488,comp,2024.2.4,57.35298380722919,2025-03-04 10h00.58.989281 -0500,
118,118,0,critical,hwd,35.0,4.0,upper,200.0,125.0,125.0,200.0,127.0,127.0,1,0.9429025650024414,None,,,,,0,0,0,0,0,118,118,101,357.7437527179718,,,,,,,,,,,,,,,,,,,,,,,,,,,,,,,,,,,,,,,,,,,,,,,,,,,,,,,,,,,,,,,,,,,,,,,,,,,,,,,,,200.0,125.0,125.0,200.0,127.0,127.0,4.0,4.1,-258,-280,0,-19,260,-276,357.7296085357666,357.7296872138977,357.7331018447876,357.7437527179718,357.894686460495,357.894686460495,357.894686460495,357.894686460495,357.894686460495,357.894686460495,357.894686460495,358.69673228263855,1,0.9429025650024414,None,,,,,,,,,,,,,,,,,,178,1,2025-03-04_10h00.05.488,comp,2024.2.4,57.35298380722919,2025-03-04 10h00.58.989281 -0500,
119,119,0,filler_random,None,None,None,None,None,None,None,None,None,None,2,0.9910328388214111,None,,,,,0,0,0,0,0,119,119,156,358.7126100063324,,,,,,,,,,,,,,,,,,,,,,,,,,,,,,,,,,,,,,,,,,,,,,,,,,,,,,,,,,,,,,,,,,,,,,,,,,,,,,,,,83.02285091267167,111.44255401406357,105.84870518620839,114.36275015633603,116.60953494654824,62.37927165790077,2.1,2.12,-209,-272,0,-274,184,285,358.698527097702,358.6986095905304,358.7017574310303,358.7126100063324,358.8612926006317,358.8612926006317,358.8612926006317,358.8612926006317,358.8612926006317,358.8612926006317,358.8612926006317,359.710476398468,2,0.9910328388214111,None,,,,,,,,,,,,,,,,,,178,1,2025-03-04_10h00.05.488,comp,2024.2.4,57.35298380722919,2025-03-04 10h00.58.989281 -0500,
120,120,0,filler_random,None,None,None,None,None,None,None,None,None,None,3,1.4719374179840088,None,,,,,0,0,0,0,0,120,120,141,359.72687554359436,,,,,,,,,,,,,,,,,,,,,,,,,,,,,,,,,,,,,,,,,,,,,,,,,,,,,,,,,,,,,,,,,,,,,,,,,,,,,,,,,72.28241798662481,106.25105759758917,68.1754720860641,108.16184581356103,89.76580353958823,168.7654466076868,2.1,2.11,-203,272,0,288,234,-283,359.71208786964417,359.7121653556824,359.7151539325714,359.72687554359436,359.864501953125,359.864501953125,359.864501953125,359.864501953125,359.864501953125,359.864501953125,359.864501953125,361.2122106552124,3,1.4719374179840088,None,,,,,,,,,,,,,,,,,,178,1,2025-03-04_10h00.05.488,comp,2024.2.4,57.35298380722919,2025-03-04 10h00.58.989281 -0500,
121,121,0,catch,None,None,None,None,None,None,None,None,None,None,3,1.0352602005004883,None,,,,,0,0,0,0,0,121,121,128,361.2275650501251,,,,,,,,,,,,,,,,,,,,,,,,,,,,,,,,,,,,,,,,,,,,,,,,,,,,,,,,,,,,,,,,,,,,,,,,,,,,,,,,,102,88,133,57,128,197,2.2,2.22,-168,278,0,-289,223,-266,361.2140369415283,361.21411395072937,361.21732544898987,361.2275650501251,361.3790240287781,361.3790240287781,361.3790240287781,361.3790240287781,361.3790240287781,361.3790240287781,361.3790240287781,362.28074955940247,3,1.0352602005004883,None,,,,,,,,,,,,,,,,,,178,1,2025-03-04_10h00.05.488,comp,2024.2.4,57.35298380722919,2025-03-04 10h00.58.989281 -0500,
122,122,0,filler_random,None,None,None,None,None,None,None,None,None,None,3,0.7762258052825928,None,,,,,0,0,0,0,0,122,122,134,362.2966079711914,,,,,,,,,,,,,,,,,,,,,,,,,,,,,,,,,,,,,,,,,,,,,,,,,,,,,,,,,,,,,,,,,,,,,,,,,,,,,,,,,130.27973650604764,76.72797035883944,129.97603184722308,86.31005936078303,179.43120728681305,146.64701185446032,1.0,1.1,-658,251,-480,255,-268,274,362.2826075553894,362.282723903656,362.28623127937317,362.2966079711914,362.4463198184967,362.4463198184967,362.4463198184967,362.4463198184967,362.4463198184967,362.4463198184967,362.4463198184967,363.0787262916565,3,0.7762258052825928,None,,,,,,,,,,,,,,,,,,178,1,2025-03-04_10h00.05.488,comp,2024.2.4,57.35298380722919,2025-03-04 10h00.58.989281 -0500,
123,123,0,critical,dhw,20.0,3.0,lower,78.0,78.0,133.0,57.0,57.0,133.0,2,3.051708459854126,None,,,,,0,0,0,0,0,123,123,56,363.09903287887573,,,,,,,,,,,,,,,,,,,,,,,,,,,,,,,,,,,,,,,,,,,,,,,,,,,,,,,,,,,,,,,,,,,,,,,,,,,,,,,,,78.0,78.0,133.0,57.0,57.0,133.0,3.0,3.1,-164,264,0,-7,191,-256,363.08018136024475,363.08025908470154,363.08342027664185,363.09903287887573,363.2468435764313,363.2468435764313,363.2468435764313,363.2468435764313,363.2468435764313,363.2468435764313,363.2468435764313,366.16370463371277,2,3.051708459854126,None,,,,,,,,,,,,,,,,,,178,1,2025-03-04_10h00.05.488,comp,2024.2.4,57.35298380722919,2025-03-04 10h00.58.989281 -0500,
124,124,0,critical,wdh,20.0,2.1,upper,125.0,200.0,141.0,141.0,200.0,125.0,3,2.1148481369018555,None,,,,,0,0,0,0,0,124,124,35,366.1807062625885,,,,,,,,,,,,,,,,,,,,,,,,,,,,,,,,,,,,,,,,,,,,,,,,,,,,,,,,,,,,,,,,,,,,,,,,,,,,,,,,,125.0,200.0,141.0,141.0,200.0,125.0,2.1,2.11,-266,290,0,262,229,-259,366.1651921272278,366.1652686595917,366.16813611984253,366.1807062625885,366.34059166908264,366.34059166908264,366.34059166908264,366.34059166908264,366.34059166908264,366.34059166908264,366.34059166908264,368.2983822822571,3,2.1148481369018555,None,,,,,,,,,,,,,,,,,,178,1,2025-03-04_10h00.05.488,comp,2024.2.4,57.35298380722919,2025-03-04 10h00.58.989281 -0500,
125,125,0,catch,None,None,None,None,None,None,None,None,None,None,2,0.8770527839660645,None,,,,,0,0,0,0,0,125,125,125,368.3143928050995,,,,,,,,,,,,,,,,,,,,,,,,,,,,,,,,,,,,,,,,,,,,,,,,,,,,,,,,,,,,,,,,,,,,,,,,,,,,,,,,,124,66,161,164,59,131,2.2,2.21,-211,-256,0,263,244,262,368.30019450187683,368.30027318000793,368.303658246994,368.3143928050995,368.4621727466583,368.4621727466583,368.4621727466583,368.4621727466583,368.4621727466583,368.4621727466583,368.4621727466583,369.1982579231262,2,0.8770527839660645,None,,,,,,,,,,,,,,,,,,178,1,2025-03-04_10h00.05.488,comp,2024.2.4,57.35298380722919,2025-03-04 10h00.58.989281 -0500,
126,126,0,filler_random,None,None,None,None,None,None,None,None,None,None,1,1.6334278583526611,None,,,,,0,0,0,0,0,126,126,133,369.2137243747711,,,,,,,,,,,,,,,,,,,,,,,,,,,,,,,,,,,,,,,,,,,,,,,,,,,,,,,,,,,,,,,,,,,,,,,,,,,,,,,,,132.84107016843865,115.99864629729427,66.92658776970632,188.41586914251906,88.04602021926735,138.35268218268837,1.0,1.1,-728,259,-480,255,-221,267,369.1998734474182,369.19997358322144,369.2030301094055,369.2137243747711,369.3636214733124,369.3636214733124,369.3636214733124,369.3636214733124,369.3636214733124,369.3636214733124,369.3636214733124,370.8521635532379,1,1.6334278583526611,None,,,,,,,,,,,,,,,,,,178,1,2025-03-04_10h00.05.488,comp,2024.2.4,57.35298380722919,2025-03-04 10h00.58.989281 -0500,
127,127,0,critical,hdw,35.0,3.0,lower,133.0,57.0,70.0,70.0,57.0,133.0,3,3.6002373695373535,None,,,,,0,0,0,0,0,127,127,110,370.8704810142517,,,,,,,,,,,,,,,,,,,,,,,,,,,,,,,,,,,,,,,,,,,,,,,,,,,,,,,,,,,,,,,,,,,,,,,,,,,,,,,,,133.0,57.0,70.0,70.0,57.0,133.0,3.0,3.1,-160,267,0,-5,198,-259,370.85378885269165,370.85391497612,370.85722184181213,370.8704810142517,371.0151243209839,371.0151243209839,371.0151243209839,371.0151243209839,371.0151243209839,371.0151243209839,371.0151243209839,374.4823122024536,3,3.6002373695373535,None,,,,,,,,,,,,,,,,,,178,1,2025-03-04_10h00.05.488,comp,2024.2.4,57.35298380722919,2025-03-04 10h00.58.989281 -0500,
128,128,0,filler_random,None,None,None,None,None,None,None,None,None,None,1,1.6008143424987793,None,,,,,0,0,0,0,0,128,128,161,374.5019142627716,,,,,,,,,,,,,,,,,,,,,,,,,,,,,,,,,,,,,,,,,,,,,,,,,,,,,,,,,,,,,,,,,,,,,,,,,,,,,,,,,172.39086460723325,103.490165652022,61.97260153252835,69.09108031166583,94.92553285322481,140.42428452578224,3.0,3.1,-182,270,0,1,201,-286,374.4839279651642,374.4840319156647,374.48688673973083,374.5019142627716,374.65129947662354,374.65129947662354,374.65129947662354,374.65129947662354,374.65129947662354,374.65129947662354,374.65129947662354,376.11658334732056,1,1.6008143424987793,None,,,,,,,,,,,,,,,,,,178,1,2025-03-04_10h00.05.488,comp,2024.2.4,57.35298380722919,2025-03-04 10h00.58.989281 -0500,
129,129,0,critical,hwd,35.0,2.1,upper,200.0,125.0,125.0,200.0,127.0,127.0,1,2.362717866897583,None,,,,,0,0,0,0,0,129,129,41,376.1325716972351,,,,,,,,,,,,,,,,,,,,,,,,,,,,,,,,,,,,,,,,,,,,,,,,,,,,,,,,,,,,,,,,,,,,,,,,,,,,,,,,,200.0,125.0,125.0,200.0,127.0,127.0,2.1,2.11,-258,277,0,265,260,-287,376.118097782135,376.11817502975464,376.12141394615173,376.1325716972351,376.2839021682739,376.2839021682739,376.2839021682739,376.2839021682739,376.2839021682739,376.2839021682739,376.2839021682739,378.49781227111816,1,2.362717866897583,None,,,,,,,,,,,,,,,,,,178,1,2025-03-04_10h00.05.488,comp,2024.2.4,57.35298380722919,2025-03-04 10h00.58.989281 -0500,
130,130,0,critical,whd,35.0,2.1,upper,125.0,200.0,200.0,125.0,127.0,127.0,2,1.2276191711425781,None,,,,,0,0,0,0,0,130,130,37,378.51584458351135,,,,,,,,,,,,,,,,,,,,,,,,,,,,,,,,,,,,,,,,,,,,,,,,,,,,,,,,,,,,,,,,,,,,,,,,,,,,,,,,,125.0,200.0,200.0,125.0,127.0,127.0,2.1,2.12,-258,-284,0,-283,222,278,378.4993498325348,378.49942803382874,378.50232696533203,378.51584458351135,378.6541757583618,378.6541757583618,378.6541757583618,378.6541757583618,378.6541757583618,378.6541757583618,378.6541757583618,379.7517695426941,2,1.2276191711425781,None,,,,,,,,,,,,,,,,,,178,1,2025-03-04_10h00.05.488,comp,2024.2.4,57.35298380722919,2025-03-04 10h00.58.989281 -0500,
131,131,0,critical,dhw,35.0,2.1,upper,127.0,127.0,200.0,125.0,125.0,200.0,2,1.4312779903411865,None,,,,,0,0,0,0,0,131,131,25,379.7680082321167,,,,,,,,,,,,,,,,,,,,,,,,,,,,,,,,,,,,,,,,,,,,,,,,,,,,,,,,,,,,,,,,,,,,,,,,,,,,,,,,,127.0,127.0,200.0,125.0,125.0,200.0,2.1,2.11,-222,270,0,272,258,-268,379.75347566604614,379.753609418869,379.7571096420288,379.7680082321167,379.9158036708832,379.9158036708832,379.9158036708832,379.9158036708832,379.9158036708832,379.9158036708832,379.9158036708832,381.20288944244385,2,1.4312779903411865,None,,,,,,,,,,,,,,,,,,178,1,2025-03-04_10h00.05.488,comp,2024.2.4,57.35298380722919,2025-03-04 10h00.58.989281 -0500,
132,132,0,filler_random,None,None,None,None,None,None,None,None,None,None,2,0.8119814395904541,None,,,,,0,0,0,0,0,132,132,139,381.2191219329834,,,,,,,,,,,,,,,,,,,,,,,,,,,,,,,,,,,,,,,,,,,,,,,,,,,,,,,,,,,,,,,,,,,,,,,,,,,,,,,,,140.4736643391633,78.18131890146641,155.88852278311666,130.6437743819773,90.00214378554597,112.3975494372909,3.0,3.2,-200,-287,0,-13,218,271,381.2046158313751,381.2047474384308,381.2082414627075,381.2191219329834,381.3673439025879,381.3673439025879,381.3673439025879,381.3673439025879,381.3673439025879,381.3673439025879,381.3673439025879,382.0345060825348,2,0.8119814395904541,None,,,,,,,,,,,,,,,,,,178,1,2025-03-04_10h00.05.488,comp,2024.2.4,57.35298380722919,2025-03-04 10h00.58.989281 -0500,
133,133,0,filler_random,None,None,None,None,None,None,None,None,None,None,1,0.8515481948852539,None,,,,,0,0,0,0,0,133,133,152,382.05138659477234,,,,,,,,,,,,,,,,,,,,,,,,,,,,,,,,,,,,,,,,,,,,,,,,,,,,,,,,,,,,,,,,,,,,,,,,,,,,,,,,,163.343372899729,184.42354240827626,63.061201488998776,156.63339280525457,107.37622557420087,125.95693895449519,2.1,2.12,-267,-286,0,-256,237,262,382.03628039360046,382.03640818595886,382.03963017463684,382.05138659477234,382.2057285308838,382.2057285308838,382.2057285308838,382.2057285308838,382.2057285308838,382.2057285308838,382.2057285308838,382.91859579086304,1,0.8515481948852539,None,,,,,,,,,,,,,,,,,,178,1,2025-03-04_10h00.05.488,comp,2024.2.4,57.35298380722919,2025-03-04 10h00.58.989281 -0500,
134,134,0,critical,dhw,35.0,1.0,upper,127.0,127.0,200.0,125.0,125.0,200.0,3,1.9767789840698242,None,,,,,0,0,0,0,0,134,134,49,382.9342305660248,,,,,,,,,,,,,,,,,,,,,,,,,,,,,,,,,,,,,,,,,,,,,,,,,,,,,,,,,,,,,,,,,,,,,,,,,,,,,,,,,127.0,127.0,200.0,125.0,125.0,200.0,1.0,1.1,-702,278,-480,275,-222,283,382.9200611114502,382.9201385974884,382.9233193397522,382.9342305660248,383.0923345088959,383.0923345088959,383.0923345088959,383.0923345088959,383.0923345088959,383.0923345088959,383.0923345088959,384.92360949516296,3,1.9767789840698242,None,,,,,,,,,,,,,,,,,,178,1,2025-03-04_10h00.05.488,comp,2024.2.4,57.35298380722919,2025-03-04 10h00.58.989281 -0500,
135,135,0,filler_square,None,None,None,None,None,None,None,None,None,None,1,1.5469162464141846,None,,,,,0,0,0,0,0,135,135,208,384.9400370121002,,,,,,,,,,,,,,,,,,,,,,,,,,,,,,,,,,,,,,,,,,,,,,,,,,,,,,,,,,,,,,,,,,,,,,,,,,,,,,,,,100.23140192642958,100.23140192642958,57.797118785130294,75.98078578656498,86.39409643575914,67.07598438885643,1.0,1.2,-184,1,0,8,168,-13,384.925500869751,384.92563486099243,384.92919397354126,384.9400370121002,385.08587527275085,385.08587527275085,385.08587527275085,385.08587527275085,385.08587527275085,385.08587527275085,385.08587527275085,386.50359749794006,1,1.5469162464141846,None,,,,,,,,,,,,,,,,,,178,1,2025-03-04_10h00.05.488,comp,2024.2.4,57.35298380722919,2025-03-04 10h00.58.989281 -0500,
136,136,0,critical,hdw,35.0,4.0,lower,133.0,57.0,70.0,70.0,57.0,133.0,1,1.931276559829712,None,,,,,0,0,0,0,0,136,136,112,386.5234594345093,,,,,,,,,,,,,,,,,,,,,,,,,,,,,,,,,,,,,,,,,,,,,,,,,,,,,,,,,,,,,,,,,,,,,,,,,,,,,,,,,133.0,57.0,70.0,70.0,57.0,133.0,4.0,4.2,-160,16,0,-251,198,7,386.5051190853119,386.50519704818726,386.5082380771637,386.5234594345093,386.67005372047424,386.67005372047424,386.67005372047424,386.67005372047424,386.67005372047424,386.67005372047424,386.67005372047424,388.4718794822693,1,1.931276559829712,None,,,,,,,,,,,,,,,,,,178,1,2025-03-04_10h00.05.488,comp,2024.2.4,57.35298380722919,2025-03-04 10h00.58.989281 -0500,
137,137,0,filler_square,None,None,None,None,None,None,None,None,None,None,2,0.7994258403778076,None,,,,,0,0,0,0,0,137,137,193,388.48798394203186,,,,,,,,,,,,,,,,,,,,,,,,,,,,,,,,,,,,,,,,,,,,,,,,,,,,,,,,,,,,,,,,,,,,,,,,,,,,,,,,,70.60852711369026,118.04190876273708,150.5451658827689,150.5451658827689,135.8684067936823,102.83484638832036,3.0,3.2,-230,-287,0,6,223,277,388.4739260673523,388.4740324020386,388.47740936279297,388.48798394203186,388.63984870910645,388.63984870910645,388.63984870910645,388.63984870910645,388.63984870910645,388.63984870910645,388.63984870910645,389.2918448448181,2,0.7994258403778076,None,,,,,,,,,,,,,,,,,,178,1,2025-03-04_10h00.05.488,comp,2024.2.4,57.35298380722919,2025-03-04 10h00.58.989281 -0500,
138,138,0,critical,hdw,20.0,1.0,lower,133.0,57.0,78.0,78.0,57.0,133.0,1,4.161164999008179,None,,,,,0,0,0,0,0,138,138,114,389.30228900909424,,,,,,,,,,,,,,,,,,,,,,,,,,,,,,,,,,,,,,,,,,,,,,,,,,,,,,,,,,,,,,,,,,,,,,,,,,,,,,,,,133.0,57.0,78.0,78.0,57.0,133.0,1.0,1.1,-644,266,-480,282,-278,285,389.2924313545227,389.29246044158936,389.293497800827,389.30228900909424,389.452260017395,389.452260017395,389.452260017395,389.452260017395,389.452260017395,389.452260017395,389.452260017395,393.47117280960083,1,4.161164999008179,None,,,,,,,,,,,,,,,,,,178,1,2025-03-04_10h00.05.488,comp,2024.2.4,57.35298380722919,2025-03-04 10h00.58.989281 -0500,
139,139,0,critical,whd,20.0,2.1,upper,125.0,200.0,200.0,125.0,141.0,141.0,2,1.3087177276611328,None,,,,,0,0,0,0,0,139,139,15,393.4915041923523,,,,,,,,,,,,,,,,,,,,,,,,,,,,,,,,,,,,,,,,,,,,,,,,,,,,,,,,,,,,,,,,,,,,,,,,,,,,,,,,,125.0,200.0,200.0,125.0,141.0,141.0,2.1,2.12,-258,-276,0,-276,229,265,393.47268056869507,393.47276425361633,393.4758720397949,393.4915041923523,393.6294114589691,393.6294114589691,393.6294114589691,393.6294114589691,393.6294114589691,393.6294114589691,393.6294114589691,394.8054025173187,2,1.3087177276611328,None,,,,,,,,,,,,,,,,,,178,1,2025-03-04_10h00.05.488,comp,2024.2.4,57.35298380722919,2025-03-04 10h00.58.989281 -0500,
