thisN,thisTrialN,thisRepN,effect,order,distance,config,diag,h_1,w_1,h_2,w_2,h_3,w_3,rect_choice.keys,rect_choice.rt,rect_choice.duration,instructions_loop.thisRepN,instructions_loop.thisTrialN,instructions_loop.thisN,instructions_loop.thisIndex,blocks.thisRepN,blocks.thisTrialN,blocks.thisN,blocks.thisIndex,trials.thisRepN,trials.thisTrialN,trials.thisN,trials.thisIndex,thisRow.t,notes,consent.started,agree_button.started,decline_button.started,consent_img.started,mouse.started,consent.stopped,agree_button.numClicks,agree_button.timesOn,agree_button.timesOff,decline_button.numClicks,decline_button.timesOn,decline_button.timesOff,mouse.x,mouse.y,mouse.leftButton,mouse.midButton,mouse.rightButton,mouse.time,mouse.clicked_name,exp_params.started,exp_params.stopped,welcome.started,welcome_text.started,welcome.stopped,instructions_1.started,instructions_1_text_1.started,instructions_1_text_2.started,key_resp.started,instructions_1.stopped,instructions_loop.key_resp.keys,instructions_loop.key_resp.rt,instructions_loop.key_resp.duration,instructions_2.started,instructions_2_text_1.started,instructions_2_text_2.started,key_resp_2.started,instructions_2.stopped,instructions_loop.key_resp_2.keys,instructions_loop.key_resp_2.rt,instructions_loop.key_resp_2.duration,instructions_3.started,instructions_3_text_1.started,r1_instr3.started,r2_instr3.started,r3_instr3.started,r1_instr3_label.started,r2_instr3_label.started,r3_instr3_label.started,instructions_3_text_3.started,instructions_3_text_4.started,key_resp_3.started,instructions_3.stopped,instructions_loop.key_resp_3.keys,instructions_loop.key_resp_3.rt,instructions_loop.key_resp_3.duration,instructions_4.started,instructions_4_text_1.started,instructions_4_text_3.started,instructions_4_text_2.started,key_resp_4.started,instructions_4.stopped,instructions_loop.key_resp_4.keys,instructions_loop.key_resp_4.rt,instructions_loop.key_resp_4.duration,instructions_5.started,instructions_5_text_1.started,instructions_5_text_2.started,key_resp_5.started,instructions_5.stopped,instructions_loop.key_resp_5.keys,instructions_loop.key_resp_5.rt,instructions_loop.key_resp_5.duration,start_exp.started,start_exp_text.started,key_resp_6.started,start_exp.stopped,key_resp_6.keys,key_resp_6.rt,key_resp_6.duration,h_1_tmp,w_1_tmp,h_2_tmp,w_2_tmp,h_3_tmp,w_3_tmp,config_tmp,config_tmp_1,r_1_x,r_1_y,r_2_x,r_2_y,r_3_x,r_3_y,pre_trial.started,pre_trial.stopped,choice_trial.started,rect_choice.started,r_1.started,r_2.started,r_3.started,r_1_label.started,r_2_label.started,r_3_label.started,prompt.started,choice_trial.stopped,trials.rect_choice.keys,trials.rect_choice.rt,trials.rect_choice.duration,end_block.started,end_block_text.started,end_block.stopped,end.started,end_text.started,key_resp_7.started,end.stopped,key_resp_7.keys,key_resp_7.rt,key_resp_7.duration,debriefing.started,debrief_form.started,end_debrief.started,debriefing.stopped,end_debrief.keys,end_debrief.rt,end_debrief.duration,participant,computer,date,expName,psychopyVersion,frameRate,expStart,
,,,,,,,,,,,,,,,,,,,,,,,,,,,,,,,0.014896631240844727,0.037108659744262695,0.037108659744262695,0.037108659744262695,0.014647483825683594,60.87207913398743,1,[60.83248257637024],[60.83250451087952],0,,,[-80.0],[-506.0],[1],[0],[0],[60.85665988922119],['agree_button'],,,,,,,,,,,,,,,,,,,,,,,,,,,,,,,,,,,,,,,,,,,,,,,,,,,,,,,,,,,,,,,,,,,,,,,,,,,,,,,,,,,,,,,,,,,,,,,,,,,,,,,,,,,17,1,2025-02-18_15h02.59.538,comp,2024.2.4,56.079130823102815,2025-02-18 15h03.17.460594 -0500,
,,,,,,,,,,,,,,,,,,,,,,,,,,,,,,,,,,,,,,,,,,,,,,,,,,60.872780084609985,60.87289118766785,,,,,,,,,,,,,,,,,,,,,,,,,,,,,,,,,,,,,,,,,,,,,,,,,,,,,,,,,,,,,,,,,,,,,,,,,,,,,,,,,,,,,,,,,,,,,,,,,,,,,,,,,17,1,2025-02-18_15h02.59.538,comp,2024.2.4,56.079130823102815,2025-02-18 15h03.17.460594 -0500,
,,,,,,,,,,,,,,,,,,,,,,,,,,,,,,,,,,,,,,,,,,,,,,,,,,,,60.872950077056885,60.88894009590149,62.88661813735962,,,,,,,,,,,,,,,,,,,,,,,,,,,,,,,,,,,,,,,,,,,,,,,,,,,,,,,,,,,,,,,,,,,,,,,,,,,,,,,,,,,,,,,,,,,,,,,,,,,,,,17,1,2025-02-18_15h02.59.538,comp,2024.2.4,56.079130823102815,2025-02-18 15h03.17.460594 -0500,
0,0,0,,,,,,,,,,,,,,,0,0,0,0,,,,,,,,,62.90257716178894,,,,,,,,,,,,,,,,,,,,,,,,,,62.887508153915405,62.90257716178894,62.90257716178894,64.38310098648071,66.08736634254456,space,1.6899583339691162,None,66.08751392364502,66.10368704795837,66.10368704795837,67.58727598190308,74.72363781929016,space,7.118500709533691,None,74.723797082901,74.76029300689697,74.76029300689697,74.76029300689697,74.76029300689697,74.76029300689697,74.76029300689697,74.76029300689697,74.76029300689697,74.76029300689697,76.22429347038269,80.13890290260315,space,3.9040348529815674,None,80.13905763626099,80.15638327598572,80.15638327598572,80.15638327598572,81.64254212379456,84.52748727798462,space,2.8783042430877686,None,84.52763843536377,84.5426836013794,84.5426836013794,86.02619671821594,86.34710955619812,space,0.3182218074798584,None,86.34735417366028,86.36457920074463,86.36457920074463,88.04512476921082,space,1.6676621437072754,None,,,,,,,,,,,,,,,,,,,,,,,,,,,,,,,,,,,,,,,,,,,,,,,17,1,2025-02-18_15h02.59.538,comp,2024.2.4,56.079130823102815,2025-02-18 15h03.17.460594 -0500,
0,0,0,filler_random,None,None,None,None,None,None,None,None,None,None,3,3.0058741569519043,None,,,,,0,0,0,0,0,0,0,147,88.12249541282654,,,,,,,,,,,,,,,,,,,,,,,,,,,,,,,,,,,,,,,,,,,,,,,,,,,,,,,,,,,,,,,,,,,,,,,,,,,,,,,,,139.4480643564108,66.15086568565306,173.04285220030766,77.13332563549137,148.9866518959684,153.35417024654743,2.1,2.11,-168,274,0,285,211,-263,88.10650658607483,88.10653424263,88.10758018493652,88.12249541282654,88.26941251754761,88.26941251754761,88.26941251754761,88.26941251754761,88.26941251754761,88.26941251754761,88.26941251754761,91.1313488483429,3,3.0058741569519043,None,,,,,,,,,,,,,,,,,,17,1,2025-02-18_15h02.59.538,comp,2024.2.4,56.079130823102815,2025-02-18 15h03.17.460594 -0500,
1,1,0,critical,dhw,35.0,2.1,lower,70.0,70.0,133.0,57.0,57.0,133.0,3,11.198604583740234,None,,,,,0,0,0,0,0,1,1,0,91.14653015136719,,,,,,,,,,,,,,,,,,,,,,,,,,,,,,,,,,,,,,,,,,,,,,,,,,,,,,,,,,,,,,,,,,,,,,,,,,,,,,,,,70.0,70.0,133.0,57.0,57.0,133.0,2.1,2.12,-160,-268,0,-282,191,281,91.13272762298584,91.13278198242188,91.13500809669495,91.14653015136719,91.29744911193848,91.29744911193848,91.29744911193848,91.29744911193848,91.29744911193848,91.29744911193848,91.29744911193848,102.3501627445221,3,11.198604583740234,None,,,,,,,,,,,,,,,,,,17,1,2025-02-18_15h02.59.538,comp,2024.2.4,56.079130823102815,2025-02-18 15h03.17.460594 -0500,
2,2,0,critical,dhw,35.0,1.0,lower,70.0,70.0,133.0,57.0,57.0,133.0,3,4.6016950607299805,None,,,,,0,0,0,0,0,2,2,48,102.36685705184937,,,,,,,,,,,,,,,,,,,,,,,,,,,,,,,,,,,,,,,,,,,,,,,,,,,,,,,,,,,,,,,,,,,,,,,,,,,,,,,,,70.0,70.0,133.0,57.0,57.0,133.0,1.0,1.3,320,-285,480,-257,671,-285,102.35175585746765,102.35183501243591,102.35602736473083,102.36685705184937,102.50464868545532,102.50464868545532,102.50464868545532,102.50464868545532,102.50464868545532,102.50464868545532,102.50464868545532,106.9845380783081,3,4.6016950607299805,None,,,,,,,,,,,,,,,,,,17,1,2025-02-18_15h02.59.538,comp,2024.2.4,56.079130823102815,2025-02-18 15h03.17.460594 -0500,
3,3,0,filler_random,None,None,None,None,None,None,None,None,None,None,2,4.072364091873169,None,,,,,0,0,0,0,0,3,3,165,107.0003879070282,,,,,,,,,,,,,,,,,,,,,,,,,,,,,,,,,,,,,,,,,,,,,,,,,,,,,,,,,,,,,,,,,,,,,,,,,,,,,,,,,94.53007751053302,117.95379175555317,113.29595139110785,127.63094770801466,69.90380510747515,192.23356088340486,4.0,4.2,-219,8,0,-269,256,0,106.98643112182617,106.9865653514862,106.99003911018372,107.0003879070282,107.14998507499695,107.14998507499695,107.14998507499695,107.14998507499695,107.14998507499695,107.14998507499695,107.14998507499695,111.08589625358582,2,4.072364091873169,None,,,,,,,,,,,,,,,,,,17,1,2025-02-18_15h02.59.538,comp,2024.2.4,56.079130823102815,2025-02-18 15h03.17.460594 -0500,
4,4,0,filler_square,None,None,None,None,None,None,None,None,None,None,1,2.59588623046875,None,,,,,0,0,0,0,0,4,4,203,111.10154485702515,,,,,,,,,,,,,,,,,,,,,,,,,,,,,,,,,,,,,,,,,,,,,,,,,,,,,,,,,,,,,,,,,,,,,,,,,,,,,,,,,72.65998854884732,72.65998854884732,71.90411492406221,60.84299200096339,71.0509059689141,58.30367499607364,1.0,1.2,-163,1,0,-2,156,5,111.08781480789185,111.08789443969727,111.09108018875122,111.10154485702515,111.24188303947449,111.24188303947449,111.24188303947449,111.24188303947449,111.24188303947449,111.24188303947449,111.24188303947449,113.70325016975403,1,2.59588623046875,None,,,,,,,,,,,,,,,,,,17,1,2025-02-18_15h02.59.538,comp,2024.2.4,56.079130823102815,2025-02-18 15h03.17.460594 -0500,
5,5,0,catch,None,None,None,None,None,None,None,None,None,None,3,1.921248435974121,None,,,,,0,0,0,0,0,5,5,125,113.71968221664429,,,,,,,,,,,,,,,,,,,,,,,,,,,,,,,,,,,,,,,,,,,,,,,,,,,,,,,,,,,,,,,,,,,,,,,,,,,,,,,,,130,60,81,109,174,151,2.1,2.11,-180,275,0,274,226,-279,113.70520281791687,113.70530986785889,113.70892477035522,113.71968221664429,113.86752557754517,113.86752557754517,113.86752557754517,113.86752557754517,113.86752557754517,113.86752557754517,113.86752557754517,115.65493965148926,3,1.921248435974121,None,,,,,,,,,,,,,,,,,,17,1,2025-02-18_15h02.59.538,comp,2024.2.4,56.079130823102815,2025-02-18 15h03.17.460594 -0500,
6,6,0,critical,wdh,35.0,2.1,upper,125.0,200.0,127.0,127.0,200.0,125.0,1,6.883255243301392,None,,,,,0,0,0,0,0,6,6,33,115.67007541656494,,,,,,,,,,,,,,,,,,,,,,,,,,,,,,,,,,,,,,,,,,,,,,,,,,,,,,,,,,,,,,,,,,,,,,,,,,,,,,,,,125.0,200.0,127.0,127.0,200.0,125.0,2.1,2.12,-260,-278,0,-279,222,277,115.65647435188293,115.6565477848053,115.659827709198,115.67007541656494,115.82201790809631,115.82201790809631,115.82201790809631,115.82201790809631,115.82201790809631,115.82201790809631,115.82201790809631,122.55567717552185,1,6.883255243301392,None,,,,,,,,,,,,,,,,,,17,1,2025-02-18_15h02.59.538,comp,2024.2.4,56.079130823102815,2025-02-18 15h03.17.460594 -0500,
7,7,0,critical,whd,35.0,1.0,lower,57.0,133.0,133.0,57.0,70.0,70.0,2,6.5053582191467285,None,,,,,0,0,0,0,0,7,7,84,122.57633018493652,,,,,,,,,,,,,,,,,,,,,,,,,,,,,,,,,,,,,,,,,,,,,,,,,,,,,,,,,,,,,,,,,,,,,,,,,,,,,,,,,57.0,133.0,133.0,57.0,70.0,70.0,1.0,1.3,289,-285,480,-255,640,-267,122.55718851089478,122.55730605125427,122.56058168411255,122.57633018493652,122.72313261032104,122.72313261032104,122.72313261032104,122.72313261032104,122.72313261032104,122.72313261032104,122.72313261032104,129.09182620048523,2,6.5053582191467285,None,,,,,,,,,,,,,,,,,,17,1,2025-02-18_15h02.59.538,comp,2024.2.4,56.079130823102815,2025-02-18 15h03.17.460594 -0500,
8,8,0,filler_random,None,None,None,None,None,None,None,None,None,None,1,2.2772345542907715,None,,,,,0,0,0,0,0,8,8,149,129.1084005832672,,,,,,,,,,,,,,,,,,,,,,,,,,,,,,,,,,,,,,,,,,,,,,,,,,,,,,,,,,,,,,,,,,,,,,,,,,,,,,,,,157.35343824703244,161.72442168714812,89.52129922826958,185.05660922034008,79.39169966188604,160.31609350615372,2.1,2.11,-269,253,0,262,269,-259,129.09359097480774,129.0936734676361,129.09739470481873,129.1084005832672,129.25693154335022,129.25693154335022,129.25693154335022,129.25693154335022,129.25693154335022,129.25693154335022,129.25693154335022,131.3953502178192,1,2.2772345542907715,None,,,,,,,,,,,,,,,,,,17,1,2025-02-18_15h02.59.538,comp,2024.2.4,56.079130823102815,2025-02-18 15h03.17.460594 -0500,
9,9,0,critical,hdw,20.0,2.1,lower,133.0,57.0,78.0,78.0,57.0,133.0,3,4.949735403060913,None,,,,,0,0,0,0,0,9,9,46,131.4112606048584,,,,,,,,,,,,,,,,,,,,,,,,,,,,,,,,,,,,,,,,,,,,,,,,,,,,,,,,,,,,,,,,,,,,,,,,,,,,,,,,,133.0,57.0,78.0,78.0,57.0,133.0,2.1,2.12,-164,-285,0,-259,202,259,131.39704251289368,131.3971242904663,131.40047764778137,131.4112606048584,131.5604465007782,131.5604465007782,131.5604465007782,131.5604465007782,131.5604465007782,131.5604465007782,131.5604465007782,136.3656485080719,3,4.949735403060913,None,,,,,,,,,,,,,,,,,,17,1,2025-02-18_15h02.59.538,comp,2024.2.4,56.079130823102815,2025-02-18 15h03.17.460594 -0500,
10,10,0,critical,hwd,20.0,3.0,lower,133.0,57.0,57.0,133.0,78.0,78.0,2,7.377802848815918,None,,,,,0,0,0,0,0,10,10,104,136.383198261261,,,,,,,,,,,,,,,,,,,,,,,,,,,,,,,,,,,,,,,,,,,,,,,,,,,,,,,,,,,,,,,,,,,,,,,,,,,,,,,,,133.0,57.0,57.0,133.0,78.0,78.0,3.0,3.2,-191,-284,0,-20,202,285,136.36717820167542,136.36727905273438,136.37032318115234,136.383198261261,136.52750706672668,136.52750706672668,136.52750706672668,136.52750706672668,136.52750706672668,136.52750706672668,136.52750706672668,143.76505041122437,2,7.377802848815918,None,,,,,,,,,,,,,,,,,,17,1,2025-02-18_15h02.59.538,comp,2024.2.4,56.079130823102815,2025-02-18 15h03.17.460594 -0500,
11,11,0,filler_square,None,None,None,None,None,None,None,None,None,None,3,1.6593348979949951,None,,,,,0,0,0,0,0,11,11,205,143.78189706802368,,,,,,,,,,,,,,,,,,,,,,,,,,,,,,,,,,,,,,,,,,,,,,,,,,,,,,,,,,,,,,,,,,,,,,,,,,,,,,,,,87.88394963130125,69.00140154262223,92.84483517683968,101.23156026596003,108.42384185642894,108.42384185642894,2.2,2.21,-181,-251,0,269,201,284,143.76712322235107,143.76720309257507,143.7709891796112,143.78189706802368,143.929208278656,143.929208278656,143.929208278656,143.929208278656,143.929208278656,143.929208278656,143.929208278656,145.44582891464233,3,1.6593348979949951,None,,,,,,,,,,,,,,,,,,17,1,2025-02-18_15h02.59.538,comp,2024.2.4,56.079130823102815,2025-02-18 15h03.17.460594 -0500,
12,12,0,critical,dhw,20.0,4.0,lower,78.0,78.0,133.0,57.0,57.0,133.0,3,3.186044454574585,None,,,,,0,0,0,0,0,12,12,58,145.46282505989075,,,,,,,,,,,,,,,,,,,,,,,,,,,,,,,,,,,,,,,,,,,,,,,,,,,,,,,,,,,,,,,,,,,,,,,,,,,,,,,,,78.0,78.0,133.0,57.0,57.0,133.0,4.0,4.1,-164,-269,0,-10,191,-275,145.44758486747742,145.4477219581604,145.45110273361206,145.46282505989075,145.61957335472107,145.61957335472107,145.61957335472107,145.61957335472107,145.61957335472107,145.61957335472107,145.61957335472107,148.66391324996948,3,3.186044454574585,None,,,,,,,,,,,,,,,,,,17,1,2025-02-18_15h02.59.538,comp,2024.2.4,56.079130823102815,2025-02-18 15h03.17.460594 -0500,
13,13,0,filler_square,None,None,None,None,None,None,None,None,None,None,2,6.260434865951538,None,,,,,0,0,0,0,0,13,13,188,148.68492436408997,,,,,,,,,,,,,,,,,,,,,,,,,,,,,,,,,,,,,,,,,,,,,,,,,,,,,,,,,,,,,,,,,,,,,,,,,,,,,,,,,78.17377682970665,78.17377682970665,77.98023028792099,77.76231928660502,67.33231714752219,62.69195360145275,1.0,1.3,306,-269,480,-264,646,-268,148.66599082946777,148.66606879234314,148.66952395439148,148.68492436408997,148.83234691619873,148.83234691619873,148.83234691619873,148.83234691619873,148.83234691619873,148.83234691619873,148.83234691619873,154.95111060142517,2,6.260434865951538,None,,,,,,,,,,,,,,,,,,17,1,2025-02-18_15h02.59.538,comp,2024.2.4,56.079130823102815,2025-02-18 15h03.17.460594 -0500,
14,14,0,critical,hwd,35.0,4.0,lower,133.0,57.0,57.0,133.0,70.0,70.0,2,2.7533860206604004,None,,,,,0,0,0,0,0,14,14,100,154.96747851371765,,,,,,,,,,,,,,,,,,,,,,,,,,,,,,,,,,,,,,,,,,,,,,,,,,,,,,,,,,,,,,,,,,,,,,,,,,,,,,,,,133.0,57.0,57.0,133.0,70.0,70.0,4.0,4.2,-191,-16,0,-257,198,-13,154.9526765346527,154.95275259017944,154.9562041759491,154.96747851371765,155.11829590797424,155.11829590797424,155.11829590797424,155.11829590797424,155.11829590797424,155.11829590797424,155.11829590797424,157.73651432991028,2,2.7533860206604004,None,,,,,,,,,,,,,,,,,,17,1,2025-02-18_15h02.59.538,comp,2024.2.4,56.079130823102815,2025-02-18 15h03.17.460594 -0500,
15,15,0,filler_square,None,None,None,None,None,None,None,None,None,None,3,4.246277093887329,None,,,,,0,0,0,0,0,15,15,202,157.75469970703125,,,,,,,,,,,,,,,,,,,,,,,,,,,,,,,,,,,,,,,,,,,,,,,,,,,,,,,,,,,,,,,,,,,,,,,,,,,,,,,,,188.77282360741611,187.79616931109368,97.76134689021109,170.2173199564546,192.7158495743523,192.7158495743523,2.2,2.22,-275,280,0,-284,277,-273,157.73844814300537,157.73856902122498,157.74190378189087,157.75469970703125,157.901104927063,157.901104927063,157.901104927063,157.901104927063,157.901104927063,157.901104927063,157.901104927063,162.01831936836243,3,4.246277093887329,None,,,,,,,,,,,,,,,,,,17,1,2025-02-18_15h02.59.538,comp,2024.2.4,56.079130823102815,2025-02-18 15h03.17.460594 -0500,
16,16,0,filler_random,None,None,None,None,None,None,None,None,None,None,3,4.063533544540405,None,,,,,0,0,0,0,0,16,16,150,162.034166097641,,,,,,,,,,,,,,,,,,,,,,,,,,,,,,,,,,,,,,,,,,,,,,,,,,,,,,,,,,,,,,,,,,,,,,,,,,,,,,,,,95.85964469316119,125.32580631061478,119.58200938771236,78.96742832843557,115.36400655666534,91.67272620080931,3.0,3.2,-198,-260,0,-14,181,273,162.02001786231995,162.02009177207947,162.02320861816406,162.034166097641,162.18432092666626,162.18432092666626,162.18432092666626,162.18432092666626,162.18432092666626,162.18432092666626,162.18432092666626,166.10346841812134,3,4.063533544540405,None,,,,,,,,,,,,,,,,,,17,1,2025-02-18_15h02.59.538,comp,2024.2.4,56.079130823102815,2025-02-18 15h03.17.460594 -0500,
17,17,0,filler_random,None,None,None,None,None,None,None,None,None,None,2,2.8744940757751465,None,,,,,0,0,0,0,0,17,17,144,166.1194453239441,,,,,,,,,,,,,,,,,,,,,,,,,,,,,,,,,,,,,,,,,,,,,,,,,,,,,,,,,,,,,,,,,,,,,,,,,,,,,,,,,80.70731068808534,123.17173516781887,61.037850293610575,170.22410092738087,127.79933969434562,63.5196818612542,4.0,4.2,-243,-12,0,-261,213,3,166.1051664352417,166.10526967048645,166.1087622642517,166.1194453239441,166.27105450630188,166.27105450630188,166.27105450630188,166.27105450630188,166.27105450630188,166.27105450630188,166.27105450630188,169.00258493423462,2,2.8744940757751465,None,,,,,,,,,,,,,,,,,,17,1,2025-02-18_15h02.59.538,comp,2024.2.4,56.079130823102815,2025-02-18 15h03.17.460594 -0500,
18,18,0,critical,hwd,20.0,3.0,upper,200.0,125.0,125.0,200.0,141.0,141.0,2,3.1585609912872314,None,,,,,0,0,0,0,0,18,18,105,169.01887822151184,,,,,,,,,,,,,,,,,,,,,,,,,,,,,,,,,,,,,,,,,,,,,,,,,,,,,,,,,,,,,,,,,,,,,,,,,,,,,,,,,200.0,125.0,125.0,200.0,141.0,141.0,3.0,3.2,-258,-274,0,4,266,251,169.00404834747314,169.00412464141846,169.0071234703064,169.01887822151184,169.15846872329712,169.15846872329712,169.15846872329712,169.15846872329712,169.15846872329712,169.15846872329712,169.15846872329712,172.18986129760742,2,3.1585609912872314,None,,,,,,,,,,,,,,,,,,17,1,2025-02-18_15h02.59.538,comp,2024.2.4,56.079130823102815,2025-02-18 15h03.17.460594 -0500,
19,19,0,critical,dhw,20.0,1.0,upper,141.0,141.0,200.0,125.0,125.0,200.0,2,4.322807312011719,None,,,,,0,0,0,0,0,19,19,55,172.20631313323975,,,,,,,,,,,,,,,,,,,,,,,,,,,,,,,,,,,,,,,,,,,,,,,,,,,,,,,,,,,,,,,,,,,,,,,,,,,,,,,,,141.0,141.0,200.0,125.0,125.0,200.0,1.0,1.1,-709,272,-480,251,-222,281,172.19141459465027,172.19151425361633,172.19556069374084,172.20631313323975,172.35556817054749,172.35556817054749,172.35556817054749,172.35556817054749,172.35556817054749,172.35556817054749,172.35556817054749,176.5465657711029,2,4.322807312011719,None,,,,,,,,,,,,,,,,,,17,1,2025-02-18_15h02.59.538,comp,2024.2.4,56.079130823102815,2025-02-18 15h03.17.460594 -0500,
20,20,0,critical,hwd,20.0,2.1,upper,200.0,125.0,125.0,200.0,141.0,141.0,1,6.4467504024505615,None,,,,,0,0,0,0,0,20,20,19,176.56252884864807,,,,,,,,,,,,,,,,,,,,,,,,,,,,,,,,,,,,,,,,,,,,,,,,,,,,,,,,,,,,,,,,,,,,,,,,,,,,,,,,,200.0,125.0,125.0,200.0,141.0,141.0,2.1,2.11,-258,271,0,277,266,-272,176.54815578460693,176.54826998710632,176.55166029930115,176.56252884864807,176.7070484161377,176.7070484161377,176.7070484161377,176.7070484161377,176.7070484161377,176.7070484161377,176.7070484161377,183.02864694595337,1,6.4467504024505615,None,,,,,,,,,,,,,,,,,,17,1,2025-02-18_15h02.59.538,comp,2024.2.4,56.079130823102815,2025-02-18 15h03.17.460594 -0500,
21,21,0,critical,dwh,20.0,2.1,upper,141.0,141.0,125.0,200.0,200.0,125.0,3,6.380996227264404,None,,,,,0,0,0,0,0,21,21,7,183.04482054710388,,,,,,,,,,,,,,,,,,,,,,,,,,,,,,,,,,,,,,,,,,,,,,,,,,,,,,,,,,,,,,,,,,,,,,,,,,,,,,,,,141.0,141.0,125.0,200.0,200.0,125.0,2.1,2.11,-266,256,0,261,258,-252,183.03029227256775,183.03036737442017,183.03368520736694,183.04482054710388,183.1918432712555,183.1918432712555,183.1918432712555,183.1918432712555,183.1918432712555,183.1918432712555,183.1918432712555,189.4348075389862,3,6.380996227264404,None,,,,,,,,,,,,,,,,,,17,1,2025-02-18_15h02.59.538,comp,2024.2.4,56.079130823102815,2025-02-18 15h03.17.460594 -0500,
22,22,0,critical,wdh,20.0,2.1,upper,125.0,200.0,141.0,141.0,200.0,125.0,1,6.285102844238281,None,,,,,0,0,0,0,0,22,22,35,189.45299577713013,,,,,,,,,,,,,,,,,,,,,,,,,,,,,,,,,,,,,,,,,,,,,,,,,,,,,,,,,,,,,,,,,,,,,,,,,,,,,,,,,125.0,200.0,141.0,141.0,200.0,125.0,2.1,2.12,-266,-270,0,-272,229,259,189.43655920028687,189.4366376399994,189.43998956680298,189.45299577713013,189.5966386795044,189.5966386795044,189.5966386795044,189.5966386795044,189.5966386795044,189.5966386795044,189.5966386795044,195.74561381340027,1,6.285102844238281,None,,,,,,,,,,,,,,,,,,17,1,2025-02-18_15h02.59.538,comp,2024.2.4,56.079130823102815,2025-02-18 15h03.17.460594 -0500,
23,23,0,filler_square,None,None,None,None,None,None,None,None,None,None,1,1.519014835357666,None,,,,,0,0,0,0,0,23,23,186,195.76227688789368,,,,,,,,,,,,,,,,,,,,,,,,,,,,,,,,,,,,,,,,,,,,,,,,,,,,,,,,,,,,,,,,,,,,,,,,,,,,,,,,,194.16873551595106,194.16873551595106,175.60607044022996,67.32392098326297,169.562318504267,130.55884119029668,2.2,2.21,-227,-279,0,274,195,259,195.74742245674133,195.74749898910522,195.75049781799316,195.76227688789368,195.91276216506958,195.91276216506958,195.91276216506958,195.91276216506958,195.91276216506958,195.91276216506958,195.91276216506958,197.2967426776886,1,1.519014835357666,None,,,,,,,,,,,,,,,,,,17,1,2025-02-18_15h02.59.538,comp,2024.2.4,56.079130823102815,2025-02-18 15h03.17.460594 -0500,
24,24,0,filler_square,None,None,None,None,None,None,None,None,None,None,3,1.9530041217803955,None,,,,,0,0,0,0,0,24,24,196,197.31240224838257,,,,,,,,,,,,,,,,,,,,,,,,,,,,,,,,,,,,,,,,,,,,,,,,,,,,,,,,,,,,,,,,,,,,,,,,,,,,,,,,,70.21168565648682,82.49291375528693,66.25276827313488,69.57942850163884,91.59145852610975,91.59145852610975,2.2,2.21,-172,-277,0,260,177,267,197.29860472679138,197.2986810207367,197.30213165283203,197.31240224838257,197.46537923812866,197.46537923812866,197.46537923812866,197.46537923812866,197.46537923812866,197.46537923812866,197.46537923812866,199.2826693058014,3,1.9530041217803955,None,,,,,,,,,,,,,,,,,,17,1,2025-02-18_15h02.59.538,comp,2024.2.4,56.079130823102815,2025-02-18 15h03.17.460594 -0500,
25,25,0,critical,dwh,20.0,4.0,lower,78.0,78.0,57.0,133.0,133.0,57.0,1,4.812457084655762,None,,,,,0,0,0,0,0,25,25,70,199.30885577201843,,,,,,,,,,,,,,,,,,,,,,,,,,,,,,,,,,,,,,,,,,,,,,,,,,,,,,,,,,,,,,,,,,,,,,,,,,,,,,,,,78.0,78.0,57.0,133.0,133.0,57.0,4.0,4.2,-202,-6,0,-272,191,6,199.28435039520264,199.28442645072937,199.28750157356262,199.30885577201843,199.44763374328613,199.44763374328613,199.44763374328613,199.44763374328613,199.44763374328613,199.44763374328613,199.44763374328613,204.13117671012878,1,4.812457084655762,None,,,,,,,,,,,,,,,,,,17,1,2025-02-18_15h02.59.538,comp,2024.2.4,56.079130823102815,2025-02-18 15h03.17.460594 -0500,
26,26,0,critical,hdw,35.0,2.1,upper,200.0,125.0,127.0,127.0,125.0,200.0,3,2.289682149887085,None,,,,,0,0,0,0,0,26,26,45,204.15176343917847,,,,,,,,,,,,,,,,,,,,,,,,,,,,,,,,,,,,,,,,,,,,,,,,,,,,,,,,,,,,,,,,,,,,,,,,,,,,,,,,,200.0,125.0,127.0,127.0,125.0,200.0,2.1,2.12,-222,-267,0,-266,260,258,204.13269686698914,204.13277220726013,204.13595962524414,204.15176343917847,204.29930329322815,204.29930329322815,204.29930329322815,204.29930329322815,204.29930329322815,204.29930329322815,204.29930329322815,206.45962285995483,3,2.289682149887085,None,,,,,,,,,,,,,,,,,,17,1,2025-02-18_15h02.59.538,comp,2024.2.4,56.079130823102815,2025-02-18 15h03.17.460594 -0500,
27,27,0,critical,whd,20.0,4.0,lower,57.0,133.0,133.0,57.0,78.0,78.0,1,8.124917984008789,None,,,,,0,0,0,0,0,27,27,94,206.4765555858612,,,,,,,,,,,,,,,,,,,,,,,,,,,,,,,,,,,,,,,,,,,,,,,,,,,,,,,,,,,,,,,,,,,,,,,,,,,,,,,,,57.0,133.0,133.0,57.0,78.0,78.0,4.0,4.2,-191,-12,0,-270,164,3,206.46106696128845,206.46114087104797,206.46411895751953,206.4765555858612,206.61715030670166,206.61715030670166,206.61715030670166,206.61715030670166,206.61715030670166,206.61715030670166,206.61715030670166,214.6127414703369,1,8.124917984008789,None,,,,,,,,,,,,,,,,,,17,1,2025-02-18_15h02.59.538,comp,2024.2.4,56.079130823102815,2025-02-18 15h03.17.460594 -0500,
28,28,0,critical,hdw,35.0,2.1,upper,200.0,125.0,127.0,127.0,125.0,200.0,3,19.02838110923767,None,,,,,0,0,0,0,0,28,28,21,214.62960124015808,,,,,,,,,,,,,,,,,,,,,,,,,,,,,,,,,,,,,,,,,,,,,,,,,,,,,,,,,,,,,,,,,,,,,,,,,,,,,,,,,200.0,125.0,127.0,127.0,125.0,200.0,2.1,2.12,-222,-276,0,-284,260,286,214.61430883407593,214.61438512802124,214.61780858039856,214.62960124015808,214.7697148323059,214.7697148323059,214.7697148323059,214.7697148323059,214.7697148323059,214.7697148323059,214.7697148323059,233.6646692752838,3,19.02838110923767,None,,,,,,,,,,,,,,,,,,17,1,2025-02-18_15h02.59.538,comp,2024.2.4,56.079130823102815,2025-02-18 15h03.17.460594 -0500,
29,29,0,critical,hdw,20.0,3.0,upper,200.0,125.0,141.0,141.0,125.0,200.0,3,3.613598585128784,None,,,,,0,0,0,0,0,29,29,117,233.68501830101013,,,,,,,,,,,,,,,,,,,,,,,,,,,,,,,,,,,,,,,,,,,,,,,,,,,,,,,,,,,,,,,,,,,,,,,,,,,,,,,,,200.0,125.0,141.0,141.0,125.0,200.0,3.0,3.2,-229,-272,0,-5,266,252,233.666170835495,233.66628646850586,233.6692922115326,233.68501830101013,233.82583260536194,233.82583260536194,233.82583260536194,233.82583260536194,233.82583260536194,233.82583260536194,233.82583260536194,237.31427431106567,3,3.613598585128784,None,,,,,,,,,,,,,,,,,,17,1,2025-02-18_15h02.59.538,comp,2024.2.4,56.079130823102815,2025-02-18 15h03.17.460594 -0500,
30,30,0,critical,dhw,20.0,2.1,lower,78.0,78.0,133.0,57.0,57.0,133.0,1,12.008129119873047,None,,,,,0,0,0,0,0,30,30,2,237.33052134513855,,,,,,,,,,,,,,,,,,,,,,,,,,,,,,,,,,,,,,,,,,,,,,,,,,,,,,,,,,,,,,,,,,,,,,,,,,,,,,,,,78.0,78.0,133.0,57.0,57.0,133.0,2.1,2.11,-164,265,0,289,191,-258,237.31630873680115,237.31638526916504,237.31939482688904,237.33052134513855,237.4765031337738,237.4765031337738,237.4765031337738,237.4765031337738,237.4765031337738,237.4765031337738,237.4765031337738,249.34697437286377,1,12.008129119873047,None,,,,,,,,,,,,,,,,,,17,1,2025-02-18_15h02.59.538,comp,2024.2.4,56.079130823102815,2025-02-18 15h03.17.460594 -0500,
31,31,0,filler_square,None,None,None,None,None,None,None,None,None,None,1,8.82445740699768,None,,,,,0,0,0,0,0,31,31,197,249.3621256351471,,,,,,,,,,,,,,,,,,,,,,,,,,,,,,,,,,,,,,,,,,,,,,,,,,,,,,,,,,,,,,,,,,,,,,,,,,,,,,,,,140.56720628273564,142.82425047456923,130.18884163364976,114.42504512936733,148.68032866257784,148.68032866257784,2.2,2.22,-225,278,0,-268,228,-253,249.34884762763977,249.34898161888123,249.35235381126404,249.3621256351471,249.51266479492188,249.51266479492188,249.51266479492188,249.51266479492188,249.51266479492188,249.51266479492188,249.51266479492188,258.2048182487488,1,8.82445740699768,None,,,,,,,,,,,,,,,,,,17,1,2025-02-18_15h02.59.538,comp,2024.2.4,56.079130823102815,2025-02-18 15h03.17.460594 -0500,
32,32,0,filler_random,None,None,None,None,None,None,None,None,None,None,1,3.804450273513794,None,,,,,0,0,0,0,0,32,32,140,258.2213797569275,,,,,,,,,,,,,,,,,,,,,,,,,,,,,,,,,,,,,,,,,,,,,,,,,,,,,,,,,,,,,,,,,,,,,,,,,,,,,,,,,107.07349028463142,193.26752205055288,106.81963922313477,69.29091541000265,65.61544347086507,100.87753535898295,2.1,2.12,-227,-272,0,-287,181,289,258.2065737247467,258.20665192604065,258.2108850479126,258.2213797569275,258.3664391040802,258.3664391040802,258.3664391040802,258.3664391040802,258.3664391040802,258.3664391040802,258.3664391040802,262.0383553504944,1,3.804450273513794,None,,,,,,,,,,,,,,,,,,17,1,2025-02-18_15h02.59.538,comp,2024.2.4,56.079130823102815,2025-02-18 15h03.17.460594 -0500,
33,33,0,filler_square,None,None,None,None,None,None,None,None,None,None,2,5.223953008651733,None,,,,,0,0,0,0,0,33,33,208,262.05792450904846,,,,,,,,,,,,,,,,,,,,,,,,,,,,,,,,,,,,,,,,,,,,,,,,,,,,,,,,,,,,,,,,,,,,,,,,,,,,,,,,,70.02691280876337,70.02691280876337,63.66103088697453,68.56927383481633,63.65390607180108,59.946171780693874,1.0,1.1,-645,254,-480,287,-320,281,262.04044103622437,262.040518283844,262.043824672699,262.05792450904846,262.2017607688904,262.2017607688904,262.2017607688904,262.2017607688904,262.2017607688904,262.2017607688904,262.2017607688904,267.29276299476624,2,5.223953008651733,None,,,,,,,,,,,,,,,,,,17,1,2025-02-18_15h02.59.538,comp,2024.2.4,56.079130823102815,2025-02-18 15h03.17.460594 -0500,
34,34,0,critical,hwd,35.0,2.1,lower,133.0,57.0,57.0,133.0,70.0,70.0,1,6.453740119934082,None,,,,,0,0,0,0,0,34,34,16,267.310560464859,,,,,,,,,,,,,,,,,,,,,,,,,,,,,,,,,,,,,,,,,,,,,,,,,,,,,,,,,,,,,,,,,,,,,,,,,,,,,,,,,133.0,57.0,57.0,133.0,70.0,70.0,2.1,2.11,-191,251,0,270,198,-288,267.2942976951599,267.29437589645386,267.2974078655243,267.310560464859,267.45359563827515,267.45359563827515,267.45359563827515,267.45359563827515,267.45359563827515,267.45359563827515,267.45359563827515,273.775497674942,1,6.453740119934082,None,,,,,,,,,,,,,,,,,,17,1,2025-02-18_15h02.59.538,comp,2024.2.4,56.079130823102815,2025-02-18 15h03.17.460594 -0500,
35,35,0,critical,dhw,35.0,4.0,upper,127.0,127.0,200.0,125.0,125.0,200.0,3,1.9378836154937744,None,,,,,0,0,0,0,0,35,35,53,273.79204392433167,,,,,,,,,,,,,,,,,,,,,,,,,,,,,,,,,,,,,,,,,,,,,,,,,,,,,,,,,,,,,,,,,,,,,,,,,,,,,,,,,127.0,127.0,200.0,125.0,125.0,200.0,4.0,4.1,-222,-287,0,3,258,-286,273.77730202674866,273.77743577957153,273.78108739852905,273.79204392433167,273.9464612007141,273.9464612007141,273.9464612007141,273.9464612007141,273.9464612007141,273.9464612007141,273.9464612007141,275.7462999820709,3,1.9378836154937744,None,,,,,,,,,,,,,,,,,,17,1,2025-02-18_15h02.59.538,comp,2024.2.4,56.079130823102815,2025-02-18 15h03.17.460594 -0500,
36,36,0,critical,dhw,35.0,2.1,upper,127.0,127.0,200.0,125.0,125.0,200.0,2,8.497053861618042,None,,,,,0,0,0,0,0,36,36,25,275.76127409935,,,,,,,,,,,,,,,,,,,,,,,,,,,,,,,,,,,,,,,,,,,,,,,,,,,,,,,,,,,,,,,,,,,,,,,,,,,,,,,,,127.0,127.0,200.0,125.0,125.0,200.0,2.1,2.12,-222,-288,0,-284,258,286,275.747873544693,275.7479500770569,275.75098609924316,275.76127409935,275.90545201301575,275.90545201301575,275.90545201301575,275.90545201301575,275.90545201301575,275.90545201301575,275.90545201301575,284.26428413391113,2,8.497053861618042,None,,,,,,,,,,,,,,,,,,17,1,2025-02-18_15h02.59.538,comp,2024.2.4,56.079130823102815,2025-02-18 15h03.17.460594 -0500,
37,37,0,filler_random,None,None,None,None,None,None,None,None,None,None,3,1.2856745719909668,None,,,,,0,0,0,0,0,37,37,135,284.2846748828888,,,,,,,,,,,,,,,,,,,,,,,,,,,,,,,,,,,,,,,,,,,,,,,,,,,,,,,,,,,,,,,,,,,,,,,,,,,,,,,,,149.4568512335349,82.69596674306592,75.08972558214109,101.73904780207194,123.6203172480913,197.0996271412237,3.0,3.1,-188,257,0,-19,245,-286,284.266268491745,284.2663652896881,284.2694456577301,284.2846748828888,284.42872738838196,284.42872738838196,284.42872738838196,284.42872738838196,284.42872738838196,284.42872738838196,284.42872738838196,285.57497692108154,3,1.2856745719909668,None,,,,,,,,,,,,,,,,,,17,1,2025-02-18_15h02.59.538,comp,2024.2.4,56.079130823102815,2025-02-18 15h03.17.460594 -0500,
38,38,0,critical,hwd,35.0,3.0,upper,200.0,125.0,125.0,200.0,127.0,127.0,2,3.563671112060547,None,,,,,0,0,0,0,0,38,38,99,285.5912985801697,,,,,,,,,,,,,,,,,,,,,,,,,,,,,,,,,,,,,,,,,,,,,,,,,,,,,,,,,,,,,,,,,,,,,,,,,,,,,,,,,200.0,125.0,125.0,200.0,127.0,127.0,3.0,3.1,-258,272,0,16,260,-287,285.57662415504456,285.5767071247101,285.58028411865234,285.5912985801697,285.74437642097473,285.74437642097473,285.74437642097473,285.74437642097473,285.74437642097473,285.74437642097473,285.74437642097473,289.1637074947357,2,3.563671112060547,None,,,,,,,,,,,,,,,,,,17,1,2025-02-18_15h02.59.538,comp,2024.2.4,56.079130823102815,2025-02-18 15h03.17.460594 -0500,
39,39,0,critical,wdh,20.0,2.1,lower,57.0,133.0,78.0,78.0,133.0,57.0,1,2.193556070327759,None,,,,,0,0,0,0,0,39,39,10,289.1845941543579,,,,,,,,,,,,,,,,,,,,,,,,,,,,,,,,,,,,,,,,,,,,,,,,,,,,,,,,,,,,,,,,,,,,,,,,,,,,,,,,,57.0,133.0,78.0,78.0,133.0,57.0,2.1,2.12,-202,-275,0,-285,164,258,289.16532588005066,289.1654028892517,289.1687602996826,289.1845941543579,289.3286597728729,289.3286597728729,289.3286597728729,289.3286597728729,289.3286597728729,289.3286597728729,289.3286597728729,291.3948805332184,1,2.193556070327759,None,,,,,,,,,,,,,,,,,,17,1,2025-02-18_15h02.59.538,comp,2024.2.4,56.079130823102815,2025-02-18 15h03.17.460594 -0500,
40,40,0,critical,whd,35.0,2.1,upper,125.0,200.0,200.0,125.0,127.0,127.0,2,5.833422899246216,None,,,,,0,0,0,0,0,40,40,37,291.40930008888245,,,,,,,,,,,,,,,,,,,,,,,,,,,,,,,,,,,,,,,,,,,,,,,,,,,,,,,,,,,,,,,,,,,,,,,,,,,,,,,,,125.0,200.0,200.0,125.0,127.0,127.0,2.1,2.12,-258,-258,0,-288,222,273,291.3964626789093,291.3965845108032,291.39986872673035,291.40930008888245,291.5591983795166,291.5591983795166,291.5591983795166,291.5591983795166,291.5591983795166,291.5591983795166,291.5591983795166,297.24889636039734,2,5.833422899246216,None,,,,,,,,,,,,,,,,,,17,1,2025-02-18_15h02.59.538,comp,2024.2.4,56.079130823102815,2025-02-18 15h03.17.460594 -0500,
41,41,0,critical,hdw,20.0,2.1,upper,200.0,125.0,141.0,141.0,125.0,200.0,3,2.062971591949463,None,,,,,0,0,0,0,0,41,41,23,297.2674984931946,,,,,,,,,,,,,,,,,,,,,,,,,,,,,,,,,,,,,,,,,,,,,,,,,,,,,,,,,,,,,,,,,,,,,,,,,,,,,,,,,200.0,125.0,141.0,141.0,125.0,200.0,2.1,2.11,-229,261,0,265,266,-279,297.2506172657013,297.2507224082947,297.25414776802063,297.2674984931946,297.41247940063477,297.41247940063477,297.41247940063477,297.41247940063477,297.41247940063477,297.41247940063477,297.41247940063477,299.34817242622375,3,2.062971591949463,None,,,,,,,,,,,,,,,,,,17,1,2025-02-18_15h02.59.538,comp,2024.2.4,56.079130823102815,2025-02-18 15h03.17.460594 -0500,
42,42,0,critical,dwh,35.0,2.1,lower,70.0,70.0,57.0,133.0,133.0,57.0,2,3.5979013442993164,None,,,,,0,0,0,0,0,42,42,28,299.36436891555786,,,,,,,,,,,,,,,,,,,,,,,,,,,,,,,,,,,,,,,,,,,,,,,,,,,,,,,,,,,,,,,,,,,,,,,,,,,,,,,,,70.0,70.0,57.0,133.0,133.0,57.0,2.1,2.12,-198,-275,0,-277,191,275,299.3500292301178,299.3501489162445,299.35408639907837,299.36436891555786,299.5123372077942,299.5123372077942,299.5123372077942,299.5123372077942,299.5123372077942,299.5123372077942,299.5123372077942,302.9815945625305,2,3.5979013442993164,None,,,,,,,,,,,,,,,,,,17,1,2025-02-18_15h02.59.538,comp,2024.2.4,56.079130823102815,2025-02-18 15h03.17.460594 -0500,
43,43,0,critical,whd,20.0,1.0,upper,125.0,200.0,200.0,125.0,141.0,141.0,1,8.436891078948975,None,,,,,0,0,0,0,0,43,43,91,302.99766397476196,,,,,,,,,,,,,,,,,,,,,,,,,,,,,,,,,,,,,,,,,,,,,,,,,,,,,,,,,,,,,,,,,,,,,,,,,,,,,,,,,125.0,200.0,200.0,125.0,141.0,141.0,1.0,1.2,-258,14,0,19,229,-14,302.98307061195374,302.9831488132477,302.98649406433105,302.99766397476196,303.15082359313965,303.15082359313965,303.15082359313965,303.15082359313965,303.15082359313965,303.15082359313965,303.15082359313965,311.4398138523102,1,8.436891078948975,None,,,,,,,,,,,,,,,,,,17,1,2025-02-18_15h02.59.538,comp,2024.2.4,56.079130823102815,2025-02-18 15h03.17.460594 -0500,
44,44,0,filler_random,None,None,None,None,None,None,None,None,None,None,1,5.274389028549194,None,,,,,0,0,0,0,0,44,44,169,311.4562587738037,,,,,,,,,,,,,,,,,,,,,,,,,,,,,,,,,,,,,,,,,,,,,,,,,,,,,,,,,,,,,,,,,,,,,,,,,,,,,,,,,189.1476547827165,63.74895817883185,78.66941988461245,154.7946943632241,75.90391987939651,109.54277020604819,2.1,2.11,-205,283,0,282,228,-289,311.44154143333435,311.4416193962097,311.44461035728455,311.4562587738037,311.60102009773254,311.60102009773254,311.60102009773254,311.60102009773254,311.60102009773254,311.60102009773254,311.60102009773254,316.73418641090393,1,5.274389028549194,None,,,,,,,,,,,,,,,,,,17,1,2025-02-18_15h02.59.538,comp,2024.2.4,56.079130823102815,2025-02-18 15h03.17.460594 -0500,
45,45,0,filler_random,None,None,None,None,None,None,None,None,None,None,1,1.7686216831207275,None,,,,,0,0,0,0,0,45,45,138,316.75371980667114,,,,,,,,,,,,,,,,,,,,,,,,,,,,,,,,,,,,,,,,,,,,,,,,,,,,,,,,,,,,,,,,,,,,,,,,,,,,,,,,,137.98200000286204,106.79655642157434,110.35188224718829,74.12104740896557,66.91717116112585,159.03848139704132,1.0,1.1,-666,250,-480,286,-267,272,316.7359457015991,316.7360246181488,316.7392816543579,316.75371980667114,316.902015209198,316.902015209198,316.902015209198,316.902015209198,316.902015209198,316.902015209198,316.902015209198,318.5378313064575,1,1.7686216831207275,None,,,,,,,,,,,,,,,,,,17,1,2025-02-18_15h02.59.538,comp,2024.2.4,56.079130823102815,2025-02-18 15h03.17.460594 -0500,
46,46,0,filler_square,None,None,None,None,None,None,None,None,None,None,2,1.41617751121521,None,,,,,0,0,0,0,0,46,46,209,318.5542769432068,,,,,,,,,,,,,,,,,,,,,,,,,,,,,,,,,,,,,,,,,,,,,,,,,,,,,,,,,,,,,,,,,,,,,,,,,,,,,,,,,97.80056576985416,115.21533944751367,154.4270822334733,154.4270822334733,125.9770210191413,104.05398458807355,2.1,2.12,-231,-285,0,-285,225,276,318.53997707366943,318.54005432128906,318.5438697338104,318.5542769432068,318.7074327468872,318.7074327468872,318.7074327468872,318.7074327468872,318.7074327468872,318.7074327468872,318.7074327468872,319.985897064209,2,1.41617751121521,None,,,,,,,,,,,,,,,,,,17,1,2025-02-18_15h02.59.538,comp,2024.2.4,56.079130823102815,2025-02-18 15h03.17.460594 -0500,
47,47,0,critical,dwh,20.0,3.0,lower,78.0,78.0,57.0,133.0,133.0,57.0,3,3.0335166454315186,None,,,,,0,0,0,0,0,47,47,68,320.0020213127136,,,,,,,,,,,,,,,,,,,,,,,,,,,,,,,,,,,,,,,,,,,,,,,,,,,,,,,,,,,,,,,,,,,,,,,,,,,,,,,,,78.0,78.0,57.0,133.0,133.0,57.0,3.0,3.2,-202,-288,0,9,191,251,319.9874668121338,319.98754239082336,319.99169993400574,320.0020213127136,320.15290451049805,320.15290451049805,320.15290451049805,320.15290451049805,320.15290451049805,320.15290451049805,320.15290451049805,323.04032039642334,3,3.0335166454315186,None,,,,,,,,,,,,,,,,,,17,1,2025-02-18_15h02.59.538,comp,2024.2.4,56.079130823102815,2025-02-18 15h03.17.460594 -0500,
48,48,0,critical,dwh,20.0,2.1,upper,141.0,141.0,125.0,200.0,200.0,125.0,2,12.232857942581177,None,,,,,0,0,0,0,0,48,48,31,323.05779552459717,,,,,,,,,,,,,,,,,,,,,,,,,,,,,,,,,,,,,,,,,,,,,,,,,,,,,,,,,,,,,,,,,,,,,,,,,,,,,,,,,141.0,141.0,125.0,200.0,200.0,125.0,2.1,2.12,-266,-265,0,-256,258,257,323.0422716140747,323.0423541069031,323.04603338241577,323.05779552459717,323.2043077945709,323.2043077945709,323.2043077945709,323.2043077945709,323.2043077945709,323.2043077945709,323.2043077945709,335.29368138313293,2,12.232857942581177,None,,,,,,,,,,,,,,,,,,17,1,2025-02-18_15h02.59.538,comp,2024.2.4,56.079130823102815,2025-02-18 15h03.17.460594 -0500,
49,49,0,filler_random,None,None,None,None,None,None,None,None,None,None,3,1.5068857669830322,None,,,,,0,0,0,0,0,49,49,155,335.3126380443573,,,,,,,,,,,,,,,,,,,,,,,,,,,,,,,,,,,,,,,,,,,,,,,,,,,,,,,,,,,,,,,,,,,,,,,,,,,,,,,,,177.72443702208045,95.64255590487099,83.01339713887488,195.0622252493168,189.3990107705226,92.01531670007802,1.0,1.1,-721,274,-480,261,-240,274,335.2955105304718,335.2955889701843,335.298716545105,335.3126380443573,335.4585554599762,335.4585554599762,335.4585554599762,335.4585554599762,335.4585554599762,335.4585554599762,335.4585554599762,336.82682251930237,3,1.5068857669830322,None,,,,,,,,,,,,,,,,,,17,1,2025-02-18_15h02.59.538,comp,2024.2.4,56.079130823102815,2025-02-18 15h03.17.460594 -0500,
50,50,0,critical,wdh,20.0,4.0,lower,57.0,133.0,78.0,78.0,133.0,57.0,1,5.520393371582031,None,,,,,0,0,0,0,0,50,50,82,336.8421492576599,,,,,,,,,,,,,,,,,,,,,,,,,,,,,,,,,,,,,,,,,,,,,,,,,,,,,,,,,,,,,,,,,,,,,,,,,,,,,,,,,57.0,133.0,78.0,78.0,133.0,57.0,4.0,4.2,-202,14,0,-285,164,4,336.82828307151794,336.82836174964905,336.83155035972595,336.8421492576599,336.9901831150055,336.9901831150055,336.9901831150055,336.9901831150055,336.9901831150055,336.9901831150055,336.9901831150055,342.3781545162201,1,5.520393371582031,None,,,,,,,,,,,,,,,,,,17,1,2025-02-18_15h02.59.538,comp,2024.2.4,56.079130823102815,2025-02-18 15h03.17.460594 -0500,
51,51,0,critical,dhw,35.0,3.0,lower,70.0,70.0,133.0,57.0,57.0,133.0,2,1.7841832637786865,None,,,,,0,0,0,0,0,51,51,50,342.39437913894653,,,,,,,,,,,,,,,,,,,,,,,,,,,,,,,,,,,,,,,,,,,,,,,,,,,,,,,,,,,,,,,,,,,,,,,,,,,,,,,,,70.0,70.0,133.0,57.0,57.0,133.0,3.0,3.1,-160,283,0,8,191,-281,342.3799192905426,342.3800301551819,342.384060382843,342.39437913894653,342.54427671432495,342.54427671432495,342.54427671432495,342.54427671432495,342.54427671432495,342.54427671432495,342.54427671432495,344.1935203075409,2,1.7841832637786865,None,,,,,,,,,,,,,,,,,,17,1,2025-02-18_15h02.59.538,comp,2024.2.4,56.079130823102815,2025-02-18 15h03.17.460594 -0500,
52,52,0,filler_square,None,None,None,None,None,None,None,None,None,None,3,2.769467830657959,None,,,,,0,0,0,0,0,52,52,200,344.20910000801086,,,,,,,,,,,,,,,,,,,,,,,,,,,,,,,,,,,,,,,,,,,,,,,,,,,,,,,,,,,,,,,,,,,,,,,,,,,,,,,,,75.48449402318468,69.89194069369248,73.1488938294448,67.03329650316219,81.48235515921061,81.48235515921061,1.0,1.1,-644,255,-480,262,-310,280,344.1953489780426,344.19542622566223,344.198518037796,344.20910000801086,344.3619065284729,344.3619065284729,344.3619065284729,344.3619065284729,344.3619065284729,344.3619065284729,344.3619065284729,346.99461698532104,3,2.769467830657959,None,,,,,,,,,,,,,,,,,,17,1,2025-02-18_15h02.59.538,comp,2024.2.4,56.079130823102815,2025-02-18 15h03.17.460594 -0500,
53,53,0,filler_square,None,None,None,None,None,None,None,None,None,None,3,1.1681289672851562,None,,,,,0,0,0,0,0,53,53,206,347.0110995769501,,,,,,,,,,,,,,,,,,,,,,,,,,,,,,,,,,,,,,,,,,,,,,,,,,,,,,,,,,,,,,,,,,,,,,,,,,,,,,,,,105.08570991963347,88.67749030970018,109.77471369184892,172.06540699811802,175.45543539226173,175.45543539226173,4.0,4.2,-226,-4,0,-269,270,18,346.99658370018005,346.9966597557068,346.9999945163727,347.0110995769501,347.16784834861755,347.16784834861755,347.16784834861755,347.16784834861755,347.16784834861755,347.16784834861755,347.16784834861755,348.1827988624573,3,1.1681289672851562,None,,,,,,,,,,,,,,,,,,17,1,2025-02-18_15h02.59.538,comp,2024.2.4,56.079130823102815,2025-02-18 15h03.17.460594 -0500,
54,54,0,critical,hwd,35.0,3.0,lower,133.0,57.0,57.0,133.0,70.0,70.0,1,5.698765993118286,None,,,,,0,0,0,0,0,54,54,98,348.20000863075256,,,,,,,,,,,,,,,,,,,,,,,,,,,,,,,,,,,,,,,,,,,,,,,,,,,,,,,,,,,,,,,,,,,,,,,,,,,,,,,,,133.0,57.0,57.0,133.0,70.0,70.0,3.0,3.2,-191,-252,0,-11,198,262,348.1845278739929,348.18464756011963,348.1882576942444,348.20000863075256,348.34210419654846,348.34210419654846,348.34210419654846,348.34210419654846,348.34210419654846,348.34210419654846,348.34210419654846,353.9180076122284,1,5.698765993118286,None,,,,,,,,,,,,,,,,,,17,1,2025-02-18_15h02.59.538,comp,2024.2.4,56.079130823102815,2025-02-18 15h03.17.460594 -0500,
55,55,0,critical,wdh,20.0,2.1,lower,57.0,133.0,78.0,78.0,133.0,57.0,3,5.587978363037109,None,,,,,0,0,0,0,0,55,55,34,353.935697555542,,,,,,,,,,,,,,,,,,,,,,,,,,,,,,,,,,,,,,,,,,,,,,,,,,,,,,,,,,,,,,,,,,,,,,,,,,,,,,,,,57.0,133.0,78.0,78.0,133.0,57.0,2.1,2.12,-202,-264,0,-267,164,276,353.9196481704712,353.9197542667389,353.9230341911316,353.935697555542,354.0811343193054,354.0811343193054,354.0811343193054,354.0811343193054,354.0811343193054,354.0811343193054,354.0811343193054,359.533198595047,3,5.587978363037109,None,,,,,,,,,,,,,,,,,,17,1,2025-02-18_15h02.59.538,comp,2024.2.4,56.079130823102815,2025-02-18 15h03.17.460594 -0500,
56,56,0,catch,None,None,None,None,None,None,None,None,None,None,2,1.3572654724121094,None,,,,,0,0,0,0,0,56,56,126,359.5502440929413,,,,,,,,,,,,,,,,,,,,,,,,,,,,,,,,,,,,,,,,,,,,,,,,,,,,,,,,,,,,,,,,,,,,,,,,,,,,,,,,,101,89,128,197,73,117,2.2,2.21,-239,-280,0,278,253,263,359.5354974269867,359.5356283187866,359.5394401550293,359.5502440929413,359.7001881599426,359.7001881599426,359.7001881599426,359.7001881599426,359.7001881599426,359.7001881599426,359.7001881599426,360.91696429252625,2,1.3572654724121094,None,,,,,,,,,,,,,,,,,,17,1,2025-02-18_15h02.59.538,comp,2024.2.4,56.079130823102815,2025-02-18 15h03.17.460594 -0500,
57,57,0,filler_square,None,None,None,None,None,None,None,None,None,None,3,1.54984712600708,None,,,,,0,0,0,0,0,57,57,179,360.9330563545227,,,,,,,,,,,,,,,,,,,,,,,,,,,,,,,,,,,,,,,,,,,,,,,,,,,,,,,,,,,,,,,,,,,,,,,,,,,,,,,,,64.21507122913783,60.603886551455716,60.194007436503014,61.52779010164603,64.60835601012977,64.60835601012977,2.2,2.21,-157,-281,0,285,159,276,360.91885900497437,360.9189360141754,360.9223508834839,360.9330563545227,361.0824761390686,361.0824761390686,361.0824761390686,361.0824761390686,361.0824761390686,361.0824761390686,361.0824761390686,362.5060610771179,3,1.54984712600708,None,,,,,,,,,,,,,,,,,,17,1,2025-02-18_15h02.59.538,comp,2024.2.4,56.079130823102815,2025-02-18 15h03.17.460594 -0500,
58,58,0,critical,whd,20.0,2.1,upper,125.0,200.0,200.0,125.0,141.0,141.0,2,2.961021661758423,None,,,,,0,0,0,0,0,58,58,15,362.5217938423157,,,,,,,,,,,,,,,,,,,,,,,,,,,,,,,,,,,,,,,,,,,,,,,,,,,,,,,,,,,,,,,,,,,,,,,,,,,,,,,,,125.0,200.0,200.0,125.0,141.0,141.0,2.1,2.11,-258,254,0,289,229,-258,362.507609128952,362.50768756866455,362.510715007782,362.5217938423157,362.6675226688385,362.6675226688385,362.6675226688385,362.6675226688385,362.6675226688385,362.6675226688385,362.6675226688385,365.4994034767151,2,2.961021661758423,None,,,,,,,,,,,,,,,,,,17,1,2025-02-18_15h02.59.538,comp,2024.2.4,56.079130823102815,2025-02-18 15h03.17.460594 -0500,
59,59,0,critical,hwd,20.0,4.0,upper,200.0,125.0,125.0,200.0,141.0,141.0,2,2.031856060028076,None,,,,,0,0,0,0,0,59,59,107,365.5155065059662,,,,,,,,,,,,,,,,,,,,,,,,,,,,,,,,,,,,,,,,,,,,,,,,,,,,,,,,,,,,,,,,,,,,,,,,,,,,,,,,,200.0,125.0,125.0,200.0,141.0,141.0,4.0,4.2,-258,20,0,-282,266,16,365.50097823143005,365.5010552406311,365.50432085990906,365.5155065059662,365.6533317565918,365.6533317565918,365.6533317565918,365.6533317565918,365.6533317565918,365.6533317565918,365.6533317565918,367.5574300289154,2,2.031856060028076,None,,,,,,,,,,,,,,,,,,17,1,2025-02-18_15h02.59.538,comp,2024.2.4,56.079130823102815,2025-02-18 15h03.17.460594 -0500,
60,60,0,catch,None,None,None,None,None,None,None,None,None,None,3,1.1929466724395752,None,,,,,0,0,0,0,0,60,60,129,367.5782916545868,,,,,,,,,,,,,,,,,,,,,,,,,,,,,,,,,,,,,,,,,,,,,,,,,,,,,,,,,,,,,,,,,,,,,,,,,,,,,,,,,108,82,75,115,186,139,2.1,2.12,-194,-267,0,-269,223,278,367.55939626693726,367.55947518348694,367.5625650882721,367.5782916545868,367.7186830043793,367.7186830043793,367.7186830043793,367.7186830043793,367.7186830043793,367.7186830043793,367.7186830043793,368.7891263961792,3,1.1929466724395752,None,,,,,,,,,,,,,,,,,,17,1,2025-02-18_15h02.59.538,comp,2024.2.4,56.079130823102815,2025-02-18 15h03.17.460594 -0500,
61,61,0,critical,dwh,20.0,1.0,lower,78.0,78.0,57.0,133.0,133.0,57.0,3,4.541702032089233,None,,,,,0,0,0,0,0,61,61,66,368.80512714385986,,,,,,,,,,,,,,,,,,,,,,,,,,,,,,,,,,,,,,,,,,,,,,,,,,,,,,,,,,,,,,,,,,,,,,,,,,,,,,,,,78.0,78.0,57.0,133.0,133.0,57.0,1.0,1.3,278,-251,480,-265,671,-257,368.7908670902252,368.7909517288208,368.79399943351746,368.80512714385986,368.95627641677856,368.95627641677856,368.95627641677856,368.95627641677856,368.95627641677856,368.95627641677856,368.95627641677856,373.361692905426,3,4.541702032089233,None,,,,,,,,,,,,,,,,,,17,1,2025-02-18_15h02.59.538,comp,2024.2.4,56.079130823102815,2025-02-18 15h03.17.460594 -0500,
62,62,0,filler_square,None,None,None,None,None,None,None,None,None,None,3,3.683363914489746,None,,,,,0,0,0,0,0,62,62,182,373.3777689933777,,,,,,,,,,,,,,,,,,,,,,,,,,,,,,,,,,,,,,,,,,,,,,,,,,,,,,,,,,,,,,,,,,,,,,,,,,,,,,,,,82.0426388741171,170.74964116208557,149.7983844145494,68.59011507521421,181.5210808644785,181.5210808644785,3.0,3.2,-216,-256,0,8,221,282,373.36354875564575,373.36362290382385,373.36665987968445,373.3777689933777,373.5204999446869,373.5204999446869,373.5204999446869,373.5204999446869,373.5204999446869,373.5204999446869,373.5204999446869,377.07263469696045,3,3.683363914489746,None,,,,,,,,,,,,,,,,,,17,1,2025-02-18_15h02.59.538,comp,2024.2.4,56.079130823102815,2025-02-18 15h03.17.460594 -0500,
63,63,0,critical,dwh,20.0,2.1,lower,78.0,78.0,57.0,133.0,133.0,57.0,1,5.305039167404175,None,,,,,0,0,0,0,0,63,63,6,377.0898413658142,,,,,,,,,,,,,,,,,,,,,,,,,,,,,,,,,,,,,,,,,,,,,,,,,,,,,,,,,,,,,,,,,,,,,,,,,,,,,,,,,78.0,78.0,57.0,133.0,133.0,57.0,2.1,2.11,-202,258,0,281,191,-259,377.0744032859802,377.07454347610474,377.07784128189087,377.0898413658142,377.2408392429352,377.2408392429352,377.2408392429352,377.2408392429352,377.2408392429352,377.2408392429352,377.2408392429352,382.40500473976135,1,5.305039167404175,None,,,,,,,,,,,,,,,,,,17,1,2025-02-18_15h02.59.538,comp,2024.2.4,56.079130823102815,2025-02-18 15h03.17.460594 -0500,
64,64,0,filler_random,None,None,None,None,None,None,None,None,None,None,3,7.53719162940979,None,,,,,0,0,0,0,0,64,64,159,382.42610907554626,,,,,,,,,,,,,,,,,,,,,,,,,,,,,,,,,,,,,,,,,,,,,,,,,,,,,,,,,,,,,,,,,,,,,,,,,,,,,,,,,137.93327519221077,143.7041596724547,73.29814901910913,187.09282527991317,163.0580486497838,128.35849881036512,2.2,2.22,-261,255,0,-258,254,-266,382.40700793266296,382.4071116447449,382.4104940891266,382.42610907554626,382.5726718902588,382.5726718902588,382.5726718902588,382.5726718902588,382.5726718902588,382.5726718902588,382.5726718902588,389.97246074676514,3,7.53719162940979,None,,,,,,,,,,,,,,,,,,17,1,2025-02-18_15h02.59.538,comp,2024.2.4,56.079130823102815,2025-02-18 15h03.17.460594 -0500,
65,65,0,critical,dhw,35.0,2.1,lower,70.0,70.0,133.0,57.0,57.0,133.0,2,6.733283281326294,None,,,,,0,0,0,0,0,65,65,24,389.98986983299255,,,,,,,,,,,,,,,,,,,,,,,,,,,,,,,,,,,,,,,,,,,,,,,,,,,,,,,,,,,,,,,,,,,,,,,,,,,,,,,,,70.0,70.0,133.0,57.0,57.0,133.0,2.1,2.12,-160,-275,0,-290,191,278,389.9740128517151,389.97409081459045,389.9771423339844,389.98986983299255,390.12688279151917,390.12688279151917,390.12688279151917,390.12688279151917,390.12688279151917,390.12688279151917,390.12688279151917,396.728458404541,2,6.733283281326294,None,,,,,,,,,,,,,,,,,,17,1,2025-02-18_15h02.59.538,comp,2024.2.4,56.079130823102815,2025-02-18 15h03.17.460594 -0500,
66,66,0,filler_random,None,None,None,None,None,None,None,None,None,None,3,1.341238260269165,None,,,,,0,0,0,0,0,66,66,163,396.74974274635315,,,,,,,,,,,,,,,,,,,,,,,,,,,,,,,,,,,,,,,,,,,,,,,,,,,,,,,,,,,,,,,,,,,,,,,,,,,,,,,,,158.32376457698098,67.78371779113782,158.8870990941781,94.46147528357957,199.2032100697235,112.08581063418984,2.2,2.21,-177,-261,0,282,199,253,396.73017406463623,396.7303433418274,396.7335982322693,396.74974274635315,396.8981490135193,396.8981490135193,396.8981490135193,396.8981490135193,396.8981490135193,396.8981490135193,396.8981490135193,398.10749793052673,3,1.341238260269165,None,,,,,,,,,,,,,,,,,,17,1,2025-02-18_15h02.59.538,comp,2024.2.4,56.079130823102815,2025-02-18 15h03.17.460594 -0500,
67,67,0,critical,dwh,20.0,2.1,lower,78.0,78.0,57.0,133.0,133.0,57.0,2,2.1444172859191895,None,,,,,0,0,0,0,0,67,67,30,398.1226313114166,,,,,,,,,,,,,,,,,,,,,,,,,,,,,,,,,,,,,,,,,,,,,,,,,,,,,,,,,,,,,,,,,,,,,,,,,,,,,,,,,78.0,78.0,57.0,133.0,133.0,57.0,2.1,2.12,-202,-262,0,-281,191,265,398.108216047287,398.1082651615143,398.1096420288086,398.1226313114166,398.25951170921326,398.25951170921326,398.25951170921326,398.25951170921326,398.25951170921326,398.25951170921326,398.25951170921326,400.2776257991791,2,2.1444172859191895,None,,,,,,,,,,,,,,,,,,17,1,2025-02-18_15h02.59.538,comp,2024.2.4,56.079130823102815,2025-02-18 15h03.17.460594 -0500,
68,68,0,filler_random,None,None,None,None,None,None,None,None,None,None,2,2.041074514389038,None,,,,,0,0,0,0,0,68,68,137,400.2987871170044,,,,,,,,,,,,,,,,,,,,,,,,,,,,,,,,,,,,,,,,,,,,,,,,,,,,,,,,,,,,,,,,,,,,,,,,,,,,,,,,,81.2953540212817,179.51293983367165,164.50844735017887,153.38878407949184,187.72702701516974,110.1502379459848,3.0,3.1,-262,269,0,5,228,-274,400.2793698310852,400.27946496009827,400.2829637527466,400.2987871170044,400.4453389644623,400.4453389644623,400.4453389644623,400.4453389644623,400.4453389644623,400.4453389644623,400.4453389644623,402.34364557266235,2,2.041074514389038,None,,,,,,,,,,,,,,,,,,17,1,2025-02-18_15h02.59.538,comp,2024.2.4,56.079130823102815,2025-02-18 15h03.17.460594 -0500,
69,69,0,critical,hdw,20.0,2.1,upper,200.0,125.0,141.0,141.0,125.0,200.0,3,1.81126070022583,None,,,,,0,0,0,0,0,69,69,47,402.36043977737427,,,,,,,,,,,,,,,,,,,,,,,,,,,,,,,,,,,,,,,,,,,,,,,,,,,,,,,,,,,,,,,,,,,,,,,,,,,,,,,,,200.0,125.0,141.0,141.0,125.0,200.0,2.1,2.12,-229,-284,0,-289,266,261,402.3452498912811,402.34533500671387,402.34878730773926,402.36043977737427,402.5154023170471,402.5154023170471,402.5154023170471,402.5154023170471,402.5154023170471,402.5154023170471,402.5154023170471,404.1810598373413,3,1.81126070022583,None,,,,,,,,,,,,,,,,,,17,1,2025-02-18_15h02.59.538,comp,2024.2.4,56.079130823102815,2025-02-18 15h03.17.460594 -0500,
70,70,0,critical,whd,35.0,2.1,upper,125.0,200.0,200.0,125.0,127.0,127.0,1,10.390805721282959,None,,,,,0,0,0,0,0,70,70,13,404.197726726532,,,,,,,,,,,,,,,,,,,,,,,,,,,,,,,,,,,,,,,,,,,,,,,,,,,,,,,,,,,,,,,,,,,,,,,,,,,,,,,,,125.0,200.0,200.0,125.0,127.0,127.0,2.1,2.12,-258,-263,0,-262,222,268,404.1827013492584,404.18283438682556,404.18700313568115,404.197726726532,404.34613370895386,404.34613370895386,404.34613370895386,404.34613370895386,404.34613370895386,404.34613370895386,404.34613370895386,414.59765124320984,1,10.390805721282959,None,,,,,,,,,,,,,,,,,,17,1,2025-02-18_15h02.59.538,comp,2024.2.4,56.079130823102815,2025-02-18 15h03.17.460594 -0500,
71,71,0,filler_square,None,None,None,None,None,None,None,None,None,None,1,3.3335189819335938,None,,,,,0,0,0,0,0,71,71,190,414.61400628089905,,,,,,,,,,,,,,,,,,,,,,,,,,,,,,,,,,,,,,,,,,,,,,,,,,,,,,,,,,,,,,,,,,,,,,,,,,,,,,,,,76.27899570846114,76.27899570846114,74.37953489745561,62.88037643435018,75.70352519967152,67.51807362835925,4.0,4.1,-166,-289,0,19,161,-268,414.599627494812,414.5997083187103,414.60290145874023,414.61400628089905,414.76454401016235,414.76454401016235,414.76454401016235,414.76454401016235,414.76454401016235,414.76454401016235,414.76454401016235,417.94988775253296,1,3.3335189819335938,None,,,,,,,,,,,,,,,,,,17,1,2025-02-18_15h02.59.538,comp,2024.2.4,56.079130823102815,2025-02-18 15h03.17.460594 -0500,
72,72,0,critical,hwd,35.0,2.1,lower,133.0,57.0,57.0,133.0,70.0,70.0,1,2.4606406688690186,None,,,,,0,0,0,0,0,72,72,40,417.9679298400879,,,,,,,,,,,,,,,,,,,,,,,,,,,,,,,,,,,,,,,,,,,,,,,,,,,,,,,,,,,,,,,,,,,,,,,,,,,,,,,,,133.0,57.0,57.0,133.0,70.0,70.0,2.1,2.12,-191,-268,0,-258,198,254,417.95148849487305,417.9515664577484,417.9547872543335,417.9679298400879,418.11912298202515,418.11912298202515,418.11912298202515,418.11912298202515,418.11912298202515,418.11912298202515,418.11912298202515,420.43913292884827,1,2.4606406688690186,None,,,,,,,,,,,,,,,,,,17,1,2025-02-18_15h02.59.538,comp,2024.2.4,56.079130823102815,2025-02-18 15h03.17.460594 -0500,
73,73,0,catch,None,None,None,None,None,None,None,None,None,None,3,2.323840618133545,None,,,,,0,0,0,0,0,73,73,122,420.45608472824097,,,,,,,,,,,,,,,,,,,,,,,,,,,,,,,,,,,,,,,,,,,,,,,,,,,,,,,,,,,,,,,,,,,,,,,,,,,,,,,,,58,132,132,58,155,170,1.0,1.3,289,-274,480,-256,690,-288,420.4413981437683,420.44147539138794,420.4451205730438,420.45608472824097,420.6055543422699,420.6055543422699,420.6055543422699,420.6055543422699,420.6055543422699,420.6055543422699,420.6055543422699,422.7862045764923,3,2.323840618133545,None,,,,,,,,,,,,,,,,,,17,1,2025-02-18_15h02.59.538,comp,2024.2.4,56.079130823102815,2025-02-18 15h03.17.460594 -0500,
74,74,0,critical,whd,20.0,3.0,upper,125.0,200.0,200.0,125.0,141.0,141.0,2,5.3450562953948975,None,,,,,0,0,0,0,0,74,74,93,422.80294609069824,,,,,,,,,,,,,,,,,,,,,,,,,,,,,,,,,,,,,,,,,,,,,,,,,,,,,,,,,,,,,,,,,,,,,,,,,,,,,,,,,125.0,200.0,200.0,125.0,141.0,141.0,3.0,3.2,-258,-256,0,6,229,264,422.7876925468445,422.7877678871155,422.7919371128082,422.80294609069824,422.95138144493103,422.95138144493103,422.95138144493103,422.95138144493103,422.95138144493103,422.95138144493103,422.95138144493103,428.1534013748169,2,5.3450562953948975,None,,,,,,,,,,,,,,,,,,17,1,2025-02-18_15h02.59.538,comp,2024.2.4,56.079130823102815,2025-02-18 15h03.17.460594 -0500,
75,75,0,critical,hwd,20.0,1.0,lower,133.0,57.0,57.0,133.0,78.0,78.0,3,4.295082092285156,None,,,,,0,0,0,0,0,75,75,102,428.1726369857788,,,,,,,,,,,,,,,,,,,,,,,,,,,,,,,,,,,,,,,,,,,,,,,,,,,,,,,,,,,,,,,,,,,,,,,,,,,,,,,,,133.0,57.0,57.0,133.0,78.0,78.0,1.0,1.1,-671,251,-480,280,-278,251,428.15497970581055,428.15505623817444,428.1584849357605,428.1726369857788,428.32283544540405,428.32283544540405,428.32283544540405,428.32283544540405,428.32283544540405,428.32283544540405,428.32283544540405,432.47303199768066,3,4.295082092285156,None,,,,,,,,,,,,,,,,,,17,1,2025-02-18_15h02.59.538,comp,2024.2.4,56.079130823102815,2025-02-18 15h03.17.460594 -0500,
76,76,0,filler_square,None,None,None,None,None,None,None,None,None,None,3,1.6574780941009521,None,,,,,0,0,0,0,0,76,76,204,432.4898192882538,,,,,,,,,,,,,,,,,,,,,,,,,,,,,,,,,,,,,,,,,,,,,,,,,,,,,,,,,,,,,,,,,,,,,,,,,,,,,,,,,59.742734089422655,184.2110260203204,85.80310748856186,74.21734807757527,196.48410896315636,196.48410896315636,3.0,3.2,-225,-264,0,4,231,280,432.4748921394348,432.47497057914734,432.47906398773193,432.4898192882538,432.6399919986725,432.6399919986725,432.6399919986725,432.6399919986725,432.6399919986725,432.6399919986725,432.6399919986725,434.1571705341339,3,1.6574780941009521,None,,,,,,,,,,,,,,,,,,17,1,2025-02-18_15h02.59.538,comp,2024.2.4,56.079130823102815,2025-02-18 15h03.17.460594 -0500,
77,77,0,critical,wdh,20.0,2.1,upper,125.0,200.0,141.0,141.0,200.0,125.0,3,4.558354616165161,None,,,,,0,0,0,0,0,77,77,11,434.17367339134216,,,,,,,,,,,,,,,,,,,,,,,,,,,,,,,,,,,,,,,,,,,,,,,,,,,,,,,,,,,,,,,,,,,,,,,,,,,,,,,,,125.0,200.0,141.0,141.0,200.0,125.0,2.1,2.12,-266,-268,0,-256,229,278,434.15876817703247,434.15884590148926,434.1625680923462,434.17367339134216,434.32390999794006,434.32390999794006,434.32390999794006,434.32390999794006,434.32390999794006,434.32390999794006,434.32390999794006,438.739688873291,3,4.558354616165161,None,,,,,,,,,,,,,,,,,,17,1,2025-02-18_15h02.59.538,comp,2024.2.4,56.079130823102815,2025-02-18 15h03.17.460594 -0500,
78,78,0,filler_square,None,None,None,None,None,None,None,None,None,None,2,1.1928644180297852,None,,,,,0,0,0,0,0,78,78,187,438.7555043697357,,,,,,,,,,,,,,,,,,,,,,,,,,,,,,,,,,,,,,,,,,,,,,,,,,,,,,,,,,,,,,,,,,,,,,,,,,,,,,,,,116.23939732156302,80.58554220184983,195.75501571009016,195.75501571009016,182.57741446856272,91.67126284598066,4.0,4.2,-234,3,0,-281,240,-10,438.7414107322693,438.7414870262146,438.74462723731995,438.7555043697357,438.912433385849,438.912433385849,438.912433385849,438.912433385849,438.912433385849,438.912433385849,438.912433385849,439.9550189971924,2,1.1928644180297852,None,,,,,,,,,,,,,,,,,,17,1,2025-02-18_15h02.59.538,comp,2024.2.4,56.079130823102815,2025-02-18 15h03.17.460594 -0500,
79,79,0,filler_random,None,None,None,None,None,None,None,None,None,None,1,1.7189083099365234,None,,,,,0,0,0,0,0,79,79,139,439.9725270271301,,,,,,,,,,,,,,,,,,,,,,,,,,,,,,,,,,,,,,,,,,,,,,,,,,,,,,,,,,,,,,,,,,,,,,,,,,,,,,,,,167.6709251977204,169.84504256134022,161.37165231726865,134.74097653674147,146.89314497063003,64.57721521043464,3.0,3.1,-248,275,0,-15,196,-285,439.9567160606384,439.9567937850952,439.9597532749176,439.9725270271301,440.12803173065186,440.12803173065186,440.12803173065186,440.12803173065186,440.12803173065186,440.12803173065186,440.12803173065186,441.7101466655731,1,1.7189083099365234,None,,,,,,,,,,,,,,,,,,17,1,2025-02-18_15h02.59.538,comp,2024.2.4,56.079130823102815,2025-02-18 15h03.17.460594 -0500,
80,80,0,critical,dhw,20.0,2.1,upper,141.0,141.0,200.0,125.0,125.0,200.0,3,4.405411958694458,None,,,,,0,0,0,0,0,80,80,27,441.7260558605194,,,,,,,,,,,,,,,,,,,,,,,,,,,,,,,,,,,,,,,,,,,,,,,,,,,,,,,,,,,,,,,,,,,,,,,,,,,,,,,,,141.0,141.0,200.0,125.0,125.0,200.0,2.1,2.11,-229,288,0,255,258,-270,441.71178674697876,441.71189165115356,441.71506452560425,441.7260558605194,441.8751120567322,441.8751120567322,441.8751120567322,441.8751120567322,441.8751120567322,441.8751120567322,441.8751120567322,446.14575362205505,3,4.405411958694458,None,,,,,,,,,,,,,,,,,,17,1,2025-02-18_15h02.59.538,comp,2024.2.4,56.079130823102815,2025-02-18 15h03.17.460594 -0500,
81,81,0,filler_random,None,None,None,None,None,None,None,None,None,None,1,6.153698444366455,None,,,,,0,0,0,0,0,81,81,146,446.1619861125946,,,,,,,,,,,,,,,,,,,,,,,,,,,,,,,,,,,,,,,,,,,,,,,,,,,,,,,,,,,,,,,,,,,,,,,,,,,,,,,,,119.17321256830832,182.48018060787507,80.72949832473705,105.25941207565484,93.76553407104035,192.01888372306954,1.0,1.1,-720,271,-480,282,-235,255,446.1475820541382,446.1476581096649,446.150901556015,446.1619861125946,446.31001138687134,446.31001138687134,446.31001138687134,446.31001138687134,446.31001138687134,446.31001138687134,446.31001138687134,452.3281581401825,1,6.153698444366455,None,,,,,,,,,,,,,,,,,,17,1,2025-02-18_15h02.59.538,comp,2024.2.4,56.079130823102815,2025-02-18 15h03.17.460594 -0500,
82,82,0,critical,dhw,20.0,2.1,upper,141.0,141.0,200.0,125.0,125.0,200.0,3,2.7436609268188477,None,,,,,0,0,0,0,0,82,82,3,452.34849071502686,,,,,,,,,,,,,,,,,,,,,,,,,,,,,,,,,,,,,,,,,,,,,,,,,,,,,,,,,,,,,,,,,,,,,,,,,,,,,,,,,141.0,141.0,200.0,125.0,125.0,200.0,2.1,2.11,-229,256,0,254,258,-264,452.3297612667084,452.32983565330505,452.333295583725,452.34849071502686,452.495845079422,452.495845079422,452.495845079422,452.495845079422,452.495845079422,452.495845079422,452.495845079422,455.09996914863586,3,2.7436609268188477,None,,,,,,,,,,,,,,,,,,17,1,2025-02-18_15h02.59.538,comp,2024.2.4,56.079130823102815,2025-02-18 15h03.17.460594 -0500,
83,83,0,filler_square,None,None,None,None,None,None,None,None,None,None,1,5.243927001953125,None,,,,,0,0,0,0,0,83,83,181,455.1196792125702,,,,,,,,,,,,,,,,,,,,,,,,,,,,,,,,,,,,,,,,,,,,,,,,,,,,,,,,,,,,,,,,,,,,,,,,,,,,,,,,,61.9822054324412,61.9822054324412,57.200945457036646,59.68395661177742,58.731601604926986,59.083059671588764,3.0,3.2,-157,-260,0,-17,155,279,455.1020257472992,455.1021046638489,455.10514545440674,455.1196792125702,455.26466941833496,455.26466941833496,455.26466941833496,455.26466941833496,455.26466941833496,455.26466941833496,455.26466941833496,460.38070154190063,1,5.243927001953125,None,,,,,,,,,,,,,,,,,,17,1,2025-02-18_15h02.59.538,comp,2024.2.4,56.079130823102815,2025-02-18 15h03.17.460594 -0500,
84,84,0,filler_random,None,None,None,None,None,None,None,None,None,None,2,1.125969648361206,None,,,,,0,0,0,0,0,84,84,160,460.39873218536377,,,,,,,,,,,,,,,,,,,,,,,,,,,,,,,,,,,,,,,,,,,,,,,,,,,,,,,,,,,,,,,,,,,,,,,,,,,,,,,,,61.09279570975897,93.7290999818753,142.19160082912305,164.03428232476244,70.05086324347604,88.5523931099412,1.0,1.3,255,-257,480,-267,702,-288,460.3824152946472,460.38251543045044,460.38593459129333,460.39873218536377,460.5489065647125,460.5489065647125,460.5489065647125,460.5489065647125,460.5489065647125,460.5489065647125,460.5489065647125,461.5317175388336,2,1.125969648361206,None,,,,,,,,,,,,,,,,,,17,1,2025-02-18_15h02.59.538,comp,2024.2.4,56.079130823102815,2025-02-18 15h03.17.460594 -0500,
85,85,0,critical,dwh,35.0,2.1,upper,127.0,127.0,125.0,200.0,200.0,125.0,2,2.296538829803467,None,,,,,0,0,0,0,0,85,85,29,461.5475399494171,,,,,,,,,,,,,,,,,,,,,,,,,,,,,,,,,,,,,,,,,,,,,,,,,,,,,,,,,,,,,,,,,,,,,,,,,,,,,,,,,127.0,127.0,125.0,200.0,200.0,125.0,2.1,2.12,-260,-256,0,-251,258,268,461.5333204269409,461.53339648246765,461.53684544563293,461.5475399494171,461.6971082687378,461.6971082687378,461.6971082687378,461.6971082687378,461.6971082687378,461.6971082687378,461.6971082687378,463.84818744659424,2,2.296538829803467,None,,,,,,,,,,,,,,,,,,17,1,2025-02-18_15h02.59.538,comp,2024.2.4,56.079130823102815,2025-02-18 15h03.17.460594 -0500,
86,86,0,critical,whd,35.0,1.0,upper,125.0,200.0,200.0,125.0,127.0,127.0,2,2.5347952842712402,None,,,,,0,0,0,0,0,86,86,85,463.86885261535645,,,,,,,,,,,,,,,,,,,,,,,,,,,,,,,,,,,,,,,,,,,,,,,,,,,,,,,,,,,,,,,,,,,,,,,,,,,,,,,,,125.0,200.0,200.0,125.0,127.0,127.0,1.0,1.1,-738,274,-480,259,-258,290,463.84973073005676,463.84980940818787,463.85304522514343,463.86885261535645,464.01606845855713,464.01606845855713,464.01606845855713,464.01606845855713,464.01606845855713,464.01606845855713,464.01606845855713,466.4139621257782,2,2.5347952842712402,None,,,,,,,,,,,,,,,,,,17,1,2025-02-18_15h02.59.538,comp,2024.2.4,56.079130823102815,2025-02-18 15h03.17.460594 -0500,
87,87,0,critical,whd,35.0,3.0,lower,57.0,133.0,133.0,57.0,70.0,70.0,1,2.5177178382873535,None,,,,,0,0,0,0,0,87,87,86,466.4307453632355,,,,,,,,,,,,,,,,,,,,,,,,,,,,,,,,,,,,,,,,,,,,,,,,,,,,,,,,,,,,,,,,,,,,,,,,,,,,,,,,,57.0,133.0,133.0,57.0,70.0,70.0,3.0,3.2,-191,-285,0,-8,160,262,466.41566157341003,466.41573667526245,466.41910195350647,466.4307453632355,466.56713223457336,466.56713223457336,466.56713223457336,466.56713223457336,466.56713223457336,466.56713223457336,466.56713223457336,468.95088720321655,1,2.5177178382873535,None,,,,,,,,,,,,,,,,,,17,1,2025-02-18_15h02.59.538,comp,2024.2.4,56.079130823102815,2025-02-18 15h03.17.460594 -0500,
88,88,0,critical,hdw,20.0,1.0,upper,200.0,125.0,141.0,141.0,125.0,200.0,1,2.5401973724365234,None,,,,,0,0,0,0,0,88,88,115,468.9681556224823,,,,,,,,,,,,,,,,,,,,,,,,,,,,,,,,,,,,,,,,,,,,,,,,,,,,,,,,,,,,,,,,,,,,,,,,,,,,,,,,,200.0,125.0,141.0,141.0,125.0,200.0,1.0,1.3,251,-271,480,-254,746,-278,468.9526400566101,468.9527564048767,468.95644783973694,468.9681556224823,469.1249589920044,469.1249589920044,469.1249589920044,469.1249589920044,469.1249589920044,469.1249589920044,469.1249589920044,471.51351857185364,1,2.5401973724365234,None,,,,,,,,,,,,,,,,,,17,1,2025-02-18_15h02.59.538,comp,2024.2.4,56.079130823102815,2025-02-18 15h03.17.460594 -0500,
89,89,0,critical,hdw,35.0,2.1,lower,133.0,57.0,70.0,70.0,57.0,133.0,1,1.8743467330932617,None,,,,,0,0,0,0,0,89,89,20,471.52952313423157,,,,,,,,,,,,,,,,,,,,,,,,,,,,,,,,,,,,,,,,,,,,,,,,,,,,,,,,,,,,,,,,,,,,,,,,,,,,,,,,,133.0,57.0,70.0,70.0,57.0,133.0,2.1,2.11,-160,260,0,289,198,-267,471.515100479126,471.51518201828003,471.5183439254761,471.52952313423157,471.6684682369232,471.6684682369232,471.6684682369232,471.6684682369232,471.6684682369232,471.6684682369232,471.6684682369232,473.41985392570496,1,1.8743467330932617,None,,,,,,,,,,,,,,,,,,17,1,2025-02-18_15h02.59.538,comp,2024.2.4,56.079130823102815,2025-02-18 15h03.17.460594 -0500,
90,90,0,filler_square,None,None,None,None,None,None,None,None,None,None,3,1.1201467514038086,None,,,,,0,0,0,0,0,90,90,173,473.4355857372284,,,,,,,,,,,,,,,,,,,,,,,,,,,,,,,,,,,,,,,,,,,,,,,,,,,,,,,,,,,,,,,,,,,,,,,,,,,,,,,,,95.60111017730672,152.69130486898683,124.18397493588427,97.16206068540819,152.74367140003432,152.74367140003432,1.0,1.1,-701,281,-480,259,-259,289,473.4218156337738,473.4218997955322,473.4252917766571,473.4355857372284,473.5859067440033,473.5859067440033,473.5859067440033,473.5859067440033,473.5859067440033,473.5859067440033,473.5859067440033,474.56858015060425,3,1.1201467514038086,None,,,,,,,,,,,,,,,,,,17,1,2025-02-18_15h02.59.538,comp,2024.2.4,56.079130823102815,2025-02-18 15h03.17.460594 -0500,
91,91,0,filler_square,None,None,None,None,None,None,None,None,None,None,3,1.1605212688446045,None,,,,,0,0,0,0,0,91,91,191,474.5879497528076,,,,,,,,,,,,,,,,,,,,,,,,,,,,,,,,,,,,,,,,,,,,,,,,,,,,,,,,,,,,,,,,,,,,,,,,,,,,,,,,,94.5796736599263,72.60800525961875,97.67659243821977,67.69576736084977,111.35026668446238,111.35026668446238,3.0,3.1,-166,264,0,8,186,-282,474.5704412460327,474.57051968574524,474.5737466812134,474.5879497528076,474.7351658344269,474.7351658344269,474.7351658344269,474.7351658344269,474.7351658344269,474.7351658344269,474.7351658344269,475.7555685043335,3,1.1605212688446045,None,,,,,,,,,,,,,,,,,,17,1,2025-02-18_15h02.59.538,comp,2024.2.4,56.079130823102815,2025-02-18 15h03.17.460594 -0500,
92,92,0,catch,None,None,None,None,None,None,None,None,None,None,3,0.871335506439209,None,,,,,0,0,0,0,0,92,92,127,475.77309226989746,,,,,,,,,,,,,,,,,,,,,,,,,,,,,,,,,,,,,,,,,,,,,,,,,,,,,,,,,,,,,,,,,,,,,,,,,,,,,,,,,61,129,76,114,182,143,1.0,1.2,-218,19,0,2,224,-20,475.75776052474976,475.7578434944153,475.761581659317,475.77309226989746,475.92055463790894,475.92055463790894,475.92055463790894,475.92055463790894,475.92055463790894,475.92055463790894,475.92055463790894,476.6498682498932,3,0.871335506439209,None,,,,,,,,,,,,,,,,,,17,1,2025-02-18_15h02.59.538,comp,2024.2.4,56.079130823102815,2025-02-18 15h03.17.460594 -0500,
93,93,0,filler_square,None,None,None,None,None,None,None,None,None,None,3,1.1286029815673828,None,,,,,0,0,0,0,0,93,93,177,476.6670799255371,,,,,,,,,,,,,,,,,,,,,,,,,,,,,,,,,,,,,,,,,,,,,,,,,,,,,,,,,,,,,,,,,,,,,,,,,,,,,,,,,171.68990346036816,171.68990346036816,125.11910609000545,164.3332155641206,92.31567755612582,72.4163784939775,2.2,2.21,-264,-274,0,251,214,265,476.65159249305725,476.651668548584,476.65464091300964,476.6670799255371,476.8045711517334,476.8045711517334,476.8045711517334,476.8045711517334,476.8045711517334,476.8045711517334,476.8045711517334,477.81087613105774,3,1.1286029815673828,None,,,,,,,,,,,,,,,,,,17,1,2025-02-18_15h02.59.538,comp,2024.2.4,56.079130823102815,2025-02-18 15h03.17.460594 -0500,
94,94,0,filler_random,None,None,None,None,None,None,None,None,None,None,1,2.340388059616089,None,,,,,0,0,0,0,0,94,94,131,477.83129358291626,,,,,,,,,,,,,,,,,,,,,,,,,,,,,,,,,,,,,,,,,,,,,,,,,,,,,,,,,,,,,,,,,,,,,,,,,,,,,,,,,189.3214855419999,89.21968543393622,75.48978005808704,174.93278207699134,133.77337783689512,74.32185184279373,4.0,4.2,-228,-5,0,-288,221,-14,477.8125994205475,477.81272411346436,477.81606459617615,477.83129358291626,477.97097086906433,477.97097086906433,477.97097086906433,477.97097086906433,477.97097086906433,477.97097086906433,477.97097086906433,480.18697786331177,1,2.340388059616089,None,,,,,,,,,,,,,,,,,,17,1,2025-02-18_15h02.59.538,comp,2024.2.4,56.079130823102815,2025-02-18 15h03.17.460594 -0500,
95,95,0,critical,dhw,20.0,3.0,upper,141.0,141.0,200.0,125.0,125.0,200.0,3,9.185500621795654,None,,,,,0,0,0,0,0,95,95,57,480.20243740081787,,,,,,,,,,,,,,,,,,,,,,,,,,,,,,,,,,,,,,,,,,,,,,,,,,,,,,,,,,,,,,,,,,,,,,,,,,,,,,,,,141.0,141.0,200.0,125.0,125.0,200.0,3.0,3.2,-229,-276,0,-1,258,278,480.18845868110657,480.18853282928467,480.19168639183044,480.20243740081787,480.3557891845703,480.3557891845703,480.3557891845703,480.3557891845703,480.3557891845703,480.3557891845703,480.3557891845703,489.3914749622345,3,9.185500621795654,None,,,,,,,,,,,,,,,,,,17,1,2025-02-18_15h02.59.538,comp,2024.2.4,56.079130823102815,2025-02-18 15h03.17.460594 -0500,
96,96,0,filler_random,None,None,None,None,None,None,None,None,None,None,3,1.7639834880828857,None,,,,,0,0,0,0,0,96,96,162,489.408096075058,,,,,,,,,,,,,,,,,,,,,,,,,,,,,,,,,,,,,,,,,,,,,,,,,,,,,,,,,,,,,,,,,,,,,,,,,,,,,,,,,114.1888026200743,143.12552434665085,113.24949784422972,169.1589275746923,193.26756065476746,118.44647349033369,3.0,3.1,-252,278,0,-12,240,-263,489.39344787597656,489.39352917671204,489.3971936702728,489.408096075058,489.556143283844,489.556143283844,489.556143283844,489.556143283844,489.556143283844,489.556143283844,489.556143283844,491.1760482788086,3,1.7639834880828857,None,,,,,,,,,,,,,,,,,,17,1,2025-02-18_15h02.59.538,comp,2024.2.4,56.079130823102815,2025-02-18 15h03.17.460594 -0500,
97,97,0,critical,hwd,35.0,2.1,upper,200.0,125.0,125.0,200.0,127.0,127.0,2,4.293838262557983,None,,,,,0,0,0,0,0,97,97,17,491.19248127937317,,,,,,,,,,,,,,,,,,,,,,,,,,,,,,,,,,,,,,,,,,,,,,,,,,,,,,,,,,,,,,,,,,,,,,,,,,,,,,,,,200.0,125.0,125.0,200.0,127.0,127.0,2.1,2.11,-258,265,0,277,260,-259,491.1776101589203,491.17773699760437,491.1807780265808,491.19248127937317,491.3408591747284,491.3408591747284,491.3408591747284,491.3408591747284,491.3408591747284,491.3408591747284,491.3408591747284,495.4910638332367,2,4.293838262557983,None,,,,,,,,,,,,,,,,,,17,1,2025-02-18_15h02.59.538,comp,2024.2.4,56.079130823102815,2025-02-18 15h03.17.460594 -0500,
98,98,0,filler_random,None,None,None,None,None,None,None,None,None,None,2,2.36003041267395,None,,,,,0,0,0,0,0,98,98,166,495.50820088386536,,,,,,,,,,,,,,,,,,,,,,,,,,,,,,,,,,,,,,,,,,,,,,,,,,,,,,,,,,,,,,,,,,,,,,,,,,,,,,,,,189.8428462542534,62.29459669189917,139.17140180044123,95.13534809544024,123.6794251711454,69.97317260302495,1.0,1.1,-655,255,-480,260,-301,277,495.4928274154663,495.49294877052307,495.4963438510895,495.50820088386536,495.64663767814636,495.64663767814636,495.64663767814636,495.64663767814636,495.64663767814636,495.64663767814636,495.64663767814636,497.8755657672882,2,2.36003041267395,None,,,,,,,,,,,,,,,,,,17,1,2025-02-18_15h02.59.538,comp,2024.2.4,56.079130823102815,2025-02-18 15h03.17.460594 -0500,
99,99,0,filler_random,None,None,None,None,None,None,None,None,None,None,1,2.3756494522094727,None,,,,,0,0,0,0,0,99,99,168,497.8934316635132,,,,,,,,,,,,,,,,,,,,,,,,,,,,,,,,,,,,,,,,,,,,,,,,,,,,,,,,,,,,,,,,,,,,,,,,,,,,,,,,,153.80032583896022,131.2594529482489,167.71494005467815,69.89224702817205,135.74370512132558,131.77375158386096,2.1,2.11,-197,269,0,278,197,-285,497.87724447250366,497.87732195854187,497.88048791885376,497.8934316635132,498.03182768821716,498.03182768821716,498.03182768821716,498.03182768821716,498.03182768821716,498.03182768821716,498.03182768821716,500.2781615257263,1,2.3756494522094727,None,,,,,,,,,,,,,,,,,,17,1,2025-02-18_15h02.59.538,comp,2024.2.4,56.079130823102815,2025-02-18 15h03.17.460594 -0500,
100,100,0,critical,dhw,20.0,4.0,upper,141.0,141.0,200.0,125.0,125.0,200.0,3,4.653833866119385,None,,,,,0,0,0,0,0,100,100,59,500.29435777664185,,,,,,,,,,,,,,,,,,,,,,,,,,,,,,,,,,,,,,,,,,,,,,,,,,,,,,,,,,,,,,,,,,,,,,,,,,,,,,,,,141.0,141.0,200.0,125.0,125.0,200.0,4.0,4.1,-229,-259,0,-2,258,-275,500.2798571586609,500.2799344062805,500.2835352420807,500.29435777664185,500.44829297065735,500.44829297065735,500.44829297065735,500.44829297065735,500.44829297065735,500.44829297065735,500.44829297065735,504.9650113582611,3,4.653833866119385,None,,,,,,,,,,,,,,,,,,17,1,2025-02-18_15h02.59.538,comp,2024.2.4,56.079130823102815,2025-02-18 15h03.17.460594 -0500,
101,101,0,catch,None,None,None,None,None,None,None,None,None,None,3,1.3863682746887207,None,,,,,0,0,0,0,0,101,101,123,504.98618388175964,,,,,,,,,,,,,,,,,,,,,,,,,,,,,,,,,,,,,,,,,,,,,,,,,,,,,,,,,,,,,,,,,,,,,,,,,,,,,,,,,58,132,114,76,149,176,2.2,2.22,-200,279,0,-265,222,-286,504.9672622680664,504.96734619140625,504.97085785865784,504.98618388175964,505.1295964717865,505.1295964717865,505.1295964717865,505.1295964717865,505.1295964717865,505.1295964717865,505.1295964717865,506.377809047699,3,1.3863682746887207,None,,,,,,,,,,,,,,,,,,17,1,2025-02-18_15h02.59.538,comp,2024.2.4,56.079130823102815,2025-02-18 15h03.17.460594 -0500,
102,102,0,critical,whd,35.0,2.1,lower,57.0,133.0,133.0,57.0,70.0,70.0,2,3.0815048217773438,None,,,,,0,0,0,0,0,102,102,36,506.39456820487976,,,,,,,,,,,,,,,,,,,,,,,,,,,,,,,,,,,,,,,,,,,,,,,,,,,,,,,,,,,,,,,,,,,,,,,,,,,,,,,,,57.0,133.0,133.0,57.0,70.0,70.0,2.1,2.11,-191,280,0,260,160,-283,506.3795077800751,506.3795819282532,506.38293719291687,506.39456820487976,506.53225588798523,506.53225588798523,506.53225588798523,506.53225588798523,506.53225588798523,506.53225588798523,506.53225588798523,509.4857461452484,2,3.0815048217773438,None,,,,,,,,,,,,,,,,,,17,1,2025-02-18_15h02.59.538,comp,2024.2.4,56.079130823102815,2025-02-18 15h03.17.460594 -0500,
103,103,0,filler_random,None,None,None,None,None,None,None,None,None,None,1,2.045167922973633,None,,,,,0,0,0,0,0,103,103,142,509.50280499458313,,,,,,,,,,,,,,,,,,,,,,,,,,,,,,,,,,,,,,,,,,,,,,,,,,,,,,,,,,,,,,,,,,,,,,,,,,,,,,,,,162.4057272516154,98.50156019590733,63.38641939269672,195.19875965542272,83.18152783741371,163.56096939669806,4.0,4.1,-243,-286,0,-8,275,-273,509.48755168914795,509.4876809120178,509.4910364151001,509.50280499458313,509.64582777023315,509.64582777023315,509.64582777023315,509.64582777023315,509.64582777023315,509.64582777023315,509.64582777023315,511.55055499076843,1,2.045167922973633,None,,,,,,,,,,,,,,,,,,17,1,2025-02-18_15h02.59.538,comp,2024.2.4,56.079130823102815,2025-02-18 15h03.17.460594 -0500,
104,104,0,critical,hdw,20.0,1.0,lower,133.0,57.0,78.0,78.0,57.0,133.0,1,2.6379148960113525,None,,,,,0,0,0,0,0,104,104,114,511.56674456596375,,,,,,,,,,,,,,,,,,,,,,,,,,,,,,,,,,,,,,,,,,,,,,,,,,,,,,,,,,,,,,,,,,,,,,,,,,,,,,,,,133.0,57.0,78.0,78.0,57.0,133.0,1.0,1.1,-644,281,-480,251,-278,275,511.5522925853729,511.5523726940155,511.55591201782227,511.56674456596375,511.7154836654663,511.7154836654663,511.7154836654663,511.7154836654663,511.7154836654663,511.7154836654663,511.7154836654663,514.2158272266388,1,2.6379148960113525,None,,,,,,,,,,,,,,,,,,17,1,2025-02-18_15h02.59.538,comp,2024.2.4,56.079130823102815,2025-02-18 15h03.17.460594 -0500,
105,105,0,critical,wdh,35.0,1.0,upper,125.0,200.0,127.0,127.0,200.0,125.0,3,4.092668533325195,None,,,,,0,0,0,0,0,105,105,73,514.2314555644989,,,,,,,,,,,,,,,,,,,,,,,,,,,,,,,,,,,,,,,,,,,,,,,,,,,,,,,,,,,,,,,,,,,,,,,,,,,,,,,,,125.0,200.0,127.0,127.0,200.0,125.0,1.0,1.2,-260,-16,0,-4,222,-1,514.2172958850861,514.2173717021942,514.2207798957825,514.2314555644989,514.3889541625977,514.3889541625977,514.3889541625977,514.3889541625977,514.3889541625977,514.3889541625977,514.3889541625977,518.3429431915283,3,4.092668533325195,None,,,,,,,,,,,,,,,,,,17,1,2025-02-18_15h02.59.538,comp,2024.2.4,56.079130823102815,2025-02-18 15h03.17.460594 -0500,
106,106,0,critical,hdw,20.0,2.1,lower,133.0,57.0,78.0,78.0,57.0,133.0,3,2.458284378051758,None,,,,,0,0,0,0,0,106,106,22,518.3619146347046,,,,,,,,,,,,,,,,,,,,,,,,,,,,,,,,,,,,,,,,,,,,,,,,,,,,,,,,,,,,,,,,,,,,,,,,,,,,,,,,,133.0,57.0,78.0,78.0,57.0,133.0,2.1,2.12,-164,-283,0,-278,202,280,518.3446028232574,518.3446955680847,518.3481240272522,518.3619146347046,518.5029530525208,518.5029530525208,518.5029530525208,518.5029530525208,518.5029530525208,518.5029530525208,518.5029530525208,520.8346145153046,3,2.458284378051758,None,,,,,,,,,,,,,,,,,,17,1,2025-02-18_15h02.59.538,comp,2024.2.4,56.079130823102815,2025-02-18 15h03.17.460594 -0500,
107,107,0,critical,whd,20.0,2.1,upper,125.0,200.0,200.0,125.0,141.0,141.0,3,6.451481103897095,None,,,,,0,0,0,0,0,107,107,39,520.8493847846985,,,,,,,,,,,,,,,,,,,,,,,,,,,,,,,,,,,,,,,,,,,,,,,,,,,,,,,,,,,,,,,,,,,,,,,,,,,,,,,,,125.0,200.0,200.0,125.0,141.0,141.0,2.1,2.12,-258,-252,0,-281,229,250,520.8362681865692,520.8364009857178,520.8401877880096,520.8493847846985,520.9887311458588,520.9887311458588,520.9887311458588,520.9887311458588,520.9887311458588,520.9887311458588,520.9887311458588,527.3090741634369,3,6.451481103897095,None,,,,,,,,,,,,,,,,,,17,1,2025-02-18_15h02.59.538,comp,2024.2.4,56.079130823102815,2025-02-18 15h03.17.460594 -0500,
108,108,0,critical,wdh,35.0,4.0,upper,125.0,200.0,127.0,127.0,200.0,125.0,3,1.9871418476104736,None,,,,,0,0,0,0,0,108,108,77,527.3293697834015,,,,,,,,,,,,,,,,,,,,,,,,,,,,,,,,,,,,,,,,,,,,,,,,,,,,,,,,,,,,,,,,,,,,,,,,,,,,,,,,,125.0,200.0,127.0,127.0,200.0,125.0,4.0,4.2,-260,-10,0,-262,222,-16,527.3106038570404,527.3106825351715,527.3137242794037,527.3293697834015,527.4708778858185,527.4708778858185,527.4708778858185,527.4708778858185,527.4708778858185,527.4708778858185,527.4708778858185,529.3213059902191,3,1.9871418476104736,None,,,,,,,,,,,,,,,,,,17,1,2025-02-18_15h02.59.538,comp,2024.2.4,56.079130823102815,2025-02-18 15h03.17.460594 -0500,
109,109,0,critical,wdh,35.0,1.0,lower,57.0,133.0,70.0,70.0,133.0,57.0,3,1.9806137084960938,None,,,,,0,0,0,0,0,109,109,72,529.3375129699707,,,,,,,,,,,,,,,,,,,,,,,,,,,,,,,,,,,,,,,,,,,,,,,,,,,,,,,,,,,,,,,,,,,,,,,,,,,,,,,,,57.0,133.0,70.0,70.0,133.0,57.0,1.0,1.2,-198,14,0,-2,160,3,529.322910785675,529.3229908943176,529.3266487121582,529.3375129699707,529.4954986572266,529.4954986572266,529.4954986572266,529.4954986572266,529.4954986572266,529.4954986572266,529.4954986572266,531.3202414512634,3,1.9806137084960938,None,,,,,,,,,,,,,,,,,,17,1,2025-02-18_15h02.59.538,comp,2024.2.4,56.079130823102815,2025-02-18 15h03.17.460594 -0500,
110,110,0,critical,dwh,35.0,3.0,lower,70.0,70.0,57.0,133.0,133.0,57.0,2,5.429153919219971,None,,,,,0,0,0,0,0,110,110,62,531.3367989063263,,,,,,,,,,,,,,,,,,,,,,,,,,,,,,,,,,,,,,,,,,,,,,,,,,,,,,,,,,,,,,,,,,,,,,,,,,,,,,,,,70.0,70.0,57.0,133.0,133.0,57.0,3.0,3.2,-198,-267,0,-4,191,284,531.3221755027771,531.3222851753235,531.3254809379578,531.3367989063263,531.4908833503723,531.4908833503723,531.4908833503723,531.4908833503723,531.4908833503723,531.4908833503723,531.4908833503723,536.7690725326538,2,5.429153919219971,None,,,,,,,,,,,,,,,,,,17,1,2025-02-18_15h02.59.538,comp,2024.2.4,56.079130823102815,2025-02-18 15h03.17.460594 -0500,
111,111,0,filler_random,None,None,None,None,None,None,None,None,None,None,2,1.2098767757415771,None,,,,,0,0,0,0,0,111,111,156,536.786327123642,,,,,,,,,,,,,,,,,,,,,,,,,,,,,,,,,,,,,,,,,,,,,,,,,,,,,,,,,,,,,,,,,,,,,,,,,,,,,,,,,60.3439641880219,184.1023059369772,122.65807885804308,195.0101220261112,196.89962111913488,91.84223072714401,4.0,4.2,-286,12,0,-264,239,16,536.7707951068878,536.7708704471588,536.7742462158203,536.786327123642,536.9285576343536,536.9285576343536,536.9285576343536,536.9285576343536,536.9285576343536,536.9285576343536,536.9285576343536,538.0086069107056,2,1.2098767757415771,None,,,,,,,,,,,,,,,,,,17,1,2025-02-18_15h02.59.538,comp,2024.2.4,56.079130823102815,2025-02-18 15h03.17.460594 -0500,
112,112,0,filler_random,None,None,None,None,None,None,None,None,None,None,3,1.531327486038208,None,,,,,0,0,0,0,0,112,112,157,538.0249438285828,,,,,,,,,,,,,,,,,,,,,,,,,,,,,,,,,,,,,,,,,,,,,,,,,,,,,,,,,,,,,,,,,,,,,,,,,,,,,,,,,104.3283628105942,69.21829967192048,151.5685377617664,65.85150601422274,93.92439633375102,116.7213264370989,4.0,4.1,-164,-263,0,18,187,-262,538.010381937027,538.0104577541351,538.0137209892273,538.0249438285828,538.173041343689,538.173041343689,538.173041343689,538.173041343689,538.173041343689,538.173041343689,538.173041343689,539.5583217144012,3,1.531327486038208,None,,,,,,,,,,,,,,,,,,17,1,2025-02-18_15h02.59.538,comp,2024.2.4,56.079130823102815,2025-02-18 15h03.17.460594 -0500,
113,113,0,catch,None,None,None,None,None,None,None,None,None,None,3,1.285252571105957,None,,,,,0,0,0,0,0,113,113,124,539.5751373767853,,,,,,,,,,,,,,,,,,,,,,,,,,,,,,,,,,,,,,,,,,,,,,,,,,,,,,,,,,,,,,,,,,,,,,,,,,,,,,,,,107,83,109,81,131,194,3.0,3.2,-178,-286,0,-8,234,261,539.5605578422546,539.5606365203857,539.5642518997192,539.5751373767853,539.7243638038635,539.7243638038635,539.7243638038635,539.7243638038635,539.7243638038635,539.7243638038635,539.7243638038635,540.8787326812744,3,1.285252571105957,None,,,,,,,,,,,,,,,,,,17,1,2025-02-18_15h02.59.538,comp,2024.2.4,56.079130823102815,2025-02-18 15h03.17.460594 -0500,
114,114,0,critical,hdw,35.0,4.0,upper,200.0,125.0,127.0,127.0,125.0,200.0,3,3.9732325077056885,None,,,,,0,0,0,0,0,114,114,113,540.8958606719971,,,,,,,,,,,,,,,,,,,,,,,,,,,,,,,,,,,,,,,,,,,,,,,,,,,,,,,,,,,,,,,,,,,,,,,,,,,,,,,,,200.0,125.0,127.0,127.0,125.0,200.0,4.0,4.1,-222,-268,0,-11,260,-251,540.8802671432495,540.8803422451019,540.8833417892456,540.8958606719971,541.0416510105133,541.0416510105133,541.0416510105133,541.0416510105133,541.0416510105133,541.0416510105133,541.0416510105133,544.8755950927734,3,3.9732325077056885,None,,,,,,,,,,,,,,,,,,17,1,2025-02-18_15h02.59.538,comp,2024.2.4,56.079130823102815,2025-02-18 15h03.17.460594 -0500,
115,115,0,filler_square,None,None,None,None,None,None,None,None,None,None,1,5.920145750045776,None,,,,,0,0,0,0,0,115,115,198,544.8923869132996,,,,,,,,,,,,,,,,,,,,,,,,,,,,,,,,,,,,,,,,,,,,,,,,,,,,,,,,,,,,,,,,,,,,,,,,,,,,,,,,,67.5969616689166,67.5969616689166,67.56927754052165,62.216373111418484,58.02589427207303,67.40949711288646,2.1,2.12,-161,-264,0,-266,161,283,544.8774411678314,544.8775186538696,544.8809714317322,544.8923869132996,545.0296542644501,545.0296542644501,545.0296542644501,545.0296542644501,545.0296542644501,545.0296542644501,545.0296542644501,550.8270587921143,1,5.920145750045776,None,,,,,,,,,,,,,,,,,,17,1,2025-02-18_15h02.59.538,comp,2024.2.4,56.079130823102815,2025-02-18 15h03.17.460594 -0500,
116,116,0,critical,hwd,20.0,1.0,upper,200.0,125.0,125.0,200.0,141.0,141.0,2,10.04132628440857,None,,,,,0,0,0,0,0,116,116,103,550.8430666923523,,,,,,,,,,,,,,,,,,,,,,,,,,,,,,,,,,,,,,,,,,,,,,,,,,,,,,,,,,,,,,,,,,,,,,,,,,,,,,,,,200.0,125.0,125.0,200.0,141.0,141.0,1.0,1.3,222,-261,480,-272,746,-282,550.8285868167877,550.8286623954773,550.8327739238739,550.8430666923523,550.9950547218323,550.9950547218323,550.9950547218323,550.9950547218323,550.9950547218323,550.9950547218323,550.9950547218323,560.8989825248718,2,10.04132628440857,None,,,,,,,,,,,,,,,,,,17,1,2025-02-18_15h02.59.538,comp,2024.2.4,56.079130823102815,2025-02-18 15h03.17.460594 -0500,
117,117,0,filler_square,None,None,None,None,None,None,None,None,None,None,3,1.0759084224700928,None,,,,,0,0,0,0,0,117,117,207,560.915186882019,,,,,,,,,,,,,,,,,,,,,,,,,,,,,,,,,,,,,,,,,,,,,,,,,,,,,,,,,,,,,,,,,,,,,,,,,,,,,,,,,106.5272380107833,123.46845143308029,78.6048315950504,125.64205618774415,134.50797816098662,134.50797816098662,2.1,2.11,-221,279,0,279,226,-263,560.9011504650116,560.9012539386749,560.9045903682709,560.915186882019,561.064457654953,561.064457654953,561.064457654953,561.064457654953,561.064457654953,561.064457654953,561.064457654953,561.9965040683746,3,1.0759084224700928,None,,,,,,,,,,,,,,,,,,17,1,2025-02-18_15h02.59.538,comp,2024.2.4,56.079130823102815,2025-02-18 15h03.17.460594 -0500,
118,118,0,filler_square,None,None,None,None,None,None,None,None,None,None,3,0.8519470691680908,None,,,,,0,0,0,0,0,118,118,183,562.0165054798126,,,,,,,,,,,,,,,,,,,,,,,,,,,,,,,,,,,,,,,,,,,,,,,,,,,,,,,,,,,,,,,,,,,,,,,,,,,,,,,,,94.90796644232364,88.15503588976586,78.12729204107428,109.4599591567897,136.86843046685075,136.86843046685075,4.0,4.1,-195,-262,0,-14,219,-280,561.9984178543091,561.9984970092773,562.0016741752625,562.0165054798126,562.1640009880066,562.1640009880066,562.1640009880066,562.1640009880066,562.1640009880066,562.1640009880066,562.1640009880066,562.8824570178986,3,0.8519470691680908,None,,,,,,,,,,,,,,,,,,17,1,2025-02-18_15h02.59.538,comp,2024.2.4,56.079130823102815,2025-02-18 15h03.17.460594 -0500,
119,119,0,critical,dwh,20.0,3.0,upper,141.0,141.0,125.0,200.0,200.0,125.0,1,3.586822986602783,None,,,,,0,0,0,0,0,119,119,69,562.8976702690125,,,,,,,,,,,,,,,,,,,,,,,,,,,,,,,,,,,,,,,,,,,,,,,,,,,,,,,,,,,,,,,,,,,,,,,,,,,,,,,,,141.0,141.0,125.0,200.0,200.0,125.0,3.0,3.1,-266,287,0,18,258,-287,562.8840637207031,562.8841409683228,562.8873524665833,562.8976702690125,563.0479092597961,563.0479092597961,563.0479092597961,563.0479092597961,563.0479092597961,563.0479092597961,563.0479092597961,566.4987497329712,1,3.586822986602783,None,,,,,,,,,,,,,,,,,,17,1,2025-02-18_15h02.59.538,comp,2024.2.4,56.079130823102815,2025-02-18 15h03.17.460594 -0500,
120,120,0,filler_random,None,None,None,None,None,None,None,None,None,None,2,1.6660547256469727,None,,,,,0,0,0,0,0,120,120,161,566.5145971775055,,,,,,,,,,,,,,,,,,,,,,,,,,,,,,,,,,,,,,,,,,,,,,,,,,,,,,,,,,,,,,,,,,,,,,,,,,,,,,,,,132.90615626529768,59.12791288731652,160.4536520271613,108.4686880610789,64.31447269338577,106.67188247286796,4.0,4.2,-180,-1,0,-282,204,-17,566.5005872249603,566.5007169246674,566.5041980743408,566.5145971775055,566.6658108234406,566.6658108234406,566.6658108234406,566.6658108234406,566.6658108234406,566.6658108234406,566.6658108234406,568.1846821308136,2,1.6660547256469727,None,,,,,,,,,,,,,,,,,,17,1,2025-02-18_15h02.59.538,comp,2024.2.4,56.079130823102815,2025-02-18 15h03.17.460594 -0500,
121,121,0,critical,dwh,35.0,1.0,lower,70.0,70.0,57.0,133.0,133.0,57.0,2,3.9669442176818848,None,,,,,0,0,0,0,0,121,121,60,568.2056090831757,,,,,,,,,,,,,,,,,,,,,,,,,,,,,,,,,,,,,,,,,,,,,,,,,,,,,,,,,,,,,,,,,,,,,,,,,,,,,,,,,70.0,70.0,57.0,133.0,133.0,57.0,1.0,1.3,282,-283,480,-272,671,-280,568.1863670349121,568.1864595413208,568.1897428035736,568.2056090831757,568.3498678207397,568.3498678207397,568.3498678207397,568.3498678207397,568.3498678207397,568.3498678207397,568.3498678207397,572.1836304664612,2,3.9669442176818848,None,,,,,,,,,,,,,,,,,,17,1,2025-02-18_15h02.59.538,comp,2024.2.4,56.079130823102815,2025-02-18 15h03.17.460594 -0500,
122,122,0,filler_square,None,None,None,None,None,None,None,None,None,None,3,1.3408513069152832,None,,,,,0,0,0,0,0,122,122,171,572.1997101306915,,,,,,,,,,,,,,,,,,,,,,,,,,,,,,,,,,,,,,,,,,,,,,,,,,,,,,,,,,,,,,,,,,,,,,,,,,,,,,,,,147.74186240158042,160.51535131029846,104.50912977889979,100.64543154345778,195.94898465496706,195.94898465496706,2.2,2.21,-227,-264,0,265,244,258,572.1854977607727,572.1855762004852,572.189017534256,572.1997101306915,572.3510501384735,572.3510501384735,572.3510501384735,572.3510501384735,572.3510501384735,572.3510501384735,572.3510501384735,573.5586104393005,3,1.3408513069152832,None,,,,,,,,,,,,,,,,,,17,1,2025-02-18_15h02.59.538,comp,2024.2.4,56.079130823102815,2025-02-18 15h03.17.460594 -0500,
123,123,0,critical,hdw,35.0,2.1,lower,133.0,57.0,70.0,70.0,57.0,133.0,1,2.3945746421813965,None,,,,,0,0,0,0,0,123,123,44,573.5779633522034,,,,,,,,,,,,,,,,,,,,,,,,,,,,,,,,,,,,,,,,,,,,,,,,,,,,,,,,,,,,,,,,,,,,,,,,,,,,,,,,,133.0,57.0,70.0,70.0,57.0,133.0,2.1,2.12,-160,-290,0,-275,198,287,573.5601472854614,573.5602416992188,573.5632727146149,573.5779633522034,573.7186675071716,573.7186675071716,573.7186675071716,573.7186675071716,573.7186675071716,573.7186675071716,573.7186675071716,575.9836192131042,1,2.3945746421813965,None,,,,,,,,,,,,,,,,,,17,1,2025-02-18_15h02.59.538,comp,2024.2.4,56.079130823102815,2025-02-18 15h03.17.460594 -0500,
124,124,0,catch,None,None,None,None,None,None,None,None,None,None,3,2.1157679557800293,None,,,,,0,0,0,0,0,124,124,120,576.0005877017975,,,,,,,,,,,,,,,,,,,,,,,,,,,,,,,,,,,,,,,,,,,,,,,,,,,,,,,,,,,,,,,,,,,,,,,,,,,,,,,,,60,130,100,90,160,165,2.1,2.11,-206,250,0,277,224,-277,575.9855749607086,575.9856553077698,575.9889626502991,576.0005877017975,576.141081571579,576.141081571579,576.141081571579,576.141081571579,576.141081571579,576.141081571579,576.141081571579,578.1365985870361,3,2.1157679557800293,None,,,,,,,,,,,,,,,,,,17,1,2025-02-18_15h02.59.538,comp,2024.2.4,56.079130823102815,2025-02-18 15h03.17.460594 -0500,
125,125,0,critical,dwh,35.0,2.1,lower,70.0,70.0,57.0,133.0,133.0,57.0,3,3.1088008880615234,None,,,,,0,0,0,0,0,125,125,4,578.1517570018768,,,,,,,,,,,,,,,,,,,,,,,,,,,,,,,,,,,,,,,,,,,,,,,,,,,,,,,,,,,,,,,,,,,,,,,,,,,,,,,,,70.0,70.0,57.0,133.0,133.0,57.0,2.1,2.12,-198,-277,0,-285,191,253,578.1374523639679,578.1374998092651,578.1394846439362,578.1517570018768,578.3018386363983,578.3018386363983,578.3018386363983,578.3018386363983,578.3018386363983,578.3018386363983,578.3018386363983,581.2697994709015,3,3.1088008880615234,None,,,,,,,,,,,,,,,,,,17,1,2025-02-18_15h02.59.538,comp,2024.2.4,56.079130823102815,2025-02-18 15h03.17.460594 -0500,
126,126,0,critical,whd,20.0,1.0,lower,57.0,133.0,133.0,57.0,78.0,78.0,2,2.278801679611206,None,,,,,0,0,0,0,0,126,126,90,581.2864689826965,,,,,,,,,,,,,,,,,,,,,,,,,,,,,,,,,,,,,,,,,,,,,,,,,,,,,,,,,,,,,,,,,,,,,,,,,,,,,,,,,57.0,133.0,133.0,57.0,78.0,78.0,1.0,1.1,-671,287,-480,278,-316,284,581.2712824344635,581.2713606357574,581.2749123573303,581.2864689826965,581.4358406066895,581.4358406066895,581.4358406066895,581.4358406066895,581.4358406066895,581.4358406066895,581.4358406066895,583.5711905956268,2,2.278801679611206,None,,,,,,,,,,,,,,,,,,17,1,2025-02-18_15h02.59.538,comp,2024.2.4,56.079130823102815,2025-02-18 15h03.17.460594 -0500,
127,127,0,critical,hdw,35.0,1.0,upper,200.0,125.0,127.0,127.0,125.0,200.0,3,2.6337153911590576,None,,,,,0,0,0,0,0,127,127,109,583.5871868133545,,,,,,,,,,,,,,,,,,,,,,,,,,,,,,,,,,,,,,,,,,,,,,,,,,,,,,,,,,,,,,,,,,,,,,,,,,,,,,,,,200.0,125.0,127.0,127.0,125.0,200.0,1.0,1.3,258,-259,480,-263,740,-256,583.5727860927582,583.5728619098663,583.5763370990753,583.5871868133545,583.7382092475891,583.7382092475891,583.7382092475891,583.7382092475891,583.7382092475891,583.7382092475891,583.7382092475891,586.2305383682251,3,2.6337153911590576,None,,,,,,,,,,,,,,,,,,17,1,2025-02-18_15h02.59.538,comp,2024.2.4,56.079130823102815,2025-02-18 15h03.17.460594 -0500,
128,128,0,filler_random,None,None,None,None,None,None,None,None,None,None,2,3.8138375282287598,None,,,,,0,0,0,0,0,128,128,145,586.2484111785889,,,,,,,,,,,,,,,,,,,,,,,,,,,,,,,,,,,,,,,,,,,,,,,,,,,,,,,,,,,,,,,,,,,,,,,,,,,,,,,,,78.3347261632113,58.86569607878265,83.13792167396109,156.5210068211034,124.01363829485638,73.38234753788947,4.0,4.2,-204,-7,0,-257,211,4,586.2321228981018,586.2321982383728,586.235191822052,586.2484111785889,586.3897738456726,586.3897738456726,586.3897738456726,586.3897738456726,586.3897738456726,586.3897738456726,586.3897738456726,590.0733058452606,2,3.8138375282287598,None,,,,,,,,,,,,,,,,,,17,1,2025-02-18_15h02.59.538,comp,2024.2.4,56.079130823102815,2025-02-18 15h03.17.460594 -0500,
129,129,0,critical,dhw,20.0,3.0,lower,78.0,78.0,133.0,57.0,57.0,133.0,2,4.307477712631226,None,,,,,0,0,0,0,0,129,129,56,590.0892000198364,,,,,,,,,,,,,,,,,,,,,,,,,,,,,,,,,,,,,,,,,,,,,,,,,,,,,,,,,,,,,,,,,,,,,,,,,,,,,,,,,78.0,78.0,133.0,57.0,57.0,133.0,3.0,3.2,-164,-288,0,2,191,253,590.0748353004456,590.0749125480652,590.0784337520599,590.0892000198364,590.2450895309448,590.2450895309448,590.2450895309448,590.2450895309448,590.2450895309448,590.2450895309448,590.2450895309448,594.4067749977112,2,4.307477712631226,None,,,,,,,,,,,,,,,,,,17,1,2025-02-18_15h02.59.538,comp,2024.2.4,56.079130823102815,2025-02-18 15h03.17.460594 -0500,
130,130,0,filler_square,None,None,None,None,None,None,None,None,None,None,1,6.02985954284668,None,,,,,0,0,0,0,0,130,130,193,594.4236204624176,,,,,,,,,,,,,,,,,,,,,,,,,,,,,,,,,,,,,,,,,,,,,,,,,,,,,,,,,,,,,,,,,,,,,,,,,,,,,,,,,126.39686367966853,126.39686367966853,64.96276374181357,110.50201328119894,124.03981299627812,91.20827881253894,3.0,3.2,-214,-289,0,-15,197,269,594.4086015224457,594.4086773395538,594.4120397567749,594.4236204624176,594.5805704593658,594.5805704593658,594.5805704593658,594.5805704593658,594.5805704593658,594.5805704593658,594.5805704593658,600.4610471725464,1,6.02985954284668,None,,,,,,,,,,,,,,,,,,17,1,2025-02-18_15h02.59.538,comp,2024.2.4,56.079130823102815,2025-02-18 15h03.17.460594 -0500,
131,131,0,filler_random,None,None,None,None,None,None,None,None,None,None,1,1.2693495750427246,None,,,,,0,0,0,0,0,131,131,152,600.4794380664825,,,,,,,,,,,,,,,,,,,,,,,,,,,,,,,,,,,,,,,,,,,,,,,,,,,,,,,,,,,,,,,,,,,,,,,,,,,,,,,,,153.5846976060952,168.14712650877684,70.42768025066972,71.62455375971312,122.513056268909,60.96611630170688,1.0,1.1,-696,280,-480,253,-318,275,600.4629373550415,600.4630508422852,600.4664282798767,600.4794380664825,600.6247489452362,600.6247489452362,600.6247489452362,600.6247489452362,600.6247489452362,600.6247489452362,600.6247489452362,601.7617552280426,1,1.2693495750427246,None,,,,,,,,,,,,,,,,,,17,1,2025-02-18_15h02.59.538,comp,2024.2.4,56.079130823102815,2025-02-18 15h03.17.460594 -0500,
132,132,0,filler_square,None,None,None,None,None,None,None,None,None,None,2,0.9590640068054199,None,,,,,0,0,0,0,0,132,132,180,601.782368183136,,,,,,,,,,,,,,,,,,,,,,,,,,,,,,,,,,,,,,,,,,,,,,,,,,,,,,,,,,,,,,,,,,,,,,,,,,,,,,,,,187.7214801057898,75.80746490216671,188.14201485790704,188.14201485790704,144.63767502431728,134.35302514356707,4.0,4.1,-228,-286,0,8,257,-258,601.7635471820831,601.7636241912842,601.7666990756989,601.782368183136,601.9140503406525,601.9140503406525,601.9140503406525,601.9140503406525,601.9140503406525,601.9140503406525,601.9140503406525,602.7495360374451,2,0.9590640068054199,None,,,,,,,,,,,,,,,,,,17,1,2025-02-18_15h02.59.538,comp,2024.2.4,56.079130823102815,2025-02-18 15h03.17.460594 -0500,
133,133,0,filler_square,None,None,None,None,None,None,None,None,None,None,2,1.6707334518432617,None,,,,,0,0,0,0,0,133,133,178,602.7661247253418,,,,,,,,,,,,,,,,,,,,,,,,,,,,,,,,,,,,,,,,,,,,,,,,,,,,,,,,,,,,,,,,,,,,,,,,,,,,,,,,,65.76761996214327,82.44617961418157,98.61854721734983,98.61854721734983,73.31114146463153,93.78799761292903,2.1,2.12,-187,-269,0,-285,192,276,602.7516191005707,602.751699924469,602.7550616264343,602.7661247253418,602.9106113910675,602.9106113910675,602.9106113910675,602.9106113910675,602.9106113910675,602.9106113910675,602.9106113910675,604.4397628307343,2,1.6707334518432617,None,,,,,,,,,,,,,,,,,,17,1,2025-02-18_15h02.59.538,comp,2024.2.4,56.079130823102815,2025-02-18 15h03.17.460594 -0500,
134,134,0,critical,wdh,20.0,3.0,upper,125.0,200.0,141.0,141.0,200.0,125.0,1,3.401621103286743,None,,,,,0,0,0,0,0,134,134,81,604.4601290225983,,,,,,,,,,,,,,,,,,,,,,,,,,,,,,,,,,,,,,,,,,,,,,,,,,,,,,,,,,,,,,,,,,,,,,,,,,,,,,,,,125.0,200.0,141.0,141.0,200.0,125.0,3.0,3.2,-266,-290,0,17,229,284,604.4412713050842,604.441351890564,604.4444222450256,604.4601290225983,604.5946025848389,604.5946025848389,604.5946025848389,604.5946025848389,604.5946025848389,604.5946025848389,604.5946025848389,607.8639278411865,1,3.401621103286743,None,,,,,,,,,,,,,,,,,,17,1,2025-02-18_15h02.59.538,comp,2024.2.4,56.079130823102815,2025-02-18 15h03.17.460594 -0500,
135,135,0,filler_random,None,None,None,None,None,None,None,None,None,None,2,1.0305945873260498,None,,,,,0,0,0,0,0,135,135,134,607.8783986568451,,,,,,,,,,,,,,,,,,,,,,,,,,,,,,,,,,,,,,,,,,,,,,,,,,,,,,,,,,,,,,,,,,,,,,,,,,,,,,,,,105.8898325735016,185.88591032542868,161.6397079536036,177.96415363599095,69.2315175652315,148.81492252842207,2.1,2.11,-278,264,0,280,259,-279,607.8657944202423,607.8658740520477,607.8690056800842,607.8783986568451,608.027529001236,608.027529001236,608.027529001236,608.027529001236,608.027529001236,608.027529001236,608.027529001236,608.9147593975067,2,1.0305945873260498,None,,,,,,,,,,,,,,,,,,17,1,2025-02-18_15h02.59.538,comp,2024.2.4,56.079130823102815,2025-02-18 15h03.17.460594 -0500,
136,136,0,filler_square,None,None,None,None,None,None,None,None,None,None,3,1.438715934753418,None,,,,,0,0,0,0,0,136,136,195,608.9348175525665,,,,,,,,,,,,,,,,,,,,,,,,,,,,,,,,,,,,,,,,,,,,,,,,,,,,,,,,,,,,,,,,,,,,,,,,,,,,,,,,,100.68866275896217,120.28281064067428,74.89203038999975,89.40265904854337,122.71762060342073,122.71762060342073,3.0,3.2,-201,-287,0,-5,202,286,608.9169800281525,608.9170658588409,608.9206349849701,608.9348175525665,609.0797305107117,609.0797305107117,609.0797305107117,609.0797305107117,609.0797305107117,609.0797305107117,609.0797305107117,610.381475687027,3,1.438715934753418,None,,,,,,,,,,,,,,,,,,17,1,2025-02-18_15h02.59.538,comp,2024.2.4,56.079130823102815,2025-02-18 15h03.17.460594 -0500,
137,137,0,filler_random,None,None,None,None,None,None,None,None,None,None,1,1.1355056762695312,None,,,,,0,0,0,0,0,137,137,133,610.3974628448486,,,,,,,,,,,,,,,,,,,,,,,,,,,,,,,,,,,,,,,,,,,,,,,,,,,,,,,,,,,,,,,,,,,,,,,,,,,,,,,,,153.21205578675279,194.85847313938987,58.653145780192546,88.98087197284798,102.93705455349847,128.22715437047987,1.0,1.2,-238,-18,0,4,205,19,610.3833112716675,610.3833899497986,610.3867146968842,610.3974628448486,610.5472059249878,610.5472059249878,610.5472059249878,610.5472059249878,610.5472059249878,610.5472059249878,610.5472059249878,611.5458455085754,1,1.1355056762695312,None,,,,,,,,,,,,,,,,,,17,1,2025-02-18_15h02.59.538,comp,2024.2.4,56.079130823102815,2025-02-18 15h03.17.460594 -0500,
138,138,0,filler_random,None,None,None,None,None,None,None,None,None,None,1,4.795617580413818,None,,,,,0,0,0,0,0,138,138,136,611.5621771812439,,,,,,,,,,,,,,,,,,,,,,,,,,,,,,,,,,,,,,,,,,,,,,,,,,,,,,,,,,,,,,,,,,,,,,,,,,,,,,,,,183.2678517551837,111.87007997292122,121.70554162367407,143.4126440100937,190.5754361865482,61.419501571357785,2.1,2.11,-224,250,0,269,198,-254,611.5476531982422,611.5477302074432,611.5510528087616,611.5621771812439,611.71386551857,611.71386551857,611.71386551857,611.71386551857,611.71386551857,611.71386551857,611.71386551857,616.3652458190918,1,4.795617580413818,None,,,,,,,,,,,,,,,,,,17,1,2025-02-18_15h02.59.538,comp,2024.2.4,56.079130823102815,2025-02-18 15h03.17.460594 -0500,
139,139,0,critical,dwh,20.0,1.0,upper,141.0,141.0,125.0,200.0,200.0,125.0,3,6.576917409896851,None,,,,,0,0,0,0,0,139,139,67,616.3809051513672,,,,,,,,,,,,,,,,,,,,,,,,,,,,,,,,,,,,,,,,,,,,,,,,,,,,,,,,,,,,,,,,,,,,,,,,,,,,,,,,,141.0,141.0,125.0,200.0,200.0,125.0,1.0,1.1,-746,287,-480,265,-222,255,616.366777420044,616.366857290268,616.3700928688049,616.3809051513672,616.5297954082489,616.5297954082489,616.5297954082489,616.5297954082489,616.5297954082489,616.5297954082489,616.5297954082489,622.9670608043671,3,6.576917409896851,None,,,,,,,,,,,,,,,,,,17,1,2025-02-18_15h02.59.538,comp,2024.2.4,56.079130823102815,2025-02-18 15h03.17.460594 -0500,
