thisN,thisTrialN,thisRepN,effect,order,distance,config,diag,h_1,w_1,h_2,w_2,h_3,w_3,rect_choice.keys,rect_choice.rt,rect_choice.duration,instructions_loop.thisRepN,instructions_loop.thisTrialN,instructions_loop.thisN,instructions_loop.thisIndex,blocks.thisRepN,blocks.thisTrialN,blocks.thisN,blocks.thisIndex,trials.thisRepN,trials.thisTrialN,trials.thisN,trials.thisIndex,thisRow.t,notes,consent.started,agree_button.started,decline_button.started,consent_img.started,mouse.started,consent.stopped,agree_button.numClicks,agree_button.timesOn,agree_button.timesOff,decline_button.numClicks,decline_button.timesOn,decline_button.timesOff,mouse.x,mouse.y,mouse.leftButton,mouse.midButton,mouse.rightButton,mouse.time,mouse.clicked_name,exp_params.started,exp_params.stopped,welcome.started,welcome_text.started,welcome.stopped,instructions_1.started,instructions_1_text_1.started,instructions_1_text_2.started,key_resp.started,instructions_1.stopped,instructions_loop.key_resp.keys,instructions_loop.key_resp.rt,instructions_loop.key_resp.duration,instructions_2.started,instructions_2_text_1.started,instructions_2_text_2.started,key_resp_2.started,instructions_2.stopped,instructions_loop.key_resp_2.keys,instructions_loop.key_resp_2.rt,instructions_loop.key_resp_2.duration,instructions_3.started,instructions_3_text_1.started,r1_instr3.started,r2_instr3.started,r3_instr3.started,r1_instr3_label.started,r2_instr3_label.started,r3_instr3_label.started,instructions_3_text_3.started,instructions_3_text_4.started,key_resp_3.started,instructions_3.stopped,instructions_loop.key_resp_3.keys,instructions_loop.key_resp_3.rt,instructions_loop.key_resp_3.duration,instructions_4.started,instructions_4_text_1.started,instructions_4_text_3.started,instructions_4_text_2.started,key_resp_4.started,instructions_4.stopped,instructions_loop.key_resp_4.keys,instructions_loop.key_resp_4.rt,instructions_loop.key_resp_4.duration,instructions_5.started,instructions_5_text_1.started,instructions_5_text_2.started,key_resp_5.started,instructions_5.stopped,instructions_loop.key_resp_5.keys,instructions_loop.key_resp_5.rt,instructions_loop.key_resp_5.duration,start_exp.started,start_exp_text.started,key_resp_6.started,start_exp.stopped,key_resp_6.keys,key_resp_6.rt,key_resp_6.duration,h_1_tmp,w_1_tmp,h_2_tmp,w_2_tmp,h_3_tmp,w_3_tmp,config_tmp,config_tmp_1,r_1_x,r_1_y,r_2_x,r_2_y,r_3_x,r_3_y,pre_trial.started,pre_trial.stopped,choice_trial.started,rect_choice.started,r_1.started,r_2.started,r_3.started,r_1_label.started,r_2_label.started,r_3_label.started,prompt.started,choice_trial.stopped,trials.rect_choice.keys,trials.rect_choice.rt,trials.rect_choice.duration,end_block.started,end_block_text.started,end_block.stopped,end.started,end_text.started,key_resp_7.started,end.stopped,key_resp_7.keys,key_resp_7.rt,key_resp_7.duration,debriefing.started,debrief_form.started,end_debrief.started,debriefing.stopped,end_debrief.keys,end_debrief.rt,end_debrief.duration,participant,computer,date,expName,psychopyVersion,frameRate,expStart,
,,,,,,,,,,,,,,,,,,,,,,,,,,,,,,,0.015695810317993164,0.0419309139251709,0.0419309139251709,0.0419309139251709,0.015082597732543945,46.342968463897705,1,[46.29988622665405],[46.29989552497864],0,,,[-74.0],[-510.0],[1],[0],[0],[46.32655906677246],['agree_button'],,,,,,,,,,,,,,,,,,,,,,,,,,,,,,,,,,,,,,,,,,,,,,,,,,,,,,,,,,,,,,,,,,,,,,,,,,,,,,,,,,,,,,,,,,,,,,,,,,,,,,,,,,,180,5,2025-03-03_11h03.25.783,comp,2024.2.4,62.9842520749209,2025-03-04 10h00.41.866884 -0500,
,,,,,,,,,,,,,,,,,,,,,,,,,,,,,,,,,,,,,,,,,,,,,,,,,,46.34324550628662,46.34327960014343,,,,,,,,,,,,,,,,,,,,,,,,,,,,,,,,,,,,,,,,,,,,,,,,,,,,,,,,,,,,,,,,,,,,,,,,,,,,,,,,,,,,,,,,,,,,,,,,,,,,,,,,,180,5,2025-03-03_11h03.25.783,comp,2024.2.4,62.9842520749209,2025-03-04 10h00.41.866884 -0500,
,,,,,,,,,,,,,,,,,,,,,,,,,,,,,,,,,,,,,,,,,,,,,,,,,,,,46.34330153465271,46.35668992996216,48.34764122962952,,,,,,,,,,,,,,,,,,,,,,,,,,,,,,,,,,,,,,,,,,,,,,,,,,,,,,,,,,,,,,,,,,,,,,,,,,,,,,,,,,,,,,,,,,,,,,,,,,,,,,180,5,2025-03-03_11h03.25.783,comp,2024.2.4,62.9842520749209,2025-03-04 10h00.41.866884 -0500,
0,0,0,,,,,,,,,,,,,,,0,0,0,0,,,,,,,,,48.364434003829956,,,,,,,,,,,,,,,,,,,,,,,,,,48.348196268081665,48.364434003829956,48.364434003829956,49.847660303115845,55.68215012550354,space,5.81706976890564,None,55.68223547935486,55.697744846343994,55.697744846343994,57.1976752281189,66.16533184051514,space,8.962596654891968,None,66.16541624069214,66.18708491325378,66.18708491325378,66.18708491325378,66.18708491325378,66.18708491325378,66.18708491325378,66.18708491325378,66.18708491325378,66.18708491325378,67.66456198692322,79.16579604148865,space,11.487772226333618,None,79.16588711738586,79.18113875389099,79.18113875389099,79.18113875389099,80.68091297149658,94.86506819725037,space,14.166882753372192,None,94.8651750087738,94.880788564682,94.880788564682,96.38065004348755,100.51518201828003,space,4.122298955917358,None,100.51529741287231,100.53055810928345,100.53055810928345,102.7320339679718,space,2.1991491317749023,None,,,,,,,,,,,,,,,,,,,,,,,,,,,,,,,,,,,,,,,,,,,,,,,180,5,2025-03-03_11h03.25.783,comp,2024.2.4,62.9842520749209,2025-03-04 10h00.41.866884 -0500,
0,0,0,filler_square,None,None,None,None,None,None,None,None,None,None,2,2.9125301837921143,None,,,,,0,0,0,0,0,0,0,181,102.79038691520691,,,,,,,,,,,,,,,,,,,,,,,,,,,,,,,,,,,,,,,,,,,,,,,,,,,,,,,,,,,,,,,,,,,,,,,,,,,,,,,,,150.22288384241546,139.75483226253942,178.12928751521378,178.12928751521378,70.56897298993104,84.01392396879439,3.0,3.1,-255,285,0,0,227,-258,102.77650332450867,102.77655124664307,102.77853512763977,102.79038691520691,102.93695425987244,102.93695425987244,102.93695425987244,102.93695425987244,102.93695425987244,102.93695425987244,102.93695425987244,105.71545553207397,2,2.9125301837921143,None,,,,,,,,,,,,,,,,,,180,5,2025-03-03_11h03.25.783,comp,2024.2.4,62.9842520749209,2025-03-04 10h00.41.866884 -0500,
1,1,0,critical,hdw,20.0,2.1,upper,200.0,125.0,141.0,141.0,125.0,200.0,3,6.884382009506226,None,,,,,0,0,0,0,0,1,1,47,105.73059749603271,,,,,,,,,,,,,,,,,,,,,,,,,,,,,,,,,,,,,,,,,,,,,,,,,,,,,,,,,,,,,,,,,,,,,,,,,,,,,,,,,200.0,125.0,141.0,141.0,125.0,200.0,2.1,2.11,-229,281,0,290,266,-265,105.71626949310303,105.7163097858429,105.71865487098694,105.73059749603271,105.88098502159119,105.88098502159119,105.88098502159119,105.88098502159119,105.88098502159119,105.88098502159119,105.88098502159119,112.63202714920044,3,6.884382009506226,None,,,,,,,,,,,,,,,,,,180,5,2025-03-03_11h03.25.783,comp,2024.2.4,62.9842520749209,2025-03-04 10h00.41.866884 -0500,
2,2,0,critical,dhw,35.0,3.0,lower,70.0,70.0,133.0,57.0,57.0,133.0,3,6.071412563323975,None,,,,,0,0,0,0,0,2,2,50,112.64733505249023,,,,,,,,,,,,,,,,,,,,,,,,,,,,,,,,,,,,,,,,,,,,,,,,,,,,,,,,,,,,,,,,,,,,,,,,,,,,,,,,,70.0,70.0,133.0,57.0,57.0,133.0,3.0,3.1,-160,271,0,12,191,-275,112.63282346725464,112.63286423683167,112.6353931427002,112.64733505249023,112.79719638824463,112.79719638824463,112.79719638824463,112.79719638824463,112.79719638824463,112.79719638824463,112.79719638824463,118.73168349266052,3,6.071412563323975,None,,,,,,,,,,,,,,,,,,180,5,2025-03-03_11h03.25.783,comp,2024.2.4,62.9842520749209,2025-03-04 10h00.41.866884 -0500,
3,3,0,filler_square,None,None,None,None,None,None,None,None,None,None,3,4.7334747314453125,None,,,,,0,0,0,0,0,3,3,188,118.74725008010864,,,,,,,,,,,,,,,,,,,,,,,,,,,,,,,,,,,,,,,,,,,,,,,,,,,,,,,,,,,,,,,,,,,,,,,,,,,,,,,,,77.56331228805838,87.55225211429402,80.45830325779436,65.03170559334238,87.91603847573822,87.91603847573822,1.0,1.1,-652,283,-480,258,-308,254,118.73265886306763,118.73270153999329,118.73515343666077,118.74725008010864,118.89716958999634,118.89716958999634,118.89716958999634,118.89716958999634,118.89716958999634,118.89716958999634,118.89716958999634,123.4983217716217,3,4.7334747314453125,None,,,,,,,,,,,,,,,,,,180,5,2025-03-03_11h03.25.783,comp,2024.2.4,62.9842520749209,2025-03-04 10h00.41.866884 -0500,
4,4,0,critical,hdw,35.0,2.1,upper,200.0,125.0,127.0,127.0,125.0,200.0,3,10.333983659744263,None,,,,,0,0,0,0,0,4,4,45,123.51375484466553,,,,,,,,,,,,,,,,,,,,,,,,,,,,,,,,,,,,,,,,,,,,,,,,,,,,,,,,,,,,,,,,,,,,,,,,,,,,,,,,,200.0,125.0,127.0,127.0,125.0,200.0,2.1,2.11,-222,279,0,271,260,-250,123.4990873336792,123.49914312362671,123.5014853477478,123.51375484466553,123.66404819488525,123.66404819488525,123.66404819488525,123.66404819488525,123.66404819488525,123.66404819488525,123.66404819488525,133.86517763137817,3,10.333983659744263,None,,,,,,,,,,,,,,,,,,180,5,2025-03-03_11h03.25.783,comp,2024.2.4,62.9842520749209,2025-03-04 10h00.41.866884 -0500,
5,5,0,filler_random,None,None,None,None,None,None,None,None,None,None,3,4.632453680038452,None,,,,,0,0,0,0,0,5,5,160,133.88046526908875,,,,,,,,,,,,,,,,,,,,,,,,,,,,,,,,,,,,,,,,,,,,,,,,,,,,,,,,,,,,,,,,,,,,,,,,,,,,,,,,,122.01596155592055,63.78633941067374,116.27180081534036,117.51211202747058,121.46269201843953,165.63862685528358,3.0,3.2,-187,-257,0,8,238,289,133.86608719825745,133.86614274978638,133.86821484565735,133.88046526908875,134.03062653541565,134.03062653541565,134.03062653541565,134.03062653541565,134.03062653541565,134.03062653541565,134.03062653541565,138.5150556564331,3,4.632453680038452,None,,,,,,,,,,,,,,,,,,180,5,2025-03-03_11h03.25.783,comp,2024.2.4,62.9842520749209,2025-03-04 10h00.41.866884 -0500,
6,6,0,critical,whd,20.0,2.1,lower,57.0,133.0,133.0,57.0,78.0,78.0,2,7.5167834758758545,None,,,,,0,0,0,0,0,6,6,14,138.53057479858398,,,,,,,,,,,,,,,,,,,,,,,,,,,,,,,,,,,,,,,,,,,,,,,,,,,,,,,,,,,,,,,,,,,,,,,,,,,,,,,,,57.0,133.0,133.0,57.0,78.0,78.0,2.1,2.11,-191,263,0,287,164,-265,138.5158498287201,138.5158929824829,138.51802396774292,138.53057479858398,138.68054938316345,138.68054938316345,138.68054938316345,138.68054938316345,138.68054938316345,138.68054938316345,138.68054938316345,146.0649642944336,2,7.5167834758758545,None,,,,,,,,,,,,,,,,,,180,5,2025-03-03_11h03.25.783,comp,2024.2.4,62.9842520749209,2025-03-04 10h00.41.866884 -0500,
7,7,0,critical,dwh,35.0,2.1,upper,127.0,127.0,125.0,200.0,200.0,125.0,2,9.175186157226562,None,,,,,0,0,0,0,0,7,7,29,146.08036541938782,,,,,,,,,,,,,,,,,,,,,,,,,,,,,,,,,,,,,,,,,,,,,,,,,,,,,,,,,,,,,,,,,,,,,,,,,,,,,,,,,127.0,127.0,125.0,200.0,200.0,125.0,2.1,2.12,-260,-285,0,-287,258,265,146.06576681137085,146.06580901145935,146.06790804862976,146.08036541938782,146.23068928718567,146.23068928718567,146.23068928718567,146.23068928718567,146.23068928718567,146.23068928718567,146.23068928718567,155.26507925987244,2,9.175186157226562,None,,,,,,,,,,,,,,,,,,180,5,2025-03-03_11h03.25.783,comp,2024.2.4,62.9842520749209,2025-03-04 10h00.41.866884 -0500,
8,8,0,critical,dhw,20.0,2.1,upper,141.0,141.0,200.0,125.0,125.0,200.0,3,11.648471355438232,None,,,,,0,0,0,0,0,8,8,3,155.2805473804474,,,,,,,,,,,,,,,,,,,,,,,,,,,,,,,,,,,,,,,,,,,,,,,,,,,,,,,,,,,,,,,,,,,,,,,,,,,,,,,,,141.0,141.0,200.0,125.0,125.0,200.0,2.1,2.12,-229,-265,0,-280,258,274,155.26588559150696,155.26592826843262,155.268248796463,155.2805473804474,155.43049025535583,155.43049025535583,155.43049025535583,155.43049025535583,155.43049025535583,155.43049025535583,155.43049025535583,166.9317123889923,3,11.648471355438232,None,,,,,,,,,,,,,,,,,,180,5,2025-03-03_11h03.25.783,comp,2024.2.4,62.9842520749209,2025-03-04 10h00.41.866884 -0500,
9,9,0,critical,dwh,35.0,4.0,upper,127.0,127.0,125.0,200.0,200.0,125.0,2,3.366060733795166,None,,,,,0,0,0,0,0,9,9,65,166.94711923599243,,,,,,,,,,,,,,,,,,,,,,,,,,,,,,,,,,,,,,,,,,,,,,,,,,,,,,,,,,,,,,,,,,,,,,,,,,,,,,,,,127.0,127.0,125.0,200.0,200.0,125.0,4.0,4.1,-260,-280,0,0,258,-256,166.9325029850006,166.93254494667053,166.93461513519287,166.94711923599243,167.0970582962036,167.0970582962036,167.0970582962036,167.0970582962036,167.0970582962036,167.0970582962036,167.0970582962036,170.3151273727417,2,3.366060733795166,None,,,,,,,,,,,,,,,,,,180,5,2025-03-03_11h03.25.783,comp,2024.2.4,62.9842520749209,2025-03-04 10h00.41.866884 -0500,
10,10,0,catch,None,None,None,None,None,None,None,None,None,None,1,2.108968734741211,None,,,,,0,0,0,0,0,10,10,122,170.33049297332764,,,,,,,,,,,,,,,,,,,,,,,,,,,,,,,,,,,,,,,,,,,,,,,,,,,,,,,,,,,,,,,,,,,,,,,,,,,,,,,,,189,136,80,110,132,58,1.0,1.1,-699,259,-480,284,-300,259,170.31615471839905,170.31619834899902,170.3183114528656,170.33049297332764,170.48036074638367,170.48036074638367,170.48036074638367,170.48036074638367,170.48036074638367,170.48036074638367,170.48036074638367,172.4480438232422,1,2.108968734741211,None,,,,,,,,,,,,,,,,,,180,5,2025-03-03_11h03.25.783,comp,2024.2.4,62.9842520749209,2025-03-04 10h00.41.866884 -0500,
11,11,0,critical,whd,20.0,4.0,lower,57.0,133.0,133.0,57.0,78.0,78.0,1,4.566827058792114,None,,,,,0,0,0,0,0,11,11,94,172.4636766910553,,,,,,,,,,,,,,,,,,,,,,,,,,,,,,,,,,,,,,,,,,,,,,,,,,,,,,,,,,,,,,,,,,,,,,,,,,,,,,,,,57.0,133.0,133.0,57.0,78.0,78.0,4.0,4.1,-191,-275,0,7,164,-255,172.4488501548767,172.44889283180237,172.45108938217163,172.4636766910553,172.61365175247192,172.61365175247192,172.61365175247192,172.61365175247192,172.61365175247192,172.61365175247192,172.61365175247192,177.0479278564453,1,4.566827058792114,None,,,,,,,,,,,,,,,,,,180,5,2025-03-03_11h03.25.783,comp,2024.2.4,62.9842520749209,2025-03-04 10h00.41.866884 -0500,
12,12,0,critical,dhw,20.0,1.0,upper,141.0,141.0,200.0,125.0,125.0,200.0,2,2.487182378768921,None,,,,,0,0,0,0,0,12,12,55,177.0633807182312,,,,,,,,,,,,,,,,,,,,,,,,,,,,,,,,,,,,,,,,,,,,,,,,,,,,,,,,,,,,,,,,,,,,,,,,,,,,,,,,,141.0,141.0,200.0,125.0,125.0,200.0,1.0,1.1,-709,251,-480,288,-222,267,177.04872703552246,177.04876947402954,177.05128145217896,177.0633807182312,177.2138261795044,177.2138261795044,177.2138261795044,177.2138261795044,177.2138261795044,177.2138261795044,177.2138261795044,179.5649573802948,2,2.487182378768921,None,,,,,,,,,,,,,,,,,,180,5,2025-03-03_11h03.25.783,comp,2024.2.4,62.9842520749209,2025-03-04 10h00.41.866884 -0500,
13,13,0,filler_random,None,None,None,None,None,None,None,None,None,None,3,2.4343953132629395,None,,,,,0,0,0,0,0,13,13,148,179.58014678955078,,,,,,,,,,,,,,,,,,,,,,,,,,,,,,,,,,,,,,,,,,,,,,,,,,,,,,,,,,,,,,,,,,,,,,,,,,,,,,,,,63.400473088813975,89.07852308543319,149.21214061738232,77.10031279650323,175.2250319099315,122.45962983115561,2.2,2.21,-179,-278,0,270,196,250,179.56586384773254,179.56590723991394,179.56839752197266,179.58014678955078,179.73041081428528,179.73041081428528,179.73041081428528,179.73041081428528,179.73041081428528,179.73041081428528,179.73041081428528,182.03130865097046,3,2.4343953132629395,None,,,,,,,,,,,,,,,,,,180,5,2025-03-03_11h03.25.783,comp,2024.2.4,62.9842520749209,2025-03-04 10h00.41.866884 -0500,
14,14,0,filler_square,None,None,None,None,None,None,None,None,None,None,2,10.855589389801025,None,,,,,0,0,0,0,0,14,14,174,182.04672074317932,,,,,,,,,,,,,,,,,,,,,,,,,,,,,,,,,,,,,,,,,,,,,,,,,,,,,,,,,,,,,,,,,,,,,,,,,,,,,,,,,59.57224791952906,58.346939647508144,63.35331760525634,63.35331760525634,61.32982816365821,60.85387506148119,3.0,3.1,-157,269,0,-13,158,-260,182.03225779533386,182.03230023384094,182.03470945358276,182.04672074317932,182.1968216896057,182.1968216896057,182.1968216896057,182.1968216896057,182.1968216896057,182.1968216896057,182.1968216896057,192.9147276878357,2,10.855589389801025,None,,,,,,,,,,,,,,,,,,180,5,2025-03-03_11h03.25.783,comp,2024.2.4,62.9842520749209,2025-03-04 10h00.41.866884 -0500,
15,15,0,critical,hdw,35.0,2.1,upper,200.0,125.0,127.0,127.0,125.0,200.0,3,17.566976308822632,None,,,,,0,0,0,0,0,15,15,21,192.92992854118347,,,,,,,,,,,,,,,,,,,,,,,,,,,,,,,,,,,,,,,,,,,,,,,,,,,,,,,,,,,,,,,,,,,,,,,,,,,,,,,,,200.0,125.0,127.0,127.0,125.0,200.0,2.1,2.11,-222,274,0,267,260,-275,192.91553020477295,192.91557097434998,192.9180142879486,192.92992854118347,193.08024263381958,193.08024263381958,193.08024263381958,193.08024263381958,193.08024263381958,193.08024263381958,193.08024263381958,210.4983685016632,3,17.566976308822632,None,,,,,,,,,,,,,,,,,,180,5,2025-03-03_11h03.25.783,comp,2024.2.4,62.9842520749209,2025-03-04 10h00.41.866884 -0500,
16,16,0,critical,hwd,35.0,2.1,upper,200.0,125.0,125.0,200.0,127.0,127.0,1,6.630438804626465,None,,,,,0,0,0,0,0,16,16,41,210.51349925994873,,,,,,,,,,,,,,,,,,,,,,,,,,,,,,,,,,,,,,,,,,,,,,,,,,,,,,,,,,,,,,,,,,,,,,,,,,,,,,,,,200.0,125.0,125.0,200.0,127.0,127.0,2.1,2.12,-258,-280,0,-276,260,282,210.499165058136,210.49920773506165,210.50127983093262,210.51349925994873,210.66355299949646,210.66355299949646,210.66355299949646,210.66355299949646,210.66355299949646,210.66355299949646,210.66355299949646,217.14834785461426,1,6.630438804626465,None,,,,,,,,,,,,,,,,,,180,5,2025-03-03_11h03.25.783,comp,2024.2.4,62.9842520749209,2025-03-04 10h00.41.866884 -0500,
17,17,0,critical,dhw,20.0,4.0,lower,78.0,78.0,133.0,57.0,57.0,133.0,2,5.571170806884766,None,,,,,0,0,0,0,0,17,17,58,217.16337656974792,,,,,,,,,,,,,,,,,,,,,,,,,,,,,,,,,,,,,,,,,,,,,,,,,,,,,,,,,,,,,,,,,,,,,,,,,,,,,,,,,78.0,78.0,133.0,57.0,57.0,133.0,4.0,4.1,-164,-266,0,12,191,-283,217.14924454689026,217.1492874622345,217.1514265537262,217.16337656974792,217.3132302761078,217.3132302761078,217.3132302761078,217.3132302761078,217.3132302761078,217.3132302761078,217.3132302761078,222.74783158302307,2,5.571170806884766,None,,,,,,,,,,,,,,,,,,180,5,2025-03-03_11h03.25.783,comp,2024.2.4,62.9842520749209,2025-03-04 10h00.41.866884 -0500,
18,18,0,filler_random,None,None,None,None,None,None,None,None,None,None,1,5.8191492557525635,None,,,,,0,0,0,0,0,18,18,141,222.7630491256714,,,,,,,,,,,,,,,,,,,,,,,,,,,,,,,,,,,,,,,,,,,,,,,,,,,,,,,,,,,,,,,,,,,,,,,,,,,,,,,,,197.13854615814915,86.36991971554701,68.60666133618807,103.69337699796606,156.07127299847627,62.54507744027498,3.0,3.2,-191,-271,0,0,179,288,222.7487609386444,222.7488031387329,222.75124049186707,222.7630491256714,222.91329383850098,222.91329383850098,222.91329383850098,222.91329383850098,222.91329383850098,222.91329383850098,222.91329383850098,228.59777879714966,1,5.8191492557525635,None,,,,,,,,,,,,,,,,,,180,5,2025-03-03_11h03.25.783,comp,2024.2.4,62.9842520749209,2025-03-04 10h00.41.866884 -0500,
19,19,0,critical,dwh,20.0,2.1,upper,141.0,141.0,125.0,200.0,200.0,125.0,2,3.12135648727417,None,,,,,0,0,0,0,0,19,19,7,228.61314511299133,,,,,,,,,,,,,,,,,,,,,,,,,,,,,,,,,,,,,,,,,,,,,,,,,,,,,,,,,,,,,,,,,,,,,,,,,,,,,,,,,141.0,141.0,125.0,200.0,200.0,125.0,2.1,2.12,-266,-254,0,-267,258,258,228.59859538078308,228.59863948822021,228.60107898712158,228.61314511299133,228.7634253501892,228.7634253501892,228.7634253501892,228.7634253501892,228.7634253501892,228.7634253501892,228.7634253501892,231.74815797805786,2,3.12135648727417,None,,,,,,,,,,,,,,,,,,180,5,2025-03-03_11h03.25.783,comp,2024.2.4,62.9842520749209,2025-03-04 10h00.41.866884 -0500,
20,20,0,filler_random,None,None,None,None,None,None,None,None,None,None,1,3.0029876232147217,None,,,,,0,0,0,0,0,20,20,159,231.76315259933472,,,,,,,,,,,,,,,,,,,,,,,,,,,,,,,,,,,,,,,,,,,,,,,,,,,,,,,,,,,,,,,,,,,,,,,,,,,,,,,,,100.4675038384508,172.51665323317553,98.3899879185141,76.93290381625452,139.0934463615601,79.59547876082763,2.1,2.12,-221,-272,0,-265,174,253,231.74908304214478,231.74914050102234,231.75120949745178,231.76315259933472,231.91322898864746,231.91322898864746,231.91322898864746,231.91322898864746,231.91322898864746,231.91322898864746,231.91322898864746,234.78095364570618,1,3.0029876232147217,None,,,,,,,,,,,,,,,,,,180,5,2025-03-03_11h03.25.783,comp,2024.2.4,62.9842520749209,2025-03-04 10h00.41.866884 -0500,
21,21,0,critical,dhw,20.0,2.1,upper,141.0,141.0,200.0,125.0,125.0,200.0,3,2.8837621212005615,None,,,,,0,0,0,0,0,21,21,27,234.7963466644287,,,,,,,,,,,,,,,,,,,,,,,,,,,,,,,,,,,,,,,,,,,,,,,,,,,,,,,,,,,,,,,,,,,,,,,,,,,,,,,,,141.0,141.0,200.0,125.0,125.0,200.0,2.1,2.11,-229,271,0,273,258,-255,234.78177046775818,234.78181171417236,234.78402137756348,234.7963466644287,234.9466323852539,234.9466323852539,234.9466323852539,234.9466323852539,234.9466323852539,234.9466323852539,234.9466323852539,237.69779014587402,3,2.8837621212005615,None,,,,,,,,,,,,,,,,,,180,5,2025-03-03_11h03.25.783,comp,2024.2.4,62.9842520749209,2025-03-04 10h00.41.866884 -0500,
22,22,0,filler_random,None,None,None,None,None,None,None,None,None,None,2,4.821316480636597,None,,,,,0,0,0,0,0,22,22,138,237.71304774284363,,,,,,,,,,,,,,,,,,,,,,,,,,,,,,,,,,,,,,,,,,,,,,,,,,,,,,,,,,,,,,,,,,,,,,,,,,,,,,,,,75.7258595072171,186.88155938080195,194.97748934038623,99.13555924007693,66.73490624937838,84.65196451409038,1.0,1.1,-719,254,-480,289,-292,289,237.69870018959045,237.6987442970276,237.70123291015625,237.71304774284363,237.86334037780762,237.86334037780762,237.86334037780762,237.86334037780762,237.86334037780762,237.86334037780762,237.86334037780762,242.54777598381042,2,4.821316480636597,None,,,,,,,,,,,,,,,,,,180,5,2025-03-03_11h03.25.783,comp,2024.2.4,62.9842520749209,2025-03-04 10h00.41.866884 -0500,
23,23,0,filler_square,None,None,None,None,None,None,None,None,None,None,1,3.1868929862976074,None,,,,,0,0,0,0,0,23,23,209,242.56303572654724,,,,,,,,,,,,,,,,,,,,,,,,,,,,,,,,,,,,,,,,,,,,,,,,,,,,,,,,,,,,,,,,,,,,,,,,,,,,,,,,,176.58966253610424,176.58966253610424,155.18147991093153,117.05984568361237,145.32984396305488,58.504578861297915,3.0,3.2,-243,-259,0,19,184,271,242.5487232208252,242.54876589775085,242.55122113227844,242.56303572654724,242.71327018737793,242.71327018737793,242.71327018737793,242.71327018737793,242.71327018737793,242.71327018737793,242.71327018737793,245.76433157920837,1,3.1868929862976074,None,,,,,,,,,,,,,,,,,,180,5,2025-03-03_11h03.25.783,comp,2024.2.4,62.9842520749209,2025-03-04 10h00.41.866884 -0500,
24,24,0,critical,whd,35.0,1.0,upper,125.0,200.0,200.0,125.0,127.0,127.0,2,11.034343719482422,None,,,,,0,0,0,0,0,24,24,85,245.779541015625,,,,,,,,,,,,,,,,,,,,,,,,,,,,,,,,,,,,,,,,,,,,,,,,,,,,,,,,,,,,,,,,,,,,,,,,,,,,,,,,,125.0,200.0,200.0,125.0,127.0,127.0,1.0,1.1,-738,286,-480,269,-258,252,245.7651400566101,245.7651813030243,245.76748061180115,245.779541015625,245.92989039421082,245.92989039421082,245.92989039421082,245.92989039421082,245.92989039421082,245.92989039421082,245.92989039421082,256.8309133052826,2,11.034343719482422,None,,,,,,,,,,,,,,,,,,180,5,2025-03-03_11h03.25.783,comp,2024.2.4,62.9842520749209,2025-03-04 10h00.41.866884 -0500,
25,25,0,critical,whd,35.0,2.1,lower,57.0,133.0,133.0,57.0,70.0,70.0,2,13.50465178489685,None,,,,,0,0,0,0,0,25,25,36,256.84621238708496,,,,,,,,,,,,,,,,,,,,,,,,,,,,,,,,,,,,,,,,,,,,,,,,,,,,,,,,,,,,,,,,,,,,,,,,,,,,,,,,,57.0,133.0,133.0,57.0,70.0,70.0,2.1,2.12,-191,-255,0,-262,160,270,256.8317542076111,256.83179545402527,256.8343279361725,256.84621238708496,256.996395111084,256.996395111084,256.996395111084,256.996395111084,256.996395111084,256.996395111084,256.996395111084,270.36404824256897,2,13.50465178489685,None,,,,,,,,,,,,,,,,,,180,5,2025-03-03_11h03.25.783,comp,2024.2.4,62.9842520749209,2025-03-04 10h00.41.866884 -0500,
26,26,0,filler_random,None,None,None,None,None,None,None,None,None,None,2,2.411055564880371,None,,,,,0,0,0,0,0,26,26,150,270.3794734477997,,,,,,,,,,,,,,,,,,,,,,,,,,,,,,,,,,,,,,,,,,,,,,,,,,,,,,,,,,,,,,,,,,,,,,,,,,,,,,,,,92.83108782000116,169.37295208684134,193.17136451204735,128.7021889755772,156.01576338718388,60.611277912810664,2.1,2.12,-245,-261,0,-287,191,269,270.36496353149414,270.3650059700012,270.36754846572876,270.3794734477997,270.5296411514282,270.5296411514282,270.5296411514282,270.5296411514282,270.5296411514282,270.5296411514282,270.5296411514282,272.79747557640076,2,2.411055564880371,None,,,,,,,,,,,,,,,,,,180,5,2025-03-03_11h03.25.783,comp,2024.2.4,62.9842520749209,2025-03-04 10h00.41.866884 -0500,
27,27,0,critical,dwh,20.0,2.1,upper,141.0,141.0,125.0,200.0,200.0,125.0,2,4.168699026107788,None,,,,,0,0,0,0,0,27,27,31,272.81303882598877,,,,,,,,,,,,,,,,,,,,,,,,,,,,,,,,,,,,,,,,,,,,,,,,,,,,,,,,,,,,,,,,,,,,,,,,,,,,,,,,,141.0,141.0,125.0,200.0,200.0,125.0,2.1,2.12,-266,-263,0,-271,258,279,272.79827332496643,272.7983157634735,272.80039715766907,272.81303882598877,272.96314668655396,272.96314668655396,272.96314668655396,272.96314668655396,272.96314668655396,272.96314668655396,272.96314668655396,276.99759793281555,2,4.168699026107788,None,,,,,,,,,,,,,,,,,,180,5,2025-03-03_11h03.25.783,comp,2024.2.4,62.9842520749209,2025-03-04 10h00.41.866884 -0500,
28,28,0,filler_square,None,None,None,None,None,None,None,None,None,None,3,2.794123649597168,None,,,,,0,0,0,0,0,28,28,191,277.01277112960815,,,,,,,,,,,,,,,,,,,,,,,,,,,,,,,,,,,,,,,,,,,,,,,,,,,,,,,,,,,,,,,,,,,,,,,,,,,,,,,,,76.76618687232451,61.528102741131015,82.9282999453988,83.9900636252664,101.12647959056041,101.12647959056041,1.0,1.2,-169,16,0,10,189,14,276.9985508918762,276.9985933303833,277.00069975852966,277.01277112960815,277.1629014015198,277.1629014015198,277.1629014015198,277.1629014015198,277.1629014015198,277.1629014015198,277.1629014015198,279.81393909454346,3,2.794123649597168,None,,,,,,,,,,,,,,,,,,180,5,2025-03-03_11h03.25.783,comp,2024.2.4,62.9842520749209,2025-03-04 10h00.41.866884 -0500,
29,29,0,critical,hdw,20.0,3.0,lower,133.0,57.0,78.0,78.0,57.0,133.0,1,5.682193040847778,None,,,,,0,0,0,0,0,29,29,116,279.829628944397,,,,,,,,,,,,,,,,,,,,,,,,,,,,,,,,,,,,,,,,,,,,,,,,,,,,,,,,,,,,,,,,,,,,,,,,,,,,,,,,,133.0,57.0,78.0,78.0,57.0,133.0,3.0,3.2,-164,-257,0,14,202,259,279.8147146701813,279.8147568702698,279.8173062801361,279.829628944397,279.97947788238525,279.97947788238525,279.97947788238525,279.97947788238525,279.97947788238525,279.97947788238525,279.97947788238525,285.51397919654846,1,5.682193040847778,None,,,,,,,,,,,,,,,,,,180,5,2025-03-03_11h03.25.783,comp,2024.2.4,62.9842520749209,2025-03-04 10h00.41.866884 -0500,
30,30,0,critical,dwh,35.0,3.0,upper,127.0,127.0,125.0,200.0,200.0,125.0,2,6.221022367477417,None,,,,,0,0,0,0,0,30,30,63,285.5295515060425,,,,,,,,,,,,,,,,,,,,,,,,,,,,,,,,,,,,,,,,,,,,,,,,,,,,,,,,,,,,,,,,,,,,,,,,,,,,,,,,,127.0,127.0,125.0,200.0,200.0,125.0,3.0,3.2,-260,-273,0,10,258,283,285.5147843360901,285.5148265361786,285.5170741081238,285.5295515060425,285.6795816421509,285.6795816421509,285.6795816421509,285.6795816421509,285.6795816421509,285.6795816421509,285.6795816421509,291.76423811912537,2,6.221022367477417,None,,,,,,,,,,,,,,,,,,180,5,2025-03-03_11h03.25.783,comp,2024.2.4,62.9842520749209,2025-03-04 10h00.41.866884 -0500,
31,31,0,critical,dhw,35.0,1.0,lower,70.0,70.0,133.0,57.0,57.0,133.0,2,5.186594247817993,None,,,,,0,0,0,0,0,31,31,48,291.77921056747437,,,,,,,,,,,,,,,,,,,,,,,,,,,,,,,,,,,,,,,,,,,,,,,,,,,,,,,,,,,,,,,,,,,,,,,,,,,,,,,,,70.0,70.0,133.0,57.0,57.0,133.0,1.0,1.1,-640,272,-480,261,-289,284,291.7650008201599,291.76504135131836,291.76702523231506,291.77921056747437,291.9293828010559,291.9293828010559,291.9293828010559,291.9293828010559,291.9293828010559,291.9293828010559,291.9293828010559,296.9804775714874,2,5.186594247817993,None,,,,,,,,,,,,,,,,,,180,5,2025-03-03_11h03.25.783,comp,2024.2.4,62.9842520749209,2025-03-04 10h00.41.866884 -0500,
32,32,0,critical,whd,20.0,3.0,lower,57.0,133.0,133.0,57.0,78.0,78.0,2,3.531848669052124,None,,,,,0,0,0,0,0,32,32,92,296.9960460662842,,,,,,,,,,,,,,,,,,,,,,,,,,,,,,,,,,,,,,,,,,,,,,,,,,,,,,,,,,,,,,,,,,,,,,,,,,,,,,,,,57.0,133.0,133.0,57.0,78.0,78.0,3.0,3.2,-191,-274,0,-19,164,251,296.98126435279846,296.98130536079407,296.9836628437042,296.9960460662842,297.1460111141205,297.1460111141205,297.1460111141205,297.1460111141205,297.1460111141205,297.1460111141205,297.1460111141205,300.5306031703949,2,3.531848669052124,None,,,,,,,,,,,,,,,,,,180,5,2025-03-03_11h03.25.783,comp,2024.2.4,62.9842520749209,2025-03-04 10h00.41.866884 -0500,
33,33,0,filler_square,None,None,None,None,None,None,None,None,None,None,1,3.61232328414917,None,,,,,0,0,0,0,0,33,33,206,300.54610896110535,,,,,,,,,,,,,,,,,,,,,,,,,,,,,,,,,,,,,,,,,,,,,,,,,,,,,,,,,,,,,,,,,,,,,,,,,,,,,,,,,127.07317903806894,127.07317903806894,70.88347687724615,100.1000673952522,98.51638496178185,115.1845009650034,2.1,2.12,-210,-256,0,-287,204,269,300.531574010849,300.53161692619324,300.53364658355713,300.54610896110535,300.6959261894226,300.6959261894226,300.6959261894226,300.6959261894226,300.6959261894226,300.6959261894226,300.6959261894226,304.1639471054077,1,3.61232328414917,None,,,,,,,,,,,,,,,,,,180,5,2025-03-03_11h03.25.783,comp,2024.2.4,62.9842520749209,2025-03-04 10h00.41.866884 -0500,
34,34,0,filler_square,None,None,None,None,None,None,None,None,None,None,3,4.9327826499938965,None,,,,,0,0,0,0,0,34,34,202,304.1794264316559,,,,,,,,,,,,,,,,,,,,,,,,,,,,,,,,,,,,,,,,,,,,,,,,,,,,,,,,,,,,,,,,,,,,,,,,,,,,,,,,,87.3182238187108,104.04815536895805,59.734962030132195,114.85989741650769,126.43170034392078,126.43170034392078,2.2,2.22,-205,288,0,-264,217,-269,304.16488885879517,304.1649293899536,304.1674153804779,304.1794264316559,304.3292908668518,304.3292908668518,304.3292908668518,304.3292908668518,304.3292908668518,304.3292908668518,304.3292908668518,309.13045358657837,3,4.9327826499938965,None,,,,,,,,,,,,,,,,,,180,5,2025-03-03_11h03.25.783,comp,2024.2.4,62.9842520749209,2025-03-04 10h00.41.866884 -0500,
35,35,0,catch,None,None,None,None,None,None,None,None,None,None,2,1.4682223796844482,None,,,,,0,0,0,0,0,35,35,121,309.14621114730835,,,,,,,,,,,,,,,,,,,,,,,,,,,,,,,,,,,,,,,,,,,,,,,,,,,,,,,,,,,,,,,,,,,,,,,,,,,,,,,,,77,113,135,190,86,104,3.0,3.2,-248,-251,0,-12,243,256,309.13147830963135,309.13152170181274,309.1336467266083,309.14621114730835,309.29591178894043,309.29591178894043,309.29591178894043,309.29591178894043,309.29591178894043,309.29591178894043,309.29591178894043,310.63044452667236,2,1.4682223796844482,None,,,,,,,,,,,,,,,,,,180,5,2025-03-03_11h03.25.783,comp,2024.2.4,62.9842520749209,2025-03-04 10h00.41.866884 -0500,
36,36,0,critical,dhw,20.0,4.0,upper,141.0,141.0,200.0,125.0,125.0,200.0,3,4.944518327713013,None,,,,,0,0,0,0,0,36,36,59,310.64581203460693,,,,,,,,,,,,,,,,,,,,,,,,,,,,,,,,,,,,,,,,,,,,,,,,,,,,,,,,,,,,,,,,,,,,,,,,,,,,,,,,,141.0,141.0,200.0,125.0,125.0,200.0,4.0,4.2,-229,-3,0,-271,258,6,310.63124108314514,310.6312837600708,310.63365364074707,310.64581203460693,310.7961423397064,310.7961423397064,310.7961423397064,310.7961423397064,310.7961423397064,310.7961423397064,310.7961423397064,315.5972104072571,3,4.944518327713013,None,,,,,,,,,,,,,,,,,,180,5,2025-03-03_11h03.25.783,comp,2024.2.4,62.9842520749209,2025-03-04 10h00.41.866884 -0500,
37,37,0,critical,hwd,20.0,4.0,upper,200.0,125.0,125.0,200.0,141.0,141.0,2,5.617029428482056,None,,,,,0,0,0,0,0,37,37,107,315.61273312568665,,,,,,,,,,,,,,,,,,,,,,,,,,,,,,,,,,,,,,,,,,,,,,,,,,,,,,,,,,,,,,,,,,,,,,,,,,,,,,,,,200.0,125.0,125.0,200.0,141.0,141.0,4.0,4.2,-258,8,0,-266,266,-9,315.59799885749817,315.5980398654938,315.6001489162445,315.61273312568665,315.7628026008606,315.7628026008606,315.7628026008606,315.7628026008606,315.7628026008606,315.7628026008606,315.7628026008606,321.24727869033813,2,5.617029428482056,None,,,,,,,,,,,,,,,,,,180,5,2025-03-03_11h03.25.783,comp,2024.2.4,62.9842520749209,2025-03-04 10h00.41.866884 -0500,
38,38,0,filler_random,None,None,None,None,None,None,None,None,None,None,2,4.518999814987183,None,,,,,0,0,0,0,0,38,38,152,321.26240491867065,,,,,,,,,,,,,,,,,,,,,,,,,,,,,,,,,,,,,,,,,,,,,,,,,,,,,,,,,,,,,,,,,,,,,,,,,,,,,,,,,69.54434352908484,122.18675976629292,136.7786583987454,142.78052622320598,112.07991090347593,130.84551657054055,4.0,4.1,-228,-268,0,-12,233,-257,321.2481791973114,321.24822092056274,321.2502908706665,321.26240491867065,321.412650346756,321.412650346756,321.412650346756,321.412650346756,321.412650346756,321.412650346756,321.412650346756,325.7969403266907,2,4.518999814987183,None,,,,,,,,,,,,,,,,,,180,5,2025-03-03_11h03.25.783,comp,2024.2.4,62.9842520749209,2025-03-04 10h00.41.866884 -0500,
39,39,0,filler_random,None,None,None,None,None,None,None,None,None,None,1,5.553312540054321,None,,,,,0,0,0,0,0,39,39,144,325.8123393058777,,,,,,,,,,,,,,,,,,,,,,,,,,,,,,,,,,,,,,,,,,,,,,,,,,,,,,,,,,,,,,,,,,,,,,,,,,,,,,,,,165.99761140121558,193.24893881071048,60.990280911742424,160.9483819736382,174.2980431003857,190.04443046878842,1.0,1.2,-273,-4,0,-17,271,-18,325.79783034324646,325.7978723049164,325.8003931045532,325.8123393058777,325.9627265930176,325.9627265930176,325.9627265930176,325.9627265930176,325.9627265930176,325.9627265930176,325.9627265930176,331.38041400909424,1,5.553312540054321,None,,,,,,,,,,,,,,,,,,180,5,2025-03-03_11h03.25.783,comp,2024.2.4,62.9842520749209,2025-03-04 10h00.41.866884 -0500,
40,40,0,filler_random,None,None,None,None,None,None,None,None,None,None,2,2.0583577156066895,None,,,,,0,0,0,0,0,40,40,143,331.3957989215851,,,,,,,,,,,,,,,,,,,,,,,,,,,,,,,,,,,,,,,,,,,,,,,,,,,,,,,,,,,,,,,,,,,,,,,,,,,,,,,,,89.21507197441443,199.3425352368823,169.43450517800076,130.39236096172857,72.93870247118882,103.82140386514996,1.0,1.2,-261,-14,0,9,213,0,331.3813042640686,331.38134694099426,331.3845810890198,331.3957989215851,331.5459303855896,331.5459303855896,331.5459303855896,331.5459303855896,331.5459303855896,331.5459303855896,331.5459303855896,333.4637372493744,2,2.0583577156066895,None,,,,,,,,,,,,,,,,,,180,5,2025-03-03_11h03.25.783,comp,2024.2.4,62.9842520749209,2025-03-04 10h00.41.866884 -0500,
41,41,0,filler_square,None,None,None,None,None,None,None,None,None,None,1,11.318180084228516,None,,,,,0,0,0,0,0,41,41,201,333.4792766571045,,,,,,,,,,,,,,,,,,,,,,,,,,,,,,,,,,,,,,,,,,,,,,,,,,,,,,,,,,,,,,,,,,,,,,,,,,,,,,,,,97.84488251093003,97.84488251093003,70.82981647698062,70.74568722497315,83.6874416424181,88.53781756877646,2.1,2.11,-180,274,0,277,176,-256,333.46470379829407,333.46474719047546,333.46721482276917,333.4792766571045,333.62904477119446,333.62904477119446,333.62904477119446,333.62904477119446,333.62904477119446,333.62904477119446,333.62904477119446,344.8134410381317,1,11.318180084228516,None,,,,,,,,,,,,,,,,,,180,5,2025-03-03_11h03.25.783,comp,2024.2.4,62.9842520749209,2025-03-04 10h00.41.866884 -0500,
42,42,0,filler_random,None,None,None,None,None,None,None,None,None,None,1,1.9523887634277344,None,,,,,0,0,0,0,0,42,42,164,344.82882356643677,,,,,,,,,,,,,,,,,,,,,,,,,,,,,,,,,,,,,,,,,,,,,,,,,,,,,,,,,,,,,,,,,,,,,,,,,,,,,,,,,189.49924891102708,91.36537815554381,149.20477501270406,61.24273903664327,84.033191138097,159.55806460183425,1.0,1.3,308,-259,480,-250,686,-273,344.81434631347656,344.8143889904022,344.81647849082947,344.82882356643677,344.9790813922882,344.9790813922882,344.9790813922882,344.9790813922882,344.9790813922882,344.9790813922882,344.9790813922882,346.7970907688141,1,1.9523887634277344,None,,,,,,,,,,,,,,,,,,180,5,2025-03-03_11h03.25.783,comp,2024.2.4,62.9842520749209,2025-03-04 10h00.41.866884 -0500,
43,43,0,critical,whd,35.0,4.0,lower,57.0,133.0,133.0,57.0,70.0,70.0,1,3.400973081588745,None,,,,,0,0,0,0,0,43,43,88,346.81234526634216,,,,,,,,,,,,,,,,,,,,,,,,,,,,,,,,,,,,,,,,,,,,,,,,,,,,,,,,,,,,,,,,,,,,,,,,,,,,,,,,,57.0,133.0,133.0,57.0,70.0,70.0,4.0,4.2,-191,19,0,-250,160,9,346.7978913784027,346.7979328632355,346.80041217803955,346.81234526634216,346.9624102115631,346.9624102115631,346.9624102115631,346.9624102115631,346.9624102115631,346.9624102115631,346.9624102115631,350.2300658226013,1,3.400973081588745,None,,,,,,,,,,,,,,,,,,180,5,2025-03-03_11h03.25.783,comp,2024.2.4,62.9842520749209,2025-03-04 10h00.41.866884 -0500,
44,44,0,critical,dhw,20.0,3.0,lower,78.0,78.0,133.0,57.0,57.0,133.0,3,5.392319679260254,None,,,,,0,0,0,0,0,44,44,56,350.24569368362427,,,,,,,,,,,,,,,,,,,,,,,,,,,,,,,,,,,,,,,,,,,,,,,,,,,,,,,,,,,,,,,,,,,,,,,,,,,,,,,,,78.0,78.0,133.0,57.0,57.0,133.0,3.0,3.1,-164,289,0,13,191,-270,350.23086166381836,350.2309033870697,350.23416113853455,350.24569368362427,350.39565801620483,350.39565801620483,350.39565801620483,350.39565801620483,350.39565801620483,350.39565801620483,350.39565801620483,355.6466326713562,3,5.392319679260254,None,,,,,,,,,,,,,,,,,,180,5,2025-03-03_11h03.25.783,comp,2024.2.4,62.9842520749209,2025-03-04 10h00.41.866884 -0500,
45,45,0,critical,dhw,20.0,2.1,lower,78.0,78.0,133.0,57.0,57.0,133.0,2,7.143617391586304,None,,,,,0,0,0,0,0,45,45,26,355.6623637676239,,,,,,,,,,,,,,,,,,,,,,,,,,,,,,,,,,,,,,,,,,,,,,,,,,,,,,,,,,,,,,,,,,,,,,,,,,,,,,,,,78.0,78.0,133.0,57.0,57.0,133.0,2.1,2.12,-164,-264,0,-251,191,260,355.6474070549011,355.64744687080383,355.64977741241455,355.6623637676239,355.81220531463623,355.81220531463623,355.81220531463623,355.81220531463623,355.81220531463623,355.81220531463623,355.81220531463623,362.81334233283997,2,7.143617391586304,None,,,,,,,,,,,,,,,,,,180,5,2025-03-03_11h03.25.783,comp,2024.2.4,62.9842520749209,2025-03-04 10h00.41.866884 -0500,
46,46,0,critical,hdw,20.0,4.0,lower,133.0,57.0,78.0,78.0,57.0,133.0,3,5.01680588722229,None,,,,,0,0,0,0,0,46,46,118,362.8289792537689,,,,,,,,,,,,,,,,,,,,,,,,,,,,,,,,,,,,,,,,,,,,,,,,,,,,,,,,,,,,,,,,,,,,,,,,,,,,,,,,,133.0,57.0,78.0,78.0,57.0,133.0,4.0,4.2,-164,-16,0,-270,202,10,362.81413674354553,362.8141784667969,362.81651163101196,362.8289792537689,362.97884130477905,362.97884130477905,362.97884130477905,362.97884130477905,362.97884130477905,362.97884130477905,362.97884130477905,367.8469548225403,3,5.01680588722229,None,,,,,,,,,,,,,,,,,,180,5,2025-03-03_11h03.25.783,comp,2024.2.4,62.9842520749209,2025-03-04 10h00.41.866884 -0500,
47,47,0,filler_random,None,None,None,None,None,None,None,None,None,None,3,1.4331953525543213,None,,,,,0,0,0,0,0,47,47,153,367.8622634410858,,,,,,,,,,,,,,,,,,,,,,,,,,,,,,,,,,,,,,,,,,,,,,,,,,,,,,,,,,,,,,,,,,,,,,,,,,,,,,,,,185.8199955312727,58.063398593896174,96.20980300404608,86.73394561167828,111.89908892877045,163.21979205488566,1.0,1.1,-648,282,-480,259,-259,270,367.8478751182556,367.84791684150696,367.8506770133972,367.8622634410858,368.0123269557953,368.0123269557953,368.0123269557953,368.0123269557953,368.0123269557953,368.0123269557953,368.0123269557953,369.29695773124695,3,1.4331953525543213,None,,,,,,,,,,,,,,,,,,180,5,2025-03-03_11h03.25.783,comp,2024.2.4,62.9842520749209,2025-03-04 10h00.41.866884 -0500,
48,48,0,critical,whd,20.0,4.0,upper,125.0,200.0,200.0,125.0,141.0,141.0,2,42.383066177368164,None,,,,,0,0,0,0,0,48,48,95,369.3122534751892,,,,,,,,,,,,,,,,,,,,,,,,,,,,,,,,,,,,,,,,,,,,,,,,,,,,,,,,,,,,,,,,,,,,,,,,,,,,,,,,,125.0,200.0,200.0,125.0,141.0,141.0,4.0,4.2,-258,4,0,-286,229,16,369.29773139953613,369.29777216911316,369.2999141216278,369.3122534751892,369.46245980262756,369.46245980262756,369.46245980262756,369.46245980262756,369.46245980262756,369.46245980262756,369.46245980262756,411.69676446914673,2,42.383066177368164,None,,,,,,,,,,,,,,,,,,180,5,2025-03-03_11h03.25.783,comp,2024.2.4,62.9842520749209,2025-03-04 10h00.41.866884 -0500,
49,49,0,critical,dwh,20.0,2.1,lower,78.0,78.0,57.0,133.0,133.0,57.0,2,7.773605823516846,None,,,,,0,0,0,0,0,49,49,6,411.71215558052063,,,,,,,,,,,,,,,,,,,,,,,,,,,,,,,,,,,,,,,,,,,,,,,,,,,,,,,,,,,,,,,,,,,,,,,,,,,,,,,,,78.0,78.0,57.0,133.0,133.0,57.0,2.1,2.12,-202,-285,0,-272,191,268,411.69760942459106,411.69765281677246,411.7000186443329,411.71215558052063,411.8618907928467,411.8618907928467,411.8618907928467,411.8618907928467,411.8618907928467,411.8618907928467,411.8618907928467,419.49642968177795,2,7.773605823516846,None,,,,,,,,,,,,,,,,,,180,5,2025-03-03_11h03.25.783,comp,2024.2.4,62.9842520749209,2025-03-04 10h00.41.866884 -0500,
50,50,0,critical,whd,35.0,3.0,lower,57.0,133.0,133.0,57.0,70.0,70.0,1,4.783323526382446,None,,,,,0,0,0,0,0,50,50,86,419.5119905471802,,,,,,,,,,,,,,,,,,,,,,,,,,,,,,,,,,,,,,,,,,,,,,,,,,,,,,,,,,,,,,,,,,,,,,,,,,,,,,,,,57.0,133.0,133.0,57.0,70.0,70.0,3.0,3.1,-191,284,0,6,160,-257,419.49722146987915,419.4972629547119,419.4993121623993,419.5119905471802,419.66178250312805,419.66178250312805,419.66178250312805,419.66178250312805,419.66178250312805,419.66178250312805,419.66178250312805,424.31296491622925,1,4.783323526382446,None,,,,,,,,,,,,,,,,,,180,5,2025-03-03_11h03.25.783,comp,2024.2.4,62.9842520749209,2025-03-04 10h00.41.866884 -0500,
51,51,0,critical,whd,35.0,4.0,upper,125.0,200.0,200.0,125.0,127.0,127.0,1,3.388279438018799,None,,,,,0,0,0,0,0,51,51,89,424.328387260437,,,,,,,,,,,,,,,,,,,,,,,,,,,,,,,,,,,,,,,,,,,,,,,,,,,,,,,,,,,,,,,,,,,,,,,,,,,,,,,,,125.0,200.0,200.0,125.0,127.0,127.0,4.0,4.1,-258,-286,0,7,222,-265,424.3137729167938,424.3138155937195,424.31601452827454,424.328387260437,424.4787163734436,424.4787163734436,424.4787163734436,424.4787163734436,424.4787163734436,424.4787163734436,424.4787163734436,427.7298045158386,1,3.388279438018799,None,,,,,,,,,,,,,,,,,,180,5,2025-03-03_11h03.25.783,comp,2024.2.4,62.9842520749209,2025-03-04 10h00.41.866884 -0500,
52,52,0,critical,hdw,35.0,4.0,upper,200.0,125.0,127.0,127.0,125.0,200.0,3,4.044288635253906,None,,,,,0,0,0,0,0,52,52,113,427.7451238632202,,,,,,,,,,,,,,,,,,,,,,,,,,,,,,,,,,,,,,,,,,,,,,,,,,,,,,,,,,,,,,,,,,,,,,,,,,,,,,,,,200.0,125.0,127.0,127.0,125.0,200.0,4.0,4.1,-222,-287,0,-3,260,-272,427.7305636405945,427.7306053638458,427.7330012321472,427.7451238632202,427.8955521583557,427.8955521583557,427.8955521583557,427.8955521583557,427.8955521583557,427.8955521583557,427.8955521583557,431.79632019996643,3,4.044288635253906,None,,,,,,,,,,,,,,,,,,180,5,2025-03-03_11h03.25.783,comp,2024.2.4,62.9842520749209,2025-03-04 10h00.41.866884 -0500,
53,53,0,filler_random,None,None,None,None,None,None,None,None,None,None,2,5.66686224937439,None,,,,,0,0,0,0,0,53,53,156,431.81215810775757,,,,,,,,,,,,,,,,,,,,,,,,,,,,,,,,,,,,,,,,,,,,,,,,,,,,,,,,,,,,,,,,,,,,,,,,,,,,,,,,,132.35282954833758,57.27454143539784,138.7467933512974,178.7479058299134,194.03460553548837,152.67116085643394,2.1,2.11,-214,260,0,253,262,-251,431.7972295284271,431.79727125167847,431.7993347644806,431.81215810775757,431.9620752334595,431.9620752334595,431.9620752334595,431.9620752334595,431.9620752334595,431.9620752334595,431.9620752334595,437.4964702129364,2,5.66686224937439,None,,,,,,,,,,,,,,,,,,180,5,2025-03-03_11h03.25.783,comp,2024.2.4,62.9842520749209,2025-03-04 10h00.41.866884 -0500,
54,54,0,filler_square,None,None,None,None,None,None,None,None,None,None,2,1.5732440948486328,None,,,,,0,0,0,0,0,54,54,199,437.51159024238586,,,,,,,,,,,,,,,,,,,,,,,,,,,,,,,,,,,,,,,,,,,,,,,,,,,,,,,,,,,,,,,,,,,,,,,,,,,,,,,,,72.44452536572061,73.25912569752504,79.86907510076601,79.86907510076601,66.18961669783813,58.89342338362397,3.0,3.2,-173,-271,0,1,165,265,437.49741291999817,437.49745631217957,437.49959540367126,437.51159024238586,437.6616086959839,437.6616086959839,437.6616086959839,437.6616086959839,437.6616086959839,437.6616086959839,437.6616086959839,439.0958547592163,2,1.5732440948486328,None,,,,,,,,,,,,,,,,,,180,5,2025-03-03_11h03.25.783,comp,2024.2.4,62.9842520749209,2025-03-04 10h00.41.866884 -0500,
55,55,0,filler_random,None,None,None,None,None,None,None,None,None,None,3,1.3504791259765625,None,,,,,0,0,0,0,0,55,55,165,439.1116683483124,,,,,,,,,,,,,,,,,,,,,,,,,,,,,,,,,,,,,,,,,,,,,,,,,,,,,,,,,,,,,,,,,,,,,,,,,,,,,,,,,65.4121926866366,189.55967479851486,170.19828324431774,139.92042081036914,186.2477194065195,148.5695285570578,4.0,4.1,-261,-253,0,3,240,-273,439.09674406051636,439.09678530693054,439.099365234375,439.1116683483124,439.2619867324829,439.2619867324829,439.2619867324829,439.2619867324829,439.2619867324829,439.2619867324829,439.2619867324829,440.47959208488464,3,1.3504791259765625,None,,,,,,,,,,,,,,,,,,180,5,2025-03-03_11h03.25.783,comp,2024.2.4,62.9842520749209,2025-03-04 10h00.41.866884 -0500,
56,56,0,filler_random,None,None,None,None,None,None,None,None,None,None,2,2.2001399993896484,None,,,,,0,0,0,0,0,56,56,158,440.4948880672455,,,,,,,,,,,,,,,,,,,,,,,,,,,,,,,,,,,,,,,,,,,,,,,,,,,,,,,,,,,,,,,,,,,,,,,,,,,,,,,,,162.2490317161154,97.40075751437027,189.88772710559306,115.19240534284182,181.21786627140312,103.24025567150514,2.1,2.12,-202,-251,0,-290,205,265,440.4805166721344,440.4805579185486,440.48290729522705,440.4948880672455,440.6451213359833,440.6451213359833,440.6451213359833,440.6451213359833,440.6451213359833,440.6451213359833,440.6451213359833,442.71309447288513,2,2.2001399993896484,None,,,,,,,,,,,,,,,,,,180,5,2025-03-03_11h03.25.783,comp,2024.2.4,62.9842520749209,2025-03-04 10h00.41.866884 -0500,
57,57,0,filler_square,None,None,None,None,None,None,None,None,None,None,3,1.261035442352295,None,,,,,0,0,0,0,0,57,57,171,442.72829246520996,,,,,,,,,,,,,,,,,,,,,,,,,,,,,,,,,,,,,,,,,,,,,,,,,,,,,,,,,,,,,,,,,,,,,,,,,,,,,,,,,121.63583494809349,80.846799250601,58.12854479074668,165.49000575295491,170.55283664988713,170.55283664988713,2.1,2.11,-219,275,0,280,264,-251,442.71405005455017,442.71409153938293,442.7163441181183,442.72829246520996,442.87852931022644,442.87852931022644,442.87852931022644,442.87852931022644,442.87852931022644,442.87852931022644,442.87852931022644,443.996297121048,3,1.261035442352295,None,,,,,,,,,,,,,,,,,,180,5,2025-03-03_11h03.25.783,comp,2024.2.4,62.9842520749209,2025-03-04 10h00.41.866884 -0500,
58,58,0,critical,hwd,35.0,4.0,lower,133.0,57.0,57.0,133.0,70.0,70.0,2,7.425243377685547,None,,,,,0,0,0,0,0,58,58,100,444.0120029449463,,,,,,,,,,,,,,,,,,,,,,,,,,,,,,,,,,,,,,,,,,,,,,,,,,,,,,,,,,,,,,,,,,,,,,,,,,,,,,,,,133.0,57.0,57.0,133.0,70.0,70.0,4.0,4.2,-191,1,0,-287,198,-5,443.99709010124207,443.9971442222595,443.9992353916168,444.0120029449463,444.16170716285706,444.16170716285706,444.16170716285706,444.16170716285706,444.16170716285706,444.16170716285706,444.16170716285706,451.4461500644684,2,7.425243377685547,None,,,,,,,,,,,,,,,,,,180,5,2025-03-03_11h03.25.783,comp,2024.2.4,62.9842520749209,2025-03-04 10h00.41.866884 -0500,
59,59,0,critical,hdw,20.0,2.1,lower,133.0,57.0,78.0,78.0,57.0,133.0,1,4.433289527893066,None,,,,,0,0,0,0,0,59,59,46,451.46181535720825,,,,,,,,,,,,,,,,,,,,,,,,,,,,,,,,,,,,,,,,,,,,,,,,,,,,,,,,,,,,,,,,,,,,,,,,,,,,,,,,,133.0,57.0,78.0,78.0,57.0,133.0,2.1,2.12,-164,-253,0,-250,202,269,451.4469623565674,451.44700598716736,451.4492332935333,451.46181535720825,451.6115667819977,451.6115667819977,451.6115667819977,451.6115667819977,451.6115667819977,451.6115667819977,451.6115667819977,455.91317081451416,1,4.433289527893066,None,,,,,,,,,,,,,,,,,,180,5,2025-03-03_11h03.25.783,comp,2024.2.4,62.9842520749209,2025-03-04 10h00.41.866884 -0500,
60,60,0,filler_square,None,None,None,None,None,None,None,None,None,None,2,1.9008212089538574,None,,,,,0,0,0,0,0,60,60,178,455.9281749725342,,,,,,,,,,,,,,,,,,,,,,,,,,,,,,,,,,,,,,,,,,,,,,,,,,,,,,,,,,,,,,,,,,,,,,,,,,,,,,,,,87.49434433124101,86.11760397628873,170.33207069051684,170.33207069051684,94.9117994745149,66.22113006906456,4.0,4.2,-224,7,0,-273,214,16,455.91408252716064,455.91413474082947,455.91663885116577,455.9281749725342,456.0781922340393,456.0781922340393,456.0781922340393,456.0781922340393,456.0781922340393,456.0781922340393,456.0781922340393,457.84605383872986,2,1.9008212089538574,None,,,,,,,,,,,,,,,,,,180,5,2025-03-03_11h03.25.783,comp,2024.2.4,62.9842520749209,2025-03-04 10h00.41.866884 -0500,
61,61,0,critical,hwd,20.0,2.1,lower,133.0,57.0,57.0,133.0,78.0,78.0,1,2.75990891456604,None,,,,,0,0,0,0,0,61,61,18,457.86140966415405,,,,,,,,,,,,,,,,,,,,,,,,,,,,,,,,,,,,,,,,,,,,,,,,,,,,,,,,,,,,,,,,,,,,,,,,,,,,,,,,,133.0,57.0,57.0,133.0,78.0,78.0,2.1,2.12,-191,-259,0,-280,202,269,457.84685134887695,457.8468930721283,457.84913206100464,457.86140966415405,458.01152324676514,458.01152324676514,458.01152324676514,458.01152324676514,458.01152324676514,458.01152324676514,458.01152324676514,460.6294481754303,1,2.75990891456604,None,,,,,,,,,,,,,,,,,,180,5,2025-03-03_11h03.25.783,comp,2024.2.4,62.9842520749209,2025-03-04 10h00.41.866884 -0500,
62,62,0,critical,wdh,35.0,3.0,lower,57.0,133.0,70.0,70.0,133.0,57.0,3,2.4081435203552246,None,,,,,0,0,0,0,0,62,62,74,460.6450333595276,,,,,,,,,,,,,,,,,,,,,,,,,,,,,,,,,,,,,,,,,,,,,,,,,,,,,,,,,,,,,,,,,,,,,,,,,,,,,,,,,57.0,133.0,70.0,70.0,133.0,57.0,3.0,3.1,-198,260,0,17,160,-255,460.6302342414856,460.63027572631836,460.6323473453522,460.6450333595276,460.79481840133667,460.79481840133667,460.79481840133667,460.79481840133667,460.79481840133667,460.79481840133667,460.79481840133667,463.06255745887756,3,2.4081435203552246,None,,,,,,,,,,,,,,,,,,180,5,2025-03-03_11h03.25.783,comp,2024.2.4,62.9842520749209,2025-03-04 10h00.41.866884 -0500,
63,63,0,critical,dwh,20.0,1.0,lower,78.0,78.0,57.0,133.0,133.0,57.0,2,2.6380040645599365,None,,,,,0,0,0,0,0,63,63,66,463.07831716537476,,,,,,,,,,,,,,,,,,,,,,,,,,,,,,,,,,,,,,,,,,,,,,,,,,,,,,,,,,,,,,,,,,,,,,,,,,,,,,,,,78.0,78.0,57.0,133.0,133.0,57.0,1.0,1.2,-202,13,0,8,191,6,463.06333112716675,463.0633726119995,463.0658071041107,463.07831716537476,463.22816824913025,463.22816824913025,463.22816824913025,463.22816824913025,463.22816824913025,463.22816824913025,463.22816824913025,465.7293734550476,2,2.6380040645599365,None,,,,,,,,,,,,,,,,,,180,5,2025-03-03_11h03.25.783,comp,2024.2.4,62.9842520749209,2025-03-04 10h00.41.866884 -0500,
64,64,0,catch,None,None,None,None,None,None,None,None,None,None,3,2.0037171840667725,None,,,,,0,0,0,0,0,64,64,127,465.74477982521057,,,,,,,,,,,,,,,,,,,,,,,,,,,,,,,,,,,,,,,,,,,,,,,,,,,,,,,,,,,,,,,,,,,,,,,,,,,,,,,,,130,60,120,70,168,157,2.2,2.21,-161,-285,0,266,210,268,465.73041343688965,465.73045563697815,465.73281240463257,465.74477982521057,465.8949294090271,465.8949294090271,465.8949294090271,465.8949294090271,465.8949294090271,465.8949294090271,465.8949294090271,467.762677192688,3,2.0037171840667725,None,,,,,,,,,,,,,,,,,,180,5,2025-03-03_11h03.25.783,comp,2024.2.4,62.9842520749209,2025-03-04 10h00.41.866884 -0500,
65,65,0,critical,dwh,35.0,1.0,lower,70.0,70.0,57.0,133.0,133.0,57.0,3,2.322154998779297,None,,,,,0,0,0,0,0,65,65,60,467.7782106399536,,,,,,,,,,,,,,,,,,,,,,,,,,,,,,,,,,,,,,,,,,,,,,,,,,,,,,,,,,,,,,,,,,,,,,,,,,,,,,,,,70.0,70.0,57.0,133.0,133.0,57.0,1.0,1.3,282,-288,480,-253,671,-279,467.7634823322296,467.7635250091553,467.7660310268402,467.7782106399536,467.92821407318115,467.92821407318115,467.92821407318115,467.92821407318115,467.92821407318115,467.92821407318115,467.92821407318115,470.11275911331177,3,2.322154998779297,None,,,,,,,,,,,,,,,,,,180,5,2025-03-03_11h03.25.783,comp,2024.2.4,62.9842520749209,2025-03-04 10h00.41.866884 -0500,
66,66,0,filler_random,None,None,None,None,None,None,None,None,None,None,3,9.629111051559448,None,,,,,0,0,0,0,0,66,66,169,470.12808990478516,,,,,,,,,,,,,,,,,,,,,,,,,,,,,,,,,,,,,,,,,,,,,,,,,,,,,,,,,,,,,,,,,,,,,,,,,,,,,,,,,174.19135611369046,67.60979539415581,170.56836101270886,60.28735338620788,116.4247609682923,105.97856032699349,1.0,1.2,-160,-14,0,-17,179,-9,470.113662481308,470.11370396614075,470.11606526374817,470.12808990478516,470.27821946144104,470.27821946144104,470.27821946144104,470.27821946144104,470.27821946144104,470.27821946144104,470.27821946144104,479.76275634765625,3,9.629111051559448,None,,,,,,,,,,,,,,,,,,180,5,2025-03-03_11h03.25.783,comp,2024.2.4,62.9842520749209,2025-03-04 10h00.41.866884 -0500,
67,67,0,critical,dhw,35.0,2.1,upper,127.0,127.0,200.0,125.0,125.0,200.0,3,11.97882890701294,None,,,,,0,0,0,0,0,67,67,1,479.77818298339844,,,,,,,,,,,,,,,,,,,,,,,,,,,,,,,,,,,,,,,,,,,,,,,,,,,,,,,,,,,,,,,,,,,,,,,,,,,,,,,,,127.0,127.0,200.0,125.0,125.0,200.0,2.1,2.11,-222,286,0,267,258,-255,479.76356196403503,479.7636058330536,479.7660675048828,479.77818298339844,479.92830657958984,479.92830657958984,479.92830657958984,479.92830657958984,479.92830657958984,479.92830657958984,479.92830657958984,491.76271414756775,3,11.97882890701294,None,,,,,,,,,,,,,,,,,,180,5,2025-03-03_11h03.25.783,comp,2024.2.4,62.9842520749209,2025-03-04 10h00.41.866884 -0500,
68,68,0,filler_square,None,None,None,None,None,None,None,None,None,None,1,1.7055790424346924,None,,,,,0,0,0,0,0,68,68,183,491.7785322666168,,,,,,,,,,,,,,,,,,,,,,,,,,,,,,,,,,,,,,,,,,,,,,,,,,,,,,,,,,,,,,,,,,,,,,,,,,,,,,,,,185.9109161623706,185.9109161623706,157.74201659012826,84.63274606508365,79.57044270637329,114.65536500894834,4.0,4.2,-231,-11,0,-260,196,-12,491.7636842727661,491.76372838020325,491.76716208457947,491.7785322666168,491.9280686378479,491.9280686378479,491.9280686378479,491.9280686378479,491.9280686378479,491.9280686378479,491.9280686378479,493.49613428115845,1,1.7055790424346924,None,,,,,,,,,,,,,,,,,,180,5,2025-03-03_11h03.25.783,comp,2024.2.4,62.9842520749209,2025-03-04 10h00.41.866884 -0500,
69,69,0,filler_square,None,None,None,None,None,None,None,None,None,None,1,10.04593539237976,None,,,,,0,0,0,0,0,69,69,180,493.5112268924713,,,,,,,,,,,,,,,,,,,,,,,,,,,,,,,,,,,,,,,,,,,,,,,,,,,,,,,,,,,,,,,,,,,,,,,,,,,,,,,,,67.4577649743446,67.4577649743446,61.89057338040086,59.18091525557347,67.3232959548383,66.4954210152321,4.0,4.2,-159,12,0,-280,159,6,493.49705600738525,493.49710965156555,493.4991879463196,493.5112268924713,493.6611592769623,493.6611592769623,493.6611592769623,493.6611592769623,493.6611592769623,493.6611592769623,493.6611592769623,503.5623424053192,1,10.04593539237976,None,,,,,,,,,,,,,,,,,,180,5,2025-03-03_11h03.25.783,comp,2024.2.4,62.9842520749209,2025-03-04 10h00.41.866884 -0500,
70,70,0,critical,dhw,35.0,3.0,upper,127.0,127.0,200.0,125.0,125.0,200.0,2,9.394828081130981,None,,,,,0,0,0,0,0,70,70,51,503.5780050754547,,,,,,,,,,,,,,,,,,,,,,,,,,,,,,,,,,,,,,,,,,,,,,,,,,,,,,,,,,,,,,,,,,,,,,,,,,,,,,,,,127.0,127.0,200.0,125.0,125.0,200.0,3.0,3.2,-222,-290,0,-17,258,287,503.563111782074,503.56315565109253,503.5654876232147,503.5780050754547,503.72811222076416,503.72811222076416,503.72811222076416,503.72811222076416,503.72811222076416,503.72811222076416,503.72811222076416,512.9791877269745,2,9.394828081130981,None,,,,,,,,,,,,,,,,,,180,5,2025-03-03_11h03.25.783,comp,2024.2.4,62.9842520749209,2025-03-04 10h00.41.866884 -0500,
71,71,0,critical,hdw,20.0,1.0,upper,200.0,125.0,141.0,141.0,125.0,200.0,1,2.0174436569213867,None,,,,,0,0,0,0,0,71,71,115,512.9947609901428,,,,,,,,,,,,,,,,,,,,,,,,,,,,,,,,,,,,,,,,,,,,,,,,,,,,,,,,,,,,,,,,,,,,,,,,,,,,,,,,,200.0,125.0,141.0,141.0,125.0,200.0,1.0,1.1,-709,276,-480,288,-214,281,512.9799914360046,512.9800326824188,512.9823787212372,512.9947609901428,513.1447134017944,513.1447134017944,513.1447134017944,513.1447134017944,513.1447134017944,513.1447134017944,513.1447134017944,515.0292296409607,1,2.0174436569213867,None,,,,,,,,,,,,,,,,,,180,5,2025-03-03_11h03.25.783,comp,2024.2.4,62.9842520749209,2025-03-04 10h00.41.866884 -0500,
72,72,0,critical,hwd,20.0,1.0,upper,200.0,125.0,125.0,200.0,141.0,141.0,1,1.7035870552062988,None,,,,,0,0,0,0,0,72,72,103,515.0444540977478,,,,,,,,,,,,,,,,,,,,,,,,,,,,,,,,,,,,,,,,,,,,,,,,,,,,,,,,,,,,,,,,,,,,,,,,,,,,,,,,,200.0,125.0,125.0,200.0,141.0,141.0,1.0,1.1,-738,262,-480,267,-214,277,515.0300045013428,515.0300452709198,515.0321230888367,515.0444540977478,515.1947584152222,515.1947584152222,515.1947584152222,515.1947584152222,515.1947584152222,515.1947584152222,515.1947584152222,516.7626767158508,1,1.7035870552062988,None,,,,,,,,,,,,,,,,,,180,5,2025-03-03_11h03.25.783,comp,2024.2.4,62.9842520749209,2025-03-04 10h00.41.866884 -0500,
73,73,0,critical,hwd,20.0,3.0,lower,133.0,57.0,57.0,133.0,78.0,78.0,1,4.579219579696655,None,,,,,0,0,0,0,0,73,73,104,516.7776896953583,,,,,,,,,,,,,,,,,,,,,,,,,,,,,,,,,,,,,,,,,,,,,,,,,,,,,,,,,,,,,,,,,,,,,,,,,,,,,,,,,133.0,57.0,57.0,133.0,78.0,78.0,3.0,3.2,-191,-259,0,-11,202,269,516.7634632587433,516.7635045051575,516.7658014297485,516.7776896953583,516.9278638362885,516.9278638362885,516.9278638362885,516.9278638362885,516.9278638362885,516.9278638362885,516.9278638362885,521.3623430728912,1,4.579219579696655,None,,,,,,,,,,,,,,,,,,180,5,2025-03-03_11h03.25.783,comp,2024.2.4,62.9842520749209,2025-03-04 10h00.41.866884 -0500,
74,74,0,critical,whd,20.0,2.1,upper,125.0,200.0,200.0,125.0,141.0,141.0,3,13.802137613296509,None,,,,,0,0,0,0,0,74,74,15,521.3778598308563,,,,,,,,,,,,,,,,,,,,,,,,,,,,,,,,,,,,,,,,,,,,,,,,,,,,,,,,,,,,,,,,,,,,,,,,,,,,,,,,,125.0,200.0,200.0,125.0,141.0,141.0,2.1,2.12,-258,-288,0,-265,229,253,521.3631315231323,521.363174200058,521.3655157089233,521.3778598308563,521.5280275344849,521.5280275344849,521.5280275344849,521.5280275344849,521.5280275344849,521.5280275344849,521.5280275344849,535.1957430839539,3,13.802137613296509,None,,,,,,,,,,,,,,,,,,180,5,2025-03-03_11h03.25.783,comp,2024.2.4,62.9842520749209,2025-03-04 10h00.41.866884 -0500,
75,75,0,filler_square,None,None,None,None,None,None,None,None,None,None,2,2.521273374557495,None,,,,,0,0,0,0,0,75,75,179,535.2109663486481,,,,,,,,,,,,,,,,,,,,,,,,,,,,,,,,,,,,,,,,,,,,,,,,,,,,,,,,,,,,,,,,,,,,,,,,,,,,,,,,,117.85438337966043,104.20308437688519,128.11464867622308,128.11464867622308,58.06513367407824,60.80853503124251,3.0,3.2,-212,-272,0,9,190,275,535.1967234611511,535.1967661380768,535.1993627548218,535.2109663486481,535.3610067367554,535.3610067367554,535.3610067367554,535.3610067367554,535.3610067367554,535.3610067367554,535.3610067367554,537.7455258369446,2,2.521273374557495,None,,,,,,,,,,,,,,,,,,180,5,2025-03-03_11h03.25.783,comp,2024.2.4,62.9842520749209,2025-03-04 10h00.41.866884 -0500,
76,76,0,critical,whd,35.0,1.0,lower,57.0,133.0,133.0,57.0,70.0,70.0,2,2.8758230209350586,None,,,,,0,0,0,0,0,76,76,84,537.7608413696289,,,,,,,,,,,,,,,,,,,,,,,,,,,,,,,,,,,,,,,,,,,,,,,,,,,,,,,,,,,,,,,,,,,,,,,,,,,,,,,,,57.0,133.0,133.0,57.0,70.0,70.0,1.0,1.3,289,-253,480,-280,640,-281,537.7463085651398,537.7463488578796,537.7483682632446,537.7608413696289,537.9109733104706,537.9109733104706,537.9109733104706,537.9109733104706,537.9109733104706,537.9109733104706,537.9109733104706,540.6453902721405,2,2.8758230209350586,None,,,,,,,,,,,,,,,,,,180,5,2025-03-03_11h03.25.783,comp,2024.2.4,62.9842520749209,2025-03-04 10h00.41.866884 -0500,
77,77,0,critical,wdh,35.0,2.1,lower,57.0,133.0,70.0,70.0,133.0,57.0,3,5.575380563735962,None,,,,,0,0,0,0,0,77,77,8,540.6613931655884,,,,,,,,,,,,,,,,,,,,,,,,,,,,,,,,,,,,,,,,,,,,,,,,,,,,,,,,,,,,,,,,,,,,,,,,,,,,,,,,,57.0,133.0,70.0,70.0,133.0,57.0,2.1,2.11,-198,275,0,289,160,-280,540.6462001800537,540.6462414264679,540.6482968330383,540.6613931655884,540.8109776973724,540.8109776973724,540.8109776973724,540.8109776973724,540.8109776973724,540.8109776973724,540.8109776973724,546.2454643249512,3,5.575380563735962,None,,,,,,,,,,,,,,,,,,180,5,2025-03-03_11h03.25.783,comp,2024.2.4,62.9842520749209,2025-03-04 10h00.41.866884 -0500,
78,78,0,filler_random,None,None,None,None,None,None,None,None,None,None,3,1.4226195812225342,None,,,,,0,0,0,0,0,78,78,151,546.2610704898834,,,,,,,,,,,,,,,,,,,,,,,,,,,,,,,,,,,,,,,,,,,,,,,,,,,,,,,,,,,,,,,,,,,,,,,,,,,,,,,,,61.23843503493768,102.32825873839201,96.72272480887814,68.0794815027373,171.72706871424822,164.76490206797564,1.0,1.2,-181,-4,0,17,212,-15,546.2463045120239,546.2463455200195,546.2483384609222,546.2610704898834,546.4110515117645,546.4110515117645,546.4110515117645,546.4110515117645,546.4110515117645,546.4110515117645,546.4110515117645,547.6953113079071,3,1.4226195812225342,None,,,,,,,,,,,,,,,,,,180,5,2025-03-03_11h03.25.783,comp,2024.2.4,62.9842520749209,2025-03-04 10h00.41.866884 -0500,
79,79,0,critical,hwd,20.0,2.1,upper,200.0,125.0,125.0,200.0,141.0,141.0,1,10.805019617080688,None,,,,,0,0,0,0,0,79,79,43,547.7109460830688,,,,,,,,,,,,,,,,,,,,,,,,,,,,,,,,,,,,,,,,,,,,,,,,,,,,,,,,,,,,,,,,,,,,,,,,,,,,,,,,,200.0,125.0,125.0,200.0,141.0,141.0,2.1,2.12,-258,-276,0,-272,266,285,547.6961379051208,547.6961812973022,547.6985359191895,547.7109460830688,547.8611581325531,547.8611581325531,547.8611581325531,547.8611581325531,547.8611581325531,547.8611581325531,547.8611581325531,558.5305624008179,1,10.805019617080688,None,,,,,,,,,,,,,,,,,,180,5,2025-03-03_11h03.25.783,comp,2024.2.4,62.9842520749209,2025-03-04 10h00.41.866884 -0500,
80,80,0,critical,whd,20.0,1.0,lower,57.0,133.0,133.0,57.0,78.0,78.0,2,6.027036428451538,None,,,,,0,0,0,0,0,80,80,90,558.5458009243011,,,,,,,,,,,,,,,,,,,,,,,,,,,,,,,,,,,,,,,,,,,,,,,,,,,,,,,,,,,,,,,,,,,,,,,,,,,,,,,,,57.0,133.0,133.0,57.0,78.0,78.0,1.0,1.3,289,-277,480,-274,644,-262,558.5315864086151,558.5316503047943,558.534316778183,558.5458009243011,558.694242477417,558.694242477417,558.694242477417,558.694242477417,558.694242477417,558.694242477417,558.694242477417,564.5787637233734,2,6.027036428451538,None,,,,,,,,,,,,,,,,,,180,5,2025-03-03_11h03.25.783,comp,2024.2.4,62.9842520749209,2025-03-04 10h00.41.866884 -0500,
81,81,0,critical,whd,20.0,2.1,lower,57.0,133.0,133.0,57.0,78.0,78.0,2,3.331537961959839,None,,,,,0,0,0,0,0,81,81,38,564.5943176746368,,,,,,,,,,,,,,,,,,,,,,,,,,,,,,,,,,,,,,,,,,,,,,,,,,,,,,,,,,,,,,,,,,,,,,,,,,,,,,,,,57.0,133.0,133.0,57.0,78.0,78.0,2.1,2.11,-191,253,0,281,164,-272,564.5795686244965,564.5796101093292,564.581708908081,564.5943176746368,564.744202375412,564.744202375412,564.744202375412,564.744202375412,564.744202375412,564.744202375412,564.744202375412,567.9286925792694,2,3.331537961959839,None,,,,,,,,,,,,,,,,,,180,5,2025-03-03_11h03.25.783,comp,2024.2.4,62.9842520749209,2025-03-04 10h00.41.866884 -0500,
82,82,0,critical,wdh,20.0,2.1,lower,57.0,133.0,78.0,78.0,133.0,57.0,3,3.883859634399414,None,,,,,0,0,0,0,0,82,82,10,567.9441773891449,,,,,,,,,,,,,,,,,,,,,,,,,,,,,,,,,,,,,,,,,,,,,,,,,,,,,,,,,,,,,,,,,,,,,,,,,,,,,,,,,57.0,133.0,78.0,78.0,133.0,57.0,2.1,2.12,-202,-289,0,-266,164,255,567.9294803142548,567.9295217990875,567.9319756031036,567.9441773891449,568.0941705703735,568.0941705703735,568.0941705703735,568.0941705703735,568.0941705703735,568.0941705703735,568.0941705703735,571.8451159000397,3,3.883859634399414,None,,,,,,,,,,,,,,,,,,180,5,2025-03-03_11h03.25.783,comp,2024.2.4,62.9842520749209,2025-03-04 10h00.41.866884 -0500,
83,83,0,critical,whd,20.0,1.0,upper,125.0,200.0,200.0,125.0,141.0,141.0,2,5.151077747344971,None,,,,,0,0,0,0,0,83,83,91,571.8606719970703,,,,,,,,,,,,,,,,,,,,,,,,,,,,,,,,,,,,,,,,,,,,,,,,,,,,,,,,,,,,,,,,,,,,,,,,,,,,,,,,,125.0,200.0,200.0,125.0,141.0,141.0,1.0,1.2,-258,-10,0,-17,229,-16,571.845870256424,571.8459122180939,571.8479599952698,571.8606719970703,572.0110950469971,572.0110950469971,572.0110950469971,572.0110950469971,572.0110950469971,572.0110950469971,572.0110950469971,577.028796672821,2,5.151077747344971,None,,,,,,,,,,,,,,,,,,180,5,2025-03-03_11h03.25.783,comp,2024.2.4,62.9842520749209,2025-03-04 10h00.41.866884 -0500,
84,84,0,filler_square,None,None,None,None,None,None,None,None,None,None,2,2.0169880390167236,None,,,,,0,0,0,0,0,84,84,200,577.0440137386322,,,,,,,,,,,,,,,,,,,,,,,,,,,,,,,,,,,,,,,,,,,,,,,,,,,,,,,,,,,,,,,,,,,,,,,,,,,,,,,,,81.19324113538762,106.79248882129144,134.69446874646735,134.69446874646735,96.84234679498388,99.22493151765579,2.2,2.22,-217,269,0,-259,213,-274,577.029736995697,577.0297808647156,577.0322120189667,577.0440137386322,577.1941647529602,577.1941647529602,577.1941647529602,577.1941647529602,577.1941647529602,577.1941647529602,577.1941647529602,579.0785920619965,2,2.0169880390167236,None,,,,,,,,,,,,,,,,,,180,5,2025-03-03_11h03.25.783,comp,2024.2.4,62.9842520749209,2025-03-04 10h00.41.866884 -0500,
85,85,0,critical,wdh,20.0,4.0,upper,125.0,200.0,141.0,141.0,200.0,125.0,3,5.447853326797485,None,,,,,0,0,0,0,0,85,85,83,579.0939819812775,,,,,,,,,,,,,,,,,,,,,,,,,,,,,,,,,,,,,,,,,,,,,,,,,,,,,,,,,,,,,,,,,,,,,,,,,,,,,,,,,125.0,200.0,141.0,141.0,200.0,125.0,4.0,4.2,-266,6,0,-251,229,0,579.0793743133545,579.0794155597687,579.0817837715149,579.0939819812775,579.2442436218262,579.2442436218262,579.2442436218262,579.2442436218262,579.2442436218262,579.2442436218262,579.2442436218262,584.5456087589264,3,5.447853326797485,None,,,,,,,,,,,,,,,,,,180,5,2025-03-03_11h03.25.783,comp,2024.2.4,62.9842520749209,2025-03-04 10h00.41.866884 -0500,
86,86,0,catch,None,None,None,None,None,None,None,None,None,None,2,1.45943021774292,None,,,,,0,0,0,0,0,86,86,128,584.5609216690063,,,,,,,,,,,,,,,,,,,,,,,,,,,,,,,,,,,,,,,,,,,,,,,,,,,,,,,,,,,,,,,,,,,,,,,,,,,,,,,,,114,76,172,153,68,122,1.0,1.3,270,-257,480,-261,714,-264,584.5466425418854,584.5466861724854,584.5487587451935,584.5609216690063,584.7107195854187,584.7107195854187,584.7107195854187,584.7107195854187,584.7107195854187,584.7107195854187,584.7107195854187,586.0284926891327,2,1.45943021774292,None,,,,,,,,,,,,,,,,,,180,5,2025-03-03_11h03.25.783,comp,2024.2.4,62.9842520749209,2025-03-04 10h00.41.866884 -0500,
87,87,0,critical,wdh,35.0,4.0,lower,57.0,133.0,70.0,70.0,133.0,57.0,3,3.4714467525482178,None,,,,,0,0,0,0,0,87,87,76,586.0440320968628,,,,,,,,,,,,,,,,,,,,,,,,,,,,,,,,,,,,,,,,,,,,,,,,,,,,,,,,,,,,,,,,,,,,,,,,,,,,,,,,,57.0,133.0,70.0,70.0,133.0,57.0,4.0,4.1,-198,-277,0,-12,160,-286,586.0292646884918,586.0293066501617,586.0313739776611,586.0440320968628,586.1939709186554,586.1939709186554,586.1939709186554,586.1939709186554,586.1939709186554,586.1939709186554,586.1939709186554,589.5284333229065,3,3.4714467525482178,None,,,,,,,,,,,,,,,,,,180,5,2025-03-03_11h03.25.783,comp,2024.2.4,62.9842520749209,2025-03-04 10h00.41.866884 -0500,
88,88,0,critical,hwd,20.0,2.1,upper,200.0,125.0,125.0,200.0,141.0,141.0,1,6.80476713180542,None,,,,,0,0,0,0,0,88,88,19,589.5437698364258,,,,,,,,,,,,,,,,,,,,,,,,,,,,,,,,,,,,,,,,,,,,,,,,,,,,,,,,,,,,,,,,,,,,,,,,,,,,,,,,,200.0,125.0,125.0,200.0,141.0,141.0,2.1,2.11,-258,277,0,253,266,-264,589.5292448997498,589.5292859077454,589.5316550731659,589.5437698364258,589.6940779685974,589.6940779685974,589.6940779685974,589.6940779685974,589.6940779685974,589.6940779685974,589.6940779685974,596.3622903823853,1,6.80476713180542,None,,,,,,,,,,,,,,,,,,180,5,2025-03-03_11h03.25.783,comp,2024.2.4,62.9842520749209,2025-03-04 10h00.41.866884 -0500,
89,89,0,filler_square,None,None,None,None,None,None,None,None,None,None,3,2.132845163345337,None,,,,,0,0,0,0,0,89,89,175,596.3772966861725,,,,,,,,,,,,,,,,,,,,,,,,,,,,,,,,,,,,,,,,,,,,,,,,,,,,,,,,,,,,,,,,,,,,,,,,,,,,,,,,,130.36593926140233,113.55726281586897,196.9910572135366,167.70194723826833,197.41816349961715,197.41816349961715,1.0,1.1,-717,287,-480,269,-201,253,596.3632690906525,596.36332654953,596.365775346756,596.3772966861725,596.5276000499725,596.5276000499725,596.5276000499725,596.5276000499725,596.5276000499725,596.5276000499725,596.5276000499725,598.512134552002,3,2.132845163345337,None,,,,,,,,,,,,,,,,,,180,5,2025-03-03_11h03.25.783,comp,2024.2.4,62.9842520749209,2025-03-04 10h00.41.866884 -0500,
90,90,0,critical,dhw,20.0,2.1,lower,78.0,78.0,133.0,57.0,57.0,133.0,3,7.782943964004517,None,,,,,0,0,0,0,0,90,90,2,598.5274550914764,,,,,,,,,,,,,,,,,,,,,,,,,,,,,,,,,,,,,,,,,,,,,,,,,,,,,,,,,,,,,,,,,,,,,,,,,,,,,,,,,78.0,78.0,133.0,57.0,57.0,133.0,2.1,2.12,-164,-257,0,-257,191,254,598.5129179954529,598.5129606723785,598.5151150226593,598.5274550914764,598.6771748065948,598.6771748065948,598.6771748065948,598.6771748065948,598.6771748065948,598.6771748065948,598.6771748065948,606.3118743896484,3,7.782943964004517,None,,,,,,,,,,,,,,,,,,180,5,2025-03-03_11h03.25.783,comp,2024.2.4,62.9842520749209,2025-03-04 10h00.41.866884 -0500,
91,91,0,catch,None,None,None,None,None,None,None,None,None,None,3,3.6200382709503174,None,,,,,0,0,0,0,0,91,91,126,606.3274474143982,,,,,,,,,,,,,,,,,,,,,,,,,,,,,,,,,,,,,,,,,,,,,,,,,,,,,,,,,,,,,,,,,,,,,,,,,,,,,,,,,74,116,64,126,180,145,2.2,2.22,-217,259,0,-278,232,-251,606.3128743171692,606.312915802002,606.3149478435516,606.3274474143982,606.4773383140564,606.4773383140564,606.4773383140564,606.4773383140564,606.4773383140564,606.4773383140564,606.4773383140564,609.9617919921875,3,3.6200382709503174,None,,,,,,,,,,,,,,,,,,180,5,2025-03-03_11h03.25.783,comp,2024.2.4,62.9842520749209,2025-03-04 10h00.41.866884 -0500,
92,92,0,critical,hdw,35.0,2.1,lower,133.0,57.0,70.0,70.0,57.0,133.0,3,6.802369832992554,None,,,,,0,0,0,0,0,92,92,20,609.977056980133,,,,,,,,,,,,,,,,,,,,,,,,,,,,,,,,,,,,,,,,,,,,,,,,,,,,,,,,,,,,,,,,,,,,,,,,,,,,,,,,,133.0,57.0,70.0,70.0,57.0,133.0,2.1,2.11,-160,290,0,283,198,-276,609.9626116752625,609.9626529216766,609.9651811122894,609.977056980133,610.1272082328796,610.1272082328796,610.1272082328796,610.1272082328796,610.1272082328796,610.1272082328796,610.1272082328796,616.7948839664459,3,6.802369832992554,None,,,,,,,,,,,,,,,,,,180,5,2025-03-03_11h03.25.783,comp,2024.2.4,62.9842520749209,2025-03-04 10h00.41.866884 -0500,
93,93,0,critical,dwh,35.0,3.0,lower,70.0,70.0,57.0,133.0,133.0,57.0,3,6.915629148483276,None,,,,,0,0,0,0,0,93,93,62,616.8103022575378,,,,,,,,,,,,,,,,,,,,,,,,,,,,,,,,,,,,,,,,,,,,,,,,,,,,,,,,,,,,,,,,,,,,,,,,,,,,,,,,,70.0,70.0,57.0,133.0,133.0,57.0,3.0,3.1,-198,277,0,-10,191,-274,616.7956717014313,616.7957119941711,616.7982881069183,616.8103022575378,616.9604313373566,616.9604313373566,616.9604313373566,616.9604313373566,616.9604313373566,616.9604313373566,616.9604313373566,623.7282803058624,3,6.915629148483276,None,,,,,,,,,,,,,,,,,,180,5,2025-03-03_11h03.25.783,comp,2024.2.4,62.9842520749209,2025-03-04 10h00.41.866884 -0500,
94,94,0,filler_random,None,None,None,None,None,None,None,None,None,None,1,1.5877625942230225,None,,,,,0,0,0,0,0,94,94,162,623.7438349723816,,,,,,,,,,,,,,,,,,,,,,,,,,,,,,,,,,,,,,,,,,,,,,,,,,,,,,,,,,,,,,,,,,,,,,,,,,,,,,,,,141.15503560645078,114.42338516227227,111.78827940346443,64.71360019407398,106.97886789426795,84.50315311009325,2.1,2.12,-186,-280,0,-282,171,267,623.7291657924652,623.729207277298,623.7313561439514,623.7438349723816,623.8937752246857,623.8937752246857,623.8937752246857,623.8937752246857,623.8937752246857,623.8937752246857,623.8937752246857,625.3447875976562,1,1.5877625942230225,None,,,,,,,,,,,,,,,,,,180,5,2025-03-03_11h03.25.783,comp,2024.2.4,62.9842520749209,2025-03-04 10h00.41.866884 -0500,
95,95,0,critical,dwh,35.0,2.1,lower,70.0,70.0,57.0,133.0,133.0,57.0,3,3.508028268814087,None,,,,,0,0,0,0,0,95,95,4,625.360214471817,,,,,,,,,,,,,,,,,,,,,,,,,,,,,,,,,,,,,,,,,,,,,,,,,,,,,,,,,,,,,,,,,,,,,,,,,,,,,,,,,70.0,70.0,57.0,133.0,133.0,57.0,2.1,2.11,-198,283,0,281,191,-287,625.3457009792328,625.3457436561584,625.3482756614685,625.360214471817,625.510324716568,625.510324716568,625.510324716568,625.510324716568,625.510324716568,625.510324716568,625.510324716568,628.8780043125153,3,3.508028268814087,None,,,,,,,,,,,,,,,,,,180,5,2025-03-03_11h03.25.783,comp,2024.2.4,62.9842520749209,2025-03-04 10h00.41.866884 -0500,
96,96,0,catch,None,None,None,None,None,None,None,None,None,None,1,1.5502748489379883,None,,,,,0,0,0,0,0,96,96,123,628.8938264846802,,,,,,,,,,,,,,,,,,,,,,,,,,,,,,,,,,,,,,,,,,,,,,,,,,,,,,,,,,,,,,,,,,,,,,,,,,,,,,,,,126,199,98,92,126,64,2.2,2.22,-242,280,0,-255,174,-289,628.8790411949158,628.8790831565857,628.8813469409943,628.8938264846802,629.0437517166138,629.0437517166138,629.0437517166138,629.0437517166138,629.0437517166138,629.0437517166138,629.0437517166138,630.4452579021454,1,1.5502748489379883,None,,,,,,,,,,,,,,,,,,180,5,2025-03-03_11h03.25.783,comp,2024.2.4,62.9842520749209,2025-03-04 10h00.41.866884 -0500,
97,97,0,critical,dwh,35.0,2.1,upper,127.0,127.0,125.0,200.0,200.0,125.0,3,3.6548080444335938,None,,,,,0,0,0,0,0,97,97,5,630.460443019867,,,,,,,,,,,,,,,,,,,,,,,,,,,,,,,,,,,,,,,,,,,,,,,,,,,,,,,,,,,,,,,,,,,,,,,,,,,,,,,,,127.0,127.0,125.0,200.0,200.0,125.0,2.1,2.11,-260,259,0,261,258,-275,630.4460296630859,630.4460711479187,630.4486238956451,630.460443019867,630.6105921268463,630.6105921268463,630.6105921268463,630.6105921268463,630.6105921268463,630.6105921268463,630.6105921268463,634.1283876895905,3,3.6548080444335938,None,,,,,,,,,,,,,,,,,,180,5,2025-03-03_11h03.25.783,comp,2024.2.4,62.9842520749209,2025-03-04 10h00.41.866884 -0500,
98,98,0,filler_square,None,None,None,None,None,None,None,None,None,None,2,2.4923150539398193,None,,,,,0,0,0,0,0,98,98,194,634.1436643600464,,,,,,,,,,,,,,,,,,,,,,,,,,,,,,,,,,,,,,,,,,,,,,,,,,,,,,,,,,,,,,,,,,,,,,,,,,,,,,,,,100.11615140668222,113.6541882168213,170.4375153853813,170.4375153853813,95.47126347454109,149.3383207208587,2.1,2.11,-238,285,0,272,256,-282,634.1293277740479,634.1293699741364,634.1314322948456,634.1436643600464,634.2937910556793,634.2937910556793,634.2937910556793,634.2937910556793,634.2937910556793,634.2937910556793,634.2937910556793,636.644894361496,2,2.4923150539398193,None,,,,,,,,,,,,,,,,,,180,5,2025-03-03_11h03.25.783,comp,2024.2.4,62.9842520749209,2025-03-04 10h00.41.866884 -0500,
99,99,0,critical,wdh,20.0,3.0,lower,57.0,133.0,78.0,78.0,133.0,57.0,2,17.959441900253296,None,,,,,0,0,0,0,0,99,99,80,636.6604692935944,,,,,,,,,,,,,,,,,,,,,,,,,,,,,,,,,,,,,,,,,,,,,,,,,,,,,,,,,,,,,,,,,,,,,,,,,,,,,,,,,57.0,133.0,78.0,78.0,133.0,57.0,3.0,3.1,-202,256,0,18,164,-287,636.6456787586212,636.6457231044769,636.6481258869171,636.6604692935944,636.8103539943695,636.8103539943695,636.8103539943695,636.8103539943695,636.8103539943695,636.8103539943695,636.8103539943695,654.627970457077,2,17.959441900253296,None,,,,,,,,,,,,,,,,,,180,5,2025-03-03_11h03.25.783,comp,2024.2.4,62.9842520749209,2025-03-04 10h00.41.866884 -0500,
100,100,0,critical,wdh,20.0,4.0,lower,57.0,133.0,78.0,78.0,133.0,57.0,2,3.128166675567627,None,,,,,0,0,0,0,0,100,100,82,654.6436469554901,,,,,,,,,,,,,,,,,,,,,,,,,,,,,,,,,,,,,,,,,,,,,,,,,,,,,,,,,,,,,,,,,,,,,,,,,,,,,,,,,57.0,133.0,78.0,78.0,133.0,57.0,4.0,4.2,-202,-2,0,-257,164,11,654.6287529468536,654.6287961006165,654.6308965682983,654.6436469554901,654.7935194969177,654.7935194969177,654.7935194969177,654.7935194969177,654.7935194969177,654.7935194969177,654.7935194969177,657.7779049873352,2,3.128166675567627,None,,,,,,,,,,,,,,,,,,180,5,2025-03-03_11h03.25.783,comp,2024.2.4,62.9842520749209,2025-03-04 10h00.41.866884 -0500,
101,101,0,critical,dwh,20.0,4.0,upper,141.0,141.0,125.0,200.0,200.0,125.0,2,16.162071228027344,None,,,,,0,0,0,0,0,101,101,71,657.793699502945,,,,,,,,,,,,,,,,,,,,,,,,,,,,,,,,,,,,,,,,,,,,,,,,,,,,,,,,,,,,,,,,,,,,,,,,,,,,,,,,,141.0,141.0,125.0,200.0,200.0,125.0,4.0,4.2,-266,14,0,-279,258,16,657.778665304184,657.7787058353424,657.7810561656952,657.793699502945,657.9437212944031,657.9437212944031,657.9437212944031,657.9437212944031,657.9437212944031,657.9437212944031,657.9437212944031,673.9613542556763,2,16.162071228027344,None,,,,,,,,,,,,,,,,,,180,5,2025-03-03_11h03.25.783,comp,2024.2.4,62.9842520749209,2025-03-04 10h00.41.866884 -0500,
102,102,0,filler_random,None,None,None,None,None,None,None,None,None,None,1,1.4021053314208984,None,,,,,0,0,0,0,0,102,102,142,673.9768495559692,,,,,,,,,,,,,,,,,,,,,,,,,,,,,,,,,,,,,,,,,,,,,,,,,,,,,,,,,,,,,,,,,,,,,,,,,,,,,,,,,179.68596219833185,166.11907386840176,80.72136393008662,189.29424434591942,81.52152847520495,77.21184966329793,2.2,2.22,-274,283,0,-285,229,-282,673.9622395038605,673.9622802734375,673.9646284580231,673.9768495559692,674.1268928050995,674.1268928050995,674.1268928050995,674.1268928050995,674.1268928050995,674.1268928050995,674.1268928050995,675.394558429718,1,1.4021053314208984,None,,,,,,,,,,,,,,,,,,180,5,2025-03-03_11h03.25.783,comp,2024.2.4,62.9842520749209,2025-03-04 10h00.41.866884 -0500,
103,103,0,filler_random,None,None,None,None,None,None,None,None,None,None,2,8.466910362243652,None,,,,,0,0,0,0,0,103,103,131,675.4100239276886,,,,,,,,,,,,,,,,,,,,,,,,,,,,,,,,,,,,,,,,,,,,,,,,,,,,,,,,,,,,,,,,,,,,,,,,,,,,,,,,,112.09221273540916,158.39609870714708,142.92015841064435,121.95116702503714,75.7376744392715,155.40159754924076,2.2,2.22,-236,276,0,-259,235,-276,675.3954737186432,675.3955149650574,675.3978617191315,675.4100239276886,675.5601146221161,675.5601146221161,675.5601146221161,675.5601146221161,675.5601146221161,675.5601146221161,675.5601146221161,683.8945631980896,2,8.466910362243652,None,,,,,,,,,,,,,,,,,,180,5,2025-03-03_11h03.25.783,comp,2024.2.4,62.9842520749209,2025-03-04 10h00.41.866884 -0500,
104,104,0,filler_random,None,None,None,None,None,None,None,None,None,None,2,1.853156328201294,None,,,,,0,0,0,0,0,104,104,154,683.9098892211914,,,,,,,,,,,,,,,,,,,,,,,,,,,,,,,,,,,,,,,,,,,,,,,,,,,,,,,,,,,,,,,,,,,,,,,,,,,,,,,,,151.1550960139533,86.43012361823365,118.35415157783314,185.41695959935063,87.1013148830738,144.42993234748565,3.0,3.2,-232,-256,0,-4,261,289,683.8954448699951,683.8954861164093,683.8980283737183,683.9098892211914,684.0601644515991,684.0601644515991,684.0601644515991,684.0601644515991,684.0601644515991,684.0601644515991,684.0601644515991,685.7779178619385,2,1.853156328201294,None,,,,,,,,,,,,,,,,,,180,5,2025-03-03_11h03.25.783,comp,2024.2.4,62.9842520749209,2025-03-04 10h00.41.866884 -0500,
105,105,0,critical,hdw,35.0,3.0,lower,133.0,57.0,70.0,70.0,57.0,133.0,3,2.185619354248047,None,,,,,0,0,0,0,0,105,105,110,685.7932281494141,,,,,,,,,,,,,,,,,,,,,,,,,,,,,,,,,,,,,,,,,,,,,,,,,,,,,,,,,,,,,,,,,,,,,,,,,,,,,,,,,133.0,57.0,70.0,70.0,57.0,133.0,3.0,3.2,-160,-262,0,-10,198,289,685.7787139415741,685.7787563800812,685.7813012599945,685.7932281494141,685.9432077407837,685.9432077407837,685.9432077407837,685.9432077407837,685.9432077407837,685.9432077407837,685.9432077407837,687.9943413734436,3,2.185619354248047,None,,,,,,,,,,,,,,,,,,180,5,2025-03-03_11h03.25.783,comp,2024.2.4,62.9842520749209,2025-03-04 10h00.41.866884 -0500,
106,106,0,filler_square,None,None,None,None,None,None,None,None,None,None,2,3.017329692840576,None,,,,,0,0,0,0,0,106,106,203,688.0098698139191,,,,,,,,,,,,,,,,,,,,,,,,,,,,,,,,,,,,,,,,,,,,,,,,,,,,,,,,,,,,,,,,,,,,,,,,,,,,,,,,,71.37367606102066,68.00967620232117,87.86998175978324,87.86998175978324,64.14780193115675,67.27220692874835,1.0,1.3,306,-282,480,-279,654,-265,687.9952900409698,687.9953336715698,687.9976725578308,688.0098698139191,688.1600785255432,688.1600785255432,688.1600785255432,688.1600785255432,688.1600785255432,688.1600785255432,688.1600785255432,691.044401884079,2,3.017329692840576,None,,,,,,,,,,,,,,,,,,180,5,2025-03-03_11h03.25.783,comp,2024.2.4,62.9842520749209,2025-03-04 10h00.41.866884 -0500,
107,107,0,filler_square,None,None,None,None,None,None,None,None,None,None,3,1.7188832759857178,None,,,,,0,0,0,0,0,107,107,185,691.0598950386047,,,,,,,,,,,,,,,,,,,,,,,,,,,,,,,,,,,,,,,,,,,,,,,,,,,,,,,,,,,,,,,,,,,,,,,,,,,,,,,,,58.3705092371152,74.17946513791753,110.29208614194636,124.55781317141113,143.32859198430106,143.32859198430106,1.0,1.2,-195,11,0,-19,230,20,691.0453236103058,691.0453658103943,691.0477859973907,691.0598950386047,691.2100353240967,691.2100353240967,691.2100353240967,691.2100353240967,691.2100353240967,691.2100353240967,691.2100353240967,692.7943694591522,3,1.7188832759857178,None,,,,,,,,,,,,,,,,,,180,5,2025-03-03_11h03.25.783,comp,2024.2.4,62.9842520749209,2025-03-04 10h00.41.866884 -0500,
108,108,0,critical,wdh,20.0,2.1,upper,125.0,200.0,141.0,141.0,200.0,125.0,1,9.76905107498169,None,,,,,0,0,0,0,0,108,108,11,692.8097693920135,,,,,,,,,,,,,,,,,,,,,,,,,,,,,,,,,,,,,,,,,,,,,,,,,,,,,,,,,,,,,,,,,,,,,,,,,,,,,,,,,125.0,200.0,141.0,141.0,200.0,125.0,2.1,2.12,-266,-280,0,-280,229,287,692.7951674461365,692.7952091693878,692.7975678443909,692.8097693920135,692.9601321220398,692.9601321220398,692.9601321220398,692.9601321220398,692.9601321220398,692.9601321220398,692.9601321220398,702.5944683551788,1,9.76905107498169,None,,,,,,,,,,,,,,,,,,180,5,2025-03-03_11h03.25.783,comp,2024.2.4,62.9842520749209,2025-03-04 10h00.41.866884 -0500,
109,109,0,critical,hwd,20.0,1.0,lower,133.0,57.0,57.0,133.0,78.0,78.0,3,7.568885564804077,None,,,,,0,0,0,0,0,109,109,102,702.6097941398621,,,,,,,,,,,,,,,,,,,,,,,,,,,,,,,,,,,,,,,,,,,,,,,,,,,,,,,,,,,,,,,,,,,,,,,,,,,,,,,,,133.0,57.0,57.0,133.0,78.0,78.0,1.0,1.1,-671,267,-480,281,-278,285,702.5952575206757,702.5952978134155,702.5976877212524,702.6097941398621,702.7597966194153,702.7597966194153,702.7597966194153,702.7597966194153,702.7597966194153,702.7597966194153,702.7597966194153,710.1942224502563,3,7.568885564804077,None,,,,,,,,,,,,,,,,,,180,5,2025-03-03_11h03.25.783,comp,2024.2.4,62.9842520749209,2025-03-04 10h00.41.866884 -0500,
110,110,0,filler_random,None,None,None,None,None,None,None,None,None,None,1,5.841756105422974,None,,,,,0,0,0,0,0,110,110,139,710.2096481323242,,,,,,,,,,,,,,,,,,,,,,,,,,,,,,,,,,,,,,,,,,,,,,,,,,,,,,,,,,,,,,,,,,,,,,,,,,,,,,,,,138.04360868824511,108.18619421363505,98.55629315179877,85.14513236860242,72.07255269018833,143.97482274796096,2.1,2.11,-193,268,0,260,211,-258,710.1950972080231,710.1951501369476,710.197470664978,710.2096481323242,710.3598623275757,710.3598623275757,710.3598623275757,710.3598623275757,710.3598623275757,710.3598623275757,710.3598623275757,716.0609667301178,1,5.841756105422974,None,,,,,,,,,,,,,,,,,,180,5,2025-03-03_11h03.25.783,comp,2024.2.4,62.9842520749209,2025-03-04 10h00.41.866884 -0500,
111,111,0,filler_square,None,None,None,None,None,None,None,None,None,None,3,1.4379494190216064,None,,,,,0,0,0,0,0,111,111,173,716.0766763687134,,,,,,,,,,,,,,,,,,,,,,,,,,,,,,,,,,,,,,,,,,,,,,,,,,,,,,,,,,,,,,,,,,,,,,,,,,,,,,,,,76.40908530172906,66.44101476718885,101.46459106326836,67.68137436005495,140.8069423667564,140.8069423667564,2.2,2.22,-163,257,0,-257,200,-264,716.0619087219238,716.0619502067566,716.063976764679,716.0766763687134,716.2264993190765,716.2264993190765,716.2264993190765,716.2264993190765,716.2264993190765,716.2264993190765,716.2264993190765,717.5275077819824,3,1.4379494190216064,None,,,,,,,,,,,,,,,,,,180,5,2025-03-03_11h03.25.783,comp,2024.2.4,62.9842520749209,2025-03-04 10h00.41.866884 -0500,
112,112,0,filler_square,None,None,None,None,None,None,None,None,None,None,2,1.5715947151184082,None,,,,,0,0,0,0,0,112,112,184,717.5429615974426,,,,,,,,,,,,,,,,,,,,,,,,,,,,,,,,,,,,,,,,,,,,,,,,,,,,,,,,,,,,,,,,,,,,,,,,,,,,,,,,,103.47209329785468,67.2014784236286,118.6023434561522,118.6023434561522,57.12353111521385,62.76029978983301,4.0,4.1,-189,-274,0,20,187,-290,717.5284571647644,717.5285017490387,717.530930519104,717.5429615974426,717.6931657791138,717.6931657791138,717.6931657791138,717.6931657791138,717.6931657791138,717.6931657791138,717.6931657791138,719.1274251937866,2,1.5715947151184082,None,,,,,,,,,,,,,,,,,,180,5,2025-03-03_11h03.25.783,comp,2024.2.4,62.9842520749209,2025-03-04 10h00.41.866884 -0500,
113,113,0,critical,wdh,20.0,1.0,lower,57.0,133.0,78.0,78.0,133.0,57.0,3,10.067775964736938,None,,,,,0,0,0,0,0,113,113,78,719.1427936553955,,,,,,,,,,,,,,,,,,,,,,,,,,,,,,,,,,,,,,,,,,,,,,,,,,,,,,,,,,,,,,,,,,,,,,,,,,,,,,,,,57.0,133.0,78.0,78.0,133.0,57.0,1.0,1.3,278,-270,480,-273,644,-288,719.1281824111938,719.1282222270966,719.1304998397827,719.1427936553955,719.2929933071136,719.2929933071136,719.2929933071136,719.2929933071136,719.2929933071136,719.2929933071136,719.2929933071136,729.2273638248444,3,10.067775964736938,None,,,,,,,,,,,,,,,,,,180,5,2025-03-03_11h03.25.783,comp,2024.2.4,62.9842520749209,2025-03-04 10h00.41.866884 -0500,
114,114,0,critical,hdw,35.0,3.0,upper,200.0,125.0,127.0,127.0,125.0,200.0,3,3.8499839305877686,None,,,,,0,0,0,0,0,114,114,111,729.2428276538849,,,,,,,,,,,,,,,,,,,,,,,,,,,,,,,,,,,,,,,,,,,,,,,,,,,,,,,,,,,,,,,,,,,,,,,,,,,,,,,,,200.0,125.0,127.0,127.0,125.0,200.0,3.0,3.1,-222,262,0,11,260,-274,729.2281346321106,729.2281754016876,729.2305197715759,729.2428276538849,729.3931288719177,729.3931288719177,729.3931288719177,729.3931288719177,729.3931288719177,729.3931288719177,729.3931288719177,733.0944712162018,3,3.8499839305877686,None,,,,,,,,,,,,,,,,,,180,5,2025-03-03_11h03.25.783,comp,2024.2.4,62.9842520749209,2025-03-04 10h00.41.866884 -0500,
115,115,0,filler_random,None,None,None,None,None,None,None,None,None,None,3,1.9178094863891602,None,,,,,0,0,0,0,0,115,115,132,733.1097600460052,,,,,,,,,,,,,,,,,,,,,,,,,,,,,,,,,,,,,,,,,,,,,,,,,,,,,,,,,,,,,,,,,,,,,,,,,,,,,,,,,78.5727918598848,199.76170290751722,64.0670797165449,148.17622767051657,139.31719246237776,144.42365268229048,1.0,1.1,-750,276,-480,271,-238,267,733.0953893661499,733.0954301357269,733.0976088047028,733.1097600460052,733.259685754776,733.259685754776,733.259685754776,733.259685754776,733.259685754776,733.259685754776,733.259685754776,735.0447466373444,3,1.9178094863891602,None,,,,,,,,,,,,,,,,,,180,5,2025-03-03_11h03.25.783,comp,2024.2.4,62.9842520749209,2025-03-04 10h00.41.866884 -0500,
116,116,0,catch,None,None,None,None,None,None,None,None,None,None,3,1.5273923873901367,None,,,,,0,0,0,0,0,116,116,120,735.059999704361,,,,,,,,,,,,,,,,,,,,,,,,,,,,,,,,,,,,,,,,,,,,,,,,,,,,,,,,,,,,,,,,,,,,,,,,,,,,,,,,,133,57,120,70,190,135,2.2,2.21,-160,-278,0,282,198,276,735.0457861423492,735.0458281040192,735.0477607250214,735.059999704361,735.2104012966156,735.2104012966156,735.2104012966156,735.2104012966156,735.2104012966156,735.2104012966156,735.2104012966156,736.5941209793091,3,1.5273923873901367,None,,,,,,,,,,,,,,,,,,180,5,2025-03-03_11h03.25.783,comp,2024.2.4,62.9842520749209,2025-03-04 10h00.41.866884 -0500,
117,117,0,critical,hwd,35.0,3.0,upper,200.0,125.0,125.0,200.0,127.0,127.0,2,4.058164596557617,None,,,,,0,0,0,0,0,117,117,99,736.6097660064697,,,,,,,,,,,,,,,,,,,,,,,,,,,,,,,,,,,,,,,,,,,,,,,,,,,,,,,,,,,,,,,,,,,,,,,,,,,,,,,,,200.0,125.0,125.0,200.0,127.0,127.0,3.0,3.2,-258,-279,0,12,260,251,736.5949912071228,736.5950350761414,736.5973312854767,736.6097660064697,736.7598614692688,736.7598614692688,736.7598614692688,736.7598614692688,736.7598614692688,736.7598614692688,736.7598614692688,740.6777441501617,2,4.058164596557617,None,,,,,,,,,,,,,,,,,,180,5,2025-03-03_11h03.25.783,comp,2024.2.4,62.9842520749209,2025-03-04 10h00.41.866884 -0500,
118,118,0,critical,dwh,20.0,3.0,lower,78.0,78.0,57.0,133.0,133.0,57.0,2,3.950169324874878,None,,,,,0,0,0,0,0,118,118,68,740.6930129528046,,,,,,,,,,,,,,,,,,,,,,,,,,,,,,,,,,,,,,,,,,,,,,,,,,,,,,,,,,,,,,,,,,,,,,,,,,,,,,,,,78.0,78.0,57.0,133.0,133.0,57.0,3.0,3.2,-202,-268,0,5,191,278,740.6785418987274,740.6785840988159,740.6810357570648,740.6930129528046,740.842903137207,740.842903137207,740.842903137207,740.842903137207,740.842903137207,740.842903137207,740.842903137207,744.6607007980347,2,3.950169324874878,None,,,,,,,,,,,,,,,,,,180,5,2025-03-03_11h03.25.783,comp,2024.2.4,62.9842520749209,2025-03-04 10h00.41.866884 -0500,
119,119,0,filler_random,None,None,None,None,None,None,None,None,None,None,2,2.7750701904296875,None,,,,,0,0,0,0,0,119,119,161,744.6761703491211,,,,,,,,,,,,,,,,,,,,,,,,,,,,,,,,,,,,,,,,,,,,,,,,,,,,,,,,,,,,,,,,,,,,,,,,,,,,,,,,,64.6925984305847,123.95169095207987,105.81467278862772,155.51938218021564,64.4052421078532,66.41065649474922,3.0,3.2,-236,-275,0,1,207,284,744.6615941524506,744.6616368293762,744.6637315750122,744.6761703491211,744.8263273239136,744.8263273239136,744.8263273239136,744.8263273239136,744.8263273239136,744.8263273239136,744.8263273239136,747.4606621265411,2,2.7750701904296875,None,,,,,,,,,,,,,,,,,,180,5,2025-03-03_11h03.25.783,comp,2024.2.4,62.9842520749209,2025-03-04 10h00.41.866884 -0500,
120,120,0,critical,hwd,35.0,4.0,upper,200.0,125.0,125.0,200.0,127.0,127.0,2,7.648834466934204,None,,,,,0,0,0,0,0,120,120,101,747.476315498352,,,,,,,,,,,,,,,,,,,,,,,,,,,,,,,,,,,,,,,,,,,,,,,,,,,,,,,,,,,,,,,,,,,,,,,,,,,,,,,,,200.0,125.0,125.0,200.0,127.0,127.0,4.0,4.1,-258,-252,0,-1,260,-263,747.4614210128784,747.4614617824554,747.463858127594,747.476315498352,747.6264462471008,747.6264462471008,747.6264462471008,747.6264462471008,747.6264462471008,747.6264462471008,747.6264462471008,755.1277959346771,2,7.648834466934204,None,,,,,,,,,,,,,,,,,,180,5,2025-03-03_11h03.25.783,comp,2024.2.4,62.9842520749209,2025-03-04 10h00.41.866884 -0500,
121,121,0,critical,hwd,20.0,2.1,lower,133.0,57.0,57.0,133.0,78.0,78.0,3,6.765783071517944,None,,,,,0,0,0,0,0,121,121,42,755.1430702209473,,,,,,,,,,,,,,,,,,,,,,,,,,,,,,,,,,,,,,,,,,,,,,,,,,,,,,,,,,,,,,,,,,,,,,,,,,,,,,,,,133.0,57.0,57.0,133.0,78.0,78.0,2.1,2.12,-191,-254,0,-257,202,282,755.1285982131958,755.1286392211914,755.1308526992798,755.1430702209473,755.2927830219269,755.2927830219269,755.2927830219269,755.2927830219269,755.2927830219269,755.2927830219269,755.2927830219269,761.9271874427795,3,6.765783071517944,None,,,,,,,,,,,,,,,,,,180,5,2025-03-03_11h03.25.783,comp,2024.2.4,62.9842520749209,2025-03-04 10h00.41.866884 -0500,
122,122,0,critical,hdw,20.0,1.0,lower,133.0,57.0,78.0,78.0,57.0,133.0,3,13.597452640533447,None,,,,,0,0,0,0,0,122,122,114,761.9426651000977,,,,,,,,,,,,,,,,,,,,,,,,,,,,,,,,,,,,,,,,,,,,,,,,,,,,,,,,,,,,,,,,,,,,,,,,,,,,,,,,,133.0,57.0,78.0,78.0,57.0,133.0,1.0,1.1,-644,277,-480,255,-278,258,761.9280874729156,761.9281404018402,761.930412530899,761.9426651000977,762.0928268432617,762.0928268432617,762.0928268432617,762.0928268432617,762.0928268432617,762.0928268432617,762.0928268432617,775.5438985824585,3,13.597452640533447,None,,,,,,,,,,,,,,,,,,180,5,2025-03-03_11h03.25.783,comp,2024.2.4,62.9842520749209,2025-03-04 10h00.41.866884 -0500,
123,123,0,filler_square,None,None,None,None,None,None,None,None,None,None,2,1.1491339206695557,None,,,,,0,0,0,0,0,123,123,177,775.5594861507416,,,,,,,,,,,,,,,,,,,,,,,,,,,,,,,,,,,,,,,,,,,,,,,,,,,,,,,,,,,,,,,,,,,,,,,,,,,,,,,,,64.08941548161353,69.81937986770637,128.781330032958,128.781330032958,78.53760549278297,69.6689119905189,3.0,3.2,-195,-251,0,12,195,277,775.5448408126831,775.5448839664459,775.5469589233398,775.5594861507416,775.7096388339996,775.7096388339996,775.7096388339996,775.7096388339996,775.7096388339996,775.7096388339996,775.7096388339996,776.7104604244232,2,1.1491339206695557,None,,,,,,,,,,,,,,,,,,180,5,2025-03-03_11h03.25.783,comp,2024.2.4,62.9842520749209,2025-03-04 10h00.41.866884 -0500,
124,124,0,critical,hdw,20.0,3.0,upper,200.0,125.0,141.0,141.0,125.0,200.0,3,6.333792209625244,None,,,,,0,0,0,0,0,124,124,117,776.7260367870331,,,,,,,,,,,,,,,,,,,,,,,,,,,,,,,,,,,,,,,,,,,,,,,,,,,,,,,,,,,,,,,,,,,,,,,,,,,,,,,,,200.0,125.0,141.0,141.0,125.0,200.0,3.0,3.1,-229,287,0,-6,266,-262,776.7112286090851,776.7112717628479,776.7132799625397,776.7260367870331,776.8760967254639,776.8760967254639,776.8760967254639,776.8760967254639,776.8760967254639,776.8760967254639,776.8760967254639,783.077389717102,3,6.333792209625244,None,,,,,,,,,,,,,,,,,,180,5,2025-03-03_11h03.25.783,comp,2024.2.4,62.9842520749209,2025-03-04 10h00.41.866884 -0500,
125,125,0,filler_random,None,None,None,None,None,None,None,None,None,None,1,1.7263097763061523,None,,,,,0,0,0,0,0,125,125,166,783.0926206111908,,,,,,,,,,,,,,,,,,,,,,,,,,,,,,,,,,,,,,,,,,,,,,,,,,,,,,,,,,,,,,,,,,,,,,,,,,,,,,,,,142.86911827780798,139.87444417377782,66.93626705613298,87.58427141803685,93.74995033404889,84.08081004705198,2.1,2.12,-210,-284,0,-264,182,273,783.0783023834229,783.0783441066742,783.0804071426392,783.0926206111908,783.2426474094391,783.2426474094391,783.2426474094391,783.2426474094391,783.2426474094391,783.2426474094391,783.2426474094391,784.8270618915558,1,1.7263097763061523,None,,,,,,,,,,,,,,,,,,180,5,2025-03-03_11h03.25.783,comp,2024.2.4,62.9842520749209,2025-03-04 10h00.41.866884 -0500,
126,126,0,critical,dwh,20.0,1.0,upper,141.0,141.0,125.0,200.0,200.0,125.0,3,13.833645105361938,None,,,,,0,0,0,0,0,126,126,67,784.8426797389984,,,,,,,,,,,,,,,,,,,,,,,,,,,,,,,,,,,,,,,,,,,,,,,,,,,,,,,,,,,,,,,,,,,,,,,,,,,,,,,,,141.0,141.0,125.0,200.0,200.0,125.0,1.0,1.2,-266,-18,0,-10,258,-18,784.8278388977051,784.827880859375,784.8298892974854,784.8426797389984,784.9927864074707,784.9927864074707,784.9927864074707,784.9927864074707,784.9927864074707,784.9927864074707,784.9927864074707,798.6937899589539,3,13.833645105361938,None,,,,,,,,,,,,,,,,,,180,5,2025-03-03_11h03.25.783,comp,2024.2.4,62.9842520749209,2025-03-04 10h00.41.866884 -0500,
127,127,0,filler_square,None,None,None,None,None,None,None,None,None,None,1,9.88493299484253,None,,,,,0,0,0,0,0,127,127,172,798.7091679573059,,,,,,,,,,,,,,,,,,,,,,,,,,,,,,,,,,,,,,,,,,,,,,,,,,,,,,,,,,,,,,,,,,,,,,,,,,,,,,,,,105.51247793494443,105.51247793494443,69.32653140477814,96.94531781850765,96.60267717562813,72.5479999056655,2.1,2.11,-197,281,0,275,181,-252,798.6947195529938,798.6947615146637,798.6972546577454,798.7091679573059,798.8592069149017,798.8592069149017,798.8592069149017,798.8592069149017,798.8592069149017,798.8592069149017,798.8592069149017,808.6102066040039,1,9.88493299484253,None,,,,,,,,,,,,,,,,,,180,5,2025-03-03_11h03.25.783,comp,2024.2.4,62.9842520749209,2025-03-04 10h00.41.866884 -0500,
128,128,0,filler_random,None,None,None,None,None,None,None,None,None,None,1,1.6722784042358398,None,,,,,0,0,0,0,0,128,128,134,808.6256716251373,,,,,,,,,,,,,,,,,,,,,,,,,,,,,,,,,,,,,,,,,,,,,,,,,,,,,,,,,,,,,,,,,,,,,,,,,,,,,,,,,180.73461790955503,145.1126626207112,128.27262868990576,77.81671837457625,130.24996363981677,67.2820913270951,2.1,2.11,-207,256,0,280,169,-289,808.6112146377563,808.6112565994263,808.6135387420654,808.6256716251373,808.7758829593658,808.7758829593658,808.7758829593658,808.7758829593658,808.7758829593658,808.7758829593658,808.7758829593658,810.310516834259,1,1.6722784042358398,None,,,,,,,,,,,,,,,,,,180,5,2025-03-03_11h03.25.783,comp,2024.2.4,62.9842520749209,2025-03-04 10h00.41.866884 -0500,
129,129,0,critical,hdw,20.0,2.1,lower,133.0,57.0,78.0,78.0,57.0,133.0,1,3.166602611541748,None,,,,,0,0,0,0,0,129,129,22,810.3257143497467,,,,,,,,,,,,,,,,,,,,,,,,,,,,,,,,,,,,,,,,,,,,,,,,,,,,,,,,,,,,,,,,,,,,,,,,,,,,,,,,,133.0,57.0,78.0,78.0,57.0,133.0,2.1,2.12,-164,-279,0,-290,202,272,810.3113172054291,810.3113589286804,810.3137090206146,810.3257143497467,810.4757447242737,810.4757447242737,810.4757447242737,810.4757447242737,810.4757447242737,810.4757447242737,810.4757447242737,813.4936592578888,1,3.166602611541748,None,,,,,,,,,,,,,,,,,,180,5,2025-03-03_11h03.25.783,comp,2024.2.4,62.9842520749209,2025-03-04 10h00.41.866884 -0500,
130,130,0,filler_square,None,None,None,None,None,None,None,None,None,None,1,2.0936315059661865,None,,,,,0,0,0,0,0,130,130,205,813.5092179775238,,,,,,,,,,,,,,,,,,,,,,,,,,,,,,,,,,,,,,,,,,,,,,,,,,,,,,,,,,,,,,,,,,,,,,,,,,,,,,,,,186.8968960448239,186.8968960448239,157.33818614121574,118.01777614528298,135.27229404283057,81.500806509938,4.0,4.2,-248,7,0,-258,196,-3,813.4945847988129,813.4946300983429,813.4967033863068,813.5092179775238,813.6592872142792,813.6592872142792,813.6592872142792,813.6592872142792,813.6592872142792,813.6592872142792,813.6592872142792,815.6104094982147,1,2.0936315059661865,None,,,,,,,,,,,,,,,,,,180,5,2025-03-03_11h03.25.783,comp,2024.2.4,62.9842520749209,2025-03-04 10h00.41.866884 -0500,
131,131,0,critical,wdh,20.0,1.0,upper,125.0,200.0,141.0,141.0,200.0,125.0,1,3.033573865890503,None,,,,,0,0,0,0,0,131,131,79,815.6259107589722,,,,,,,,,,,,,,,,,,,,,,,,,,,,,,,,,,,,,,,,,,,,,,,,,,,,,,,,,,,,,,,,,,,,,,,,,,,,,,,,,125.0,200.0,141.0,141.0,200.0,125.0,1.0,1.3,214,-264,480,-267,709,-268,815.6112020015717,815.611243724823,815.6136000156403,815.6259107589722,815.7759263515472,815.7759263515472,815.7759263515472,815.7759263515472,815.7759263515472,815.7759263515472,815.7759263515472,818.6771786212921,1,3.033573865890503,None,,,,,,,,,,,,,,,,,,180,5,2025-03-03_11h03.25.783,comp,2024.2.4,62.9842520749209,2025-03-04 10h00.41.866884 -0500,
132,132,0,critical,hwd,35.0,3.0,lower,133.0,57.0,57.0,133.0,70.0,70.0,1,5.232357025146484,None,,,,,0,0,0,0,0,132,132,98,818.6922888755798,,,,,,,,,,,,,,,,,,,,,,,,,,,,,,,,,,,,,,,,,,,,,,,,,,,,,,,,,,,,,,,,,,,,,,,,,,,,,,,,,133.0,57.0,57.0,133.0,70.0,70.0,3.0,3.2,-191,-274,0,-2,198,274,818.6779587268829,818.6779999732971,818.680210351944,818.6922888755798,818.8423261642456,818.8423261642456,818.8423261642456,818.8423261642456,818.8423261642456,818.8423261642456,818.8423261642456,823.9268455505371,1,5.232357025146484,None,,,,,,,,,,,,,,,,,,180,5,2025-03-03_11h03.25.783,comp,2024.2.4,62.9842520749209,2025-03-04 10h00.41.866884 -0500,
133,133,0,critical,dwh,35.0,4.0,lower,70.0,70.0,57.0,133.0,133.0,57.0,3,1.644007682800293,None,,,,,0,0,0,0,0,133,133,64,823.9427378177643,,,,,,,,,,,,,,,,,,,,,,,,,,,,,,,,,,,,,,,,,,,,,,,,,,,,,,,,,,,,,,,,,,,,,,,,,,,,,,,,,70.0,70.0,57.0,133.0,133.0,57.0,4.0,4.1,-198,-277,0,-8,191,-281,823.927631855011,823.9276731014252,823.9296612739563,823.9427378177643,824.092316865921,824.092316865921,824.092316865921,824.092316865921,824.092316865921,824.092316865921,824.092316865921,825.5933678150177,3,1.644007682800293,None,,,,,,,,,,,,,,,,,,180,5,2025-03-03_11h03.25.783,comp,2024.2.4,62.9842520749209,2025-03-04 10h00.41.866884 -0500,
134,134,0,critical,hwd,35.0,1.0,lower,133.0,57.0,57.0,133.0,70.0,70.0,1,1.5849676132202148,None,,,,,0,0,0,0,0,134,134,96,825.6090524196625,,,,,,,,,,,,,,,,,,,,,,,,,,,,,,,,,,,,,,,,,,,,,,,,,,,,,,,,,,,,,,,,,,,,,,,,,,,,,,,,,133.0,57.0,57.0,133.0,70.0,70.0,1.0,1.2,-191,15,0,18,198,1,825.594165802002,825.594208240509,825.5968198776245,825.6090524196625,825.7589716911316,825.7589716911316,825.7589716911316,825.7589716911316,825.7589716911316,825.7589716911316,825.7589716911316,827.2099416255951,1,1.5849676132202148,None,,,,,,,,,,,,,,,,,,180,5,2025-03-03_11h03.25.783,comp,2024.2.4,62.9842520749209,2025-03-04 10h00.41.866884 -0500,
135,135,0,catch,None,None,None,None,None,None,None,None,None,None,3,1.6722369194030762,None,,,,,0,0,0,0,0,135,135,124,827.2255487442017,,,,,,,,,,,,,,,,,,,,,,,,,,,,,,,,,,,,,,,,,,,,,,,,,,,,,,,,,,,,,,,,,,,,,,,,,,,,,,,,,105,85,87,103,139,186,1.0,1.3,290,-279,480,-258,720,-270,827.2109706401825,827.211012840271,827.2137019634247,827.2255487442017,827.3758192062378,827.3758192062378,827.3758192062378,827.3758192062378,827.3758192062378,827.3758192062378,827.3758192062378,828.9101674556732,3,1.6722369194030762,None,,,,,,,,,,,,,,,,,,180,5,2025-03-03_11h03.25.783,comp,2024.2.4,62.9842520749209,2025-03-04 10h00.41.866884 -0500,
136,136,0,critical,hwd,35.0,2.1,lower,133.0,57.0,57.0,133.0,70.0,70.0,1,4.204682350158691,None,,,,,0,0,0,0,0,136,136,40,828.9254906177521,,,,,,,,,,,,,,,,,,,,,,,,,,,,,,,,,,,,,,,,,,,,,,,,,,,,,,,,,,,,,,,,,,,,,,,,,,,,,,,,,133.0,57.0,57.0,133.0,70.0,70.0,2.1,2.12,-191,-289,0,-271,198,265,828.9109830856323,828.9110243320465,828.913355588913,828.9254906177521,829.0756514072418,829.0756514072418,829.0756514072418,829.0756514072418,829.0756514072418,829.0756514072418,829.0756514072418,833.143292427063,1,4.204682350158691,None,,,,,,,,,,,,,,,,,,180,5,2025-03-03_11h03.25.783,comp,2024.2.4,62.9842520749209,2025-03-04 10h00.41.866884 -0500,
137,137,0,critical,hwd,35.0,2.1,upper,200.0,125.0,125.0,200.0,127.0,127.0,1,3.1005959510803223,None,,,,,0,0,0,0,0,137,137,17,833.158704996109,,,,,,,,,,,,,,,,,,,,,,,,,,,,,,,,,,,,,,,,,,,,,,,,,,,,,,,,,,,,,,,,,,,,,,,,,,,,,,,,,200.0,125.0,125.0,200.0,127.0,127.0,2.1,2.12,-258,-259,0,-256,260,260,833.1440794467926,833.1441342830658,833.1464784145355,833.158704996109,833.3091711997986,833.3091711997986,833.3091711997986,833.3091711997986,833.3091711997986,833.3091711997986,833.3091711997986,836.27690076828,1,3.1005959510803223,None,,,,,,,,,,,,,,,,,,180,5,2025-03-03_11h03.25.783,comp,2024.2.4,62.9842520749209,2025-03-04 10h00.41.866884 -0500,
138,138,0,filler_random,None,None,None,None,None,None,None,None,None,None,1,2.6379616260528564,None,,,,,0,0,0,0,0,138,138,155,836.2921962738037,,,,,,,,,,,,,,,,,,,,,,,,,,,,,,,,,,,,,,,,,,,,,,,,,,,,,,,,,,,,,,,,,,,,,,,,,,,,,,,,,141.8417100210333,171.4443674585546,97.52830253628278,160.02634821746898,128.5522885985166,101.76667064040655,2.1,2.12,-262,-253,0,-256,227,287,836.2777729034424,836.2778134346008,836.280344247818,836.2921962738037,836.4424018859863,836.4424018859863,836.4424018859863,836.4424018859863,836.4424018859863,836.4424018859863,836.4424018859863,838.9434742927551,1,2.6379616260528564,None,,,,,,,,,,,,,,,,,,180,5,2025-03-03_11h03.25.783,comp,2024.2.4,62.9842520749209,2025-03-04 10h00.41.866884 -0500,
139,139,0,critical,hdw,35.0,1.0,upper,200.0,125.0,127.0,127.0,125.0,200.0,3,5.980497121810913,None,,,,,0,0,0,0,0,139,139,109,838.958753824234,,,,,,,,,,,,,,,,,,,,,,,,,,,,,,,,,,,,,,,,,,,,,,,,,,,,,,,,,,,,,,,,,,,,,,,,,,,,,,,,,200.0,125.0,127.0,127.0,125.0,200.0,1.0,1.2,-222,4,0,15,260,-4,838.9442939758301,838.9443364143372,838.9467618465424,838.958753824234,839.1090960502625,839.1090960502625,839.1090960502625,839.1090960502625,839.1090960502625,839.1090960502625,839.1090960502625,844.9438784122467,3,5.980497121810913,None,,,,,,,,,,,,,,,,,,180,5,2025-03-03_11h03.25.783,comp,2024.2.4,62.9842520749209,2025-03-04 10h00.41.866884 -0500,
140,140,0,critical,dhw,20.0,3.0,upper,141.0,141.0,200.0,125.0,125.0,200.0,1,4.9956214427948,None,,,,,0,0,0,0,0,140,140,57,844.9589812755585,,,,,,,,,,,,,,,,,,,,,,,,,,,,,,,,,,,,,,,,,,,,,,,,,,,,,,,,,,,,,,,,,,,,,,,,,,,,,,,,,141.0,141.0,200.0,125.0,125.0,200.0,3.0,3.2,-229,-286,0,-13,258,253,844.9446575641632,844.9446995258331,844.946786403656,844.9589812755585,845.1091179847717,845.1091179847717,845.1091179847717,845.1091179847717,845.1091179847717,845.1091179847717,845.1091179847717,849.9601919651031,1,4.9956214427948,None,,,,,,,,,,,,,,,,,,180,5,2025-03-03_11h03.25.783,comp,2024.2.4,62.9842520749209,2025-03-04 10h00.41.866884 -0500,
141,141,0,critical,hwd,35.0,1.0,upper,200.0,125.0,125.0,200.0,127.0,127.0,1,6.306025505065918,None,,,,,0,0,0,0,0,141,141,97,849.9755916595459,,,,,,,,,,,,,,,,,,,,,,,,,,,,,,,,,,,,,,,,,,,,,,,,,,,,,,,,,,,,,,,,,,,,,,,,,,,,,,,,,200.0,125.0,125.0,200.0,127.0,127.0,1.0,1.1,-738,251,-480,274,-220,257,849.9609425067902,849.9609832763672,849.9632432460785,849.9755916595459,850.1261281967163,850.1261281967163,850.1261281967163,850.1261281967163,850.1261281967163,850.1261281967163,850.1261281967163,856.2933306694031,1,6.306025505065918,None,,,,,,,,,,,,,,,,,,180,5,2025-03-03_11h03.25.783,comp,2024.2.4,62.9842520749209,2025-03-04 10h00.41.866884 -0500,
