thisN,thisTrialN,thisRepN,effect,order,distance,config,diag,h_1,w_1,h_2,w_2,h_3,w_3,rect_choice.keys,rect_choice.rt,rect_choice.duration,instructions_loop.thisRepN,instructions_loop.thisTrialN,instructions_loop.thisN,instructions_loop.thisIndex,blocks.thisRepN,blocks.thisTrialN,blocks.thisN,blocks.thisIndex,trials.thisRepN,trials.thisTrialN,trials.thisN,trials.thisIndex,thisRow.t,notes,consent.started,agree_button.started,decline_button.started,consent_img.started,mouse.started,consent.stopped,agree_button.numClicks,agree_button.timesOn,agree_button.timesOff,decline_button.numClicks,decline_button.timesOn,decline_button.timesOff,mouse.x,mouse.y,mouse.leftButton,mouse.midButton,mouse.rightButton,mouse.time,mouse.clicked_name,exp_params.started,exp_params.stopped,welcome.started,welcome_text.started,welcome.stopped,instructions_1.started,instructions_1_text_1.started,instructions_1_text_2.started,key_resp.started,instructions_1.stopped,instructions_loop.key_resp.keys,instructions_loop.key_resp.rt,instructions_loop.key_resp.duration,instructions_2.started,instructions_2_text_1.started,instructions_2_text_2.started,key_resp_2.started,instructions_2.stopped,instructions_loop.key_resp_2.keys,instructions_loop.key_resp_2.rt,instructions_loop.key_resp_2.duration,instructions_3.started,instructions_3_text_1.started,r1_instr3.started,r2_instr3.started,r3_instr3.started,r1_instr3_label.started,r2_instr3_label.started,r3_instr3_label.started,instructions_3_text_3.started,instructions_3_text_4.started,key_resp_3.started,instructions_3.stopped,instructions_loop.key_resp_3.keys,instructions_loop.key_resp_3.rt,instructions_loop.key_resp_3.duration,instructions_4.started,instructions_4_text_1.started,instructions_4_text_3.started,instructions_4_text_2.started,key_resp_4.started,instructions_4.stopped,instructions_loop.key_resp_4.keys,instructions_loop.key_resp_4.rt,instructions_loop.key_resp_4.duration,instructions_5.started,instructions_5_text_1.started,instructions_5_text_2.started,key_resp_5.started,instructions_5.stopped,instructions_loop.key_resp_5.keys,instructions_loop.key_resp_5.rt,instructions_loop.key_resp_5.duration,start_exp.started,start_exp_text.started,key_resp_6.started,start_exp.stopped,key_resp_6.keys,key_resp_6.rt,key_resp_6.duration,h_1_tmp,w_1_tmp,h_2_tmp,w_2_tmp,h_3_tmp,w_3_tmp,config_tmp,config_tmp_1,r_1_x,r_1_y,r_2_x,r_2_y,r_3_x,r_3_y,pre_trial.started,pre_trial.stopped,choice_trial.started,rect_choice.started,r_1.started,r_2.started,r_3.started,r_1_label.started,r_2_label.started,r_3_label.started,prompt.started,choice_trial.stopped,trials.rect_choice.keys,trials.rect_choice.rt,trials.rect_choice.duration,end_block.started,end_block_text.started,end_block.stopped,end.started,end_text.started,key_resp_7.started,end.stopped,key_resp_7.keys,key_resp_7.rt,key_resp_7.duration,debriefing.started,debrief_form.started,end_debrief.started,debriefing.stopped,end_debrief.keys,end_debrief.rt,end_debrief.duration,participant,computer,date,expName,psychopyVersion,frameRate,expStart,
,,,,,,,,,,,,,,,,,,,,,,,,,,,,,,,0.015743255615234375,0.03732657432556152,0.03732657432556152,0.03732657432556152,0.015532493591308594,21.65574550628662,1,[21.61572265625],[21.61574625968933],0,,,[-68.0],[-513.0],[1],[0],[0],[21.639489889144897],['agree_button'],,,,,,,,,,,,,,,,,,,,,,,,,,,,,,,,,,,,,,,,,,,,,,,,,,,,,,,,,,,,,,,,,,,,,,,,,,,,,,,,,,,,,,,,,,,,,,,,,,,,,,,,,,,181,1,2025-03-04_12h03.47.209,comp,2024.2.4,57.93685699446367,2025-03-04 12h06.00.591457 -0500,
,,,,,,,,,,,,,,,,,,,,,,,,,,,,,,,,,,,,,,,,,,,,,,,,,,21.65635061264038,21.656463623046875,,,,,,,,,,,,,,,,,,,,,,,,,,,,,,,,,,,,,,,,,,,,,,,,,,,,,,,,,,,,,,,,,,,,,,,,,,,,,,,,,,,,,,,,,,,,,,,,,,,,,,,,,181,1,2025-03-04_12h03.47.209,comp,2024.2.4,57.93685699446367,2025-03-04 12h06.00.591457 -0500,
,,,,,,,,,,,,,,,,,,,,,,,,,,,,,,,,,,,,,,,,,,,,,,,,,,,,21.65655016899109,21.67133140563965,23.673826456069946,,,,,,,,,,,,,,,,,,,,,,,,,,,,,,,,,,,,,,,,,,,,,,,,,,,,,,,,,,,,,,,,,,,,,,,,,,,,,,,,,,,,,,,,,,,,,,,,,,,,,,181,1,2025-03-04_12h03.47.209,comp,2024.2.4,57.93685699446367,2025-03-04 12h06.00.591457 -0500,
0,0,0,,,,,,,,,,,,,,,0,0,0,0,,,,,,,,,23.691218614578247,,,,,,,,,,,,,,,,,,,,,,,,,,23.67469882965088,23.691218614578247,23.691218614578247,25.168043613433838,28.153520107269287,space,2.9774789810180664,None,28.153674602508545,28.170472860336304,28.170472860336304,29.66926670074463,36.1377956867218,space,6.460560083389282,None,36.13794541358948,36.17037487030029,36.17037487030029,36.17037487030029,36.17037487030029,36.17037487030029,36.17037487030029,36.17037487030029,36.17037487030029,36.17037487030029,37.65369009971619,42.12447714805603,space,4.459199666976929,None,42.124640464782715,42.14595031738281,42.14595031738281,42.14595031738281,43.62231111526489,51.67585802078247,space,8.051278352737427,None,51.67602276802063,51.69210433959961,51.69210433959961,53.17300820350647,54.37837219238281,space,1.1880836486816406,None,54.378575563430786,54.39349842071533,54.39349842071533,55.74499273300171,space,1.3356106281280518,None,,,,,,,,,,,,,,,,,,,,,,,,,,,,,,,,,,,,,,,,,,,,,,,181,1,2025-03-04_12h03.47.209,comp,2024.2.4,57.93685699446367,2025-03-04 12h06.00.591457 -0500,
0,0,0,critical,hwd,20.0,2.1,upper,200.0,125.0,125.0,200.0,141.0,141.0,2,10.744946241378784,None,,,,,0,0,0,0,0,0,0,19,55.82431483268738,,,,,,,,,,,,,,,,,,,,,,,,,,,,,,,,,,,,,,,,,,,,,,,,,,,,,,,,,,,,,,,,,,,,,,,,,,,,,,,,,200.0,125.0,125.0,200.0,141.0,141.0,2.1,2.11,-258,287,0,262,266,-260,55.80747389793396,55.80752873420715,55.808940172195435,55.82431483268738,55.966689109802246,55.966689109802246,55.966689109802246,55.966689109802246,55.966689109802246,55.966689109802246,55.966689109802246,66.58246278762817,2,10.744946241378784,None,,,,,,,,,,,,,,,,,,181,1,2025-03-04_12h03.47.209,comp,2024.2.4,57.93685699446367,2025-03-04 12h06.00.591457 -0500,
1,1,0,filler_random,None,None,None,None,None,None,None,None,None,None,1,1.803748369216919,None,,,,,0,0,0,0,0,1,1,145,66.59717154502869,,,,,,,,,,,,,,,,,,,,,,,,,,,,,,,,,,,,,,,,,,,,,,,,,,,,,,,,,,,,,,,,,,,,,,,,,,,,,,,,,122.40073011660161,130.37855701720804,62.65326382217793,145.9122259863178,59.18159508781667,155.56598745928028,3.0,3.2,-234,-264,0,-9,247,260,66.58417081832886,66.584237575531,66.5869562625885,66.59717154502869,66.73650217056274,66.73650217056274,66.73650217056274,66.73650217056274,66.73650217056274,66.73650217056274,66.73650217056274,68.41759848594666,1,1.803748369216919,None,,,,,,,,,,,,,,,,,,181,1,2025-03-04_12h03.47.209,comp,2024.2.4,57.93685699446367,2025-03-04 12h06.00.591457 -0500,
2,2,0,filler_random,None,None,None,None,None,None,None,None,None,None,1,2.1991448402404785,None,,,,,0,0,0,0,0,2,2,150,68.4339644908905,,,,,,,,,,,,,,,,,,,,,,,,,,,,,,,,,,,,,,,,,,,,,,,,,,,,,,,,,,,,,,,,,,,,,,,,,,,,,,,,,116.45346248864936,133.0596212513995,194.30634300791908,65.97250234685238,81.27832490497366,64.85163324771315,2.2,2.22,-196,269,0,-255,161,-278,68.41965532302856,68.41973495483398,68.42362570762634,68.4339644908905,68.58154249191284,68.58154249191284,68.58154249191284,68.58154249191284,68.58154249191284,68.58154249191284,68.58154249191284,70.63962197303772,1,2.1991448402404785,None,,,,,,,,,,,,,,,,,,181,1,2025-03-04_12h03.47.209,comp,2024.2.4,57.93685699446367,2025-03-04 12h06.00.591457 -0500,
3,3,0,critical,hdw,20.0,3.0,lower,133.0,57.0,78.0,78.0,57.0,133.0,2,7.463987350463867,None,,,,,0,0,0,0,0,3,3,116,70.65746665000916,,,,,,,,,,,,,,,,,,,,,,,,,,,,,,,,,,,,,,,,,,,,,,,,,,,,,,,,,,,,,,,,,,,,,,,,,,,,,,,,,133.0,57.0,78.0,78.0,57.0,133.0,3.0,3.1,-164,264,0,-8,202,-254,70.64110732078552,70.64118242263794,70.64408659934998,70.65746665000916,70.80058193206787,70.80058193206787,70.80058193206787,70.80058193206787,70.80058193206787,70.80058193206787,70.80058193206787,78.12398743629456,2,7.463987350463867,None,,,,,,,,,,,,,,,,,,181,1,2025-03-04_12h03.47.209,comp,2024.2.4,57.93685699446367,2025-03-04 12h06.00.591457 -0500,
4,4,0,filler_square,None,None,None,None,None,None,None,None,None,None,2,1.9008958339691162,None,,,,,0,0,0,0,0,4,4,184,78.14044308662415,,,,,,,,,,,,,,,,,,,,,,,,,,,,,,,,,,,,,,,,,,,,,,,,,,,,,,,,,,,,,,,,,,,,,,,,,,,,,,,,,58.084206576312496,111.0866007459272,138.19297951676901,138.19297951676901,66.28457129988726,107.12341323304904,2.1,2.12,-221,-271,0,-274,219,277,78.12574696540833,78.12585759162903,78.12874603271484,78.14044308662415,78.28365564346313,78.28365564346313,78.28365564346313,78.28365564346313,78.28365564346313,78.28365564346313,78.28365564346313,80.04487299919128,2,1.9008958339691162,None,,,,,,,,,,,,,,,,,,181,1,2025-03-04_12h03.47.209,comp,2024.2.4,57.93685699446367,2025-03-04 12h06.00.591457 -0500,
5,5,0,critical,dhw,20.0,3.0,lower,78.0,78.0,133.0,57.0,57.0,133.0,1,11.25808572769165,None,,,,,0,0,0,0,0,5,5,56,80.06307172775269,,,,,,,,,,,,,,,,,,,,,,,,,,,,,,,,,,,,,,,,,,,,,,,,,,,,,,,,,,,,,,,,,,,,,,,,,,,,,,,,,78.0,78.0,133.0,57.0,57.0,133.0,3.0,3.1,-164,274,0,7,191,-264,80.04641318321228,80.04648756980896,80.04983401298523,80.06307172775269,80.20324921607971,80.20324921607971,80.20324921607971,80.20324921607971,80.20324921607971,80.20324921607971,80.20324921607971,91.32320928573608,1,11.25808572769165,None,,,,,,,,,,,,,,,,,,181,1,2025-03-04_12h03.47.209,comp,2024.2.4,57.93685699446367,2025-03-04 12h06.00.591457 -0500,
6,6,0,critical,hwd,35.0,2.1,upper,200.0,125.0,125.0,200.0,127.0,127.0,2,13.105644464492798,None,,,,,0,0,0,0,0,6,6,41,91.3442919254303,,,,,,,,,,,,,,,,,,,,,,,,,,,,,,,,,,,,,,,,,,,,,,,,,,,,,,,,,,,,,,,,,,,,,,,,,,,,,,,,,200.0,125.0,125.0,200.0,127.0,127.0,2.1,2.12,-258,-257,0,-260,260,267,91.32467126846313,91.32475233078003,91.32785749435425,91.3442919254303,91.47933530807495,91.47933530807495,91.47933530807495,91.47933530807495,91.47933530807495,91.47933530807495,91.47933530807495,104.45753073692322,2,13.105644464492798,None,,,,,,,,,,,,,,,,,,181,1,2025-03-04_12h03.47.209,comp,2024.2.4,57.93685699446367,2025-03-04 12h06.00.591457 -0500,
7,7,0,filler_square,None,None,None,None,None,None,None,None,None,None,2,1.4628055095672607,None,,,,,0,0,0,0,0,7,7,174,104.47419166564941,,,,,,,,,,,,,,,,,,,,,,,,,,,,,,,,,,,,,,,,,,,,,,,,,,,,,,,,,,,,,,,,,,,,,,,,,,,,,,,,,100.70453913216159,71.25384746650946,117.94809203216596,117.94809203216596,68.84732103033274,93.98964578757369,2.1,2.11,-191,258,0,257,202,-266,104.45930123329163,104.45937824249268,104.46226835250854,104.47419166564941,104.61428475379944,104.61428475379944,104.61428475379944,104.61428475379944,104.61428475379944,104.61428475379944,104.61428475379944,105.95146203041077,2,1.4628055095672607,None,,,,,,,,,,,,,,,,,,181,1,2025-03-04_12h03.47.209,comp,2024.2.4,57.93685699446367,2025-03-04 12h06.00.591457 -0500,
8,8,0,critical,whd,35.0,2.1,upper,125.0,200.0,200.0,125.0,127.0,127.0,1,2.9841980934143066,None,,,,,0,0,0,0,0,8,8,13,105.96979308128357,,,,,,,,,,,,,,,,,,,,,,,,,,,,,,,,,,,,,,,,,,,,,,,,,,,,,,,,,,,,,,,,,,,,,,,,,,,,,,,,,125.0,200.0,200.0,125.0,127.0,127.0,2.1,2.11,-258,271,0,258,222,-263,105.95313835144043,105.95327067375183,105.95661211013794,105.96979308128357,106.11192774772644,106.11192774772644,106.11192774772644,106.11192774772644,106.11192774772644,106.11192774772644,106.11192774772644,108.96285939216614,1,2.9841980934143066,None,,,,,,,,,,,,,,,,,,181,1,2025-03-04_12h03.47.209,comp,2024.2.4,57.93685699446367,2025-03-04 12h06.00.591457 -0500,
9,9,0,critical,wdh,20.0,2.1,lower,57.0,133.0,78.0,78.0,133.0,57.0,2,2.262939691543579,None,,,,,0,0,0,0,0,9,9,34,108.97839188575745,,,,,,,,,,,,,,,,,,,,,,,,,,,,,,,,,,,,,,,,,,,,,,,,,,,,,,,,,,,,,,,,,,,,,,,,,,,,,,,,,57.0,133.0,78.0,78.0,133.0,57.0,2.1,2.11,-202,285,0,269,164,-286,108.96446585655212,108.96459627151489,108.96794128417969,108.97839188575745,109.13096213340759,109.13096213340759,109.13096213340759,109.13096213340759,109.13096213340759,109.13096213340759,109.13096213340759,111.24517917633057,2,2.262939691543579,None,,,,,,,,,,,,,,,,,,181,1,2025-03-04_12h03.47.209,comp,2024.2.4,57.93685699446367,2025-03-04 12h06.00.591457 -0500,
10,10,0,filler_random,None,None,None,None,None,None,None,None,None,None,3,1.625380277633667,None,,,,,0,0,0,0,0,10,10,169,111.26454854011536,,,,,,,,,,,,,,,,,,,,,,,,,,,,,,,,,,,,,,,,,,,,,,,,,,,,,,,,,,,,,,,,,,,,,,,,,,,,,,,,,154.91098944513337,70.91804946009412,151.40307566418932,112.08460425782701,99.62735149590105,148.88587603862322,3.0,3.2,-188,-275,0,-16,226,282,111.2468478679657,111.2469277381897,111.25001525878906,111.26454854011536,111.41279911994934,111.41279911994934,111.41279911994934,111.41279911994934,111.41279911994934,111.41279911994934,111.41279911994934,112.89843440055847,3,1.625380277633667,None,,,,,,,,,,,,,,,,,,181,1,2025-03-04_12h03.47.209,comp,2024.2.4,57.93685699446367,2025-03-04 12h06.00.591457 -0500,
11,11,0,critical,whd,35.0,2.1,lower,57.0,133.0,133.0,57.0,70.0,70.0,1,7.5189409255981445,None,,,,,0,0,0,0,0,11,11,36,112.91413235664368,,,,,,,,,,,,,,,,,,,,,,,,,,,,,,,,,,,,,,,,,,,,,,,,,,,,,,,,,,,,,,,,,,,,,,,,,,,,,,,,,57.0,133.0,133.0,57.0,70.0,70.0,2.1,2.11,-191,287,0,281,160,-261,112.90010738372803,112.9001886844635,112.90334296226501,112.91413235664368,113.06803464889526,113.06803464889526,113.06803464889526,113.06803464889526,113.06803464889526,113.06803464889526,113.06803464889526,120.44940948486328,1,7.5189409255981445,None,,,,,,,,,,,,,,,,,,181,1,2025-03-04_12h03.47.209,comp,2024.2.4,57.93685699446367,2025-03-04 12h06.00.591457 -0500,
12,12,0,critical,dhw,20.0,3.0,upper,141.0,141.0,200.0,125.0,125.0,200.0,3,1.6723532676696777,None,,,,,0,0,0,0,0,12,12,57,120.46469712257385,,,,,,,,,,,,,,,,,,,,,,,,,,,,,,,,,,,,,,,,,,,,,,,,,,,,,,,,,,,,,,,,,,,,,,,,,,,,,,,,,141.0,141.0,200.0,125.0,125.0,200.0,3.0,3.1,-229,267,0,-7,258,-261,120.4509425163269,120.45103883743286,120.45441198348999,120.46469712257385,120.61590576171875,120.61590576171875,120.61590576171875,120.61590576171875,120.61590576171875,120.61590576171875,120.61590576171875,122.14669799804688,3,1.6723532676696777,None,,,,,,,,,,,,,,,,,,181,1,2025-03-04_12h03.47.209,comp,2024.2.4,57.93685699446367,2025-03-04 12h06.00.591457 -0500,
13,13,0,critical,hdw,20.0,4.0,lower,133.0,57.0,78.0,78.0,57.0,133.0,2,1.3097386360168457,None,,,,,0,0,0,0,0,13,13,118,122.16336393356323,,,,,,,,,,,,,,,,,,,,,,,,,,,,,,,,,,,,,,,,,,,,,,,,,,,,,,,,,,,,,,,,,,,,,,,,,,,,,,,,,133.0,57.0,78.0,78.0,57.0,133.0,4.0,4.2,-164,-3,0,-278,202,0,122.14826512336731,122.14834356307983,122.15124201774597,122.16336393356323,122.30035328865051,122.30035328865051,122.30035328865051,122.30035328865051,122.30035328865051,122.30035328865051,122.30035328865051,123.48312377929688,2,1.3097386360168457,None,,,,,,,,,,,,,,,,,,181,1,2025-03-04_12h03.47.209,comp,2024.2.4,57.93685699446367,2025-03-04 12h06.00.591457 -0500,
14,14,0,critical,whd,35.0,2.1,upper,125.0,200.0,200.0,125.0,127.0,127.0,1,3.0712852478027344,None,,,,,0,0,0,0,0,14,14,37,123.49774122238159,,,,,,,,,,,,,,,,,,,,,,,,,,,,,,,,,,,,,,,,,,,,,,,,,,,,,,,,,,,,,,,,,,,,,,,,,,,,,,,,,125.0,200.0,200.0,125.0,127.0,127.0,2.1,2.11,-258,263,0,266,222,-280,123.48469305038452,123.48481154441833,123.48791289329529,123.49774122238159,123.65042448043823,123.65042448043823,123.65042448043823,123.65042448043823,123.65042448043823,123.65042448043823,123.65042448043823,126.5838553905487,1,3.0712852478027344,None,,,,,,,,,,,,,,,,,,181,1,2025-03-04_12h03.47.209,comp,2024.2.4,57.93685699446367,2025-03-04 12h06.00.591457 -0500,
15,15,0,filler_square,None,None,None,None,None,None,None,None,None,None,1,4.016906976699829,None,,,,,0,0,0,0,0,15,15,195,126.6002287864685,,,,,,,,,,,,,,,,,,,,,,,,,,,,,,,,,,,,,,,,,,,,,,,,,,,,,,,,,,,,,,,,,,,,,,,,,,,,,,,,,58.523279762123224,58.523279762123224,57.92407180464788,58.00000573371671,58.038055760761274,58.09842228823348,1.0,1.3,326,-281,480,-266,634,-277,126.58553099632263,126.58560562133789,126.5888888835907,126.6002287864685,126.73446679115295,126.73446679115295,126.73446679115295,126.73446679115295,126.73446679115295,126.73446679115295,126.73446679115295,130.635356426239,1,4.016906976699829,None,,,,,,,,,,,,,,,,,,181,1,2025-03-04_12h03.47.209,comp,2024.2.4,57.93685699446367,2025-03-04 12h06.00.591457 -0500,
16,16,0,critical,hwd,35.0,3.0,lower,133.0,57.0,57.0,133.0,70.0,70.0,3,7.821799993515015,None,,,,,0,0,0,0,0,16,16,98,130.6513876914978,,,,,,,,,,,,,,,,,,,,,,,,,,,,,,,,,,,,,,,,,,,,,,,,,,,,,,,,,,,,,,,,,,,,,,,,,,,,,,,,,133.0,57.0,57.0,133.0,70.0,70.0,3.0,3.1,-191,272,0,-7,198,-270,130.63690423965454,130.6369812488556,130.6400969028473,130.6513876914978,130.80246925354004,130.80246925354004,130.80246925354004,130.80246925354004,130.80246925354004,130.80246925354004,130.80246925354004,138.48790907859802,3,7.821799993515015,None,,,,,,,,,,,,,,,,,,181,1,2025-03-04_12h03.47.209,comp,2024.2.4,57.93685699446367,2025-03-04 12h06.00.591457 -0500,
17,17,0,critical,hwd,20.0,2.1,upper,200.0,125.0,125.0,200.0,141.0,141.0,2,3.059191942214966,None,,,,,0,0,0,0,0,17,17,43,138.50314116477966,,,,,,,,,,,,,,,,,,,,,,,,,,,,,,,,,,,,,,,,,,,,,,,,,,,,,,,,,,,,,,,,,,,,,,,,,,,,,,,,,200.0,125.0,125.0,200.0,141.0,141.0,2.1,2.11,-258,268,0,258,266,-271,138.48947715759277,138.4895567893982,138.49280047416687,138.50314116477966,138.65440487861633,138.65440487861633,138.65440487861633,138.65440487861633,138.65440487861633,138.65440487861633,138.65440487861633,141.57250881195068,2,3.059191942214966,None,,,,,,,,,,,,,,,,,,181,1,2025-03-04_12h03.47.209,comp,2024.2.4,57.93685699446367,2025-03-04 12h06.00.591457 -0500,
18,18,0,critical,wdh,35.0,4.0,upper,125.0,200.0,127.0,127.0,200.0,125.0,1,1.9820222854614258,None,,,,,0,0,0,0,0,18,18,77,141.58748078346252,,,,,,,,,,,,,,,,,,,,,,,,,,,,,,,,,,,,,,,,,,,,,,,,,,,,,,,,,,,,,,,,,,,,,,,,,,,,,,,,,125.0,200.0,127.0,127.0,200.0,125.0,4.0,4.1,-260,-284,0,-9,222,-276,141.574147939682,141.57422256469727,141.57765293121338,141.58748078346252,141.7450590133667,141.7450590133667,141.7450590133667,141.7450590133667,141.7450590133667,141.7450590133667,141.7450590133667,143.57181525230408,1,1.9820222854614258,None,,,,,,,,,,,,,,,,,,181,1,2025-03-04_12h03.47.209,comp,2024.2.4,57.93685699446367,2025-03-04 12h06.00.591457 -0500,
19,19,0,critical,hwd,20.0,1.0,upper,200.0,125.0,125.0,200.0,141.0,141.0,2,1.4054884910583496,None,,,,,0,0,0,0,0,19,19,103,143.58809876441956,,,,,,,,,,,,,,,,,,,,,,,,,,,,,,,,,,,,,,,,,,,,,,,,,,,,,,,,,,,,,,,,,,,,,,,,,,,,,,,,,200.0,125.0,125.0,200.0,141.0,141.0,1.0,1.3,222,-280,480,-262,746,-265,143.57347226142883,143.57355284690857,143.57691407203674,143.58809876441956,143.73845744132996,143.73845744132996,143.73845744132996,143.73845744132996,143.73845744132996,143.73845744132996,143.73845744132996,145.00451683998108,2,1.4054884910583496,None,,,,,,,,,,,,,,,,,,181,1,2025-03-04_12h03.47.209,comp,2024.2.4,57.93685699446367,2025-03-04 12h06.00.591457 -0500,
20,20,0,critical,dhw,35.0,1.0,upper,127.0,127.0,200.0,125.0,125.0,200.0,3,4.600235462188721,None,,,,,0,0,0,0,0,20,20,49,145.0254864692688,,,,,,,,,,,,,,,,,,,,,,,,,,,,,,,,,,,,,,,,,,,,,,,,,,,,,,,,,,,,,,,,,,,,,,,,,,,,,,,,,127.0,127.0,200.0,125.0,125.0,200.0,1.0,1.1,-702,279,-480,273,-222,276,145.00612664222717,145.00621604919434,145.00949692726135,145.0254864692688,145.15781116485596,145.15781116485596,145.15781116485596,145.15781116485596,145.15781116485596,145.15781116485596,145.15781116485596,149.62796092033386,3,4.600235462188721,None,,,,,,,,,,,,,,,,,,181,1,2025-03-04_12h03.47.209,comp,2024.2.4,57.93685699446367,2025-03-04 12h06.00.591457 -0500,
21,21,0,critical,whd,20.0,1.0,lower,57.0,133.0,133.0,57.0,78.0,78.0,3,7.116506576538086,None,,,,,0,0,0,0,0,21,21,90,149.64480233192444,,,,,,,,,,,,,,,,,,,,,,,,,,,,,,,,,,,,,,,,,,,,,,,,,,,,,,,,,,,,,,,,,,,,,,,,,,,,,,,,,57.0,133.0,133.0,57.0,78.0,78.0,1.0,1.2,-191,10,0,0,164,-13,149.62951588630676,149.62959742546082,149.63259744644165,149.64480233192444,149.79082584381104,149.79082584381104,149.79082584381104,149.79082584381104,149.79082584381104,149.79082584381104,149.79082584381104,156.7795009613037,3,7.116506576538086,None,,,,,,,,,,,,,,,,,,181,1,2025-03-04_12h03.47.209,comp,2024.2.4,57.93685699446367,2025-03-04 12h06.00.591457 -0500,
22,22,0,critical,hdw,35.0,1.0,upper,200.0,125.0,127.0,127.0,125.0,200.0,3,2.2630038261413574,None,,,,,0,0,0,0,0,22,22,109,156.7948455810547,,,,,,,,,,,,,,,,,,,,,,,,,,,,,,,,,,,,,,,,,,,,,,,,,,,,,,,,,,,,,,,,,,,,,,,,,,,,,,,,,200.0,125.0,127.0,127.0,125.0,200.0,1.0,1.3,258,-258,480,-276,740,-261,156.78114771842957,156.78122663497925,156.7845220565796,156.7948455810547,156.94304513931274,156.94304513931274,156.94304513931274,156.94304513931274,156.94304513931274,156.94304513931274,156.94304513931274,159.07643961906433,3,2.2630038261413574,None,,,,,,,,,,,,,,,,,,181,1,2025-03-04_12h03.47.209,comp,2024.2.4,57.93685699446367,2025-03-04 12h06.00.591457 -0500,
23,23,0,critical,hwd,35.0,2.1,upper,200.0,125.0,125.0,200.0,127.0,127.0,2,5.029013633728027,None,,,,,0,0,0,0,0,23,23,17,159.09215188026428,,,,,,,,,,,,,,,,,,,,,,,,,,,,,,,,,,,,,,,,,,,,,,,,,,,,,,,,,,,,,,,,,,,,,,,,,,,,,,,,,200.0,125.0,125.0,200.0,127.0,127.0,2.1,2.12,-258,-270,0,-288,260,260,159.07796835899353,159.07804250717163,159.08096957206726,159.09215188026428,159.2329843044281,159.2329843044281,159.2329843044281,159.2329843044281,159.2329843044281,159.2329843044281,159.2329843044281,164.1346206665039,2,5.029013633728027,None,,,,,,,,,,,,,,,,,,181,1,2025-03-04_12h03.47.209,comp,2024.2.4,57.93685699446367,2025-03-04 12h06.00.591457 -0500,
24,24,0,filler_random,None,None,None,None,None,None,None,None,None,None,1,1.1562213897705078,None,,,,,0,0,0,0,0,24,24,160,164.14983582496643,,,,,,,,,,,,,,,,,,,,,,,,,,,,,,,,,,,,,,,,,,,,,,,,,,,,,,,,,,,,,,,,,,,,,,,,,,,,,,,,,149.86441919750655,156.8676840413249,148.97371418229068,117.70837896823286,170.30424155225865,129.69679033943459,3.0,3.2,-233,-273,0,3,220,252,164.13651633262634,164.13659477233887,164.1395411491394,164.14983582496643,164.29749965667725,164.29749965667725,164.29749965667725,164.29749965667725,164.29749965667725,164.29749965667725,164.29749965667725,165.31140398979187,1,1.1562213897705078,None,,,,,,,,,,,,,,,,,,181,1,2025-03-04_12h03.47.209,comp,2024.2.4,57.93685699446367,2025-03-04 12h06.00.591457 -0500,
25,25,0,critical,whd,35.0,2.1,lower,57.0,133.0,133.0,57.0,70.0,70.0,3,1.734546184539795,None,,,,,0,0,0,0,0,25,25,12,165.33086943626404,,,,,,,,,,,,,,,,,,,,,,,,,,,,,,,,,,,,,,,,,,,,,,,,,,,,,,,,,,,,,,,,,,,,,,,,,,,,,,,,,57.0,133.0,133.0,57.0,70.0,70.0,2.1,2.12,-191,-289,0,-289,160,264,165.31305360794067,165.3131308555603,165.3165307044983,165.33086943626404,165.47931337356567,165.47931337356567,165.47931337356567,165.47931337356567,165.47931337356567,165.47931337356567,165.47931337356567,167.07042169570923,3,1.734546184539795,None,,,,,,,,,,,,,,,,,,181,1,2025-03-04_12h03.47.209,comp,2024.2.4,57.93685699446367,2025-03-04 12h06.00.591457 -0500,
26,26,0,critical,dhw,35.0,3.0,upper,127.0,127.0,200.0,125.0,125.0,200.0,3,1.3905022144317627,None,,,,,0,0,0,0,0,26,26,51,167.090660572052,,,,,,,,,,,,,,,,,,,,,,,,,,,,,,,,,,,,,,,,,,,,,,,,,,,,,,,,,,,,,,,,,,,,,,,,,,,,,,,,,127.0,127.0,200.0,125.0,125.0,200.0,3.0,3.2,-222,-257,0,12,258,256,167.07197833061218,167.07205724716187,167.07503247261047,167.090660572052,167.2266685962677,167.2266685962677,167.2266685962677,167.2266685962677,167.2266685962677,167.2266685962677,167.2266685962677,168.49800944328308,3,1.3905022144317627,None,,,,,,,,,,,,,,,,,,181,1,2025-03-04_12h03.47.209,comp,2024.2.4,57.93685699446367,2025-03-04 12h06.00.591457 -0500,
27,27,0,critical,whd,20.0,1.0,upper,125.0,200.0,200.0,125.0,141.0,141.0,1,1.7194223403930664,None,,,,,0,0,0,0,0,27,27,91,168.5137197971344,,,,,,,,,,,,,,,,,,,,,,,,,,,,,,,,,,,,,,,,,,,,,,,,,,,,,,,,,,,,,,,,,,,,,,,,,,,,,,,,,125.0,200.0,200.0,125.0,141.0,141.0,1.0,1.1,-738,255,-480,277,-251,282,168.49970841407776,168.4998595714569,168.50333404541016,168.5137197971344,168.6672716140747,168.6672716140747,168.6672716140747,168.6672716140747,168.6672716140747,168.6672716140747,168.6672716140747,170.2476029396057,1,1.7194223403930664,None,,,,,,,,,,,,,,,,,,181,1,2025-03-04_12h03.47.209,comp,2024.2.4,57.93685699446367,2025-03-04 12h06.00.591457 -0500,
28,28,0,critical,dwh,20.0,1.0,upper,141.0,141.0,125.0,200.0,200.0,125.0,2,1.185819387435913,None,,,,,0,0,0,0,0,28,28,67,170.26343441009521,,,,,,,,,,,,,,,,,,,,,,,,,,,,,,,,,,,,,,,,,,,,,,,,,,,,,,,,,,,,,,,,,,,,,,,,,,,,,,,,,141.0,141.0,125.0,200.0,200.0,125.0,1.0,1.3,214,-268,480,-261,738,-263,170.24914598464966,170.24922466278076,170.2524094581604,170.26343441009521,170.42016458511353,170.42016458511353,170.42016458511353,170.42016458511353,170.42016458511353,170.42016458511353,170.42016458511353,171.47339725494385,2,1.185819387435913,None,,,,,,,,,,,,,,,,,,181,1,2025-03-04_12h03.47.209,comp,2024.2.4,57.93685699446367,2025-03-04 12h06.00.591457 -0500,
29,29,0,filler_square,None,None,None,None,None,None,None,None,None,None,1,1.1194498538970947,None,,,,,0,0,0,0,0,29,29,199,171.49015736579895,,,,,,,,,,,,,,,,,,,,,,,,,,,,,,,,,,,,,,,,,,,,,,,,,,,,,,,,,,,,,,,,,,,,,,,,,,,,,,,,,78.79389015240507,78.79389015240507,76.612636704799,75.92965058657074,63.38677367041959,58.41917592893453,4.0,4.1,-173,-287,0,4,163,-285,171.47545289993286,171.4755311012268,171.47882747650146,171.49015736579895,171.6320972442627,171.6320972442627,171.6320972442627,171.6320972442627,171.6320972442627,171.6320972442627,171.6320972442627,172.6155595779419,1,1.1194498538970947,None,,,,,,,,,,,,,,,,,,181,1,2025-03-04_12h03.47.209,comp,2024.2.4,57.93685699446367,2025-03-04 12h06.00.591457 -0500,
30,30,0,critical,dwh,20.0,2.1,upper,141.0,141.0,125.0,200.0,200.0,125.0,2,1.1879477500915527,None,,,,,0,0,0,0,0,30,30,7,172.62939476966858,,,,,,,,,,,,,,,,,,,,,,,,,,,,,,,,,,,,,,,,,,,,,,,,,,,,,,,,,,,,,,,,,,,,,,,,,,,,,,,,,141.0,141.0,125.0,200.0,200.0,125.0,2.1,2.11,-266,268,0,262,258,-252,172.6160328388214,172.6160545349121,172.61684322357178,172.62939476966858,172.7850432395935,172.7850432395935,172.7850432395935,172.7850432395935,172.7850432395935,172.7850432395935,172.7850432395935,173.83634901046753,2,1.1879477500915527,None,,,,,,,,,,,,,,,,,,181,1,2025-03-04_12h03.47.209,comp,2024.2.4,57.93685699446367,2025-03-04 12h06.00.591457 -0500,
31,31,0,critical,hwd,20.0,1.0,lower,133.0,57.0,57.0,133.0,78.0,78.0,3,1.5871427059173584,None,,,,,0,0,0,0,0,31,31,102,173.8541145324707,,,,,,,,,,,,,,,,,,,,,,,,,,,,,,,,,,,,,,,,,,,,,,,,,,,,,,,,,,,,,,,,,,,,,,,,,,,,,,,,,133.0,57.0,57.0,133.0,78.0,78.0,1.0,1.3,289,-266,480,-286,682,-285,173.83798170089722,173.83806204795837,173.8411786556244,173.8541145324707,173.9983971118927,173.9983971118927,173.9983971118927,173.9983971118927,173.9983971118927,173.9983971118927,173.9983971118927,175.45510578155518,3,1.5871427059173584,None,,,,,,,,,,,,,,,,,,181,1,2025-03-04_12h03.47.209,comp,2024.2.4,57.93685699446367,2025-03-04 12h06.00.591457 -0500,
32,32,0,filler_square,None,None,None,None,None,None,None,None,None,None,1,1.3461241722106934,None,,,,,0,0,0,0,0,32,32,194,175.47107696533203,,,,,,,,,,,,,,,,,,,,,,,,,,,,,,,,,,,,,,,,,,,,,,,,,,,,,,,,,,,,,,,,,,,,,,,,,,,,,,,,,116.03778726267922,116.03778726267922,99.43795527296099,97.45822622304692,87.50035857567984,67.2965615910811,4.0,4.2,-203,-8,0,-261,178,15,175.45692777633667,175.45700693130493,175.459894657135,175.47107696533203,175.6133210659027,175.6133210659027,175.6133210659027,175.6133210659027,175.6133210659027,175.6133210659027,175.6133210659027,176.8332953453064,1,1.3461241722106934,None,,,,,,,,,,,,,,,,,,181,1,2025-03-04_12h03.47.209,comp,2024.2.4,57.93685699446367,2025-03-04 12h06.00.591457 -0500,
33,33,0,critical,dwh,20.0,2.1,lower,78.0,78.0,57.0,133.0,133.0,57.0,1,1.8241190910339355,None,,,,,0,0,0,0,0,33,33,6,176.84966325759888,,,,,,,,,,,,,,,,,,,,,,,,,,,,,,,,,,,,,,,,,,,,,,,,,,,,,,,,,,,,,,,,,,,,,,,,,,,,,,,,,78.0,78.0,57.0,133.0,133.0,57.0,2.1,2.12,-202,-273,0,-270,191,273,176.83484387397766,176.83491826057434,176.8384611606598,176.84966325759888,177.00528979301453,177.00528979301453,177.00528979301453,177.00528979301453,177.00528979301453,177.00528979301453,177.00528979301453,178.68658113479614,1,1.8241190910339355,None,,,,,,,,,,,,,,,,,,181,1,2025-03-04_12h03.47.209,comp,2024.2.4,57.93685699446367,2025-03-04 12h06.00.591457 -0500,
34,34,0,critical,dwh,35.0,3.0,lower,70.0,70.0,57.0,133.0,133.0,57.0,2,1.6989045143127441,None,,,,,0,0,0,0,0,34,34,62,178.70243453979492,,,,,,,,,,,,,,,,,,,,,,,,,,,,,,,,,,,,,,,,,,,,,,,,,,,,,,,,,,,,,,,,,,,,,,,,,,,,,,,,,70.0,70.0,57.0,133.0,133.0,57.0,3.0,3.1,-198,253,0,6,191,-274,178.68831396102905,178.68841004371643,178.69213724136353,178.70243453979492,178.85057735443115,178.85057735443115,178.85057735443115,178.85057735443115,178.85057735443115,178.85057735443115,178.85057735443115,180.41642045974731,2,1.6989045143127441,None,,,,,,,,,,,,,,,,,,181,1,2025-03-04_12h03.47.209,comp,2024.2.4,57.93685699446367,2025-03-04 12h06.00.591457 -0500,
35,35,0,catch,None,None,None,None,None,None,None,None,None,None,3,1.0652401447296143,None,,,,,0,0,0,0,0,35,35,124,180.43257021903992,,,,,,,,,,,,,,,,,,,,,,,,,,,,,,,,,,,,,,,,,,,,,,,,,,,,,,,,,,,,,,,,,,,,,,,,,,,,,,,,,73,117,107,83,141,184,3.0,3.2,-196,-283,0,-6,230,267,180.4185655117035,180.418639421463,180.4220244884491,180.43257021903992,180.5741491317749,180.5741491317749,180.5741491317749,180.5741491317749,180.5741491317749,180.5741491317749,180.5741491317749,181.503573179245,3,1.0652401447296143,None,,,,,,,,,,,,,,,,,,181,1,2025-03-04_12h03.47.209,comp,2024.2.4,57.93685699446367,2025-03-04 12h06.00.591457 -0500,
36,36,0,critical,hwd,20.0,4.0,upper,200.0,125.0,125.0,200.0,141.0,141.0,2,2.2505757808685303,None,,,,,0,0,0,0,0,36,36,107,181.51904582977295,,,,,,,,,,,,,,,,,,,,,,,,,,,,,,,,,,,,,,,,,,,,,,,,,,,,,,,,,,,,,,,,,,,,,,,,,,,,,,,,,200.0,125.0,125.0,200.0,141.0,141.0,4.0,4.2,-258,-16,0,-288,266,9,181.5051872730255,181.50526642799377,181.50842118263245,181.51904582977295,181.66971063613892,181.66971063613892,181.66971063613892,181.66971063613892,181.66971063613892,181.66971063613892,181.66971063613892,183.77811789512634,2,2.2505757808685303,None,,,,,,,,,,,,,,,,,,181,1,2025-03-04_12h03.47.209,comp,2024.2.4,57.93685699446367,2025-03-04 12h06.00.591457 -0500,
37,37,0,filler_square,None,None,None,None,None,None,None,None,None,None,1,0.9265904426574707,None,,,,,0,0,0,0,0,37,37,193,183.79463028907776,,,,,,,,,,,,,,,,,,,,,,,,,,,,,,,,,,,,,,,,,,,,,,,,,,,,,,,,,,,,,,,,,,,,,,,,,,,,,,,,,124.24247818348319,124.24247818348319,83.01383485571483,99.28993116403365,74.65103474652688,116.64586564054517,4.0,4.1,-208,-286,0,13,204,-271,183.7799744606018,183.78005290031433,183.7829372882843,183.79463028907776,183.93586039543152,183.93586039543152,183.93586039543152,183.93586039543152,183.93586039543152,183.93586039543152,183.93586039543152,184.73941349983215,1,0.9265904426574707,None,,,,,,,,,,,,,,,,,,181,1,2025-03-04_12h03.47.209,comp,2024.2.4,57.93685699446367,2025-03-04 12h06.00.591457 -0500,
38,38,0,catch,None,None,None,None,None,None,None,None,None,None,1,0.7540738582611084,None,,,,,0,0,0,0,0,38,38,123,184.7595477104187,,,,,,,,,,,,,,,,,,,,,,,,,,,,,,,,,,,,,,,,,,,,,,,,,,,,,,,,,,,,,,,,,,,,,,,,,,,,,,,,,159,166,98,92,66,124,3.0,3.2,-225,-277,0,7,204,287,184.74125385284424,184.7413306236267,184.744380235672,184.7595477104187,184.90909051895142,184.90909051895142,184.90909051895142,184.90909051895142,184.90909051895142,184.90909051895142,184.90909051895142,185.52045702934265,1,0.7540738582611084,None,,,,,,,,,,,,,,,,,,181,1,2025-03-04_12h03.47.209,comp,2024.2.4,57.93685699446367,2025-03-04 12h06.00.591457 -0500,
39,39,0,filler_random,None,None,None,None,None,None,None,None,None,None,3,1.5479528903961182,None,,,,,0,0,0,0,0,39,39,161,185.54127097129822,,,,,,,,,,,,,,,,,,,,,,,,,,,,,,,,,,,,,,,,,,,,,,,,,,,,,,,,,,,,,,,,,,,,,,,,,,,,,,,,,135.4697945057361,95.56929677727756,178.60065541796678,127.87631983748307,123.04424451118129,150.0210938139369,2.1,2.12,-208,-277,0,-266,235,264,185.5221586227417,185.52223563194275,185.52535820007324,185.54127097129822,185.6859803199768,185.6859803199768,185.6859803199768,185.6859803199768,185.6859803199768,185.6859803199768,185.6859803199768,187.10440587997437,3,1.5479528903961182,None,,,,,,,,,,,,,,,,,,181,1,2025-03-04_12h03.47.209,comp,2024.2.4,57.93685699446367,2025-03-04 12h06.00.591457 -0500,
40,40,0,critical,whd,35.0,3.0,lower,57.0,133.0,133.0,57.0,70.0,70.0,3,4.681306600570679,None,,,,,0,0,0,0,0,40,40,86,187.1203007698059,,,,,,,,,,,,,,,,,,,,,,,,,,,,,,,,,,,,,,,,,,,,,,,,,,,,,,,,,,,,,,,,,,,,,,,,,,,,,,,,,57.0,133.0,133.0,57.0,70.0,70.0,3.0,3.2,-191,-282,0,-3,160,262,187.10600090026855,187.10611033439636,187.10970497131348,187.1203007698059,187.2668421268463,187.2668421268463,187.2668421268463,187.2668421268463,187.2668421268463,187.2668421268463,187.2668421268463,191.80374240875244,3,4.681306600570679,None,,,,,,,,,,,,,,,,,,181,1,2025-03-04_12h03.47.209,comp,2024.2.4,57.93685699446367,2025-03-04 12h06.00.591457 -0500,
41,41,0,critical,whd,35.0,4.0,upper,125.0,200.0,200.0,125.0,127.0,127.0,1,1.8816173076629639,None,,,,,0,0,0,0,0,41,41,89,191.82387375831604,,,,,,,,,,,,,,,,,,,,,,,,,,,,,,,,,,,,,,,,,,,,,,,,,,,,,,,,,,,,,,,,,,,,,,,,,,,,,,,,,125.0,200.0,200.0,125.0,127.0,127.0,4.0,4.2,-258,11,0,-272,222,2,191.805321931839,191.80540013313293,191.8086621761322,191.82387375831604,191.97116494178772,191.97116494178772,191.97116494178772,191.97116494178772,191.97116494178772,191.97116494178772,191.97116494178772,193.7220265865326,1,1.8816173076629639,None,,,,,,,,,,,,,,,,,,181,1,2025-03-04_12h03.47.209,comp,2024.2.4,57.93685699446367,2025-03-04 12h06.00.591457 -0500,
42,42,0,critical,dhw,35.0,2.1,upper,127.0,127.0,200.0,125.0,125.0,200.0,3,1.5515024662017822,None,,,,,0,0,0,0,0,42,42,25,193.7380073070526,,,,,,,,,,,,,,,,,,,,,,,,,,,,,,,,,,,,,,,,,,,,,,,,,,,,,,,,,,,,,,,,,,,,,,,,,,,,,,,,,127.0,127.0,200.0,125.0,125.0,200.0,2.1,2.12,-222,-274,0,-252,258,274,193.7238073348999,193.72393989562988,193.72740268707275,193.7380073070526,193.8907277584076,193.8907277584076,193.8907277584076,193.8907277584076,193.8907277584076,193.8907277584076,193.8907277584076,195.29196882247925,3,1.5515024662017822,None,,,,,,,,,,,,,,,,,,181,1,2025-03-04_12h03.47.209,comp,2024.2.4,57.93685699446367,2025-03-04 12h06.00.591457 -0500,
43,43,0,filler_square,None,None,None,None,None,None,None,None,None,None,3,1.6742749214172363,None,,,,,0,0,0,0,0,43,43,208,195.3112018108368,,,,,,,,,,,,,,,,,,,,,,,,,,,,,,,,,,,,,,,,,,,,,,,,,,,,,,,,,,,,,,,,,,,,,,,,,,,,,,,,,79.13826935058685,116.47588732600539,112.50681612380096,118.36211063827945,179.80492215771295,179.80492215771295,2.2,2.22,-213,275,0,-269,245,-269,195.2944905757904,195.29457116127014,195.29745888710022,195.3112018108368,195.45599842071533,195.45599842071533,195.45599842071533,195.45599842071533,195.45599842071533,195.45599842071533,195.45599842071533,196.9875226020813,3,1.6742749214172363,None,,,,,,,,,,,,,,,,,,181,1,2025-03-04_12h03.47.209,comp,2024.2.4,57.93685699446367,2025-03-04 12h06.00.591457 -0500,
44,44,0,critical,wdh,35.0,2.1,upper,125.0,200.0,127.0,127.0,200.0,125.0,3,2.6061346530914307,None,,,,,0,0,0,0,0,44,44,9,197.00362825393677,,,,,,,,,,,,,,,,,,,,,,,,,,,,,,,,,,,,,,,,,,,,,,,,,,,,,,,,,,,,,,,,,,,,,,,,,,,,,,,,,125.0,200.0,127.0,127.0,200.0,125.0,2.1,2.12,-260,-273,0,-276,222,289,196.98910355567932,196.98917865753174,196.9924385547638,197.00362825393677,197.1532895565033,197.1532895565033,197.1532895565033,197.1532895565033,197.1532895565033,197.1532895565033,197.1532895565033,199.6259343624115,3,2.6061346530914307,None,,,,,,,,,,,,,,,,,,181,1,2025-03-04_12h03.47.209,comp,2024.2.4,57.93685699446367,2025-03-04 12h06.00.591457 -0500,
45,45,0,critical,hdw,35.0,2.1,upper,200.0,125.0,127.0,127.0,125.0,200.0,3,0.8156061172485352,None,,,,,0,0,0,0,0,45,45,45,199.64174795150757,,,,,,,,,,,,,,,,,,,,,,,,,,,,,,,,,,,,,,,,,,,,,,,,,,,,,,,,,,,,,,,,,,,,,,,,,,,,,,,,,200.0,125.0,127.0,127.0,125.0,200.0,2.1,2.12,-222,-277,0,-290,260,272,199.62771439552307,199.6278796195984,199.63139486312866,199.64174795150757,199.79046511650085,199.79046511650085,199.79046511650085,199.79046511650085,199.79046511650085,199.79046511650085,199.79046511650085,200.4751214981079,3,0.8156061172485352,None,,,,,,,,,,,,,,,,,,181,1,2025-03-04_12h03.47.209,comp,2024.2.4,57.93685699446367,2025-03-04 12h06.00.591457 -0500,
46,46,0,critical,hwd,20.0,2.1,lower,133.0,57.0,57.0,133.0,78.0,78.0,3,0.9664642810821533,None,,,,,0,0,0,0,0,46,46,42,200.4908812046051,,,,,,,,,,,,,,,,,,,,,,,,,,,,,,,,,,,,,,,,,,,,,,,,,,,,,,,,,,,,,,,,,,,,,,,,,,,,,,,,,133.0,57.0,57.0,133.0,78.0,78.0,2.1,2.11,-191,269,0,275,202,-254,200.4768090248108,200.4769434928894,200.48047399520874,200.4908812046051,200.64109134674072,200.64109134674072,200.64109134674072,200.64109134674072,200.64109134674072,200.64109134674072,200.64109134674072,201.46079397201538,3,0.9664642810821533,None,,,,,,,,,,,,,,,,,,181,1,2025-03-04_12h03.47.209,comp,2024.2.4,57.93685699446367,2025-03-04 12h06.00.591457 -0500,
47,47,0,critical,hwd,35.0,2.1,lower,133.0,57.0,57.0,133.0,70.0,70.0,3,1.239140272140503,None,,,,,0,0,0,0,0,47,47,16,201.47665333747864,,,,,,,,,,,,,,,,,,,,,,,,,,,,,,,,,,,,,,,,,,,,,,,,,,,,,,,,,,,,,,,,,,,,,,,,,,,,,,,,,133.0,57.0,57.0,133.0,70.0,70.0,2.1,2.12,-191,-287,0,-257,198,253,201.46234560012817,201.46242570877075,201.46554398536682,201.47665333747864,201.62794041633606,201.62794041633606,201.62794041633606,201.62794041633606,201.62794041633606,201.62794041633606,201.62794041633606,202.7264165878296,3,1.239140272140503,None,,,,,,,,,,,,,,,,,,181,1,2025-03-04_12h03.47.209,comp,2024.2.4,57.93685699446367,2025-03-04 12h06.00.591457 -0500,
48,48,0,critical,wdh,35.0,4.0,lower,57.0,133.0,70.0,70.0,133.0,57.0,2,1.2826848030090332,None,,,,,0,0,0,0,0,48,48,76,202.74260592460632,,,,,,,,,,,,,,,,,,,,,,,,,,,,,,,,,,,,,,,,,,,,,,,,,,,,,,,,,,,,,,,,,,,,,,,,,,,,,,,,,57.0,133.0,70.0,70.0,133.0,57.0,4.0,4.1,-198,-279,0,1,160,-259,202.7280731201172,202.72817516326904,202.73168301582336,202.74260592460632,202.89117693901062,202.89117693901062,202.89117693901062,202.89117693901062,202.89117693901062,202.89117693901062,202.89117693901062,204.04182600975037,2,1.2826848030090332,None,,,,,,,,,,,,,,,,,,181,1,2025-03-04_12h03.47.209,comp,2024.2.4,57.93685699446367,2025-03-04 12h06.00.591457 -0500,
49,49,0,filler_random,None,None,None,None,None,None,None,None,None,None,2,0.840142011642456,None,,,,,0,0,0,0,0,49,49,147,204.05726981163025,,,,,,,,,,,,,,,,,,,,,,,,,,,,,,,,,,,,,,,,,,,,,,,,,,,,,,,,,,,,,,,,,,,,,,,,,,,,,,,,,198.7695532483647,120.69678981158478,150.91020152094097,136.3259555859758,193.18912901838678,68.56959647741469,4.0,4.1,-225,-273,0,12,198,-285,204.0435061454773,204.04358577728271,204.04698657989502,204.05726981163025,204.2126543521881,204.2126543521881,204.2126543521881,204.2126543521881,204.2126543521881,204.2126543521881,204.2126543521881,204.91185069084167,2,0.840142011642456,None,,,,,,,,,,,,,,,,,,181,1,2025-03-04_12h03.47.209,comp,2024.2.4,57.93685699446367,2025-03-04 12h06.00.591457 -0500,
50,50,0,filler_random,None,None,None,None,None,None,None,None,None,None,3,1.6653270721435547,None,,,,,0,0,0,0,0,50,50,143,204.92801785469055,,,,,,,,,,,,,,,,,,,,,,,,,,,,,,,,,,,,,,,,,,,,,,,,,,,,,,,,,,,,,,,,,,,,,,,,,,,,,,,,,159.43622936374163,95.69693281554447,106.5586414610703,86.44956203051467,170.60423815481522,118.4383565403191,3.0,3.1,-187,255,0,-8,198,-264,204.91377568244934,204.91385960578918,204.91767144203186,204.92801785469055,205.08084654808044,205.08084654808044,205.08084654808044,205.08084654808044,205.08084654808044,205.08084654808044,205.08084654808044,206.6082329750061,3,1.6653270721435547,None,,,,,,,,,,,,,,,,,,181,1,2025-03-04_12h03.47.209,comp,2024.2.4,57.93685699446367,2025-03-04 12h06.00.591457 -0500,
51,51,0,critical,hdw,20.0,1.0,upper,200.0,125.0,141.0,141.0,125.0,200.0,1,1.9370617866516113,None,,,,,0,0,0,0,0,51,51,115,206.62462449073792,,,,,,,,,,,,,,,,,,,,,,,,,,,,,,,,,,,,,,,,,,,,,,,,,,,,,,,,,,,,,,,,,,,,,,,,,,,,,,,,,200.0,125.0,141.0,141.0,125.0,200.0,1.0,1.3,251,-272,480,-286,746,-265,206.6098711490631,206.60994839668274,206.61328840255737,206.62462449073792,206.77632117271423,206.77632117271423,206.77632117271423,206.77632117271423,206.77632117271423,206.77632117271423,206.77632117271423,208.5669891834259,1,1.9370617866516113,None,,,,,,,,,,,,,,,,,,181,1,2025-03-04_12h03.47.209,comp,2024.2.4,57.93685699446367,2025-03-04 12h06.00.591457 -0500,
52,52,0,critical,hdw,35.0,4.0,lower,133.0,57.0,70.0,70.0,57.0,133.0,2,3.4027910232543945,None,,,,,0,0,0,0,0,52,52,112,208.58313012123108,,,,,,,,,,,,,,,,,,,,,,,,,,,,,,,,,,,,,,,,,,,,,,,,,,,,,,,,,,,,,,,,,,,,,,,,,,,,,,,,,133.0,57.0,70.0,70.0,57.0,133.0,4.0,4.1,-160,-285,0,-15,198,-270,208.56847620010376,208.5685522556305,208.57144570350647,208.58313012123108,208.72738790512085,208.72738790512085,208.72738790512085,208.72738790512085,208.72738790512085,208.72738790512085,208.72738790512085,211.9956555366516,2,3.4027910232543945,None,,,,,,,,,,,,,,,,,,181,1,2025-03-04_12h03.47.209,comp,2024.2.4,57.93685699446367,2025-03-04 12h06.00.591457 -0500,
53,53,0,critical,dhw,35.0,2.1,lower,70.0,70.0,133.0,57.0,57.0,133.0,1,7.35753321647644,None,,,,,0,0,0,0,0,53,53,24,212.01189875602722,,,,,,,,,,,,,,,,,,,,,,,,,,,,,,,,,,,,,,,,,,,,,,,,,,,,,,,,,,,,,,,,,,,,,,,,,,,,,,,,,70.0,70.0,133.0,57.0,57.0,133.0,2.1,2.12,-160,-262,0,-252,191,270,211.99725556373596,211.99733567237854,212.00083470344543,212.01189875602722,212.16645789146423,212.16645789146423,212.16645789146423,212.16645789146423,212.16645789146423,212.16645789146423,212.16645789146423,219.38290309906006,1,7.35753321647644,None,,,,,,,,,,,,,,,,,,181,1,2025-03-04_12h03.47.209,comp,2024.2.4,57.93685699446367,2025-03-04 12h06.00.591457 -0500,
54,54,0,filler_random,None,None,None,None,None,None,None,None,None,None,1,1.6155996322631836,None,,,,,0,0,0,0,0,54,54,155,219.40182828903198,,,,,,,,,,,,,,,,,,,,,,,,,,,,,,,,,,,,,,,,,,,,,,,,,,,,,,,,,,,,,,,,,,,,,,,,,,,,,,,,,143.6026581764329,166.98649547970172,160.37735130018862,121.65569331352874,62.768975580848625,66.04036380811311,4.0,4.2,-240,-10,0,-288,190,12,219.38511109352112,219.38524222373962,219.38818502426147,219.40182828903198,219.5482783317566,219.5482783317566,219.5482783317566,219.5482783317566,219.5482783317566,219.5482783317566,219.5482783317566,221.03019261360168,1,1.6155996322631836,None,,,,,,,,,,,,,,,,,,181,1,2025-03-04_12h03.47.209,comp,2024.2.4,57.93685699446367,2025-03-04 12h06.00.591457 -0500,
55,55,0,filler_square,None,None,None,None,None,None,None,None,None,None,2,3.7035958766937256,None,,,,,0,0,0,0,0,55,55,201,221.04973673820496,,,,,,,,,,,,,,,,,,,,,,,,,,,,,,,,,,,,,,,,,,,,,,,,,,,,,,,,,,,,,,,,,,,,,,,,,,,,,,,,,142.009394192868,164.43513883664312,165.15365281647968,165.15365281647968,103.78018581571388,124.39768217932605,1.0,1.3,219,-285,480,-272,721,-269,221.0319151878357,221.0319881439209,221.03497886657715,221.04973673820496,221.1973114013672,221.1973114013672,221.1973114013672,221.1973114013672,221.1973114013672,221.1973114013672,221.1973114013672,224.7681794166565,2,3.7035958766937256,None,,,,,,,,,,,,,,,,,,181,1,2025-03-04_12h03.47.209,comp,2024.2.4,57.93685699446367,2025-03-04 12h06.00.591457 -0500,
56,56,0,critical,whd,20.0,2.1,upper,125.0,200.0,200.0,125.0,141.0,141.0,1,9.282176971435547,None,,,,,0,0,0,0,0,56,56,39,224.7838592529297,,,,,,,,,,,,,,,,,,,,,,,,,,,,,,,,,,,,,,,,,,,,,,,,,,,,,,,,,,,,,,,,,,,,,,,,,,,,,,,,,125.0,200.0,200.0,125.0,141.0,141.0,2.1,2.11,-258,255,0,250,229,-263,224.7698574066162,224.7699921131134,224.77345538139343,224.7838592529297,224.93196153640747,224.93196153640747,224.93196153640747,224.93196153640747,224.93196153640747,224.93196153640747,224.93196153640747,234.0715410709381,1,9.282176971435547,None,,,,,,,,,,,,,,,,,,181,1,2025-03-04_12h03.47.209,comp,2024.2.4,57.93685699446367,2025-03-04 12h06.00.591457 -0500,
57,57,0,critical,wdh,20.0,4.0,lower,57.0,133.0,78.0,78.0,133.0,57.0,2,1.5463793277740479,None,,,,,0,0,0,0,0,57,57,82,234.087730884552,,,,,,,,,,,,,,,,,,,,,,,,,,,,,,,,,,,,,,,,,,,,,,,,,,,,,,,,,,,,,,,,,,,,,,,,,,,,,,,,,57.0,133.0,78.0,78.0,133.0,57.0,4.0,4.1,-202,-260,0,17,164,-272,234.07312202453613,234.07319974899292,234.0766909122467,234.087730884552,234.24146366119385,234.24146366119385,234.24146366119385,234.24146366119385,234.24146366119385,234.24146366119385,234.24146366119385,235.6413495540619,2,1.5463793277740479,None,,,,,,,,,,,,,,,,,,181,1,2025-03-04_12h03.47.209,comp,2024.2.4,57.93685699446367,2025-03-04 12h06.00.591457 -0500,
58,58,0,critical,dhw,20.0,4.0,lower,78.0,78.0,133.0,57.0,57.0,133.0,1,1.0082995891571045,None,,,,,0,0,0,0,0,58,58,58,235.65752840042114,,,,,,,,,,,,,,,,,,,,,,,,,,,,,,,,,,,,,,,,,,,,,,,,,,,,,,,,,,,,,,,,,,,,,,,,,,,,,,,,,78.0,78.0,133.0,57.0,57.0,133.0,4.0,4.2,-164,7,0,-278,191,-17,235.6432023048401,235.6432819366455,235.64619088172913,235.65752840042114,235.80093145370483,235.80093145370483,235.80093145370483,235.80093145370483,235.80093145370483,235.80093145370483,235.80093145370483,236.6680724620819,1,1.0082995891571045,None,,,,,,,,,,,,,,,,,,181,1,2025-03-04_12h03.47.209,comp,2024.2.4,57.93685699446367,2025-03-04 12h06.00.591457 -0500,
59,59,0,critical,hdw,35.0,1.0,lower,133.0,57.0,70.0,70.0,57.0,133.0,2,1.2211332321166992,None,,,,,0,0,0,0,0,59,59,108,236.68433666229248,,,,,,,,,,,,,,,,,,,,,,,,,,,,,,,,,,,,,,,,,,,,,,,,,,,,,,,,,,,,,,,,,,,,,,,,,,,,,,,,,133.0,57.0,70.0,70.0,57.0,133.0,1.0,1.2,-160,15,0,-11,198,4,236.66950058937073,236.6695773601532,236.67279863357544,236.68433666229248,236.84055185317993,236.84055185317993,236.84055185317993,236.84055185317993,236.84055185317993,236.84055185317993,236.84055185317993,237.9212884902954,2,1.2211332321166992,None,,,,,,,,,,,,,,,,,,181,1,2025-03-04_12h03.47.209,comp,2024.2.4,57.93685699446367,2025-03-04 12h06.00.591457 -0500,
60,60,0,filler_square,None,None,None,None,None,None,None,None,None,None,2,1.127690076828003,None,,,,,0,0,0,0,0,60,60,186,237.9382848739624,,,,,,,,,,,,,,,,,,,,,,,,,,,,,,,,,,,,,,,,,,,,,,,,,,,,,,,,,,,,,,,,,,,,,,,,,,,,,,,,,59.95939817191444,60.93027612100965,64.0026576065305,64.0026576065305,59.51684445545358,58.23487306474614,2.2,2.22,-158,259,0,-273,157,-275,237.92343878746033,237.92352104187012,237.9271640777588,237.9382848739624,238.09090089797974,238.09090089797974,238.09090089797974,238.09090089797974,238.09090089797974,238.09090089797974,238.09090089797974,239.06828951835632,2,1.127690076828003,None,,,,,,,,,,,,,,,,,,181,1,2025-03-04_12h03.47.209,comp,2024.2.4,57.93685699446367,2025-03-04 12h06.00.591457 -0500,
61,61,0,filler_square,None,None,None,None,None,None,None,None,None,None,1,1.0205750465393066,None,,,,,0,0,0,0,0,61,61,181,239.08486413955688,,,,,,,,,,,,,,,,,,,,,,,,,,,,,,,,,,,,,,,,,,,,,,,,,,,,,,,,,,,,,,,,,,,,,,,,,,,,,,,,,118.39144142269076,118.39144142269076,90.67676691505142,65.88619699440879,59.705763947061726,83.71373200413049,4.0,4.2,-188,7,0,-286,171,9,239.0702564716339,239.07033491134644,239.0735731124878,239.08486413955688,239.23765301704407,239.23765301704407,239.23765301704407,239.23765301704407,239.23765301704407,239.23765301704407,239.23765301704407,240.1172821521759,1,1.0205750465393066,None,,,,,,,,,,,,,,,,,,181,1,2025-03-04_12h03.47.209,comp,2024.2.4,57.93685699446367,2025-03-04 12h06.00.591457 -0500,
62,62,0,filler_random,None,None,None,None,None,None,None,None,None,None,2,2.683709144592285,None,,,,,0,0,0,0,0,62,62,148,240.13414216041565,,,,,,,,,,,,,,,,,,,,,,,,,,,,,,,,,,,,,,,,,,,,,,,,,,,,,,,,,,,,,,,,,,,,,,,,,,,,,,,,,150.6806853009857,114.12902519881752,143.46899271085866,139.3624432715861,153.75956736782558,61.90655681435472,4.0,4.2,-223,1,0,-269,197,0,240.11901807785034,240.11909461021423,240.12203335762024,240.13414216041565,240.2718687057495,240.2718687057495,240.2718687057495,240.2718687057495,240.2718687057495,240.2718687057495,240.2718687057495,242.82159304618835,2,2.683709144592285,None,,,,,,,,,,,,,,,,,,181,1,2025-03-04_12h03.47.209,comp,2024.2.4,57.93685699446367,2025-03-04 12h06.00.591457 -0500,
63,63,0,filler_random,None,None,None,None,None,None,None,None,None,None,3,1.523303747177124,None,,,,,0,0,0,0,0,63,63,133,242.83832263946533,,,,,,,,,,,,,,,,,,,,,,,,,,,,,,,,,,,,,,,,,,,,,,,,,,,,,,,,,,,,,,,,,,,,,,,,,,,,,,,,,169.99822876420006,69.79139128178059,58.119584413060956,190.50539159324262,64.25188887874204,168.48534627299057,2.1,2.11,-226,289,0,290,275,-272,242.8235776424408,242.82365775108337,242.82728266716003,242.83832263946533,242.98737478256226,242.98737478256226,242.98737478256226,242.98737478256226,242.98737478256226,242.98737478256226,242.98737478256226,244.37186741828918,3,1.523303747177124,None,,,,,,,,,,,,,,,,,,181,1,2025-03-04_12h03.47.209,comp,2024.2.4,57.93685699446367,2025-03-04 12h06.00.591457 -0500,
64,64,0,critical,dwh,20.0,2.1,lower,78.0,78.0,57.0,133.0,133.0,57.0,1,1.5780065059661865,None,,,,,0,0,0,0,0,64,64,30,244.39143419265747,,,,,,,,,,,,,,,,,,,,,,,,,,,,,,,,,,,,,,,,,,,,,,,,,,,,,,,,,,,,,,,,,,,,,,,,,,,,,,,,,78.0,78.0,57.0,133.0,133.0,57.0,2.1,2.11,-202,279,0,270,191,-259,244.37341952323914,244.37349915504456,244.3771162033081,244.39143419265747,244.53970098495483,244.53970098495483,244.53970098495483,244.53970098495483,244.53970098495483,244.53970098495483,244.53970098495483,245.97183513641357,1,1.5780065059661865,None,,,,,,,,,,,,,,,,,,181,1,2025-03-04_12h03.47.209,comp,2024.2.4,57.93685699446367,2025-03-04 12h06.00.591457 -0500,
65,65,0,filler_square,None,None,None,None,None,None,None,None,None,None,3,1.2299695014953613,None,,,,,0,0,0,0,0,65,65,173,245.9879732131958,,,,,,,,,,,,,,,,,,,,,,,,,,,,,,,,,,,,,,,,,,,,,,,,,,,,,,,,,,,,,,,,,,,,,,,,,,,,,,,,,112.16227100434378,83.10313528246354,83.3434758123471,97.33300670680674,122.5121749597556,122.5121749597556,4.0,4.1,-186,-283,0,-14,206,-280,245.97379159927368,245.97391390800476,245.97726917266846,245.9879732131958,246.13884830474854,246.13884830474854,246.13884830474854,246.13884830474854,246.13884830474854,246.13884830474854,246.13884830474854,247.22080826759338,3,1.2299695014953613,None,,,,,,,,,,,,,,,,,,181,1,2025-03-04_12h03.47.209,comp,2024.2.4,57.93685699446367,2025-03-04 12h06.00.591457 -0500,
66,66,0,filler_random,None,None,None,None,None,None,None,None,None,None,3,1.6051008701324463,None,,,,,0,0,0,0,0,66,66,158,247.23643922805786,,,,,,,,,,,,,,,,,,,,,,,,,,,,,,,,,,,,,,,,,,,,,,,,,,,,,,,,,,,,,,,,,,,,,,,,,,,,,,,,,108.04071832709563,142.49118647961114,153.44270758254407,103.34963693223654,112.67458267863452,193.68690263961437,2.2,2.21,-219,-279,0,284,245,251,247.22250604629517,247.222585439682,247.22566938400269,247.23643922805786,247.38953590393066,247.38953590393066,247.38953590393066,247.38953590393066,247.38953590393066,247.38953590393066,247.38953590393066,248.85562682151794,3,1.6051008701324463,None,,,,,,,,,,,,,,,,,,181,1,2025-03-04_12h03.47.209,comp,2024.2.4,57.93685699446367,2025-03-04 12h06.00.591457 -0500,
67,67,0,critical,wdh,35.0,2.1,lower,57.0,133.0,70.0,70.0,133.0,57.0,2,1.0670454502105713,None,,,,,0,0,0,0,0,67,67,8,248.87083745002747,,,,,,,,,,,,,,,,,,,,,,,,,,,,,,,,,,,,,,,,,,,,,,,,,,,,,,,,,,,,,,,,,,,,,,,,,,,,,,,,,57.0,133.0,70.0,70.0,133.0,57.0,2.1,2.12,-198,-251,0,-279,160,264,248.85715436935425,248.85723090171814,248.86023688316345,248.87083745002747,249.02072668075562,249.02072668075562,249.02072668075562,249.02072668075562,249.02072668075562,249.02072668075562,249.02072668075562,249.9429943561554,2,1.0670454502105713,None,,,,,,,,,,,,,,,,,,181,1,2025-03-04_12h03.47.209,comp,2024.2.4,57.93685699446367,2025-03-04 12h06.00.591457 -0500,
68,68,0,critical,hdw,35.0,3.0,lower,133.0,57.0,70.0,70.0,57.0,133.0,2,1.3467199802398682,None,,,,,0,0,0,0,0,68,68,110,249.95933747291565,,,,,,,,,,,,,,,,,,,,,,,,,,,,,,,,,,,,,,,,,,,,,,,,,,,,,,,,,,,,,,,,,,,,,,,,,,,,,,,,,133.0,57.0,70.0,70.0,57.0,133.0,3.0,3.2,-160,-283,0,-5,198,255,249.94467163085938,249.94475317001343,249.94861245155334,249.95933747291565,250.10589694976807,250.10589694976807,250.10589694976807,250.10589694976807,250.10589694976807,250.10589694976807,250.10589694976807,251.31101942062378,2,1.3467199802398682,None,,,,,,,,,,,,,,,,,,181,1,2025-03-04_12h03.47.209,comp,2024.2.4,57.93685699446367,2025-03-04 12h06.00.591457 -0500,
69,69,0,filler_square,None,None,None,None,None,None,None,None,None,None,1,0.9947528839111328,None,,,,,0,0,0,0,0,69,69,190,251.32702350616455,,,,,,,,,,,,,,,,,,,,,,,,,,,,,,,,,,,,,,,,,,,,,,,,,,,,,,,,,,,,,,,,,,,,,,,,,,,,,,,,,94.60991056991594,94.60991056991594,67.5443294401886,86.68090336526285,67.28240202244433,58.44020643002072,1.0,1.2,-187,7,0,11,169,12,251.3129940032959,251.31307530403137,251.3160479068756,251.32702350616455,251.47429275512695,251.47429275512695,251.47429275512695,251.47429275512695,251.47429275512695,251.47429275512695,251.47429275512695,252.33992552757263,1,0.9947528839111328,None,,,,,,,,,,,,,,,,,,181,1,2025-03-04_12h03.47.209,comp,2024.2.4,57.93685699446367,2025-03-04 12h06.00.591457 -0500,
70,70,0,critical,whd,35.0,3.0,upper,125.0,200.0,200.0,125.0,127.0,127.0,2,0.97294020652771,None,,,,,0,0,0,0,0,70,70,87,252.36494898796082,,,,,,,,,,,,,,,,,,,,,,,,,,,,,,,,,,,,,,,,,,,,,,,,,,,,,,,,,,,,,,,,,,,,,,,,,,,,,,,,,125.0,200.0,200.0,125.0,127.0,127.0,3.0,3.2,-258,-284,0,-19,222,289,252.34149861335754,252.3415868282318,252.34519481658936,252.36494898796082,252.50854063034058,252.50854063034058,252.50854063034058,252.50854063034058,252.50854063034058,252.50854063034058,252.50854063034058,253.34010529518127,2,0.97294020652771,None,,,,,,,,,,,,,,,,,,181,1,2025-03-04_12h03.47.209,comp,2024.2.4,57.93685699446367,2025-03-04 12h06.00.591457 -0500,
71,71,0,filler_random,None,None,None,None,None,None,None,None,None,None,2,0.8920426368713379,None,,,,,0,0,0,0,0,71,71,140,253.3603539466858,,,,,,,,,,,,,,,,,,,,,,,,,,,,,,,,,,,,,,,,,,,,,,,,,,,,,,,,,,,,,,,,,,,,,,,,,,,,,,,,,98.98740508276953,126.29596194550636,191.6440132906596,105.08097194690004,173.7223996215123,98.5999081624455,3.0,3.2,-212,-271,0,-11,198,260,253.34184885025024,253.34192776679993,253.34501242637634,253.3603539466858,253.50798344612122,253.50798344612122,253.50798344612122,253.50798344612122,253.50798344612122,253.50798344612122,253.50798344612122,254.25542616844177,2,0.8920426368713379,None,,,,,,,,,,,,,,,,,,181,1,2025-03-04_12h03.47.209,comp,2024.2.4,57.93685699446367,2025-03-04 12h06.00.591457 -0500,
72,72,0,filler_random,None,None,None,None,None,None,None,None,None,None,2,1.3537139892578125,None,,,,,0,0,0,0,0,72,72,154,254.27168893814087,,,,,,,,,,,,,,,,,,,,,,,,,,,,,,,,,,,,,,,,,,,,,,,,,,,,,,,,,,,,,,,,,,,,,,,,,,,,,,,,,60.15075238003251,166.4919033353658,76.90940005578122,187.7123053588129,158.35848605062347,73.25337467410762,4.0,4.1,-273,-256,0,2,226,-283,254.25702595710754,254.25710225105286,254.2599971294403,254.27168893814087,254.41450905799866,254.41450905799866,254.41450905799866,254.41450905799866,254.41450905799866,254.41450905799866,254.41450905799866,255.6416757106781,2,1.3537139892578125,None,,,,,,,,,,,,,,,,,,181,1,2025-03-04_12h03.47.209,comp,2024.2.4,57.93685699446367,2025-03-04 12h06.00.591457 -0500,
73,73,0,filler_square,None,None,None,None,None,None,None,None,None,None,1,1.1521461009979248,None,,,,,0,0,0,0,0,73,73,170,255.6579945087433,,,,,,,,,,,,,,,,,,,,,,,,,,,,,,,,,,,,,,,,,,,,,,,,,,,,,,,,,,,,,,,,,,,,,,,,,,,,,,,,,101.87207786585661,101.87207786585661,90.11107815464521,86.36490364594867,87.04237855405603,57.03338507361322,2.2,2.21,-190,-270,0,259,168,272,255.64352774620056,255.64360690116882,255.64767813682556,255.6579945087433,255.81142115592957,255.81142115592957,255.81142115592957,255.81142115592957,255.81142115592957,255.81142115592957,255.81142115592957,256.81766653060913,1,1.1521461009979248,None,,,,,,,,,,,,,,,,,,181,1,2025-03-04_12h03.47.209,comp,2024.2.4,57.93685699446367,2025-03-04 12h06.00.591457 -0500,
74,74,0,critical,wdh,20.0,2.1,upper,125.0,200.0,141.0,141.0,200.0,125.0,2,0.9438948631286621,None,,,,,0,0,0,0,0,74,74,11,256.8337519168854,,,,,,,,,,,,,,,,,,,,,,,,,,,,,,,,,,,,,,,,,,,,,,,,,,,,,,,,,,,,,,,,,,,,,,,,,,,,,,,,,125.0,200.0,141.0,141.0,200.0,125.0,2.1,2.11,-266,274,0,250,229,-252,256.8192114830017,256.81929111480713,256.8221740722656,256.8337519168854,256.97541880607605,256.97541880607605,256.97541880607605,256.97541880607605,256.97541880607605,256.97541880607605,256.97541880607605,257.7972857952118,2,0.9438948631286621,None,,,,,,,,,,,,,,,,,,181,1,2025-03-04_12h03.47.209,comp,2024.2.4,57.93685699446367,2025-03-04 12h06.00.591457 -0500,
75,75,0,critical,dwh,35.0,2.1,lower,70.0,70.0,57.0,133.0,133.0,57.0,1,0.9866335391998291,None,,,,,0,0,0,0,0,75,75,4,257.81539511680603,,,,,,,,,,,,,,,,,,,,,,,,,,,,,,,,,,,,,,,,,,,,,,,,,,,,,,,,,,,,,,,,,,,,,,,,,,,,,,,,,70.0,70.0,57.0,133.0,133.0,57.0,2.1,2.11,-198,271,0,267,191,-278,257.7988250255585,257.7989020347595,257.80181193351746,257.81539511680603,257.95929861068726,257.95929861068726,257.95929861068726,257.95929861068726,257.95929861068726,257.95929861068726,257.95929861068726,258.80979347229004,1,0.9866335391998291,None,,,,,,,,,,,,,,,,,,181,1,2025-03-04_12h03.47.209,comp,2024.2.4,57.93685699446367,2025-03-04 12h06.00.591457 -0500,
76,76,0,critical,whd,20.0,2.1,lower,57.0,133.0,133.0,57.0,78.0,78.0,3,1.0793168544769287,None,,,,,0,0,0,0,0,76,76,38,258.8262677192688,,,,,,,,,,,,,,,,,,,,,,,,,,,,,,,,,,,,,,,,,,,,,,,,,,,,,,,,,,,,,,,,,,,,,,,,,,,,,,,,,57.0,133.0,133.0,57.0,78.0,78.0,2.1,2.12,-191,-278,0,-271,164,283,258.81136417388916,258.811443567276,258.81554532051086,258.8262677192688,258.9750199317932,258.9750199317932,258.9750199317932,258.9750199317932,258.9750199317932,258.9750199317932,258.9750199317932,259.9091601371765,3,1.0793168544769287,None,,,,,,,,,,,,,,,,,,181,1,2025-03-04_12h03.47.209,comp,2024.2.4,57.93685699446367,2025-03-04 12h06.00.591457 -0500,
77,77,0,filler_square,None,None,None,None,None,None,None,None,None,None,3,0.9136452674865723,None,,,,,0,0,0,0,0,77,77,196,259.9277877807617,,,,,,,,,,,,,,,,,,,,,,,,,,,,,,,,,,,,,,,,,,,,,,,,,,,,,,,,,,,,,,,,,,,,,,,,,,,,,,,,,109.23531030546678,121.54348546323587,169.11283898474426,74.13069464671158,171.73815867011558,171.73815867011558,1.0,1.2,-194,0,0,14,219,17,259.91113543510437,259.91121435165405,259.9145178794861,259.9277877807617,260.0769033432007,260.0769033432007,260.0769033432007,260.0769033432007,260.0769033432007,260.0769033432007,260.0769033432007,260.84359884262085,3,0.9136452674865723,None,,,,,,,,,,,,,,,,,,181,1,2025-03-04_12h03.47.209,comp,2024.2.4,57.93685699446367,2025-03-04 12h06.00.591457 -0500,
78,78,0,filler_square,None,None,None,None,None,None,None,None,None,None,3,0.7592136859893799,None,,,,,0,0,0,0,0,78,78,183,260.8597047328949,,,,,,,,,,,,,,,,,,,,,,,,,,,,,,,,,,,,,,,,,,,,,,,,,,,,,,,,,,,,,,,,,,,,,,,,,,,,,,,,,76.06956118471987,86.36360513018917,97.24888218889353,62.85861740353301,115.01134461048426,115.01134461048426,2.1,2.12,-171,-253,0,-280,185,250,260.8453724384308,260.8454520702362,260.8490605354309,260.8597047328949,261.0099606513977,261.0099606513977,261.0099606513977,261.0099606513977,261.0099606513977,261.0099606513977,261.0099606513977,261.628258228302,3,0.7592136859893799,None,,,,,,,,,,,,,,,,,,181,1,2025-03-04_12h03.47.209,comp,2024.2.4,57.93685699446367,2025-03-04 12h06.00.591457 -0500,
79,79,0,catch,None,None,None,None,None,None,None,None,None,None,1,0.8604159355163574,None,,,,,0,0,0,0,0,79,79,120,261.6450707912445,,,,,,,,,,,,,,,,,,,,,,,,,,,,,,,,,,,,,,,,,,,,,,,,,,,,,,,,,,,,,,,,,,,,,,,,,,,,,,,,,126,199,75,115,62,128,3.0,3.2,-253,-252,0,4,218,287,261.6302514076233,261.6303288936615,261.63343691825867,261.6450707912445,261.7937150001526,261.7937150001526,261.7937150001526,261.7937150001526,261.7937150001526,261.7937150001526,261.7937150001526,262.5186655521393,1,0.8604159355163574,None,,,,,,,,,,,,,,,,,,181,1,2025-03-04_12h03.47.209,comp,2024.2.4,57.93685699446367,2025-03-04 12h06.00.591457 -0500,
80,80,0,critical,hdw,35.0,2.1,lower,133.0,57.0,70.0,70.0,57.0,133.0,2,1.1397550106048584,None,,,,,0,0,0,0,0,80,80,44,262.53426456451416,,,,,,,,,,,,,,,,,,,,,,,,,,,,,,,,,,,,,,,,,,,,,,,,,,,,,,,,,,,,,,,,,,,,,,,,,,,,,,,,,133.0,57.0,70.0,70.0,57.0,133.0,2.1,2.11,-160,264,0,286,198,-253,262.52030658721924,262.5203824043274,262.5237035751343,262.53426456451416,262.67722940444946,262.67722940444946,262.67722940444946,262.67722940444946,262.67722940444946,262.67722940444946,262.67722940444946,263.6822307109833,2,1.1397550106048584,None,,,,,,,,,,,,,,,,,,181,1,2025-03-04_12h03.47.209,comp,2024.2.4,57.93685699446367,2025-03-04 12h06.00.591457 -0500,
81,81,0,filler_square,None,None,None,None,None,None,None,None,None,None,2,1.1387121677398682,None,,,,,0,0,0,0,0,81,81,204,263.70304894447327,,,,,,,,,,,,,,,,,,,,,,,,,,,,,,,,,,,,,,,,,,,,,,,,,,,,,,,,,,,,,,,,,,,,,,,,,,,,,,,,,70.38970424778745,190.97577594690867,191.62157541421635,191.62157541421635,118.09757789695705,103.90428788188298,3.0,3.1,-287,273,0,7,244,-256,263.68417620658875,263.68430161476135,263.687504529953,263.70304894447327,263.8436551094055,263.8436551094055,263.8436551094055,263.8436551094055,263.8436551094055,263.8436551094055,263.8436551094055,264.84786009788513,2,1.1387121677398682,None,,,,,,,,,,,,,,,,,,181,1,2025-03-04_12h03.47.209,comp,2024.2.4,57.93685699446367,2025-03-04 12h06.00.591457 -0500,
82,82,0,filler_square,None,None,None,None,None,None,None,None,None,None,1,0.7595901489257812,None,,,,,0,0,0,0,0,82,82,203,264.86589336395264,,,,,,,,,,,,,,,,,,,,,,,,,,,,,,,,,,,,,,,,,,,,,,,,,,,,,,,,,,,,,,,,,,,,,,,,,,,,,,,,,134.15461314929814,134.15461314929814,103.80101448615545,61.38206614665844,101.73745380884642,69.69319616596627,2.2,2.22,-194,270,0,-252,162,-253,264.84973192214966,264.8498537540436,264.8528575897217,264.86589336395264,265.0123088359833,265.0123088359833,265.0123088359833,265.0123088359833,265.0123088359833,265.0123088359833,265.0123088359833,265.6290531158447,1,0.7595901489257812,None,,,,,,,,,,,,,,,,,,181,1,2025-03-04_12h03.47.209,comp,2024.2.4,57.93685699446367,2025-03-04 12h06.00.591457 -0500,
83,83,0,filler_random,None,None,None,None,None,None,None,None,None,None,3,1.3086342811584473,None,,,,,0,0,0,0,0,83,83,136,265.64556670188904,,,,,,,,,,,,,,,,,,,,,,,,,,,,,,,,,,,,,,,,,,,,,,,,,,,,,,,,,,,,,,,,,,,,,,,,,,,,,,,,,66.7788531969778,95.44023408557787,59.801075912991344,98.26614612965659,77.85849045898378,75.1707762400374,2.2,2.21,-193,-267,0,282,183,288,265.63100838661194,265.6310875415802,265.6345808506012,265.64556670188904,265.79448437690735,265.79448437690735,265.79448437690735,265.79448437690735,265.79448437690735,265.79448437690735,265.79448437690735,266.96095538139343,3,1.3086342811584473,None,,,,,,,,,,,,,,,,,,181,1,2025-03-04_12h03.47.209,comp,2024.2.4,57.93685699446367,2025-03-04 12h06.00.591457 -0500,
84,84,0,filler_square,None,None,None,None,None,None,None,None,None,None,2,1.0512492656707764,None,,,,,0,0,0,0,0,84,84,191,266.98237347602844,,,,,,,,,,,,,,,,,,,,,,,,,,,,,,,,,,,,,,,,,,,,,,,,,,,,,,,,,,,,,,,,,,,,,,,,,,,,,,,,,61.25783813518243,78.10742157328043,105.4009243257924,105.4009243257924,75.8611966699561,93.16717578346167,2.2,2.22,-188,283,0,-251,195,-276,266.96300172805786,266.9630835056305,266.96651315689087,266.98237347602844,267.12848234176636,267.12848234176636,267.12848234176636,267.12848234176636,267.12848234176636,267.12848234176636,267.12848234176636,268.0459976196289,2,1.0512492656707764,None,,,,,,,,,,,,,,,,,,181,1,2025-03-04_12h03.47.209,comp,2024.2.4,57.93685699446367,2025-03-04 12h06.00.591457 -0500,
85,85,0,filler_random,None,None,None,None,None,None,None,None,None,None,3,0.9299097061157227,None,,,,,0,0,0,0,0,85,85,153,268.0715844631195,,,,,,,,,,,,,,,,,,,,,,,,,,,,,,,,,,,,,,,,,,,,,,,,,,,,,,,,,,,,,,,,,,,,,,,,,,,,,,,,,98.10200490274856,80.11565861199509,61.95998221512671,115.86665649203796,95.34609925335559,150.23522339759035,1.0,1.2,-194,-15,0,-13,229,-14,268.04763531684875,268.04771184921265,268.05093216896057,268.0715844631195,268.2133836746216,268.2133836746216,268.2133836746216,268.2133836746216,268.2133836746216,268.2133836746216,268.2133836746216,269.0125913619995,3,0.9299097061157227,None,,,,,,,,,,,,,,,,,,181,1,2025-03-04_12h03.47.209,comp,2024.2.4,57.93685699446367,2025-03-04 12h06.00.591457 -0500,
86,86,0,filler_square,None,None,None,None,None,None,None,None,None,None,2,0.7720906734466553,None,,,,,0,0,0,0,0,86,86,200,269.0299677848816,,,,,,,,,,,,,,,,,,,,,,,,,,,,,,,,,,,,,,,,,,,,,,,,,,,,,,,,,,,,,,,,,,,,,,,,,,,,,,,,,81.69066505951147,81.69066505951147,77.06120994964462,81.66862257034265,69.99901616173186,77.49976052043763,4.0,4.1,-178,-264,0,-13,176,-279,269.01436161994934,269.0144376754761,269.0184705257416,269.0299677848816,269.1778585910797,269.1778585910797,269.1778585910797,269.1778585910797,269.1778585910797,269.1778585910797,269.1778585910797,269.81480288505554,2,0.7720906734466553,None,,,,,,,,,,,,,,,,,,181,1,2025-03-04_12h03.47.209,comp,2024.2.4,57.93685699446367,2025-03-04 12h06.00.591457 -0500,
87,87,0,critical,hdw,20.0,2.1,upper,200.0,125.0,141.0,141.0,125.0,200.0,3,0.8269517421722412,None,,,,,0,0,0,0,0,87,87,23,269.8304560184479,,,,,,,,,,,,,,,,,,,,,,,,,,,,,,,,,,,,,,,,,,,,,,,,,,,,,,,,,,,,,,,,,,,,,,,,,,,,,,,,,200.0,125.0,141.0,141.0,125.0,200.0,2.1,2.12,-229,-263,0,-279,266,266,269.81640434265137,269.81648087501526,269.8196623325348,269.8304560184479,269.9805088043213,269.9805088043213,269.9805088043213,269.9805088043213,269.9805088043213,269.9805088043213,269.9805088043213,270.67710161209106,3,0.8269517421722412,None,,,,,,,,,,,,,,,,,,181,1,2025-03-04_12h03.47.209,comp,2024.2.4,57.93685699446367,2025-03-04 12h06.00.591457 -0500,
88,88,0,critical,hwd,35.0,3.0,upper,200.0,125.0,125.0,200.0,127.0,127.0,3,1.4429857730865479,None,,,,,0,0,0,0,0,88,88,99,270.69506764411926,,,,,,,,,,,,,,,,,,,,,,,,,,,,,,,,,,,,,,,,,,,,,,,,,,,,,,,,,,,,,,,,,,,,,,,,,,,,,,,,,200.0,125.0,125.0,200.0,127.0,127.0,3.0,3.2,-258,-257,0,-8,260,289,270.6785569190979,270.6786358356476,270.6815490722656,270.69506764411926,270.85217475891113,270.85217475891113,270.85217475891113,270.85217475891113,270.85217475891113,270.85217475891113,270.85217475891113,272.14809918403625,3,1.4429857730865479,None,,,,,,,,,,,,,,,,,,181,1,2025-03-04_12h03.47.209,comp,2024.2.4,57.93685699446367,2025-03-04 12h06.00.591457 -0500,
89,89,0,filler_random,None,None,None,None,None,None,None,None,None,None,3,0.7015841007232666,None,,,,,0,0,0,0,0,89,89,134,272.1639676094055,,,,,,,,,,,,,,,,,,,,,,,,,,,,,,,,,,,,,,,,,,,,,,,,,,,,,,,,,,,,,,,,,,,,,,,,,,,,,,,,,126.95531693461054,98.880770087001,155.71572580650056,156.9995260824793,176.34628605879797,150.24001432632798,2.1,2.12,-224,-287,0,-264,250,252,272.1498363018036,272.14991784095764,272.1532120704651,272.1639676094055,272.322185754776,272.322185754776,272.322185754776,272.322185754776,272.322185754776,272.322185754776,272.322185754776,272.8873977661133,3,0.7015841007232666,None,,,,,,,,,,,,,,,,,,181,1,2025-03-04_12h03.47.209,comp,2024.2.4,57.93685699446367,2025-03-04 12h06.00.591457 -0500,
90,90,0,critical,dwh,35.0,3.0,upper,127.0,127.0,125.0,200.0,200.0,125.0,2,1.0889217853546143,None,,,,,0,0,0,0,0,90,90,63,272.9045305252075,,,,,,,,,,,,,,,,,,,,,,,,,,,,,,,,,,,,,,,,,,,,,,,,,,,,,,,,,,,,,,,,,,,,,,,,,,,,,,,,,127.0,127.0,125.0,200.0,200.0,125.0,3.0,3.2,-260,-254,0,17,258,259,272.8889377117157,272.8890149593353,272.8919036388397,272.9045305252075,273.04979705810547,273.04979705810547,273.04979705810547,273.04979705810547,273.04979705810547,273.04979705810547,273.04979705810547,273.99743461608887,2,1.0889217853546143,None,,,,,,,,,,,,,,,,,,181,1,2025-03-04_12h03.47.209,comp,2024.2.4,57.93685699446367,2025-03-04 12h06.00.591457 -0500,
91,91,0,critical,dwh,35.0,2.1,lower,70.0,70.0,57.0,133.0,133.0,57.0,3,0.9402585029602051,None,,,,,0,0,0,0,0,91,91,28,274.0131814479828,,,,,,,,,,,,,,,,,,,,,,,,,,,,,,,,,,,,,,,,,,,,,,,,,,,,,,,,,,,,,,,,,,,,,,,,,,,,,,,,,70.0,70.0,57.0,133.0,133.0,57.0,2.1,2.12,-198,-278,0,-283,191,263,273.9989106655121,273.9989867210388,274.0023329257965,274.0131814479828,274.164217710495,274.164217710495,274.164217710495,274.164217710495,274.164217710495,274.164217710495,274.164217710495,274.9650754928589,3,0.9402585029602051,None,,,,,,,,,,,,,,,,,,181,1,2025-03-04_12h03.47.209,comp,2024.2.4,57.93685699446367,2025-03-04 12h06.00.591457 -0500,
92,92,0,critical,dwh,20.0,3.0,lower,78.0,78.0,57.0,133.0,133.0,57.0,1,1.0095279216766357,None,,,,,0,0,0,0,0,92,92,68,274.98467206954956,,,,,,,,,,,,,,,,,,,,,,,,,,,,,,,,,,,,,,,,,,,,,,,,,,,,,,,,,,,,,,,,,,,,,,,,,,,,,,,,,78.0,78.0,57.0,133.0,133.0,57.0,3.0,3.1,-202,270,0,-16,191,-290,274.96651005744934,274.966584444046,274.9696388244629,274.98467206954956,275.1307873725891,275.1307873725891,275.1307873725891,275.1307873725891,275.1307873725891,275.1307873725891,275.1307873725891,275.9985408782959,1,1.0095279216766357,None,,,,,,,,,,,,,,,,,,181,1,2025-03-04_12h03.47.209,comp,2024.2.4,57.93685699446367,2025-03-04 12h06.00.591457 -0500,
93,93,0,critical,wdh,35.0,3.0,upper,125.0,200.0,127.0,127.0,200.0,125.0,1,0.8274788856506348,None,,,,,0,0,0,0,0,93,93,75,276.0141589641571,,,,,,,,,,,,,,,,,,,,,,,,,,,,,,,,,,,,,,,,,,,,,,,,,,,,,,,,,,,,,,,,,,,,,,,,,,,,,,,,,125.0,200.0,127.0,127.0,200.0,125.0,3.0,3.1,-260,251,0,0,222,-282,276.0000925064087,276.00016808509827,276.00337314605713,276.0141589641571,276.1652281284332,276.1652281284332,276.1652281284332,276.1652281284332,276.1652281284332,276.1652281284332,276.1652281284332,276.85316014289856,1,0.8274788856506348,None,,,,,,,,,,,,,,,,,,181,1,2025-03-04_12h03.47.209,comp,2024.2.4,57.93685699446367,2025-03-04 12h06.00.591457 -0500,
94,94,0,critical,dhw,35.0,1.0,lower,70.0,70.0,133.0,57.0,57.0,133.0,1,2.3321328163146973,None,,,,,0,0,0,0,0,94,94,48,276.8693447113037,,,,,,,,,,,,,,,,,,,,,,,,,,,,,,,,,,,,,,,,,,,,,,,,,,,,,,,,,,,,,,,,,,,,,,,,,,,,,,,,,70.0,70.0,133.0,57.0,57.0,133.0,1.0,1.3,320,-287,480,-286,671,-267,276.8546817302704,276.8547761440277,276.85806941986084,276.8693447113037,277.01713490486145,277.01713490486145,277.01713490486145,277.01713490486145,277.01713490486145,277.01713490486145,277.01713490486145,279.21521282196045,1,2.3321328163146973,None,,,,,,,,,,,,,,,,,,181,1,2025-03-04_12h03.47.209,comp,2024.2.4,57.93685699446367,2025-03-04 12h06.00.591457 -0500,
95,95,0,filler_square,None,None,None,None,None,None,None,None,None,None,1,1.1305103302001953,None,,,,,0,0,0,0,0,95,95,198,279.2314410209656,,,,,,,,,,,,,,,,,,,,,,,,,,,,,,,,,,,,,,,,,,,,,,,,,,,,,,,,,,,,,,,,,,,,,,,,,,,,,,,,,170.76135731249235,170.76135731249235,64.99822211692114,144.3269957343585,168.75968789990722,90.60931773220452,2.1,2.11,-254,277,0,272,213,-282,279.21702790260315,279.2171051502228,279.22032022476196,279.2314410209656,279.3907027244568,279.3907027244568,279.3907027244568,279.3907027244568,279.3907027244568,279.3907027244568,279.3907027244568,280.3651349544525,1,1.1305103302001953,None,,,,,,,,,,,,,,,,,,181,1,2025-03-04_12h03.47.209,comp,2024.2.4,57.93685699446367,2025-03-04 12h06.00.591457 -0500,
96,96,0,critical,hwd,35.0,2.1,lower,133.0,57.0,57.0,133.0,70.0,70.0,3,6.8610124588012695,None,,,,,0,0,0,0,0,96,96,40,280.3813817501068,,,,,,,,,,,,,,,,,,,,,,,,,,,,,,,,,,,,,,,,,,,,,,,,,,,,,,,,,,,,,,,,,,,,,,,,,,,,,,,,,133.0,57.0,57.0,133.0,70.0,70.0,2.1,2.11,-191,277,0,282,198,-262,280.366628408432,280.366703748703,280.36980867385864,280.3813817501068,280.5322411060333,280.5322411060333,280.5322411060333,280.5322411060333,280.5322411060333,280.5322411060333,280.5322411060333,287.25374841690063,3,6.8610124588012695,None,,,,,,,,,,,,,,,,,,181,1,2025-03-04_12h03.47.209,comp,2024.2.4,57.93685699446367,2025-03-04 12h06.00.591457 -0500,
97,97,0,filler_random,None,None,None,None,None,None,None,None,None,None,2,0.7940225601196289,None,,,,,0,0,0,0,0,97,97,144,287.2716791629791,,,,,,,,,,,,,,,,,,,,,,,,,,,,,,,,,,,,,,,,,,,,,,,,,,,,,,,,,,,,,,,,,,,,,,,,,,,,,,,,,111.77849659317302,157.00777622361247,157.79828126641786,137.88872549341022,61.78976301902907,76.72798415952033,3.0,3.1,-243,281,0,6,203,-281,287.2555203437805,287.25559854507446,287.2585849761963,287.2716791629791,287.42179250717163,287.42179250717163,287.42179250717163,287.42179250717163,287.42179250717163,287.42179250717163,287.42179250717163,288.0690221786499,2,0.7940225601196289,None,,,,,,,,,,,,,,,,,,181,1,2025-03-04_12h03.47.209,comp,2024.2.4,57.93685699446367,2025-03-04 12h06.00.591457 -0500,
98,98,0,critical,hdw,20.0,1.0,lower,133.0,57.0,78.0,78.0,57.0,133.0,3,0.9250659942626953,None,,,,,0,0,0,0,0,98,98,114,288.0853097438812,,,,,,,,,,,,,,,,,,,,,,,,,,,,,,,,,,,,,,,,,,,,,,,,,,,,,,,,,,,,,,,,,,,,,,,,,,,,,,,,,133.0,57.0,78.0,78.0,57.0,133.0,1.0,1.3,316,-261,480,-277,682,-273,288.07047271728516,288.07054829597473,288.0745904445648,288.0853097438812,288.23606634140015,288.23606634140015,288.23606634140015,288.23606634140015,288.23606634140015,288.23606634140015,288.23606634140015,289.01896953582764,3,0.9250659942626953,None,,,,,,,,,,,,,,,,,,181,1,2025-03-04_12h03.47.209,comp,2024.2.4,57.93685699446367,2025-03-04 12h06.00.591457 -0500,
99,99,0,critical,hdw,20.0,3.0,upper,200.0,125.0,141.0,141.0,125.0,200.0,3,0.9664952754974365,None,,,,,0,0,0,0,0,99,99,117,289.03525495529175,,,,,,,,,,,,,,,,,,,,,,,,,,,,,,,,,,,,,,,,,,,,,,,,,,,,,,,,,,,,,,,,,,,,,,,,,,,,,,,,,200.0,125.0,141.0,141.0,125.0,200.0,3.0,3.2,-229,-277,0,1,266,284,289.0205283164978,289.0206027030945,289.0241003036499,289.03525495529175,289.1893615722656,289.1893615722656,289.1893615722656,289.1893615722656,289.1893615722656,289.1893615722656,289.1893615722656,290.0202536582947,3,0.9664952754974365,None,,,,,,,,,,,,,,,,,,181,1,2025-03-04_12h03.47.209,comp,2024.2.4,57.93685699446367,2025-03-04 12h06.00.591457 -0500,
100,100,0,filler_square,None,None,None,None,None,None,None,None,None,None,1,1.0552895069122314,None,,,,,0,0,0,0,0,100,100,180,290.0343134403229,,,,,,,,,,,,,,,,,,,,,,,,,,,,,,,,,,,,,,,,,,,,,,,,,,,,,,,,,,,,,,,,,,,,,,,,,,,,,,,,,126.09359724849867,126.09359724849867,104.2273715975237,103.10005336553081,62.742865259035106,109.21670484462857,2.1,2.12,-211,-286,0,-253,202,273,290.0220003128052,290.0221037864685,290.0252203941345,290.0343134403229,290.18540501594543,290.18540501594543,290.18540501594543,290.18540501594543,290.18540501594543,290.18540501594543,290.18540501594543,291.1026952266693,1,1.0552895069122314,None,,,,,,,,,,,,,,,,,,181,1,2025-03-04_12h03.47.209,comp,2024.2.4,57.93685699446367,2025-03-04 12h06.00.591457 -0500,
101,101,0,critical,dwh,35.0,1.0,lower,70.0,70.0,57.0,133.0,133.0,57.0,2,0.9069907665252686,None,,,,,0,0,0,0,0,101,101,60,291.11843276023865,,,,,,,,,,,,,,,,,,,,,,,,,,,,,,,,,,,,,,,,,,,,,,,,,,,,,,,,,,,,,,,,,,,,,,,,,,,,,,,,,70.0,70.0,57.0,133.0,133.0,57.0,1.0,1.2,-198,13,0,-20,191,-4,291.10437965393066,291.1045105457306,291.10795998573303,291.11843276023865,291.26878356933594,291.26878356933594,291.26878356933594,291.26878356933594,291.26878356933594,291.26878356933594,291.26878356933594,292.03626227378845,2,0.9069907665252686,None,,,,,,,,,,,,,,,,,,181,1,2025-03-04_12h03.47.209,comp,2024.2.4,57.93685699446367,2025-03-04 12h06.00.591457 -0500,
102,102,0,critical,whd,35.0,1.0,lower,57.0,133.0,133.0,57.0,70.0,70.0,3,4.037798166275024,None,,,,,0,0,0,0,0,102,102,84,292.05256247520447,,,,,,,,,,,,,,,,,,,,,,,,,,,,,,,,,,,,,,,,,,,,,,,,,,,,,,,,,,,,,,,,,,,,,,,,,,,,,,,,,57.0,133.0,133.0,57.0,70.0,70.0,1.0,1.3,289,-251,480,-287,640,-258,292.03792810440063,292.03807950019836,292.04160046577454,292.05256247520447,292.209109544754,292.209109544754,292.209109544754,292.209109544754,292.209109544754,292.209109544754,292.209109544754,296.0986154079437,3,4.037798166275024,None,,,,,,,,,,,,,,,,,,181,1,2025-03-04_12h03.47.209,comp,2024.2.4,57.93685699446367,2025-03-04 12h06.00.591457 -0500,
103,103,0,critical,wdh,35.0,1.0,upper,125.0,200.0,127.0,127.0,200.0,125.0,1,1.2555997371673584,None,,,,,0,0,0,0,0,103,103,73,296.11398339271545,,,,,,,,,,,,,,,,,,,,,,,,,,,,,,,,,,,,,,,,,,,,,,,,,,,,,,,,,,,,,,,,,,,,,,,,,,,,,,,,,125.0,200.0,127.0,127.0,200.0,125.0,1.0,1.1,-740,267,-480,260,-258,255,296.1000888347626,296.10016345977783,296.10306000709534,296.11398339271545,296.25995779037476,296.25995779037476,296.25995779037476,296.25995779037476,296.25995779037476,296.25995779037476,296.25995779037476,297.37454199790955,1,1.2555997371673584,None,,,,,,,,,,,,,,,,,,181,1,2025-03-04_12h03.47.209,comp,2024.2.4,57.93685699446367,2025-03-04 12h06.00.591457 -0500,
104,104,0,critical,dwh,20.0,3.0,upper,141.0,141.0,125.0,200.0,200.0,125.0,2,0.8463504314422607,None,,,,,0,0,0,0,0,104,104,69,297.39519476890564,,,,,,,,,,,,,,,,,,,,,,,,,,,,,,,,,,,,,,,,,,,,,,,,,,,,,,,,,,,,,,,,,,,,,,,,,,,,,,,,,141.0,141.0,125.0,200.0,200.0,125.0,3.0,3.1,-266,264,0,20,258,-287,297.3762676715851,297.3763482570648,297.37940740585327,297.39519476890564,297.53761529922485,297.53761529922485,297.53761529922485,297.53761529922485,297.53761529922485,297.53761529922485,297.53761529922485,298.25670194625854,2,0.8463504314422607,None,,,,,,,,,,,,,,,,,,181,1,2025-03-04_12h03.47.209,comp,2024.2.4,57.93685699446367,2025-03-04 12h06.00.591457 -0500,
105,105,0,catch,None,None,None,None,None,None,None,None,None,None,1,0.8595428466796875,None,,,,,0,0,0,0,0,105,105,129,298.2779772281647,,,,,,,,,,,,,,,,,,,,,,,,,,,,,,,,,,,,,,,,,,,,,,,,,,,,,,,,,,,,,,,,,,,,,,,,,,,,,,,,,166,159,74,116,85,105,1.0,1.2,-234,2,0,-5,206,-4,298.25889897346497,298.25897884368896,298.2626996040344,298.2779772281647,298.42181491851807,298.42181491851807,298.42181491851807,298.42181491851807,298.42181491851807,298.42181491851807,298.42181491851807,299.1503942012787,1,0.8595428466796875,None,,,,,,,,,,,,,,,,,,181,1,2025-03-04_12h03.47.209,comp,2024.2.4,57.93685699446367,2025-03-04 12h06.00.591457 -0500,
106,106,0,critical,dhw,20.0,1.0,lower,78.0,78.0,133.0,57.0,57.0,133.0,1,1.675611972808838,None,,,,,0,0,0,0,0,106,106,54,299.16588282585144,,,,,,,,,,,,,,,,,,,,,,,,,,,,,,,,,,,,,,,,,,,,,,,,,,,,,,,,,,,,,,,,,,,,,,,,,,,,,,,,,78.0,78.0,133.0,57.0,57.0,133.0,1.0,1.3,316,-270,480,-268,671,-274,299.1519043445587,299.15197944641113,299.15487718582153,299.16588282585144,299.3055143356323,299.3055143356323,299.3055143356323,299.3055143356323,299.3055143356323,299.3055143356323,299.3055143356323,300.85696721076965,1,1.675611972808838,None,,,,,,,,,,,,,,,,,,181,1,2025-03-04_12h03.47.209,comp,2024.2.4,57.93685699446367,2025-03-04 12h06.00.591457 -0500,
107,107,0,critical,hdw,35.0,2.1,lower,133.0,57.0,70.0,70.0,57.0,133.0,3,1.5119755268096924,None,,,,,0,0,0,0,0,107,107,20,300.87415862083435,,,,,,,,,,,,,,,,,,,,,,,,,,,,,,,,,,,,,,,,,,,,,,,,,,,,,,,,,,,,,,,,,,,,,,,,,,,,,,,,,133.0,57.0,70.0,70.0,57.0,133.0,2.1,2.12,-160,-256,0,-252,198,275,300.8584280014038,300.8585014343262,300.86148476600647,300.87415862083435,301.0189483165741,301.0189483165741,301.0189483165741,301.0189483165741,301.0189483165741,301.0189483165741,301.0189483165741,302.3938591480255,3,1.5119755268096924,None,,,,,,,,,,,,,,,,,,181,1,2025-03-04_12h03.47.209,comp,2024.2.4,57.93685699446367,2025-03-04 12h06.00.591457 -0500,
108,108,0,filler_square,None,None,None,None,None,None,None,None,None,None,1,1.8005051612854004,None,,,,,0,0,0,0,0,108,108,179,302.40956950187683,,,,,,,,,,,,,,,,,,,,,,,,,,,,,,,,,,,,,,,,,,,,,,,,,,,,,,,,,,,,,,,,,,,,,,,,,,,,,,,,,124.72344432298844,124.72344432298844,116.46996007392497,120.16184925325952,77.5753382856366,75.02144466124365,2.2,2.22,-218,270,0,-279,194,-284,302.3956801891327,302.39578914642334,302.3989520072937,302.40956950187683,302.5604798793793,302.5604798793793,302.5604798793793,302.5604798793793,302.5604798793793,302.5604798793793,302.5604798793793,304.21439814567566,1,1.8005051612854004,None,,,,,,,,,,,,,,,,,,181,1,2025-03-04_12h03.47.209,comp,2024.2.4,57.93685699446367,2025-03-04 12h06.00.591457 -0500,
109,109,0,critical,hdw,35.0,3.0,upper,200.0,125.0,127.0,127.0,125.0,200.0,1,3.131330966949463,None,,,,,0,0,0,0,0,109,109,111,304.23057746887207,,,,,,,,,,,,,,,,,,,,,,,,,,,,,,,,,,,,,,,,,,,,,,,,,,,,,,,,,,,,,,,,,,,,,,,,,,,,,,,,,200.0,125.0,127.0,127.0,125.0,200.0,3.0,3.1,-222,278,0,19,260,-269,304.21595788002014,304.2160322666168,304.2190535068512,304.23057746887207,304.3743233680725,304.3743233680725,304.3743233680725,304.3743233680725,304.3743233680725,304.3743233680725,304.3743233680725,307.3831765651703,1,3.131330966949463,None,,,,,,,,,,,,,,,,,,181,1,2025-03-04_12h03.47.209,comp,2024.2.4,57.93685699446367,2025-03-04 12h06.00.591457 -0500,
110,110,0,critical,hwd,20.0,4.0,lower,133.0,57.0,57.0,133.0,78.0,78.0,2,0.7775726318359375,None,,,,,0,0,0,0,0,110,110,106,307.3999629020691,,,,,,,,,,,,,,,,,,,,,,,,,,,,,,,,,,,,,,,,,,,,,,,,,,,,,,,,,,,,,,,,,,,,,,,,,,,,,,,,,133.0,57.0,57.0,133.0,78.0,78.0,4.0,4.1,-191,-274,0,0,202,-264,307.38463521003723,307.38470911979675,307.38753151893616,307.3999629020691,307.54024362564087,307.54024362564087,307.54024362564087,307.54024362564087,307.54024362564087,307.54024362564087,307.54024362564087,308.19098567962646,2,0.7775726318359375,None,,,,,,,,,,,,,,,,,,181,1,2025-03-04_12h03.47.209,comp,2024.2.4,57.93685699446367,2025-03-04 12h06.00.591457 -0500,
111,111,0,critical,hdw,20.0,2.1,upper,200.0,125.0,141.0,141.0,125.0,200.0,2,0.996063232421875,None,,,,,0,0,0,0,0,111,111,47,308.2064106464386,,,,,,,,,,,,,,,,,,,,,,,,,,,,,,,,,,,,,,,,,,,,,,,,,,,,,,,,,,,,,,,,,,,,,,,,,,,,,,,,,200.0,125.0,141.0,141.0,125.0,200.0,2.1,2.11,-229,270,0,288,266,-254,308.1925187110901,308.1925926208496,308.1959092617035,308.2064106464386,308.35757422447205,308.35757422447205,308.35757422447205,308.35757422447205,308.35757422447205,308.35757422447205,308.35757422447205,309.2071862220764,2,0.996063232421875,None,,,,,,,,,,,,,,,,,,181,1,2025-03-04_12h03.47.209,comp,2024.2.4,57.93685699446367,2025-03-04 12h06.00.591457 -0500,
112,112,0,filler_square,None,None,None,None,None,None,None,None,None,None,3,0.9531004428863525,None,,,,,0,0,0,0,0,112,112,202,309.22443556785583,,,,,,,,,,,,,,,,,,,,,,,,,,,,,,,,,,,,,,,,,,,,,,,,,,,,,,,,,,,,,,,,,,,,,,,,,,,,,,,,,80.52553339113796,156.45898408228555,107.66965867649462,76.42894018369826,172.71726373222356,172.71726373222356,1.0,1.3,268,-251,480,-280,701,-286,309.20897579193115,309.2090542316437,309.21215295791626,309.22443556785583,309.3732044696808,309.3732044696808,309.3732044696808,309.3732044696808,309.3732044696808,309.3732044696808,309.3732044696808,310.1925675868988,3,0.9531004428863525,None,,,,,,,,,,,,,,,,,,181,1,2025-03-04_12h03.47.209,comp,2024.2.4,57.93685699446367,2025-03-04 12h06.00.591457 -0500,
113,113,0,filler_random,None,None,None,None,None,None,None,None,None,None,1,1.0490241050720215,None,,,,,0,0,0,0,0,113,113,131,310.2085783481598,,,,,,,,,,,,,,,,,,,,,,,,,,,,,,,,,,,,,,,,,,,,,,,,,,,,,,,,,,,,,,,,,,,,,,,,,,,,,,,,,182.7596022590741,172.24527739377282,109.91116575588083,184.58270784469855,80.81551554151295,131.35769060914387,2.2,2.22,-274,277,0,-256,254,-255,310.1941862106323,310.1942639350891,310.1982891559601,310.2085783481598,310.35902094841003,310.35902094841003,310.35902094841003,310.35902094841003,310.35902094841003,310.35902094841003,310.35902094841003,311.25993633270264,1,1.0490241050720215,None,,,,,,,,,,,,,,,,,,181,1,2025-03-04_12h03.47.209,comp,2024.2.4,57.93685699446367,2025-03-04 12h06.00.591457 -0500,
114,114,0,critical,dwh,20.0,1.0,lower,78.0,78.0,57.0,133.0,133.0,57.0,1,1.8053853511810303,None,,,,,0,0,0,0,0,114,114,66,311.2761609554291,,,,,,,,,,,,,,,,,,,,,,,,,,,,,,,,,,,,,,,,,,,,,,,,,,,,,,,,,,,,,,,,,,,,,,,,,,,,,,,,,78.0,78.0,57.0,133.0,133.0,57.0,1.0,1.1,-682,264,-480,281,-289,287,311.2613613605499,311.2614357471466,311.265474319458,311.2761609554291,311.42808771133423,311.42808771133423,311.42808771133423,311.42808771133423,311.42808771133423,311.42808771133423,311.42808771133423,313.0935709476471,1,1.8053853511810303,None,,,,,,,,,,,,,,,,,,181,1,2025-03-04_12h03.47.209,comp,2024.2.4,57.93685699446367,2025-03-04 12h06.00.591457 -0500,
115,115,0,critical,wdh,20.0,3.0,lower,57.0,133.0,78.0,78.0,133.0,57.0,3,1.0828990936279297,None,,,,,0,0,0,0,0,115,115,80,313.11136507987976,,,,,,,,,,,,,,,,,,,,,,,,,,,,,,,,,,,,,,,,,,,,,,,,,,,,,,,,,,,,,,,,,,,,,,,,,,,,,,,,,57.0,133.0,78.0,78.0,133.0,57.0,3.0,3.2,-202,-283,0,-7,164,278,313.0951051712036,313.09518337249756,313.0983889102936,313.11136507987976,313.2607238292694,313.2607238292694,313.2607238292694,313.2607238292694,313.2607238292694,313.2607238292694,313.2607238292694,314.21134519577026,3,1.0828990936279297,None,,,,,,,,,,,,,,,,,,181,1,2025-03-04_12h03.47.209,comp,2024.2.4,57.93685699446367,2025-03-04 12h06.00.591457 -0500,
116,116,0,filler_random,None,None,None,None,None,None,None,None,None,None,3,1.0785491466522217,None,,,,,0,0,0,0,0,116,116,132,314.2275490760803,,,,,,,,,,,,,,,,,,,,,,,,,,,,,,,,,,,,,,,,,,,,,,,,,,,,,,,,,,,,,,,,,,,,,,,,,,,,,,,,,94.4968926455117,98.16885140936313,77.49452145354297,144.5183640494847,79.19074192398818,148.90190199555502,3.0,3.2,-217,-272,0,9,243,265,314.2131538391113,314.21328568458557,314.2172393798828,314.2275490760803,314.38310503959656,314.38310503959656,314.38310503959656,314.38310503959656,314.38310503959656,314.38310503959656,314.38310503959656,315.31131076812744,3,1.0785491466522217,None,,,,,,,,,,,,,,,,,,181,1,2025-03-04_12h03.47.209,comp,2024.2.4,57.93685699446367,2025-03-04 12h06.00.591457 -0500,
117,117,0,critical,dhw,20.0,2.1,lower,78.0,78.0,133.0,57.0,57.0,133.0,3,1.130408525466919,None,,,,,0,0,0,0,0,117,117,2,315.32746958732605,,,,,,,,,,,,,,,,,,,,,,,,,,,,,,,,,,,,,,,,,,,,,,,,,,,,,,,,,,,,,,,,,,,,,,,,,,,,,,,,,78.0,78.0,133.0,57.0,57.0,133.0,2.1,2.12,-164,-260,0,-252,191,258,315.3127353191376,315.3128333091736,315.3168306350708,315.32746958732605,315.4754385948181,315.4754385948181,315.4754385948181,315.4754385948181,315.4754385948181,315.4754385948181,315.4754385948181,316.47671246528625,3,1.130408525466919,None,,,,,,,,,,,,,,,,,,181,1,2025-03-04_12h03.47.209,comp,2024.2.4,57.93685699446367,2025-03-04 12h06.00.591457 -0500,
118,118,0,critical,dwh,35.0,2.1,upper,127.0,127.0,125.0,200.0,200.0,125.0,3,0.7657179832458496,None,,,,,0,0,0,0,0,118,118,5,316.4930191040039,,,,,,,,,,,,,,,,,,,,,,,,,,,,,,,,,,,,,,,,,,,,,,,,,,,,,,,,,,,,,,,,,,,,,,,,,,,,,,,,,127.0,127.0,125.0,200.0,200.0,125.0,2.1,2.12,-260,-287,0,-290,258,283,316.47825169563293,316.4783260822296,316.48135471343994,316.4930191040039,316.6447148323059,316.6447148323059,316.6447148323059,316.6447148323059,316.6447148323059,316.6447148323059,316.6447148323059,317.2635314464569,3,0.7657179832458496,None,,,,,,,,,,,,,,,,,,181,1,2025-03-04_12h03.47.209,comp,2024.2.4,57.93685699446367,2025-03-04 12h06.00.591457 -0500,
119,119,0,filler_square,None,None,None,None,None,None,None,None,None,None,1,1.0741980075836182,None,,,,,0,0,0,0,0,119,119,209,317.2799506187439,,,,,,,,,,,,,,,,,,,,,,,,,,,,,,,,,,,,,,,,,,,,,,,,,,,,,,,,,,,,,,,,,,,,,,,,,,,,,,,,,109.04310403632559,109.04310403632559,77.72567815085353,66.54472549725601,59.66141401474289,66.50246653962701,1.0,1.3,296,-265,480,-256,643,-272,317.26555347442627,317.26568245887756,317.26928663253784,317.2799506187439,317.43250584602356,317.43250584602356,317.43250584602356,317.43250584602356,317.43250584602356,317.43250584602356,317.43250584602356,318.3623101711273,1,1.0741980075836182,None,,,,,,,,,,,,,,,,,,181,1,2025-03-04_12h03.47.209,comp,2024.2.4,57.93685699446367,2025-03-04 12h06.00.591457 -0500,
120,120,0,filler_random,None,None,None,None,None,None,None,None,None,None,3,0.9435701370239258,None,,,,,0,0,0,0,0,120,120,165,318.37855792045593,,,,,,,,,,,,,,,,,,,,,,,,,,,,,,,,,,,,,,,,,,,,,,,,,,,,,,,,,,,,,,,,,,,,,,,,,,,,,,,,,74.57224844074946,110.08876731944994,107.73246257455423,58.174988745204374,125.92072670445167,149.1035422030783,3.0,3.1,-180,271,0,11,200,-263,318.36412835121155,318.364248752594,318.3676359653473,318.37855792045593,318.5334234237671,318.5334234237671,318.5334234237671,318.5334234237671,318.5334234237671,318.5334234237671,318.5334234237671,319.33140444755554,3,0.9435701370239258,None,,,,,,,,,,,,,,,,,,181,1,2025-03-04_12h03.47.209,comp,2024.2.4,57.93685699446367,2025-03-04 12h06.00.591457 -0500,
121,121,0,critical,dhw,35.0,4.0,lower,70.0,70.0,133.0,57.0,57.0,133.0,2,1.0709919929504395,None,,,,,0,0,0,0,0,121,121,52,319.3473138809204,,,,,,,,,,,,,,,,,,,,,,,,,,,,,,,,,,,,,,,,,,,,,,,,,,,,,,,,,,,,,,,,,,,,,,,,,,,,,,,,,70.0,70.0,133.0,57.0,57.0,133.0,4.0,4.1,-160,-260,0,-2,191,-279,319.33301854133606,319.33314776420593,319.33654618263245,319.3473138809204,319.4955036640167,319.4955036640167,319.4955036640167,319.4955036640167,319.4955036640167,319.4955036640167,319.4955036640167,320.4255154132843,2,1.0709919929504395,None,,,,,,,,,,,,,,,,,,181,1,2025-03-04_12h03.47.209,comp,2024.2.4,57.93685699446367,2025-03-04 12h06.00.591457 -0500,
122,122,0,filler_random,None,None,None,None,None,None,None,None,None,None,2,0.7350285053253174,None,,,,,0,0,0,0,0,122,122,146,320.4425401687622,,,,,,,,,,,,,,,,,,,,,,,,,,,,,,,,,,,,,,,,,,,,,,,,,,,,,,,,,,,,,,,,,,,,,,,,,,,,,,,,,148.61536559674875,171.3091220452483,68.86817751016905,193.30600892331657,179.3135688575938,154.59888450035487,4.0,4.1,-278,-286,0,-11,270,-267,320.4274377822876,320.4275186061859,320.43079376220703,320.4425401687622,320.57884550094604,320.57884550094604,320.57884550094604,320.57884550094604,320.57884550094604,320.57884550094604,320.57884550094604,321.1871645450592,2,0.7350285053253174,None,,,,,,,,,,,,,,,,,,181,1,2025-03-04_12h03.47.209,comp,2024.2.4,57.93685699446367,2025-03-04 12h06.00.591457 -0500,
123,123,0,filler_square,None,None,None,None,None,None,None,None,None,None,2,2.1667556762695312,None,,,,,0,0,0,0,0,123,123,177,321.20342683792114,,,,,,,,,,,,,,,,,,,,,,,,,,,,,,,,,,,,,,,,,,,,,,,,,,,,,,,,,,,,,,,,,,,,,,,,,,,,,,,,,67.0424445454558,103.58234013424521,117.76138696658762,117.76138696658762,87.26492455151653,114.95944505702587,3.0,3.1,-207,252,0,10,212,-289,321.18915605545044,321.18923568725586,321.19249510765076,321.20342683792114,321.3520612716675,321.3520612716675,321.3520612716675,321.3520612716675,321.3520612716675,321.3520612716675,321.3520612716675,323.37858390808105,2,2.1667556762695312,None,,,,,,,,,,,,,,,,,,181,1,2025-03-04_12h03.47.209,comp,2024.2.4,57.93685699446367,2025-03-04 12h06.00.591457 -0500,
124,124,0,critical,dwh,20.0,2.1,upper,141.0,141.0,125.0,200.0,200.0,125.0,3,1.5023140907287598,None,,,,,0,0,0,0,0,124,124,31,323.39535117149353,,,,,,,,,,,,,,,,,,,,,,,,,,,,,,,,,,,,,,,,,,,,,,,,,,,,,,,,,,,,,,,,,,,,,,,,,,,,,,,,,141.0,141.0,125.0,200.0,200.0,125.0,2.1,2.12,-266,-250,0,-262,258,278,323.3801040649414,323.38017892837524,323.38338565826416,323.39535117149353,323.54850220680237,323.54850220680237,323.54850220680237,323.54850220680237,323.54850220680237,323.54850220680237,323.54850220680237,324.91473293304443,3,1.5023140907287598,None,,,,,,,,,,,,,,,,,,181,1,2025-03-04_12h03.47.209,comp,2024.2.4,57.93685699446367,2025-03-04 12h06.00.591457 -0500,
125,125,0,critical,whd,35.0,4.0,lower,57.0,133.0,133.0,57.0,70.0,70.0,2,1.4379117488861084,None,,,,,0,0,0,0,0,125,125,88,324.93251633644104,,,,,,,,,,,,,,,,,,,,,,,,,,,,,,,,,,,,,,,,,,,,,,,,,,,,,,,,,,,,,,,,,,,,,,,,,,,,,,,,,57.0,133.0,133.0,57.0,70.0,70.0,4.0,4.1,-191,-282,0,-2,160,-290,324.916383266449,324.9164967536926,324.91979026794434,324.93251633644104,325.0810673236847,325.0810673236847,325.0810673236847,325.0810673236847,325.0810673236847,325.0810673236847,325.0810673236847,326.37887167930603,2,1.4379117488861084,None,,,,,,,,,,,,,,,,,,181,1,2025-03-04_12h03.47.209,comp,2024.2.4,57.93685699446367,2025-03-04 12h06.00.591457 -0500,
126,126,0,catch,None,None,None,None,None,None,None,None,None,None,2,0.9420199394226074,None,,,,,0,0,0,0,0,126,126,126,326.396288394928,,,,,,,,,,,,,,,,,,,,,,,,,,,,,,,,,,,,,,,,,,,,,,,,,,,,,,,,,,,,,,,,,,,,,,,,,,,,,,,,,76,114,190,135,104,86,4.0,4.1,-220,-267,0,-17,206,-262,326.3809931278229,326.3810706138611,326.384628534317,326.396288394928,326.5476894378662,326.5476894378662,326.5476894378662,326.5476894378662,326.5476894378662,326.5476894378662,326.5476894378662,327.3491129875183,2,0.9420199394226074,None,,,,,,,,,,,,,,,,,,181,1,2025-03-04_12h03.47.209,comp,2024.2.4,57.93685699446367,2025-03-04 12h06.00.591457 -0500,
127,127,0,critical,wdh,35.0,2.1,upper,125.0,200.0,127.0,127.0,200.0,125.0,1,1.677255392074585,None,,,,,0,0,0,0,0,127,127,33,327.3653528690338,,,,,,,,,,,,,,,,,,,,,,,,,,,,,,,,,,,,,,,,,,,,,,,,,,,,,,,,,,,,,,,,,,,,,,,,,,,,,,,,,125.0,200.0,127.0,127.0,200.0,125.0,2.1,2.11,-260,285,0,253,222,-273,327.35088777542114,327.35100746154785,327.35455441474915,327.3653528690338,327.51363611221313,327.51363611221313,327.51363611221313,327.51363611221313,327.51363611221313,327.51363611221313,327.51363611221313,329.05015778541565,1,1.677255392074585,None,,,,,,,,,,,,,,,,,,181,1,2025-03-04_12h03.47.209,comp,2024.2.4,57.93685699446367,2025-03-04 12h06.00.591457 -0500,
128,128,0,filler_random,None,None,None,None,None,None,None,None,None,None,3,1.911505937576294,None,,,,,0,0,0,0,0,128,128,157,329.0661520957947,,,,,,,,,,,,,,,,,,,,,,,,,,,,,,,,,,,,,,,,,,,,,,,,,,,,,,,,,,,,,,,,,,,,,,,,,,,,,,,,,129.21917495080675,99.66432266907958,109.10310008731545,197.79136604860926,146.93456422534385,179.63784222609544,4.0,4.1,-245,-286,0,14,285,-281,329.0521149635315,329.0521957874298,329.05538868904114,329.0661520957947,329.216037273407,329.216037273407,329.216037273407,329.216037273407,329.216037273407,329.216037273407,329.216037273407,330.9950132369995,3,1.911505937576294,None,,,,,,,,,,,,,,,,,,181,1,2025-03-04_12h03.47.209,comp,2024.2.4,57.93685699446367,2025-03-04 12h06.00.591457 -0500,
129,129,0,filler_random,None,None,None,None,None,None,None,None,None,None,3,0.9468166828155518,None,,,,,0,0,0,0,0,129,129,152,331.0149345397949,,,,,,,,,,,,,,,,,,,,,,,,,,,,,,,,,,,,,,,,,,,,,,,,,,,,,,,,,,,,,,,,,,,,,,,,,,,,,,,,,79.64511361699641,126.59337399837989,58.31513001573652,110.92603794182304,149.63415513666644,179.16557993736865,2.2,2.22,-215,255,0,-253,241,-273,330.9966583251953,330.99673414230347,330.9996347427368,331.0149345397949,331.1500053405762,331.1500053405762,331.1500053405762,331.1500053405762,331.1500053405762,331.1500053405762,331.1500053405762,331.9656698703766,3,0.9468166828155518,None,,,,,,,,,,,,,,,,,,181,1,2025-03-04_12h03.47.209,comp,2024.2.4,57.93685699446367,2025-03-04 12h06.00.591457 -0500,
130,130,0,filler_square,None,None,None,None,None,None,None,None,None,None,3,1.7637357711791992,None,,,,,0,0,0,0,0,130,130,207,331.9825613498688,,,,,,,,,,,,,,,,,,,,,,,,,,,,,,,,,,,,,,,,,,,,,,,,,,,,,,,,,,,,,,,,,,,,,,,,,,,,,,,,,58.943578144455415,63.15320227538044,59.39396610258852,73.78599099436511,73.8595655191661,73.8595655191661,2.2,2.22,-164,278,0,-274,170,-251,331.9675102233887,331.9675922393799,331.9710216522217,331.9825613498688,332.13181376457214,332.13181376457214,332.13181376457214,332.13181376457214,332.13181376457214,332.13181376457214,332.13181376457214,333.751345872879,3,1.7637357711791992,None,,,,,,,,,,,,,,,,,,181,1,2025-03-04_12h03.47.209,comp,2024.2.4,57.93685699446367,2025-03-04 12h06.00.591457 -0500,
131,131,0,critical,dhw,35.0,4.0,upper,127.0,127.0,200.0,125.0,125.0,200.0,3,1.4821224212646484,None,,,,,0,0,0,0,0,131,131,53,333.7677044868469,,,,,,,,,,,,,,,,,,,,,,,,,,,,,,,,,,,,,,,,,,,,,,,,,,,,,,,,,,,,,,,,,,,,,,,,,,,,,,,,,127.0,127.0,200.0,125.0,125.0,200.0,4.0,4.1,-222,-261,0,0,258,-267,333.75311183929443,333.7531976699829,333.75681376457214,333.7677044868469,333.91954278945923,333.91954278945923,333.91954278945923,333.91954278945923,333.91954278945923,333.91954278945923,333.91954278945923,335.26473236083984,3,1.4821224212646484,None,,,,,,,,,,,,,,,,,,181,1,2025-03-04_12h03.47.209,comp,2024.2.4,57.93685699446367,2025-03-04 12h06.00.591457 -0500,
132,132,0,critical,wdh,35.0,1.0,lower,57.0,133.0,70.0,70.0,133.0,57.0,2,1.3700520992279053,None,,,,,0,0,0,0,0,132,132,72,335.28006052970886,,,,,,,,,,,,,,,,,,,,,,,,,,,,,,,,,,,,,,,,,,,,,,,,,,,,,,,,,,,,,,,,,,,,,,,,,,,,,,,,,57.0,133.0,70.0,70.0,133.0,57.0,1.0,1.1,-678,259,-480,252,-320,254,335.26618671417236,335.26626420021057,335.26914954185486,335.28006052970886,335.4366247653961,335.4366247653961,335.4366247653961,335.4366247653961,335.4366247653961,335.4366247653961,335.4366247653961,336.6674029827118,2,1.3700520992279053,None,,,,,,,,,,,,,,,,,,181,1,2025-03-04_12h03.47.209,comp,2024.2.4,57.93685699446367,2025-03-04 12h06.00.591457 -0500,
133,133,0,filler_square,None,None,None,None,None,None,None,None,None,None,1,0.974602222442627,None,,,,,0,0,0,0,0,133,133,176,336.68365812301636,,,,,,,,,,,,,,,,,,,,,,,,,,,,,,,,,,,,,,,,,,,,,,,,,,,,,,,,,,,,,,,,,,,,,,,,,,,,,,,,,161.78972876633105,161.78972876633105,77.03427783799631,75.43503148754242,151.9284000032431,114.30197582347401,1.0,1.3,265,-286,480,-264,671,-261,336.66919231414795,336.6692707538605,336.67330288887024,336.68365812301636,336.8384749889374,336.8384749889374,336.8384749889374,336.8384749889374,336.8384749889374,336.8384749889374,336.8384749889374,337.66914200782776,1,0.974602222442627,None,,,,,,,,,,,,,,,,,,181,1,2025-03-04_12h03.47.209,comp,2024.2.4,57.93685699446367,2025-03-04 12h06.00.591457 -0500,
134,134,0,critical,hwd,35.0,1.0,upper,200.0,125.0,125.0,200.0,127.0,127.0,3,1.6348583698272705,None,,,,,0,0,0,0,0,134,134,97,337.6869161128998,,,,,,,,,,,,,,,,,,,,,,,,,,,,,,,,,,,,,,,,,,,,,,,,,,,,,,,,,,,,,,,,,,,,,,,,,,,,,,,,,200.0,125.0,125.0,200.0,127.0,127.0,1.0,1.2,-258,12,0,1,260,-3,337.6705992221832,337.6707274913788,337.6738600730896,337.6869161128998,337.83331966400146,337.83331966400146,337.83331966400146,337.83331966400146,337.83331966400146,337.83331966400146,337.83331966400146,339.3338963985443,3,1.6348583698272705,None,,,,,,,,,,,,,,,,,,181,1,2025-03-04_12h03.47.209,comp,2024.2.4,57.93685699446367,2025-03-04 12h06.00.591457 -0500,
135,135,0,filler_random,None,None,None,None,None,None,None,None,None,None,2,0.9159526824951172,None,,,,,0,0,0,0,0,135,135,142,339.349858045578,,,,,,,,,,,,,,,,,,,,,,,,,,,,,,,,,,,,,,,,,,,,,,,,,,,,,,,,,,,,,,,,,,,,,,,,,,,,,,,,,62.27397260358609,128.51354578827738,187.3597158403392,181.10175225578635,105.34904572758583,77.5735692150096,4.0,4.2,-251,7,0,-262,225,-16,339.33555483818054,339.33563137054443,339.33853673934937,339.349858045578,339.50142335891724,339.50142335891724,339.50142335891724,339.50142335891724,339.50142335891724,339.50142335891724,339.50142335891724,340.27773904800415,2,0.9159526824951172,None,,,,,,,,,,,,,,,,,,181,1,2025-03-04_12h03.47.209,comp,2024.2.4,57.93685699446367,2025-03-04 12h06.00.591457 -0500,
136,136,0,critical,hwd,35.0,4.0,upper,200.0,125.0,125.0,200.0,127.0,127.0,2,1.6553103923797607,None,,,,,0,0,0,0,0,136,136,101,340.2984037399292,,,,,,,,,,,,,,,,,,,,,,,,,,,,,,,,,,,,,,,,,,,,,,,,,,,,,,,,,,,,,,,,,,,,,,,,,,,,,,,,,200.0,125.0,125.0,200.0,127.0,127.0,4.0,4.2,-258,15,0,-269,260,-4,340.279363155365,340.27946162223816,340.2826762199402,340.2984037399292,340.4352192878723,340.4352192878723,340.4352192878723,340.4352192878723,340.4352192878723,340.4352192878723,340.4352192878723,341.967787027359,2,1.6553103923797607,None,,,,,,,,,,,,,,,,,,181,1,2025-03-04_12h03.47.209,comp,2024.2.4,57.93685699446367,2025-03-04 12h06.00.591457 -0500,
137,137,0,filler_square,None,None,None,None,None,None,None,None,None,None,3,0.9302945137023926,None,,,,,0,0,0,0,0,137,137,187,341.9840488433838,,,,,,,,,,,,,,,,,,,,,,,,,,,,,,,,,,,,,,,,,,,,,,,,,,,,,,,,,,,,,,,,,,,,,,,,,,,,,,,,,100.1473981980402,87.8622375258644,62.44249631817131,81.91533524484309,107.89846941873724,107.89846941873724,1.0,1.2,-181,-9,0,-1,191,-7,341.9695143699646,341.96959042549133,341.97264337539673,341.9840488433838,342.1241855621338,342.1241855621338,342.1241855621338,342.1241855621338,342.1241855621338,342.1241855621338,342.1241855621338,342.9203610420227,3,0.9302945137023926,None,,,,,,,,,,,,,,,,,,181,1,2025-03-04_12h03.47.209,comp,2024.2.4,57.93685699446367,2025-03-04 12h06.00.591457 -0500,
138,138,0,filler_square,None,None,None,None,None,None,None,None,None,None,3,1.3365013599395752,None,,,,,0,0,0,0,0,138,138,205,342.937224149704,,,,,,,,,,,,,,,,,,,,,,,,,,,,,,,,,,,,,,,,,,,,,,,,,,,,,,,,,,,,,,,,,,,,,,,,,,,,,,,,,68.22365336520731,69.752279364823,63.46651274483559,60.1349983059865,80.18599612772685,80.18599612772685,3.0,3.2,-161,-263,0,2,166,264,342.9221992492676,342.9222824573517,342.9255621433258,342.937224149704,343.0914821624756,343.0914821624756,343.0914821624756,343.0914821624756,343.0914821624756,343.0914821624756,343.0914821624756,344.28936743736267,3,1.3365013599395752,None,,,,,,,,,,,,,,,,,,181,1,2025-03-04_12h03.47.209,comp,2024.2.4,57.93685699446367,2025-03-04 12h06.00.591457 -0500,
139,139,0,filler_random,None,None,None,None,None,None,None,None,None,None,2,0.7023658752441406,None,,,,,0,0,0,0,0,139,139,159,344.30809926986694,,,,,,,,,,,,,,,,,,,,,,,,,,,,,,,,,,,,,,,,,,,,,,,,,,,,,,,,,,,,,,,,,,,,,,,,,,,,,,,,,72.7764048892055,115.76568688581139,130.30796144334428,146.52997658149553,63.275988108433594,62.085075302695174,3.0,3.1,-227,256,0,4,200,-272,344.29168820381165,344.29179668426514,344.2947371006012,344.30809926986694,344.4591233730316,344.4591233730316,344.4591233730316,344.4591233730316,344.4591233730316,344.4591233730316,344.4591233730316,345.018620967865,2,0.7023658752441406,None,,,,,,,,,,,,,,,,,,181,1,2025-03-04_12h03.47.209,comp,2024.2.4,57.93685699446367,2025-03-04 12h06.00.591457 -0500,
