thisN,thisTrialN,thisRepN,effect,order,distance,config,diag,h_1,w_1,h_2,w_2,h_3,w_3,rect_choice.keys,rect_choice.rt,rect_choice.duration,instructions_loop.thisRepN,instructions_loop.thisTrialN,instructions_loop.thisN,instructions_loop.thisIndex,blocks.thisRepN,blocks.thisTrialN,blocks.thisN,blocks.thisIndex,trials.thisRepN,trials.thisTrialN,trials.thisN,trials.thisIndex,thisRow.t,notes,consent.started,agree_button.started,decline_button.started,consent_img.started,mouse.started,consent.stopped,agree_button.numClicks,agree_button.timesOn,agree_button.timesOff,decline_button.numClicks,decline_button.timesOn,decline_button.timesOff,mouse.x,mouse.y,mouse.leftButton,mouse.midButton,mouse.rightButton,mouse.time,mouse.clicked_name,exp_params.started,exp_params.stopped,welcome.started,welcome_text.started,welcome.stopped,instructions_1.started,instructions_1_text_1.started,instructions_1_text_2.started,key_resp.started,instructions_1.stopped,instructions_loop.key_resp.keys,instructions_loop.key_resp.rt,instructions_loop.key_resp.duration,instructions_2.started,instructions_2_text_1.started,instructions_2_text_2.started,key_resp_2.started,instructions_2.stopped,instructions_loop.key_resp_2.keys,instructions_loop.key_resp_2.rt,instructions_loop.key_resp_2.duration,instructions_3.started,instructions_3_text_1.started,r1_instr3.started,r2_instr3.started,r3_instr3.started,r1_instr3_label.started,r2_instr3_label.started,r3_instr3_label.started,instructions_3_text_3.started,instructions_3_text_4.started,key_resp_3.started,instructions_3.stopped,instructions_loop.key_resp_3.keys,instructions_loop.key_resp_3.rt,instructions_loop.key_resp_3.duration,instructions_4.started,instructions_4_text_1.started,instructions_4_text_3.started,instructions_4_text_2.started,key_resp_4.started,instructions_4.stopped,instructions_loop.key_resp_4.keys,instructions_loop.key_resp_4.rt,instructions_loop.key_resp_4.duration,instructions_5.started,instructions_5_text_1.started,instructions_5_text_2.started,key_resp_5.started,instructions_5.stopped,instructions_loop.key_resp_5.keys,instructions_loop.key_resp_5.rt,instructions_loop.key_resp_5.duration,start_exp.started,start_exp_text.started,key_resp_6.started,start_exp.stopped,key_resp_6.keys,key_resp_6.rt,key_resp_6.duration,h_1_tmp,w_1_tmp,h_2_tmp,w_2_tmp,h_3_tmp,w_3_tmp,config_tmp,config_tmp_1,r_1_x,r_1_y,r_2_x,r_2_y,r_3_x,r_3_y,pre_trial.started,pre_trial.stopped,choice_trial.started,rect_choice.started,r_1.started,r_2.started,r_3.started,r_1_label.started,r_2_label.started,r_3_label.started,prompt.started,choice_trial.stopped,trials.rect_choice.keys,trials.rect_choice.rt,trials.rect_choice.duration,end_block.started,end_block_text.started,end_block.stopped,end.started,end_text.started,key_resp_7.started,end.stopped,key_resp_7.keys,key_resp_7.rt,key_resp_7.duration,debriefing.started,debrief_form.started,end_debrief.started,debriefing.stopped,end_debrief.keys,end_debrief.rt,end_debrief.duration,participant,computer,date,expName,psychopyVersion,frameRate,expStart,
,,,,,,,,,,,,,,,,,,,,,,,,,,,,,,,0.015106678009033203,0.03778839111328125,0.03778839111328125,0.03778839111328125,0.014896869659423828,31.81561589241028,1,[31.775312662124634],[31.77534317970276],0,,,[-80.0],[-503.0],[1],[0],[0],[31.800092935562134],['agree_button'],,,,,,,,,,,,,,,,,,,,,,,,,,,,,,,,,,,,,,,,,,,,,,,,,,,,,,,,,,,,,,,,,,,,,,,,,,,,,,,,,,,,,,,,,,,,,,,,,,,,,,,,,,,182,2,2025-03-04_12h03.52.808,comp,2024.2.4,54.518706463910945,2025-03-04 12h05.51.728146 -0500,
,,,,,,,,,,,,,,,,,,,,,,,,,,,,,,,,,,,,,,,,,,,,,,,,,,31.8161883354187,31.81625485420227,,,,,,,,,,,,,,,,,,,,,,,,,,,,,,,,,,,,,,,,,,,,,,,,,,,,,,,,,,,,,,,,,,,,,,,,,,,,,,,,,,,,,,,,,,,,,,,,,,,,,,,,,182,2,2025-03-04_12h03.52.808,comp,2024.2.4,54.518706463910945,2025-03-04 12h05.51.728146 -0500,
,,,,,,,,,,,,,,,,,,,,,,,,,,,,,,,,,,,,,,,,,,,,,,,,,,,,31.816298723220825,31.831855058670044,33.82015585899353,,,,,,,,,,,,,,,,,,,,,,,,,,,,,,,,,,,,,,,,,,,,,,,,,,,,,,,,,,,,,,,,,,,,,,,,,,,,,,,,,,,,,,,,,,,,,,,,,,,,,,182,2,2025-03-04_12h03.52.808,comp,2024.2.4,54.518706463910945,2025-03-04 12h05.51.728146 -0500,
0,0,0,,,,,,,,,,,,,,,0,0,0,0,,,,,,,,,33.837393045425415,,,,,,,,,,,,,,,,,,,,,,,,,,33.82103943824768,33.837393045425415,33.837393045425415,35.32088255882263,37.173014402389526,space,1.8366963863372803,None,37.173163652420044,37.19309449195862,37.19309449195862,38.66836738586426,42.80749464035034,space,4.137147903442383,None,42.807650566101074,42.83626747131348,42.83626747131348,42.83626747131348,42.83626747131348,42.83626747131348,42.83626747131348,42.83626747131348,42.83626747131348,42.83626747131348,44.32254719734192,48.89662218093872,space,4.571478605270386,None,48.89678239822388,48.91396188735962,48.91396188735962,48.91396188735962,50.40685772895813,54.6786105632782,space,4.263315677642822,None,54.67876482009888,54.694334983825684,54.694334983825684,56.177072286605835,56.328571796417236,space,0.1485447883605957,None,56.32876682281494,56.34384608268738,56.34384608268738,57.561004877090454,space,1.2141835689544678,None,,,,,,,,,,,,,,,,,,,,,,,,,,,,,,,,,,,,,,,,,,,,,,,182,2,2025-03-04_12h03.52.808,comp,2024.2.4,54.518706463910945,2025-03-04 12h05.51.728146 -0500,
0,0,0,critical,hdw,20.0,2.1,lower,133.0,57.0,78.0,78.0,57.0,133.0,3,5.873051166534424,None,,,,,0,0,0,0,0,0,0,46,57.636765480041504,,,,,,,,,,,,,,,,,,,,,,,,,,,,,,,,,,,,,,,,,,,,,,,,,,,,,,,,,,,,,,,,,,,,,,,,,,,,,,,,,133.0,57.0,78.0,78.0,57.0,133.0,2.1,2.12,-164,-289,0,-266,202,268,57.620145082473755,57.620179176330566,57.62134385108948,57.636765480041504,57.78622269630432,57.78622269630432,57.78622269630432,57.78622269630432,57.78622269630432,57.78622269630432,57.78622269630432,63.52028036117554,3,5.873051166534424,None,,,,,,,,,,,,,,,,,,182,2,2025-03-04_12h03.52.808,comp,2024.2.4,54.518706463910945,2025-03-04 12h05.51.728146 -0500,
1,1,0,critical,dhw,20.0,1.0,lower,78.0,78.0,133.0,57.0,57.0,133.0,2,8.357467889785767,None,,,,,0,0,0,0,0,1,1,54,63.53690266609192,,,,,,,,,,,,,,,,,,,,,,,,,,,,,,,,,,,,,,,,,,,,,,,,,,,,,,,,,,,,,,,,,,,,,,,,,,,,,,,,,78.0,78.0,133.0,57.0,57.0,133.0,1.0,1.1,-644,264,-480,275,-289,254,63.52173829078674,63.52180051803589,63.52413296699524,63.53690266609192,63.68148875236511,63.68148875236511,63.68148875236511,63.68148875236511,63.68148875236511,63.68148875236511,63.68148875236511,71.90107369422913,2,8.357467889785767,None,,,,,,,,,,,,,,,,,,182,2,2025-03-04_12h03.52.808,comp,2024.2.4,54.518706463910945,2025-03-04 12h05.51.728146 -0500,
2,2,0,filler_random,None,None,None,None,None,None,None,None,None,None,1,2.088228702545166,None,,,,,0,0,0,0,0,2,2,143,71.91740202903748,,,,,,,,,,,,,,,,,,,,,,,,,,,,,,,,,,,,,,,,,,,,,,,,,,,,,,,,,,,,,,,,,,,,,,,,,,,,,,,,,109.45184314318476,141.88273292664326,67.93658817200269,76.91356289940731,58.820890679699374,64.97973658212167,2.1,2.11,-205,253,0,273,167,-269,71.90287828445435,71.9030134677887,71.90649461746216,71.91740202903748,72.06658840179443,72.06658840179443,72.06658840179443,72.06658840179443,72.06658840179443,72.06658840179443,72.06658840179443,74.01610994338989,1,2.088228702545166,None,,,,,,,,,,,,,,,,,,182,2,2025-03-04_12h03.52.808,comp,2024.2.4,54.518706463910945,2025-03-04 12h05.51.728146 -0500,
3,3,0,filler_random,None,None,None,None,None,None,None,None,None,None,3,7.965373277664185,None,,,,,0,0,0,0,0,3,3,144,74.03282022476196,,,,,,,,,,,,,,,,,,,,,,,,,,,,,,,,,,,,,,,,,,,,,,,,,,,,,,,,,,,,,,,,,,,,,,,,,,,,,,,,,182.2715032065202,84.98631903009847,187.2646231097446,81.8152611278713,151.0318936484657,101.72856337320744,4.0,4.1,-179,-288,0,-20,188,-256,74.01783394813538,74.017911195755,74.0211091041565,74.03282022476196,74.18814134597778,74.18814134597778,74.18814134597778,74.18814134597778,74.18814134597778,74.18814134597778,74.18814134597778,82.00866174697876,3,7.965373277664185,None,,,,,,,,,,,,,,,,,,182,2,2025-03-04_12h03.52.808,comp,2024.2.4,54.518706463910945,2025-03-04 12h05.51.728146 -0500,
4,4,0,filler_random,None,None,None,None,None,None,None,None,None,None,3,1.8031115531921387,None,,,,,0,0,0,0,0,4,4,163,82.02717852592468,,,,,,,,,,,,,,,,,,,,,,,,,,,,,,,,,,,,,,,,,,,,,,,,,,,,,,,,,,,,,,,,,,,,,,,,,,,,,,,,,104.84074336192978,137.46537077036487,172.57900476770953,142.58891964726678,197.63354776602304,176.78121653569988,3.0,3.1,-236,272,0,14,256,-289,82.01053619384766,82.01064252853394,82.01394033432007,82.02717852592468,82.17006874084473,82.17006874084473,82.17006874084473,82.17006874084473,82.17006874084473,82.17006874084473,82.17006874084473,83.83758926391602,3,1.8031115531921387,None,,,,,,,,,,,,,,,,,,182,2,2025-03-04_12h03.52.808,comp,2024.2.4,54.518706463910945,2025-03-04 12h05.51.728146 -0500,
5,5,0,filler_square,None,None,None,None,None,None,None,None,None,None,1,2.719719409942627,None,,,,,0,0,0,0,0,5,5,184,83.85419416427612,,,,,,,,,,,,,,,,,,,,,,,,,,,,,,,,,,,,,,,,,,,,,,,,,,,,,,,,,,,,,,,,,,,,,,,,,,,,,,,,,107.76310662253852,107.76310662253852,66.29004069765982,64.4785911847938,86.6752517232146,61.529723468126406,2.2,2.21,-182,-265,0,261,159,278,83.83961534500122,83.83969616889954,83.84329104423523,83.85419416427612,84.00833082199097,84.00833082199097,84.00833082199097,84.00833082199097,84.00833082199097,84.00833082199097,84.00833082199097,86.58919906616211,1,2.719719409942627,None,,,,,,,,,,,,,,,,,,182,2,2025-03-04_12h03.52.808,comp,2024.2.4,54.518706463910945,2025-03-04 12h05.51.728146 -0500,
6,6,0,critical,dwh,35.0,4.0,upper,127.0,127.0,125.0,200.0,200.0,125.0,2,3.8246798515319824,None,,,,,0,0,0,0,0,6,6,65,86.60538673400879,,,,,,,,,,,,,,,,,,,,,,,,,,,,,,,,,,,,,,,,,,,,,,,,,,,,,,,,,,,,,,,,,,,,,,,,,,,,,,,,,127.0,127.0,125.0,200.0,200.0,125.0,4.0,4.1,-260,-270,0,-19,258,-265,86.59099316596985,86.59111189842224,86.59458184242249,86.60538673400879,86.75509977340698,86.75509977340698,86.75509977340698,86.75509977340698,86.75509977340698,86.75509977340698,86.75509977340698,90.43980073928833,2,3.8246798515319824,None,,,,,,,,,,,,,,,,,,182,2,2025-03-04_12h03.52.808,comp,2024.2.4,54.518706463910945,2025-03-04 12h05.51.728146 -0500,
7,7,0,filler_random,None,None,None,None,None,None,None,None,None,None,3,2.6611528396606445,None,,,,,0,0,0,0,0,7,7,164,90.4573142528534,,,,,,,,,,,,,,,,,,,,,,,,,,,,,,,,,,,,,,,,,,,,,,,,,,,,,,,,,,,,,,,,,,,,,,,,,,,,,,,,,132.879072410397,145.4121738467985,81.99658804678668,65.38851706999436,122.22319002046153,162.05779348825533,2.2,2.21,-201,-263,0,278,210,260,90.44167566299438,90.44175863265991,90.44508075714111,90.4573142528534,90.60933566093445,90.60933566093445,90.60933566093445,90.60933566093445,90.60933566093445,90.60933566093445,90.60933566093445,93.12582659721375,3,2.6611528396606445,None,,,,,,,,,,,,,,,,,,182,2,2025-03-04_12h03.52.808,comp,2024.2.4,54.518706463910945,2025-03-04 12h05.51.728146 -0500,
8,8,0,critical,hdw,20.0,4.0,lower,133.0,57.0,78.0,78.0,57.0,133.0,3,4.94430685043335,None,,,,,0,0,0,0,0,8,8,118,93.14181470870972,,,,,,,,,,,,,,,,,,,,,,,,,,,,,,,,,,,,,,,,,,,,,,,,,,,,,,,,,,,,,,,,,,,,,,,,,,,,,,,,,133.0,57.0,78.0,78.0,57.0,133.0,4.0,4.1,-164,-269,0,17,202,-270,93.12751364707947,93.12762713432312,93.13098430633545,93.14181470870972,93.29247689247131,93.29247689247131,93.29247689247131,93.29247689247131,93.29247689247131,93.29247689247131,93.29247689247131,98.0909628868103,3,4.94430685043335,None,,,,,,,,,,,,,,,,,,182,2,2025-03-04_12h03.52.808,comp,2024.2.4,54.518706463910945,2025-03-04 12h05.51.728146 -0500,
9,9,0,filler_random,None,None,None,None,None,None,None,None,None,None,1,2.0507004261016846,None,,,,,0,0,0,0,0,9,9,140,98.10753679275513,,,,,,,,,,,,,,,,,,,,,,,,,,,,,,,,,,,,,,,,,,,,,,,,,,,,,,,,,,,,,,,,,,,,,,,,,,,,,,,,,171.89607044729948,197.7588865727706,178.32869259358614,63.61942443757492,188.88002852481077,136.74699172189025,2.2,2.22,-227,265,0,-284,196,-284,98.09258699417114,98.09266400337219,98.09571933746338,98.10753679275513,98.2578854560852,98.2578854560852,98.2578854560852,98.2578854560852,98.2578854560852,98.2578854560852,98.2578854560852,100.17570185661316,1,2.0507004261016846,None,,,,,,,,,,,,,,,,,,182,2,2025-03-04_12h03.52.808,comp,2024.2.4,54.518706463910945,2025-03-04 12h05.51.728146 -0500,
10,10,0,critical,hdw,35.0,2.1,upper,200.0,125.0,127.0,127.0,125.0,200.0,1,3.542924165725708,None,,,,,0,0,0,0,0,10,10,45,100.19136500358582,,,,,,,,,,,,,,,,,,,,,,,,,,,,,,,,,,,,,,,,,,,,,,,,,,,,,,,,,,,,,,,,,,,,,,,,,,,,,,,,,200.0,125.0,127.0,127.0,125.0,200.0,2.1,2.11,-222,252,0,270,260,-277,100.17722201347351,100.17729592323303,100.18063879013062,100.19136500358582,100.34161496162415,100.34161496162415,100.34161496162415,100.34161496162415,100.34161496162415,100.34161496162415,100.34161496162415,103.74291849136353,1,3.542924165725708,None,,,,,,,,,,,,,,,,,,182,2,2025-03-04_12h03.52.808,comp,2024.2.4,54.518706463910945,2025-03-04 12h05.51.728146 -0500,
11,11,0,filler_random,None,None,None,None,None,None,None,None,None,None,3,1.7666077613830566,None,,,,,0,0,0,0,0,11,11,159,103.75909090042114,,,,,,,,,,,,,,,,,,,,,,,,,,,,,,,,,,,,,,,,,,,,,,,,,,,,,,,,,,,,,,,,,,,,,,,,,,,,,,,,,197.43667079615992,99.47923347278763,197.02507836841164,144.71511462175826,178.47718852864622,189.91455124076344,4.0,4.2,-218,10,0,-251,263,2,103.74458003044128,103.74465942382812,103.7476019859314,103.75909090042114,103.91117334365845,103.91117334365845,103.91117334365845,103.91117334365845,103.91117334365845,103.91117334365845,103.91117334365845,105.52846169471741,3,1.7666077613830566,None,,,,,,,,,,,,,,,,,,182,2,2025-03-04_12h03.52.808,comp,2024.2.4,54.518706463910945,2025-03-04 12h05.51.728146 -0500,
12,12,0,filler_square,None,None,None,None,None,None,None,None,None,None,2,3.173459529876709,None,,,,,0,0,0,0,0,12,12,187,105.5445806980133,,,,,,,,,,,,,,,,,,,,,,,,,,,,,,,,,,,,,,,,,,,,,,,,,,,,,,,,,,,,,,,,,,,,,,,,,,,,,,,,,100.72557518697894,72.95108441181401,101.49415649866582,101.49415649866582,79.35764161941421,57.72655694878899,2.1,2.11,-183,277,0,287,176,-257,105.53038787841797,105.53055214881897,105.5338704586029,105.5445806980133,105.69304847717285,105.69304847717285,105.69304847717285,105.69304847717285,105.69304847717285,105.69304847717285,105.69304847717285,108.72693705558777,2,3.173459529876709,None,,,,,,,,,,,,,,,,,,182,2,2025-03-04_12h03.52.808,comp,2024.2.4,54.518706463910945,2025-03-04 12h05.51.728146 -0500,
13,13,0,filler_random,None,None,None,None,None,None,None,None,None,None,1,2.3835761547088623,None,,,,,0,0,0,0,0,13,13,138,108.74285840988159,,,,,,,,,,,,,,,,,,,,,,,,,,,,,,,,,,,,,,,,,,,,,,,,,,,,,,,,,,,,,,,,,,,,,,,,,,,,,,,,,120.41242686949555,183.81081210094396,165.76054386493922,89.62953950565696,92.40002888393053,64.37471514358236,2.1,2.11,-233,281,0,250,173,-276,108.72865962982178,108.72873830795288,108.73180651664734,108.74285840988159,108.89377999305725,108.89377999305725,108.89377999305725,108.89377999305725,108.89377999305725,108.89377999305725,108.89377999305725,111.12940406799316,1,2.3835761547088623,None,,,,,,,,,,,,,,,,,,182,2,2025-03-04_12h03.52.808,comp,2024.2.4,54.518706463910945,2025-03-04 12h05.51.728146 -0500,
14,14,0,filler_square,None,None,None,None,None,None,None,None,None,None,1,2.4918999671936035,None,,,,,0,0,0,0,0,14,14,183,111.14667677879333,,,,,,,,,,,,,,,,,,,,,,,,,,,,,,,,,,,,,,,,,,,,,,,,,,,,,,,,,,,,,,,,,,,,,,,,,,,,,,,,,111.71983587921687,111.71983587921687,104.1319449437235,78.36394546984693,92.81472359755652,67.30441462304579,2.1,2.11,-191,288,0,285,169,-268,111.13153004646301,111.13161253929138,111.13515520095825,111.14667677879333,111.29510927200317,111.29510927200317,111.29510927200317,111.29510927200317,111.29510927200317,111.29510927200317,111.29510927200317,113.64653038978577,1,2.4918999671936035,None,,,,,,,,,,,,,,,,,,182,2,2025-03-04_12h03.52.808,comp,2024.2.4,54.518706463910945,2025-03-04 12h05.51.728146 -0500,
15,15,0,catch,None,None,None,None,None,None,None,None,None,None,3,1.700901985168457,None,,,,,0,0,0,0,0,15,15,122,113.66482925415039,,,,,,,,,,,,,,,,,,,,,,,,,,,,,,,,,,,,,,,,,,,,,,,,,,,,,,,,,,,,,,,,,,,,,,,,,,,,,,,,,79,111,91,99,132,193,2.1,2.12,-201,-278,0,-273,242,275,113.64847683906555,113.64857029914856,113.65163087844849,113.66482925415039,113.8146481513977,113.8146481513977,113.8146481513977,113.8146481513977,113.8146481513977,113.8146481513977,113.8146481513977,115.37939643859863,3,1.700901985168457,None,,,,,,,,,,,,,,,,,,182,2,2025-03-04_12h03.52.808,comp,2024.2.4,54.518706463910945,2025-03-04 12h05.51.728146 -0500,
16,16,0,filler_square,None,None,None,None,None,None,None,None,None,None,2,1.9539053440093994,None,,,,,0,0,0,0,0,16,16,209,115.3958067893982,,,,,,,,,,,,,,,,,,,,,,,,,,,,,,,,,,,,,,,,,,,,,,,,,,,,,,,,,,,,,,,,,,,,,,,,,,,,,,,,,94.777632082049,85.969171101692,129.00965178257826,129.00965178257826,58.01834508065303,65.52455995242104,2.2,2.21,-203,-261,0,277,193,257,115.38128614425659,115.38136410713196,115.38455557823181,115.3958067893982,115.5472662448883,115.5472662448883,115.5472662448883,115.5472662448883,115.5472662448883,115.5472662448883,115.5472662448883,117.3641369342804,2,1.9539053440093994,None,,,,,,,,,,,,,,,,,,182,2,2025-03-04_12h03.52.808,comp,2024.2.4,54.518706463910945,2025-03-04 12h05.51.728146 -0500,
17,17,0,critical,whd,20.0,4.0,upper,125.0,200.0,200.0,125.0,141.0,141.0,2,2.4299023151397705,None,,,,,0,0,0,0,0,17,17,95,117.3843924999237,,,,,,,,,,,,,,,,,,,,,,,,,,,,,,,,,,,,,,,,,,,,,,,,,,,,,,,,,,,,,,,,,,,,,,,,,,,,,,,,,125.0,200.0,200.0,125.0,141.0,141.0,4.0,4.1,-258,-290,0,8,229,-275,117.3657922744751,117.36591672897339,117.36924529075623,117.3843924999237,117.53131151199341,117.53131151199341,117.53131151199341,117.53131151199341,117.53131151199341,117.53131151199341,117.53131151199341,119.82285833358765,2,2.4299023151397705,None,,,,,,,,,,,,,,,,,,182,2,2025-03-04_12h03.52.808,comp,2024.2.4,54.518706463910945,2025-03-04 12h05.51.728146 -0500,
18,18,0,filler_random,None,None,None,None,None,None,None,None,None,None,1,2.0852065086364746,None,,,,,0,0,0,0,0,18,18,166,119.84139490127563,,,,,,,,,,,,,,,,,,,,,,,,,,,,,,,,,,,,,,,,,,,,,,,,,,,,,,,,,,,,,,,,,,,,,,,,,,,,,,,,,171.98249538299126,171.02084884390405,130.66425534669725,94.85501321708877,153.74707961429476,105.9137339189976,1.0,1.2,-229,14,0,-6,196,9,119.82461547851562,119.82474660873413,119.82798862457275,119.84139490127563,119.98437643051147,119.98437643051147,119.98437643051147,119.98437643051147,119.98437643051147,119.98437643051147,119.98437643051147,121.93338918685913,1,2.0852065086364746,None,,,,,,,,,,,,,,,,,,182,2,2025-03-04_12h03.52.808,comp,2024.2.4,54.518706463910945,2025-03-04 12h05.51.728146 -0500,
19,19,0,critical,dhw,35.0,3.0,lower,70.0,70.0,133.0,57.0,57.0,133.0,3,4.567989349365234,None,,,,,0,0,0,0,0,19,19,50,121.94976043701172,,,,,,,,,,,,,,,,,,,,,,,,,,,,,,,,,,,,,,,,,,,,,,,,,,,,,,,,,,,,,,,,,,,,,,,,,,,,,,,,,70.0,70.0,133.0,57.0,57.0,133.0,3.0,3.2,-160,-277,0,-5,191,282,121.9350757598877,121.93516421318054,121.93896389007568,121.94976043701172,122.10405898094177,122.10405898094177,122.10405898094177,122.10405898094177,122.10405898094177,122.10405898094177,122.10405898094177,126.53339076042175,3,4.567989349365234,None,,,,,,,,,,,,,,,,,,182,2,2025-03-04_12h03.52.808,comp,2024.2.4,54.518706463910945,2025-03-04 12h05.51.728146 -0500,
20,20,0,critical,whd,35.0,2.1,upper,125.0,200.0,200.0,125.0,127.0,127.0,2,4.44813346862793,None,,,,,0,0,0,0,0,20,20,13,126.54975938796997,,,,,,,,,,,,,,,,,,,,,,,,,,,,,,,,,,,,,,,,,,,,,,,,,,,,,,,,,,,,,,,,,,,,,,,,,,,,,,,,,125.0,200.0,200.0,125.0,127.0,127.0,2.1,2.12,-258,-272,0,-265,222,258,126.5349931716919,126.53507041931152,126.5382764339447,126.54975938796997,126.68983340263367,126.68983340263367,126.68983340263367,126.68983340263367,126.68983340263367,126.68983340263367,126.68983340263367,131.0022909641266,2,4.44813346862793,None,,,,,,,,,,,,,,,,,,182,2,2025-03-04_12h03.52.808,comp,2024.2.4,54.518706463910945,2025-03-04 12h05.51.728146 -0500,
21,21,0,filler_random,None,None,None,None,None,None,None,None,None,None,2,3.5312132835388184,None,,,,,0,0,0,0,0,21,21,147,131.0193612575531,,,,,,,,,,,,,,,,,,,,,,,,,,,,,,,,,,,,,,,,,,,,,,,,,,,,,,,,,,,,,,,,,,,,,,,,,,,,,,,,,107.24427692140554,184.0964538533779,108.79621960985097,179.83459890937536,190.15138037118558,86.18354387934863,3.0,3.2,-278,-261,0,7,229,256,131.0042600631714,131.0044014453888,131.00851225852966,131.0193612575531,131.1671781539917,131.1671781539917,131.1671781539917,131.1671781539917,131.1671781539917,131.1671781539917,131.1671781539917,134.55762672424316,2,3.5312132835388184,None,,,,,,,,,,,,,,,,,,182,2,2025-03-04_12h03.52.808,comp,2024.2.4,54.518706463910945,2025-03-04 12h05.51.728146 -0500,
22,22,0,critical,hwd,20.0,2.1,lower,133.0,57.0,57.0,133.0,78.0,78.0,2,2.8934502601623535,None,,,,,0,0,0,0,0,22,22,18,134.57634019851685,,,,,,,,,,,,,,,,,,,,,,,,,,,,,,,,,,,,,,,,,,,,,,,,,,,,,,,,,,,,,,,,,,,,,,,,,,,,,,,,,133.0,57.0,57.0,133.0,78.0,78.0,2.1,2.12,-191,-261,0,-275,202,277,134.5592646598816,134.55936551094055,134.56275916099548,134.57634019851685,134.72046780586243,134.72046780586243,134.72046780586243,134.72046780586243,134.72046780586243,134.72046780586243,134.72046780586243,137.48702239990234,2,2.8934502601623535,None,,,,,,,,,,,,,,,,,,182,2,2025-03-04_12h03.52.808,comp,2024.2.4,54.518706463910945,2025-03-04 12h05.51.728146 -0500,
23,23,0,filler_random,None,None,None,None,None,None,None,None,None,None,2,2.343202590942383,None,,,,,0,0,0,0,0,23,23,152,137.50351929664612,,,,,,,,,,,,,,,,,,,,,,,,,,,,,,,,,,,,,,,,,,,,,,,,,,,,,,,,,,,,,,,,,,,,,,,,,,,,,,,,,71.06216063723272,93.85851197871378,182.88282004666894,115.74722322705719,134.48812357221934,133.67514759334748,4.0,4.2,-201,6,0,-281,221,6,137.48888611793518,137.48901104927063,137.4922480583191,137.50351929664612,137.65454030036926,137.65454030036926,137.65454030036926,137.65454030036926,137.65454030036926,137.65454030036926,137.65454030036926,139.85409665107727,2,2.343202590942383,None,,,,,,,,,,,,,,,,,,182,2,2025-03-04_12h03.52.808,comp,2024.2.4,54.518706463910945,2025-03-04 12h05.51.728146 -0500,
24,24,0,filler_random,None,None,None,None,None,None,None,None,None,None,1,2.1357619762420654,None,,,,,0,0,0,0,0,24,24,136,139.87057399749756,,,,,,,,,,,,,,,,,,,,,,,,,,,,,,,,,,,,,,,,,,,,,,,,,,,,,,,,,,,,,,,,,,,,,,,,,,,,,,,,,132.32599497232957,163.2258481267218,166.62718516145827,104.43856400119,76.65083046047384,125.3268497618875,2.1,2.11,-230,286,0,276,211,-252,139.8557586669922,139.85583591461182,139.85900020599365,139.87057399749756,140.02309226989746,140.02309226989746,140.02309226989746,140.02309226989746,140.02309226989746,140.02309226989746,140.02309226989746,142.01483345031738,1,2.1357619762420654,None,,,,,,,,,,,,,,,,,,182,2,2025-03-04_12h03.52.808,comp,2024.2.4,54.518706463910945,2025-03-04 12h05.51.728146 -0500,
25,25,0,filler_square,None,None,None,None,None,None,None,None,None,None,1,1.3215765953063965,None,,,,,0,0,0,0,0,25,25,193,142.03623294830322,,,,,,,,,,,,,,,,,,,,,,,,,,,,,,,,,,,,,,,,,,,,,,,,,,,,,,,,,,,,,,,,,,,,,,,,,,,,,,,,,154.14436033042907,154.14436033042907,117.47244761670407,121.90500639301656,80.33128432743541,76.51677895806665,2.1,2.12,-234,-263,0,-269,195,258,142.01693201065063,142.01701426506042,142.02033710479736,142.03623294830322,142.17591500282288,142.17591500282288,142.17591500282288,142.17591500282288,142.17591500282288,142.17591500282288,142.17591500282288,143.374742269516,1,1.3215765953063965,None,,,,,,,,,,,,,,,,,,182,2,2025-03-04_12h03.52.808,comp,2024.2.4,54.518706463910945,2025-03-04 12h05.51.728146 -0500,
26,26,0,critical,whd,20.0,3.0,lower,57.0,133.0,133.0,57.0,78.0,78.0,1,2.1890056133270264,None,,,,,0,0,0,0,0,26,26,92,143.3928186893463,,,,,,,,,,,,,,,,,,,,,,,,,,,,,,,,,,,,,,,,,,,,,,,,,,,,,,,,,,,,,,,,,,,,,,,,,,,,,,,,,57.0,133.0,133.0,57.0,78.0,78.0,3.0,3.1,-191,259,0,-6,164,-253,143.37645769119263,143.3766028881073,143.3800654411316,143.3928186893463,143.54294729232788,143.54294729232788,143.54294729232788,143.54294729232788,143.54294729232788,143.54294729232788,143.54294729232788,145.59624314308167,1,2.1890056133270264,None,,,,,,,,,,,,,,,,,,182,2,2025-03-04_12h03.52.808,comp,2024.2.4,54.518706463910945,2025-03-04 12h05.51.728146 -0500,
27,27,0,catch,None,None,None,None,None,None,None,None,None,None,1,0.8797526359558105,None,,,,,0,0,0,0,0,27,27,123,145.6143081188202,,,,,,,,,,,,,,,,,,,,,,,,,,,,,,,,,,,,,,,,,,,,,,,,,,,,,,,,,,,,,,,,,,,,,,,,,,,,,,,,,138,187,99,91,116,74,2.1,2.11,-235,278,0,251,178,-256,145.59822630882263,145.5983076095581,145.60123562812805,145.6143081188202,145.75649189949036,145.75649189949036,145.75649189949036,145.75649189949036,145.75649189949036,145.75649189949036,145.75649189949036,146.4962875843048,1,0.8797526359558105,None,,,,,,,,,,,,,,,,,,182,2,2025-03-04_12h03.52.808,comp,2024.2.4,54.518706463910945,2025-03-04 12h05.51.728146 -0500,
28,28,0,filler_random,None,None,None,None,None,None,None,None,None,None,3,1.7342238426208496,None,,,,,0,0,0,0,0,28,28,153,146.5117747783661,,,,,,,,,,,,,,,,,,,,,,,,,,,,,,,,,,,,,,,,,,,,,,,,,,,,,,,,,,,,,,,,,,,,,,,,,,,,,,,,,104.2557058923895,121.09842977716502,96.24555615451557,63.91693169829563,174.41873362296525,124.9678723828369,3.0,3.1,-189,286,0,-17,190,-281,146.49805569648743,146.49813580513,146.50109362602234,146.5117747783661,146.65686631202698,146.65686631202698,146.65686631202698,146.65686631202698,146.65686631202698,146.65686631202698,146.65686631202698,148.25839257240295,3,1.7342238426208496,None,,,,,,,,,,,,,,,,,,182,2,2025-03-04_12h03.52.808,comp,2024.2.4,54.518706463910945,2025-03-04 12h05.51.728146 -0500,
29,29,0,critical,whd,20.0,4.0,lower,57.0,133.0,133.0,57.0,78.0,78.0,1,2.2501726150512695,None,,,,,0,0,0,0,0,29,29,94,148.27561450004578,,,,,,,,,,,,,,,,,,,,,,,,,,,,,,,,,,,,,,,,,,,,,,,,,,,,,,,,,,,,,,,,,,,,,,,,,,,,,,,,,57.0,133.0,133.0,57.0,78.0,78.0,4.0,4.1,-191,-277,0,11,164,-255,148.26005864143372,148.2601842880249,148.26385402679443,148.27561450004578,148.42485666275024,148.42485666275024,148.42485666275024,148.42485666275024,148.42485666275024,148.42485666275024,148.42485666275024,150.54037141799927,1,2.2501726150512695,None,,,,,,,,,,,,,,,,,,182,2,2025-03-04_12h03.52.808,comp,2024.2.4,54.518706463910945,2025-03-04 12h05.51.728146 -0500,
30,30,0,critical,whd,35.0,1.0,lower,57.0,133.0,133.0,57.0,70.0,70.0,1,1.8417003154754639,None,,,,,0,0,0,0,0,30,30,84,150.55696988105774,,,,,,,,,,,,,,,,,,,,,,,,,,,,,,,,,,,,,,,,,,,,,,,,,,,,,,,,,,,,,,,,,,,,,,,,,,,,,,,,,57.0,133.0,133.0,57.0,70.0,70.0,1.0,1.1,-671,255,-480,289,-320,287,150.54205703735352,150.54219508171082,150.54555892944336,150.55696988105774,150.71430039405823,150.71430039405823,150.71430039405823,150.71430039405823,150.71430039405823,150.71430039405823,150.71430039405823,152.40940642356873,1,1.8417003154754639,None,,,,,,,,,,,,,,,,,,182,2,2025-03-04_12h03.52.808,comp,2024.2.4,54.518706463910945,2025-03-04 12h05.51.728146 -0500,
31,31,0,filler_square,None,None,None,None,None,None,None,None,None,None,3,3.1319239139556885,None,,,,,0,0,0,0,0,31,31,195,152.42602849006653,,,,,,,,,,,,,,,,,,,,,,,,,,,,,,,,,,,,,,,,,,,,,,,,,,,,,,,,,,,,,,,,,,,,,,,,,,,,,,,,,58.120256197176836,71.81248557419417,58.056610455714036,64.41146533323068,74.10715753434104,74.10715753434104,2.1,2.11,-164,286,0,279,165,-262,152.4111247062683,152.41120052337646,152.41526246070862,152.42602849006653,152.57411861419678,152.57411861419678,152.57411861419678,152.57411861419678,152.57411861419678,152.57411861419678,152.57411861419678,155.57099223136902,3,3.1319239139556885,None,,,,,,,,,,,,,,,,,,182,2,2025-03-04_12h03.52.808,comp,2024.2.4,54.518706463910945,2025-03-04 12h05.51.728146 -0500,
32,32,0,critical,hdw,35.0,2.1,lower,133.0,57.0,70.0,70.0,57.0,133.0,1,1.8725311756134033,None,,,,,0,0,0,0,0,32,32,44,155.58931350708008,,,,,,,,,,,,,,,,,,,,,,,,,,,,,,,,,,,,,,,,,,,,,,,,,,,,,,,,,,,,,,,,,,,,,,,,,,,,,,,,,133.0,57.0,70.0,70.0,57.0,133.0,2.1,2.11,-160,268,0,281,198,-288,155.57259392738342,155.57267022132874,155.57594680786133,155.58931350708008,155.72681856155396,155.72681856155396,155.72681856155396,155.72681856155396,155.72681856155396,155.72681856155396,155.72681856155396,157.47668552398682,1,1.8725311756134033,None,,,,,,,,,,,,,,,,,,182,2,2025-03-04_12h03.52.808,comp,2024.2.4,54.518706463910945,2025-03-04 12h05.51.728146 -0500,
33,33,0,filler_square,None,None,None,None,None,None,None,None,None,None,1,2.053882122039795,None,,,,,0,0,0,0,0,33,33,170,157.4959433078766,,,,,,,,,,,,,,,,,,,,,,,,,,,,,,,,,,,,,,,,,,,,,,,,,,,,,,,,,,,,,,,,,,,,,,,,,,,,,,,,,93.77337432792055,93.77337432792055,88.04786141411076,73.93035543025104,57.205554271095096,79.98391817610225,2.1,2.12,-180,-254,0,-253,173,284,157.47856092453003,157.4786376953125,157.48159909248352,157.4959433078766,157.6447412967682,157.6447412967682,157.6447412967682,157.6447412967682,157.6447412967682,157.6447412967682,157.6447412967682,159.56014108657837,1,2.053882122039795,None,,,,,,,,,,,,,,,,,,182,2,2025-03-04_12h03.52.808,comp,2024.2.4,54.518706463910945,2025-03-04 12h05.51.728146 -0500,
34,34,0,critical,wdh,35.0,3.0,upper,125.0,200.0,127.0,127.0,200.0,125.0,1,2.7183308601379395,None,,,,,0,0,0,0,0,34,34,75,159.57583165168762,,,,,,,,,,,,,,,,,,,,,,,,,,,,,,,,,,,,,,,,,,,,,,,,,,,,,,,,,,,,,,,,,,,,,,,,,,,,,,,,,125.0,200.0,127.0,127.0,200.0,125.0,3.0,3.2,-260,-259,0,17,222,270,159.56166672706604,159.56174683570862,159.56462287902832,159.57583165168762,159.73359084129333,159.73359084129333,159.73359084129333,159.73359084129333,159.73359084129333,159.73359084129333,159.73359084129333,162.3128261566162,1,2.7183308601379395,None,,,,,,,,,,,,,,,,,,182,2,2025-03-04_12h03.52.808,comp,2024.2.4,54.518706463910945,2025-03-04 12h05.51.728146 -0500,
35,35,0,critical,hwd,35.0,3.0,lower,133.0,57.0,57.0,133.0,70.0,70.0,2,2.1496546268463135,None,,,,,0,0,0,0,0,35,35,98,162.32851600646973,,,,,,,,,,,,,,,,,,,,,,,,,,,,,,,,,,,,,,,,,,,,,,,,,,,,,,,,,,,,,,,,,,,,,,,,,,,,,,,,,133.0,57.0,57.0,133.0,70.0,70.0,3.0,3.1,-191,262,0,-10,198,-274,162.3145444393158,162.3146436214447,162.3181972503662,162.32851600646973,162.47814011573792,162.47814011573792,162.47814011573792,162.47814011573792,162.47814011573792,162.47814011573792,162.47814011573792,164.49807596206665,2,2.1496546268463135,None,,,,,,,,,,,,,,,,,,182,2,2025-03-04_12h03.52.808,comp,2024.2.4,54.518706463910945,2025-03-04 12h05.51.728146 -0500,
36,36,0,critical,wdh,20.0,2.1,upper,125.0,200.0,141.0,141.0,200.0,125.0,1,2.155844211578369,None,,,,,0,0,0,0,0,36,36,11,164.5139479637146,,,,,,,,,,,,,,,,,,,,,,,,,,,,,,,,,,,,,,,,,,,,,,,,,,,,,,,,,,,,,,,,,,,,,,,,,,,,,,,,,125.0,200.0,141.0,141.0,200.0,125.0,2.1,2.11,-266,274,0,251,229,-270,164.49973797798157,164.49981474876404,164.50366473197937,164.5139479637146,164.66256475448608,164.66256475448608,164.66256475448608,164.66256475448608,164.66256475448608,164.66256475448608,164.66256475448608,166.68697261810303,1,2.155844211578369,None,,,,,,,,,,,,,,,,,,182,2,2025-03-04_12h03.52.808,comp,2024.2.4,54.518706463910945,2025-03-04 12h05.51.728146 -0500,
37,37,0,filler_random,None,None,None,None,None,None,None,None,None,None,1,3.488483190536499,None,,,,,0,0,0,0,0,37,37,158,166.70215964317322,,,,,,,,,,,,,,,,,,,,,,,,,,,,,,,,,,,,,,,,,,,,,,,,,,,,,,,,,,,,,,,,,,,,,,,,,,,,,,,,,130.76366726934123,167.39015476917893,187.49656289813484,94.76584638605726,97.67130956213447,106.7456937598568,2.1,2.12,-227,-254,0,-279,197,268,166.6886899471283,166.68876791000366,166.69172143936157,166.70215964317322,166.84635090827942,166.84635090827942,166.84635090827942,166.84635090827942,166.84635090827942,166.84635090827942,166.84635090827942,170.19805026054382,1,3.488483190536499,None,,,,,,,,,,,,,,,,,,182,2,2025-03-04_12h03.52.808,comp,2024.2.4,54.518706463910945,2025-03-04 12h05.51.728146 -0500,
38,38,0,critical,dwh,20.0,4.0,lower,78.0,78.0,57.0,133.0,133.0,57.0,2,1.8793957233428955,None,,,,,0,0,0,0,0,38,38,70,170.21481204032898,,,,,,,,,,,,,,,,,,,,,,,,,,,,,,,,,,,,,,,,,,,,,,,,,,,,,,,,,,,,,,,,,,,,,,,,,,,,,,,,,78.0,78.0,57.0,133.0,133.0,57.0,4.0,4.1,-202,-279,0,-8,191,-288,170.19967412948608,170.19975304603577,170.20326614379883,170.21481204032898,170.3640592098236,170.3640592098236,170.3640592098236,170.3640592098236,170.3640592098236,170.3640592098236,170.3640592098236,172.0974361896515,2,1.8793957233428955,None,,,,,,,,,,,,,,,,,,182,2,2025-03-04_12h03.52.808,comp,2024.2.4,54.518706463910945,2025-03-04 12h05.51.728146 -0500,
39,39,0,critical,whd,35.0,2.1,upper,125.0,200.0,200.0,125.0,127.0,127.0,2,2.2187252044677734,None,,,,,0,0,0,0,0,39,39,37,172.11520433425903,,,,,,,,,,,,,,,,,,,,,,,,,,,,,,,,,,,,,,,,,,,,,,,,,,,,,,,,,,,,,,,,,,,,,,,,,,,,,,,,,125.0,200.0,200.0,125.0,127.0,127.0,2.1,2.12,-258,-289,0,-274,222,257,172.09902596473694,172.09910583496094,172.10223937034607,172.11520433425903,172.26567602157593,172.26567602157593,172.26567602157593,172.26567602157593,172.26567602157593,172.26567602157593,172.26567602157593,174.34915924072266,2,2.2187252044677734,None,,,,,,,,,,,,,,,,,,182,2,2025-03-04_12h03.52.808,comp,2024.2.4,54.518706463910945,2025-03-04 12h05.51.728146 -0500,
40,40,0,filler_random,None,None,None,None,None,None,None,None,None,None,1,1.9774467945098877,None,,,,,0,0,0,0,0,40,40,168,174.3651328086853,,,,,,,,,,,,,,,,,,,,,,,,,,,,,,,,,,,,,,,,,,,,,,,,,,,,,,,,,,,,,,,,,,,,,,,,,,,,,,,,,187.4438329259781,181.06042873977233,117.81647667966395,196.2262778086932,99.20596324498663,73.003822037216,4.0,4.1,-285,-259,0,-5,231,-260,174.35107946395874,174.35115957260132,174.35482454299927,174.3651328086853,174.51335644721985,174.51335644721985,174.51335644721985,174.51335644721985,174.51335644721985,174.51335644721985,174.51335644721985,176.3489592075348,1,1.9774467945098877,None,,,,,,,,,,,,,,,,,,182,2,2025-03-04_12h03.52.808,comp,2024.2.4,54.518706463910945,2025-03-04 12h05.51.728146 -0500,
41,41,0,critical,dhw,20.0,2.1,upper,141.0,141.0,200.0,125.0,125.0,200.0,2,2.9201598167419434,None,,,,,0,0,0,0,0,41,41,3,176.36569690704346,,,,,,,,,,,,,,,,,,,,,,,,,,,,,,,,,,,,,,,,,,,,,,,,,,,,,,,,,,,,,,,,,,,,,,,,,,,,,,,,,141.0,141.0,200.0,125.0,125.0,200.0,2.1,2.11,-229,270,0,282,258,-256,176.35055565834045,176.35063362121582,176.35401368141174,176.36569690704346,176.52177834510803,176.52177834510803,176.52177834510803,176.52177834510803,176.52177834510803,176.52177834510803,176.52177834510803,179.3027789592743,2,2.9201598167419434,None,,,,,,,,,,,,,,,,,,182,2,2025-03-04_12h03.52.808,comp,2024.2.4,54.518706463910945,2025-03-04 12h05.51.728146 -0500,
42,42,0,critical,whd,20.0,2.1,upper,125.0,200.0,200.0,125.0,141.0,141.0,2,3.167750597000122,None,,,,,0,0,0,0,0,42,42,39,179.31847071647644,,,,,,,,,,,,,,,,,,,,,,,,,,,,,,,,,,,,,,,,,,,,,,,,,,,,,,,,,,,,,,,,,,,,,,,,,,,,,,,,,125.0,200.0,200.0,125.0,141.0,141.0,2.1,2.11,-258,273,0,266,229,-261,179.30455255508423,179.3047182559967,179.30808472633362,179.31847071647644,179.4717571735382,179.4717571735382,179.4717571735382,179.4717571735382,179.4717571735382,179.4717571735382,179.4717571735382,182.50112986564636,2,3.167750597000122,None,,,,,,,,,,,,,,,,,,182,2,2025-03-04_12h03.52.808,comp,2024.2.4,54.518706463910945,2025-03-04 12h05.51.728146 -0500,
43,43,0,critical,dwh,35.0,1.0,upper,127.0,127.0,125.0,200.0,200.0,125.0,2,2.0062880516052246,None,,,,,0,0,0,0,0,43,43,61,182.52072262763977,,,,,,,,,,,,,,,,,,,,,,,,,,,,,,,,,,,,,,,,,,,,,,,,,,,,,,,,,,,,,,,,,,,,,,,,,,,,,,,,,127.0,127.0,125.0,200.0,200.0,125.0,1.0,1.1,-740,275,-480,265,-222,281,182.50271034240723,182.50279188156128,182.50603795051575,182.52072262763977,182.6691927909851,182.6691927909851,182.6691927909851,182.6691927909851,182.6691927909851,182.6691927909851,182.6691927909851,184.53712034225464,2,2.0062880516052246,None,,,,,,,,,,,,,,,,,,182,2,2025-03-04_12h03.52.808,comp,2024.2.4,54.518706463910945,2025-03-04 12h05.51.728146 -0500,
44,44,0,critical,dhw,35.0,4.0,upper,127.0,127.0,200.0,125.0,125.0,200.0,2,1.676722764968872,None,,,,,0,0,0,0,0,44,44,53,184.5534303188324,,,,,,,,,,,,,,,,,,,,,,,,,,,,,,,,,,,,,,,,,,,,,,,,,,,,,,,,,,,,,,,,,,,,,,,,,,,,,,,,,127.0,127.0,200.0,125.0,125.0,200.0,4.0,4.2,-222,11,0,-259,258,1,184.5387225151062,184.53884959220886,184.54271125793457,184.5534303188324,184.70077681541443,184.70077681541443,184.70077681541443,184.70077681541443,184.70077681541443,184.70077681541443,184.70077681541443,186.23297357559204,2,1.676722764968872,None,,,,,,,,,,,,,,,,,,182,2,2025-03-04_12h03.52.808,comp,2024.2.4,54.518706463910945,2025-03-04 12h05.51.728146 -0500,
45,45,0,filler_random,None,None,None,None,None,None,None,None,None,None,2,1.2992374897003174,None,,,,,0,0,0,0,0,45,45,157,186.25015020370483,,,,,,,,,,,,,,,,,,,,,,,,,,,,,,,,,,,,,,,,,,,,,,,,,,,,,,,,,,,,,,,,,,,,,,,,,,,,,,,,,145.02302293952562,102.95026043275641,156.3231234366741,194.86756390745177,86.87462244607933,122.10706625368097,2.1,2.12,-245,-264,0,-261,254,280,186.2346966266632,186.23477625846863,186.23773431777954,186.25015020370483,186.3897614479065,186.3897614479065,186.3897614479065,186.3897614479065,186.3897614479065,186.3897614479065,186.3897614479065,187.56876802444458,2,1.2992374897003174,None,,,,,,,,,,,,,,,,,,182,2,2025-03-04_12h03.52.808,comp,2024.2.4,54.518706463910945,2025-03-04 12h05.51.728146 -0500,
46,46,0,critical,dhw,35.0,2.1,upper,127.0,127.0,200.0,125.0,125.0,200.0,3,2.3257970809936523,None,,,,,0,0,0,0,0,46,46,1,187.58411312103271,,,,,,,,,,,,,,,,,,,,,,,,,,,,,,,,,,,,,,,,,,,,,,,,,,,,,,,,,,,,,,,,,,,,,,,,,,,,,,,,,127.0,127.0,200.0,125.0,125.0,200.0,2.1,2.12,-222,-277,0,-284,258,253,187.57023215293884,187.57030582427979,187.5732774734497,187.58411312103271,187.74132013320923,187.74132013320923,187.74132013320923,187.74132013320923,187.74132013320923,187.74132013320923,187.74132013320923,189.9261133670807,3,2.3257970809936523,None,,,,,,,,,,,,,,,,,,182,2,2025-03-04_12h03.52.808,comp,2024.2.4,54.518706463910945,2025-03-04 12h05.51.728146 -0500,
47,47,0,critical,hwd,20.0,1.0,upper,200.0,125.0,125.0,200.0,141.0,141.0,2,2.5267984867095947,None,,,,,0,0,0,0,0,47,47,103,189.94322109222412,,,,,,,,,,,,,,,,,,,,,,,,,,,,,,,,,,,,,,,,,,,,,,,,,,,,,,,,,,,,,,,,,,,,,,,,,,,,,,,,,200.0,125.0,125.0,200.0,141.0,141.0,1.0,1.1,-738,260,-480,255,-214,270,189.92761278152466,189.92769145965576,189.93060064315796,189.94322109222412,190.08874773979187,190.08874773979187,190.08874773979187,190.08874773979187,190.08874773979187,190.08874773979187,190.08874773979187,192.47409105300903,2,2.5267984867095947,None,,,,,,,,,,,,,,,,,,182,2,2025-03-04_12h03.52.808,comp,2024.2.4,54.518706463910945,2025-03-04 12h05.51.728146 -0500,
48,48,0,critical,hdw,35.0,4.0,lower,133.0,57.0,70.0,70.0,57.0,133.0,1,3.777801036834717,None,,,,,0,0,0,0,0,48,48,112,192.4928321838379,,,,,,,,,,,,,,,,,,,,,,,,,,,,,,,,,,,,,,,,,,,,,,,,,,,,,,,,,,,,,,,,,,,,,,,,,,,,,,,,,133.0,57.0,70.0,70.0,57.0,133.0,4.0,4.2,-160,-18,0,-279,198,-3,192.47594547271729,192.47603106498718,192.47933197021484,192.4928321838379,192.63884019851685,192.63884019851685,192.63884019851685,192.63884019851685,192.63884019851685,192.63884019851685,192.63884019851685,196.27300214767456,1,3.777801036834717,None,,,,,,,,,,,,,,,,,,182,2,2025-03-04_12h03.52.808,comp,2024.2.4,54.518706463910945,2025-03-04 12h05.51.728146 -0500,
49,49,0,critical,dwh,20.0,2.1,lower,78.0,78.0,57.0,133.0,133.0,57.0,2,2.766172170639038,None,,,,,0,0,0,0,0,49,49,30,196.2881555557251,,,,,,,,,,,,,,,,,,,,,,,,,,,,,,,,,,,,,,,,,,,,,,,,,,,,,,,,,,,,,,,,,,,,,,,,,,,,,,,,,78.0,78.0,57.0,133.0,133.0,57.0,2.1,2.11,-202,271,0,261,191,-268,196.2747893333435,196.27491760253906,196.2781434059143,196.2881555557251,196.43812489509583,196.43812489509583,196.43812489509583,196.43812489509583,196.43812489509583,196.43812489509583,196.43812489509583,199.05898547172546,2,2.766172170639038,None,,,,,,,,,,,,,,,,,,182,2,2025-03-04_12h03.52.808,comp,2024.2.4,54.518706463910945,2025-03-04 12h05.51.728146 -0500,
50,50,0,filler_random,None,None,None,None,None,None,None,None,None,None,1,3.277194023132324,None,,,,,0,0,0,0,0,50,50,130,199.07496809959412,,,,,,,,,,,,,,,,,,,,,,,,,,,,,,,,,,,,,,,,,,,,,,,,,,,,,,,,,,,,,,,,,,,,,,,,,,,,,,,,,172.96016850843625,133.36175048469954,124.7804181069643,196.62438714529614,95.74251506173887,161.48358665155,1.0,1.3,219,-265,480,-257,755,-265,199.06090378761292,199.06098556518555,199.0642614364624,199.07496809959412,199.2236077785492,199.2236077785492,199.2236077785492,199.2236077785492,199.2236077785492,199.2236077785492,199.2236077785492,202.35634851455688,1,3.277194023132324,None,,,,,,,,,,,,,,,,,,182,2,2025-03-04_12h03.52.808,comp,2024.2.4,54.518706463910945,2025-03-04 12h05.51.728146 -0500,
51,51,0,critical,dhw,35.0,1.0,upper,127.0,127.0,200.0,125.0,125.0,200.0,2,2.006577491760254,None,,,,,0,0,0,0,0,51,51,49,202.3765127658844,,,,,,,,,,,,,,,,,,,,,,,,,,,,,,,,,,,,,,,,,,,,,,,,,,,,,,,,,,,,,,,,,,,,,,,,,,,,,,,,,127.0,127.0,200.0,125.0,125.0,200.0,1.0,1.2,-222,-18,0,14,258,9,202.35784482955933,202.35792350769043,202.36082410812378,202.3765127658844,202.50902318954468,202.50902318954468,202.50902318954468,202.50902318954468,202.50902318954468,202.50902318954468,202.50902318954468,204.393057346344,2,2.006577491760254,None,,,,,,,,,,,,,,,,,,182,2,2025-03-04_12h03.52.808,comp,2024.2.4,54.518706463910945,2025-03-04 12h05.51.728146 -0500,
52,52,0,filler_square,None,None,None,None,None,None,None,None,None,None,3,2.700909376144409,None,,,,,0,0,0,0,0,52,52,189,204.40912628173828,,,,,,,,,,,,,,,,,,,,,,,,,,,,,,,,,,,,,,,,,,,,,,,,,,,,,,,,,,,,,,,,,,,,,,,,,,,,,,,,,60.86844114571761,59.263251767994056,70.9072595504414,70.9072595504414,68.57240314616507,70.79342322311689,1.0,1.2,-161,11,0,6,167,-6,204.39483189582825,204.39494061470032,204.39825081825256,204.40912628173828,204.5598967075348,204.5598967075348,204.5598967075348,204.5598967075348,204.5598967075348,204.5598967075348,204.5598967075348,207.12705826759338,3,2.700909376144409,None,,,,,,,,,,,,,,,,,,182,2,2025-03-04_12h03.52.808,comp,2024.2.4,54.518706463910945,2025-03-04 12h05.51.728146 -0500,
53,53,0,filler_square,None,None,None,None,None,None,None,None,None,None,2,1.5501689910888672,None,,,,,0,0,0,0,0,53,53,172,207.14384627342224,,,,,,,,,,,,,,,,,,,,,,,,,,,,,,,,,,,,,,,,,,,,,,,,,,,,,,,,,,,,,,,,,,,,,,,,,,,,,,,,,72.82177382261801,128.2184391886343,172.88972741767464,172.88972741767464,130.95573029828995,64.23364640754335,2.2,2.22,-247,252,0,-254,215,-256,207.12926054000854,207.1294026374817,207.1331491470337,207.14384627342224,207.29434299468994,207.29434299468994,207.29434299468994,207.29434299468994,207.29434299468994,207.29434299468994,207.29434299468994,208.70887160301208,2,1.5501689910888672,None,,,,,,,,,,,,,,,,,,182,2,2025-03-04_12h03.52.808,comp,2024.2.4,54.518706463910945,2025-03-04 12h05.51.728146 -0500,
54,54,0,catch,None,None,None,None,None,None,None,None,None,None,1,1.320134162902832,None,,,,,0,0,0,0,0,54,54,125,208.7265191078186,,,,,,,,,,,,,,,,,,,,,,,,,,,,,,,,,,,,,,,,,,,,,,,,,,,,,,,,,,,,,,,,,,,,,,,,,,,,,,,,,151,174,67,123,126,64,2.1,2.11,-244,273,0,259,190,-278,208.71087384223938,208.71095275878906,208.71407437324524,208.7265191078186,208.8616578578949,208.8616578578949,208.8616578578949,208.8616578578949,208.8616578578949,208.8616578578949,208.8616578578949,210.0523452758789,1,1.320134162902832,None,,,,,,,,,,,,,,,,,,182,2,2025-03-04_12h03.52.808,comp,2024.2.4,54.518706463910945,2025-03-04 12h05.51.728146 -0500,
55,55,0,filler_random,None,None,None,None,None,None,None,None,None,None,3,3.945505142211914,None,,,,,0,0,0,0,0,55,55,165,210.0685169696808,,,,,,,,,,,,,,,,,,,,,,,,,,,,,,,,,,,,,,,,,,,,,,,,,,,,,,,,,,,,,,,,,,,,,,,,,,,,,,,,,142.65550665371245,80.25483189444904,82.36063384048096,186.1828797768688,134.37981622838737,107.12604324014052,2.2,2.21,-229,-286,0,268,243,275,210.05411958694458,210.05419969558716,210.05712819099426,210.0685169696808,210.2131061553955,210.2131061553955,210.2131061553955,210.2131061553955,210.2131061553955,210.2131061553955,210.2131061553955,214.02751302719116,3,3.945505142211914,None,,,,,,,,,,,,,,,,,,182,2,2025-03-04_12h03.52.808,comp,2024.2.4,54.518706463910945,2025-03-04 12h05.51.728146 -0500,
56,56,0,critical,dwh,20.0,1.0,upper,141.0,141.0,125.0,200.0,200.0,125.0,2,2.1972568035125732,None,,,,,0,0,0,0,0,56,56,67,214.04871439933777,,,,,,,,,,,,,,,,,,,,,,,,,,,,,,,,,,,,,,,,,,,,,,,,,,,,,,,,,,,,,,,,,,,,,,,,,,,,,,,,,141.0,141.0,125.0,200.0,200.0,125.0,1.0,1.3,214,-279,480,-254,738,-260,214.02902722358704,214.02910614013672,214.03226566314697,214.04871439933777,214.20214295387268,214.20214295387268,214.20214295387268,214.20214295387268,214.20214295387268,214.20214295387268,214.20214295387268,216.2624011039734,2,2.1972568035125732,None,,,,,,,,,,,,,,,,,,182,2,2025-03-04_12h03.52.808,comp,2024.2.4,54.518706463910945,2025-03-04 12h05.51.728146 -0500,
57,57,0,catch,None,None,None,None,None,None,None,None,None,None,3,1.6720011234283447,None,,,,,0,0,0,0,0,57,57,120,216.27805519104004,,,,,,,,,,,,,,,,,,,,,,,,,,,,,,,,,,,,,,,,,,,,,,,,,,,,,,,,,,,,,,,,,,,,,,,,,,,,,,,,,75,115,104,86,187,138,2.1,2.11,-196,278,0,259,208,-257,216.26429510116577,216.26437664031982,216.26780438423157,216.27805519104004,216.4297969341278,216.4297969341278,216.4297969341278,216.4297969341278,216.4297969341278,216.4297969341278,216.4297969341278,217.9681363105774,3,1.6720011234283447,None,,,,,,,,,,,,,,,,,,182,2,2025-03-04_12h03.52.808,comp,2024.2.4,54.518706463910945,2025-03-04 12h05.51.728146 -0500,
58,58,0,filler_random,None,None,None,None,None,None,None,None,None,None,2,1.6025581359863281,None,,,,,0,0,0,0,0,58,58,162,217.98802089691162,,,,,,,,,,,,,,,,,,,,,,,,,,,,,,,,,,,,,,,,,,,,,,,,,,,,,,,,,,,,,,,,,,,,,,,,,,,,,,,,,81.61426429541818,61.62039854164514,114.01013651563076,120.41888729724162,137.35204263781893,68.74564256624112,2.2,2.21,-187,-262,0,272,191,287,217.96981287002563,217.96988940238953,217.97279381752014,217.98802089691162,218.12952589988708,218.12952589988708,218.12952589988708,218.12952589988708,218.12952589988708,218.12952589988708,218.12952589988708,219.59585976600647,2,1.6025581359863281,None,,,,,,,,,,,,,,,,,,182,2,2025-03-04_12h03.52.808,comp,2024.2.4,54.518706463910945,2025-03-04 12h05.51.728146 -0500,
59,59,0,critical,hwd,35.0,1.0,upper,200.0,125.0,125.0,200.0,127.0,127.0,1,1.6217317581176758,None,,,,,0,0,0,0,0,59,59,97,219.6169238090515,,,,,,,,,,,,,,,,,,,,,,,,,,,,,,,,,,,,,,,,,,,,,,,,,,,,,,,,,,,,,,,,,,,,,,,,,,,,,,,,,200.0,125.0,125.0,200.0,127.0,127.0,1.0,1.3,222,-254,480,-260,740,-272,219.5974600315094,219.59755206108093,219.6008312702179,219.6169238090515,219.76342034339905,219.76342034339905,219.76342034339905,219.76342034339905,219.76342034339905,219.76342034339905,219.76342034339905,221.24852466583252,1,1.6217317581176758,None,,,,,,,,,,,,,,,,,,182,2,2025-03-04_12h03.52.808,comp,2024.2.4,54.518706463910945,2025-03-04 12h05.51.728146 -0500,
60,60,0,critical,hdw,35.0,1.0,lower,133.0,57.0,70.0,70.0,57.0,133.0,1,1.7974083423614502,None,,,,,0,0,0,0,0,60,60,108,221.2646017074585,,,,,,,,,,,,,,,,,,,,,,,,,,,,,,,,,,,,,,,,,,,,,,,,,,,,,,,,,,,,,,,,,,,,,,,,,,,,,,,,,133.0,57.0,70.0,70.0,57.0,133.0,1.0,1.1,-640,288,-480,277,-282,278,221.25009441375732,221.25017666816711,221.2537660598755,221.2646017074585,221.41280341148376,221.41280341148376,221.41280341148376,221.41280341148376,221.41280341148376,221.41280341148376,221.41280341148376,223.06526017189026,1,1.7974083423614502,None,,,,,,,,,,,,,,,,,,182,2,2025-03-04_12h03.52.808,comp,2024.2.4,54.518706463910945,2025-03-04 12h05.51.728146 -0500,
61,61,0,critical,hwd,35.0,4.0,upper,200.0,125.0,125.0,200.0,127.0,127.0,1,1.6774661540985107,None,,,,,0,0,0,0,0,61,61,101,223.08096385002136,,,,,,,,,,,,,,,,,,,,,,,,,,,,,,,,,,,,,,,,,,,,,,,,,,,,,,,,,,,,,,,,,,,,,,,,,,,,,,,,,200.0,125.0,125.0,200.0,127.0,127.0,4.0,4.2,-258,14,0,-252,260,3,223.06673502922058,223.0668134689331,223.07010769844055,223.08096385002136,223.23087096214294,223.23087096214294,223.23087096214294,223.23087096214294,223.23087096214294,223.23087096214294,223.23087096214294,224.76703715324402,1,1.6774661540985107,None,,,,,,,,,,,,,,,,,,182,2,2025-03-04_12h03.52.808,comp,2024.2.4,54.518706463910945,2025-03-04 12h05.51.728146 -0500,
62,62,0,critical,hwd,35.0,2.1,upper,200.0,125.0,125.0,200.0,127.0,127.0,2,1.5342121124267578,None,,,,,0,0,0,0,0,62,62,17,224.78398299217224,,,,,,,,,,,,,,,,,,,,,,,,,,,,,,,,,,,,,,,,,,,,,,,,,,,,,,,,,,,,,,,,,,,,,,,,,,,,,,,,,200.0,125.0,125.0,200.0,127.0,127.0,2.1,2.11,-258,251,0,274,260,-256,224.7689049243927,224.76903557777405,224.7723743915558,224.78398299217224,224.93176531791687,224.93176531791687,224.93176531791687,224.93176531791687,224.93176531791687,224.93176531791687,224.93176531791687,226.3321521282196,2,1.5342121124267578,None,,,,,,,,,,,,,,,,,,182,2,2025-03-04_12h03.52.808,comp,2024.2.4,54.518706463910945,2025-03-04 12h05.51.728146 -0500,
63,63,0,filler_square,None,None,None,None,None,None,None,None,None,None,2,1.5459339618682861,None,,,,,0,0,0,0,0,63,63,204,226.34863829612732,,,,,,,,,,,,,,,,,,,,,,,,,,,,,,,,,,,,,,,,,,,,,,,,,,,,,,,,,,,,,,,,,,,,,,,,,,,,,,,,,62.416531092712724,77.41512141391698,77.68508274382106,77.68508274382106,57.12742515198201,61.64814648338911,2.2,2.22,-174,282,0,-252,166,-267,226.3340392112732,226.3341188430786,226.33761310577393,226.34863829612732,226.50719904899597,226.50719904899597,226.50719904899597,226.50719904899597,226.50719904899597,226.50719904899597,226.50719904899597,227.9020688533783,2,1.5459339618682861,None,,,,,,,,,,,,,,,,,,182,2,2025-03-04_12h03.52.808,comp,2024.2.4,54.518706463910945,2025-03-04 12h05.51.728146 -0500,
64,64,0,critical,wdh,20.0,3.0,lower,57.0,133.0,78.0,78.0,133.0,57.0,1,2.8545639514923096,None,,,,,0,0,0,0,0,64,64,80,227.92064380645752,,,,,,,,,,,,,,,,,,,,,,,,,,,,,,,,,,,,,,,,,,,,,,,,,,,,,,,,,,,,,,,,,,,,,,,,,,,,,,,,,57.0,133.0,78.0,78.0,133.0,57.0,3.0,3.1,-202,261,0,2,164,-254,227.9038062095642,227.9039466381073,227.9072687625885,227.92064380645752,228.06659936904907,228.06659936904907,228.06659936904907,228.06659936904907,228.06659936904907,228.06659936904907,228.06659936904907,230.78238940238953,1,2.8545639514923096,None,,,,,,,,,,,,,,,,,,182,2,2025-03-04_12h03.52.808,comp,2024.2.4,54.518706463910945,2025-03-04 12h05.51.728146 -0500,
65,65,0,critical,hdw,35.0,4.0,upper,200.0,125.0,127.0,127.0,125.0,200.0,1,2.032061815261841,None,,,,,0,0,0,0,0,65,65,113,230.79868912696838,,,,,,,,,,,,,,,,,,,,,,,,,,,,,,,,,,,,,,,,,,,,,,,,,,,,,,,,,,,,,,,,,,,,,,,,,,,,,,,,,200.0,125.0,127.0,127.0,125.0,200.0,4.0,4.2,-222,19,0,-271,260,9,230.78398776054382,230.7840702533722,230.78747582435608,230.79868912696838,230.951557636261,230.951557636261,230.951557636261,230.951557636261,230.951557636261,230.951557636261,230.951557636261,232.83303713798523,1,2.032061815261841,None,,,,,,,,,,,,,,,,,,182,2,2025-03-04_12h03.52.808,comp,2024.2.4,54.518706463910945,2025-03-04 12h05.51.728146 -0500,
66,66,0,filler_square,None,None,None,None,None,None,None,None,None,None,1,1.7338087558746338,None,,,,,0,0,0,0,0,66,66,188,232.8489215373993,,,,,,,,,,,,,,,,,,,,,,,,,,,,,,,,,,,,,,,,,,,,,,,,,,,,,,,,,,,,,,,,,,,,,,,,,,,,,,,,,84.33144223859694,84.33144223859694,71.7010003732263,60.500853528008,70.90396861094,69.02218221457093,2.2,2.22,-168,259,0,-277,161,-261,232.83473563194275,232.83481335639954,232.83797979354858,232.8489215373993,232.99773979187012,232.99773979187012,232.99773979187012,232.99773979187012,232.99773979187012,232.99773979187012,232.99773979187012,234.5866620540619,1,1.7338087558746338,None,,,,,,,,,,,,,,,,,,182,2,2025-03-04_12h03.52.808,comp,2024.2.4,54.518706463910945,2025-03-04 12h05.51.728146 -0500,
67,67,0,critical,wdh,35.0,2.1,upper,125.0,200.0,127.0,127.0,200.0,125.0,3,3.082376480102539,None,,,,,0,0,0,0,0,67,67,9,234.6037003993988,,,,,,,,,,,,,,,,,,,,,,,,,,,,,,,,,,,,,,,,,,,,,,,,,,,,,,,,,,,,,,,,,,,,,,,,,,,,,,,,,125.0,200.0,127.0,127.0,200.0,125.0,2.1,2.12,-260,-285,0,-267,222,254,234.58838486671448,234.5885078907013,234.59274888038635,234.6037003993988,234.7534806728363,234.7534806728363,234.7534806728363,234.7534806728363,234.7534806728363,234.7534806728363,234.7534806728363,237.70269632339478,3,3.082376480102539,None,,,,,,,,,,,,,,,,,,182,2,2025-03-04_12h03.52.808,comp,2024.2.4,54.518706463910945,2025-03-04 12h05.51.728146 -0500,
68,68,0,critical,wdh,20.0,1.0,lower,57.0,133.0,78.0,78.0,133.0,57.0,1,3.871569871902466,None,,,,,0,0,0,0,0,68,68,78,237.71877932548523,,,,,,,,,,,,,,,,,,,,,,,,,,,,,,,,,,,,,,,,,,,,,,,,,,,,,,,,,,,,,,,,,,,,,,,,,,,,,,,,,57.0,133.0,78.0,78.0,133.0,57.0,1.0,1.1,-682,261,-480,288,-316,262,237.7041802406311,237.7042555809021,237.70829248428345,237.71877932548523,237.8728485107422,237.8728485107422,237.8728485107422,237.8728485107422,237.8728485107422,237.8728485107422,237.8728485107422,241.60371828079224,1,3.871569871902466,None,,,,,,,,,,,,,,,,,,182,2,2025-03-04_12h03.52.808,comp,2024.2.4,54.518706463910945,2025-03-04 12h05.51.728146 -0500,
69,69,0,critical,wdh,20.0,4.0,lower,57.0,133.0,78.0,78.0,133.0,57.0,1,1.938340425491333,None,,,,,0,0,0,0,0,69,69,82,241.61963319778442,,,,,,,,,,,,,,,,,,,,,,,,,,,,,,,,,,,,,,,,,,,,,,,,,,,,,,,,,,,,,,,,,,,,,,,,,,,,,,,,,57.0,133.0,78.0,78.0,133.0,57.0,4.0,4.2,-202,-3,0,-260,164,0,241.60519933700562,241.6052770614624,241.60938668251038,241.61963319778442,241.7685887813568,241.7685887813568,241.7685887813568,241.7685887813568,241.7685887813568,241.7685887813568,241.7685887813568,243.5702257156372,1,1.938340425491333,None,,,,,,,,,,,,,,,,,,182,2,2025-03-04_12h03.52.808,comp,2024.2.4,54.518706463910945,2025-03-04 12h05.51.728146 -0500,
70,70,0,critical,hwd,35.0,1.0,lower,133.0,57.0,57.0,133.0,70.0,70.0,2,2.123947858810425,None,,,,,0,0,0,0,0,70,70,96,243.5860891342163,,,,,,,,,,,,,,,,,,,,,,,,,,,,,,,,,,,,,,,,,,,,,,,,,,,,,,,,,,,,,,,,,,,,,,,,,,,,,,,,,133.0,57.0,57.0,133.0,70.0,70.0,1.0,1.2,-191,-6,0,17,198,15,243.5716519355774,243.57172560691833,243.57493042945862,243.5860891342163,243.73832249641418,243.73832249641418,243.73832249641418,243.73832249641418,243.73832249641418,243.73832249641418,243.73832249641418,245.72019815444946,2,2.123947858810425,None,,,,,,,,,,,,,,,,,,182,2,2025-03-04_12h03.52.808,comp,2024.2.4,54.518706463910945,2025-03-04 12h05.51.728146 -0500,
71,71,0,filler_random,None,None,None,None,None,None,None,None,None,None,3,1.988569736480713,None,,,,,0,0,0,0,0,71,71,156,245.73750472068787,,,,,,,,,,,,,,,,,,,,,,,,,,,,,,,,,,,,,,,,,,,,,,,,,,,,,,,,,,,,,,,,,,,,,,,,,,,,,,,,,128.8422410638011,91.0055228828929,124.62090644165703,102.87627452837052,190.37083576804866,199.20470970940875,1.0,1.1,-673,281,-480,282,-233,269,245.7221417427063,245.72222566604614,245.72564482688904,245.73750472068787,245.8873462677002,245.8873462677002,245.8873462677002,245.8873462677002,245.8873462677002,245.8873462677002,245.8873462677002,247.74418020248413,3,1.988569736480713,None,,,,,,,,,,,,,,,,,,182,2,2025-03-04_12h03.52.808,comp,2024.2.4,54.518706463910945,2025-03-04 12h05.51.728146 -0500,
72,72,0,critical,whd,35.0,4.0,upper,125.0,200.0,200.0,125.0,127.0,127.0,1,1.8447773456573486,None,,,,,0,0,0,0,0,72,72,89,247.76150178909302,,,,,,,,,,,,,,,,,,,,,,,,,,,,,,,,,,,,,,,,,,,,,,,,,,,,,,,,,,,,,,,,,,,,,,,,,,,,,,,,,125.0,200.0,200.0,125.0,127.0,127.0,4.0,4.2,-258,13,0,-255,222,-6,247.74584412574768,247.74592471122742,247.7488260269165,247.76150178909302,247.9145312309265,247.9145312309265,247.9145312309265,247.9145312309265,247.9145312309265,247.9145312309265,247.9145312309265,249.61212730407715,1,1.8447773456573486,None,,,,,,,,,,,,,,,,,,182,2,2025-03-04_12h03.52.808,comp,2024.2.4,54.518706463910945,2025-03-04 12h05.51.728146 -0500,
73,73,0,filler_random,None,None,None,None,None,None,None,None,None,None,1,1.3687946796417236,None,,,,,0,0,0,0,0,73,73,148,249.6300549507141,,,,,,,,,,,,,,,,,,,,,,,,,,,,,,,,,,,,,,,,,,,,,,,,,,,,,,,,,,,,,,,,,,,,,,,,,,,,,,,,,145.4011987864081,125.66654914077859,57.22450607672237,64.55154546531824,67.96156652873424,108.98844446483977,3.0,3.1,-191,279,0,-1,183,-286,249.61388516426086,249.61396622657776,249.616925239563,249.6300549507141,249.77162742614746,249.77162742614746,249.77162742614746,249.77162742614746,249.77162742614746,249.77162742614746,249.77162742614746,251.00398111343384,1,1.3687946796417236,None,,,,,,,,,,,,,,,,,,182,2,2025-03-04_12h03.52.808,comp,2024.2.4,54.518706463910945,2025-03-04 12h05.51.728146 -0500,
74,74,0,critical,dhw,20.0,1.0,upper,141.0,141.0,200.0,125.0,125.0,200.0,2,2.5137906074523926,None,,,,,0,0,0,0,0,74,74,55,251.02100825309753,,,,,,,,,,,,,,,,,,,,,,,,,,,,,,,,,,,,,,,,,,,,,,,,,,,,,,,,,,,,,,,,,,,,,,,,,,,,,,,,,141.0,141.0,200.0,125.0,125.0,200.0,1.0,1.2,-229,-9,0,-12,258,-16,251.00546741485596,251.0055480003357,251.00840139389038,251.02100825309753,251.15613436698914,251.15613436698914,251.15613436698914,251.15613436698914,251.15613436698914,251.15613436698914,251.15613436698914,253.54088473320007,2,2.5137906074523926,None,,,,,,,,,,,,,,,,,,182,2,2025-03-04_12h03.52.808,comp,2024.2.4,54.518706463910945,2025-03-04 12h05.51.728146 -0500,
75,75,0,critical,wdh,35.0,4.0,upper,125.0,200.0,127.0,127.0,200.0,125.0,3,1.863745927810669,None,,,,,0,0,0,0,0,75,75,77,253.5583152770996,,,,,,,,,,,,,,,,,,,,,,,,,,,,,,,,,,,,,,,,,,,,,,,,,,,,,,,,,,,,,,,,,,,,,,,,,,,,,,,,,125.0,200.0,127.0,127.0,200.0,125.0,4.0,4.2,-260,-17,0,-285,222,12,253.54235219955444,253.54242777824402,253.54585146903992,253.5583152770996,253.70721983909607,253.70721983909607,253.70721983909607,253.70721983909607,253.70721983909607,253.70721983909607,253.70721983909607,255.4247977733612,3,1.863745927810669,None,,,,,,,,,,,,,,,,,,182,2,2025-03-04_12h03.52.808,comp,2024.2.4,54.518706463910945,2025-03-04 12h05.51.728146 -0500,
76,76,0,filler_random,None,None,None,None,None,None,None,None,None,None,2,2.699140787124634,None,,,,,0,0,0,0,0,76,76,167,255.44300317764282,,,,,,,,,,,,,,,,,,,,,,,,,,,,,,,,,,,,,,,,,,,,,,,,,,,,,,,,,,,,,,,,,,,,,,,,,,,,,,,,,104.51992922753948,77.06192033654133,164.63809188118822,65.30511328242956,103.5173634458064,104.48368099010091,2.1,2.12,-167,-286,0,-264,181,290,255.42664885520935,255.42677068710327,255.4301311969757,255.44300317764282,255.5912160873413,255.5912160873413,255.5912160873413,255.5912160873413,255.5912160873413,255.5912160873413,255.5912160873413,258.1584212779999,2,2.699140787124634,None,,,,,,,,,,,,,,,,,,182,2,2025-03-04_12h03.52.808,comp,2024.2.4,54.518706463910945,2025-03-04 12h05.51.728146 -0500,
77,77,0,critical,hdw,20.0,1.0,upper,200.0,125.0,141.0,141.0,125.0,200.0,3,3.999844551086426,None,,,,,0,0,0,0,0,77,77,115,258.1749324798584,,,,,,,,,,,,,,,,,,,,,,,,,,,,,,,,,,,,,,,,,,,,,,,,,,,,,,,,,,,,,,,,,,,,,,,,,,,,,,,,,200.0,125.0,141.0,141.0,125.0,200.0,1.0,1.1,-709,289,-480,277,-214,255,258.16001987457275,258.1600947380066,258.16334295272827,258.1749324798584,258.3282034397125,258.3282034397125,258.3282034397125,258.3282034397125,258.3282034397125,258.3282034397125,258.3282034397125,262.18251276016235,3,3.999844551086426,None,,,,,,,,,,,,,,,,,,182,2,2025-03-04_12h03.52.808,comp,2024.2.4,54.518706463910945,2025-03-04 12h05.51.728146 -0500,
78,78,0,critical,hwd,35.0,2.1,lower,133.0,57.0,57.0,133.0,70.0,70.0,2,1.8520512580871582,None,,,,,0,0,0,0,0,78,78,16,262.2028000354767,,,,,,,,,,,,,,,,,,,,,,,,,,,,,,,,,,,,,,,,,,,,,,,,,,,,,,,,,,,,,,,,,,,,,,,,,,,,,,,,,133.0,57.0,57.0,133.0,70.0,70.0,2.1,2.11,-191,286,0,287,198,-284,262.1840362548828,262.1841149330139,262.18707513809204,262.2028000354767,262.34106826782227,262.34106826782227,262.34106826782227,262.34106826782227,262.34106826782227,262.34106826782227,262.34106826782227,264.0629286766052,2,1.8520512580871582,None,,,,,,,,,,,,,,,,,,182,2,2025-03-04_12h03.52.808,comp,2024.2.4,54.518706463910945,2025-03-04 12h05.51.728146 -0500,
79,79,0,filler_random,None,None,None,None,None,None,None,None,None,None,1,2.3667941093444824,None,,,,,0,0,0,0,0,79,79,149,264.0794084072113,,,,,,,,,,,,,,,,,,,,,,,,,,,,,,,,,,,,,,,,,,,,,,,,,,,,,,,,,,,,,,,,,,,,,,,,,,,,,,,,,177.92128773580268,129.33330977548962,135.25953717998095,77.40940234287348,86.8881667436095,180.54650672846518,1.0,1.2,-199,-11,0,19,225,16,264.0647532939911,264.06483578681946,264.0686767101288,264.0794084072113,264.2305419445038,264.2305419445038,264.2305419445038,264.2305419445038,264.2305419445038,264.2305419445038,264.2305419445038,266.4616701602936,1,2.3667941093444824,None,,,,,,,,,,,,,,,,,,182,2,2025-03-04_12h03.52.808,comp,2024.2.4,54.518706463910945,2025-03-04 12h05.51.728146 -0500,
80,80,0,critical,hwd,20.0,2.1,upper,200.0,125.0,125.0,200.0,141.0,141.0,2,2.633263349533081,None,,,,,0,0,0,0,0,80,80,43,266.47755193710327,,,,,,,,,,,,,,,,,,,,,,,,,,,,,,,,,,,,,,,,,,,,,,,,,,,,,,,,,,,,,,,,,,,,,,,,,,,,,,,,,200.0,125.0,125.0,200.0,141.0,141.0,2.1,2.12,-258,-270,0,-276,266,276,266.46321988105774,266.46329736709595,266.4672966003418,266.47755193710327,266.6282088756561,266.6282088756561,266.6282088756561,266.6282088756561,266.6282088756561,266.6282088756561,266.6282088756561,269.11388874053955,2,2.633263349533081,None,,,,,,,,,,,,,,,,,,182,2,2025-03-04_12h03.52.808,comp,2024.2.4,54.518706463910945,2025-03-04 12h05.51.728146 -0500,
81,81,0,critical,wdh,35.0,2.1,lower,57.0,133.0,70.0,70.0,133.0,57.0,3,3.3862576484680176,None,,,,,0,0,0,0,0,81,81,32,269.13198232650757,,,,,,,,,,,,,,,,,,,,,,,,,,,,,,,,,,,,,,,,,,,,,,,,,,,,,,,,,,,,,,,,,,,,,,,,,,,,,,,,,57.0,133.0,70.0,70.0,133.0,57.0,2.1,2.12,-198,-261,0,-277,160,272,269.11573672294617,269.1158525943756,269.11926794052124,269.13198232650757,269.2784848213196,269.2784848213196,269.2784848213196,269.2784848213196,269.2784848213196,269.2784848213196,269.2784848213196,272.5288600921631,3,3.3862576484680176,None,,,,,,,,,,,,,,,,,,182,2,2025-03-04_12h03.52.808,comp,2024.2.4,54.518706463910945,2025-03-04 12h05.51.728146 -0500,
82,82,0,critical,hdw,20.0,4.0,upper,200.0,125.0,141.0,141.0,125.0,200.0,1,3.104778528213501,None,,,,,0,0,0,0,0,82,82,119,272.54949951171875,,,,,,,,,,,,,,,,,,,,,,,,,,,,,,,,,,,,,,,,,,,,,,,,,,,,,,,,,,,,,,,,,,,,,,,,,,,,,,,,,200.0,125.0,141.0,141.0,125.0,200.0,4.0,4.1,-229,-278,0,-2,266,-255,272.5304071903229,272.5305118560791,272.5343017578125,272.54949951171875,272.7027680873871,272.7027680873871,272.7027680873871,272.7027680873871,272.7027680873871,272.7027680873871,272.7027680873871,275.66378903388977,1,3.104778528213501,None,,,,,,,,,,,,,,,,,,182,2,2025-03-04_12h03.52.808,comp,2024.2.4,54.518706463910945,2025-03-04 12h05.51.728146 -0500,
83,83,0,critical,hdw,35.0,2.1,upper,200.0,125.0,127.0,127.0,125.0,200.0,3,1.9579665660858154,None,,,,,0,0,0,0,0,83,83,21,275.68007826805115,,,,,,,,,,,,,,,,,,,,,,,,,,,,,,,,,,,,,,,,,,,,,,,,,,,,,,,,,,,,,,,,,,,,,,,,,,,,,,,,,200.0,125.0,127.0,127.0,125.0,200.0,2.1,2.12,-222,-275,0,-260,260,289,275.665424823761,275.66554260253906,275.66898798942566,275.68007826805115,275.8334753513336,275.8334753513336,275.8334753513336,275.8334753513336,275.8334753513336,275.8334753513336,275.8334753513336,277.6523058414459,3,1.9579665660858154,None,,,,,,,,,,,,,,,,,,182,2,2025-03-04_12h03.52.808,comp,2024.2.4,54.518706463910945,2025-03-04 12h05.51.728146 -0500,
84,84,0,filler_square,None,None,None,None,None,None,None,None,None,None,2,1.6812059879302979,None,,,,,0,0,0,0,0,84,84,206,277.66891956329346,,,,,,,,,,,,,,,,,,,,,,,,,,,,,,,,,,,,,,,,,,,,,,,,,,,,,,,,,,,,,,,,,,,,,,,,,,,,,,,,,82.71646429291997,118.09321150217824,123.3130747886074,123.3130747886074,63.268542150928084,63.7582635898437,3.0,3.1,-217,258,0,2,190,-273,277.65433835983276,277.65442085266113,277.65734362602234,277.66891956329346,277.817421913147,277.817421913147,277.817421913147,277.817421913147,277.817421913147,277.817421913147,277.817421913147,279.3653657436371,2,1.6812059879302979,None,,,,,,,,,,,,,,,,,,182,2,2025-03-04_12h03.52.808,comp,2024.2.4,54.518706463910945,2025-03-04 12h05.51.728146 -0500,
85,85,0,filler_random,None,None,None,None,None,None,None,None,None,None,2,1.7279267311096191,None,,,,,0,0,0,0,0,85,85,133,279.382661819458,,,,,,,,,,,,,,,,,,,,,,,,,,,,,,,,,,,,,,,,,,,,,,,,,,,,,,,,,,,,,,,,,,,,,,,,,,,,,,,,,92.73486454337431,127.70159583421584,143.73446194145015,171.14092583473436,158.83542499481607,75.02955662755363,2.1,2.11,-245,254,0,263,219,-273,279.3672444820404,279.3673734664917,279.3707776069641,279.382661819458,279.5305190086365,279.5305190086365,279.5305190086365,279.5305190086365,279.5305190086365,279.5305190086365,279.5305190086365,281.1172308921814,2,1.7279267311096191,None,,,,,,,,,,,,,,,,,,182,2,2025-03-04_12h03.52.808,comp,2024.2.4,54.518706463910945,2025-03-04 12h05.51.728146 -0500,
86,86,0,critical,dhw,35.0,2.1,upper,127.0,127.0,200.0,125.0,125.0,200.0,2,1.5618703365325928,None,,,,,0,0,0,0,0,86,86,25,281.1328139305115,,,,,,,,,,,,,,,,,,,,,,,,,,,,,,,,,,,,,,,,,,,,,,,,,,,,,,,,,,,,,,,,,,,,,,,,,,,,,,,,,127.0,127.0,200.0,125.0,125.0,200.0,2.1,2.11,-222,268,0,263,258,-279,281.11874771118164,281.118825674057,281.12210965156555,281.1328139305115,281.28232622146606,281.28232622146606,281.28232622146606,281.28232622146606,281.28232622146606,281.28232622146606,281.28232622146606,282.6969587802887,2,1.5618703365325928,None,,,,,,,,,,,,,,,,,,182,2,2025-03-04_12h03.52.808,comp,2024.2.4,54.518706463910945,2025-03-04 12h05.51.728146 -0500,
87,87,0,critical,hdw,20.0,2.1,upper,200.0,125.0,141.0,141.0,125.0,200.0,1,3.6762356758117676,None,,,,,0,0,0,0,0,87,87,47,282.7139585018158,,,,,,,,,,,,,,,,,,,,,,,,,,,,,,,,,,,,,,,,,,,,,,,,,,,,,,,,,,,,,,,,,,,,,,,,,,,,,,,,,200.0,125.0,141.0,141.0,125.0,200.0,2.1,2.11,-229,279,0,264,266,-268,282.698529958725,282.6986074447632,282.70193123817444,282.7139585018158,282.850270986557,282.850270986557,282.850270986557,282.850270986557,282.850270986557,282.850270986557,282.850270986557,286.39455342292786,1,3.6762356758117676,None,,,,,,,,,,,,,,,,,,182,2,2025-03-04_12h03.52.808,comp,2024.2.4,54.518706463910945,2025-03-04 12h05.51.728146 -0500,
88,88,0,critical,hdw,20.0,3.0,upper,200.0,125.0,141.0,141.0,125.0,200.0,1,1.902817964553833,None,,,,,0,0,0,0,0,88,88,117,286.41548109054565,,,,,,,,,,,,,,,,,,,,,,,,,,,,,,,,,,,,,,,,,,,,,,,,,,,,,,,,,,,,,,,,,,,,,,,,,,,,,,,,,200.0,125.0,141.0,141.0,125.0,200.0,3.0,3.1,-229,289,0,-1,266,-252,286.39620995521545,286.3963463306427,286.3996262550354,286.41548109054565,286.5511050224304,286.5511050224304,286.5511050224304,286.5511050224304,286.5511050224304,286.5511050224304,286.5511050224304,288.33501386642456,1,1.902817964553833,None,,,,,,,,,,,,,,,,,,182,2,2025-03-04_12h03.52.808,comp,2024.2.4,54.518706463910945,2025-03-04 12h05.51.728146 -0500,
89,89,0,critical,wdh,20.0,4.0,upper,125.0,200.0,141.0,141.0,200.0,125.0,1,2.024005174636841,None,,,,,0,0,0,0,0,89,89,83,288.35035490989685,,,,,,,,,,,,,,,,,,,,,,,,,,,,,,,,,,,,,,,,,,,,,,,,,,,,,,,,,,,,,,,,,,,,,,,,,,,,,,,,,125.0,200.0,141.0,141.0,200.0,125.0,4.0,4.2,-266,17,0,-274,229,-12,288.3365697860718,288.3366696834564,288.3401188850403,288.35035490989685,288.50131011009216,288.50131011009216,288.50131011009216,288.50131011009216,288.50131011009216,288.50131011009216,288.50131011009216,290.39029598236084,1,2.024005174636841,None,,,,,,,,,,,,,,,,,,182,2,2025-03-04_12h03.52.808,comp,2024.2.4,54.518706463910945,2025-03-04 12h05.51.728146 -0500,
90,90,0,critical,whd,35.0,3.0,lower,57.0,133.0,133.0,57.0,70.0,70.0,2,1.964315414428711,None,,,,,0,0,0,0,0,90,90,86,290.4106740951538,,,,,,,,,,,,,,,,,,,,,,,,,,,,,,,,,,,,,,,,,,,,,,,,,,,,,,,,,,,,,,,,,,,,,,,,,,,,,,,,,57.0,133.0,133.0,57.0,70.0,70.0,3.0,3.2,-191,-269,0,13,160,261,290.39189553260803,290.39199352264404,290.39535999298096,290.4106740951538,290.55247163772583,290.55247163772583,290.55247163772583,290.55247163772583,290.55247163772583,290.55247163772583,290.55247163772583,292.39201259613037,2,1.964315414428711,None,,,,,,,,,,,,,,,,,,182,2,2025-03-04_12h03.52.808,comp,2024.2.4,54.518706463910945,2025-03-04 12h05.51.728146 -0500,
91,91,0,filler_square,None,None,None,None,None,None,None,None,None,None,3,2.838468313217163,None,,,,,0,0,0,0,0,91,91,175,292.4092969894409,,,,,,,,,,,,,,,,,,,,,,,,,,,,,,,,,,,,,,,,,,,,,,,,,,,,,,,,,,,,,,,,,,,,,,,,,,,,,,,,,63.84462229819343,85.30440511003277,121.4217168951471,111.82437594847426,123.6074793409691,123.6074793409691,2.2,2.21,-195,-283,0,287,214,263,292.3938527107239,292.3939301967621,292.39689588546753,292.4092969894409,292.55364990234375,292.55364990234375,292.55364990234375,292.55364990234375,292.55364990234375,292.55364990234375,292.55364990234375,295.2516658306122,3,2.838468313217163,None,,,,,,,,,,,,,,,,,,182,2,2025-03-04_12h03.52.808,comp,2024.2.4,54.518706463910945,2025-03-04 12h05.51.728146 -0500,
92,92,0,critical,dwh,20.0,1.0,lower,78.0,78.0,57.0,133.0,133.0,57.0,2,2.41772198677063,None,,,,,0,0,0,0,0,92,92,66,295.26843428611755,,,,,,,,,,,,,,,,,,,,,,,,,,,,,,,,,,,,,,,,,,,,,,,,,,,,,,,,,,,,,,,,,,,,,,,,,,,,,,,,,78.0,78.0,57.0,133.0,133.0,57.0,1.0,1.1,-682,286,-480,275,-289,257,295.253249168396,295.25332856178284,295.25671672821045,295.26843428611755,295.4121835231781,295.4121835231781,295.4121835231781,295.4121835231781,295.4121835231781,295.4121835231781,295.4121835231781,297.6887676715851,2,2.41772198677063,None,,,,,,,,,,,,,,,,,,182,2,2025-03-04_12h03.52.808,comp,2024.2.4,54.518706463910945,2025-03-04 12h05.51.728146 -0500,
93,93,0,critical,hwd,20.0,1.0,lower,133.0,57.0,57.0,133.0,78.0,78.0,2,2.1101205348968506,None,,,,,0,0,0,0,0,93,93,102,297.70494651794434,,,,,,,,,,,,,,,,,,,,,,,,,,,,,,,,,,,,,,,,,,,,,,,,,,,,,,,,,,,,,,,,,,,,,,,,,,,,,,,,,133.0,57.0,57.0,133.0,78.0,78.0,1.0,1.1,-671,271,-480,278,-278,255,297.6905107498169,297.6906499862671,297.69411730766296,297.70494651794434,297.8575367927551,297.8575367927551,297.8575367927551,297.8575367927551,297.8575367927551,297.8575367927551,297.8575367927551,299.82225346565247,2,2.1101205348968506,None,,,,,,,,,,,,,,,,,,182,2,2025-03-04_12h03.52.808,comp,2024.2.4,54.518706463910945,2025-03-04 12h05.51.728146 -0500,
94,94,0,critical,wdh,35.0,4.0,lower,57.0,133.0,70.0,70.0,133.0,57.0,3,2.864386796951294,None,,,,,0,0,0,0,0,94,94,76,299.8385171890259,,,,,,,,,,,,,,,,,,,,,,,,,,,,,,,,,,,,,,,,,,,,,,,,,,,,,,,,,,,,,,,,,,,,,,,,,,,,,,,,,57.0,133.0,70.0,70.0,133.0,57.0,4.0,4.2,-198,18,0,-285,160,-6,299.8238716125488,299.82397079467773,299.82742404937744,299.8385171890259,299.99221754074097,299.99221754074097,299.99221754074097,299.99221754074097,299.99221754074097,299.99221754074097,299.99221754074097,302.7052516937256,3,2.864386796951294,None,,,,,,,,,,,,,,,,,,182,2,2025-03-04_12h03.52.808,comp,2024.2.4,54.518706463910945,2025-03-04 12h05.51.728146 -0500,
95,95,0,critical,hwd,20.0,4.0,lower,133.0,57.0,57.0,133.0,78.0,78.0,2,3.26865291595459,None,,,,,0,0,0,0,0,95,95,106,302.72151041030884,,,,,,,,,,,,,,,,,,,,,,,,,,,,,,,,,,,,,,,,,,,,,,,,,,,,,,,,,,,,,,,,,,,,,,,,,,,,,,,,,133.0,57.0,57.0,133.0,78.0,78.0,4.0,4.2,-191,-6,0,-261,202,12,302.7067639827728,302.7068428993225,302.7100052833557,302.72151041030884,302.87300872802734,302.87300872802734,302.87300872802734,302.87300872802734,302.87300872802734,302.87300872802734,302.87300872802734,306.00624346733093,2,3.26865291595459,None,,,,,,,,,,,,,,,,,,182,2,2025-03-04_12h03.52.808,comp,2024.2.4,54.518706463910945,2025-03-04 12h05.51.728146 -0500,
96,96,0,critical,dwh,35.0,3.0,upper,127.0,127.0,125.0,200.0,200.0,125.0,2,2.0153744220733643,None,,,,,0,0,0,0,0,96,96,63,306.0228850841522,,,,,,,,,,,,,,,,,,,,,,,,,,,,,,,,,,,,,,,,,,,,,,,,,,,,,,,,,,,,,,,,,,,,,,,,,,,,,,,,,127.0,127.0,125.0,200.0,200.0,125.0,3.0,3.2,-260,-283,0,3,258,273,306.00787234306335,306.00797295570374,306.0113980770111,306.0228850841522,306.1621661186218,306.1621661186218,306.1621661186218,306.1621661186218,306.1621661186218,306.1621661186218,306.1621661186218,308.0414969921112,2,2.0153744220733643,None,,,,,,,,,,,,,,,,,,182,2,2025-03-04_12h03.52.808,comp,2024.2.4,54.518706463910945,2025-03-04 12h05.51.728146 -0500,
97,97,0,filler_random,None,None,None,None,None,None,None,None,None,None,2,1.2136046886444092,None,,,,,0,0,0,0,0,97,97,169,308.0575602054596,,,,,,,,,,,,,,,,,,,,,,,,,,,,,,,,,,,,,,,,,,,,,,,,,,,,,,,,,,,,,,,,,,,,,,,,,,,,,,,,,84.81384201489308,120.78274799129039,115.76736428677194,169.0566622231916,93.7237363654219,111.22329012091524,2.2,2.21,-241,-259,0,259,236,283,308.043240070343,308.04332065582275,308.0467402935028,308.0575602054596,308.2076804637909,308.2076804637909,308.2076804637909,308.2076804637909,308.2076804637909,308.2076804637909,308.2076804637909,309.2734925746918,2,1.2136046886444092,None,,,,,,,,,,,,,,,,,,182,2,2025-03-04_12h03.52.808,comp,2024.2.4,54.518706463910945,2025-03-04 12h05.51.728146 -0500,
98,98,0,critical,dhw,20.0,2.1,lower,78.0,78.0,133.0,57.0,57.0,133.0,2,2.0998141765594482,None,,,,,0,0,0,0,0,98,98,26,309.29096937179565,,,,,,,,,,,,,,,,,,,,,,,,,,,,,,,,,,,,,,,,,,,,,,,,,,,,,,,,,,,,,,,,,,,,,,,,,,,,,,,,,78.0,78.0,133.0,57.0,57.0,133.0,2.1,2.11,-164,263,0,261,191,-277,309.2749469280243,309.2750201225281,309.277951002121,309.29096937179565,309.4249196052551,309.4249196052551,309.4249196052551,309.4249196052551,309.4249196052551,309.4249196052551,309.4249196052551,311.3946280479431,2,2.0998141765594482,None,,,,,,,,,,,,,,,,,,182,2,2025-03-04_12h03.52.808,comp,2024.2.4,54.518706463910945,2025-03-04 12h05.51.728146 -0500,
99,99,0,critical,wdh,20.0,2.1,upper,125.0,200.0,141.0,141.0,200.0,125.0,1,1.7958245277404785,None,,,,,0,0,0,0,0,99,99,35,311.4106559753418,,,,,,,,,,,,,,,,,,,,,,,,,,,,,,,,,,,,,,,,,,,,,,,,,,,,,,,,,,,,,,,,,,,,,,,,,,,,,,,,,125.0,200.0,141.0,141.0,200.0,125.0,2.1,2.11,-266,272,0,265,229,-268,311.39664578437805,311.39680457115173,311.3999230861664,311.4106559753418,311.55857586860657,311.55857586860657,311.55857586860657,311.55857586860657,311.55857586860657,311.55857586860657,311.55857586860657,313.2120370864868,1,1.7958245277404785,None,,,,,,,,,,,,,,,,,,182,2,2025-03-04_12h03.52.808,comp,2024.2.4,54.518706463910945,2025-03-04 12h05.51.728146 -0500,
100,100,0,filler_random,None,None,None,None,None,None,None,None,None,None,1,1.675229787826538,None,,,,,0,0,0,0,0,100,100,146,313.2276690006256,,,,,,,,,,,,,,,,,,,,,,,,,,,,,,,,,,,,,,,,,,,,,,,,,,,,,,,,,,,,,,,,,,,,,,,,,,,,,,,,,127.77669281804359,187.87721404667823,199.62403019844533,64.5001657943168,190.85561050716544,118.39423301236405,2.1,2.11,-222,255,0,270,187,-253,313.213791847229,313.2138683795929,313.21679878234863,313.2276690006256,313.373322725296,313.373322725296,313.373322725296,313.373322725296,313.373322725296,313.373322725296,313.373322725296,314.90762758255005,1,1.675229787826538,None,,,,,,,,,,,,,,,,,,182,2,2025-03-04_12h03.52.808,comp,2024.2.4,54.518706463910945,2025-03-04 12h05.51.728146 -0500,
101,101,0,critical,dwh,35.0,2.1,lower,70.0,70.0,57.0,133.0,133.0,57.0,2,2.506542921066284,None,,,,,0,0,0,0,0,101,101,28,314.92368626594543,,,,,,,,,,,,,,,,,,,,,,,,,,,,,,,,,,,,,,,,,,,,,,,,,,,,,,,,,,,,,,,,,,,,,,,,,,,,,,,,,70.0,70.0,57.0,133.0,133.0,57.0,2.1,2.12,-198,-277,0,-278,191,257,314.90917897224426,314.9092562198639,314.9125189781189,314.92368626594543,315.06050181388855,315.06050181388855,315.06050181388855,315.06050181388855,315.06050181388855,315.06050181388855,315.06050181388855,317.4466712474823,2,2.506542921066284,None,,,,,,,,,,,,,,,,,,182,2,2025-03-04_12h03.52.808,comp,2024.2.4,54.518706463910945,2025-03-04 12h05.51.728146 -0500,
102,102,0,critical,dwh,20.0,2.1,lower,78.0,78.0,57.0,133.0,133.0,57.0,2,1.5586402416229248,None,,,,,0,0,0,0,0,102,102,6,317.46433448791504,,,,,,,,,,,,,,,,,,,,,,,,,,,,,,,,,,,,,,,,,,,,,,,,,,,,,,,,,,,,,,,,,,,,,,,,,,,,,,,,,78.0,78.0,57.0,133.0,133.0,57.0,2.1,2.12,-202,-287,0,-286,191,287,317.4483058452606,317.44838857650757,317.451801776886,317.46433448791504,317.61030411720276,317.61030411720276,317.61030411720276,317.61030411720276,317.61030411720276,317.61030411720276,317.61030411720276,319.03007793426514,2,1.5586402416229248,None,,,,,,,,,,,,,,,,,,182,2,2025-03-04_12h03.52.808,comp,2024.2.4,54.518706463910945,2025-03-04 12h05.51.728146 -0500,
103,103,0,critical,wdh,35.0,2.1,lower,57.0,133.0,70.0,70.0,133.0,57.0,1,2.5996885299682617,None,,,,,0,0,0,0,0,103,103,8,319.0465545654297,,,,,,,,,,,,,,,,,,,,,,,,,,,,,,,,,,,,,,,,,,,,,,,,,,,,,,,,,,,,,,,,,,,,,,,,,,,,,,,,,57.0,133.0,70.0,70.0,133.0,57.0,2.1,2.12,-198,-255,0,-269,160,261,319.031751871109,319.03183484077454,319.0352449417114,319.0465545654297,319.1939263343811,319.1939263343811,319.1939263343811,319.1939263343811,319.1939263343811,319.1939263343811,319.1939263343811,321.6605830192566,1,2.5996885299682617,None,,,,,,,,,,,,,,,,,,182,2,2025-03-04_12h03.52.808,comp,2024.2.4,54.518706463910945,2025-03-04 12h05.51.728146 -0500,
104,104,0,critical,hwd,35.0,3.0,upper,200.0,125.0,125.0,200.0,127.0,127.0,2,2.7466018199920654,None,,,,,0,0,0,0,0,104,104,99,321.67649817466736,,,,,,,,,,,,,,,,,,,,,,,,,,,,,,,,,,,,,,,,,,,,,,,,,,,,,,,,,,,,,,,,,,,,,,,,,,,,,,,,,200.0,125.0,125.0,200.0,127.0,127.0,3.0,3.2,-258,-252,0,9,260,281,321.66211438179016,321.66219091415405,321.66565918922424,321.67649817466736,321.82791471481323,321.82791471481323,321.82791471481323,321.82791471481323,321.82791471481323,321.82791471481323,321.82791471481323,324.4304053783417,2,2.7466018199920654,None,,,,,,,,,,,,,,,,,,182,2,2025-03-04_12h03.52.808,comp,2024.2.4,54.518706463910945,2025-03-04 12h05.51.728146 -0500,
105,105,0,critical,dhw,35.0,4.0,lower,70.0,70.0,133.0,57.0,57.0,133.0,3,2.5991153717041016,None,,,,,0,0,0,0,0,105,105,52,324.447692155838,,,,,,,,,,,,,,,,,,,,,,,,,,,,,,,,,,,,,,,,,,,,,,,,,,,,,,,,,,,,,,,,,,,,,,,,,,,,,,,,,70.0,70.0,133.0,57.0,57.0,133.0,4.0,4.2,-160,-16,0,-277,191,-14,324.43191051483154,324.4319875240326,324.4360899925232,324.447692155838,324.5932409763336,324.5932409763336,324.5932409763336,324.5932409763336,324.5932409763336,324.5932409763336,324.5932409763336,327.0513689517975,3,2.5991153717041016,None,,,,,,,,,,,,,,,,,,182,2,2025-03-04_12h03.52.808,comp,2024.2.4,54.518706463910945,2025-03-04 12h05.51.728146 -0500,
106,106,0,filler_square,None,None,None,None,None,None,None,None,None,None,2,1.6339399814605713,None,,,,,0,0,0,0,0,106,106,208,327.0685622692108,,,,,,,,,,,,,,,,,,,,,,,,,,,,,,,,,,,,,,,,,,,,,,,,,,,,,,,,,,,,,,,,,,,,,,,,,,,,,,,,,97.88894528605067,81.83372655062739,188.30394289581807,188.30394289581807,184.8080318023644,72.81219757189892,2.2,2.21,-231,-253,0,265,227,272,327.05342054367065,327.0535309314728,327.0567944049835,327.0685622692108,327.21398544311523,327.21398544311523,327.21398544311523,327.21398544311523,327.21398544311523,327.21398544311523,327.21398544311523,328.70482087135315,2,1.6339399814605713,None,,,,,,,,,,,,,,,,,,182,2,2025-03-04_12h03.52.808,comp,2024.2.4,54.518706463910945,2025-03-04 12h05.51.728146 -0500,
107,107,0,critical,whd,35.0,3.0,upper,125.0,200.0,200.0,125.0,127.0,127.0,2,1.9524376392364502,None,,,,,0,0,0,0,0,107,107,87,328.7265748977661,,,,,,,,,,,,,,,,,,,,,,,,,,,,,,,,,,,,,,,,,,,,,,,,,,,,,,,,,,,,,,,,,,,,,,,,,,,,,,,,,125.0,200.0,200.0,125.0,127.0,127.0,3.0,3.2,-258,-272,0,-18,222,253,328.70639872550964,328.70652747154236,328.7098169326782,328.7265748977661,328.8652060031891,328.8652060031891,328.8652060031891,328.8652060031891,328.8652060031891,328.8652060031891,328.8652060031891,330.6834955215454,2,1.9524376392364502,None,,,,,,,,,,,,,,,,,,182,2,2025-03-04_12h03.52.808,comp,2024.2.4,54.518706463910945,2025-03-04 12h05.51.728146 -0500,
108,108,0,critical,dhw,35.0,3.0,upper,127.0,127.0,200.0,125.0,125.0,200.0,2,1.8345661163330078,None,,,,,0,0,0,0,0,108,108,51,330.6996877193451,,,,,,,,,,,,,,,,,,,,,,,,,,,,,,,,,,,,,,,,,,,,,,,,,,,,,,,,,,,,,,,,,,,,,,,,,,,,,,,,,127.0,127.0,200.0,125.0,125.0,200.0,3.0,3.2,-222,-277,0,3,258,261,330.68522667884827,330.6853606700897,330.68898582458496,330.6996877193451,330.8489565849304,330.8489565849304,330.8489565849304,330.8489565849304,330.8489565849304,330.8489565849304,330.8489565849304,332.5519394874573,2,1.8345661163330078,None,,,,,,,,,,,,,,,,,,182,2,2025-03-04_12h03.52.808,comp,2024.2.4,54.518706463910945,2025-03-04 12h05.51.728146 -0500,
109,109,0,critical,whd,20.0,3.0,upper,125.0,200.0,200.0,125.0,141.0,141.0,2,1.8986608982086182,None,,,,,0,0,0,0,0,109,109,93,332.571524143219,,,,,,,,,,,,,,,,,,,,,,,,,,,,,,,,,,,,,,,,,,,,,,,,,,,,,,,,,,,,,,,,,,,,,,,,,,,,,,,,,125.0,200.0,200.0,125.0,141.0,141.0,3.0,3.2,-258,-266,0,-14,229,279,332.5535509586334,332.5536267757416,332.557017326355,332.571524143219,332.7162790298462,332.7162790298462,332.7162790298462,332.7162790298462,332.7162790298462,332.7162790298462,332.7162790298462,334.48212456703186,2,1.8986608982086182,None,,,,,,,,,,,,,,,,,,182,2,2025-03-04_12h03.52.808,comp,2024.2.4,54.518706463910945,2025-03-04 12h05.51.728146 -0500,
110,110,0,filler_random,None,None,None,None,None,None,None,None,None,None,3,1.7441389560699463,None,,,,,0,0,0,0,0,110,110,145,334.5024938583374,,,,,,,,,,,,,,,,,,,,,,,,,,,,,,,,,,,,,,,,,,,,,,,,,,,,,,,,,,,,,,,,,,,,,,,,,,,,,,,,,150.6262399232316,148.88018237100596,87.5804692185499,115.0952529411265,187.3890379027976,189.1149445575839,4.0,4.1,-228,-255,0,-8,248,-289,334.4839849472046,334.4841196537018,334.48731660842896,334.5024938583374,334.6494174003601,334.6494174003601,334.6494174003601,334.6494174003601,334.6494174003601,334.6494174003601,334.6494174003601,336.24927616119385,3,1.7441389560699463,None,,,,,,,,,,,,,,,,,,182,2,2025-03-04_12h03.52.808,comp,2024.2.4,54.518706463910945,2025-03-04 12h05.51.728146 -0500,
111,111,0,critical,dwh,35.0,3.0,lower,70.0,70.0,57.0,133.0,133.0,57.0,2,2.580976724624634,None,,,,,0,0,0,0,0,111,111,62,336.2656888961792,,,,,,,,,,,,,,,,,,,,,,,,,,,,,,,,,,,,,,,,,,,,,,,,,,,,,,,,,,,,,,,,,,,,,,,,,,,,,,,,,70.0,70.0,57.0,133.0,133.0,57.0,3.0,3.2,-198,-274,0,19,191,267,336.25077080726624,336.2508502006531,336.2540466785431,336.2656888961792,336.41582894325256,336.41582894325256,336.41582894325256,336.41582894325256,336.41582894325256,336.41582894325256,336.41582894325256,338.8499162197113,2,2.580976724624634,None,,,,,,,,,,,,,,,,,,182,2,2025-03-04_12h03.52.808,comp,2024.2.4,54.518706463910945,2025-03-04 12h05.51.728146 -0500,
112,112,0,critical,hdw,20.0,2.1,upper,200.0,125.0,141.0,141.0,125.0,200.0,3,2.6905078887939453,None,,,,,0,0,0,0,0,112,112,23,338.868038892746,,,,,,,,,,,,,,,,,,,,,,,,,,,,,,,,,,,,,,,,,,,,,,,,,,,,,,,,,,,,,,,,,,,,,,,,,,,,,,,,,200.0,125.0,141.0,141.0,125.0,200.0,2.1,2.12,-229,-256,0,-289,266,263,338.85140085220337,338.8514986038208,338.85440278053284,338.868038892746,339.0265347957611,339.0265347957611,339.0265347957611,339.0265347957611,339.0265347957611,339.0265347957611,339.0265347957611,341.5698709487915,3,2.6905078887939453,None,,,,,,,,,,,,,,,,,,182,2,2025-03-04_12h03.52.808,comp,2024.2.4,54.518706463910945,2025-03-04 12h05.51.728146 -0500,
113,113,0,critical,whd,35.0,4.0,lower,57.0,133.0,133.0,57.0,70.0,70.0,1,3.0210986137390137,None,,,,,0,0,0,0,0,113,113,88,341.5854036808014,,,,,,,,,,,,,,,,,,,,,,,,,,,,,,,,,,,,,,,,,,,,,,,,,,,,,,,,,,,,,,,,,,,,,,,,,,,,,,,,,57.0,133.0,133.0,57.0,70.0,70.0,4.0,4.2,-191,-2,0,-255,160,-19,341.57134461402893,341.57148265838623,341.5747892856598,341.5854036808014,341.7224028110504,341.7224028110504,341.7224028110504,341.7224028110504,341.7224028110504,341.7224028110504,341.7224028110504,344.6197237968445,1,3.0210986137390137,None,,,,,,,,,,,,,,,,,,182,2,2025-03-04_12h03.52.808,comp,2024.2.4,54.518706463910945,2025-03-04 12h05.51.728146 -0500,
114,114,0,filler_square,None,None,None,None,None,None,None,None,None,None,1,3.834836483001709,None,,,,,0,0,0,0,0,114,114,192,344.63549995422363,,,,,,,,,,,,,,,,,,,,,,,,,,,,,,,,,,,,,,,,,,,,,,,,,,,,,,,,,,,,,,,,,,,,,,,,,,,,,,,,,58.58353295597037,57.74405399465709,58.32729666347919,57.861062610200825,58.80835540384428,58.80835540384428,2.2,2.21,-154,-282,0,287,154,254,344.6218070983887,344.6218852996826,344.62520956993103,344.63549995422363,344.793660402298,344.793660402298,344.793660402298,344.793660402298,344.793660402298,344.793660402298,344.793660402298,348.4870574474335,1,3.834836483001709,None,,,,,,,,,,,,,,,,,,182,2,2025-03-04_12h03.52.808,comp,2024.2.4,54.518706463910945,2025-03-04 12h05.51.728146 -0500,
115,115,0,critical,dhw,35.0,2.1,lower,70.0,70.0,133.0,57.0,57.0,133.0,2,1.4868910312652588,None,,,,,0,0,0,0,0,115,115,24,348.5035779476166,,,,,,,,,,,,,,,,,,,,,,,,,,,,,,,,,,,,,,,,,,,,,,,,,,,,,,,,,,,,,,,,,,,,,,,,,,,,,,,,,70.0,70.0,133.0,57.0,57.0,133.0,2.1,2.11,-160,251,0,260,191,-278,348.4887361526489,348.48887181282043,348.49237394332886,348.5035779476166,348.6522648334503,348.6522648334503,348.6522648334503,348.6522648334503,348.6522648334503,348.6522648334503,348.6522648334503,350.0044004917145,2,1.4868910312652588,None,,,,,,,,,,,,,,,,,,182,2,2025-03-04_12h03.52.808,comp,2024.2.4,54.518706463910945,2025-03-04 12h05.51.728146 -0500,
116,116,0,critical,dhw,20.0,2.1,upper,141.0,141.0,200.0,125.0,125.0,200.0,3,1.4665958881378174,None,,,,,0,0,0,0,0,116,116,27,350.0199980735779,,,,,,,,,,,,,,,,,,,,,,,,,,,,,,,,,,,,,,,,,,,,,,,,,,,,,,,,,,,,,,,,,,,,,,,,,,,,,,,,,141.0,141.0,200.0,125.0,125.0,200.0,2.1,2.12,-229,-269,0,-257,258,265,350.00607800483704,350.0062086582184,350.0096802711487,350.0199980735779,350.1724269390106,350.1724269390106,350.1724269390106,350.1724269390106,350.1724269390106,350.1724269390106,350.1724269390106,351.5036506652832,3,1.4665958881378174,None,,,,,,,,,,,,,,,,,,182,2,2025-03-04_12h03.52.808,comp,2024.2.4,54.518706463910945,2025-03-04 12h05.51.728146 -0500,
117,117,0,critical,hwd,35.0,4.0,lower,133.0,57.0,57.0,133.0,70.0,70.0,2,2.078800916671753,None,,,,,0,0,0,0,0,117,117,100,351.51962900161743,,,,,,,,,,,,,,,,,,,,,,,,,,,,,,,,,,,,,,,,,,,,,,,,,,,,,,,,,,,,,,,,,,,,,,,,,,,,,,,,,133.0,57.0,57.0,133.0,70.0,70.0,4.0,4.2,-191,18,0,-263,198,-17,351.50520968437195,351.5052845478058,351.50856018066406,351.51962900161743,351.67104840278625,351.67104840278625,351.67104840278625,351.67104840278625,351.67104840278625,351.67104840278625,351.67104840278625,353.613436460495,2,2.078800916671753,None,,,,,,,,,,,,,,,,,,182,2,2025-03-04_12h03.52.808,comp,2024.2.4,54.518706463910945,2025-03-04 12h05.51.728146 -0500,
118,118,0,critical,dwh,35.0,4.0,lower,70.0,70.0,57.0,133.0,133.0,57.0,2,1.9944956302642822,None,,,,,0,0,0,0,0,118,118,64,353.62821531295776,,,,,,,,,,,,,,,,,,,,,,,,,,,,,,,,,,,,,,,,,,,,,,,,,,,,,,,,,,,,,,,,,,,,,,,,,,,,,,,,,70.0,70.0,57.0,133.0,133.0,57.0,4.0,4.2,-198,4,0,-278,191,-1,353.6149001121521,353.6149742603302,353.6178948879242,353.62821531295776,353.7706968784332,353.7706968784332,353.7706968784332,353.7706968784332,353.7706968784332,353.7706968784332,353.7706968784332,355.63941860198975,2,1.9944956302642822,None,,,,,,,,,,,,,,,,,,182,2,2025-03-04_12h03.52.808,comp,2024.2.4,54.518706463910945,2025-03-04 12h05.51.728146 -0500,
119,119,0,critical,whd,35.0,2.1,lower,57.0,133.0,133.0,57.0,70.0,70.0,2,1.6718358993530273,None,,,,,0,0,0,0,0,119,119,36,355.6547598838806,,,,,,,,,,,,,,,,,,,,,,,,,,,,,,,,,,,,,,,,,,,,,,,,,,,,,,,,,,,,,,,,,,,,,,,,,,,,,,,,,57.0,133.0,133.0,57.0,70.0,70.0,2.1,2.11,-191,267,0,275,160,-272,355.64094138145447,355.6410183906555,355.6445529460907,355.6547598838806,355.80626606941223,355.80626606941223,355.80626606941223,355.80626606941223,355.80626606941223,355.80626606941223,355.80626606941223,357.340126991272,2,1.6718358993530273,None,,,,,,,,,,,,,,,,,,182,2,2025-03-04_12h03.52.808,comp,2024.2.4,54.518706463910945,2025-03-04 12h05.51.728146 -0500,
120,120,0,critical,hdw,20.0,1.0,lower,133.0,57.0,78.0,78.0,57.0,133.0,3,1.8986756801605225,None,,,,,0,0,0,0,0,120,120,114,357.3561358451843,,,,,,,,,,,,,,,,,,,,,,,,,,,,,,,,,,,,,,,,,,,,,,,,,,,,,,,,,,,,,,,,,,,,,,,,,,,,,,,,,133.0,57.0,78.0,78.0,57.0,133.0,1.0,1.3,316,-263,480,-282,682,-251,357.34166979789734,357.3417458534241,357.34591269493103,357.3561358451843,357.5069315433502,357.5069315433502,357.5069315433502,357.5069315433502,357.5069315433502,357.5069315433502,357.5069315433502,359.25834012031555,3,1.8986756801605225,None,,,,,,,,,,,,,,,,,,182,2,2025-03-04_12h03.52.808,comp,2024.2.4,54.518706463910945,2025-03-04 12h05.51.728146 -0500,
121,121,0,critical,dhw,35.0,1.0,lower,70.0,70.0,133.0,57.0,57.0,133.0,3,2.443741798400879,None,,,,,0,0,0,0,0,121,121,48,359.2752876281738,,,,,,,,,,,,,,,,,,,,,,,,,,,,,,,,,,,,,,,,,,,,,,,,,,,,,,,,,,,,,,,,,,,,,,,,,,,,,,,,,70.0,70.0,133.0,57.0,57.0,133.0,1.0,1.3,320,-287,480,-268,671,-265,359.2598452568054,359.2599241733551,359.26387095451355,359.2752876281738,359.4258031845093,359.4258031845093,359.4258031845093,359.4258031845093,359.4258031845093,359.4258031845093,359.4258031845093,361.7249619960785,3,2.443741798400879,None,,,,,,,,,,,,,,,,,,182,2,2025-03-04_12h03.52.808,comp,2024.2.4,54.518706463910945,2025-03-04 12h05.51.728146 -0500,
122,122,0,filler_square,None,None,None,None,None,None,None,None,None,None,2,2.5295748710632324,None,,,,,0,0,0,0,0,122,122,203,361.74091148376465,,,,,,,,,,,,,,,,,,,,,,,,,,,,,,,,,,,,,,,,,,,,,,,,,,,,,,,,,,,,,,,,,,,,,,,,,,,,,,,,,71.49969613649513,82.49001062139789,86.44070903845066,86.44070903845066,80.34869145170804,63.70900582728263,2.2,2.22,-180,284,0,-262,171,-275,361.72680830955505,361.72688937187195,361.7302806377411,361.74091148376465,361.8923354148865,361.8923354148865,361.8923354148865,361.8923354148865,361.8923354148865,361.8923354148865,361.8923354148865,364.2844088077545,2,2.5295748710632324,None,,,,,,,,,,,,,,,,,,182,2,2025-03-04_12h03.52.808,comp,2024.2.4,54.518706463910945,2025-03-04 12h05.51.728146 -0500,
123,123,0,filler_random,None,None,None,None,None,None,None,None,None,None,1,1.483611822128296,None,,,,,0,0,0,0,0,123,123,160,364.29957914352417,,,,,,,,,,,,,,,,,,,,,,,,,,,,,,,,,,,,,,,,,,,,,,,,,,,,,,,,,,,,,,,,,,,,,,,,,,,,,,,,,193.1869929812275,186.15357899986049,95.44409774461892,178.33746923473802,104.93192362998253,100.3731824134453,2.1,2.12,-278,-285,0,-274,235,279,364.28611040115356,364.2862181663513,364.2891538143158,364.29957914352417,364.44298124313354,364.44298124313354,364.44298124313354,364.44298124313354,364.44298124313354,364.44298124313354,364.44298124313354,365.79319286346436,1,1.483611822128296,None,,,,,,,,,,,,,,,,,,182,2,2025-03-04_12h03.52.808,comp,2024.2.4,54.518706463910945,2025-03-04 12h05.51.728146 -0500,
124,124,0,catch,None,None,None,None,None,None,None,None,None,None,3,1.6926429271697998,None,,,,,0,0,0,0,0,124,124,124,365.80969762802124,,,,,,,,,,,,,,,,,,,,,,,,,,,,,,,,,,,,,,,,,,,,,,,,,,,,,,,,,,,,,,,,,,,,,,,,,,,,,,,,,99,91,73,117,171,154,3.0,3.1,-200,255,0,15,232,-272,365.79520058631897,365.79528403282166,365.798837184906,365.80969762802124,365.9614019393921,365.9614019393921,365.9614019393921,365.9614019393921,365.9614019393921,365.9614019393921,365.9614019393921,367.51223969459534,3,1.6926429271697998,None,,,,,,,,,,,,,,,,,,182,2,2025-03-04_12h03.52.808,comp,2024.2.4,54.518706463910945,2025-03-04 12h05.51.728146 -0500,
125,125,0,critical,hwd,20.0,3.0,upper,200.0,125.0,125.0,200.0,141.0,141.0,2,1.7497270107269287,None,,,,,0,0,0,0,0,125,125,105,367.52856707572937,,,,,,,,,,,,,,,,,,,,,,,,,,,,,,,,,,,,,,,,,,,,,,,,,,,,,,,,,,,,,,,,,,,,,,,,,,,,,,,,,200.0,125.0,125.0,200.0,141.0,141.0,3.0,3.2,-258,-251,0,18,266,256,367.5139191150665,367.51400208473206,367.51788353919983,367.52856707572937,367.6753764152527,367.6753764152527,367.6753764152527,367.6753764152527,367.6753764152527,367.6753764152527,367.6753764152527,369.292546749115,2,1.7497270107269287,None,,,,,,,,,,,,,,,,,,182,2,2025-03-04_12h03.52.808,comp,2024.2.4,54.518706463910945,2025-03-04 12h05.51.728146 -0500,
126,126,0,filler_random,None,None,None,None,None,None,None,None,None,None,2,1.465965986251831,None,,,,,0,0,0,0,0,126,126,134,369.3087809085846,,,,,,,,,,,,,,,,,,,,,,,,,,,,,,,,,,,,,,,,,,,,,,,,,,,,,,,,,,,,,,,,,,,,,,,,,,,,,,,,,63.43209390539375,121.37590494999289,171.22935437868654,183.52160693845798,170.21267025369156,83.59718992840024,3.0,3.2,-248,-289,0,-2,230,264,369.2944128513336,369.2945702075958,369.29795026779175,369.3087809085846,369.45788407325745,369.45788407325745,369.45788407325745,369.45788407325745,369.45788407325745,369.45788407325745,369.45788407325745,370.7770965099335,2,1.465965986251831,None,,,,,,,,,,,,,,,,,,182,2,2025-03-04_12h03.52.808,comp,2024.2.4,54.518706463910945,2025-03-04 12h05.51.728146 -0500,
127,127,0,critical,whd,20.0,1.0,lower,57.0,133.0,133.0,57.0,78.0,78.0,1,2.3288393020629883,None,,,,,0,0,0,0,0,127,127,90,370.79752802848816,,,,,,,,,,,,,,,,,,,,,,,,,,,,,,,,,,,,,,,,,,,,,,,,,,,,,,,,,,,,,,,,,,,,,,,,,,,,,,,,,57.0,133.0,133.0,57.0,78.0,78.0,1.0,1.1,-671,273,-480,274,-316,274,370.7787206172943,370.77879786491394,370.78212237358093,370.79752802848816,370.94437313079834,370.94437313079834,370.94437313079834,370.94437313079834,370.94437313079834,370.94437313079834,370.94437313079834,373.12854528427124,1,2.3288393020629883,None,,,,,,,,,,,,,,,,,,182,2,2025-03-04_12h03.52.808,comp,2024.2.4,54.518706463910945,2025-03-04 12h05.51.728146 -0500,
128,128,0,catch,None,None,None,None,None,None,None,None,None,None,3,1.5655322074890137,None,,,,,0,0,0,0,0,128,128,129,373.144926071167,,,,,,,,,,,,,,,,,,,,,,,,,,,,,,,,,,,,,,,,,,,,,,,,,,,,,,,,,,,,,,,,,,,,,,,,,,,,,,,,,77,113,115,75,151,174,4.0,4.1,-190,-276,0,13,220,-255,373.1307382583618,373.13082122802734,373.13430404663086,373.144926071167,373.29384994506836,373.29384994506836,373.29384994506836,373.29384994506836,373.29384994506836,373.29384994506836,373.29384994506836,374.71329832077026,3,1.5655322074890137,None,,,,,,,,,,,,,,,,,,182,2,2025-03-04_12h03.52.808,comp,2024.2.4,54.518706463910945,2025-03-04 12h05.51.728146 -0500,
129,129,0,filler_random,None,None,None,None,None,None,None,None,None,None,3,2.1575677394866943,None,,,,,0,0,0,0,0,129,129,150,374.72972989082336,,,,,,,,,,,,,,,,,,,,,,,,,,,,,,,,,,,,,,,,,,,,,,,,,,,,,,,,,,,,,,,,,,,,,,,,,,,,,,,,,160.93899944486628,99.56877764473796,124.80193551491088,145.1792667427059,146.01785855264734,139.8982679911296,4.0,4.1,-218,-285,0,-16,239,-264,374.7153232097626,374.71540880203247,374.7189462184906,374.72972989082336,374.88328981399536,374.88328981399536,374.88328981399536,374.88328981399536,374.88328981399536,374.88328981399536,374.88328981399536,376.8952901363373,3,2.1575677394866943,None,,,,,,,,,,,,,,,,,,182,2,2025-03-04_12h03.52.808,comp,2024.2.4,54.518706463910945,2025-03-04 12h05.51.728146 -0500,
130,130,0,filler_random,None,None,None,None,None,None,None,None,None,None,2,1.583848476409912,None,,,,,0,0,0,0,0,130,130,131,376.91101145744324,,,,,,,,,,,,,,,,,,,,,,,,,,,,,,,,,,,,,,,,,,,,,,,,,,,,,,,,,,,,,,,,,,,,,,,,,,,,,,,,,138.5623249691315,66.79541128910897,134.84568146437476,137.2428275754513,192.87374628674098,97.44559648006688,1.0,1.1,-678,282,-480,267,-267,262,376.89699602127075,376.89707255363464,376.9002068042755,376.91101145744324,377.06348991394043,377.06348991394043,377.06348991394043,377.06348991394043,377.06348991394043,377.06348991394043,377.06348991394043,378.5051600933075,2,1.583848476409912,None,,,,,,,,,,,,,,,,,,182,2,2025-03-04_12h03.52.808,comp,2024.2.4,54.518706463910945,2025-03-04 12h05.51.728146 -0500,
131,131,0,filler_square,None,None,None,None,None,None,None,None,None,None,3,1.4605674743652344,None,,,,,0,0,0,0,0,131,131,178,378.5305836200714,,,,,,,,,,,,,,,,,,,,,,,,,,,,,,,,,,,,,,,,,,,,,,,,,,,,,,,,,,,,,,,,,,,,,,,,,,,,,,,,,88.23628230231975,109.09363692651752,80.79897978355822,165.07735150689678,186.1835482385194,186.1835482385194,2.1,2.11,-233,261,0,277,272,-260,378.5072889328003,378.50736689567566,378.51067543029785,378.5305836200714,378.6695775985718,378.6695775985718,378.6695775985718,378.6695775985718,378.6695775985718,378.6695775985718,378.6695775985718,379.9978356361389,3,1.4605674743652344,None,,,,,,,,,,,,,,,,,,182,2,2025-03-04_12h03.52.808,comp,2024.2.4,54.518706463910945,2025-03-04 12h05.51.728146 -0500,
132,132,0,filler_random,None,None,None,None,None,None,None,None,None,None,1,2.3131420612335205,None,,,,,0,0,0,0,0,132,132,137,380.0135667324066,,,,,,,,,,,,,,,,,,,,,,,,,,,,,,,,,,,,,,,,,,,,,,,,,,,,,,,,,,,,,,,,,,,,,,,,,,,,,,,,,65.83620808087822,169.17130534231273,69.54123665459157,70.86838463840444,104.91355599117378,68.46788808841453,4.0,4.2,-216,10,0,-255,166,-17,379.9994101524353,379.99951124191284,380.00288438796997,380.0135667324066,380.1696763038635,380.1696763038635,380.1696763038635,380.1696763038635,380.1696763038635,380.1696763038635,380.1696763038635,382.33199524879456,1,2.3131420612335205,None,,,,,,,,,,,,,,,,,,182,2,2025-03-04_12h03.52.808,comp,2024.2.4,54.518706463910945,2025-03-04 12h05.51.728146 -0500,
133,133,0,filler_random,None,None,None,None,None,None,None,None,None,None,2,2.671442985534668,None,,,,,0,0,0,0,0,133,133,135,382.3513970375061,,,,,,,,,,,,,,,,,,,,,,,,,,,,,,,,,,,,,,,,,,,,,,,,,,,,,,,,,,,,,,,,,,,,,,,,,,,,,,,,,199.55541165679713,83.33953314079133,93.91060436466515,158.71341152120624,100.00420036673015,95.78216228391616,1.0,1.3,263,-285,480,-282,703,-251,382.3337666988373,382.3338966369629,382.3372449874878,382.3513970375061,382.498263835907,382.498263835907,382.498263835907,382.498263835907,382.498263835907,382.498263835907,382.498263835907,385.0325756072998,2,2.671442985534668,None,,,,,,,,,,,,,,,,,,182,2,2025-03-04_12h03.52.808,comp,2024.2.4,54.518706463910945,2025-03-04 12h05.51.728146 -0500,
134,134,0,critical,whd,20.0,2.1,lower,57.0,133.0,133.0,57.0,78.0,78.0,1,3.8021843433380127,None,,,,,0,0,0,0,0,134,134,38,385.05256843566895,,,,,,,,,,,,,,,,,,,,,,,,,,,,,,,,,,,,,,,,,,,,,,,,,,,,,,,,,,,,,,,,,,,,,,,,,,,,,,,,,57.0,133.0,133.0,57.0,78.0,78.0,2.1,2.12,-191,-277,0,-264,164,261,385.034024477005,385.03410029411316,385.0378701686859,385.05256843566895,385.1865224838257,385.1865224838257,385.1865224838257,385.1865224838257,385.1865224838257,385.1865224838257,385.1865224838257,388.85727882385254,1,3.8021843433380127,None,,,,,,,,,,,,,,,,,,182,2,2025-03-04_12h03.52.808,comp,2024.2.4,54.518706463910945,2025-03-04 12h05.51.728146 -0500,
135,135,0,critical,hwd,35.0,2.1,lower,133.0,57.0,57.0,133.0,70.0,70.0,1,1.725611686706543,None,,,,,0,0,0,0,0,135,135,40,388.8728401660919,,,,,,,,,,,,,,,,,,,,,,,,,,,,,,,,,,,,,,,,,,,,,,,,,,,,,,,,,,,,,,,,,,,,,,,,,,,,,,,,,133.0,57.0,57.0,133.0,70.0,70.0,2.1,2.12,-191,-281,0,-253,198,281,388.8588378429413,388.85891556739807,388.8617744445801,388.8728401660919,389.0235393047333,389.0235393047333,389.0235393047333,389.0235393047333,389.0235393047333,389.0235393047333,389.0235393047333,390.600403547287,1,1.725611686706543,None,,,,,,,,,,,,,,,,,,182,2,2025-03-04_12h03.52.808,comp,2024.2.4,54.518706463910945,2025-03-04 12h05.51.728146 -0500,
136,136,0,critical,hdw,35.0,1.0,upper,200.0,125.0,127.0,127.0,125.0,200.0,3,3.4804399013519287,None,,,,,0,0,0,0,0,136,136,109,390.61453342437744,,,,,,,,,,,,,,,,,,,,,,,,,,,,,,,,,,,,,,,,,,,,,,,,,,,,,,,,,,,,,,,,,,,,,,,,,,,,,,,,,200.0,125.0,127.0,127.0,125.0,200.0,1.0,1.1,-702,279,-480,257,-220,257,390.6019458770752,390.60202527046204,390.60516142845154,390.61453342437744,390.76664304733276,390.76664304733276,390.76664304733276,390.76664304733276,390.76664304733276,390.76664304733276,390.76664304733276,394.10188841819763,3,3.4804399013519287,None,,,,,,,,,,,,,,,,,,182,2,2025-03-04_12h03.52.808,comp,2024.2.4,54.518706463910945,2025-03-04 12h05.51.728146 -0500,
137,137,0,critical,dwh,20.0,3.0,lower,78.0,78.0,57.0,133.0,133.0,57.0,3,1.4562854766845703,None,,,,,0,0,0,0,0,137,137,68,394.1181342601776,,,,,,,,,,,,,,,,,,,,,,,,,,,,,,,,,,,,,,,,,,,,,,,,,,,,,,,,,,,,,,,,,,,,,,,,,,,,,,,,,78.0,78.0,57.0,133.0,133.0,57.0,3.0,3.1,-202,264,0,5,191,-282,394.1033728122711,394.1034731864929,394.10750341415405,394.1181342601776,394.26713514328003,394.26713514328003,394.26713514328003,394.26713514328003,394.26713514328003,394.26713514328003,394.26713514328003,395.58419394493103,3,1.4562854766845703,None,,,,,,,,,,,,,,,,,,182,2,2025-03-04_12h03.52.808,comp,2024.2.4,54.518706463910945,2025-03-04 12h05.51.728146 -0500,
138,138,0,critical,hdw,20.0,3.0,lower,133.0,57.0,78.0,78.0,57.0,133.0,3,1.9656338691711426,None,,,,,0,0,0,0,0,138,138,116,395.600967168808,,,,,,,,,,,,,,,,,,,,,,,,,,,,,,,,,,,,,,,,,,,,,,,,,,,,,,,,,,,,,,,,,,,,,,,,,,,,,,,,,133.0,57.0,78.0,78.0,57.0,133.0,3.0,3.1,-164,261,0,5,202,-272,395.5857660770416,395.5858416557312,395.58910274505615,395.600967168808,395.75602626800537,395.75602626800537,395.75602626800537,395.75602626800537,395.75602626800537,395.75602626800537,395.75602626800537,397.5854687690735,3,1.9656338691711426,None,,,,,,,,,,,,,,,,,,182,2,2025-03-04_12h03.52.808,comp,2024.2.4,54.518706463910945,2025-03-04 12h05.51.728146 -0500,
139,139,0,critical,wdh,20.0,2.1,lower,57.0,133.0,78.0,78.0,133.0,57.0,3,2.373880386352539,None,,,,,0,0,0,0,0,139,139,34,397.60133361816406,,,,,,,,,,,,,,,,,,,,,,,,,,,,,,,,,,,,,,,,,,,,,,,,,,,,,,,,,,,,,,,,,,,,,,,,,,,,,,,,,57.0,133.0,78.0,78.0,133.0,57.0,2.1,2.11,-202,276,0,278,164,-254,397.5869219303131,397.58699679374695,397.5900194644928,397.60133361816406,397.74978947639465,397.74978947639465,397.74978947639465,397.74978947639465,397.74978947639465,397.74978947639465,397.74978947639465,399.98395824432373,3,2.373880386352539,None,,,,,,,,,,,,,,,,,,182,2,2025-03-04_12h03.52.808,comp,2024.2.4,54.518706463910945,2025-03-04 12h05.51.728146 -0500,
