thisN,thisTrialN,thisRepN,effect,order,distance,config,diag,h_1,w_1,h_2,w_2,h_3,w_3,rect_choice.keys,rect_choice.rt,rect_choice.duration,instructions_loop.thisRepN,instructions_loop.thisTrialN,instructions_loop.thisN,instructions_loop.thisIndex,blocks.thisRepN,blocks.thisTrialN,blocks.thisN,blocks.thisIndex,trials.thisRepN,trials.thisTrialN,trials.thisN,trials.thisIndex,thisRow.t,notes,consent.started,agree_button.started,decline_button.started,consent_img.started,mouse.started,consent.stopped,agree_button.numClicks,agree_button.timesOn,agree_button.timesOff,decline_button.numClicks,decline_button.timesOn,decline_button.timesOff,mouse.x,mouse.y,mouse.leftButton,mouse.midButton,mouse.rightButton,mouse.time,mouse.clicked_name,exp_params.started,exp_params.stopped,welcome.started,welcome_text.started,welcome.stopped,instructions_1.started,instructions_1_text_1.started,instructions_1_text_2.started,key_resp.started,instructions_1.stopped,instructions_loop.key_resp.keys,instructions_loop.key_resp.rt,instructions_loop.key_resp.duration,instructions_2.started,instructions_2_text_1.started,instructions_2_text_2.started,key_resp_2.started,instructions_2.stopped,instructions_loop.key_resp_2.keys,instructions_loop.key_resp_2.rt,instructions_loop.key_resp_2.duration,instructions_3.started,instructions_3_text_1.started,r1_instr3.started,r2_instr3.started,r3_instr3.started,r1_instr3_label.started,r2_instr3_label.started,r3_instr3_label.started,instructions_3_text_3.started,instructions_3_text_4.started,key_resp_3.started,instructions_3.stopped,instructions_loop.key_resp_3.keys,instructions_loop.key_resp_3.rt,instructions_loop.key_resp_3.duration,instructions_4.started,instructions_4_text_1.started,instructions_4_text_3.started,instructions_4_text_2.started,key_resp_4.started,instructions_4.stopped,instructions_loop.key_resp_4.keys,instructions_loop.key_resp_4.rt,instructions_loop.key_resp_4.duration,instructions_5.started,instructions_5_text_1.started,instructions_5_text_2.started,key_resp_5.started,instructions_5.stopped,instructions_loop.key_resp_5.keys,instructions_loop.key_resp_5.rt,instructions_loop.key_resp_5.duration,start_exp.started,start_exp_text.started,key_resp_6.started,start_exp.stopped,key_resp_6.keys,key_resp_6.rt,key_resp_6.duration,h_1_tmp,w_1_tmp,h_2_tmp,w_2_tmp,h_3_tmp,w_3_tmp,config_tmp,config_tmp_1,r_1_x,r_1_y,r_2_x,r_2_y,r_3_x,r_3_y,pre_trial.started,pre_trial.stopped,choice_trial.started,rect_choice.started,r_1.started,r_2.started,r_3.started,r_1_label.started,r_2_label.started,r_3_label.started,prompt.started,choice_trial.stopped,trials.rect_choice.keys,trials.rect_choice.rt,trials.rect_choice.duration,end_block.started,end_block_text.started,end_block.stopped,end.started,end_text.started,key_resp_7.started,end.stopped,key_resp_7.keys,key_resp_7.rt,key_resp_7.duration,debriefing.started,debrief_form.started,end_debrief.started,debriefing.stopped,end_debrief.keys,end_debrief.rt,end_debrief.duration,participant,computer,date,expName,psychopyVersion,frameRate,expStart,
,,,,,,,,,,,,,,,,,,,,,,,,,,,,,,,0.015016317367553711,0.04166579246520996,0.04166579246520996,0.04166579246520996,0.014562845230102539,2.2898759841918945,1,[2.2468607425689697],[2.2468771934509277],0,,,[-69.0],[-495.0],[1],[0],[0],[2.2742807865142822],['agree_button'],,,,,,,,,,,,,,,,,,,,,,,,,,,,,,,,,,,,,,,,,,,,,,,,,,,,,,,,,,,,,,,,,,,,,,,,,,,,,,,,,,,,,,,,,,,,,,,,,,,,,,,,,,,183,3,2025-03-04_12h03.48.335,comp,2024.2.4,62.65242226524222,2025-03-04 12h05.36.011457 -0500,
,,,,,,,,,,,,,,,,,,,,,,,,,,,,,,,,,,,,,,,,,,,,,,,,,,2.290149688720703,2.290184736251831,,,,,,,,,,,,,,,,,,,,,,,,,,,,,,,,,,,,,,,,,,,,,,,,,,,,,,,,,,,,,,,,,,,,,,,,,,,,,,,,,,,,,,,,,,,,,,,,,,,,,,,,,183,3,2025-03-04_12h03.48.335,comp,2024.2.4,62.65242226524222,2025-03-04 12h05.36.011457 -0500,
,,,,,,,,,,,,,,,,,,,,,,,,,,,,,,,,,,,,,,,,,,,,,,,,,,,,2.290207862854004,2.3033697605133057,4.298314332962036,,,,,,,,,,,,,,,,,,,,,,,,,,,,,,,,,,,,,,,,,,,,,,,,,,,,,,,,,,,,,,,,,,,,,,,,,,,,,,,,,,,,,,,,,,,,,,,,,,,,,,183,3,2025-03-04_12h03.48.335,comp,2024.2.4,62.65242226524222,2025-03-04 12h05.36.011457 -0500,
0,0,0,,,,,,,,,,,,,,,0,0,0,0,,,,,,,,,4.314976930618286,,,,,,,,,,,,,,,,,,,,,,,,,,4.298852443695068,4.314976930618286,4.314976930618286,5.798735618591309,9.649675369262695,space,3.8333709239959717,None,9.649758338928223,9.665092945098877,9.665092945098877,11.16493272781372,16.149576902389526,space,4.979400157928467,None,16.149662971496582,16.171892166137695,16.171892166137695,16.171892166137695,16.171892166137695,16.171892166137695,16.171892166137695,16.171892166137695,16.171892166137695,16.171892166137695,17.66513729095459,22.96640110015869,space,5.286028146743774,None,22.96649193763733,22.98184895515442,22.98184895515442,22.98184895515442,24.48161506652832,30.999357223510742,space,6.510329484939575,None,30.99944019317627,31.015161275863647,31.015161275863647,32.51466989517212,33.79921865463257,space,1.2772891521453857,None,33.7993278503418,33.815014123916626,33.815014123916626,35.299301862716675,space,1.482802152633667,None,,,,,,,,,,,,,,,,,,,,,,,,,,,,,,,,,,,,,,,,,,,,,,,183,3,2025-03-04_12h03.48.335,comp,2024.2.4,62.65242226524222,2025-03-04 12h05.36.011457 -0500,
0,0,0,critical,hdw,35.0,1.0,lower,133.0,57.0,70.0,70.0,57.0,133.0,3,3.5024757385253906,None,,,,,0,0,0,0,0,0,0,108,35.36241865158081,,,,,,,,,,,,,,,,,,,,,,,,,,,,,,,,,,,,,,,,,,,,,,,,,,,,,,,,,,,,,,,,,,,,,,,,,,,,,,,,,133.0,57.0,70.0,70.0,57.0,133.0,1.0,1.2,-160,7,0,-8,198,20,35.34877562522888,35.34882211685181,35.35090732574463,35.36241865158081,35.50449085235596,35.50449085235596,35.50449085235596,35.50449085235596,35.50449085235596,35.50449085235596,35.50449085235596,38.882614612579346,3,3.5024757385253906,None,,,,,,,,,,,,,,,,,,183,3,2025-03-04_12h03.48.335,comp,2024.2.4,62.65242226524222,2025-03-04 12h05.36.011457 -0500,
1,1,0,filler_square,None,None,None,None,None,None,None,None,None,None,3,1.3175454139709473,None,,,,,0,0,0,0,0,1,1,170,38.897918939590454,,,,,,,,,,,,,,,,,,,,,,,,,,,,,,,,,,,,,,,,,,,,,,,,,,,,,,,,,,,,,,,,,,,,,,,,,,,,,,,,,90.59985539606961,69.4189553758065,97.73873935151192,101.59513501571186,147.0470496648041,147.0470496648041,3.0,3.1,-182,273,0,5,220,-289,38.88359546661377,38.88363742828369,38.88621163368225,38.897918939590454,39.04818606376648,39.04818606376648,39.04818606376648,39.04818606376648,39.04818606376648,39.04818606376648,39.04818606376648,40.23266291618347,3,1.3175454139709473,None,,,,,,,,,,,,,,,,,,183,3,2025-03-04_12h03.48.335,comp,2024.2.4,62.65242226524222,2025-03-04 12h05.36.011457 -0500,
2,2,0,filler_square,None,None,None,None,None,None,None,None,None,None,2,1.518918514251709,None,,,,,0,0,0,0,0,2,2,200,40.24806189537048,,,,,,,,,,,,,,,,,,,,,,,,,,,,,,,,,,,,,,,,,,,,,,,,,,,,,,,,,,,,,,,,,,,,,,,,,,,,,,,,,149.71691013394383,114.94829342214977,156.09072789263956,156.09072789263956,96.28464608518127,103.37192743378739,2.1,2.11,-232,253,0,283,226,-258,40.23365020751953,40.23369121551514,40.236653327941895,40.24806189537048,40.398098945617676,40.398098945617676,40.398098945617676,40.398098945617676,40.398098945617676,40.398098945617676,40.398098945617676,41.78268051147461,2,1.518918514251709,None,,,,,,,,,,,,,,,,,,183,3,2025-03-04_12h03.48.335,comp,2024.2.4,62.65242226524222,2025-03-04 12h05.36.011457 -0500,
3,3,0,catch,None,None,None,None,None,None,None,None,None,None,2,1.4505000114440918,None,,,,,0,0,0,0,0,3,3,120,41.7979850769043,,,,,,,,,,,,,,,,,,,,,,,,,,,,,,,,,,,,,,,,,,,,,,,,,,,,,,,,,,,,,,,,,,,,,,,,,,,,,,,,,106,84,185,140,58,132,4.0,4.1,-208,-252,0,19,232,-262,41.78384852409363,41.78389048576355,41.78649616241455,41.7979850769043,41.94812321662903,41.94812321662903,41.94812321662903,41.94812321662903,41.94812321662903,41.94812321662903,41.94812321662903,43.26592993736267,2,1.4505000114440918,None,,,,,,,,,,,,,,,,,,183,3,2025-03-04_12h03.48.335,comp,2024.2.4,62.65242226524222,2025-03-04 12h05.36.011457 -0500,
4,4,0,critical,wdh,35.0,2.1,lower,57.0,133.0,70.0,70.0,133.0,57.0,1,3.4785211086273193,None,,,,,0,0,0,0,0,4,4,8,43.281362533569336,,,,,,,,,,,,,,,,,,,,,,,,,,,,,,,,,,,,,,,,,,,,,,,,,,,,,,,,,,,,,,,,,,,,,,,,,,,,,,,,,57.0,133.0,70.0,70.0,133.0,57.0,2.1,2.12,-198,-251,0,-263,160,284,43.26675033569336,43.2667920589447,43.2697057723999,43.281362533569336,43.431376934051514,43.431376934051514,43.431376934051514,43.431376934051514,43.431376934051514,43.431376934051514,43.431376934051514,46.765873670578,1,3.4785211086273193,None,,,,,,,,,,,,,,,,,,183,3,2025-03-04_12h03.48.335,comp,2024.2.4,62.65242226524222,2025-03-04 12h05.36.011457 -0500,
5,5,0,critical,hwd,35.0,3.0,lower,133.0,57.0,57.0,133.0,70.0,70.0,2,2.5379750728607178,None,,,,,0,0,0,0,0,5,5,98,46.7814998626709,,,,,,,,,,,,,,,,,,,,,,,,,,,,,,,,,,,,,,,,,,,,,,,,,,,,,,,,,,,,,,,,,,,,,,,,,,,,,,,,,133.0,57.0,57.0,133.0,70.0,70.0,3.0,3.1,-191,252,0,1,198,-253,46.76668453216553,46.766727447509766,46.769997358322144,46.7814998626709,46.93132209777832,46.93132209777832,46.93132209777832,46.93132209777832,46.93132209777832,46.93132209777832,46.93132209777832,49.33256769180298,2,2.5379750728607178,None,,,,,,,,,,,,,,,,,,183,3,2025-03-04_12h03.48.335,comp,2024.2.4,62.65242226524222,2025-03-04 12h05.36.011457 -0500,
6,6,0,critical,hwd,35.0,4.0,lower,133.0,57.0,57.0,133.0,70.0,70.0,1,3.7806787490844727,None,,,,,0,0,0,0,0,6,6,100,49.34792494773865,,,,,,,,,,,,,,,,,,,,,,,,,,,,,,,,,,,,,,,,,,,,,,,,,,,,,,,,,,,,,,,,,,,,,,,,,,,,,,,,,133.0,57.0,57.0,133.0,70.0,70.0,4.0,4.2,-191,8,0,-280,198,9,49.33334803581238,49.333388566970825,49.33588743209839,49.34792494773865,49.49814534187317,49.49814534187317,49.49814534187317,49.49814534187317,49.49814534187317,49.49814534187317,49.49814534187317,53.132771492004395,1,3.7806787490844727,None,,,,,,,,,,,,,,,,,,183,3,2025-03-04_12h03.48.335,comp,2024.2.4,62.65242226524222,2025-03-04 12h05.36.011457 -0500,
7,7,0,filler_square,None,None,None,None,None,None,None,None,None,None,1,1.202582836151123,None,,,,,0,0,0,0,0,7,7,209,53.14825654029846,,,,,,,,,,,,,,,,,,,,,,,,,,,,,,,,,,,,,,,,,,,,,,,,,,,,,,,,,,,,,,,,,,,,,,,,,,,,,,,,,197.60679669952464,197.60679669952464,180.0705012863998,90.67464034446783,109.16101292354567,175.46072103180433,4.0,4.2,-240,17,0,-282,229,-1,53.13375639915466,53.133798360824585,53.13600158691406,53.14825654029846,53.298301219940186,53.298301219940186,53.298301219940186,53.298301219940186,53.298301219940186,53.298301219940186,53.298301219940186,54.36598038673401,1,1.202582836151123,None,,,,,,,,,,,,,,,,,,183,3,2025-03-04_12h03.48.335,comp,2024.2.4,62.65242226524222,2025-03-04 12h05.36.011457 -0500,
8,8,0,filler_random,None,None,None,None,None,None,None,None,None,None,1,1.2583954334259033,None,,,,,0,0,0,0,0,8,8,132,54.381235122680664,,,,,,,,,,,,,,,,,,,,,,,,,,,,,,,,,,,,,,,,,,,,,,,,,,,,,,,,,,,,,,,,,,,,,,,,,,,,,,,,,182.6200654817983,185.03078586979444,165.51348126180778,61.607285115073935,76.66961731020885,115.89407652666098,2.1,2.12,-219,-282,0,-264,185,255,54.36689615249634,54.366939544677734,54.36911749839783,54.381235122680664,54.53147339820862,54.53147339820862,54.53147339820862,54.53147339820862,54.53147339820862,54.53147339820862,54.53147339820862,55.6492862701416,1,1.2583954334259033,None,,,,,,,,,,,,,,,,,,183,3,2025-03-04_12h03.48.335,comp,2024.2.4,62.65242226524222,2025-03-04 12h05.36.011457 -0500,
9,9,0,filler_random,None,None,None,None,None,None,None,None,None,None,1,1.6948413848876953,None,,,,,0,0,0,0,0,9,9,133,55.66475987434387,,,,,,,,,,,,,,,,,,,,,,,,,,,,,,,,,,,,,,,,,,,,,,,,,,,,,,,,,,,,,,,,,,,,,,,,,,,,,,,,,184.95328237398434,155.7774547043403,94.42893002338897,177.3294436259815,112.63437696592527,106.24831531517275,4.0,4.1,-263,-283,0,9,238,-277,55.65020751953125,55.65024995803833,55.65230107307434,55.66475987434387,55.814789056777954,55.814789056777954,55.814789056777954,55.814789056777954,55.814789056777954,55.814789056777954,55.814789056777954,57.36594867706299,1,1.6948413848876953,None,,,,,,,,,,,,,,,,,,183,3,2025-03-04_12h03.48.335,comp,2024.2.4,62.65242226524222,2025-03-04 12h05.36.011457 -0500,
10,10,0,filler_square,None,None,None,None,None,None,None,None,None,None,2,0.9942755699157715,None,,,,,0,0,0,0,0,10,10,179,57.3813681602478,,,,,,,,,,,,,,,,,,,,,,,,,,,,,,,,,,,,,,,,,,,,,,,,,,,,,,,,,,,,,,,,,,,,,,,,,,,,,,,,,106.06322767079212,100.16929482073775,187.56206655551983,187.56206655551983,85.65147486844228,80.2360486002495,1.0,1.3,240,-268,480,-278,710,-254,57.36690902709961,57.366950273513794,57.36933922767639,57.3813681602478,57.53146934509277,57.53146934509277,57.53146934509277,57.53146934509277,57.53146934509277,57.53146934509277,57.53146934509277,58.38259768486023,2,0.9942755699157715,None,,,,,,,,,,,,,,,,,,183,3,2025-03-04_12h03.48.335,comp,2024.2.4,62.65242226524222,2025-03-04 12h05.36.011457 -0500,
11,11,0,critical,hdw,35.0,2.1,upper,200.0,125.0,127.0,127.0,125.0,200.0,3,3.1212520599365234,None,,,,,0,0,0,0,0,11,11,45,58.398141860961914,,,,,,,,,,,,,,,,,,,,,,,,,,,,,,,,,,,,,,,,,,,,,,,,,,,,,,,,,,,,,,,,,,,,,,,,,,,,,,,,,200.0,125.0,127.0,127.0,125.0,200.0,2.1,2.12,-222,-287,0,-266,260,284,58.38345241546631,58.38349437713623,58.38603138923645,58.398141860961914,58.54820704460144,58.54820704460144,58.54820704460144,58.54820704460144,58.54820704460144,58.54820704460144,58.54820704460144,61.532756090164185,3,3.1212520599365234,None,,,,,,,,,,,,,,,,,,183,3,2025-03-04_12h03.48.335,comp,2024.2.4,62.65242226524222,2025-03-04 12h05.36.011457 -0500,
12,12,0,critical,dwh,20.0,1.0,upper,141.0,141.0,125.0,200.0,200.0,125.0,2,3.411726713180542,None,,,,,0,0,0,0,0,12,12,67,61.547890424728394,,,,,,,,,,,,,,,,,,,,,,,,,,,,,,,,,,,,,,,,,,,,,,,,,,,,,,,,,,,,,,,,,,,,,,,,,,,,,,,,,141.0,141.0,125.0,200.0,200.0,125.0,1.0,1.2,-266,6,0,20,258,-5,61.533551931381226,61.53359270095825,61.53615164756775,61.547890424728394,61.69818830490112,61.69818830490112,61.69818830490112,61.69818830490112,61.69818830490112,61.69818830490112,61.69818830490112,64.96599578857422,2,3.411726713180542,None,,,,,,,,,,,,,,,,,,183,3,2025-03-04_12h03.48.335,comp,2024.2.4,62.65242226524222,2025-03-04 12h05.36.011457 -0500,
13,13,0,critical,wdh,20.0,2.1,upper,125.0,200.0,141.0,141.0,200.0,125.0,1,4.883577823638916,None,,,,,0,0,0,0,0,13,13,11,64.98140716552734,,,,,,,,,,,,,,,,,,,,,,,,,,,,,,,,,,,,,,,,,,,,,,,,,,,,,,,,,,,,,,,,,,,,,,,,,,,,,,,,,125.0,200.0,141.0,141.0,200.0,125.0,2.1,2.11,-266,277,0,278,229,-285,64.9668276309967,64.96686887741089,64.96897840499878,64.98140716552734,65.13152194023132,65.13152194023132,65.13152194023132,65.13152194023132,65.13152194023132,65.13152194023132,65.13152194023132,69.86610984802246,1,4.883577823638916,None,,,,,,,,,,,,,,,,,,183,3,2025-03-04_12h03.48.335,comp,2024.2.4,62.65242226524222,2025-03-04 12h05.36.011457 -0500,
14,14,0,critical,dhw,20.0,1.0,lower,78.0,78.0,133.0,57.0,57.0,133.0,1,4.685442686080933,None,,,,,0,0,0,0,0,14,14,54,69.88135814666748,,,,,,,,,,,,,,,,,,,,,,,,,,,,,,,,,,,,,,,,,,,,,,,,,,,,,,,,,,,,,,,,,,,,,,,,,,,,,,,,,78.0,78.0,133.0,57.0,57.0,133.0,1.0,1.1,-644,274,-480,251,-289,275,69.8669662475586,69.86700749397278,69.86933398246765,69.88135814666748,70.03115057945251,70.03115057945251,70.03115057945251,70.03115057945251,70.03115057945251,70.03115057945251,70.03115057945251,74.58230447769165,1,4.685442686080933,None,,,,,,,,,,,,,,,,,,183,3,2025-03-04_12h03.48.335,comp,2024.2.4,62.65242226524222,2025-03-04 12h05.36.011457 -0500,
15,15,0,filler_random,None,None,None,None,None,None,None,None,None,None,2,3.041947364807129,None,,,,,0,0,0,0,0,15,15,139,74.59769654273987,,,,,,,,,,,,,,,,,,,,,,,,,,,,,,,,,,,,,,,,,,,,,,,,,,,,,,,,,,,,,,,,,,,,,,,,,,,,,,,,,87.93783194691679,71.39575266937098,123.1546709456048,143.22379007375775,73.59334010319593,175.25129930525034,2.2,2.21,-203,-266,0,289,255,250,74.58323216438293,74.58327412605286,74.58572912216187,74.59769654273987,74.74799394607544,74.74799394607544,74.74799394607544,74.74799394607544,74.74799394607544,74.74799394607544,74.74799394607544,77.64900159835815,2,3.041947364807129,None,,,,,,,,,,,,,,,,,,183,3,2025-03-04_12h03.48.335,comp,2024.2.4,62.65242226524222,2025-03-04 12h05.36.011457 -0500,
16,16,0,critical,whd,35.0,3.0,lower,57.0,133.0,133.0,57.0,70.0,70.0,1,4.437895059585571,None,,,,,0,0,0,0,0,16,16,86,77.66471862792969,,,,,,,,,,,,,,,,,,,,,,,,,,,,,,,,,,,,,,,,,,,,,,,,,,,,,,,,,,,,,,,,,,,,,,,,,,,,,,,,,57.0,133.0,133.0,57.0,70.0,70.0,3.0,3.1,-191,289,0,10,160,-262,77.64981126785278,77.64985394477844,77.65207386016846,77.66471862792969,77.8144748210907,77.8144748210907,77.8144748210907,77.8144748210907,77.8144748210907,77.8144748210907,77.8144748210907,82.1156370639801,1,4.437895059585571,None,,,,,,,,,,,,,,,,,,183,3,2025-03-04_12h03.48.335,comp,2024.2.4,62.65242226524222,2025-03-04 12h05.36.011457 -0500,
17,17,0,catch,None,None,None,None,None,None,None,None,None,None,2,1.2517039775848389,None,,,,,0,0,0,0,0,17,17,128,82.13103532791138,,,,,,,,,,,,,,,,,,,,,,,,,,,,,,,,,,,,,,,,,,,,,,,,,,,,,,,,,,,,,,,,,,,,,,,,,,,,,,,,,81,109,129,196,79,111,4.0,4.2,-248,-10,0,-277,250,19,82.1166980266571,82.11673974990845,82.11934232711792,82.13103532791138,82.28119730949402,82.28119730949402,82.28119730949402,82.28119730949402,82.28119730949402,82.28119730949402,82.28119730949402,83.3989429473877,2,1.2517039775848389,None,,,,,,,,,,,,,,,,,,183,3,2025-03-04_12h03.48.335,comp,2024.2.4,62.65242226524222,2025-03-04 12h05.36.011457 -0500,
18,18,0,filler_square,None,None,None,None,None,None,None,None,None,None,1,1.0832350254058838,None,,,,,0,0,0,0,0,18,18,207,83.41439604759216,,,,,,,,,,,,,,,,,,,,,,,,,,,,,,,,,,,,,,,,,,,,,,,,,,,,,,,,,,,,,,,,,,,,,,,,,,,,,,,,,196.40545043618388,196.40545043618388,73.1737256734045,188.52410441784065,66.69581235704922,160.5062138717326,3.0,3.2,-288,-273,0,-15,271,278,83.39993047714233,83.39997243881226,83.40213227272034,83.41439604759216,83.56464552879333,83.56464552879333,83.56464552879333,83.56464552879333,83.56464552879333,83.56464552879333,83.56464552879333,84.49941921234131,1,1.0832350254058838,None,,,,,,,,,,,,,,,,,,183,3,2025-03-04_12h03.48.335,comp,2024.2.4,62.65242226524222,2025-03-04 12h05.36.011457 -0500,
19,19,0,filler_random,None,None,None,None,None,None,None,None,None,None,2,0.8608822822570801,None,,,,,0,0,0,0,0,19,19,130,84.51464796066284,,,,,,,,,,,,,,,,,,,,,,,,,,,,,,,,,,,,,,,,,,,,,,,,,,,,,,,,,,,,,,,,,,,,,,,,,,,,,,,,,178.7807203643897,101.52767677995953,175.83795572368865,195.31490255531432,57.39289570447522,169.2626096854936,4.0,4.1,-244,-254,0,-7,278,-257,84.50032639503479,84.50036835670471,84.50254654884338,84.51464796066284,84.66483449935913,84.66483449935913,84.66483449935913,84.66483449935913,84.66483449935913,84.66483449935913,84.66483449935913,85.38254642486572,2,0.8608822822570801,None,,,,,,,,,,,,,,,,,,183,3,2025-03-04_12h03.48.335,comp,2024.2.4,62.65242226524222,2025-03-04 12h05.36.011457 -0500,
20,20,0,critical,dhw,35.0,2.1,lower,70.0,70.0,133.0,57.0,57.0,133.0,2,2.250147581100464,None,,,,,0,0,0,0,0,20,20,24,85.39793229103088,,,,,,,,,,,,,,,,,,,,,,,,,,,,,,,,,,,,,,,,,,,,,,,,,,,,,,,,,,,,,,,,,,,,,,,,,,,,,,,,,70.0,70.0,133.0,57.0,57.0,133.0,2.1,2.11,-160,285,0,278,191,-266,85.38345170021057,85.3834936618805,85.38600373268127,85.39793229103088,85.54772567749023,85.54772567749023,85.54772567749023,85.54772567749023,85.54772567749023,85.54772567749023,85.54772567749023,87.64927864074707,2,2.250147581100464,None,,,,,,,,,,,,,,,,,,183,3,2025-03-04_12h03.48.335,comp,2024.2.4,62.65242226524222,2025-03-04 12h05.36.011457 -0500,
21,21,0,critical,whd,20.0,3.0,lower,57.0,133.0,133.0,57.0,78.0,78.0,2,5.5907793045043945,None,,,,,0,0,0,0,0,21,21,92,87.66493725776672,,,,,,,,,,,,,,,,,,,,,,,,,,,,,,,,,,,,,,,,,,,,,,,,,,,,,,,,,,,,,,,,,,,,,,,,,,,,,,,,,57.0,133.0,133.0,57.0,78.0,78.0,3.0,3.2,-191,-270,0,-14,164,284,87.65006303787231,87.65010690689087,87.65245389938354,87.66493725776672,87.8145215511322,87.8145215511322,87.8145215511322,87.8145215511322,87.8145215511322,87.8145215511322,87.8145215511322,93.26539516448975,2,5.5907793045043945,None,,,,,,,,,,,,,,,,,,183,3,2025-03-04_12h03.48.335,comp,2024.2.4,62.65242226524222,2025-03-04 12h05.36.011457 -0500,
22,22,0,critical,whd,20.0,4.0,upper,125.0,200.0,200.0,125.0,141.0,141.0,1,1.9892470836639404,None,,,,,0,0,0,0,0,22,22,95,93.28123092651367,,,,,,,,,,,,,,,,,,,,,,,,,,,,,,,,,,,,,,,,,,,,,,,,,,,,,,,,,,,,,,,,,,,,,,,,,,,,,,,,,125.0,200.0,200.0,125.0,141.0,141.0,4.0,4.1,-258,-254,0,16,229,-262,93.2662239074707,93.26626467704773,93.26889562606812,93.28123092651367,93.43128871917725,93.43128871917725,93.43128871917725,93.43128871917725,93.43128871917725,93.43128871917725,93.43128871917725,95.28249645233154,1,1.9892470836639404,None,,,,,,,,,,,,,,,,,,183,3,2025-03-04_12h03.48.335,comp,2024.2.4,62.65242226524222,2025-03-04 12h05.36.011457 -0500,
23,23,0,critical,hdw,20.0,4.0,upper,200.0,125.0,141.0,141.0,125.0,200.0,3,1.7259585857391357,None,,,,,0,0,0,0,0,23,23,119,95.29757070541382,,,,,,,,,,,,,,,,,,,,,,,,,,,,,,,,,,,,,,,,,,,,,,,,,,,,,,,,,,,,,,,,,,,,,,,,,,,,,,,,,200.0,125.0,141.0,141.0,125.0,200.0,4.0,4.1,-229,-275,0,18,266,-288,95.28330302238464,95.28334617614746,95.28580498695374,95.29757070541382,95.44792604446411,95.44792604446411,95.44792604446411,95.44792604446411,95.44792604446411,95.44792604446411,95.44792604446411,97.03242659568787,3,1.7259585857391357,None,,,,,,,,,,,,,,,,,,183,3,2025-03-04_12h03.48.335,comp,2024.2.4,62.65242226524222,2025-03-04 12h05.36.011457 -0500,
24,24,0,filler_square,None,None,None,None,None,None,None,None,None,None,1,3.127624988555908,None,,,,,0,0,0,0,0,24,24,177,97.04792952537537,,,,,,,,,,,,,,,,,,,,,,,,,,,,,,,,,,,,,,,,,,,,,,,,,,,,,,,,,,,,,,,,,,,,,,,,,,,,,,,,,91.14895681297713,91.14895681297713,82.70026319731873,61.580615229933244,71.79845868986551,69.74742101638,2.1,2.11,-172,272,0,250,162,-289,97.03341555595398,97.0334575176239,97.03561544418335,97.04792952537537,97.19768238067627,97.19768238067627,97.19768238067627,97.19768238067627,97.19768238067627,97.19768238067627,97.19768238067627,100.1821346282959,1,3.127624988555908,None,,,,,,,,,,,,,,,,,,183,3,2025-03-04_12h03.48.335,comp,2024.2.4,62.65242226524222,2025-03-04 12h05.36.011457 -0500,
25,25,0,filler_square,None,None,None,None,None,None,None,None,None,None,3,1.8005483150482178,None,,,,,0,0,0,0,0,25,25,173,100.19806814193726,,,,,,,,,,,,,,,,,,,,,,,,,,,,,,,,,,,,,,,,,,,,,,,,,,,,,,,,,,,,,,,,,,,,,,,,,,,,,,,,,78.00672642924945,93.80385510256114,89.58611614684412,63.72676193826494,100.61342073743096,100.61342073743096,2.1,2.11,-175,287,0,286,178,-280,100.18311190605164,100.18315529823303,100.18531799316406,100.19806814193726,100.34795928001404,100.34795928001404,100.34795928001404,100.34795928001404,100.34795928001404,100.34795928001404,100.34795928001404,102.01550388336182,3,1.8005483150482178,None,,,,,,,,,,,,,,,,,,183,3,2025-03-04_12h03.48.335,comp,2024.2.4,62.65242226524222,2025-03-04 12h05.36.011457 -0500,
26,26,0,filler_square,None,None,None,None,None,None,None,None,None,None,2,3.6086747646331787,None,,,,,0,0,0,0,0,26,26,172,102.0309886932373,,,,,,,,,,,,,,,,,,,,,,,,,,,,,,,,,,,,,,,,,,,,,,,,,,,,,,,,,,,,,,,,,,,,,,,,,,,,,,,,,82.0510030675675,120.47465687260349,120.56927483661654,120.56927483661654,93.05568632572651,100.24316785370405,2.2,2.22,-217,273,0,-258,206,-269,102.01651167869568,102.0165536403656,102.01910495758057,102.0309886932373,102.1810553073883,102.1810553073883,102.1810553073883,102.1810553073883,102.1810553073883,102.1810553073883,102.1810553073883,105.64884972572327,2,3.6086747646331787,None,,,,,,,,,,,,,,,,,,183,3,2025-03-04_12h03.48.335,comp,2024.2.4,62.65242226524222,2025-03-04 12h05.36.011457 -0500,
27,27,0,filler_random,None,None,None,None,None,None,None,None,None,None,3,2.6487252712249756,None,,,,,0,0,0,0,0,27,27,168,105.66452646255493,,,,,,,,,,,,,,,,,,,,,,,,,,,,,,,,,,,,,,,,,,,,,,,,,,,,,,,,,,,,,,,,,,,,,,,,,,,,,,,,,121.91235432649054,181.94065589224826,113.96950472443406,73.33159749290054,195.54130147735094,178.39433727628764,2.2,2.22,-224,273,0,-265,222,-286,105.64977931976318,105.64982032775879,105.65196132659912,105.66452646255493,105.81450581550598,105.81450581550598,105.81450581550598,105.81450581550598,105.81450581550598,105.81450581550598,105.81450581550598,108.31591272354126,3,2.6487252712249756,None,,,,,,,,,,,,,,,,,,183,3,2025-03-04_12h03.48.335,comp,2024.2.4,62.65242226524222,2025-03-04 12h05.36.011457 -0500,
28,28,0,critical,dwh,20.0,1.0,lower,78.0,78.0,57.0,133.0,133.0,57.0,3,5.003465175628662,None,,,,,0,0,0,0,0,28,28,66,108.33111619949341,,,,,,,,,,,,,,,,,,,,,,,,,,,,,,,,,,,,,,,,,,,,,,,,,,,,,,,,,,,,,,,,,,,,,,,,,,,,,,,,,78.0,78.0,57.0,133.0,133.0,57.0,1.0,1.1,-682,259,-480,274,-289,253,108.31672215461731,108.31676363945007,108.3193871974945,108.33111619949341,108.48106598854065,108.48106598854065,108.48106598854065,108.48106598854065,108.48106598854065,108.48106598854065,108.48106598854065,113.34878993034363,3,5.003465175628662,None,,,,,,,,,,,,,,,,,,183,3,2025-03-04_12h03.48.335,comp,2024.2.4,62.65242226524222,2025-03-04 12h05.36.011457 -0500,
29,29,0,filler_square,None,None,None,None,None,None,None,None,None,None,3,3.0185341835021973,None,,,,,0,0,0,0,0,29,29,188,113.36418318748474,,,,,,,,,,,,,,,,,,,,,,,,,,,,,,,,,,,,,,,,,,,,,,,,,,,,,,,,,,,,,,,,,,,,,,,,,,,,,,,,,127.24002523820955,129.34012209731867,65.64753769991506,105.38464996145552,144.4174223190337,144.4174223190337,3.0,3.2,-213,-269,0,4,221,280,113.34976744651794,113.34980869293213,113.35241484642029,113.36418318748474,113.51441836357117,113.51441836357117,113.51441836357117,113.51441836357117,113.51441836357117,113.51441836357117,113.51441836357117,116.39922881126404,3,3.0185341835021973,None,,,,,,,,,,,,,,,,,,183,3,2025-03-04_12h03.48.335,comp,2024.2.4,62.65242226524222,2025-03-04 12h05.36.011457 -0500,
30,30,0,critical,whd,35.0,4.0,lower,57.0,133.0,133.0,57.0,70.0,70.0,3,3.082711935043335,None,,,,,0,0,0,0,0,30,30,88,116.41420459747314,,,,,,,,,,,,,,,,,,,,,,,,,,,,,,,,,,,,,,,,,,,,,,,,,,,,,,,,,,,,,,,,,,,,,,,,,,,,,,,,,57.0,133.0,133.0,57.0,70.0,70.0,4.0,4.1,-191,-286,0,-5,160,-268,116.39999675750732,116.40003681182861,116.40197324752808,116.41420459747314,116.56427812576294,116.56427812576294,116.56427812576294,116.56427812576294,116.56427812576294,116.56427812576294,116.56427812576294,119.49904036521912,3,3.082711935043335,None,,,,,,,,,,,,,,,,,,183,3,2025-03-04_12h03.48.335,comp,2024.2.4,62.65242226524222,2025-03-04 12h05.36.011457 -0500,
31,31,0,critical,wdh,35.0,2.1,upper,125.0,200.0,127.0,127.0,200.0,125.0,1,3.2928149700164795,None,,,,,0,0,0,0,0,31,31,33,119.51453375816345,,,,,,,,,,,,,,,,,,,,,,,,,,,,,,,,,,,,,,,,,,,,,,,,,,,,,,,,,,,,,,,,,,,,,,,,,,,,,,,,,125.0,200.0,127.0,127.0,200.0,125.0,2.1,2.11,-260,251,0,251,222,-266,119.49983620643616,119.49987697601318,119.5024790763855,119.51453375816345,119.66456031799316,119.66456031799316,119.66456031799316,119.66456031799316,119.66456031799316,119.66456031799316,119.66456031799316,122.81567025184631,1,3.2928149700164795,None,,,,,,,,,,,,,,,,,,183,3,2025-03-04_12h03.48.335,comp,2024.2.4,62.65242226524222,2025-03-04 12h05.36.011457 -0500,
32,32,0,filler_square,None,None,None,None,None,None,None,None,None,None,1,1.183647871017456,None,,,,,0,0,0,0,0,32,32,202,122.83111190795898,,,,,,,,,,,,,,,,,,,,,,,,,,,,,,,,,,,,,,,,,,,,,,,,,,,,,,,,,,,,,,,,,,,,,,,,,,,,,,,,,120.933530178828,120.933530178828,79.84103021693736,67.95022053178916,58.09007407127969,68.36588198121888,2.2,2.22,-190,255,0,-277,164,-279,122.81664943695068,122.81669211387634,122.81929111480713,122.83111190795898,122.98098516464233,122.98098516464233,122.98098516464233,122.98098516464233,122.98098516464233,122.98098516464233,122.98098516464233,124.03194069862366,1,1.183647871017456,None,,,,,,,,,,,,,,,,,,183,3,2025-03-04_12h03.48.335,comp,2024.2.4,62.65242226524222,2025-03-04 12h05.36.011457 -0500,
33,33,0,catch,None,None,None,None,None,None,None,None,None,None,1,1.4811341762542725,None,,,,,0,0,0,0,0,33,33,123,124.04745173454285,,,,,,,,,,,,,,,,,,,,,,,,,,,,,,,,,,,,,,,,,,,,,,,,,,,,,,,,,,,,,,,,,,,,,,,,,,,,,,,,,167,158,93,97,97,93,2.1,2.12,-224,-271,0,-255,191,267,124.03299713134766,124.03303861618042,124.03518390655518,124.04745173454285,124.19761824607849,124.19761824607849,124.19761824607849,124.19761824607849,124.19761824607849,124.19761824607849,124.19761824607849,125.53223299980164,1,1.4811341762542725,None,,,,,,,,,,,,,,,,,,183,3,2025-03-04_12h03.48.335,comp,2024.2.4,62.65242226524222,2025-03-04 12h05.36.011457 -0500,
34,34,0,filler_random,None,None,None,None,None,None,None,None,None,None,1,1.6596062183380127,None,,,,,0,0,0,0,0,34,34,156,125.54771113395691,,,,,,,,,,,,,,,,,,,,,,,,,,,,,,,,,,,,,,,,,,,,,,,,,,,,,,,,,,,,,,,,,,,,,,,,,,,,,,,,,171.05269313470092,142.9574596785497,127.05479627469713,199.3195316055701,88.07666446730781,141.8844970669063,2.1,2.12,-267,-286,0,-270,267,281,125.53315377235413,125.53319525718689,125.53536534309387,125.54771113395691,125.6977813243866,125.6977813243866,125.6977813243866,125.6977813243866,125.6977813243866,125.6977813243866,125.6977813243866,127.21542596817017,1,1.6596062183380127,None,,,,,,,,,,,,,,,,,,183,3,2025-03-04_12h03.48.335,comp,2024.2.4,62.65242226524222,2025-03-04 12h05.36.011457 -0500,
35,35,0,critical,whd,35.0,3.0,upper,125.0,200.0,200.0,125.0,127.0,127.0,2,2.5122978687286377,None,,,,,0,0,0,0,0,35,35,87,127.23090815544128,,,,,,,,,,,,,,,,,,,,,,,,,,,,,,,,,,,,,,,,,,,,,,,,,,,,,,,,,,,,,,,,,,,,,,,,,,,,,,,,,125.0,200.0,200.0,125.0,127.0,127.0,3.0,3.1,-258,251,0,9,222,-250,127.21624565124512,127.21628832817078,127.2187647819519,127.23090815544128,127.38108253479004,127.38108253479004,127.38108253479004,127.38108253479004,127.38108253479004,127.38108253479004,127.38108253479004,129.74892449378967,2,2.5122978687286377,None,,,,,,,,,,,,,,,,,,183,3,2025-03-04_12h03.48.335,comp,2024.2.4,62.65242226524222,2025-03-04 12h05.36.011457 -0500,
36,36,0,filler_square,None,None,None,None,None,None,None,None,None,None,2,1.2749438285827637,None,,,,,0,0,0,0,0,36,36,171,129.76449728012085,,,,,,,,,,,,,,,,,,,,,,,,,,,,,,,,,,,,,,,,,,,,,,,,,,,,,,,,,,,,,,,,,,,,,,,,,,,,,,,,,78.1081898873499,107.00171763562469,196.08591312525033,196.08591312525033,78.6061164810792,90.77255252210611,4.0,4.1,-248,-275,0,-13,239,-254,129.7498984336853,129.74994015693665,129.75257539749146,129.76449728012085,129.91443967819214,129.91443967819214,129.91443967819214,129.91443967819214,129.91443967819214,129.91443967819214,129.91443967819214,131.0487289428711,2,1.2749438285827637,None,,,,,,,,,,,,,,,,,,183,3,2025-03-04_12h03.48.335,comp,2024.2.4,62.65242226524222,2025-03-04 12h05.36.011457 -0500,
37,37,0,critical,dwh,20.0,2.1,lower,78.0,78.0,57.0,133.0,133.0,57.0,2,3.6792070865631104,None,,,,,0,0,0,0,0,37,37,30,131.0642912387848,,,,,,,,,,,,,,,,,,,,,,,,,,,,,,,,,,,,,,,,,,,,,,,,,,,,,,,,,,,,,,,,,,,,,,,,,,,,,,,,,78.0,78.0,57.0,133.0,133.0,57.0,2.1,2.11,-202,266,0,286,191,-255,131.0495195388794,131.04956102371216,131.0521240234375,131.0642912387848,131.21410536766052,131.21410536766052,131.21410536766052,131.21410536766052,131.21410536766052,131.21410536766052,131.21410536766052,134.7486391067505,2,3.6792070865631104,None,,,,,,,,,,,,,,,,,,183,3,2025-03-04_12h03.48.335,comp,2024.2.4,62.65242226524222,2025-03-04 12h05.36.011457 -0500,
38,38,0,critical,dwh,20.0,2.1,upper,141.0,141.0,125.0,200.0,200.0,125.0,1,2.65080189704895,None,,,,,0,0,0,0,0,38,38,31,134.76425862312317,,,,,,,,,,,,,,,,,,,,,,,,,,,,,,,,,,,,,,,,,,,,,,,,,,,,,,,,,,,,,,,,,,,,,,,,,,,,,,,,,141.0,141.0,125.0,200.0,200.0,125.0,2.1,2.12,-266,-257,0,-251,258,257,134.74943232536316,134.7494728565216,134.7515058517456,134.76425862312317,134.91432762145996,134.91432762145996,134.91432762145996,134.91432762145996,134.91432762145996,134.91432762145996,134.91432762145996,137.43254804611206,1,2.65080189704895,None,,,,,,,,,,,,,,,,,,183,3,2025-03-04_12h03.48.335,comp,2024.2.4,62.65242226524222,2025-03-04 12h05.36.011457 -0500,
39,39,0,filler_square,None,None,None,None,None,None,None,None,None,None,3,1.6547825336456299,None,,,,,0,0,0,0,0,39,39,183,137.447416305542,,,,,,,,,,,,,,,,,,,,,,,,,,,,,,,,,,,,,,,,,,,,,,,,,,,,,,,,,,,,,,,,,,,,,,,,,,,,,,,,,68.59311065235282,71.75359058981198,79.97124854672879,75.0562594315478,95.87194752852923,95.87194752852923,4.0,4.2,-169,7,0,-260,181,-13,137.43355560302734,137.43359923362732,137.4357726573944,137.447416305542,137.59747576713562,137.59747576713562,137.59747576713562,137.59747576713562,137.59747576713562,137.59747576713562,137.59747576713562,139.11527562141418,3,1.6547825336456299,None,,,,,,,,,,,,,,,,,,183,3,2025-03-04_12h03.48.335,comp,2024.2.4,62.65242226524222,2025-03-04 12h05.36.011457 -0500,
40,40,0,filler_random,None,None,None,None,None,None,None,None,None,None,2,3.003788471221924,None,,,,,0,0,0,0,0,40,40,167,139.13058185577393,,,,,,,,,,,,,,,,,,,,,,,,,,,,,,,,,,,,,,,,,,,,,,,,,,,,,,,,,,,,,,,,,,,,,,,,,,,,,,,,,121.71784030209088,158.96205523587935,131.9868857942996,192.46868065776246,59.99213822483672,174.27457054353846,2.2,2.21,-272,-287,0,283,279,256,139.11618757247925,139.11622881889343,139.11864614486694,139.13058185577393,139.28108859062195,139.28108859062195,139.28108859062195,139.28108859062195,139.28108859062195,139.28108859062195,139.28108859062195,142.14872980117798,2,3.003788471221924,None,,,,,,,,,,,,,,,,,,183,3,2025-03-04_12h03.48.335,comp,2024.2.4,62.65242226524222,2025-03-04 12h05.36.011457 -0500,
41,41,0,critical,whd,20.0,1.0,lower,57.0,133.0,133.0,57.0,78.0,78.0,3,4.932839632034302,None,,,,,0,0,0,0,0,41,41,90,142.1640055179596,,,,,,,,,,,,,,,,,,,,,,,,,,,,,,,,,,,,,,,,,,,,,,,,,,,,,,,,,,,,,,,,,,,,,,,,,,,,,,,,,57.0,133.0,133.0,57.0,78.0,78.0,1.0,1.3,289,-284,480,-280,644,-267,142.1495442390442,142.1495852470398,142.15212988853455,142.1640055179596,142.31414270401,142.31414270401,142.31414270401,142.31414270401,142.31414270401,142.31414270401,142.31414270401,147.0988278388977,3,4.932839632034302,None,,,,,,,,,,,,,,,,,,183,3,2025-03-04_12h03.48.335,comp,2024.2.4,62.65242226524222,2025-03-04 12h05.36.011457 -0500,
42,42,0,critical,whd,35.0,2.1,lower,57.0,133.0,133.0,57.0,70.0,70.0,2,2.8044259548187256,None,,,,,0,0,0,0,0,42,42,36,147.11437106132507,,,,,,,,,,,,,,,,,,,,,,,,,,,,,,,,,,,,,,,,,,,,,,,,,,,,,,,,,,,,,,,,,,,,,,,,,,,,,,,,,57.0,133.0,133.0,57.0,70.0,70.0,2.1,2.11,-191,265,0,278,160,-277,147.0996470451355,147.0997176170349,147.10231828689575,147.11437106132507,147.2640974521637,147.2640974521637,147.2640974521637,147.2640974521637,147.2640974521637,147.2640974521637,147.2640974521637,149.93198990821838,2,2.8044259548187256,None,,,,,,,,,,,,,,,,,,183,3,2025-03-04_12h03.48.335,comp,2024.2.4,62.65242226524222,2025-03-04 12h05.36.011457 -0500,
43,43,0,critical,dwh,35.0,1.0,lower,70.0,70.0,57.0,133.0,133.0,57.0,2,3.7807044982910156,None,,,,,0,0,0,0,0,43,43,60,149.9473488330841,,,,,,,,,,,,,,,,,,,,,,,,,,,,,,,,,,,,,,,,,,,,,,,,,,,,,,,,,,,,,,,,,,,,,,,,,,,,,,,,,70.0,70.0,57.0,133.0,133.0,57.0,1.0,1.3,282,-265,480,-259,671,-251,149.93280816078186,149.93285059928894,149.93640518188477,149.9473488330841,150.09741020202637,150.09741020202637,150.09741020202637,150.09741020202637,150.09741020202637,150.09741020202637,150.09741020202637,153.7319107055664,2,3.7807044982910156,None,,,,,,,,,,,,,,,,,,183,3,2025-03-04_12h03.48.335,comp,2024.2.4,62.65242226524222,2025-03-04 12h05.36.011457 -0500,
44,44,0,critical,dhw,20.0,4.0,lower,78.0,78.0,133.0,57.0,57.0,133.0,3,1.6114709377288818,None,,,,,0,0,0,0,0,44,44,58,153.74750995635986,,,,,,,,,,,,,,,,,,,,,,,,,,,,,,,,,,,,,,,,,,,,,,,,,,,,,,,,,,,,,,,,,,,,,,,,,,,,,,,,,78.0,78.0,133.0,57.0,57.0,133.0,4.0,4.2,-164,9,0,-272,191,-16,153.73269176483154,153.73273253440857,153.73532271385193,153.74750995635986,153.8973352909088,153.8973352909088,153.8973352909088,153.8973352909088,153.8973352909088,153.8973352909088,153.8973352909088,155.36517310142517,3,1.6114709377288818,None,,,,,,,,,,,,,,,,,,183,3,2025-03-04_12h03.48.335,comp,2024.2.4,62.65242226524222,2025-03-04 12h05.36.011457 -0500,
45,45,0,critical,hwd,35.0,2.1,upper,200.0,125.0,125.0,200.0,127.0,127.0,2,2.0906739234924316,None,,,,,0,0,0,0,0,45,45,17,155.3808205127716,,,,,,,,,,,,,,,,,,,,,,,,,,,,,,,,,,,,,,,,,,,,,,,,,,,,,,,,,,,,,,,,,,,,,,,,,,,,,,,,,200.0,125.0,125.0,200.0,127.0,127.0,2.1,2.12,-258,-252,0,-279,260,287,155.36594700813293,155.36598706245422,155.36835098266602,155.3808205127716,155.5308575630188,155.5308575630188,155.5308575630188,155.5308575630188,155.5308575630188,155.5308575630188,155.5308575630188,157.48193883895874,2,2.0906739234924316,None,,,,,,,,,,,,,,,,,,183,3,2025-03-04_12h03.48.335,comp,2024.2.4,62.65242226524222,2025-03-04 12h05.36.011457 -0500,
46,46,0,critical,whd,35.0,2.1,lower,57.0,133.0,133.0,57.0,70.0,70.0,2,2.284728527069092,None,,,,,0,0,0,0,0,46,46,12,157.49752759933472,,,,,,,,,,,,,,,,,,,,,,,,,,,,,,,,,,,,,,,,,,,,,,,,,,,,,,,,,,,,,,,,,,,,,,,,,,,,,,,,,57.0,133.0,133.0,57.0,70.0,70.0,2.1,2.11,-191,285,0,255,160,-270,157.48274517059326,157.4827868938446,157.4849238395691,157.49752759933472,157.647358417511,157.647358417511,157.647358417511,157.647358417511,157.647358417511,157.647358417511,157.647358417511,159.7984082698822,2,2.284728527069092,None,,,,,,,,,,,,,,,,,,183,3,2025-03-04_12h03.48.335,comp,2024.2.4,62.65242226524222,2025-03-04 12h05.36.011457 -0500,
47,47,0,filler_square,None,None,None,None,None,None,None,None,None,None,3,2.145190715789795,None,,,,,0,0,0,0,0,47,47,203,159.8138644695282,,,,,,,,,,,,,,,,,,,,,,,,,,,,,,,,,,,,,,,,,,,,,,,,,,,,,,,,,,,,,,,,,,,,,,,,,,,,,,,,,64.95453696646223,60.38179376416915,69.19063722841874,64.45069710300244,69.32341877276465,69.32341877276465,3.0,3.1,-158,253,0,-7,163,-252,159.79936146736145,159.79940271377563,159.80188751220703,159.8138644695282,159.96390318870544,159.96390318870544,159.96390318870544,159.96390318870544,159.96390318870544,159.96390318870544,159.96390318870544,161.96518898010254,3,2.145190715789795,None,,,,,,,,,,,,,,,,,,183,3,2025-03-04_12h03.48.335,comp,2024.2.4,62.65242226524222,2025-03-04 12h05.36.011457 -0500,
48,48,0,filler_square,None,None,None,None,None,None,None,None,None,None,2,4.089311599731445,None,,,,,0,0,0,0,0,48,48,208,161.98077011108398,,,,,,,,,,,,,,,,,,,,,,,,,,,,,,,,,,,,,,,,,,,,,,,,,,,,,,,,,,,,,,,,,,,,,,,,,,,,,,,,,61.39651684722778,59.352815597567854,61.4330688980669,61.4330688980669,57.07683998842636,57.302778197634936,2.2,2.22,-156,250,0,-264,155,-271,161.96614241600037,161.9661829471588,161.9685881137848,161.98077011108398,162.13060092926025,162.13060092926025,162.13060092926025,162.13060092926025,162.13060092926025,162.13060092926025,162.13060092926025,166.08154726028442,2,4.089311599731445,None,,,,,,,,,,,,,,,,,,183,3,2025-03-04_12h03.48.335,comp,2024.2.4,62.65242226524222,2025-03-04 12h05.36.011457 -0500,
49,49,0,critical,dhw,20.0,2.1,lower,78.0,78.0,133.0,57.0,57.0,133.0,1,7.125843286514282,None,,,,,0,0,0,0,0,49,49,2,166.09731793403625,,,,,,,,,,,,,,,,,,,,,,,,,,,,,,,,,,,,,,,,,,,,,,,,,,,,,,,,,,,,,,,,,,,,,,,,,,,,,,,,,78.0,78.0,133.0,57.0,57.0,133.0,2.1,2.11,-164,278,0,274,191,-273,166.08234071731567,166.08238291740417,166.08486008644104,166.09731793403625,166.24727272987366,166.24727272987366,166.24727272987366,166.24727272987366,166.24727272987366,166.24727272987366,166.24727272987366,173.23196816444397,1,7.125843286514282,None,,,,,,,,,,,,,,,,,,183,3,2025-03-04_12h03.48.335,comp,2024.2.4,62.65242226524222,2025-03-04 12h05.36.011457 -0500,
50,50,0,filler_random,None,None,None,None,None,None,None,None,None,None,1,1.271092414855957,None,,,,,0,0,0,0,0,50,50,148,173.24741458892822,,,,,,,,,,,,,,,,,,,,,,,,,,,,,,,,,,,,,,,,,,,,,,,,,,,,,,,,,,,,,,,,,,,,,,,,,,,,,,,,,157.85157241636284,180.85771300858784,171.0596076027365,59.81740738286413,74.21220514980175,123.07843776767773,3.0,3.1,-216,265,0,-8,187,-252,173.23290538787842,173.23294615745544,173.23512506484985,173.24741458892822,173.39728331565857,173.39728331565857,173.39728331565857,173.39728331565857,173.39728331565857,173.39728331565857,173.39728331565857,174.53181529045105,1,1.271092414855957,None,,,,,,,,,,,,,,,,,,183,3,2025-03-04_12h03.48.335,comp,2024.2.4,62.65242226524222,2025-03-04 12h05.36.011457 -0500,
51,51,0,critical,dhw,35.0,4.0,upper,127.0,127.0,200.0,125.0,125.0,200.0,3,5.011768817901611,None,,,,,0,0,0,0,0,51,51,53,174.54706931114197,,,,,,,,,,,,,,,,,,,,,,,,,,,,,,,,,,,,,,,,,,,,,,,,,,,,,,,,,,,,,,,,,,,,,,,,,,,,,,,,,127.0,127.0,200.0,125.0,125.0,200.0,4.0,4.2,-222,18,0,-254,258,-19,174.53266716003418,174.53270959854126,174.5354039669037,174.54706931114197,174.6973204612732,174.6973204612732,174.6973204612732,174.6973204612732,174.6973204612732,174.6973204612732,174.6973204612732,179.56514525413513,3,5.011768817901611,None,,,,,,,,,,,,,,,,,,183,3,2025-03-04_12h03.48.335,comp,2024.2.4,62.65242226524222,2025-03-04 12h05.36.011457 -0500,
52,52,0,critical,dhw,20.0,1.0,upper,141.0,141.0,200.0,125.0,125.0,200.0,3,5.083968639373779,None,,,,,0,0,0,0,0,52,52,55,179.58060121536255,,,,,,,,,,,,,,,,,,,,,,,,,,,,,,,,,,,,,,,,,,,,,,,,,,,,,,,,,,,,,,,,,,,,,,,,,,,,,,,,,141.0,141.0,200.0,125.0,125.0,200.0,1.0,1.2,-229,12,0,18,258,-13,179.56594228744507,179.56598615646362,179.56842184066772,179.58060121536255,179.7306787967682,179.7306787967682,179.7306787967682,179.7306787967682,179.7306787967682,179.7306787967682,179.7306787967682,184.68173956871033,3,5.083968639373779,None,,,,,,,,,,,,,,,,,,183,3,2025-03-04_12h03.48.335,comp,2024.2.4,62.65242226524222,2025-03-04 12h05.36.011457 -0500,
53,53,0,critical,hwd,20.0,2.1,upper,200.0,125.0,125.0,200.0,141.0,141.0,2,5.037143230438232,None,,,,,0,0,0,0,0,53,53,19,184.6969757080078,,,,,,,,,,,,,,,,,,,,,,,,,,,,,,,,,,,,,,,,,,,,,,,,,,,,,,,,,,,,,,,,,,,,,,,,,,,,,,,,,200.0,125.0,125.0,200.0,141.0,141.0,2.1,2.11,-258,265,0,268,266,-275,184.68255472183228,184.6825976371765,184.6851577758789,184.6969757080078,184.84740328788757,184.84740328788757,184.84740328788757,184.84740328788757,184.84740328788757,184.84740328788757,184.84740328788757,189.74858713150024,2,5.037143230438232,None,,,,,,,,,,,,,,,,,,183,3,2025-03-04_12h03.48.335,comp,2024.2.4,62.65242226524222,2025-03-04 12h05.36.011457 -0500,
54,54,0,critical,hwd,20.0,2.1,lower,133.0,57.0,57.0,133.0,78.0,78.0,1,3.45072865486145,None,,,,,0,0,0,0,0,54,54,42,189.76359057426453,,,,,,,,,,,,,,,,,,,,,,,,,,,,,,,,,,,,,,,,,,,,,,,,,,,,,,,,,,,,,,,,,,,,,,,,,,,,,,,,,133.0,57.0,57.0,133.0,78.0,78.0,2.1,2.12,-191,-268,0,-270,202,265,189.74936866760254,189.7494101524353,189.7518401145935,189.76359057426453,189.91376781463623,189.91376781463623,189.91376781463623,189.91376781463623,189.91376781463623,189.91376781463623,189.91376781463623,193.23148941993713,1,3.45072865486145,None,,,,,,,,,,,,,,,,,,183,3,2025-03-04_12h03.48.335,comp,2024.2.4,62.65242226524222,2025-03-04 12h05.36.011457 -0500,
55,55,0,filler_square,None,None,None,None,None,None,None,None,None,None,2,1.327796220779419,None,,,,,0,0,0,0,0,55,55,201,193.24697041511536,,,,,,,,,,,,,,,,,,,,,,,,,,,,,,,,,,,,,,,,,,,,,,,,,,,,,,,,,,,,,,,,,,,,,,,,,,,,,,,,,164.65896322174035,103.75926387829622,175.02314449777955,175.02314449777955,141.63485211302157,58.1194310407109,1.0,1.1,-715,279,-480,256,-267,257,193.23245549201965,193.23249697685242,193.2349817752838,193.24697041511536,193.39727330207825,193.39727330207825,193.39727330207825,193.39727330207825,193.39727330207825,193.39727330207825,193.39727330207825,194.58170914649963,2,1.327796220779419,None,,,,,,,,,,,,,,,,,,183,3,2025-03-04_12h03.48.335,comp,2024.2.4,62.65242226524222,2025-03-04 12h05.36.011457 -0500,
56,56,0,critical,whd,35.0,2.1,upper,125.0,200.0,200.0,125.0,127.0,127.0,2,1.184727668762207,None,,,,,0,0,0,0,0,56,56,37,194.59719562530518,,,,,,,,,,,,,,,,,,,,,,,,,,,,,,,,,,,,,,,,,,,,,,,,,,,,,,,,,,,,,,,,,,,,,,,,,,,,,,,,,125.0,200.0,200.0,125.0,127.0,127.0,2.1,2.11,-258,258,0,266,222,-279,194.58251810073853,194.58256077766418,194.58503007888794,194.59719562530518,194.74730777740479,194.74730777740479,194.74730777740479,194.74730777740479,194.74730777740479,194.74730777740479,194.74730777740479,195.79826641082764,2,1.184727668762207,None,,,,,,,,,,,,,,,,,,183,3,2025-03-04_12h03.48.335,comp,2024.2.4,62.65242226524222,2025-03-04 12h05.36.011457 -0500,
57,57,0,filler_square,None,None,None,None,None,None,None,None,None,None,2,1.536543846130371,None,,,,,0,0,0,0,0,57,57,205,195.813551902771,,,,,,,,,,,,,,,,,,,,,,,,,,,,,,,,,,,,,,,,,,,,,,,,,,,,,,,,,,,,,,,,,,,,,,,,,,,,,,,,,78.92264993439224,146.83747589403725,147.18083224234306,147.18083224234306,77.4365542159628,109.61504873383691,2.1,2.11,-243,254,0,273,224,-254,195.79925203323364,195.79929566383362,195.80172634124756,195.813551902771,195.96379470825195,195.96379470825195,195.96379470825195,195.96379470825195,195.96379470825195,195.96379470825195,195.96379470825195,197.36497235298157,2,1.536543846130371,None,,,,,,,,,,,,,,,,,,183,3,2025-03-04_12h03.48.335,comp,2024.2.4,62.65242226524222,2025-03-04 12h05.36.011457 -0500,
58,58,0,filler_random,None,None,None,None,None,None,None,None,None,None,2,2.5624473094940186,None,,,,,0,0,0,0,0,58,58,159,197.3802614212036,,,,,,,,,,,,,,,,,,,,,,,,,,,,,,,,,,,,,,,,,,,,,,,,,,,,,,,,,,,,,,,,,,,,,,,,,,,,,,,,,73.51013210281377,103.79734717026905,117.29731320940267,106.36301614281186,128.42186695923954,67.14675290163484,1.0,1.2,-201,9,0,14,183,-17,197.36597228050232,197.36601448059082,197.36821103096008,197.3802614212036,197.5303773880005,197.5303773880005,197.5303773880005,197.5303773880005,197.5303773880005,197.5303773880005,197.5303773880005,199.94825887680054,2,2.5624473094940186,None,,,,,,,,,,,,,,,,,,183,3,2025-03-04_12h03.48.335,comp,2024.2.4,62.65242226524222,2025-03-04 12h05.36.011457 -0500,
59,59,0,critical,whd,20.0,2.1,lower,57.0,133.0,133.0,57.0,78.0,78.0,1,4.042917966842651,None,,,,,0,0,0,0,0,59,59,38,199.96387720108032,,,,,,,,,,,,,,,,,,,,,,,,,,,,,,,,,,,,,,,,,,,,,,,,,,,,,,,,,,,,,,,,,,,,,,,,,,,,,,,,,57.0,133.0,133.0,57.0,78.0,78.0,2.1,2.12,-191,-286,0,-262,164,263,199.94902777671814,199.94907975196838,199.95151329040527,199.96387720108032,200.11369514465332,200.11369514465332,200.11369514465332,200.11369514465332,200.11369514465332,200.11369514465332,200.11369514465332,204.01485538482666,1,4.042917966842651,None,,,,,,,,,,,,,,,,,,183,3,2025-03-04_12h03.48.335,comp,2024.2.4,62.65242226524222,2025-03-04 12h05.36.011457 -0500,
60,60,0,filler_square,None,None,None,None,None,None,None,None,None,None,3,2.1723203659057617,None,,,,,0,0,0,0,0,60,60,181,204.03043246269226,,,,,,,,,,,,,,,,,,,,,,,,,,,,,,,,,,,,,,,,,,,,,,,,,,,,,,,,,,,,,,,,,,,,,,,,,,,,,,,,,148.6364443685655,80.63422220387744,109.00855085434804,131.30214322199294,149.62680926291432,149.62680926291432,1.0,1.2,-202,6,0,18,236,-4,204.01580238342285,204.0158450603485,204.01855158805847,204.03043246269226,204.18042254447937,204.18042254447937,204.18042254447937,204.18042254447937,204.18042254447937,204.18042254447937,204.18042254447937,206.21248054504395,3,2.1723203659057617,None,,,,,,,,,,,,,,,,,,183,3,2025-03-04_12h03.48.335,comp,2024.2.4,62.65242226524222,2025-03-04 12h05.36.011457 -0500,
61,61,0,critical,dwh,20.0,4.0,lower,78.0,78.0,57.0,133.0,133.0,57.0,3,4.911708354949951,None,,,,,0,0,0,0,0,61,61,70,206.23111414909363,,,,,,,,,,,,,,,,,,,,,,,,,,,,,,,,,,,,,,,,,,,,,,,,,,,,,,,,,,,,,,,,,,,,,,,,,,,,,,,,,78.0,78.0,57.0,133.0,133.0,57.0,4.0,4.1,-202,-267,0,-17,191,-268,206.21329045295715,206.21333193778992,206.21849656105042,206.23111414909363,206.36441922187805,206.36441922187805,206.36441922187805,206.36441922187805,206.36441922187805,206.36441922187805,206.36441922187805,211.14811897277832,3,4.911708354949951,None,,,,,,,,,,,,,,,,,,183,3,2025-03-04_12h03.48.335,comp,2024.2.4,62.65242226524222,2025-03-04 12h05.36.011457 -0500,
62,62,0,critical,wdh,20.0,1.0,lower,57.0,133.0,78.0,78.0,133.0,57.0,1,2.186269760131836,None,,,,,0,0,0,0,0,62,62,78,211.16378355026245,,,,,,,,,,,,,,,,,,,,,,,,,,,,,,,,,,,,,,,,,,,,,,,,,,,,,,,,,,,,,,,,,,,,,,,,,,,,,,,,,57.0,133.0,78.0,78.0,133.0,57.0,1.0,1.1,-682,251,-480,284,-316,272,211.14890313148499,211.1489453315735,211.15108680725098,211.16378355026245,211.31359720230103,211.31359720230103,211.31359720230103,211.31359720230103,211.31359720230103,211.31359720230103,211.31359720230103,213.36485743522644,1,2.186269760131836,None,,,,,,,,,,,,,,,,,,183,3,2025-03-04_12h03.48.335,comp,2024.2.4,62.65242226524222,2025-03-04 12h05.36.011457 -0500,
63,63,0,critical,hdw,35.0,2.1,lower,133.0,57.0,70.0,70.0,57.0,133.0,1,2.3698761463165283,None,,,,,0,0,0,0,0,63,63,44,213.38016438484192,,,,,,,,,,,,,,,,,,,,,,,,,,,,,,,,,,,,,,,,,,,,,,,,,,,,,,,,,,,,,,,,,,,,,,,,,,,,,,,,,133.0,57.0,70.0,70.0,57.0,133.0,2.1,2.12,-160,-289,0,-271,198,268,213.36568403244019,213.3657250404358,213.36852407455444,213.38016438484192,213.53028225898743,213.53028225898743,213.53028225898743,213.53028225898743,213.53028225898743,213.53028225898743,213.53028225898743,215.76469564437866,1,2.3698761463165283,None,,,,,,,,,,,,,,,,,,183,3,2025-03-04_12h03.48.335,comp,2024.2.4,62.65242226524222,2025-03-04 12h05.36.011457 -0500,
64,64,0,critical,hdw,20.0,3.0,lower,133.0,57.0,78.0,78.0,57.0,133.0,1,1.8425519466400146,None,,,,,0,0,0,0,0,64,64,116,215.78011655807495,,,,,,,,,,,,,,,,,,,,,,,,,,,,,,,,,,,,,,,,,,,,,,,,,,,,,,,,,,,,,,,,,,,,,,,,,,,,,,,,,133.0,57.0,78.0,78.0,57.0,133.0,3.0,3.2,-164,-276,0,-4,202,261,215.76547384262085,215.76551508903503,215.76808094978333,215.78011655807495,215.93021154403687,215.93021154403687,215.93021154403687,215.93021154403687,215.93021154403687,215.93021154403687,215.93021154403687,217.63131856918335,1,1.8425519466400146,None,,,,,,,,,,,,,,,,,,183,3,2025-03-04_12h03.48.335,comp,2024.2.4,62.65242226524222,2025-03-04 12h05.36.011457 -0500,
65,65,0,critical,wdh,20.0,2.1,lower,57.0,133.0,78.0,78.0,133.0,57.0,3,5.807697534561157,None,,,,,0,0,0,0,0,65,65,34,217.6471347808838,,,,,,,,,,,,,,,,,,,,,,,,,,,,,,,,,,,,,,,,,,,,,,,,,,,,,,,,,,,,,,,,,,,,,,,,,,,,,,,,,57.0,133.0,78.0,78.0,133.0,57.0,2.1,2.12,-202,-272,0,-251,164,285,217.6321244239807,217.6321666240692,217.63551354408264,217.6471347808838,217.79700016975403,217.79700016975403,217.79700016975403,217.79700016975403,217.79700016975403,217.79700016975403,217.79700016975403,223.46467065811157,3,5.807697534561157,None,,,,,,,,,,,,,,,,,,183,3,2025-03-04_12h03.48.335,comp,2024.2.4,62.65242226524222,2025-03-04 12h05.36.011457 -0500,
66,66,0,critical,wdh,20.0,2.1,upper,125.0,200.0,141.0,141.0,200.0,125.0,3,6.605252504348755,None,,,,,0,0,0,0,0,66,66,35,223.48040747642517,,,,,,,,,,,,,,,,,,,,,,,,,,,,,,,,,,,,,,,,,,,,,,,,,,,,,,,,,,,,,,,,,,,,,,,,,,,,,,,,,125.0,200.0,141.0,141.0,200.0,125.0,2.1,2.11,-266,271,0,259,229,-255,223.46547937393188,223.46552300453186,223.46802806854248,223.48040747642517,223.63044118881226,223.63044118881226,223.63044118881226,223.63044118881226,223.63044118881226,223.63044118881226,223.63044118881226,230.09834361076355,3,6.605252504348755,None,,,,,,,,,,,,,,,,,,183,3,2025-03-04_12h03.48.335,comp,2024.2.4,62.65242226524222,2025-03-04 12h05.36.011457 -0500,
67,67,0,critical,dwh,35.0,2.1,lower,70.0,70.0,57.0,133.0,133.0,57.0,2,3.9336280822753906,None,,,,,0,0,0,0,0,67,67,28,230.11341381072998,,,,,,,,,,,,,,,,,,,,,,,,,,,,,,,,,,,,,,,,,,,,,,,,,,,,,,,,,,,,,,,,,,,,,,,,,,,,,,,,,70.0,70.0,57.0,133.0,133.0,57.0,2.1,2.12,-198,-282,0,-285,191,275,230.09911704063416,230.09915685653687,230.10130286216736,230.11341381072998,230.26355051994324,230.26355051994324,230.26355051994324,230.26355051994324,230.26355051994324,230.26355051994324,230.26355051994324,234.0646197795868,2,3.9336280822753906,None,,,,,,,,,,,,,,,,,,183,3,2025-03-04_12h03.48.335,comp,2024.2.4,62.65242226524222,2025-03-04 12h05.36.011457 -0500,
68,68,0,filler_square,None,None,None,None,None,None,None,None,None,None,3,0.9264330863952637,None,,,,,0,0,0,0,0,68,68,197,234.0800759792328,,,,,,,,,,,,,,,,,,,,,,,,,,,,,,,,,,,,,,,,,,,,,,,,,,,,,,,,,,,,,,,,,,,,,,,,,,,,,,,,,85.90792292330303,85.41423938436252,63.492402650399434,93.33761464360352,108.13270628714217,108.13270628714217,1.0,1.2,-185,-11,0,15,197,17,234.06557655334473,234.06561851501465,234.06816911697388,234.0800759792328,234.2305302619934,234.2305302619934,234.2305302619934,234.2305302619934,234.2305302619934,234.2305302619934,234.2305302619934,235.01454663276672,3,0.9264330863952637,None,,,,,,,,,,,,,,,,,,183,3,2025-03-04_12h03.48.335,comp,2024.2.4,62.65242226524222,2025-03-04 12h05.36.011457 -0500,
69,69,0,catch,None,None,None,None,None,None,None,None,None,None,1,0.9199223518371582,None,,,,,0,0,0,0,0,69,69,129,235.03030347824097,,,,,,,,,,,,,,,,,,,,,,,,,,,,,,,,,,,,,,,,,,,,,,,,,,,,,,,,,,,,,,,,,,,,,,,,,,,,,,,,,136,189,109,81,128,62,4.0,4.1,-231,-260,0,6,168,-286,235.0156397819519,235.0156831741333,235.01785230636597,235.03030347824097,235.18026852607727,235.18026852607727,235.18026852607727,235.18026852607727,235.18026852607727,235.18026852607727,235.18026852607727,235.96468710899353,1,0.9199223518371582,None,,,,,,,,,,,,,,,,,,183,3,2025-03-04_12h03.48.335,comp,2024.2.4,62.65242226524222,2025-03-04 12h05.36.011457 -0500,
70,70,0,critical,hwd,35.0,2.1,lower,133.0,57.0,57.0,133.0,70.0,70.0,2,2.9697916507720947,None,,,,,0,0,0,0,0,70,70,16,235.98007369041443,,,,,,,,,,,,,,,,,,,,,,,,,,,,,,,,,,,,,,,,,,,,,,,,,,,,,,,,,,,,,,,,,,,,,,,,,,,,,,,,,133.0,57.0,57.0,133.0,70.0,70.0,2.1,2.12,-191,-285,0,-283,198,288,235.9655737876892,235.9656138420105,235.96822309494019,235.98007369041443,236.13010549545288,236.13010549545288,236.13010549545288,236.13010549545288,236.13010549545288,236.13010549545288,236.13010549545288,238.96454668045044,2,2.9697916507720947,None,,,,,,,,,,,,,,,,,,183,3,2025-03-04_12h03.48.335,comp,2024.2.4,62.65242226524222,2025-03-04 12h05.36.011457 -0500,
71,71,0,filler_random,None,None,None,None,None,None,None,None,None,None,1,0.8587832450866699,None,,,,,0,0,0,0,0,71,71,151,238.97987294197083,,,,,,,,,,,,,,,,,,,,,,,,,,,,,,,,,,,,,,,,,,,,,,,,,,,,,,,,,,,,,,,,,,,,,,,,,,,,,,,,,189.36199301413959,125.84375147870571,60.156362626213436,177.8584657123036,71.53194866517158,58.94558837208622,3.0,3.1,-248,272,0,-2,214,-272,238.96547651290894,238.9655179977417,238.96805500984192,238.97987294197083,239.13011002540588,239.13011002540588,239.13011002540588,239.13011002540588,239.13011002540588,239.13011002540588,239.13011002540588,239.84797501564026,1,0.8587832450866699,None,,,,,,,,,,,,,,,,,,183,3,2025-03-04_12h03.48.335,comp,2024.2.4,62.65242226524222,2025-03-04 12h05.36.011457 -0500,
72,72,0,filler_random,None,None,None,None,None,None,None,None,None,None,3,1.0701515674591064,None,,,,,0,0,0,0,0,72,72,135,239.86358952522278,,,,,,,,,,,,,,,,,,,,,,,,,,,,,,,,,,,,,,,,,,,,,,,,,,,,,,,,,,,,,,,,,,,,,,,,,,,,,,,,,104.7132129377004,189.4361453232275,198.40239842872904,79.36302211461205,139.30683594144773,181.65599187494394,4.0,4.1,-230,-269,0,-19,227,-261,239.8489911556244,239.8490343093872,239.85122847557068,239.86358952522278,240.01362943649292,240.01362943649292,240.01362943649292,240.01362943649292,240.01362943649292,240.01362943649292,240.01362943649292,240.9480335712433,3,1.0701515674591064,None,,,,,,,,,,,,,,,,,,183,3,2025-03-04_12h03.48.335,comp,2024.2.4,62.65242226524222,2025-03-04 12h05.36.011457 -0500,
73,73,0,critical,wdh,20.0,4.0,lower,57.0,133.0,78.0,78.0,133.0,57.0,2,4.002329349517822,None,,,,,0,0,0,0,0,73,73,82,240.96329140663147,,,,,,,,,,,,,,,,,,,,,,,,,,,,,,,,,,,,,,,,,,,,,,,,,,,,,,,,,,,,,,,,,,,,,,,,,,,,,,,,,57.0,133.0,78.0,78.0,133.0,57.0,4.0,4.1,-202,-256,0,-3,164,-289,240.9488170146942,240.94885849952698,240.95096945762634,240.96329140663147,241.11342525482178,241.11342525482178,241.11342525482178,241.11342525482178,241.11342525482178,241.11342525482178,241.11342525482178,244.98122000694275,2,4.002329349517822,None,,,,,,,,,,,,,,,,,,183,3,2025-03-04_12h03.48.335,comp,2024.2.4,62.65242226524222,2025-03-04 12h05.36.011457 -0500,
74,74,0,filler_random,None,None,None,None,None,None,None,None,None,None,3,2.9214372634887695,None,,,,,0,0,0,0,0,74,74,150,244.9966561794281,,,,,,,,,,,,,,,,,,,,,,,,,,,,,,,,,,,,,,,,,,,,,,,,,,,,,,,,,,,,,,,,,,,,,,,,,,,,,,,,,60.068619555416014,116.84194907095409,89.27554357626774,74.69715251452061,102.08601816992203,99.99806365395386,3.0,3.2,-192,-254,0,-17,183,252,244.98213934898376,244.9821801185608,244.98457288742065,244.9966561794281,245.1467752456665,245.1467752456665,245.1467752456665,245.1467752456665,245.1467752456665,245.1467752456665,245.1467752456665,247.93118691444397,3,2.9214372634887695,None,,,,,,,,,,,,,,,,,,183,3,2025-03-04_12h03.48.335,comp,2024.2.4,62.65242226524222,2025-03-04 12h05.36.011457 -0500,
75,75,0,filler_square,None,None,None,None,None,None,None,None,None,None,2,0.9958324432373047,None,,,,,0,0,0,0,0,75,75,192,247.94659090042114,,,,,,,,,,,,,,,,,,,,,,,,,,,,,,,,,,,,,,,,,,,,,,,,,,,,,,,,,,,,,,,,,,,,,,,,,,,,,,,,,74.32059304748779,77.75771632346562,157.83941093232227,157.83941093232227,74.10508780397895,96.95175569347188,2.1,2.11,-214,266,0,276,223,-284,247.93217515945435,247.93221879005432,247.93464374542236,247.94659090042114,248.09678101539612,248.09678101539612,248.09678101539612,248.09678101539612,248.09678101539612,248.09678101539612,248.09678101539612,248.9480164051056,2,0.9958324432373047,None,,,,,,,,,,,,,,,,,,183,3,2025-03-04_12h03.48.335,comp,2024.2.4,62.65242226524222,2025-03-04 12h05.36.011457 -0500,
76,76,0,filler_random,None,None,None,None,None,None,None,None,None,None,3,1.6914258003234863,None,,,,,0,0,0,0,0,76,76,142,248.96354579925537,,,,,,,,,,,,,,,,,,,,,,,,,,,,,,,,,,,,,,,,,,,,,,,,,,,,,,,,,,,,,,,,,,,,,,,,,,,,,,,,,113.966581369725,60.92518127422895,133.08378594599142,102.78788906935162,148.8606192901923,115.13329630425162,4.0,4.2,-178,8,0,-272,205,19,248.94894075393677,248.94898295402527,248.95137286186218,248.96354579925537,249.1134934425354,249.1134934425354,249.1134934425354,249.1134934425354,249.1134934425354,249.1134934425354,249.1134934425354,250.66459894180298,3,1.6914258003234863,None,,,,,,,,,,,,,,,,,,183,3,2025-03-04_12h03.48.335,comp,2024.2.4,62.65242226524222,2025-03-04 12h05.36.011457 -0500,
77,77,0,critical,hwd,35.0,4.0,upper,200.0,125.0,125.0,200.0,127.0,127.0,2,3.6053061485290527,None,,,,,0,0,0,0,0,77,77,101,250.6801359653473,,,,,,,,,,,,,,,,,,,,,,,,,,,,,,,,,,,,,,,,,,,,,,,,,,,,,,,,,,,,,,,,,,,,,,,,,,,,,,,,,200.0,125.0,125.0,200.0,127.0,127.0,4.0,4.1,-258,-280,0,-12,260,-283,250.66546368598938,250.6655056476593,250.66831374168396,250.6801359653473,250.84693026542664,250.84693026542664,250.84693026542664,250.84693026542664,250.84693026542664,250.84693026542664,250.84693026542664,254.29802107810974,2,3.6053061485290527,None,,,,,,,,,,,,,,,,,,183,3,2025-03-04_12h03.48.335,comp,2024.2.4,62.65242226524222,2025-03-04 12h05.36.011457 -0500,
78,78,0,filler_random,None,None,None,None,None,None,None,None,None,None,3,0.9986095428466797,None,,,,,0,0,0,0,0,78,78,152,254.3133420944214,,,,,,,,,,,,,,,,,,,,,,,,,,,,,,,,,,,,,,,,,,,,,,,,,,,,,,,,,,,,,,,,,,,,,,,,,,,,,,,,,132.62132488554604,70.99346484622677,104.61006911093858,68.51990439134349,193.35449408433183,80.86072339938825,2.2,2.21,-166,-259,0,257,171,266,254.29894995689392,254.29899168014526,254.3011393547058,254.3133420944214,254.46342945098877,254.46342945098877,254.46342945098877,254.46342945098877,254.46342945098877,254.46342945098877,254.46342945098877,255.3149073123932,3,0.9986095428466797,None,,,,,,,,,,,,,,,,,,183,3,2025-03-04_12h03.48.335,comp,2024.2.4,62.65242226524222,2025-03-04 12h05.36.011457 -0500,
79,79,0,filler_random,None,None,None,None,None,None,None,None,None,None,2,1.4836769104003906,None,,,,,0,0,0,0,0,79,79,144,255.33027744293213,,,,,,,,,,,,,,,,,,,,,,,,,,,,,,,,,,,,,,,,,,,,,,,,,,,,,,,,,,,,,,,,,,,,,,,,,,,,,,,,,128.5290047479425,99.13069163195203,194.7533226615268,119.55003876280554,170.55197821292208,154.67284792009374,2.2,2.21,-205,-251,0,277,233,268,255.31583666801453,255.31587886810303,255.31817054748535,255.33027744293213,255.48022723197937,255.48022723197937,255.48022723197937,255.48022723197937,255.48022723197937,255.48022723197937,255.48022723197937,256.81514143943787,2,1.4836769104003906,None,,,,,,,,,,,,,,,,,,183,3,2025-03-04_12h03.48.335,comp,2024.2.4,62.65242226524222,2025-03-04 12h05.36.011457 -0500,
80,80,0,critical,dhw,20.0,3.0,upper,141.0,141.0,200.0,125.0,125.0,200.0,1,4.42525577545166,None,,,,,0,0,0,0,0,80,80,57,256.83016633987427,,,,,,,,,,,,,,,,,,,,,,,,,,,,,,,,,,,,,,,,,,,,,,,,,,,,,,,,,,,,,,,,,,,,,,,,,,,,,,,,,141.0,141.0,200.0,125.0,125.0,200.0,3.0,3.2,-229,-263,0,-10,258,253,256.81591510772705,256.8159577846527,256.81839990615845,256.83016633987427,256.98023867607117,256.98023867607117,256.98023867607117,256.98023867607117,256.98023867607117,256.98023867607117,256.98023867607117,261.2652838230133,1,4.42525577545166,None,,,,,,,,,,,,,,,,,,183,3,2025-03-04_12h03.48.335,comp,2024.2.4,62.65242226524222,2025-03-04 12h05.36.011457 -0500,
81,81,0,critical,hdw,35.0,4.0,lower,133.0,57.0,70.0,70.0,57.0,133.0,3,4.621126651763916,None,,,,,0,0,0,0,0,81,81,112,261.28031969070435,,,,,,,,,,,,,,,,,,,,,,,,,,,,,,,,,,,,,,,,,,,,,,,,,,,,,,,,,,,,,,,,,,,,,,,,,,,,,,,,,133.0,57.0,70.0,70.0,57.0,133.0,4.0,4.1,-160,-284,0,7,198,-265,261.26612758636475,261.2661781311035,261.26847314834595,261.28031969070435,261.4298791885376,261.4298791885376,261.4298791885376,261.4298791885376,261.4298791885376,261.4298791885376,261.4298791885376,265.91454124450684,3,4.621126651763916,None,,,,,,,,,,,,,,,,,,183,3,2025-03-04_12h03.48.335,comp,2024.2.4,62.65242226524222,2025-03-04 12h05.36.011457 -0500,
82,82,0,filler_random,None,None,None,None,None,None,None,None,None,None,2,1.0358202457427979,None,,,,,0,0,0,0,0,82,82,153,265.9298481941223,,,,,,,,,,,,,,,,,,,,,,,,,,,,,,,,,,,,,,,,,,,,,,,,,,,,,,,,,,,,,,,,,,,,,,,,,,,,,,,,,111.65922850974482,199.31498752584477,174.83986131437985,193.716978988521,99.75687767133911,124.23110575720233,2.1,2.11,-293,264,0,279,255,-257,265.91548919677734,265.9155306816101,265.91800355911255,265.9298481941223,266.0801603794098,266.0801603794098,266.0801603794098,266.0801603794098,266.0801603794098,266.0801603794098,266.0801603794098,266.9812898635864,2,1.0358202457427979,None,,,,,,,,,,,,,,,,,,183,3,2025-03-04_12h03.48.335,comp,2024.2.4,62.65242226524222,2025-03-04 12h05.36.011457 -0500,
83,83,0,critical,whd,20.0,1.0,upper,125.0,200.0,200.0,125.0,141.0,141.0,1,3.353177547454834,None,,,,,0,0,0,0,0,83,83,91,266.996529340744,,,,,,,,,,,,,,,,,,,,,,,,,,,,,,,,,,,,,,,,,,,,,,,,,,,,,,,,,,,,,,,,,,,,,,,,,,,,,,,,,125.0,200.0,200.0,125.0,141.0,141.0,1.0,1.3,222,-274,480,-271,709,-255,266.9821252822876,266.98216795921326,266.9846222400665,266.996529340744,267.1468300819397,267.1468300819397,267.1468300819397,267.1468300819397,267.1468300819397,267.1468300819397,267.1468300819397,270.3645703792572,1,3.353177547454834,None,,,,,,,,,,,,,,,,,,183,3,2025-03-04_12h03.48.335,comp,2024.2.4,62.65242226524222,2025-03-04 12h05.36.011457 -0500,
84,84,0,filler_square,None,None,None,None,None,None,None,None,None,None,1,0.8173491954803467,None,,,,,0,0,0,0,0,84,84,191,270.3800935745239,,,,,,,,,,,,,,,,,,,,,,,,,,,,,,,,,,,,,,,,,,,,,,,,,,,,,,,,,,,,,,,,,,,,,,,,,,,,,,,,,173.11846977614522,173.11846977614522,93.2738215709635,144.65550573731423,60.59975175946768,140.67355470145276,4.0,4.1,-255,-272,0,1,239,-277,270.3655540943146,270.3655970096588,270.36910676956177,270.3800935745239,270.53009152412415,270.53009152412415,270.53009152412415,270.53009152412415,270.53009152412415,270.53009152412415,270.53009152412415,271.21452617645264,1,0.8173491954803467,None,,,,,,,,,,,,,,,,,,183,3,2025-03-04_12h03.48.335,comp,2024.2.4,62.65242226524222,2025-03-04 12h05.36.011457 -0500,
85,85,0,critical,wdh,20.0,1.0,upper,125.0,200.0,141.0,141.0,200.0,125.0,3,0.8085858821868896,None,,,,,0,0,0,0,0,85,85,79,271.2297899723053,,,,,,,,,,,,,,,,,,,,,,,,,,,,,,,,,,,,,,,,,,,,,,,,,,,,,,,,,,,,,,,,,,,,,,,,,,,,,,,,,125.0,200.0,141.0,141.0,200.0,125.0,1.0,1.2,-266,-11,0,-17,229,2,271.2152850627899,271.21532440185547,271.21777510643005,271.2297899723053,271.3801486492157,271.3801486492157,271.3801486492157,271.3801486492157,271.3801486492157,271.3801486492157,271.3801486492157,272.04814767837524,3,0.8085858821868896,None,,,,,,,,,,,,,,,,,,183,3,2025-03-04_12h03.48.335,comp,2024.2.4,62.65242226524222,2025-03-04 12h05.36.011457 -0500,
86,86,0,catch,None,None,None,None,None,None,None,None,None,None,2,0.8700437545776367,None,,,,,0,0,0,0,0,86,86,122,272.0634980201721,,,,,,,,,,,,,,,,,,,,,,,,,,,,,,,,,,,,,,,,,,,,,,,,,,,,,,,,,,,,,,,,,,,,,,,,,,,,,,,,,98,92,166,159,77,113,3.0,3.1,-222,273,0,-10,232,-266,272.04923486709595,272.0492777824402,272.05144715309143,272.0634980201721,272.21331906318665,272.21331906318665,272.21331906318665,272.21331906318665,272.21331906318665,272.21331906318665,272.21331906318665,272.9478566646576,2,0.8700437545776367,None,,,,,,,,,,,,,,,,,,183,3,2025-03-04_12h03.48.335,comp,2024.2.4,62.65242226524222,2025-03-04 12h05.36.011457 -0500,
87,87,0,catch,None,None,None,None,None,None,None,None,None,None,3,0.7864933013916016,None,,,,,0,0,0,0,0,87,87,124,272.9630889892578,,,,,,,,,,,,,,,,,,,,,,,,,,,,,,,,,,,,,,,,,,,,,,,,,,,,,,,,,,,,,,,,,,,,,,,,,,,,,,,,,105,85,114,76,151,174,2.1,2.12,-176,-283,0,-272,221,270,272.94939708709717,272.94945526123047,272.95197319984436,272.9630889892578,273.11331486701965,273.11331486701965,273.11331486701965,273.11331486701965,273.11331486701965,273.11331486701965,273.11331486701965,273.7644200325012,3,0.7864933013916016,None,,,,,,,,,,,,,,,,,,183,3,2025-03-04_12h03.48.335,comp,2024.2.4,62.65242226524222,2025-03-04 12h05.36.011457 -0500,
88,88,0,filler_square,None,None,None,None,None,None,None,None,None,None,2,1.4427602291107178,None,,,,,0,0,0,0,0,88,88,206,273.7798116207123,,,,,,,,,,,,,,,,,,,,,,,,,,,,,,,,,,,,,,,,,,,,,,,,,,,,,,,,,,,,,,,,,,,,,,,,,,,,,,,,,58.49671739024067,71.02270366634049,71.74529027505407,71.74529027505407,61.97437562210908,69.62927885361967,2.2,2.22,-167,270,0,-252,167,-258,273.7653844356537,273.7654273509979,273.7678849697113,273.7798116207123,273.92974948883057,273.92974948883057,273.92974948883057,273.92974948883057,273.92974948883057,273.92974948883057,273.92974948883057,275.23106145858765,2,1.4427602291107178,None,,,,,,,,,,,,,,,,,,183,3,2025-03-04_12h03.48.335,comp,2024.2.4,62.65242226524222,2025-03-04 12h05.36.011457 -0500,
89,89,0,critical,hdw,35.0,1.0,upper,200.0,125.0,127.0,127.0,125.0,200.0,3,1.4080731868743896,None,,,,,0,0,0,0,0,89,89,109,275.246741771698,,,,,,,,,,,,,,,,,,,,,,,,,,,,,,,,,,,,,,,,,,,,,,,,,,,,,,,,,,,,,,,,,,,,,,,,,,,,,,,,,200.0,125.0,127.0,127.0,125.0,200.0,1.0,1.2,-222,-1,0,5,260,11,275.2318468093872,275.23188972473145,275.23421359062195,275.246741771698,275.39674139022827,275.39674139022827,275.39674139022827,275.39674139022827,275.39674139022827,275.39674139022827,275.39674139022827,276.6644277572632,3,1.4080731868743896,None,,,,,,,,,,,,,,,,,,183,3,2025-03-04_12h03.48.335,comp,2024.2.4,62.65242226524222,2025-03-04 12h05.36.011457 -0500,
90,90,0,filler_random,None,None,None,None,None,None,None,None,None,None,1,1.1015615463256836,None,,,,,0,0,0,0,0,90,90,149,276.6799645423889,,,,,,,,,,,,,,,,,,,,,,,,,,,,,,,,,,,,,,,,,,,,,,,,,,,,,,,,,,,,,,,,,,,,,,,,,,,,,,,,,104.20381733712726,103.35118673583602,61.83043154765555,92.27795088283335,99.56369707537189,74.0804927122328,3.0,3.2,-194,-288,0,-16,179,270,276.6654644012451,276.66550636291504,276.6680717468262,276.6799645423889,276.82997822761536,276.82997822761536,276.82997822761536,276.82997822761536,276.82997822761536,276.82997822761536,276.82997822761536,277.7976095676422,1,1.1015615463256836,None,,,,,,,,,,,,,,,,,,183,3,2025-03-04_12h03.48.335,comp,2024.2.4,62.65242226524222,2025-03-04 12h05.36.011457 -0500,
91,91,0,critical,hwd,20.0,3.0,lower,133.0,57.0,57.0,133.0,78.0,78.0,2,2.256302833557129,None,,,,,0,0,0,0,0,91,91,104,277.8129870891571,,,,,,,,,,,,,,,,,,,,,,,,,,,,,,,,,,,,,,,,,,,,,,,,,,,,,,,,,,,,,,,,,,,,,,,,,,,,,,,,,133.0,57.0,57.0,133.0,78.0,78.0,3.0,3.2,-191,-262,0,-5,202,259,277.79842948913574,277.7984697818756,277.8011009693146,277.8129870891571,277.96311593055725,277.96311593055725,277.96311593055725,277.96311593055725,277.96311593055725,277.96311593055725,277.96311593055725,280.08084177970886,2,2.256302833557129,None,,,,,,,,,,,,,,,,,,183,3,2025-03-04_12h03.48.335,comp,2024.2.4,62.65242226524222,2025-03-04 12h05.36.011457 -0500,
92,92,0,critical,hdw,35.0,4.0,upper,200.0,125.0,127.0,127.0,125.0,200.0,1,1.30975341796875,None,,,,,0,0,0,0,0,92,92,113,280.09652304649353,,,,,,,,,,,,,,,,,,,,,,,,,,,,,,,,,,,,,,,,,,,,,,,,,,,,,,,,,,,,,,,,,,,,,,,,,,,,,,,,,200.0,125.0,127.0,127.0,125.0,200.0,4.0,4.1,-222,-282,0,11,260,-266,280.0816307067871,280.0816719532013,280.0839660167694,280.09652304649353,280.24669337272644,280.24669337272644,280.24669337272644,280.24669337272644,280.24669337272644,280.24669337272644,280.24669337272644,281.41442584991455,1,1.30975341796875,None,,,,,,,,,,,,,,,,,,183,3,2025-03-04_12h03.48.335,comp,2024.2.4,62.65242226524222,2025-03-04 12h05.36.011457 -0500,
93,93,0,critical,dhw,35.0,1.0,lower,70.0,70.0,133.0,57.0,57.0,133.0,3,9.255272150039673,None,,,,,0,0,0,0,0,93,93,48,281.4298791885376,,,,,,,,,,,,,,,,,,,,,,,,,,,,,,,,,,,,,,,,,,,,,,,,,,,,,,,,,,,,,,,,,,,,,,,,,,,,,,,,,70.0,70.0,133.0,57.0,57.0,133.0,1.0,1.1,-640,269,-480,273,-289,264,281.41528129577637,281.41532158851624,281.41794538497925,281.4298791885376,281.57976055145264,281.57976055145264,281.57976055145264,281.57976055145264,281.57976055145264,281.57976055145264,281.57976055145264,290.6977381706238,3,9.255272150039673,None,,,,,,,,,,,,,,,,,,183,3,2025-03-04_12h03.48.335,comp,2024.2.4,62.65242226524222,2025-03-04 12h05.36.011457 -0500,
94,94,0,critical,whd,35.0,4.0,upper,125.0,200.0,200.0,125.0,127.0,127.0,1,2.3827075958251953,None,,,,,0,0,0,0,0,94,94,89,290.71294808387756,,,,,,,,,,,,,,,,,,,,,,,,,,,,,,,,,,,,,,,,,,,,,,,,,,,,,,,,,,,,,,,,,,,,,,,,,,,,,,,,,125.0,200.0,200.0,125.0,127.0,127.0,4.0,4.1,-258,-261,0,12,222,-267,290.6985194683075,290.6985592842102,290.7012219429016,290.71294808387756,290.8633077144623,290.8633077144623,290.8633077144623,290.8633077144623,290.8633077144623,290.8633077144623,290.8633077144623,293.0977973937988,1,2.3827075958251953,None,,,,,,,,,,,,,,,,,,183,3,2025-03-04_12h03.48.335,comp,2024.2.4,62.65242226524222,2025-03-04 12h05.36.011457 -0500,
95,95,0,critical,hdw,35.0,2.1,upper,200.0,125.0,127.0,127.0,125.0,200.0,3,2.0770084857940674,None,,,,,0,0,0,0,0,95,95,21,293.1131663322449,,,,,,,,,,,,,,,,,,,,,,,,,,,,,,,,,,,,,,,,,,,,,,,,,,,,,,,,,,,,,,,,,,,,,,,,,,,,,,,,,200.0,125.0,127.0,127.0,125.0,200.0,2.1,2.12,-222,-284,0,-277,260,251,293.0986065864563,293.098646402359,293.10077357292175,293.1131663322449,293.26334404945374,293.26334404945374,293.26334404945374,293.26334404945374,293.26334404945374,293.26334404945374,293.26334404945374,295.19769525527954,3,2.0770084857940674,None,,,,,,,,,,,,,,,,,,183,3,2025-03-04_12h03.48.335,comp,2024.2.4,62.65242226524222,2025-03-04 12h05.36.011457 -0500,
96,96,0,critical,wdh,35.0,4.0,upper,125.0,200.0,127.0,127.0,200.0,125.0,3,3.455796957015991,None,,,,,0,0,0,0,0,96,96,77,295.2133026123047,,,,,,,,,,,,,,,,,,,,,,,,,,,,,,,,,,,,,,,,,,,,,,,,,,,,,,,,,,,,,,,,,,,,,,,,,,,,,,,,,125.0,200.0,127.0,127.0,200.0,125.0,4.0,4.2,-260,4,0,-259,222,1,295.1985590457916,295.1985991001129,295.2012143135071,295.2133026123047,295.3635492324829,295.3635492324829,295.3635492324829,295.3635492324829,295.3635492324829,295.3635492324829,295.3635492324829,298.6811225414276,3,3.455796957015991,None,,,,,,,,,,,,,,,,,,183,3,2025-03-04_12h03.48.335,comp,2024.2.4,62.65242226524222,2025-03-04 12h05.36.011457 -0500,
97,97,0,critical,hwd,20.0,2.1,upper,200.0,125.0,125.0,200.0,141.0,141.0,1,1.0618042945861816,None,,,,,0,0,0,0,0,97,97,43,298.69626092910767,,,,,,,,,,,,,,,,,,,,,,,,,,,,,,,,,,,,,,,,,,,,,,,,,,,,,,,,,,,,,,,,,,,,,,,,,,,,,,,,,200.0,125.0,125.0,200.0,141.0,141.0,2.1,2.12,-258,-251,0,-266,266,257,298.68192410469055,298.6819667816162,298.6841330528259,298.69626092910767,298.8465623855591,298.8465623855591,298.8465623855591,298.8465623855591,298.8465623855591,298.8465623855591,298.8465623855591,299.7644419670105,1,1.0618042945861816,None,,,,,,,,,,,,,,,,,,183,3,2025-03-04_12h03.48.335,comp,2024.2.4,62.65242226524222,2025-03-04 12h05.36.011457 -0500,
98,98,0,critical,dhw,20.0,4.0,upper,141.0,141.0,200.0,125.0,125.0,200.0,3,0.9157595634460449,None,,,,,0,0,0,0,0,98,98,59,299.7798762321472,,,,,,,,,,,,,,,,,,,,,,,,,,,,,,,,,,,,,,,,,,,,,,,,,,,,,,,,,,,,,,,,,,,,,,,,,,,,,,,,,141.0,141.0,200.0,125.0,125.0,200.0,4.0,4.1,-229,-276,0,-1,258,-276,299.7652418613434,299.7652840614319,299.76777362823486,299.7798762321472,299.9299304485321,299.9299304485321,299.9299304485321,299.9299304485321,299.9299304485321,299.9299304485321,299.9299304485321,300.69783759117126,3,0.9157595634460449,None,,,,,,,,,,,,,,,,,,183,3,2025-03-04_12h03.48.335,comp,2024.2.4,62.65242226524222,2025-03-04 12h05.36.011457 -0500,
99,99,0,critical,dwh,35.0,2.1,upper,127.0,127.0,125.0,200.0,200.0,125.0,2,2.1006128787994385,None,,,,,0,0,0,0,0,99,99,29,300.71318531036377,,,,,,,,,,,,,,,,,,,,,,,,,,,,,,,,,,,,,,,,,,,,,,,,,,,,,,,,,,,,,,,,,,,,,,,,,,,,,,,,,127.0,127.0,125.0,200.0,200.0,125.0,2.1,2.11,-260,280,0,286,258,-260,300.6986629962921,300.69870495796204,300.70088481903076,300.71318531036377,300.86329197883606,300.86329197883606,300.86329197883606,300.86329197883606,300.86329197883606,300.86329197883606,300.86329197883606,302.83106684684753,2,2.1006128787994385,None,,,,,,,,,,,,,,,,,,183,3,2025-03-04_12h03.48.335,comp,2024.2.4,62.65242226524222,2025-03-04 12h05.36.011457 -0500,
100,100,0,filler_square,None,None,None,None,None,None,None,None,None,None,1,0.8812429904937744,None,,,,,0,0,0,0,0,100,100,176,302.846173286438,,,,,,,,,,,,,,,,,,,,,,,,,,,,,,,,,,,,,,,,,,,,,,,,,,,,,,,,,,,,,,,,,,,,,,,,,,,,,,,,,141.18126507883346,141.18126507883346,75.65211359858002,77.64662588317444,110.50218533597246,90.76004015956619,4.0,4.2,-205,-16,0,-277,180,5,302.8320014476776,302.8320560455322,302.83437633514404,302.846173286438,302.9967336654663,302.9967336654663,302.9967336654663,302.9967336654663,302.9967336654663,302.9967336654663,302.9967336654663,303.73091864585876,1,0.8812429904937744,None,,,,,,,,,,,,,,,,,,183,3,2025-03-04_12h03.48.335,comp,2024.2.4,62.65242226524222,2025-03-04 12h05.36.011457 -0500,
101,101,0,critical,hdw,20.0,2.1,lower,133.0,57.0,78.0,78.0,57.0,133.0,1,4.034757852554321,None,,,,,0,0,0,0,0,101,101,22,303.74653911590576,,,,,,,,,,,,,,,,,,,,,,,,,,,,,,,,,,,,,,,,,,,,,,,,,,,,,,,,,,,,,,,,,,,,,,,,,,,,,,,,,133.0,57.0,78.0,78.0,57.0,133.0,2.1,2.11,-164,287,0,277,202,-270,303.7317488193512,303.7317900657654,303.7339437007904,303.74653911590576,303.89632272720337,303.89632272720337,303.89632272720337,303.89632272720337,303.89632272720337,303.89632272720337,303.89632272720337,307.79759645462036,1,4.034757852554321,None,,,,,,,,,,,,,,,,,,183,3,2025-03-04_12h03.48.335,comp,2024.2.4,62.65242226524222,2025-03-04 12h05.36.011457 -0500,
102,102,0,filler_square,None,None,None,None,None,None,None,None,None,None,2,0.9771299362182617,None,,,,,0,0,0,0,0,102,102,182,307.81296277046204,,,,,,,,,,,,,,,,,,,,,,,,,,,,,,,,,,,,,,,,,,,,,,,,,,,,,,,,,,,,,,,,,,,,,,,,,,,,,,,,,82.68911482554105,69.107138383843,130.9255471339942,130.9255471339942,80.4921587972807,127.3712918265961,2.2,2.22,-196,275,0,-275,225,-265,307.7986123561859,307.7986533641815,307.8011779785156,307.81296277046204,307.96310472488403,307.96310472488403,307.96310472488403,307.96310472488403,307.96310472488403,307.96310472488403,307.96310472488403,308.7976016998291,2,0.9771299362182617,None,,,,,,,,,,,,,,,,,,183,3,2025-03-04_12h03.48.335,comp,2024.2.4,62.65242226524222,2025-03-04 12h05.36.011457 -0500,
103,103,0,catch,None,None,None,None,None,None,None,None,None,None,1,1.9045219421386719,None,,,,,0,0,0,0,0,103,103,121,308.8132061958313,,,,,,,,,,,,,,,,,,,,,,,,,,,,,,,,,,,,,,,,,,,,,,,,,,,,,,,,,,,,,,,,,,,,,,,,,,,,,,,,,192,133,103,87,68,122,3.0,3.1,-206,258,0,-4,200,-280,308.79868149757385,308.79872393608093,308.8012852668762,308.8132061958313,308.96307134628296,308.96307134628296,308.96307134628296,308.96307134628296,308.96307134628296,308.96307134628296,308.96307134628296,310.73097133636475,1,1.9045219421386719,None,,,,,,,,,,,,,,,,,,183,3,2025-03-04_12h03.48.335,comp,2024.2.4,62.65242226524222,2025-03-04 12h05.36.011457 -0500,
104,104,0,catch,None,None,None,None,None,None,None,None,None,None,2,0.9080712795257568,None,,,,,0,0,0,0,0,104,104,125,310.746178150177,,,,,,,,,,,,,,,,,,,,,,,,,,,,,,,,,,,,,,,,,,,,,,,,,,,,,,,,,,,,,,,,,,,,,,,,,,,,,,,,,61,129,144,181,62,128,2.2,2.22,-251,258,0,-257,250,-262,310.7320396900177,310.7320976257324,310.7347149848938,310.746178150177,310.89639496803284,310.89639496803284,310.89639496803284,310.89639496803284,310.89639496803284,310.89639496803284,310.89639496803284,311.66410422325134,2,0.9080712795257568,None,,,,,,,,,,,,,,,,,,183,3,2025-03-04_12h03.48.335,comp,2024.2.4,62.65242226524222,2025-03-04 12h05.36.011457 -0500,
105,105,0,critical,dwh,20.0,3.0,lower,78.0,78.0,57.0,133.0,133.0,57.0,2,1.5665709972381592,None,,,,,0,0,0,0,0,105,105,68,311.67988085746765,,,,,,,,,,,,,,,,,,,,,,,,,,,,,,,,,,,,,,,,,,,,,,,,,,,,,,,,,,,,,,,,,,,,,,,,,,,,,,,,,78.0,78.0,57.0,133.0,133.0,57.0,3.0,3.2,-202,-270,0,11,191,253,311.66488766670227,311.6649296283722,311.6672341823578,311.67988085746765,311.82966923713684,311.82966923713684,311.82966923713684,311.82966923713684,311.82966923713684,311.82966923713684,311.82966923713684,313.24760937690735,2,1.5665709972381592,None,,,,,,,,,,,,,,,,,,183,3,2025-03-04_12h03.48.335,comp,2024.2.4,62.65242226524222,2025-03-04 12h05.36.011457 -0500,
106,106,0,critical,hdw,20.0,2.1,upper,200.0,125.0,141.0,141.0,125.0,200.0,1,1.5180590152740479,None,,,,,0,0,0,0,0,106,106,47,313.2631027698517,,,,,,,,,,,,,,,,,,,,,,,,,,,,,,,,,,,,,,,,,,,,,,,,,,,,,,,,,,,,,,,,,,,,,,,,,,,,,,,,,200.0,125.0,141.0,141.0,125.0,200.0,2.1,2.12,-229,-279,0,-263,266,267,313.2484200000763,313.24846267700195,313.2512092590332,313.2631027698517,313.413125038147,313.413125038147,313.413125038147,313.413125038147,313.413125038147,313.413125038147,313.413125038147,314.79764461517334,1,1.5180590152740479,None,,,,,,,,,,,,,,,,,,183,3,2025-03-04_12h03.48.335,comp,2024.2.4,62.65242226524222,2025-03-04 12h05.36.011457 -0500,
107,107,0,critical,whd,20.0,2.1,upper,125.0,200.0,200.0,125.0,141.0,141.0,2,1.872117042541504,None,,,,,0,0,0,0,0,107,107,39,314.8128545284271,,,,,,,,,,,,,,,,,,,,,,,,,,,,,,,,,,,,,,,,,,,,,,,,,,,,,,,,,,,,,,,,,,,,,,,,,,,,,,,,,125.0,200.0,200.0,125.0,141.0,141.0,2.1,2.12,-258,-271,0,-250,229,284,314.79847145080566,314.79851269721985,314.80099511146545,314.8128545284271,314.96320605278015,314.96320605278015,314.96320605278015,314.96320605278015,314.96320605278015,314.96320605278015,314.96320605278015,316.6975944042206,2,1.872117042541504,None,,,,,,,,,,,,,,,,,,183,3,2025-03-04_12h03.48.335,comp,2024.2.4,62.65242226524222,2025-03-04 12h05.36.011457 -0500,
108,108,0,critical,dhw,20.0,2.1,upper,141.0,141.0,200.0,125.0,125.0,200.0,3,1.2772884368896484,None,,,,,0,0,0,0,0,108,108,3,316.7127809524536,,,,,,,,,,,,,,,,,,,,,,,,,,,,,,,,,,,,,,,,,,,,,,,,,,,,,,,,,,,,,,,,,,,,,,,,,,,,,,,,,141.0,141.0,200.0,125.0,125.0,200.0,2.1,2.11,-229,285,0,272,258,-272,316.6984443664551,316.6984865665436,316.7011432647705,316.7127809524536,316.8631019592285,316.8631019592285,316.8631019592285,316.8631019592285,316.8631019592285,316.8631019592285,316.8631019592285,317.99752473831177,3,1.2772884368896484,None,,,,,,,,,,,,,,,,,,183,3,2025-03-04_12h03.48.335,comp,2024.2.4,62.65242226524222,2025-03-04 12h05.36.011457 -0500,
109,109,0,critical,dhw,35.0,2.1,upper,127.0,127.0,200.0,125.0,125.0,200.0,3,1.9288873672485352,None,,,,,0,0,0,0,0,109,109,25,318.0130033493042,,,,,,,,,,,,,,,,,,,,,,,,,,,,,,,,,,,,,,,,,,,,,,,,,,,,,,,,,,,,,,,,,,,,,,,,,,,,,,,,,127.0,127.0,200.0,125.0,125.0,200.0,2.1,2.11,-222,283,0,286,258,-265,317.99833130836487,317.99837374687195,318.0009021759033,318.0130033493042,318.1631317138672,318.1631317138672,318.1631317138672,318.1631317138672,318.1631317138672,318.1631317138672,318.1631317138672,319.94767785072327,3,1.9288873672485352,None,,,,,,,,,,,,,,,,,,183,3,2025-03-04_12h03.48.335,comp,2024.2.4,62.65242226524222,2025-03-04 12h05.36.011457 -0500,
110,110,0,critical,dwh,35.0,2.1,upper,127.0,127.0,125.0,200.0,200.0,125.0,3,1.874781847000122,None,,,,,0,0,0,0,0,110,110,5,319.9631779193878,,,,,,,,,,,,,,,,,,,,,,,,,,,,,,,,,,,,,,,,,,,,,,,,,,,,,,,,,,,,,,,,,,,,,,,,,,,,,,,,,127.0,127.0,125.0,200.0,200.0,125.0,2.1,2.11,-260,263,0,265,258,-279,319.94848442077637,319.94852590560913,319.9510259628296,319.9631779193878,320.1130781173706,320.1130781173706,320.1130781173706,320.1130781173706,320.1130781173706,320.1130781173706,320.1130781173706,321.84755516052246,3,1.874781847000122,None,,,,,,,,,,,,,,,,,,183,3,2025-03-04_12h03.48.335,comp,2024.2.4,62.65242226524222,2025-03-04 12h05.36.011457 -0500,
111,111,0,filler_random,None,None,None,None,None,None,None,None,None,None,3,0.9503464698791504,None,,,,,0,0,0,0,0,111,111,163,321.8631331920624,,,,,,,,,,,,,,,,,,,,,,,,,,,,,,,,,,,,,,,,,,,,,,,,,,,,,,,,,,,,,,,,,,,,,,,,,,,,,,,,,63.656589464488995,187.05938771379445,78.60204184050272,135.24639080429966,137.881803342649,98.66109189638338,2.2,2.21,-257,-274,0,268,213,284,321.84860396385193,321.8486473560333,321.85141706466675,321.8631331920624,322.01302766799927,322.01302766799927,322.01302766799927,322.01302766799927,322.01302766799927,322.01302766799927,322.01302766799927,322.830708026886,3,0.9503464698791504,None,,,,,,,,,,,,,,,,,,183,3,2025-03-04_12h03.48.335,comp,2024.2.4,62.65242226524222,2025-03-04 12h05.36.011457 -0500,
112,112,0,filler_square,None,None,None,None,None,None,None,None,None,None,3,0.9680318832397461,None,,,,,0,0,0,0,0,112,112,199,322.8461129665375,,,,,,,,,,,,,,,,,,,,,,,,,,,,,,,,,,,,,,,,,,,,,,,,,,,,,,,,,,,,,,,,,,,,,,,,,,,,,,,,,152.44009791848902,146.98771034171457,99.6757646468389,116.44210782857522,171.2120367215221,171.2120367215221,4.0,4.2,-228,16,0,-275,240,2,322.83170533180237,322.83174753189087,322.8341362476349,322.8461129665375,322.9964108467102,322.9964108467102,322.9964108467102,322.9964108467102,322.9964108467102,322.9964108467102,322.9964108467102,323.8311810493469,3,0.9680318832397461,None,,,,,,,,,,,,,,,,,,183,3,2025-03-04_12h03.48.335,comp,2024.2.4,62.65242226524222,2025-03-04 12h05.36.011457 -0500,
113,113,0,filler_square,None,None,None,None,None,None,None,None,None,None,1,0.9350073337554932,None,,,,,0,0,0,0,0,113,113,196,323.84613370895386,,,,,,,,,,,,,,,,,,,,,,,,,,,,,,,,,,,,,,,,,,,,,,,,,,,,,,,,,,,,,,,,,,,,,,,,,,,,,,,,,145.88817945200648,145.88817945200648,136.52155105920426,114.55257443517914,97.78380487637052,86.62488563519351,4.0,4.1,-226,-280,0,-10,197,-258,323.8322665691376,323.8323075771332,323.834676027298,323.84613370895386,323.9962811470032,323.9962811470032,323.9962811470032,323.9962811470032,323.9962811470032,323.9962811470032,323.9962811470032,324.79739451408386,1,0.9350073337554932,None,,,,,,,,,,,,,,,,,,183,3,2025-03-04_12h03.48.335,comp,2024.2.4,62.65242226524222,2025-03-04 12h05.36.011457 -0500,
114,114,0,critical,wdh,35.0,3.0,upper,125.0,200.0,127.0,127.0,200.0,125.0,1,1.8173816204071045,None,,,,,0,0,0,0,0,114,114,75,324.81270241737366,,,,,,,,,,,,,,,,,,,,,,,,,,,,,,,,,,,,,,,,,,,,,,,,,,,,,,,,,,,,,,,,,,,,,,,,,,,,,,,,,125.0,200.0,127.0,127.0,200.0,125.0,3.0,3.1,-260,267,0,-9,222,-280,324.79814553260803,324.798184633255,324.80060482025146,324.81270241737366,324.96302700042725,324.96302700042725,324.96302700042725,324.96302700042725,324.96302700042725,324.96302700042725,324.96302700042725,326.6476001739502,1,1.8173816204071045,None,,,,,,,,,,,,,,,,,,183,3,2025-03-04_12h03.48.335,comp,2024.2.4,62.65242226524222,2025-03-04 12h05.36.011457 -0500,
115,115,0,filler_random,None,None,None,None,None,None,None,None,None,None,3,4.759148359298706,None,,,,,0,0,0,0,0,115,115,157,326.662793636322,,,,,,,,,,,,,,,,,,,,,,,,,,,,,,,,,,,,,,,,,,,,,,,,,,,,,,,,,,,,,,,,,,,,,,,,,,,,,,,,,156.32204395435303,174.7460959745328,199.6686462227623,122.41437936737219,180.52275423723904,160.54632942735867,2.2,2.21,-245,-287,0,276,237,287,326.64850330352783,326.6485433578491,326.65100836753845,326.662793636322,326.8131048679352,326.8131048679352,326.8131048679352,326.8131048679352,326.8131048679352,326.8131048679352,326.8131048679352,331.4309902191162,3,4.759148359298706,None,,,,,,,,,,,,,,,,,,183,3,2025-03-04_12h03.48.335,comp,2024.2.4,62.65242226524222,2025-03-04 12h05.36.011457 -0500,
116,116,0,filler_random,None,None,None,None,None,None,None,None,None,None,2,2.865490674972534,None,,,,,0,0,0,0,0,116,116,136,331.44639778137207,,,,,,,,,,,,,,,,,,,,,,,,,,,,,,,,,,,,,,,,,,,,,,,,,,,,,,,,,,,,,,,,,,,,,,,,,,,,,,,,,131.30323753529424,92.62502225808113,144.30036596429554,146.86137239414202,195.89830381629656,90.44279572117853,2.2,2.21,-216,-265,0,268,215,264,331.43192648887634,331.43196988105774,331.4341399669647,331.44639778137207,331.59630393981934,331.59630393981934,331.59630393981934,331.59630393981934,331.59630393981934,331.59630393981934,331.59630393981934,334.3142955303192,2,2.865490674972534,None,,,,,,,,,,,,,,,,,,183,3,2025-03-04_12h03.48.335,comp,2024.2.4,62.65242226524222,2025-03-04 12h05.36.011457 -0500,
117,117,0,critical,hwd,20.0,4.0,lower,133.0,57.0,57.0,133.0,78.0,78.0,3,9.565710306167603,None,,,,,0,0,0,0,0,117,117,106,334.3296446800232,,,,,,,,,,,,,,,,,,,,,,,,,,,,,,,,,,,,,,,,,,,,,,,,,,,,,,,,,,,,,,,,,,,,,,,,,,,,,,,,,133.0,57.0,57.0,133.0,78.0,78.0,4.0,4.1,-191,-281,0,13,202,-282,334.3150997161865,334.31514072418213,334.3175961971283,334.3296446800232,334.4795181751251,334.4795181751251,334.4795181751251,334.4795181751251,334.4795181751251,334.4795181751251,334.4795181751251,343.8972144126892,3,9.565710306167603,None,,,,,,,,,,,,,,,,,,183,3,2025-03-04_12h03.48.335,comp,2024.2.4,62.65242226524222,2025-03-04 12h05.36.011457 -0500,
118,118,0,filler_random,None,None,None,None,None,None,None,None,None,None,1,2.1666181087493896,None,,,,,0,0,0,0,0,118,118,138,343.9128975868225,,,,,,,,,,,,,,,,,,,,,,,,,,,,,,,,,,,,,,,,,,,,,,,,,,,,,,,,,,,,,,,,,,,,,,,,,,,,,,,,,174.41930092816722,120.95974544997256,90.39120039746126,197.85696588553643,155.71014500414304,109.67256839333308,3.0,3.2,-255,-273,0,-19,250,290,343.89811849594116,343.8981602191925,343.9003074169159,343.9128975868225,344.06294083595276,344.06294083595276,344.06294083595276,344.06294083595276,344.06294083595276,344.06294083595276,344.06294083595276,346.0808787345886,1,2.1666181087493896,None,,,,,,,,,,,,,,,,,,183,3,2025-03-04_12h03.48.335,comp,2024.2.4,62.65242226524222,2025-03-04 12h05.36.011457 -0500,
119,119,0,critical,wdh,35.0,1.0,lower,57.0,133.0,70.0,70.0,133.0,57.0,1,3.557752847671509,None,,,,,0,0,0,0,0,119,119,72,346.09621357917786,,,,,,,,,,,,,,,,,,,,,,,,,,,,,,,,,,,,,,,,,,,,,,,,,,,,,,,,,,,,,,,,,,,,,,,,,,,,,,,,,57.0,133.0,70.0,70.0,133.0,57.0,1.0,1.1,-678,259,-480,259,-320,262,346.0816419124603,346.08168172836304,346.08384799957275,346.09621357917786,346.24609899520874,346.24609899520874,346.24609899520874,346.24609899520874,346.24609899520874,346.24609899520874,346.24609899520874,349.6636919975281,1,3.557752847671509,None,,,,,,,,,,,,,,,,,,183,3,2025-03-04_12h03.48.335,comp,2024.2.4,62.65242226524222,2025-03-04 12h05.36.011457 -0500,
120,120,0,critical,dwh,20.0,2.1,lower,78.0,78.0,57.0,133.0,133.0,57.0,1,1.5905876159667969,None,,,,,0,0,0,0,0,120,120,6,349.67951369285583,,,,,,,,,,,,,,,,,,,,,,,,,,,,,,,,,,,,,,,,,,,,,,,,,,,,,,,,,,,,,,,,,,,,,,,,,,,,,,,,,78.0,78.0,57.0,133.0,133.0,57.0,2.1,2.12,-202,-288,0,-267,191,281,349.6645290851593,349.66457176208496,349.6672475337982,349.67951369285583,349.8293266296387,349.8293266296387,349.8293266296387,349.8293266296387,349.8293266296387,349.8293266296387,349.8293266296387,351.2805497646332,1,1.5905876159667969,None,,,,,,,,,,,,,,,,,,183,3,2025-03-04_12h03.48.335,comp,2024.2.4,62.65242226524222,2025-03-04 12h05.36.011457 -0500,
121,121,0,critical,hwd,20.0,1.0,lower,133.0,57.0,57.0,133.0,78.0,78.0,2,5.845407247543335,None,,,,,0,0,0,0,0,121,121,102,351.2962644100189,,,,,,,,,,,,,,,,,,,,,,,,,,,,,,,,,,,,,,,,,,,,,,,,,,,,,,,,,,,,,,,,,,,,,,,,,,,,,,,,,133.0,57.0,57.0,133.0,78.0,78.0,1.0,1.3,289,-266,480,-265,682,-283,351.28135800361633,351.2813997268677,351.2839114665985,351.2962644100189,351.44610142707825,351.44610142707825,351.44610142707825,351.44610142707825,351.44610142707825,351.44610142707825,351.44610142707825,357.1472406387329,2,5.845407247543335,None,,,,,,,,,,,,,,,,,,183,3,2025-03-04_12h03.48.335,comp,2024.2.4,62.65242226524222,2025-03-04 12h05.36.011457 -0500,
122,122,0,filler_random,None,None,None,None,None,None,None,None,None,None,3,0.9000933170318604,None,,,,,0,0,0,0,0,122,122,147,357.1629002094269,,,,,,,,,,,,,,,,,,,,,,,,,,,,,,,,,,,,,,,,,,,,,,,,,,,,,,,,,,,,,,,,,,,,,,,,,,,,,,,,,82.99557561932573,156.82514322588375,73.65234012695953,136.15477367368695,193.63441694842234,142.6631352334681,4.0,4.2,-242,-8,0,-278,235,3,357.1481354236603,357.14817667007446,357.1505596637726,357.1629002094269,357.3128077983856,357.3128077983856,357.3128077983856,357.3128077983856,357.3128077983856,357.3128077983856,357.3128077983856,358.0804522037506,3,0.9000933170318604,None,,,,,,,,,,,,,,,,,,183,3,2025-03-04_12h03.48.335,comp,2024.2.4,62.65242226524222,2025-03-04 12h05.36.011457 -0500,
123,123,0,filler_random,None,None,None,None,None,None,None,None,None,None,3,1.0154132843017578,None,,,,,0,0,0,0,0,123,123,131,358.09592270851135,,,,,,,,,,,,,,,,,,,,,,,,,,,,,,,,,,,,,,,,,,,,,,,,,,,,,,,,,,,,,,,,,,,,,,,,,,,,,,,,,72.0097381285396,132.60344990687025,154.72459178773437,67.14512134311875,172.7014574030579,90.05008852788916,3.0,3.2,-196,-259,0,8,175,269,358.08133459091187,358.08137583732605,358.08381271362305,358.09592270851135,358.2461061477661,358.2461061477661,358.2461061477661,358.2461061477661,358.2461061477661,358.2461061477661,358.2461061477661,359.114009141922,3,1.0154132843017578,None,,,,,,,,,,,,,,,,,,183,3,2025-03-04_12h03.48.335,comp,2024.2.4,62.65242226524222,2025-03-04 12h05.36.011457 -0500,
124,124,0,filler_square,None,None,None,None,None,None,None,None,None,None,3,0.9392805099487305,None,,,,,0,0,0,0,0,124,124,193,359.12942814826965,,,,,,,,,,,,,,,,,,,,,,,,,,,,,,,,,,,,,,,,,,,,,,,,,,,,,,,,,,,,,,,,,,,,,,,,,,,,,,,,,151.0176374037145,168.8708092328456,152.30210815241168,117.69461485785675,169.43311912042134,169.43311912042134,2.2,2.22,-239,273,0,-272,240,-287,359.1149933338165,359.11503410339355,359.11738991737366,359.12942814826965,359.2795453071594,359.2795453071594,359.2795453071594,359.2795453071594,359.2795453071594,359.2795453071594,359.2795453071594,360.08075308799744,3,0.9392805099487305,None,,,,,,,,,,,,,,,,,,183,3,2025-03-04_12h03.48.335,comp,2024.2.4,62.65242226524222,2025-03-04 12h05.36.011457 -0500,
125,125,0,filler_random,None,None,None,None,None,None,None,None,None,None,3,1.0307426452636719,None,,,,,0,0,0,0,0,125,125,166,360.09584498405457,,,,,,,,,,,,,,,,,,,,,,,,,,,,,,,,,,,,,,,,,,,,,,,,,,,,,,,,,,,,,,,,,,,,,,,,,,,,,,,,,175.30734367555738,169.94426165021508,172.46905841228386,140.63802071900398,172.86039053751972,199.06637998217468,4.0,4.1,-251,-253,0,11,266,-281,360.081711769104,360.08175444602966,360.08443307876587,360.09584498405457,360.2462568283081,360.2462568283081,360.2462568283081,360.2462568283081,360.2462568283081,360.2462568283081,360.2462568283081,361.1309621334076,3,1.0307426452636719,None,,,,,,,,,,,,,,,,,,183,3,2025-03-04_12h03.48.335,comp,2024.2.4,62.65242226524222,2025-03-04 12h05.36.011457 -0500,
126,126,0,critical,dhw,35.0,1.0,upper,127.0,127.0,200.0,125.0,125.0,200.0,2,1.4347913265228271,None,,,,,0,0,0,0,0,126,126,49,361.14607858657837,,,,,,,,,,,,,,,,,,,,,,,,,,,,,,,,,,,,,,,,,,,,,,,,,,,,,,,,,,,,,,,,,,,,,,,,,,,,,,,,,127.0,127.0,200.0,125.0,125.0,200.0,1.0,1.2,-222,-6,0,-18,258,16,361.13173270225525,361.1317744255066,361.1340045928955,361.14607858657837,361.29611897468567,361.29611897468567,361.29611897468567,361.29611897468567,361.29611897468567,361.29611897468567,361.29611897468567,362.5972833633423,2,1.4347913265228271,None,,,,,,,,,,,,,,,,,,183,3,2025-03-04_12h03.48.335,comp,2024.2.4,62.65242226524222,2025-03-04 12h05.36.011457 -0500,
127,127,0,critical,hdw,20.0,2.1,lower,133.0,57.0,78.0,78.0,57.0,133.0,3,3.217076301574707,None,,,,,0,0,0,0,0,127,127,46,362.6125226020813,,,,,,,,,,,,,,,,,,,,,,,,,,,,,,,,,,,,,,,,,,,,,,,,,,,,,,,,,,,,,,,,,,,,,,,,,,,,,,,,,133.0,57.0,78.0,78.0,57.0,133.0,2.1,2.12,-164,-258,0,-276,202,272,362.59807419776917,362.59811639785767,362.6004891395569,362.6125226020813,362.76261353492737,362.76261353492737,362.76261353492737,362.76261353492737,362.76261353492737,362.76261353492737,362.76261353492737,365.83078479766846,3,3.217076301574707,None,,,,,,,,,,,,,,,,,,183,3,2025-03-04_12h03.48.335,comp,2024.2.4,62.65242226524222,2025-03-04 12h05.36.011457 -0500,
128,128,0,filler_square,None,None,None,None,None,None,None,None,None,None,3,1.575854778289795,None,,,,,0,0,0,0,0,128,128,187,365.8460295200348,,,,,,,,,,,,,,,,,,,,,,,,,,,,,,,,,,,,,,,,,,,,,,,,,,,,,,,,,,,,,,,,,,,,,,,,,,,,,,,,,63.439672121213306,138.92816909240298,139.50058992589686,114.05854664251734,171.30601845334235,171.30601845334235,2.1,2.11,-222,277,0,254,239,-277,365.83174872398376,365.8317904472351,365.8339595794678,365.8460295200348,365.99616265296936,365.99616265296936,365.99616265296936,365.99616265296936,365.99616265296936,365.99616265296936,365.99616265296936,367.43057107925415,3,1.575854778289795,None,,,,,,,,,,,,,,,,,,183,3,2025-03-04_12h03.48.335,comp,2024.2.4,62.65242226524222,2025-03-04 12h05.36.011457 -0500,
129,129,0,critical,dwh,20.0,4.0,upper,141.0,141.0,125.0,200.0,200.0,125.0,2,8.959337949752808,None,,,,,0,0,0,0,0,129,129,71,367.4462332725525,,,,,,,,,,,,,,,,,,,,,,,,,,,,,,,,,,,,,,,,,,,,,,,,,,,,,,,,,,,,,,,,,,,,,,,,,,,,,,,,,141.0,141.0,125.0,200.0,200.0,125.0,4.0,4.2,-266,10,0,-284,258,-17,367.43136763572693,367.4314088821411,367.4335699081421,367.4462332725525,367.59618759155273,367.59618759155273,367.59618759155273,367.59618759155273,367.59618759155273,367.59618759155273,367.59618759155273,376.4138584136963,2,8.959337949752808,None,,,,,,,,,,,,,,,,,,183,3,2025-03-04_12h03.48.335,comp,2024.2.4,62.65242226524222,2025-03-04 12h05.36.011457 -0500,
130,130,0,filler_square,None,None,None,None,None,None,None,None,None,None,2,1.0821325778961182,None,,,,,0,0,0,0,0,130,130,186,376.4293074607849,,,,,,,,,,,,,,,,,,,,,,,,,,,,,,,,,,,,,,,,,,,,,,,,,,,,,,,,,,,,,,,,,,,,,,,,,,,,,,,,,58.24984371406537,107.7592637030504,120.06940245617211,120.06940245617211,76.52086098415063,74.00698844263766,2.2,2.21,-210,-283,0,267,193,284,376.4148337841034,376.41487669944763,376.4175238609314,376.4293074607849,376.57923698425293,376.57923698425293,376.57923698425293,376.57923698425293,376.57923698425293,376.57923698425293,376.57923698425293,377.5138449668884,2,1.0821325778961182,None,,,,,,,,,,,,,,,,,,183,3,2025-03-04_12h03.48.335,comp,2024.2.4,62.65242226524222,2025-03-04 12h05.36.011457 -0500,
131,131,0,filler_square,None,None,None,None,None,None,None,None,None,None,3,1.4923076629638672,None,,,,,0,0,0,0,0,131,131,189,377.52929186820984,,,,,,,,,,,,,,,,,,,,,,,,,,,,,,,,,,,,,,,,,,,,,,,,,,,,,,,,,,,,,,,,,,,,,,,,,,,,,,,,,112.4932107644126,98.29277197120705,66.7933254831134,101.70929233305506,123.17499779775784,123.17499779775784,1.0,1.2,-196,0,0,10,208,2,377.51480174064636,377.5148446559906,377.51700592041016,377.52929186820984,377.6792666912079,377.6792666912079,377.6792666912079,377.6792666912079,377.6792666912079,377.6792666912079,377.6792666912079,379.0306315422058,3,1.4923076629638672,None,,,,,,,,,,,,,,,,,,183,3,2025-03-04_12h03.48.335,comp,2024.2.4,62.65242226524222,2025-03-04 12h05.36.011457 -0500,
132,132,0,filler_random,None,None,None,None,None,None,None,None,None,None,2,1.7835516929626465,None,,,,,0,0,0,0,0,132,132,158,379.04602694511414,,,,,,,,,,,,,,,,,,,,,,,,,,,,,,,,,,,,,,,,,,,,,,,,,,,,,,,,,,,,,,,,,,,,,,,,,,,,,,,,,143.89710839418552,124.12166528577171,169.16897486784416,163.4379365737887,164.79435966566655,74.29971316351143,2.2,2.21,-240,-256,0,252,215,254,379.03155159950256,379.0315945148468,379.0337781906128,379.04602694511414,379.19602251052856,379.19602251052856,379.19602251052856,379.19602251052856,379.19602251052856,379.19602251052856,379.19602251052856,380.8470232486725,2,1.7835516929626465,None,,,,,,,,,,,,,,,,,,183,3,2025-03-04_12h03.48.335,comp,2024.2.4,62.65242226524222,2025-03-04 12h05.36.011457 -0500,
133,133,0,critical,dhw,35.0,2.1,lower,70.0,70.0,133.0,57.0,57.0,133.0,2,1.9023709297180176,None,,,,,0,0,0,0,0,133,133,0,380.8623569011688,,,,,,,,,,,,,,,,,,,,,,,,,,,,,,,,,,,,,,,,,,,,,,,,,,,,,,,,,,,,,,,,,,,,,,,,,,,,,,,,,70.0,70.0,133.0,57.0,57.0,133.0,2.1,2.11,-160,263,0,278,191,-264,380.84779930114746,380.8478376865387,380.84992265701294,380.8623569011688,381.01256942749023,381.01256942749023,381.01256942749023,381.01256942749023,381.01256942749023,381.01256942749023,381.01256942749023,382.78018975257874,2,1.9023709297180176,None,,,,,,,,,,,,,,,,,,183,3,2025-03-04_12h03.48.335,comp,2024.2.4,62.65242226524222,2025-03-04 12h05.36.011457 -0500,
134,134,0,filler_random,None,None,None,None,None,None,None,None,None,None,2,1.5049571990966797,None,,,,,0,0,0,0,0,134,134,161,382.79563760757446,,,,,,,,,,,,,,,,,,,,,,,,,,,,,,,,,,,,,,,,,,,,,,,,,,,,,,,,,,,,,,,,,,,,,,,,,,,,,,,,,161.95128583622895,89.56483722449649,165.66557338105574,163.4891064602383,68.80958701980198,108.73841776145531,2.1,2.11,-223,253,0,289,232,-255,382.7810938358307,382.78113532066345,382.7835705280304,382.79563760757446,382.9459865093231,382.9459865093231,382.9459865093231,382.9459865093231,382.9459865093231,382.9459865093231,382.9459865093231,384.31375670433044,2,1.5049571990966797,None,,,,,,,,,,,,,,,,,,183,3,2025-03-04_12h03.48.335,comp,2024.2.4,62.65242226524222,2025-03-04 12h05.36.011457 -0500,
135,135,0,filler_square,None,None,None,None,None,None,None,None,None,None,3,1.3395907878875732,None,,,,,0,0,0,0,0,135,135,195,384.3290104866028,,,,,,,,,,,,,,,,,,,,,,,,,,,,,,,,,,,,,,,,,,,,,,,,,,,,,,,,,,,,,,,,,,,,,,,,,,,,,,,,,116.64263907866253,117.55577124366945,79.51381214274511,121.32543543517637,127.97003217531886,127.97003217531886,2.2,2.22,-215,265,0,-274,221,-257,384.31472969055176,384.3147714138031,384.3173508644104,384.3290104866028,384.47916650772095,384.47916650772095,384.47916650772095,384.47916650772095,384.47916650772095,384.47916650772095,384.47916650772095,385.68054580688477,3,1.3395907878875732,None,,,,,,,,,,,,,,,,,,183,3,2025-03-04_12h03.48.335,comp,2024.2.4,62.65242226524222,2025-03-04 12h05.36.011457 -0500,
136,136,0,filler_random,None,None,None,None,None,None,None,None,None,None,2,2.8690855503082275,None,,,,,0,0,0,0,0,136,136,145,385.69569873809814,,,,,,,,,,,,,,,,,,,,,,,,,,,,,,,,,,,,,,,,,,,,,,,,,,,,,,,,,,,,,,,,,,,,,,,,,,,,,,,,,118.1754731273373,102.6065909613431,141.26075120806203,95.83927667738362,145.20168592076175,72.47529135484199,2.2,2.22,-195,287,0,-268,180,-267,385.6814696788788,385.6815116405487,385.6840190887451,385.69569873809814,385.845844745636,385.845844745636,385.845844745636,385.845844745636,385.845844745636,385.845844745636,385.845844745636,388.58040833473206,2,2.8690855503082275,None,,,,,,,,,,,,,,,,,,183,3,2025-03-04_12h03.48.335,comp,2024.2.4,62.65242226524222,2025-03-04 12h05.36.011457 -0500,
137,137,0,critical,whd,20.0,3.0,upper,125.0,200.0,200.0,125.0,141.0,141.0,1,2.704861879348755,None,,,,,0,0,0,0,0,137,137,93,388.5956666469574,,,,,,,,,,,,,,,,,,,,,,,,,,,,,,,,,,,,,,,,,,,,,,,,,,,,,,,,,,,,,,,,,,,,,,,,,,,,,,,,,125.0,200.0,200.0,125.0,141.0,141.0,3.0,3.2,-258,-283,0,19,229,265,388.5812382698059,388.58127903938293,388.58372616767883,388.5956666469574,388.74595308303833,388.74595308303833,388.74595308303833,388.74595308303833,388.74595308303833,388.74595308303833,388.74595308303833,391.31381249427795,1,2.704861879348755,None,,,,,,,,,,,,,,,,,,183,3,2025-03-04_12h03.48.335,comp,2024.2.4,62.65242226524222,2025-03-04 12h05.36.011457 -0500,
138,138,0,critical,dwh,35.0,3.0,upper,127.0,127.0,125.0,200.0,200.0,125.0,2,1.8283846378326416,None,,,,,0,0,0,0,0,138,138,63,391.3290145397186,,,,,,,,,,,,,,,,,,,,,,,,,,,,,,,,,,,,,,,,,,,,,,,,,,,,,,,,,,,,,,,,,,,,,,,,,,,,,,,,,127.0,127.0,125.0,200.0,200.0,125.0,3.0,3.2,-260,-257,0,1,258,268,391.31463265419006,391.31467390060425,391.3172585964203,391.3290145397186,391.47930812835693,391.47930812835693,391.47930812835693,391.47930812835693,391.47930812835693,391.47930812835693,391.47930812835693,393.1637418270111,2,1.8283846378326416,None,,,,,,,,,,,,,,,,,,183,3,2025-03-04_12h03.48.335,comp,2024.2.4,62.65242226524222,2025-03-04 12h05.36.011457 -0500,
139,139,0,filler_random,None,None,None,None,None,None,None,None,None,None,3,1.1854658126831055,None,,,,,0,0,0,0,0,139,139,134,393.1792812347412,,,,,,,,,,,,,,,,,,,,,,,,,,,,,,,,,,,,,,,,,,,,,,,,,,,,,,,,,,,,,,,,,,,,,,,,,,,,,,,,,130.9078974869138,141.32166428061944,82.50425653442946,115.95007522606399,170.32980731936604,183.7331796058358,1.0,1.2,-225,16,0,-4,246,-8,393.1646411418915,393.16468143463135,393.16674518585205,393.1792812347412,393.3292818069458,393.3292818069458,393.3292818069458,393.3292818069458,393.3292818069458,393.3292818069458,393.3292818069458,394.38030219078064,3,1.1854658126831055,None,,,,,,,,,,,,,,,,,,183,3,2025-03-04_12h03.48.335,comp,2024.2.4,62.65242226524222,2025-03-04 12h05.36.011457 -0500,
