thisN,thisTrialN,thisRepN,effect,order,distance,config,diag,h_1,w_1,h_2,w_2,h_3,w_3,rect_choice.keys,rect_choice.rt,rect_choice.duration,instructions_loop.thisRepN,instructions_loop.thisTrialN,instructions_loop.thisN,instructions_loop.thisIndex,blocks.thisRepN,blocks.thisTrialN,blocks.thisN,blocks.thisIndex,trials.thisRepN,trials.thisTrialN,trials.thisN,trials.thisIndex,thisRow.t,notes,consent.started,agree_button.started,decline_button.started,consent_img.started,mouse.started,consent.stopped,agree_button.numClicks,agree_button.timesOn,agree_button.timesOff,decline_button.numClicks,decline_button.timesOn,decline_button.timesOff,mouse.x,mouse.y,mouse.leftButton,mouse.midButton,mouse.rightButton,mouse.time,mouse.clicked_name,exp_params.started,exp_params.stopped,welcome.started,welcome_text.started,welcome.stopped,instructions_1.started,instructions_1_text_1.started,instructions_1_text_2.started,key_resp.started,instructions_1.stopped,instructions_loop.key_resp.keys,instructions_loop.key_resp.rt,instructions_loop.key_resp.duration,instructions_2.started,instructions_2_text_1.started,instructions_2_text_2.started,key_resp_2.started,instructions_2.stopped,instructions_loop.key_resp_2.keys,instructions_loop.key_resp_2.rt,instructions_loop.key_resp_2.duration,instructions_3.started,instructions_3_text_1.started,r1_instr3.started,r2_instr3.started,r3_instr3.started,r1_instr3_label.started,r2_instr3_label.started,r3_instr3_label.started,instructions_3_text_3.started,instructions_3_text_4.started,key_resp_3.started,instructions_3.stopped,instructions_loop.key_resp_3.keys,instructions_loop.key_resp_3.rt,instructions_loop.key_resp_3.duration,instructions_4.started,instructions_4_text_1.started,instructions_4_text_3.started,instructions_4_text_2.started,key_resp_4.started,instructions_4.stopped,instructions_loop.key_resp_4.keys,instructions_loop.key_resp_4.rt,instructions_loop.key_resp_4.duration,instructions_5.started,instructions_5_text_1.started,instructions_5_text_2.started,key_resp_5.started,instructions_5.stopped,instructions_loop.key_resp_5.keys,instructions_loop.key_resp_5.rt,instructions_loop.key_resp_5.duration,start_exp.started,start_exp_text.started,key_resp_6.started,start_exp.stopped,key_resp_6.keys,key_resp_6.rt,key_resp_6.duration,h_1_tmp,w_1_tmp,h_2_tmp,w_2_tmp,h_3_tmp,w_3_tmp,config_tmp,config_tmp_1,r_1_x,r_1_y,r_2_x,r_2_y,r_3_x,r_3_y,pre_trial.started,pre_trial.stopped,choice_trial.started,rect_choice.started,r_1.started,r_2.started,r_3.started,r_1_label.started,r_2_label.started,r_3_label.started,prompt.started,choice_trial.stopped,trials.rect_choice.keys,trials.rect_choice.rt,trials.rect_choice.duration,end_block.started,end_block_text.started,end_block.stopped,end.started,end_text.started,key_resp_7.started,end.stopped,key_resp_7.keys,key_resp_7.rt,key_resp_7.duration,debriefing.started,debrief_form.started,end_debrief.started,debriefing.stopped,end_debrief.keys,end_debrief.rt,end_debrief.duration,participant,computer,date,expName,psychopyVersion,frameRate,expStart,
,,,,,,,,,,,,,,,,,,,,,,,,,,,,,,,0.014742136001586914,0.03489065170288086,0.03489065170288086,0.03489065170288086,0.014547348022460938,33.56444692611694,1,[33.52721071243286],[33.52723264694214],0,,,[-46.0],[-509.0],[1],[0],[0],[33.54930806159973],['agree_button'],,,,,,,,,,,,,,,,,,,,,,,,,,,,,,,,,,,,,,,,,,,,,,,,,,,,,,,,,,,,,,,,,,,,,,,,,,,,,,,,,,,,,,,,,,,,,,,,,,,,,,,,,,,184,4,2025-03-04_12h04.55.135,comp,2024.2.4,None,2025-03-04 12h06.21.965610 -0500,
,,,,,,,,,,,,,,,,,,,,,,,,,,,,,,,,,,,,,,,,,,,,,,,,,,33.564980268478394,33.56504487991333,,,,,,,,,,,,,,,,,,,,,,,,,,,,,,,,,,,,,,,,,,,,,,,,,,,,,,,,,,,,,,,,,,,,,,,,,,,,,,,,,,,,,,,,,,,,,,,,,,,,,,,,,184,4,2025-03-04_12h04.55.135,comp,2024.2.4,None,2025-03-04 12h06.21.965610 -0500,
,,,,,,,,,,,,,,,,,,,,,,,,,,,,,,,,,,,,,,,,,,,,,,,,,,,,33.56508803367615,33.583537101745605,35.58137369155884,,,,,,,,,,,,,,,,,,,,,,,,,,,,,,,,,,,,,,,,,,,,,,,,,,,,,,,,,,,,,,,,,,,,,,,,,,,,,,,,,,,,,,,,,,,,,,,,,,,,,,184,4,2025-03-04_12h04.55.135,comp,2024.2.4,None,2025-03-04 12h06.21.965610 -0500,
0,0,0,,,,,,,,,,,,,,,0,0,0,0,,,,,,,,,35.597904920578,,,,,,,,,,,,,,,,,,,,,,,,,,35.58226013183594,35.597904920578,35.597904920578,37.065537214279175,38.666534662246704,space,1.587165355682373,None,38.66668081283569,38.6822144985199,38.6822144985199,40.181159019470215,48.15787100791931,space,7.967687129974365,None,48.15802216529846,48.18773913383484,48.18773913383484,48.18773913383484,48.18773913383484,48.18773913383484,48.18773913383484,48.18773913383484,48.18773913383484,48.18773913383484,49.66146469116211,59.093305826187134,space,9.423765420913696,None,59.09346580505371,59.111310958862305,59.111310958862305,59.111310958862305,60.594661474227905,64.97456884384155,space,4.378093242645264,None,64.9747211933136,64.99414253234863,64.99414253234863,66.47388887405396,67.10945272445679,space,0.6272804737091064,None,67.10964679718018,67.12146949768066,67.12146949768066,68.52463936805725,space,1.3971467018127441,None,,,,,,,,,,,,,,,,,,,,,,,,,,,,,,,,,,,,,,,,,,,,,,,184,4,2025-03-04_12h04.55.135,comp,2024.2.4,None,2025-03-04 12h06.21.965610 -0500,
0,0,0,catch,None,None,None,None,None,None,None,None,None,None,3,4.505121946334839,None,,,,,0,0,0,0,0,0,0,124,68.60388731956482,,,,,,,,,,,,,,,,,,,,,,,,,,,,,,,,,,,,,,,,,,,,,,,,,,,,,,,,,,,,,,,,,,,,,,,,,,,,,,,,,77,113,96,94,132,193,3.0,3.1,-200,277,0,13,240,-276,68.58734464645386,68.58738207817078,68.5888569355011,68.60388731956482,68.75425815582275,68.75425815582275,68.75425815582275,68.75425815582275,68.75425815582275,68.75425815582275,68.75425815582275,73.11112070083618,3,4.505121946334839,None,,,,,,,,,,,,,,,,,,184,4,2025-03-04_12h04.55.135,comp,2024.2.4,None,2025-03-04 12h06.21.965610 -0500,
1,1,0,filler_square,None,None,None,None,None,None,None,None,None,None,1,5.15821647644043,None,,,,,0,0,0,0,0,1,1,180,73.12673568725586,,,,,,,,,,,,,,,,,,,,,,,,,,,,,,,,,,,,,,,,,,,,,,,,,,,,,,,,,,,,,,,,,,,,,,,,,,,,,,,,,87.10734913885088,87.10734913885088,83.57598129283127,65.7560272552263,80.90349432391827,64.80888257710815,4.0,4.1,-172,-259,0,10,161,-289,73.11277937889099,73.11288666725159,73.1159815788269,73.12673568725586,73.28079652786255,73.28079652786255,73.28079652786255,73.28079652786255,73.28079652786255,73.28079652786255,73.28079652786255,78.29464840888977,1,5.15821647644043,None,,,,,,,,,,,,,,,,,,184,4,2025-03-04_12h04.55.135,comp,2024.2.4,None,2025-03-04 12h06.21.965610 -0500,
2,2,0,filler_square,None,None,None,None,None,None,None,None,None,None,3,2.996361017227173,None,,,,,0,0,0,0,0,2,2,188,78.31292843818665,,,,,,,,,,,,,,,,,,,,,,,,,,,,,,,,,,,,,,,,,,,,,,,,,,,,,,,,,,,,,,,,,,,,,,,,,,,,,,,,,102.68896368671795,60.93899398012246,68.42876884057974,62.36707919224842,151.63040588985467,151.63040588985467,2.2,2.21,-158,-264,0,264,203,255,78.29640531539917,78.29652190208435,78.30022501945496,78.31292843818665,78.46391177177429,78.46391177177429,78.46391177177429,78.46391177177429,78.46391177177429,78.46391177177429,78.46391177177429,81.3181824684143,3,2.996361017227173,None,,,,,,,,,,,,,,,,,,184,4,2025-03-04_12h04.55.135,comp,2024.2.4,None,2025-03-04 12h06.21.965610 -0500,
3,3,0,filler_random,None,None,None,None,None,None,None,None,None,None,1,6.050124645233154,None,,,,,0,0,0,0,0,3,3,133,81.33855867385864,,,,,,,,,,,,,,,,,,,,,,,,,,,,,,,,,,,,,,,,,,,,,,,,,,,,,,,,,,,,,,,,,,,,,,,,,,,,,,,,,113.34089385649324,135.1602164104944,92.59692141900626,130.8039198357405,74.81063502193737,94.56271110592758,1.0,1.3,251,-269,480,-280,689,-276,81.32021760940552,81.32029461860657,81.32322549819946,81.33855867385864,81.4804539680481,81.4804539680481,81.4804539680481,81.4804539680481,81.4804539680481,81.4804539680481,81.4804539680481,87.40025424957275,1,6.050124645233154,None,,,,,,,,,,,,,,,,,,184,4,2025-03-04_12h04.55.135,comp,2024.2.4,None,2025-03-04 12h06.21.965610 -0500,
4,4,0,critical,wdh,35.0,2.1,lower,57.0,133.0,70.0,70.0,133.0,57.0,1,5.828733444213867,None,,,,,0,0,0,0,0,4,4,8,87.41638684272766,,,,,,,,,,,,,,,,,,,,,,,,,,,,,,,,,,,,,,,,,,,,,,,,,,,,,,,,,,,,,,,,,,,,,,,,,,,,,,,,,57.0,133.0,70.0,70.0,133.0,57.0,2.1,2.11,-198,255,0,277,160,-271,87.40183591842651,87.40196466445923,87.4055552482605,87.41638684272766,87.57423830032349,87.57423830032349,87.57423830032349,87.57423830032349,87.57423830032349,87.57423830032349,87.57423830032349,93.25115156173706,1,5.828733444213867,None,,,,,,,,,,,,,,,,,,184,4,2025-03-04_12h04.55.135,comp,2024.2.4,None,2025-03-04 12h06.21.965610 -0500,
5,5,0,critical,wdh,20.0,1.0,upper,125.0,200.0,141.0,141.0,200.0,125.0,1,6.217726230621338,None,,,,,0,0,0,0,0,5,5,79,93.26691746711731,,,,,,,,,,,,,,,,,,,,,,,,,,,,,,,,,,,,,,,,,,,,,,,,,,,,,,,,,,,,,,,,,,,,,,,,,,,,,,,,,125.0,200.0,141.0,141.0,200.0,125.0,1.0,1.1,-746,290,-480,283,-251,278,93.25271606445312,93.25279116630554,93.25623559951782,93.26691746711731,93.41761898994446,93.41761898994446,93.41761898994446,93.41761898994446,93.41761898994446,93.41761898994446,93.41761898994446,99.501948595047,1,6.217726230621338,None,,,,,,,,,,,,,,,,,,184,4,2025-03-04_12h04.55.135,comp,2024.2.4,None,2025-03-04 12h06.21.965610 -0500,
6,6,0,filler_random,None,None,None,None,None,None,None,None,None,None,3,2.7545368671417236,None,,,,,0,0,0,0,0,6,6,134,99.52208280563354,,,,,,,,,,,,,,,,,,,,,,,,,,,,,,,,,,,,,,,,,,,,,,,,,,,,,,,,,,,,,,,,,,,,,,,,,,,,,,,,,197.52739557781507,75.6144304161074,147.90400378835142,153.40632520916046,181.42036782611868,182.12936387194364,3.0,3.2,-211,-257,0,6,264,282,99.50365376472473,99.50378060340881,99.50710725784302,99.52208280563354,99.6692864894867,99.6692864894867,99.6692864894867,99.6692864894867,99.6692864894867,99.6692864894867,99.6692864894867,102.28798961639404,3,2.7545368671417236,None,,,,,,,,,,,,,,,,,,184,4,2025-03-04_12h04.55.135,comp,2024.2.4,None,2025-03-04 12h06.21.965610 -0500,
7,7,0,critical,wdh,35.0,2.1,upper,125.0,200.0,127.0,127.0,200.0,125.0,1,4.012405872344971,None,,,,,0,0,0,0,0,7,7,9,102.3045117855072,,,,,,,,,,,,,,,,,,,,,,,,,,,,,,,,,,,,,,,,,,,,,,,,,,,,,,,,,,,,,,,,,,,,,,,,,,,,,,,,,125.0,200.0,127.0,127.0,200.0,125.0,2.1,2.12,-260,-257,0,-287,222,289,102.28944659233093,102.28955745697021,102.29358291625977,102.3045117855072,102.4544906616211,102.4544906616211,102.4544906616211,102.4544906616211,102.4544906616211,102.4544906616211,102.4544906616211,106.32129979133606,1,4.012405872344971,None,,,,,,,,,,,,,,,,,,184,4,2025-03-04_12h04.55.135,comp,2024.2.4,None,2025-03-04 12h06.21.965610 -0500,
8,8,0,filler_square,None,None,None,None,None,None,None,None,None,None,2,4.298088788986206,None,,,,,0,0,0,0,0,8,8,181,106.33934044837952,,,,,,,,,,,,,,,,,,,,,,,,,,,,,,,,,,,,,,,,,,,,,,,,,,,,,,,,,,,,,,,,,,,,,,,,,,,,,,,,,105.49641006247526,69.45897750352879,108.37158580641722,108.37158580641722,73.80023216007139,69.84283530376001,3.0,3.1,-185,263,0,9,185,-272,106.32302975654602,106.32310652732849,106.32622194290161,106.33934044837952,106.48890137672424,106.48890137672424,106.48890137672424,106.48890137672424,106.48890137672424,106.48890137672424,106.48890137672424,110.64404559135437,2,4.298088788986206,None,,,,,,,,,,,,,,,,,,184,4,2025-03-04_12h04.55.135,comp,2024.2.4,None,2025-03-04 12h06.21.965610 -0500,
9,9,0,critical,hwd,20.0,1.0,upper,200.0,125.0,125.0,200.0,141.0,141.0,2,4.629855394363403,None,,,,,0,0,0,0,0,9,9,103,110.66294193267822,,,,,,,,,,,,,,,,,,,,,,,,,,,,,,,,,,,,,,,,,,,,,,,,,,,,,,,,,,,,,,,,,,,,,,,,,,,,,,,,,200.0,125.0,125.0,200.0,141.0,141.0,1.0,1.2,-258,-13,0,-11,266,5,110.64553260803223,110.6456081867218,110.64851760864258,110.66294193267822,110.81215000152588,110.81215000152588,110.81215000152588,110.81215000152588,110.81215000152588,110.81215000152588,110.81215000152588,115.30742955207825,2,4.629855394363403,None,,,,,,,,,,,,,,,,,,184,4,2025-03-04_12h04.55.135,comp,2024.2.4,None,2025-03-04 12h06.21.965610 -0500,
10,10,0,critical,wdh,20.0,4.0,lower,57.0,133.0,78.0,78.0,133.0,57.0,1,5.794163703918457,None,,,,,0,0,0,0,0,10,10,82,115.32262778282166,,,,,,,,,,,,,,,,,,,,,,,,,,,,,,,,,,,,,,,,,,,,,,,,,,,,,,,,,,,,,,,,,,,,,,,,,,,,,,,,,57.0,133.0,78.0,78.0,133.0,57.0,4.0,4.1,-202,-267,0,-17,164,-276,115.30899953842163,115.30908441543579,115.3123209476471,115.32262778282166,115.47807884216309,115.47807884216309,115.47807884216309,115.47807884216309,115.47807884216309,115.47807884216309,115.47807884216309,121.13461232185364,1,5.794163703918457,None,,,,,,,,,,,,,,,,,,184,4,2025-03-04_12h04.55.135,comp,2024.2.4,None,2025-03-04 12h06.21.965610 -0500,
11,11,0,filler_random,None,None,None,None,None,None,None,None,None,None,1,4.220302104949951,None,,,,,0,0,0,0,0,11,11,141,121.15193319320679,,,,,,,,,,,,,,,,,,,,,,,,,,,,,,,,,,,,,,,,,,,,,,,,,,,,,,,,,,,,,,,,,,,,,,,,,,,,,,,,,169.3562738834661,134.28412549583334,82.57569159754212,167.65537535466365,88.21174378343628,188.56126159511334,1.0,1.3,233,-254,480,-254,754,-256,121.1362316608429,121.13630628585815,121.13915157318115,121.15193319320679,121.29333758354187,121.29333758354187,121.29333758354187,121.29333758354187,121.29333758354187,121.29333758354187,121.29333758354187,125.37714290618896,1,4.220302104949951,None,,,,,,,,,,,,,,,,,,184,4,2025-03-04_12h04.55.135,comp,2024.2.4,None,2025-03-04 12h06.21.965610 -0500,
12,12,0,critical,wdh,35.0,4.0,upper,125.0,200.0,127.0,127.0,200.0,125.0,1,4.6042091846466064,None,,,,,0,0,0,0,0,12,12,77,125.39261627197266,,,,,,,,,,,,,,,,,,,,,,,,,,,,,,,,,,,,,,,,,,,,,,,,,,,,,,,,,,,,,,,,,,,,,,,,,,,,,,,,,125.0,200.0,127.0,127.0,200.0,125.0,4.0,4.2,-260,15,0,-277,222,17,125.37855625152588,125.37863326072693,125.38187170028687,125.39261627197266,125.54158329963684,125.54158329963684,125.54158329963684,125.54158329963684,125.54158329963684,125.54158329963684,125.54158329963684,130.0140311717987,1,4.6042091846466064,None,,,,,,,,,,,,,,,,,,184,4,2025-03-04_12h04.55.135,comp,2024.2.4,None,2025-03-04 12h06.21.965610 -0500,
13,13,0,catch,None,None,None,None,None,None,None,None,None,None,3,2.101978302001953,None,,,,,0,0,0,0,0,13,13,120,130.03085255622864,,,,,,,,,,,,,,,,,,,,,,,,,,,,,,,,,,,,,,,,,,,,,,,,,,,,,,,,,,,,,,,,,,,,,,,,,,,,,,,,,123,67,81,109,131,194,4.0,4.2,-184,-18,0,-264,248,-12,130.016131401062,130.01620841026306,130.01947355270386,130.03085255622864,130.17863607406616,130.17863607406616,130.17863607406616,130.17863607406616,130.17863607406616,130.17863607406616,130.17863607406616,132.1479036808014,3,2.101978302001953,None,,,,,,,,,,,,,,,,,,184,4,2025-03-04_12h04.55.135,comp,2024.2.4,None,2025-03-04 12h06.21.965610 -0500,
14,14,0,filler_square,None,None,None,None,None,None,None,None,None,None,3,2.9608025550842285,None,,,,,0,0,0,0,0,14,14,172,132.1640853881836,,,,,,,,,,,,,,,,,,,,,,,,,,,,,,,,,,,,,,,,,,,,,,,,,,,,,,,,,,,,,,,,,,,,,,,,,,,,,,,,,90.9717759027595,87.72223188244854,67.85646705881267,80.4439175486896,120.9223373953358,120.9223373953358,2.1,2.12,-180,-260,0,-268,197,260,132.1497905254364,132.149911403656,132.15373158454895,132.1640853881836,132.3125638961792,132.3125638961792,132.3125638961792,132.3125638961792,132.3125638961792,132.3125638961792,132.3125638961792,135.12723183631897,3,2.9608025550842285,None,,,,,,,,,,,,,,,,,,184,4,2025-03-04_12h04.55.135,comp,2024.2.4,None,2025-03-04 12h06.21.965610 -0500,
15,15,0,filler_random,None,None,None,None,None,None,None,None,None,None,2,3.214282512664795,None,,,,,0,0,0,0,0,15,15,152,135.1432363986969,,,,,,,,,,,,,,,,,,,,,,,,,,,,,,,,,,,,,,,,,,,,,,,,,,,,,,,,,,,,,,,,,,,,,,,,,,,,,,,,,63.8598818476341,171.77137817124344,104.63256271910736,196.54516568678252,59.2619763796996,69.38733155089567,2.2,2.21,-280,-283,0,261,229,261,135.12898802757263,135.12912130355835,135.13235592842102,135.1432363986969,135.2853126525879,135.2853126525879,135.2853126525879,135.2853126525879,135.2853126525879,135.2853126525879,135.2853126525879,138.36364603042603,2,3.214282512664795,None,,,,,,,,,,,,,,,,,,184,4,2025-03-04_12h04.55.135,comp,2024.2.4,None,2025-03-04 12h06.21.965610 -0500,
16,16,0,filler_square,None,None,None,None,None,None,None,None,None,None,3,3.9611308574676514,None,,,,,0,0,0,0,0,16,16,198,138.38178873062134,,,,,,,,,,,,,,,,,,,,,,,,,,,,,,,,,,,,,,,,,,,,,,,,,,,,,,,,,,,,,,,,,,,,,,,,,,,,,,,,,119.76997055553076,93.75620270991905,137.24464873487818,114.8411565869593,157.20251908524864,157.20251908524864,2.1,2.11,-200,266,0,283,232,-278,138.36541509628296,138.3654932975769,138.36852359771729,138.38178873062134,138.5338592529297,138.5338592529297,138.5338592529297,138.5338592529297,138.5338592529297,138.5338592529297,138.5338592529297,142.35368967056274,3,3.9611308574676514,None,,,,,,,,,,,,,,,,,,184,4,2025-03-04_12h04.55.135,comp,2024.2.4,None,2025-03-04 12h06.21.965610 -0500,
17,17,0,filler_random,None,None,None,None,None,None,None,None,None,None,3,1.9631614685058594,None,,,,,0,0,0,0,0,17,17,132,142.36985898017883,,,,,,,,,,,,,,,,,,,,,,,,,,,,,,,,,,,,,,,,,,,,,,,,,,,,,,,,,,,,,,,,,,,,,,,,,,,,,,,,,138.99869651123106,63.83428856180252,147.6412207650232,85.31333535790917,175.1634248734483,184.5527177583768,2.1,2.11,-171,252,0,275,231,-269,142.35538911819458,142.35546350479126,142.35892534255981,142.36985898017883,142.52239418029785,142.52239418029785,142.52239418029785,142.52239418029785,142.52239418029785,142.52239418029785,142.52239418029785,144.35058403015137,3,1.9631614685058594,None,,,,,,,,,,,,,,,,,,184,4,2025-03-04_12h04.55.135,comp,2024.2.4,None,2025-03-04 12h06.21.965610 -0500,
18,18,0,critical,dwh,20.0,2.1,upper,141.0,141.0,125.0,200.0,200.0,125.0,2,3.2768797874450684,None,,,,,0,0,0,0,0,18,18,31,144.36856865882874,,,,,,,,,,,,,,,,,,,,,,,,,,,,,,,,,,,,,,,,,,,,,,,,,,,,,,,,,,,,,,,,,,,,,,,,,,,,,,,,,141.0,141.0,125.0,200.0,200.0,125.0,2.1,2.11,-266,253,0,277,258,-280,144.35218501091003,144.35226011276245,144.35571575164795,144.36856865882874,144.5175895690918,144.5175895690918,144.5175895690918,144.5175895690918,144.5175895690918,144.5175895690918,144.5175895690918,147.6532952785492,2,3.2768797874450684,None,,,,,,,,,,,,,,,,,,184,4,2025-03-04_12h04.55.135,comp,2024.2.4,None,2025-03-04 12h06.21.965610 -0500,
19,19,0,critical,hwd,20.0,1.0,lower,133.0,57.0,57.0,133.0,78.0,78.0,2,9.111908197402954,None,,,,,0,0,0,0,0,19,19,102,147.66956424713135,,,,,,,,,,,,,,,,,,,,,,,,,,,,,,,,,,,,,,,,,,,,,,,,,,,,,,,,,,,,,,,,,,,,,,,,,,,,,,,,,133.0,57.0,57.0,133.0,78.0,78.0,1.0,1.3,289,-251,480,-262,682,-279,147.6549904346466,147.6550943851471,147.65852284431458,147.66956424713135,147.81790804862976,147.81790804862976,147.81790804862976,147.81790804862976,147.81790804862976,147.81790804862976,147.81790804862976,156.7887089252472,2,9.111908197402954,None,,,,,,,,,,,,,,,,,,184,4,2025-03-04_12h04.55.135,comp,2024.2.4,None,2025-03-04 12h06.21.965610 -0500,
20,20,0,critical,whd,20.0,2.1,upper,125.0,200.0,200.0,125.0,141.0,141.0,1,4.518999814987183,None,,,,,0,0,0,0,0,20,20,39,156.80574822425842,,,,,,,,,,,,,,,,,,,,,,,,,,,,,,,,,,,,,,,,,,,,,,,,,,,,,,,,,,,,,,,,,,,,,,,,,,,,,,,,,125.0,200.0,200.0,125.0,141.0,141.0,2.1,2.12,-258,-265,0,-288,229,268,156.79044580459595,156.79052448272705,156.79395270347595,156.80574822425842,156.95403170585632,156.95403170585632,156.95403170585632,156.95403170585632,156.95403170585632,156.95403170585632,156.95403170585632,161.34079599380493,1,4.518999814987183,None,,,,,,,,,,,,,,,,,,184,4,2025-03-04_12h04.55.135,comp,2024.2.4,None,2025-03-04 12h06.21.965610 -0500,
21,21,0,filler_random,None,None,None,None,None,None,None,None,None,None,1,2.0402109622955322,None,,,,,0,0,0,0,0,21,21,157,161.35652327537537,,,,,,,,,,,,,,,,,,,,,,,,,,,,,,,,,,,,,,,,,,,,,,,,,,,,,,,,,,,,,,,,,,,,,,,,,,,,,,,,,191.66644322099526,147.9873423392715,61.30172474888536,158.77817148039014,96.11670516502232,57.3365281864355,2.2,2.22,-249,267,0,-271,204,-271,161.34262919425964,161.34275364875793,161.34612250328064,161.35652327537537,161.5085597038269,161.5085597038269,161.5085597038269,161.5085597038269,161.5085597038269,161.5085597038269,161.5085597038269,163.40592789649963,1,2.0402109622955322,None,,,,,,,,,,,,,,,,,,184,4,2025-03-04_12h04.55.135,comp,2024.2.4,None,2025-03-04 12h06.21.965610 -0500,
22,22,0,critical,dhw,35.0,1.0,upper,127.0,127.0,200.0,125.0,125.0,200.0,3,3.0385663509368896,None,,,,,0,0,0,0,0,22,22,49,163.4221601486206,,,,,,,,,,,,,,,,,,,,,,,,,,,,,,,,,,,,,,,,,,,,,,,,,,,,,,,,,,,,,,,,,,,,,,,,,,,,,,,,,127.0,127.0,200.0,125.0,125.0,200.0,1.0,1.2,-222,-18,0,0,258,-5,163.4073669910431,163.40744352340698,163.4113790988922,163.4221601486206,163.5736379623413,163.5736379623413,163.5736379623413,163.5736379623413,163.5736379623413,163.5736379623413,163.5736379623413,166.47187638282776,3,3.0385663509368896,None,,,,,,,,,,,,,,,,,,184,4,2025-03-04_12h04.55.135,comp,2024.2.4,None,2025-03-04 12h06.21.965610 -0500,
23,23,0,filler_random,None,None,None,None,None,None,None,None,None,None,3,1.948352575302124,None,,,,,0,0,0,0,0,23,23,169,166.4883360862732,,,,,,,,,,,,,,,,,,,,,,,,,,,,,,,,,,,,,,,,,,,,,,,,,,,,,,,,,,,,,,,,,,,,,,,,,,,,,,,,,99.77867231983234,158.00127041202063,134.94345861213543,141.60659041960315,162.82196814960176,191.00168804649377,4.0,4.2,-246,-1,0,-276,262,5,166.47348737716675,166.4735643863678,166.47654700279236,166.4883360862732,166.63966846466064,166.63966846466064,166.63966846466064,166.63966846466064,166.63966846466064,166.63966846466064,166.63966846466064,168.4474983215332,3,1.948352575302124,None,,,,,,,,,,,,,,,,,,184,4,2025-03-04_12h04.55.135,comp,2024.2.4,None,2025-03-04 12h06.21.965610 -0500,
24,24,0,critical,hwd,35.0,1.0,upper,200.0,125.0,125.0,200.0,127.0,127.0,2,2.4205212593078613,None,,,,,0,0,0,0,0,24,24,97,168.46425795555115,,,,,,,,,,,,,,,,,,,,,,,,,,,,,,,,,,,,,,,,,,,,,,,,,,,,,,,,,,,,,,,,,,,,,,,,,,,,,,,,,200.0,125.0,125.0,200.0,127.0,127.0,1.0,1.1,-738,260,-480,259,-220,287,168.44911551475525,168.44919300079346,168.4524416923523,168.46425795555115,168.6050889492035,168.6050889492035,168.6050889492035,168.6050889492035,168.6050889492035,168.6050889492035,168.6050889492035,170.89750981330872,2,2.4205212593078613,None,,,,,,,,,,,,,,,,,,184,4,2025-03-04_12h04.55.135,comp,2024.2.4,None,2025-03-04 12h06.21.965610 -0500,
25,25,0,critical,hdw,20.0,2.1,lower,133.0,57.0,78.0,78.0,57.0,133.0,3,2.900350570678711,None,,,,,0,0,0,0,0,25,25,22,170.91357111930847,,,,,,,,,,,,,,,,,,,,,,,,,,,,,,,,,,,,,,,,,,,,,,,,,,,,,,,,,,,,,,,,,,,,,,,,,,,,,,,,,133.0,57.0,78.0,78.0,57.0,133.0,2.1,2.12,-164,-286,0,-262,202,283,170.89914202690125,170.8992280960083,170.90257287025452,170.91357111930847,171.05810356140137,171.05810356140137,171.05810356140137,171.05810356140137,171.05810356140137,171.05810356140137,171.05810356140137,173.82597064971924,3,2.900350570678711,None,,,,,,,,,,,,,,,,,,184,4,2025-03-04_12h04.55.135,comp,2024.2.4,None,2025-03-04 12h06.21.965610 -0500,
26,26,0,filler_square,None,None,None,None,None,None,None,None,None,None,3,2.53263258934021,None,,,,,0,0,0,0,0,26,26,179,173.8399474620819,,,,,,,,,,,,,,,,,,,,,,,,,,,,,,,,,,,,,,,,,,,,,,,,,,,,,,,,,,,,,,,,,,,,,,,,,,,,,,,,,104.92978711307006,64.82371763658,155.66937011488784,119.46701564428594,157.0896444768204,157.0896444768204,3.0,3.2,-188,-264,0,11,234,270,173.8277564048767,173.82785391807556,173.83106064796448,173.8399474620819,173.99530959129333,173.99530959129333,173.99530959129333,173.99530959129333,173.99530959129333,173.99530959129333,173.99530959129333,176.37544965744019,3,2.53263258934021,None,,,,,,,,,,,,,,,,,,184,4,2025-03-04_12h04.55.135,comp,2024.2.4,None,2025-03-04 12h06.21.965610 -0500,
27,27,0,critical,whd,20.0,2.1,lower,57.0,133.0,133.0,57.0,78.0,78.0,1,6.300851106643677,None,,,,,0,0,0,0,0,27,27,14,176.39201140403748,,,,,,,,,,,,,,,,,,,,,,,,,,,,,,,,,,,,,,,,,,,,,,,,,,,,,,,,,,,,,,,,,,,,,,,,,,,,,,,,,57.0,133.0,133.0,57.0,78.0,78.0,2.1,2.12,-191,-253,0,-268,164,253,176.37624406814575,176.37628316879272,176.37778997421265,176.39201140403748,176.5422716140747,176.5422716140747,176.5422716140747,176.5422716140747,176.5422716140747,176.5422716140747,176.5422716140747,182.71034479141235,1,6.300851106643677,None,,,,,,,,,,,,,,,,,,184,4,2025-03-04_12h04.55.135,comp,2024.2.4,None,2025-03-04 12h06.21.965610 -0500,
28,28,0,critical,hdw,35.0,1.0,lower,133.0,57.0,70.0,70.0,57.0,133.0,3,8.616149663925171,None,,,,,0,0,0,0,0,28,28,108,182.72532272338867,,,,,,,,,,,,,,,,,,,,,,,,,,,,,,,,,,,,,,,,,,,,,,,,,,,,,,,,,,,,,,,,,,,,,,,,,,,,,,,,,133.0,57.0,70.0,70.0,57.0,133.0,1.0,1.1,-640,274,-480,277,-282,268,182.7118227481842,182.71190810203552,182.7148721218109,182.72532272338867,182.8648762702942,182.8648762702942,182.8648762702942,182.8648762702942,182.8648762702942,182.8648762702942,182.8648762702942,191.3495671749115,3,8.616149663925171,None,,,,,,,,,,,,,,,,,,184,4,2025-03-04_12h04.55.135,comp,2024.2.4,None,2025-03-04 12h06.21.965610 -0500,
29,29,0,filler_random,None,None,None,None,None,None,None,None,None,None,1,3.55051589012146,None,,,,,0,0,0,0,0,29,29,145,191.36620545387268,,,,,,,,,,,,,,,,,,,,,,,,,,,,,,,,,,,,,,,,,,,,,,,,,,,,,,,,,,,,,,,,,,,,,,,,,,,,,,,,,113.91302512740717,135.91618508404287,99.0660510577492,63.426713844513195,108.56486575054414,111.67278323647864,3.0,3.2,-196,-271,0,1,184,282,191.3514621257782,191.3515396118164,191.35535287857056,191.36620545387268,191.51513385772705,191.51513385772705,191.51513385772705,191.51513385772705,191.51513385772705,191.51513385772705,191.51513385772705,194.93170714378357,1,3.55051589012146,None,,,,,,,,,,,,,,,,,,184,4,2025-03-04_12h04.55.135,comp,2024.2.4,None,2025-03-04 12h06.21.965610 -0500,
30,30,0,critical,hdw,35.0,2.1,upper,200.0,125.0,127.0,127.0,125.0,200.0,3,3.9656450748443604,None,,,,,0,0,0,0,0,30,30,45,194.95141625404358,,,,,,,,,,,,,,,,,,,,,,,,,,,,,,,,,,,,,,,,,,,,,,,,,,,,,,,,,,,,,,,,,,,,,,,,,,,,,,,,,200.0,125.0,127.0,127.0,125.0,200.0,2.1,2.12,-222,-286,0,-250,260,260,194.9332616329193,194.93333673477173,194.93650841712952,194.95141625404358,195.0991108417511,195.0991108417511,195.0991108417511,195.0991108417511,195.0991108417511,195.0991108417511,195.0991108417511,198.93463492393494,3,3.9656450748443604,None,,,,,,,,,,,,,,,,,,184,4,2025-03-04_12h04.55.135,comp,2024.2.4,None,2025-03-04 12h06.21.965610 -0500,
31,31,0,filler_square,None,None,None,None,None,None,None,None,None,None,3,7.48717737197876,None,,,,,0,0,0,0,0,31,31,206,198.95039176940918,,,,,,,,,,,,,,,,,,,,,,,,,,,,,,,,,,,,,,,,,,,,,,,,,,,,,,,,,,,,,,,,,,,,,,,,,,,,,,,,,57.21096693367794,57.94499106091258,57.03089239892966,58.059990419139694,58.95210611481622,58.95210611481622,2.1,2.11,-154,264,0,287,155,-261,198.93647956848145,198.9365849494934,198.93987011909485,198.95039176940918,199.10283970832825,199.10283970832825,199.10283970832825,199.10283970832825,199.10283970832825,199.10283970832825,199.10283970832825,206.44455528259277,3,7.48717737197876,None,,,,,,,,,,,,,,,,,,184,4,2025-03-04_12h04.55.135,comp,2024.2.4,None,2025-03-04 12h06.21.965610 -0500,
32,32,0,critical,hdw,35.0,2.1,upper,200.0,125.0,127.0,127.0,125.0,200.0,3,3.2405507564544678,None,,,,,0,0,0,0,0,32,32,21,206.4604914188385,,,,,,,,,,,,,,,,,,,,,,,,,,,,,,,,,,,,,,,,,,,,,,,,,,,,,,,,,,,,,,,,,,,,,,,,,,,,,,,,,200.0,125.0,127.0,127.0,125.0,200.0,2.1,2.11,-222,273,0,252,260,-268,206.44615745544434,206.4462332725525,206.4494936466217,206.4604914188385,206.60188913345337,206.60188913345337,206.60188913345337,206.60188913345337,206.60188913345337,206.60188913345337,206.60188913345337,209.7191824913025,3,3.2405507564544678,None,,,,,,,,,,,,,,,,,,184,4,2025-03-04_12h04.55.135,comp,2024.2.4,None,2025-03-04 12h06.21.965610 -0500,
33,33,0,catch,None,None,None,None,None,None,None,None,None,None,1,2.493990421295166,None,,,,,0,0,0,0,0,33,33,123,209.7349009513855,,,,,,,,,,,,,,,,,,,,,,,,,,,,,,,,,,,,,,,,,,,,,,,,,,,,,,,,,,,,,,,,,,,,,,,,,,,,,,,,,179,146,69,121,92,98,1.0,1.1,-710,279,-480,275,-274,253,209.72102785110474,209.72110438346863,209.72431349754333,209.7349009513855,209.88538718223572,209.88538718223572,209.88538718223572,209.88538718223572,209.88538718223572,209.88538718223572,209.88538718223572,212.237966299057,1,2.493990421295166,None,,,,,,,,,,,,,,,,,,184,4,2025-03-04_12h04.55.135,comp,2024.2.4,None,2025-03-04 12h06.21.965610 -0500,
34,34,0,critical,dwh,20.0,4.0,lower,78.0,78.0,57.0,133.0,133.0,57.0,2,3.59086537361145,None,,,,,0,0,0,0,0,34,34,70,212.25464248657227,,,,,,,,,,,,,,,,,,,,,,,,,,,,,,,,,,,,,,,,,,,,,,,,,,,,,,,,,,,,,,,,,,,,,,,,,,,,,,,,,78.0,78.0,57.0,133.0,133.0,57.0,4.0,4.2,-202,4,0,-279,191,-1,212.2394790649414,212.23955416679382,212.2429096698761,212.25464248657227,212.40384435653687,212.40384435653687,212.40384435653687,212.40384435653687,212.40384435653687,212.40384435653687,212.40384435653687,215.85586547851562,2,3.59086537361145,None,,,,,,,,,,,,,,,,,,184,4,2025-03-04_12h04.55.135,comp,2024.2.4,None,2025-03-04 12h06.21.965610 -0500,
35,35,0,filler_square,None,None,None,None,None,None,None,None,None,None,1,2.5247995853424072,None,,,,,0,0,0,0,0,35,35,201,215.87190532684326,,,,,,,,,,,,,,,,,,,,,,,,,,,,,,,,,,,,,,,,,,,,,,,,,,,,,,,,,,,,,,,,,,,,,,,,,,,,,,,,,128.87407380076957,128.87407380076957,60.24533297789012,96.32660047570658,91.07095232920193,113.42793988230432,2.1,2.12,-209,-277,0,-252,201,263,215.857577085495,215.857652425766,215.86115097999573,215.87190532684326,216.02528977394104,216.02528977394104,216.02528977394104,216.02528977394104,216.02528977394104,216.02528977394104,216.02528977394104,218.40628719329834,1,2.5247995853424072,None,,,,,,,,,,,,,,,,,,184,4,2025-03-04_12h04.55.135,comp,2024.2.4,None,2025-03-04 12h06.21.965610 -0500,
36,36,0,catch,None,None,None,None,None,None,None,None,None,None,1,2.527817964553833,None,,,,,0,0,0,0,0,36,36,121,218.42150568962097,,,,,,,,,,,,,,,,,,,,,,,,,,,,,,,,,,,,,,,,,,,,,,,,,,,,,,,,,,,,,,,,,,,,,,,,,,,,,,,,,133,192,61,129,96,94,4.0,4.2,-256,-10,0,-273,208,8,218.40848326683044,218.40856289863586,218.41193556785583,218.42150568962097,218.58207082748413,218.58207082748413,218.58207082748413,218.58207082748413,218.58207082748413,218.58207082748413,218.58207082748413,220.95822381973267,1,2.527817964553833,None,,,,,,,,,,,,,,,,,,184,4,2025-03-04_12h04.55.135,comp,2024.2.4,None,2025-03-04 12h06.21.965610 -0500,
37,37,0,critical,hwd,35.0,4.0,lower,133.0,57.0,57.0,133.0,70.0,70.0,2,4.183274507522583,None,,,,,0,0,0,0,0,37,37,100,220.97382974624634,,,,,,,,,,,,,,,,,,,,,,,,,,,,,,,,,,,,,,,,,,,,,,,,,,,,,,,,,,,,,,,,,,,,,,,,,,,,,,,,,133.0,57.0,57.0,133.0,70.0,70.0,4.0,4.2,-191,11,0,-287,198,-1,220.9597544670105,220.9598672389984,220.96304512023926,220.97382974624634,221.12195301055908,221.12195301055908,221.12195301055908,221.12195301055908,221.12195301055908,221.12195301055908,221.12195301055908,225.16125798225403,2,4.183274507522583,None,,,,,,,,,,,,,,,,,,184,4,2025-03-04_12h04.55.135,comp,2024.2.4,None,2025-03-04 12h06.21.965610 -0500,
38,38,0,critical,whd,20.0,1.0,lower,57.0,133.0,133.0,57.0,78.0,78.0,1,2.571758985519409,None,,,,,0,0,0,0,0,38,38,90,225.17726707458496,,,,,,,,,,,,,,,,,,,,,,,,,,,,,,,,,,,,,,,,,,,,,,,,,,,,,,,,,,,,,,,,,,,,,,,,,,,,,,,,,57.0,133.0,133.0,57.0,78.0,78.0,1.0,1.2,-191,18,0,-10,164,1,225.16292548179626,225.16300296783447,225.16640520095825,225.17726707458496,225.32605695724487,225.32605695724487,225.32605695724487,225.32605695724487,225.32605695724487,225.32605695724487,225.32605695724487,227.75440907478333,1,2.571758985519409,None,,,,,,,,,,,,,,,,,,184,4,2025-03-04_12h04.55.135,comp,2024.2.4,None,2025-03-04 12h06.21.965610 -0500,
39,39,0,filler_random,None,None,None,None,None,None,None,None,None,None,1,6.96958589553833,None,,,,,0,0,0,0,0,39,39,137,227.77211809158325,,,,,,,,,,,,,,,,,,,,,,,,,,,,,,,,,,,,,,,,,,,,,,,,,,,,,,,,,,,,,,,,,,,,,,,,,,,,,,,,,121.39347676316208,124.9427794744209,89.24523089320662,153.77093420552808,69.6390910680876,119.55484607876093,4.0,4.2,-235,-5,0,-250,233,3,227.75607228279114,227.75614762306213,227.75898933410645,227.77211809158325,227.92338490486145,227.92338490486145,227.92338490486145,227.92338490486145,227.92338490486145,227.92338490486145,227.92338490486145,234.74769186973572,1,6.96958589553833,None,,,,,,,,,,,,,,,,,,184,4,2025-03-04_12h04.55.135,comp,2024.2.4,None,2025-03-04 12h06.21.965610 -0500,
40,40,0,filler_square,None,None,None,None,None,None,None,None,None,None,3,10.605050325393677,None,,,,,0,0,0,0,0,40,40,173,234.7679123878479,,,,,,,,,,,,,,,,,,,,,,,,,,,,,,,,,,,,,,,,,,,,,,,,,,,,,,,,,,,,,,,,,,,,,,,,,,,,,,,,,63.72615659780604,60.093409979434135,61.75818220945275,59.70451004001348,63.7285969309971,63.7285969309971,1.0,1.3,324,-260,480,-289,638,-282,234.7502043247223,234.75028371810913,234.75364184379578,234.7679123878479,234.90900373458862,234.90900373458862,234.90900373458862,234.90900373458862,234.90900373458862,234.90900373458862,234.90900373458862,245.3874807357788,3,10.605050325393677,None,,,,,,,,,,,,,,,,,,184,4,2025-03-04_12h04.55.135,comp,2024.2.4,None,2025-03-04 12h06.21.965610 -0500,
41,41,0,critical,dwh,35.0,2.1,lower,70.0,70.0,57.0,133.0,133.0,57.0,2,6.129869222640991,None,,,,,0,0,0,0,0,41,41,28,245.40318393707275,,,,,,,,,,,,,,,,,,,,,,,,,,,,,,,,,,,,,,,,,,,,,,,,,,,,,,,,,,,,,,,,,,,,,,,,,,,,,,,,,70.0,70.0,57.0,133.0,133.0,57.0,2.1,2.12,-198,-282,0,-270,191,257,245.38899207115173,245.38906860351562,245.391948223114,245.40318393707275,245.54663228988647,245.54663228988647,245.54663228988647,245.54663228988647,245.54663228988647,245.54663228988647,245.54663228988647,251.53603720664978,2,6.129869222640991,None,,,,,,,,,,,,,,,,,,184,4,2025-03-04_12h04.55.135,comp,2024.2.4,None,2025-03-04 12h06.21.965610 -0500,
42,42,0,critical,hwd,20.0,4.0,lower,133.0,57.0,57.0,133.0,78.0,78.0,2,2.6206886768341064,None,,,,,0,0,0,0,0,42,42,106,251.55229878425598,,,,,,,,,,,,,,,,,,,,,,,,,,,,,,,,,,,,,,,,,,,,,,,,,,,,,,,,,,,,,,,,,,,,,,,,,,,,,,,,,133.0,57.0,57.0,133.0,78.0,78.0,4.0,4.1,-191,-254,0,5,202,-256,251.53770852088928,251.53778910636902,251.54138684272766,251.55229878425598,251.696519613266,251.696519613266,251.696519613266,251.696519613266,251.696519613266,251.696519613266,251.696519613266,254.18308448791504,2,2.6206886768341064,None,,,,,,,,,,,,,,,,,,184,4,2025-03-04_12h04.55.135,comp,2024.2.4,None,2025-03-04 12h06.21.965610 -0500,
43,43,0,critical,hwd,35.0,2.1,lower,133.0,57.0,57.0,133.0,70.0,70.0,2,6.565964221954346,None,,,,,0,0,0,0,0,43,43,40,254.19915390014648,,,,,,,,,,,,,,,,,,,,,,,,,,,,,,,,,,,,,,,,,,,,,,,,,,,,,,,,,,,,,,,,,,,,,,,,,,,,,,,,,133.0,57.0,57.0,133.0,70.0,70.0,2.1,2.12,-191,-268,0,-252,198,270,254.18455052375793,254.18462753295898,254.18756437301636,254.19915390014648,254.3504843711853,254.3504843711853,254.3504843711853,254.3504843711853,254.3504843711853,254.3504843711853,254.3504843711853,260.7686915397644,2,6.565964221954346,None,,,,,,,,,,,,,,,,,,184,4,2025-03-04_12h04.55.135,comp,2024.2.4,None,2025-03-04 12h06.21.965610 -0500,
44,44,0,critical,dwh,35.0,3.0,upper,127.0,127.0,125.0,200.0,200.0,125.0,2,3.384316921234131,None,,,,,0,0,0,0,0,44,44,63,260.78866815567017,,,,,,,,,,,,,,,,,,,,,,,,,,,,,,,,,,,,,,,,,,,,,,,,,,,,,,,,,,,,,,,,,,,,,,,,,,,,,,,,,127.0,127.0,125.0,200.0,200.0,125.0,3.0,3.2,-260,-259,0,3,258,264,260.7701289653778,260.7702043056488,260.7732479572296,260.78866815567017,260.93651962280273,260.93651962280273,260.93651962280273,260.93651962280273,260.93651962280273,260.93651962280273,260.93651962280273,264.19498920440674,2,3.384316921234131,None,,,,,,,,,,,,,,,,,,184,4,2025-03-04_12h04.55.135,comp,2024.2.4,None,2025-03-04 12h06.21.965610 -0500,
45,45,0,critical,dwh,35.0,3.0,lower,70.0,70.0,57.0,133.0,133.0,57.0,2,2.774310350418091,None,,,,,0,0,0,0,0,45,45,62,264.2146580219269,,,,,,,,,,,,,,,,,,,,,,,,,,,,,,,,,,,,,,,,,,,,,,,,,,,,,,,,,,,,,,,,,,,,,,,,,,,,,,,,,70.0,70.0,57.0,133.0,133.0,57.0,3.0,3.2,-198,-269,0,-12,191,263,264.1964535713196,264.19652819633484,264.1994264125824,264.2146580219269,264.3538987636566,264.3538987636566,264.3538987636566,264.3538987636566,264.3538987636566,264.3538987636566,264.3538987636566,267.00499153137207,2,2.774310350418091,None,,,,,,,,,,,,,,,,,,184,4,2025-03-04_12h04.55.135,comp,2024.2.4,None,2025-03-04 12h06.21.965610 -0500,
46,46,0,critical,wdh,35.0,1.0,upper,125.0,200.0,127.0,127.0,200.0,125.0,1,4.193431854248047,None,,,,,0,0,0,0,0,46,46,73,267.0208718776703,,,,,,,,,,,,,,,,,,,,,,,,,,,,,,,,,,,,,,,,,,,,,,,,,,,,,,,,,,,,,,,,,,,,,,,,,,,,,,,,,125.0,200.0,127.0,127.0,200.0,125.0,1.0,1.3,220,-257,480,-289,702,-251,267.0065016746521,267.0065767765045,267.0105290412903,267.0208718776703,267.1704144477844,267.1704144477844,267.1704144477844,267.1704144477844,267.1704144477844,267.1704144477844,267.1704144477844,271.22609400749207,1,4.193431854248047,None,,,,,,,,,,,,,,,,,,184,4,2025-03-04_12h04.55.135,comp,2024.2.4,None,2025-03-04 12h06.21.965610 -0500,
47,47,0,critical,dhw,20.0,3.0,lower,78.0,78.0,133.0,57.0,57.0,133.0,3,3.2515146732330322,None,,,,,0,0,0,0,0,47,47,56,271.24159812927246,,,,,,,,,,,,,,,,,,,,,,,,,,,,,,,,,,,,,,,,,,,,,,,,,,,,,,,,,,,,,,,,,,,,,,,,,,,,,,,,,78.0,78.0,133.0,57.0,57.0,133.0,3.0,3.2,-164,-268,0,-10,191,264,271.2276699542999,271.227746963501,271.2307744026184,271.24159812927246,271.3949110507965,271.3949110507965,271.3949110507965,271.3949110507965,271.3949110507965,271.3949110507965,271.3949110507965,274.50953674316406,3,3.2515146732330322,None,,,,,,,,,,,,,,,,,,184,4,2025-03-04_12h04.55.135,comp,2024.2.4,None,2025-03-04 12h06.21.965610 -0500,
48,48,0,critical,hwd,35.0,2.1,lower,133.0,57.0,57.0,133.0,70.0,70.0,2,2.928114652633667,None,,,,,0,0,0,0,0,48,48,16,274.5252728462219,,,,,,,,,,,,,,,,,,,,,,,,,,,,,,,,,,,,,,,,,,,,,,,,,,,,,,,,,,,,,,,,,,,,,,,,,,,,,,,,,133.0,57.0,57.0,133.0,70.0,70.0,2.1,2.11,-191,250,0,280,198,-287,274.5111782550812,274.51125288009644,274.5146498680115,274.5252728462219,274.67427921295166,274.67427921295166,274.67427921295166,274.67427921295166,274.67427921295166,274.67427921295166,274.67427921295166,277.4582633972168,2,2.928114652633667,None,,,,,,,,,,,,,,,,,,184,4,2025-03-04_12h04.55.135,comp,2024.2.4,None,2025-03-04 12h06.21.965610 -0500,
49,49,0,filler_square,None,None,None,None,None,None,None,None,None,None,1,2.9221301078796387,None,,,,,0,0,0,0,0,49,49,191,277.4749207496643,,,,,,,,,,,,,,,,,,,,,,,,,,,,,,,,,,,,,,,,,,,,,,,,,,,,,,,,,,,,,,,,,,,,,,,,,,,,,,,,,169.01790567161163,169.01790567161163,141.5769275922932,153.10568143155274,132.38558095373958,86.4857905472974,4.0,4.2,-257,17,0,-266,216,0,277.46000504493713,277.4600820541382,277.46416330337524,277.4749207496643,277.62316727638245,277.62316727638245,277.62316727638245,277.62316727638245,277.62316727638245,277.62316727638245,277.62316727638245,280.4112410545349,1,2.9221301078796387,None,,,,,,,,,,,,,,,,,,184,4,2025-03-04_12h04.55.135,comp,2024.2.4,None,2025-03-04 12h06.21.965610 -0500,
50,50,0,critical,hdw,35.0,4.0,upper,200.0,125.0,127.0,127.0,125.0,200.0,3,3.1461291313171387,None,,,,,0,0,0,0,0,50,50,113,280.42727518081665,,,,,,,,,,,,,,,,,,,,,,,,,,,,,,,,,,,,,,,,,,,,,,,,,,,,,,,,,,,,,,,,,,,,,,,,,,,,,,,,,200.0,125.0,127.0,127.0,125.0,200.0,4.0,4.2,-222,-3,0,-273,260,-14,280.4128460884094,280.41293358802795,280.416898727417,280.42727518081665,280.57823061943054,280.57823061943054,280.57823061943054,280.57823061943054,280.57823061943054,280.57823061943054,280.57823061943054,283.57729172706604,3,3.1461291313171387,None,,,,,,,,,,,,,,,,,,184,4,2025-03-04_12h04.55.135,comp,2024.2.4,None,2025-03-04 12h06.21.965610 -0500,
51,51,0,filler_square,None,None,None,None,None,None,None,None,None,None,3,2.5875356197357178,None,,,,,0,0,0,0,0,51,51,175,283.59363651275635,,,,,,,,,,,,,,,,,,,,,,,,,,,,,,,,,,,,,,,,,,,,,,,,,,,,,,,,,,,,,,,,,,,,,,,,,,,,,,,,,140.969397285168,87.19417500779227,130.5117518592267,95.78837378946409,160.97309150614922,160.97309150614922,4.0,4.1,-187,-269,0,1,224,-266,283.5790231227875,283.5791018009186,283.582731962204,283.59363651275635,283.74373865127563,283.74373865127563,283.74373865127563,283.74373865127563,283.74373865127563,283.74373865127563,283.74373865127563,286.183226108551,3,2.5875356197357178,None,,,,,,,,,,,,,,,,,,184,4,2025-03-04_12h04.55.135,comp,2024.2.4,None,2025-03-04 12h06.21.965610 -0500,
52,52,0,critical,hdw,20.0,2.1,upper,200.0,125.0,141.0,141.0,125.0,200.0,3,5.9336326122283936,None,,,,,0,0,0,0,0,52,52,47,286.1993350982666,,,,,,,,,,,,,,,,,,,,,,,,,,,,,,,,,,,,,,,,,,,,,,,,,,,,,,,,,,,,,,,,,,,,,,,,,,,,,,,,,200.0,125.0,141.0,141.0,125.0,200.0,2.1,2.12,-229,-270,0,-266,266,278,286.1847667694092,286.18486881256104,286.187739610672,286.1993350982666,286.34487795829773,286.34487795829773,286.34487795829773,286.34487795829773,286.34487795829773,286.34487795829773,286.34487795829773,292.1505799293518,3,5.9336326122283936,None,,,,,,,,,,,,,,,,,,184,4,2025-03-04_12h04.55.135,comp,2024.2.4,None,2025-03-04 12h06.21.965610 -0500,
53,53,0,filler_random,None,None,None,None,None,None,None,None,None,None,3,4.559653282165527,None,,,,,0,0,0,0,0,53,53,131,292.1659550666809,,,,,,,,,,,,,,,,,,,,,,,,,,,,,,,,,,,,,,,,,,,,,,,,,,,,,,,,,,,,,,,,,,,,,,,,,,,,,,,,,104.79193369201715,127.06601787974962,186.48724743869175,58.19941997971427,180.11140866199827,103.16224773323512,1.0,1.1,-669,288,-480,264,-303,268,292.15233039855957,292.15240693092346,292.15564465522766,292.1659550666809,292.31217336654663,292.31217336654663,292.31217336654663,292.31217336654663,292.31217336654663,292.31217336654663,292.31217336654663,296.7314705848694,3,4.559653282165527,None,,,,,,,,,,,,,,,,,,184,4,2025-03-04_12h04.55.135,comp,2024.2.4,None,2025-03-04 12h06.21.965610 -0500,
54,54,0,critical,dhw,35.0,2.1,lower,70.0,70.0,133.0,57.0,57.0,133.0,3,3.231405258178711,None,,,,,0,0,0,0,0,54,54,24,296.75012254714966,,,,,,,,,,,,,,,,,,,,,,,,,,,,,,,,,,,,,,,,,,,,,,,,,,,,,,,,,,,,,,,,,,,,,,,,,,,,,,,,,70.0,70.0,133.0,57.0,57.0,133.0,2.1,2.12,-160,-285,0,-277,191,258,296.73301935195923,296.7330958843231,296.73611283302307,296.75012254714966,296.9039092063904,296.9039092063904,296.9039092063904,296.9039092063904,296.9039092063904,296.9039092063904,296.9039092063904,299.9855818748474,3,3.231405258178711,None,,,,,,,,,,,,,,,,,,184,4,2025-03-04_12h04.55.135,comp,2024.2.4,None,2025-03-04 12h06.21.965610 -0500,
55,55,0,filler_square,None,None,None,None,None,None,None,None,None,None,2,4.947225093841553,None,,,,,0,0,0,0,0,55,55,174,300.0020263195038,,,,,,,,,,,,,,,,,,,,,,,,,,,,,,,,,,,,,,,,,,,,,,,,,,,,,,,,,,,,,,,,,,,,,,,,,,,,,,,,,75.14754689179661,72.08063637570469,101.60955229694966,101.60955229694966,74.04122454271986,81.4123496968638,3.0,3.2,-183,-266,0,19,188,260,299.98728108406067,299.98735785484314,299.99125599861145,300.0020263195038,300.14823150634766,300.14823150634766,300.14823150634766,300.14823150634766,300.14823150634766,300.14823150634766,300.14823150634766,304.95913791656494,2,4.947225093841553,None,,,,,,,,,,,,,,,,,,184,4,2025-03-04_12h04.55.135,comp,2024.2.4,None,2025-03-04 12h06.21.965610 -0500,
56,56,0,critical,wdh,20.0,4.0,upper,125.0,200.0,141.0,141.0,200.0,125.0,1,2.7148351669311523,None,,,,,0,0,0,0,0,56,56,83,304.9788327217102,,,,,,,,,,,,,,,,,,,,,,,,,,,,,,,,,,,,,,,,,,,,,,,,,,,,,,,,,,,,,,,,,,,,,,,,,,,,,,,,,125.0,200.0,141.0,141.0,200.0,125.0,4.0,4.2,-266,2,0,-252,229,-4,304.960604429245,304.96068120002747,304.96354627609253,304.9788327217102,305.1144862174988,305.1144862174988,305.1144862174988,305.1144862174988,305.1144862174988,305.1144862174988,305.1144862174988,307.7019543647766,1,2.7148351669311523,None,,,,,,,,,,,,,,,,,,184,4,2025-03-04_12h04.55.135,comp,2024.2.4,None,2025-03-04 12h06.21.965610 -0500,
57,57,0,critical,hdw,35.0,2.1,lower,133.0,57.0,70.0,70.0,57.0,133.0,3,3.111088275909424,None,,,,,0,0,0,0,0,57,57,44,307.7184042930603,,,,,,,,,,,,,,,,,,,,,,,,,,,,,,,,,,,,,,,,,,,,,,,,,,,,,,,,,,,,,,,,,,,,,,,,,,,,,,,,,133.0,57.0,70.0,70.0,57.0,133.0,2.1,2.11,-160,265,0,264,198,-278,307.70341658592224,307.7034924030304,307.70758509635925,307.7184042930603,307.8673448562622,307.8673448562622,307.8673448562622,307.8673448562622,307.8673448562622,307.8673448562622,307.8673448562622,310.83443903923035,3,3.111088275909424,None,,,,,,,,,,,,,,,,,,184,4,2025-03-04_12h04.55.135,comp,2024.2.4,None,2025-03-04 12h06.21.965610 -0500,
58,58,0,critical,whd,35.0,3.0,lower,57.0,133.0,133.0,57.0,70.0,70.0,1,3.515043258666992,None,,,,,0,0,0,0,0,58,58,86,310.85041785240173,,,,,,,,,,,,,,,,,,,,,,,,,,,,,,,,,,,,,,,,,,,,,,,,,,,,,,,,,,,,,,,,,,,,,,,,,,,,,,,,,57.0,133.0,133.0,57.0,70.0,70.0,3.0,3.2,-191,-282,0,14,160,271,310.83596110343933,310.8360369205475,310.83895349502563,310.85041785240173,311.0073456764221,311.0073456764221,311.0073456764221,311.0073456764221,311.0073456764221,311.0073456764221,311.0073456764221,314.36882495880127,1,3.515043258666992,None,,,,,,,,,,,,,,,,,,184,4,2025-03-04_12h04.55.135,comp,2024.2.4,None,2025-03-04 12h06.21.965610 -0500,
59,59,0,critical,whd,35.0,1.0,upper,125.0,200.0,200.0,125.0,127.0,127.0,1,3.6760246753692627,None,,,,,0,0,0,0,0,59,59,85,314.38487100601196,,,,,,,,,,,,,,,,,,,,,,,,,,,,,,,,,,,,,,,,,,,,,,,,,,,,,,,,,,,,,,,,,,,,,,,,,,,,,,,,,125.0,200.0,200.0,125.0,127.0,127.0,1.0,1.2,-258,13,0,5,222,-18,314.37024307250977,314.37031722068787,314.37333273887634,314.38487100601196,314.5355415344238,314.5355415344238,314.5355415344238,314.5355415344238,314.5355415344238,314.5355415344238,314.5355415344238,318.0756266117096,1,3.6760246753692627,None,,,,,,,,,,,,,,,,,,184,4,2025-03-04_12h04.55.135,comp,2024.2.4,None,2025-03-04 12h06.21.965610 -0500,
60,60,0,critical,whd,35.0,4.0,upper,125.0,200.0,200.0,125.0,127.0,127.0,1,2.8529040813446045,None,,,,,0,0,0,0,0,60,60,89,318.0960075855255,,,,,,,,,,,,,,,,,,,,,,,,,,,,,,,,,,,,,,,,,,,,,,,,,,,,,,,,,,,,,,,,,,,,,,,,,,,,,,,,,125.0,200.0,200.0,125.0,127.0,127.0,4.0,4.2,-258,12,0,-251,222,-1,318.0772154331207,318.07729172706604,318.08059787750244,318.0960075855255,318.2385792732239,318.2385792732239,318.2385792732239,318.2385792732239,318.2385792732239,318.2385792732239,318.2385792732239,320.9612123966217,1,2.8529040813446045,None,,,,,,,,,,,,,,,,,,184,4,2025-03-04_12h04.55.135,comp,2024.2.4,None,2025-03-04 12h06.21.965610 -0500,
61,61,0,filler_square,None,None,None,None,None,None,None,None,None,None,3,3.427042007446289,None,,,,,0,0,0,0,0,61,61,196,320.97784209251404,,,,,,,,,,,,,,,,,,,,,,,,,,,,,,,,,,,,,,,,,,,,,,,,,,,,,,,,,,,,,,,,,,,,,,,,,,,,,,,,,91.15822567800669,94.29024084890115,125.03704190193164,79.96871615657787,157.92529205353696,157.92529205353696,2.1,2.11,-183,286,0,276,215,-266,320.9630477428436,320.9631812572479,320.96647119522095,320.97784209251404,321.1184103488922,321.1184103488922,321.1184103488922,321.1184103488922,321.1184103488922,321.1184103488922,321.1184103488922,324.40694403648376,3,3.427042007446289,None,,,,,,,,,,,,,,,,,,184,4,2025-03-04_12h04.55.135,comp,2024.2.4,None,2025-03-04 12h06.21.965610 -0500,
62,62,0,filler_random,None,None,None,None,None,None,None,None,None,None,2,7.829698324203491,None,,,,,0,0,0,0,0,62,62,162,324.4233064651489,,,,,,,,,,,,,,,,,,,,,,,,,,,,,,,,,,,,,,,,,,,,,,,,,,,,,,,,,,,,,,,,,,,,,,,,,,,,,,,,,84.80762789250093,120.69775541452128,127.89390352811233,167.89434344157655,123.00340336983523,159.77903313743172,4.0,4.2,-240,10,0,-255,260,14,324.40861892700195,324.4086949825287,324.4123582839966,324.4233064651489,324.5707755088806,324.5707755088806,324.5707755088806,324.5707755088806,324.5707755088806,324.5707755088806,324.5707755088806,332.2550935745239,2,7.829698324203491,None,,,,,,,,,,,,,,,,,,184,4,2025-03-04_12h04.55.135,comp,2024.2.4,None,2025-03-04 12h06.21.965610 -0500,
63,63,0,critical,whd,35.0,4.0,lower,57.0,133.0,133.0,57.0,70.0,70.0,1,4.014703750610352,None,,,,,0,0,0,0,0,63,63,88,332.2706582546234,,,,,,,,,,,,,,,,,,,,,,,,,,,,,,,,,,,,,,,,,,,,,,,,,,,,,,,,,,,,,,,,,,,,,,,,,,,,,,,,,57.0,133.0,133.0,57.0,70.0,70.0,4.0,4.2,-191,3,0,-261,160,-1,332.25651717185974,332.2565932273865,332.2595155239105,332.2706582546234,332.41152143478394,332.41152143478394,332.41152143478394,332.41152143478394,332.41152143478394,332.41152143478394,332.41152143478394,336.3029613494873,1,4.014703750610352,None,,,,,,,,,,,,,,,,,,184,4,2025-03-04_12h04.55.135,comp,2024.2.4,None,2025-03-04 12h06.21.965610 -0500,
64,64,0,filler_random,None,None,None,None,None,None,None,None,None,None,2,4.878572940826416,None,,,,,0,0,0,0,0,64,64,166,336.31837153434753,,,,,,,,,,,,,,,,,,,,,,,,,,,,,,,,,,,,,,,,,,,,,,,,,,,,,,,,,,,,,,,,,,,,,,,,,,,,,,,,,77.47789095267851,62.70701291168587,192.53251747148383,197.14032464512033,123.73865000244712,106.9156434267399,1.0,1.3,254,-271,480,-277,728,-256,336.30467557907104,336.3047511577606,336.3076410293579,336.31837153434753,336.4602110385895,336.4602110385895,336.4602110385895,336.4602110385895,336.4602110385895,336.4602110385895,336.4602110385895,341.2113926410675,2,4.878572940826416,None,,,,,,,,,,,,,,,,,,184,4,2025-03-04_12h04.55.135,comp,2024.2.4,None,2025-03-04 12h06.21.965610 -0500,
65,65,0,critical,hdw,20.0,2.1,upper,200.0,125.0,141.0,141.0,125.0,200.0,3,3.2026820182800293,None,,,,,0,0,0,0,0,65,65,23,341.2267940044403,,,,,,,,,,,,,,,,,,,,,,,,,,,,,,,,,,,,,,,,,,,,,,,,,,,,,,,,,,,,,,,,,,,,,,,,,,,,,,,,,200.0,125.0,141.0,141.0,125.0,200.0,2.1,2.11,-229,284,0,261,266,-272,341.21288990974426,341.2129657268524,341.21635246276855,341.2267940044403,341.38787388801575,341.38787388801575,341.38787388801575,341.38787388801575,341.38787388801575,341.38787388801575,341.38787388801575,344.43598461151123,3,3.2026820182800293,None,,,,,,,,,,,,,,,,,,184,4,2025-03-04_12h04.55.135,comp,2024.2.4,None,2025-03-04 12h06.21.965610 -0500,
66,66,0,catch,None,None,None,None,None,None,None,None,None,None,3,1.9971857070922852,None,,,,,0,0,0,0,0,66,66,129,344.4565215110779,,,,,,,,,,,,,,,,,,,,,,,,,,,,,,,,,,,,,,,,,,,,,,,,,,,,,,,,,,,,,,,,,,,,,,,,,,,,,,,,,92,98,116,74,146,179,2.2,2.22,-182,288,0,-266,222,-265,344.43779015541077,344.43789982795715,344.4407923221588,344.4565215110779,344.60013246536255,344.60013246536255,344.60013246536255,344.60013246536255,344.60013246536255,344.60013246536255,344.60013246536255,346.4617009162903,3,1.9971857070922852,None,,,,,,,,,,,,,,,,,,184,4,2025-03-04_12h04.55.135,comp,2024.2.4,None,2025-03-04 12h06.21.965610 -0500,
67,67,0,critical,whd,20.0,2.1,upper,125.0,200.0,200.0,125.0,141.0,141.0,1,2.4380366802215576,None,,,,,0,0,0,0,0,67,67,15,346.47940611839294,,,,,,,,,,,,,,,,,,,,,,,,,,,,,,,,,,,,,,,,,,,,,,,,,,,,,,,,,,,,,,,,,,,,,,,,,,,,,,,,,125.0,200.0,200.0,125.0,141.0,141.0,2.1,2.12,-258,-275,0,-270,229,251,346.46314787864685,346.46322298049927,346.4661638736725,346.47940611839294,346.6156759262085,346.6156759262085,346.6156759262085,346.6156759262085,346.6156759262085,346.6156759262085,346.6156759262085,348.92306685447693,1,2.4380366802215576,None,,,,,,,,,,,,,,,,,,184,4,2025-03-04_12h04.55.135,comp,2024.2.4,None,2025-03-04 12h06.21.965610 -0500,
68,68,0,critical,dhw,20.0,3.0,upper,141.0,141.0,200.0,125.0,125.0,200.0,3,2.4584224224090576,None,,,,,0,0,0,0,0,68,68,57,348.93851613998413,,,,,,,,,,,,,,,,,,,,,,,,,,,,,,,,,,,,,,,,,,,,,,,,,,,,,,,,,,,,,,,,,,,,,,,,,,,,,,,,,141.0,141.0,200.0,125.0,125.0,200.0,3.0,3.2,-229,-289,0,7,258,260,348.9245707988739,348.9246485233307,348.9275414943695,348.93851613998413,349.08076524734497,349.08076524734497,349.08076524734497,349.08076524734497,349.08076524734497,349.08076524734497,349.08076524734497,351.4135401248932,3,2.4584224224090576,None,,,,,,,,,,,,,,,,,,184,4,2025-03-04_12h04.55.135,comp,2024.2.4,None,2025-03-04 12h06.21.965610 -0500,
69,69,0,critical,dhw,35.0,1.0,lower,70.0,70.0,133.0,57.0,57.0,133.0,3,5.128524303436279,None,,,,,0,0,0,0,0,69,69,48,351.4293713569641,,,,,,,,,,,,,,,,,,,,,,,,,,,,,,,,,,,,,,,,,,,,,,,,,,,,,,,,,,,,,,,,,,,,,,,,,,,,,,,,,70.0,70.0,133.0,57.0,57.0,133.0,1.0,1.2,-160,10,0,-5,191,-5,351.4151520729065,351.41522669792175,351.418612241745,351.4293713569641,351.57217955589294,351.57217955589294,351.57217955589294,351.57217955589294,351.57217955589294,351.57217955589294,351.57217955589294,356.56655621528625,3,5.128524303436279,None,,,,,,,,,,,,,,,,,,184,4,2025-03-04_12h04.55.135,comp,2024.2.4,None,2025-03-04 12h06.21.965610 -0500,
70,70,0,critical,dwh,35.0,4.0,upper,127.0,127.0,125.0,200.0,200.0,125.0,2,5.28659200668335,None,,,,,0,0,0,0,0,70,70,65,356.5823292732239,,,,,,,,,,,,,,,,,,,,,,,,,,,,,,,,,,,,,,,,,,,,,,,,,,,,,,,,,,,,,,,,,,,,,,,,,,,,,,,,,127.0,127.0,125.0,200.0,200.0,125.0,4.0,4.1,-260,-279,0,12,258,-251,356.5680274963379,356.5681052207947,356.57152104377747,356.5823292732239,356.73162055015564,356.73162055015564,356.73162055015564,356.73162055015564,356.73162055015564,356.73162055015564,356.73162055015564,361.8844587802887,2,5.28659200668335,None,,,,,,,,,,,,,,,,,,184,4,2025-03-04_12h04.55.135,comp,2024.2.4,None,2025-03-04 12h06.21.965610 -0500,
71,71,0,critical,wdh,35.0,3.0,lower,57.0,133.0,70.0,70.0,133.0,57.0,1,5.119162559509277,None,,,,,0,0,0,0,0,71,71,74,361.90188789367676,,,,,,,,,,,,,,,,,,,,,,,,,,,,,,,,,,,,,,,,,,,,,,,,,,,,,,,,,,,,,,,,,,,,,,,,,,,,,,,,,57.0,133.0,70.0,70.0,133.0,57.0,3.0,3.1,-198,251,0,18,160,-264,361.8859395980835,361.88601517677307,361.8891272544861,361.90188789367676,362.0546040534973,362.0546040534973,362.0546040534973,362.0546040534973,362.0546040534973,362.0546040534973,362.0546040534973,367.02315735816956,1,5.119162559509277,None,,,,,,,,,,,,,,,,,,184,4,2025-03-04_12h04.55.135,comp,2024.2.4,None,2025-03-04 12h06.21.965610 -0500,
72,72,0,critical,wdh,20.0,2.1,lower,57.0,133.0,78.0,78.0,133.0,57.0,1,1.875971794128418,None,,,,,0,0,0,0,0,72,72,10,367.04143238067627,,,,,,,,,,,,,,,,,,,,,,,,,,,,,,,,,,,,,,,,,,,,,,,,,,,,,,,,,,,,,,,,,,,,,,,,,,,,,,,,,57.0,133.0,78.0,78.0,133.0,57.0,2.1,2.12,-202,-273,0,-263,164,254,367.02482891082764,367.02491569519043,367.0282063484192,367.04143238067627,367.18629932403564,367.18629932403564,367.18629932403564,367.18629932403564,367.18629932403564,367.18629932403564,367.18629932403564,368.92166018486023,1,1.875971794128418,None,,,,,,,,,,,,,,,,,,184,4,2025-03-04_12h04.55.135,comp,2024.2.4,None,2025-03-04 12h06.21.965610 -0500,
73,73,0,filler_random,None,None,None,None,None,None,None,None,None,None,1,3.018200159072876,None,,,,,0,0,0,0,0,73,73,148,368.9387855529785,,,,,,,,,,,,,,,,,,,,,,,,,,,,,,,,,,,,,,,,,,,,,,,,,,,,,,,,,,,,,,,,,,,,,,,,,,,,,,,,,196.0273762247076,193.76195001531954,137.0424299732971,191.55471655965098,78.1432707726554,69.56764933564477,4.0,4.2,-289,-15,0,-274,227,20,368.92337369918823,368.92350673675537,368.9267234802246,368.9387855529785,369.09051156044006,369.09051156044006,369.09051156044006,369.09051156044006,369.09051156044006,369.09051156044006,369.09051156044006,371.96987891197205,1,3.018200159072876,None,,,,,,,,,,,,,,,,,,184,4,2025-03-04_12h04.55.135,comp,2024.2.4,None,2025-03-04 12h06.21.965610 -0500,
74,74,0,critical,hdw,35.0,1.0,upper,200.0,125.0,127.0,127.0,125.0,200.0,3,3.0680432319641113,None,,,,,0,0,0,0,0,74,74,109,371.98491406440735,,,,,,,,,,,,,,,,,,,,,,,,,,,,,,,,,,,,,,,,,,,,,,,,,,,,,,,,,,,,,,,,,,,,,,,,,,,,,,,,,200.0,125.0,127.0,127.0,125.0,200.0,1.0,1.1,-702,287,-480,253,-220,252,371.9714195728302,371.9714951515198,371.9744625091553,371.98491406440735,372.13400745391846,372.13400745391846,372.13400745391846,372.13400745391846,372.13400745391846,372.13400745391846,372.13400745391846,375.0557858943939,3,3.0680432319641113,None,,,,,,,,,,,,,,,,,,184,4,2025-03-04_12h04.55.135,comp,2024.2.4,None,2025-03-04 12h06.21.965610 -0500,
75,75,0,critical,dwh,35.0,1.0,upper,127.0,127.0,125.0,200.0,200.0,125.0,2,5.0005199909210205,None,,,,,0,0,0,0,0,75,75,61,375.07660484313965,,,,,,,,,,,,,,,,,,,,,,,,,,,,,,,,,,,,,,,,,,,,,,,,,,,,,,,,,,,,,,,,,,,,,,,,,,,,,,,,,127.0,127.0,125.0,200.0,200.0,125.0,1.0,1.2,-260,-2,0,18,258,-5,375.05731892585754,375.0573923587799,375.0607795715332,375.07660484313965,375.22297763824463,375.22297763824463,375.22297763824463,375.22297763824463,375.22297763824463,375.22297763824463,375.22297763824463,380.09042143821716,2,5.0005199909210205,None,,,,,,,,,,,,,,,,,,184,4,2025-03-04_12h04.55.135,comp,2024.2.4,None,2025-03-04 12h06.21.965610 -0500,
76,76,0,filler_random,None,None,None,None,None,None,None,None,None,None,2,4.0192530155181885,None,,,,,0,0,0,0,0,76,76,142,380.1057720184326,,,,,,,,,,,,,,,,,,,,,,,,,,,,,,,,,,,,,,,,,,,,,,,,,,,,,,,,,,,,,,,,,,,,,,,,,,,,,,,,,103.49084723410665,75.98931600289588,147.90706689700949,140.317164731254,191.98648556143817,62.04619749023347,2.2,2.22,-204,270,0,-267,197,-280,380.0921268463135,380.09220242500305,380.09544253349304,380.1057720184326,380.2559425830841,380.2559425830841,380.2559425830841,380.2559425830841,380.2559425830841,380.2559425830841,380.2559425830841,384.14189291000366,2,4.0192530155181885,None,,,,,,,,,,,,,,,,,,184,4,2025-03-04_12h04.55.135,comp,2024.2.4,None,2025-03-04 12h06.21.965610 -0500,
77,77,0,critical,dhw,20.0,2.1,upper,141.0,141.0,200.0,125.0,125.0,200.0,3,4.233206033706665,None,,,,,0,0,0,0,0,77,77,3,384.1571624279022,,,,,,,,,,,,,,,,,,,,,,,,,,,,,,,,,,,,,,,,,,,,,,,,,,,,,,,,,,,,,,,,,,,,,,,,,,,,,,,,,141.0,141.0,200.0,125.0,125.0,200.0,2.1,2.11,-229,256,0,276,258,-263,384.14342212677,384.1434988975525,384.1468560695648,384.1571624279022,384.31511402130127,384.31511402130127,384.31511402130127,384.31511402130127,384.31511402130127,384.31511402130127,384.31511402130127,388.4091649055481,3,4.233206033706665,None,,,,,,,,,,,,,,,,,,184,4,2025-03-04_12h04.55.135,comp,2024.2.4,None,2025-03-04 12h06.21.965610 -0500,
78,78,0,filler_random,None,None,None,None,None,None,None,None,None,None,1,2.719496965408325,None,,,,,0,0,0,0,0,78,78,139,388.4294533729553,,,,,,,,,,,,,,,,,,,,,,,,,,,,,,,,,,,,,,,,,,,,,,,,,,,,,,,,,,,,,,,,,,,,,,,,,,,,,,,,,189.36878894925152,128.10996579586873,130.26377081195147,148.42940914527054,82.84816438735174,198.27871285414804,3.0,3.1,-234,257,0,-19,269,-271,388.41087222099304,388.4109482765198,388.41417384147644,388.4294533729553,388.5766942501068,388.5766942501068,388.5766942501068,388.5766942501068,388.5766942501068,388.5766942501068,388.5766942501068,391.1594669818878,1,2.719496965408325,None,,,,,,,,,,,,,,,,,,184,4,2025-03-04_12h04.55.135,comp,2024.2.4,None,2025-03-04 12h06.21.965610 -0500,
79,79,0,critical,hwd,20.0,2.1,upper,200.0,125.0,125.0,200.0,141.0,141.0,1,2.5158729553222656,None,,,,,0,0,0,0,0,79,79,43,391.17718267440796,,,,,,,,,,,,,,,,,,,,,,,,,,,,,,,,,,,,,,,,,,,,,,,,,,,,,,,,,,,,,,,,,,,,,,,,,,,,,,,,,200.0,125.0,125.0,200.0,141.0,141.0,2.1,2.12,-258,-259,0,-273,266,281,391.1610119342804,391.16108751296997,391.1642315387726,391.17718267440796,391.3304567337036,391.3304567337036,391.3304567337036,391.3304567337036,391.3304567337036,391.3304567337036,391.3304567337036,393.71170449256897,1,2.5158729553222656,None,,,,,,,,,,,,,,,,,,184,4,2025-03-04_12h04.55.135,comp,2024.2.4,None,2025-03-04 12h06.21.965610 -0500,
80,80,0,critical,hwd,35.0,4.0,upper,200.0,125.0,125.0,200.0,127.0,127.0,2,3.181995391845703,None,,,,,0,0,0,0,0,80,80,101,393.72767519950867,,,,,,,,,,,,,,,,,,,,,,,,,,,,,,,,,,,,,,,,,,,,,,,,,,,,,,,,,,,,,,,,,,,,,,,,,,,,,,,,,200.0,125.0,125.0,200.0,127.0,127.0,4.0,4.2,-258,17,0,-276,260,14,393.7132272720337,393.71330213546753,393.71735072135925,393.72767519950867,393.87872338294983,393.87872338294983,393.87872338294983,393.87872338294983,393.87872338294983,393.87872338294983,393.87872338294983,396.9127097129822,2,3.181995391845703,None,,,,,,,,,,,,,,,,,,184,4,2025-03-04_12h04.55.135,comp,2024.2.4,None,2025-03-04 12h06.21.965610 -0500,
81,81,0,filler_random,None,None,None,None,None,None,None,None,None,None,1,3.9714930057525635,None,,,,,0,0,0,0,0,81,81,167,396.9298927783966,,,,,,,,,,,,,,,,,,,,,,,,,,,,,,,,,,,,,,,,,,,,,,,,,,,,,,,,,,,,,,,,,,,,,,,,,,,,,,,,,138.17344916986872,185.73464755110953,194.93510864590408,98.99503642919265,67.30772042764926,148.715214733118,2.1,2.12,-238,-268,0,-267,220,252,396.91440439224243,396.9144825935364,396.91851258277893,396.9298927783966,397.0869393348694,397.0869393348694,397.0869393348694,397.0869393348694,397.0869393348694,397.0869393348694,397.0869393348694,400.9058403968811,1,3.9714930057525635,None,,,,,,,,,,,,,,,,,,184,4,2025-03-04_12h04.55.135,comp,2024.2.4,None,2025-03-04 12h06.21.965610 -0500,
82,82,0,filler_square,None,None,None,None,None,None,None,None,None,None,1,4.84928822517395,None,,,,,0,0,0,0,0,82,82,202,400.92370104789734,,,,,,,,,,,,,,,,,,,,,,,,,,,,,,,,,,,,,,,,,,,,,,,,,,,,,,,,,,,,,,,,,,,,,,,,,,,,,,,,,131.13254192926763,131.13254192926763,103.67427623217233,84.06192779446714,85.03053018429733,120.84118270396047,1.0,1.3,276,-280,480,-262,678,-263,400.9075622558594,400.9076397418976,400.91052865982056,400.92370104789734,401.0668375492096,401.0668375492096,401.0668375492096,401.0668375492096,401.0668375492096,401.0668375492096,401.0668375492096,405.7837996482849,1,4.84928822517395,None,,,,,,,,,,,,,,,,,,184,4,2025-03-04_12h04.55.135,comp,2024.2.4,None,2025-03-04 12h06.21.965610 -0500,
83,83,0,critical,dhw,20.0,1.0,lower,78.0,78.0,133.0,57.0,57.0,133.0,3,6.918028116226196,None,,,,,0,0,0,0,0,83,83,54,405.79941749572754,,,,,,,,,,,,,,,,,,,,,,,,,,,,,,,,,,,,,,,,,,,,,,,,,,,,,,,,,,,,,,,,,,,,,,,,,,,,,,,,,78.0,78.0,133.0,57.0,57.0,133.0,1.0,1.1,-644,289,-480,273,-289,280,405.7853739261627,405.7854518890381,405.7886517047882,405.79941749572754,405.9367709159851,405.9367709159851,405.9367709159851,405.9367709159851,405.9367709159851,405.9367709159851,405.9367709159851,412.72515201568604,3,6.918028116226196,None,,,,,,,,,,,,,,,,,,184,4,2025-03-04_12h04.55.135,comp,2024.2.4,None,2025-03-04 12h06.21.965610 -0500,
84,84,0,critical,hdw,35.0,3.0,lower,133.0,57.0,70.0,70.0,57.0,133.0,3,2.783473253250122,None,,,,,0,0,0,0,0,84,84,110,412.74271154403687,,,,,,,,,,,,,,,,,,,,,,,,,,,,,,,,,,,,,,,,,,,,,,,,,,,,,,,,,,,,,,,,,,,,,,,,,,,,,,,,,133.0,57.0,70.0,70.0,57.0,133.0,3.0,3.2,-160,-259,0,0,198,259,412.7265589237213,412.72663736343384,412.7295355796814,412.74271154403687,412.8829689025879,412.8829689025879,412.8829689025879,412.8829689025879,412.8829689025879,412.8829689025879,412.8829689025879,415.5350646972656,3,2.783473253250122,None,,,,,,,,,,,,,,,,,,184,4,2025-03-04_12h04.55.135,comp,2024.2.4,None,2025-03-04 12h06.21.965610 -0500,
85,85,0,critical,hwd,20.0,2.1,lower,133.0,57.0,57.0,133.0,78.0,78.0,2,3.2306501865386963,None,,,,,0,0,0,0,0,85,85,42,415.5510792732239,,,,,,,,,,,,,,,,,,,,,,,,,,,,,,,,,,,,,,,,,,,,,,,,,,,,,,,,,,,,,,,,,,,,,,,,,,,,,,,,,133.0,57.0,57.0,133.0,78.0,78.0,2.1,2.11,-191,251,0,271,202,-285,415.5365626811981,415.53663873672485,415.5402944087982,415.5510792732239,415.700478553772,415.700478553772,415.700478553772,415.700478553772,415.700478553772,415.700478553772,415.700478553772,418.78948402404785,2,3.2306501865386963,None,,,,,,,,,,,,,,,,,,184,4,2025-03-04_12h04.55.135,comp,2024.2.4,None,2025-03-04 12h06.21.965610 -0500,
86,86,0,critical,dhw,35.0,2.1,lower,70.0,70.0,133.0,57.0,57.0,133.0,3,2.939593553543091,None,,,,,0,0,0,0,0,86,86,0,418.8101234436035,,,,,,,,,,,,,,,,,,,,,,,,,,,,,,,,,,,,,,,,,,,,,,,,,,,,,,,,,,,,,,,,,,,,,,,,,,,,,,,,,70.0,70.0,133.0,57.0,57.0,133.0,2.1,2.12,-160,-251,0,-283,191,263,418.7913703918457,418.79144835472107,418.7943685054779,418.8101234436035,418.94924783706665,418.94924783706665,418.94924783706665,418.94924783706665,418.94924783706665,418.94924783706665,418.94924783706665,421.7534637451172,3,2.939593553543091,None,,,,,,,,,,,,,,,,,,184,4,2025-03-04_12h04.55.135,comp,2024.2.4,None,2025-03-04 12h06.21.965610 -0500,
87,87,0,critical,hwd,20.0,3.0,upper,200.0,125.0,125.0,200.0,141.0,141.0,2,4.571781873703003,None,,,,,0,0,0,0,0,87,87,105,421.769300699234,,,,,,,,,,,,,,,,,,,,,,,,,,,,,,,,,,,,,,,,,,,,,,,,,,,,,,,,,,,,,,,,,,,,,,,,,,,,,,,,,200.0,125.0,125.0,200.0,141.0,141.0,3.0,3.2,-258,-266,0,-1,266,281,421.7550148963928,421.75509214401245,421.7585542201996,421.769300699234,421.91885924339294,421.91885924339294,421.91885924339294,421.91885924339294,421.91885924339294,421.91885924339294,421.91885924339294,426.3543133735657,2,4.571781873703003,None,,,,,,,,,,,,,,,,,,184,4,2025-03-04_12h04.55.135,comp,2024.2.4,None,2025-03-04 12h06.21.965610 -0500,
88,88,0,critical,dhw,20.0,2.1,upper,141.0,141.0,200.0,125.0,125.0,200.0,3,1.9381108283996582,None,,,,,0,0,0,0,0,88,88,27,426.3708872795105,,,,,,,,,,,,,,,,,,,,,,,,,,,,,,,,,,,,,,,,,,,,,,,,,,,,,,,,,,,,,,,,,,,,,,,,,,,,,,,,,141.0,141.0,200.0,125.0,125.0,200.0,2.1,2.12,-229,-280,0,-274,258,266,426.35588479042053,426.3559606075287,426.35934019088745,426.3708872795105,426.50870966911316,426.50870966911316,426.50870966911316,426.50870966911316,426.50870966911316,426.50870966911316,426.50870966911316,428.32207441329956,3,1.9381108283996582,None,,,,,,,,,,,,,,,,,,184,4,2025-03-04_12h04.55.135,comp,2024.2.4,None,2025-03-04 12h06.21.965610 -0500,
89,89,0,critical,wdh,35.0,4.0,lower,57.0,133.0,70.0,70.0,133.0,57.0,1,3.962007999420166,None,,,,,0,0,0,0,0,89,89,76,428.33947587013245,,,,,,,,,,,,,,,,,,,,,,,,,,,,,,,,,,,,,,,,,,,,,,,,,,,,,,,,,,,,,,,,,,,,,,,,,,,,,,,,,57.0,133.0,70.0,70.0,133.0,57.0,4.0,4.2,-198,-6,0,-255,160,3,428.32357120513916,428.3236463069916,428.3266861438751,428.33947587013245,428.49234342575073,428.49234342575073,428.49234342575073,428.49234342575073,428.49234342575073,428.49234342575073,428.49234342575073,432.3073453903198,1,3.962007999420166,None,,,,,,,,,,,,,,,,,,184,4,2025-03-04_12h04.55.135,comp,2024.2.4,None,2025-03-04 12h06.21.965610 -0500,
90,90,0,filler_square,None,None,None,None,None,None,None,None,None,None,3,2.826542854309082,None,,,,,0,0,0,0,0,90,90,209,432.3237793445587,,,,,,,,,,,,,,,,,,,,,,,,,,,,,,,,,,,,,,,,,,,,,,,,,,,,,,,,,,,,,,,,,,,,,,,,,,,,,,,,,97.10232356595009,181.55456962435375,63.91224920208055,134.90035797372352,186.48052199458445,186.48052199458445,2.1,2.11,-254,269,0,273,257,-260,432.30910778045654,432.30918526649475,432.31225872039795,432.3237793445587,432.47670102119446,432.47670102119446,432.47670102119446,432.47670102119446,432.47670102119446,432.47670102119446,432.47670102119446,435.16186356544495,3,2.826542854309082,None,,,,,,,,,,,,,,,,,,184,4,2025-03-04_12h04.55.135,comp,2024.2.4,None,2025-03-04 12h06.21.965610 -0500,
91,91,0,filler_random,None,None,None,None,None,None,None,None,None,None,3,1.5226211547851562,None,,,,,0,0,0,0,0,91,91,158,435.1790587902069,,,,,,,,,,,,,,,,,,,,,,,,,,,,,,,,,,,,,,,,,,,,,,,,,,,,,,,,,,,,,,,,,,,,,,,,,,,,,,,,,57.645674410718215,115.57643658145999,159.80698660841125,82.13713157450053,175.77251270726097,179.2868661831243,3.0,3.2,-195,-279,0,-12,227,289,435.16368293762207,435.1638288497925,435.1672396659851,435.1790587902069,435.32469940185547,435.32469940185547,435.32469940185547,435.32469940185547,435.32469940185547,435.32469940185547,435.32469940185547,436.7095637321472,3,1.5226211547851562,None,,,,,,,,,,,,,,,,,,184,4,2025-03-04_12h04.55.135,comp,2024.2.4,None,2025-03-04 12h06.21.965610 -0500,
92,92,0,filler_random,None,None,None,None,None,None,None,None,None,None,2,1.5693295001983643,None,,,,,0,0,0,0,0,92,92,153,436.7242922782898,,,,,,,,,,,,,,,,,,,,,,,,,,,,,,,,,,,,,,,,,,,,,,,,,,,,,,,,,,,,,,,,,,,,,,,,,,,,,,,,,83.56307907954798,98.11413422941193,142.1086001368406,182.58440990833333,171.0934683129344,146.19766186059053,3.0,3.2,-236,-270,0,-7,260,268,436.7112443447113,436.71133852005005,436.71441292762756,436.7242922782898,436.8736138343811,436.8736138343811,436.8736138343811,436.8736138343811,436.8736138343811,436.8736138343811,436.8736138343811,438.3020293712616,2,1.5693295001983643,None,,,,,,,,,,,,,,,,,,184,4,2025-03-04_12h04.55.135,comp,2024.2.4,None,2025-03-04 12h06.21.965610 -0500,
93,93,0,critical,hwd,35.0,1.0,lower,133.0,57.0,57.0,133.0,70.0,70.0,2,5.431796312332153,None,,,,,0,0,0,0,0,93,93,96,438.3172495365143,,,,,,,,,,,,,,,,,,,,,,,,,,,,,,,,,,,,,,,,,,,,,,,,,,,,,,,,,,,,,,,,,,,,,,,,,,,,,,,,,133.0,57.0,57.0,133.0,70.0,70.0,1.0,1.3,289,-284,480,-255,678,-257,438.3034586906433,438.30353307724,438.3064353466034,438.3172495365143,438.45793867111206,438.45793867111206,438.45793867111206,438.45793867111206,438.45793867111206,438.45793867111206,438.45793867111206,443.7601680755615,2,5.431796312332153,None,,,,,,,,,,,,,,,,,,184,4,2025-03-04_12h04.55.135,comp,2024.2.4,None,2025-03-04 12h06.21.965610 -0500,
94,94,0,filler_square,None,None,None,None,None,None,None,None,None,None,1,2.5243566036224365,None,,,,,0,0,0,0,0,94,94,204,443.77669286727905,,,,,,,,,,,,,,,,,,,,,,,,,,,,,,,,,,,,,,,,,,,,,,,,,,,,,,,,,,,,,,,,,,,,,,,,,,,,,,,,,125.52668817003858,125.52668817003858,88.91424454134686,93.4014553198322,111.10503752350212,103.4603382266348,4.0,4.2,-205,11,0,-253,194,-12,443.7619569301605,443.76203513145447,443.7650468349457,443.77669286727905,443.9291834831238,443.9291834831238,443.9291834831238,443.9291834831238,443.9291834831238,443.9291834831238,443.9291834831238,446.3168876171112,1,2.5243566036224365,None,,,,,,,,,,,,,,,,,,184,4,2025-03-04_12h04.55.135,comp,2024.2.4,None,2025-03-04 12h06.21.965610 -0500,
95,95,0,filler_square,None,None,None,None,None,None,None,None,None,None,2,4.152211904525757,None,,,,,0,0,0,0,0,95,95,193,446.3328866958618,,,,,,,,,,,,,,,,,,,,,,,,,,,,,,,,,,,,,,,,,,,,,,,,,,,,,,,,,,,,,,,,,,,,,,,,,,,,,,,,,63.62790392142266,65.78587950103282,90.67209267445581,90.67209267445581,63.00065364412848,65.1842571618833,3.0,3.2,-174,-273,0,-4,174,270,446.3186321258545,446.31870794296265,446.3216190338135,446.3328866958618,446.4779088497162,446.4779088497162,446.4779088497162,446.4779088497162,446.4779088497162,446.4779088497162,446.4779088497162,450.4946105480194,2,4.152211904525757,None,,,,,,,,,,,,,,,,,,184,4,2025-03-04_12h04.55.135,comp,2024.2.4,None,2025-03-04 12h06.21.965610 -0500,
96,96,0,critical,dwh,35.0,4.0,lower,70.0,70.0,57.0,133.0,133.0,57.0,2,2.586465358734131,None,,,,,0,0,0,0,0,96,96,64,450.51487493515015,,,,,,,,,,,,,,,,,,,,,,,,,,,,,,,,,,,,,,,,,,,,,,,,,,,,,,,,,,,,,,,,,,,,,,,,,,,,,,,,,70.0,70.0,57.0,133.0,133.0,57.0,4.0,4.1,-198,-272,0,17,191,-286,450.4961895942688,450.49626660346985,450.49956035614014,450.51487493515015,450.6478247642517,450.6478247642517,450.6478247642517,450.6478247642517,450.6478247642517,450.6478247642517,450.6478247642517,453.11675357818604,2,2.586465358734131,None,,,,,,,,,,,,,,,,,,184,4,2025-03-04_12h04.55.135,comp,2024.2.4,None,2025-03-04 12h06.21.965610 -0500,
97,97,0,filler_random,None,None,None,None,None,None,None,None,None,None,2,1.6239914894104004,None,,,,,0,0,0,0,0,97,97,135,453.13392424583435,,,,,,,,,,,,,,,,,,,,,,,,,,,,,,,,,,,,,,,,,,,,,,,,,,,,,,,,,,,,,,,,,,,,,,,,,,,,,,,,,92.88107803514188,158.21623369067547,128.45826390087433,138.62836315227725,108.06109339098634,79.39898102560454,3.0,3.1,-244,280,0,17,205,-263,453.1184468269348,453.11852383613586,453.12147665023804,453.13392424583435,453.2802119255066,453.2802119255066,453.2802119255066,453.2802119255066,453.2802119255066,453.2802119255066,453.2802119255066,454.763840675354,2,1.6239914894104004,None,,,,,,,,,,,,,,,,,,184,4,2025-03-04_12h04.55.135,comp,2024.2.4,None,2025-03-04 12h06.21.965610 -0500,
98,98,0,critical,whd,20.0,2.1,lower,57.0,133.0,133.0,57.0,78.0,78.0,1,4.257895469665527,None,,,,,0,0,0,0,0,98,98,38,454.78019857406616,,,,,,,,,,,,,,,,,,,,,,,,,,,,,,,,,,,,,,,,,,,,,,,,,,,,,,,,,,,,,,,,,,,,,,,,,,,,,,,,,57.0,133.0,133.0,57.0,78.0,78.0,2.1,2.12,-191,-264,0,-261,164,262,454.76543045043945,454.7655100822449,454.7695393562317,454.78019857406616,454.9299862384796,454.9299862384796,454.9299862384796,454.9299862384796,454.9299862384796,454.9299862384796,454.9299862384796,459.0496790409088,1,4.257895469665527,None,,,,,,,,,,,,,,,,,,184,4,2025-03-04_12h04.55.135,comp,2024.2.4,None,2025-03-04 12h06.21.965610 -0500,
99,99,0,critical,dhw,20.0,1.0,upper,141.0,141.0,200.0,125.0,125.0,200.0,2,1.5959506034851074,None,,,,,0,0,0,0,0,99,99,55,459.06562995910645,,,,,,,,,,,,,,,,,,,,,,,,,,,,,,,,,,,,,,,,,,,,,,,,,,,,,,,,,,,,,,,,,,,,,,,,,,,,,,,,,141.0,141.0,200.0,125.0,125.0,200.0,1.0,1.3,251,-259,480,-289,738,-258,459.05125427246094,459.0513508319855,459.05476331710815,459.06562995910645,459.2155411243439,459.2155411243439,459.2155411243439,459.2155411243439,459.2155411243439,459.2155411243439,459.2155411243439,460.6711313724518,2,1.5959506034851074,None,,,,,,,,,,,,,,,,,,184,4,2025-03-04_12h04.55.135,comp,2024.2.4,None,2025-03-04 12h06.21.965610 -0500,
100,100,0,filler_random,None,None,None,None,None,None,None,None,None,None,1,1.9027998447418213,None,,,,,0,0,0,0,0,100,100,161,460.6874339580536,,,,,,,,,,,,,,,,,,,,,,,,,,,,,,,,,,,,,,,,,,,,,,,,,,,,,,,,,,,,,,,,,,,,,,,,,,,,,,,,,165.4475268475928,180.60138811756997,155.37957395669295,99.03248669420759,97.81307820227664,119.0051685899002,2.2,2.22,-236,260,0,-288,205,-256,460.6727759838104,460.672883272171,460.67574429512024,460.6874339580536,460.83216428756714,460.83216428756714,460.83216428756714,460.83216428756714,460.83216428756714,460.83216428756714,460.83216428756714,462.6005890369415,1,1.9027998447418213,None,,,,,,,,,,,,,,,,,,184,4,2025-03-04_12h04.55.135,comp,2024.2.4,None,2025-03-04 12h06.21.965610 -0500,
101,101,0,critical,dhw,20.0,4.0,upper,141.0,141.0,200.0,125.0,125.0,200.0,3,3.7886555194854736,None,,,,,0,0,0,0,0,101,101,59,462.61711835861206,,,,,,,,,,,,,,,,,,,,,,,,,,,,,,,,,,,,,,,,,,,,,,,,,,,,,,,,,,,,,,,,,,,,,,,,,,,,,,,,,141.0,141.0,200.0,125.0,125.0,200.0,4.0,4.1,-229,-282,0,19,258,-278,462.60211277008057,462.6021900177002,462.6063013076782,462.61711835861206,462.7726044654846,462.7726044654846,462.7726044654846,462.7726044654846,462.7726044654846,462.7726044654846,462.7726044654846,466.4081106185913,3,3.7886555194854736,None,,,,,,,,,,,,,,,,,,184,4,2025-03-04_12h04.55.135,comp,2024.2.4,None,2025-03-04 12h06.21.965610 -0500,
102,102,0,filler_random,None,None,None,None,None,None,None,None,None,None,3,2.8913629055023193,None,,,,,0,0,0,0,0,102,102,155,466.42565965652466,,,,,,,,,,,,,,,,,,,,,,,,,,,,,,,,,,,,,,,,,,,,,,,,,,,,,,,,,,,,,,,,,,,,,,,,,,,,,,,,,76.05613942452382,62.507597501552965,141.2150848120791,139.67651090461231,160.86565429486689,159.890374160288,4.0,4.2,-197,2,0,-250,246,-3,466.4097549915314,466.40986251831055,466.41270112991333,466.42565965652466,466.56748962402344,466.56748962402344,466.56748962402344,466.56748962402344,466.56748962402344,466.56748962402344,466.56748962402344,469.32026863098145,3,2.8913629055023193,None,,,,,,,,,,,,,,,,,,184,4,2025-03-04_12h04.55.135,comp,2024.2.4,None,2025-03-04 12h06.21.965610 -0500,
103,103,0,critical,hdw,20.0,4.0,upper,200.0,125.0,141.0,141.0,125.0,200.0,3,2.7328875064849854,None,,,,,0,0,0,0,0,103,103,119,469.3365080356598,,,,,,,,,,,,,,,,,,,,,,,,,,,,,,,,,,,,,,,,,,,,,,,,,,,,,,,,,,,,,,,,,,,,,,,,,,,,,,,,,200.0,125.0,141.0,141.0,125.0,200.0,4.0,4.1,-229,-273,0,18,266,-261,469.3218812942505,469.3219587802887,469.3257210254669,469.3365080356598,469.4859845638275,469.4859845638275,469.4859845638275,469.4859845638275,469.4859845638275,469.4859845638275,469.4859845638275,472.0870769023895,3,2.7328875064849854,None,,,,,,,,,,,,,,,,,,184,4,2025-03-04_12h04.55.135,comp,2024.2.4,None,2025-03-04 12h06.21.965610 -0500,
104,104,0,critical,dwh,35.0,1.0,lower,70.0,70.0,57.0,133.0,133.0,57.0,2,2.5660502910614014,None,,,,,0,0,0,0,0,104,104,60,472.10327911376953,,,,,,,,,,,,,,,,,,,,,,,,,,,,,,,,,,,,,,,,,,,,,,,,,,,,,,,,,,,,,,,,,,,,,,,,,,,,,,,,,70.0,70.0,57.0,133.0,133.0,57.0,1.0,1.2,-198,-14,0,17,191,0,472.0886104106903,472.08868646621704,472.0919864177704,472.10327911376953,472.26040840148926,472.26040840148926,472.26040840148926,472.26040840148926,472.26040840148926,472.26040840148926,472.26040840148926,474.686185836792,2,2.5660502910614014,None,,,,,,,,,,,,,,,,,,184,4,2025-03-04_12h04.55.135,comp,2024.2.4,None,2025-03-04 12h06.21.965610 -0500,
105,105,0,filler_square,None,None,None,None,None,None,None,None,None,None,1,1.9744997024536133,None,,,,,0,0,0,0,0,105,105,203,474.7024984359741,,,,,,,,,,,,,,,,,,,,,,,,,,,,,,,,,,,,,,,,,,,,,,,,,,,,,,,,,,,,,,,,,,,,,,,,,,,,,,,,,110.80614178527925,110.80614178527925,67.81993999334911,70.66263730820664,96.42763800529579,90.40997006431573,2.2,2.21,-187,-272,0,272,177,271,474.68791675567627,474.6879916191101,474.6910843849182,474.7024984359741,474.8566403388977,474.8566403388977,474.8566403388977,474.8566403388977,474.8566403388977,474.8566403388977,474.8566403388977,476.6884527206421,1,1.9744997024536133,None,,,,,,,,,,,,,,,,,,184,4,2025-03-04_12h04.55.135,comp,2024.2.4,None,2025-03-04 12h06.21.965610 -0500,
106,106,0,critical,whd,20.0,4.0,upper,125.0,200.0,200.0,125.0,141.0,141.0,1,4.709262371063232,None,,,,,0,0,0,0,0,106,106,95,476.704140663147,,,,,,,,,,,,,,,,,,,,,,,,,,,,,,,,,,,,,,,,,,,,,,,,,,,,,,,,,,,,,,,,,,,,,,,,,,,,,,,,,125.0,200.0,200.0,125.0,141.0,141.0,4.0,4.1,-258,-288,0,15,229,-270,476.6900691986084,476.69014620780945,476.69370198249817,476.704140663147,476.85427165031433,476.85427165031433,476.85427165031433,476.85427165031433,476.85427165031433,476.85427165031433,476.85427165031433,481.4201202392578,1,4.709262371063232,None,,,,,,,,,,,,,,,,,,184,4,2025-03-04_12h04.55.135,comp,2024.2.4,None,2025-03-04 12h06.21.965610 -0500,
107,107,0,filler_square,None,None,None,None,None,None,None,None,None,None,2,2.4206554889678955,None,,,,,0,0,0,0,0,107,107,192,481.44054436683655,,,,,,,,,,,,,,,,,,,,,,,,,,,,,,,,,,,,,,,,,,,,,,,,,,,,,,,,,,,,,,,,,,,,,,,,,,,,,,,,,72.07867050297746,74.24288783496083,154.66327641036006,154.66327641036006,65.32147487688331,69.16326128454162,3.0,3.2,-210,-267,0,-2,208,254,481.42183446884155,481.4219183921814,481.4247553348541,481.44054436683655,481.5889902114868,481.5889902114868,481.5889902114868,481.5889902114868,481.5889902114868,481.5889902114868,481.5889902114868,483.87515330314636,2,2.4206554889678955,None,,,,,,,,,,,,,,,,,,184,4,2025-03-04_12h04.55.135,comp,2024.2.4,None,2025-03-04 12h06.21.965610 -0500,
108,108,0,catch,None,None,None,None,None,None,None,None,None,None,3,1.3573522567749023,None,,,,,0,0,0,0,0,108,108,125,483.89653754234314,,,,,,,,,,,,,,,,,,,,,,,,,,,,,,,,,,,,,,,,,,,,,,,,,,,,,,,,,,,,,,,,,,,,,,,,,,,,,,,,,123,67,67,123,173,152,2.1,2.12,-191,-284,0,-256,234,273,483.8777620792389,483.8778691291809,483.8807339668274,483.89653754234314,484.0449187755585,484.0449187755585,484.0449187755585,484.0449187755585,484.0449187755585,484.0449187755585,484.0449187755585,485.26191329956055,3,1.3573522567749023,None,,,,,,,,,,,,,,,,,,184,4,2025-03-04_12h04.55.135,comp,2024.2.4,None,2025-03-04 12h06.21.965610 -0500,
109,109,0,critical,dwh,35.0,2.1,lower,70.0,70.0,57.0,133.0,133.0,57.0,2,2.2235233783721924,None,,,,,0,0,0,0,0,109,109,4,485.27759647369385,,,,,,,,,,,,,,,,,,,,,,,,,,,,,,,,,,,,,,,,,,,,,,,,,,,,,,,,,,,,,,,,,,,,,,,,,,,,,,,,,70.0,70.0,57.0,133.0,133.0,57.0,2.1,2.11,-198,261,0,270,191,-281,485.2639091014862,485.26398968696594,485.26693773269653,485.27759647369385,485.42350912094116,485.42350912094116,485.42350912094116,485.42350912094116,485.42350912094116,485.42350912094116,485.42350912094116,487.51322865486145,2,2.2235233783721924,None,,,,,,,,,,,,,,,,,,184,4,2025-03-04_12h04.55.135,comp,2024.2.4,None,2025-03-04 12h06.21.965610 -0500,
110,110,0,filler_square,None,None,None,None,None,None,None,None,None,None,3,1.565516710281372,None,,,,,0,0,0,0,0,110,110,205,487.52816247940063,,,,,,,,,,,,,,,,,,,,,,,,,,,,,,,,,,,,,,,,,,,,,,,,,,,,,,,,,,,,,,,,,,,,,,,,,,,,,,,,,162.10701572897244,162.10701572897244,73.25290036968917,81.08402333610272,107.84209335561496,144.94119674850884,2.2,2.21,-218,-287,0,283,209,268,487.51491379737854,487.51498889923096,487.5178966522217,487.52816247940063,487.67149114608765,487.67149114608765,487.67149114608765,487.67149114608765,487.67149114608765,487.67149114608765,487.67149114608765,489.0978693962097,3,1.565516710281372,None,,,,,,,,,,,,,,,,,,184,4,2025-03-04_12h04.55.135,comp,2024.2.4,None,2025-03-04 12h06.21.965610 -0500,
111,111,0,filler_square,None,None,None,None,None,None,None,None,None,None,3,7.8994460105896,None,,,,,0,0,0,0,0,111,111,195,489.11364483833313,,,,,,,,,,,,,,,,,,,,,,,,,,,,,,,,,,,,,,,,,,,,,,,,,,,,,,,,,,,,,,,,,,,,,,,,,,,,,,,,,79.44737416693246,62.760668233448634,66.89954028376454,84.39470855507406,84.56242004616374,84.56242004616374,3.0,3.1,-170,270,0,-1,180,-278,489.09967064857483,489.09974932670593,489.10298347473145,489.11364483833313,489.2567527294159,489.2567527294159,489.2567527294159,489.2567527294159,489.2567527294159,489.2567527294159,489.2567527294159,497.0259087085724,3,7.8994460105896,None,,,,,,,,,,,,,,,,,,184,4,2025-03-04_12h04.55.135,comp,2024.2.4,None,2025-03-04 12h06.21.965610 -0500,
112,112,0,critical,dwh,20.0,3.0,lower,78.0,78.0,57.0,133.0,133.0,57.0,2,2.3074145317077637,None,,,,,0,0,0,0,0,112,112,68,497.04164123535156,,,,,,,,,,,,,,,,,,,,,,,,,,,,,,,,,,,,,,,,,,,,,,,,,,,,,,,,,,,,,,,,,,,,,,,,,,,,,,,,,78.0,78.0,57.0,133.0,133.0,57.0,3.0,3.1,-202,258,0,-10,191,-277,497.02738308906555,497.02745819091797,497.030549287796,497.04164123535156,497.1933596134186,497.1933596134186,497.1933596134186,497.1933596134186,497.1933596134186,497.1933596134186,497.1933596134186,499.36275720596313,2,2.3074145317077637,None,,,,,,,,,,,,,,,,,,184,4,2025-03-04_12h04.55.135,comp,2024.2.4,None,2025-03-04 12h06.21.965610 -0500,
113,113,0,filler_square,None,None,None,None,None,None,None,None,None,None,3,5.210715055465698,None,,,,,0,0,0,0,0,113,113,178,499.37898802757263,,,,,,,,,,,,,,,,,,,,,,,,,,,,,,,,,,,,,,,,,,,,,,,,,,,,,,,,,,,,,,,,,,,,,,,,,,,,,,,,,61.678648325770745,63.97080167937739,58.88507465641592,61.1403168829981,65.05531471604586,65.05531471604586,1.0,1.3,321,-264,480,-254,639,-283,499.3647084236145,499.3647835254669,499.36862421035767,499.37898802757263,499.52804827690125,499.52804827690125,499.52804827690125,499.52804827690125,499.52804827690125,499.52804827690125,499.52804827690125,504.5961287021637,3,5.210715055465698,None,,,,,,,,,,,,,,,,,,184,4,2025-03-04_12h04.55.135,comp,2024.2.4,None,2025-03-04 12h06.21.965610 -0500,
114,114,0,critical,dhw,20.0,2.1,lower,78.0,78.0,133.0,57.0,57.0,133.0,3,2.553077459335327,None,,,,,0,0,0,0,0,114,114,2,504.61208033561707,,,,,,,,,,,,,,,,,,,,,,,,,,,,,,,,,,,,,,,,,,,,,,,,,,,,,,,,,,,,,,,,,,,,,,,,,,,,,,,,,78.0,78.0,133.0,57.0,57.0,133.0,2.1,2.12,-164,-274,0,-263,191,276,504.5976634025574,504.59774112701416,504.60129857063293,504.61208033561707,504.764036655426,504.764036655426,504.764036655426,504.764036655426,504.764036655426,504.764036655426,504.764036655426,507.1711657047272,3,2.553077459335327,None,,,,,,,,,,,,,,,,,,184,4,2025-03-04_12h04.55.135,comp,2024.2.4,None,2025-03-04 12h06.21.965610 -0500,
115,115,0,filler_random,None,None,None,None,None,None,None,None,None,None,1,1.3730683326721191,None,,,,,0,0,0,0,0,115,115,147,507.1921076774597,,,,,,,,,,,,,,,,,,,,,,,,,,,,,,,,,,,,,,,,,,,,,,,,,,,,,,,,,,,,,,,,,,,,,,,,,,,,,,,,,193.7969194413328,187.8084468795667,131.17349805026984,150.02250734301145,102.0280457278632,133.1391082866477,2.2,2.22,-265,283,0,-284,238,-275,507.1728904247284,507.172967672348,507.17626667022705,507.1921076774597,507.33114099502563,507.33114099502563,507.33114099502563,507.33114099502563,507.33114099502563,507.33114099502563,507.33114099502563,508.58050632476807,1,1.3730683326721191,None,,,,,,,,,,,,,,,,,,184,4,2025-03-04_12h04.55.135,comp,2024.2.4,None,2025-03-04 12h06.21.965610 -0500,
116,116,0,critical,whd,20.0,4.0,lower,57.0,133.0,133.0,57.0,78.0,78.0,1,3.8903071880340576,None,,,,,0,0,0,0,0,116,116,94,508.59479308128357,,,,,,,,,,,,,,,,,,,,,,,,,,,,,,,,,,,,,,,,,,,,,,,,,,,,,,,,,,,,,,,,,,,,,,,,,,,,,,,,,57.0,133.0,133.0,57.0,78.0,78.0,4.0,4.1,-191,-252,0,-12,164,-271,508.5821018218994,508.5821783542633,508.58554673194885,508.59479308128357,508.74645805358887,508.74645805358887,508.74645805358887,508.74645805358887,508.74645805358887,508.74645805358887,508.74645805358887,512.499311208725,1,3.8903071880340576,None,,,,,,,,,,,,,,,,,,184,4,2025-03-04_12h04.55.135,comp,2024.2.4,None,2025-03-04 12h06.21.965610 -0500,
117,117,0,critical,hdw,20.0,1.0,lower,133.0,57.0,78.0,78.0,57.0,133.0,3,4.977246522903442,None,,,,,0,0,0,0,0,117,117,114,512.5159912109375,,,,,,,,,,,,,,,,,,,,,,,,,,,,,,,,,,,,,,,,,,,,,,,,,,,,,,,,,,,,,,,,,,,,,,,,,,,,,,,,,133.0,57.0,78.0,78.0,57.0,133.0,1.0,1.3,316,-258,480,-273,682,-279,512.5007109642029,512.5007855892181,512.5047369003296,512.5159912109375,512.6664440631866,512.6664440631866,512.6664440631866,512.6664440631866,512.6664440631866,512.6664440631866,512.6664440631866,517.5123724937439,3,4.977246522903442,None,,,,,,,,,,,,,,,,,,184,4,2025-03-04_12h04.55.135,comp,2024.2.4,None,2025-03-04 12h06.21.965610 -0500,
118,118,0,critical,dwh,35.0,2.1,upper,127.0,127.0,125.0,200.0,200.0,125.0,2,3.3149971961975098,None,,,,,0,0,0,0,0,118,118,5,517.5309643745422,,,,,,,,,,,,,,,,,,,,,,,,,,,,,,,,,,,,,,,,,,,,,,,,,,,,,,,,,,,,,,,,,,,,,,,,,,,,,,,,,127.0,127.0,125.0,200.0,200.0,125.0,2.1,2.11,-260,280,0,259,258,-260,517.5138614177704,517.5139372348785,517.5172522068024,517.5309643745422,517.6641402244568,517.6641402244568,517.6641402244568,517.6641402244568,517.6641402244568,517.6641402244568,517.6641402244568,520.8525424003601,2,3.3149971961975098,None,,,,,,,,,,,,,,,,,,184,4,2025-03-04_12h04.55.135,comp,2024.2.4,None,2025-03-04 12h06.21.965610 -0500,
119,119,0,critical,dhw,20.0,4.0,lower,78.0,78.0,133.0,57.0,57.0,133.0,3,3.120314121246338,None,,,,,0,0,0,0,0,119,119,58,520.8688662052155,,,,,,,,,,,,,,,,,,,,,,,,,,,,,,,,,,,,,,,,,,,,,,,,,,,,,,,,,,,,,,,,,,,,,,,,,,,,,,,,,78.0,78.0,133.0,57.0,57.0,133.0,4.0,4.2,-164,-5,0,-270,191,-18,520.8541903495789,520.8542685508728,520.8577196598053,520.8688662052155,521.0111780166626,521.0111780166626,521.0111780166626,521.0111780166626,521.0111780166626,521.0111780166626,521.0111780166626,523.9911940097809,3,3.120314121246338,None,,,,,,,,,,,,,,,,,,184,4,2025-03-04_12h04.55.135,comp,2024.2.4,None,2025-03-04 12h06.21.965610 -0500,
120,120,0,critical,whd,35.0,2.1,upper,125.0,200.0,200.0,125.0,127.0,127.0,1,3.87873911857605,None,,,,,0,0,0,0,0,120,120,37,524.0066616535187,,,,,,,,,,,,,,,,,,,,,,,,,,,,,,,,,,,,,,,,,,,,,,,,,,,,,,,,,,,,,,,,,,,,,,,,,,,,,,,,,125.0,200.0,200.0,125.0,127.0,127.0,2.1,2.11,-258,287,0,283,222,-260,523.9926979541779,523.9927923679352,523.9959232807159,524.0066616535187,524.1540501117706,524.1540501117706,524.1540501117706,524.1540501117706,524.1540501117706,524.1540501117706,524.1540501117706,527.9009478092194,1,3.87873911857605,None,,,,,,,,,,,,,,,,,,184,4,2025-03-04_12h04.55.135,comp,2024.2.4,None,2025-03-04 12h06.21.965610 -0500,
121,121,0,filler_random,None,None,None,None,None,None,None,None,None,None,1,2.2256922721862793,None,,,,,0,0,0,0,0,121,121,164,527.9176471233368,,,,,,,,,,,,,,,,,,,,,,,,,,,,,,,,,,,,,,,,,,,,,,,,,,,,,,,,,,,,,,,,,,,,,,,,,,,,,,,,,130.55288377274925,98.36198109548432,126.43106883085937,63.493601673704475,97.37332712363708,68.23798930418468,2.2,2.22,-177,263,0,-268,162,-283,527.9026539325714,527.9027788639069,527.9060542583466,527.9176471233368,528.0596742630005,528.0596742630005,528.0596742630005,528.0596742630005,528.0596742630005,528.0596742630005,528.0596742630005,530.1551020145416,1,2.2256922721862793,None,,,,,,,,,,,,,,,,,,184,4,2025-03-04_12h04.55.135,comp,2024.2.4,None,2025-03-04 12h06.21.965610 -0500,
122,122,0,critical,dhw,35.0,3.0,lower,70.0,70.0,133.0,57.0,57.0,133.0,3,4.210376262664795,None,,,,,0,0,0,0,0,122,122,50,530.1713514328003,,,,,,,,,,,,,,,,,,,,,,,,,,,,,,,,,,,,,,,,,,,,,,,,,,,,,,,,,,,,,,,,,,,,,,,,,,,,,,,,,70.0,70.0,133.0,57.0,57.0,133.0,3.0,3.2,-160,-281,0,0,191,262,530.1566967964172,530.1567718982697,530.1603894233704,530.1713514328003,530.3218369483948,530.3218369483948,530.3218369483948,530.3218369483948,530.3218369483948,530.3218369483948,530.3218369483948,534.3888418674469,3,4.210376262664795,None,,,,,,,,,,,,,,,,,,184,4,2025-03-04_12h04.55.135,comp,2024.2.4,None,2025-03-04 12h06.21.965610 -0500,
123,123,0,critical,whd,20.0,3.0,upper,125.0,200.0,200.0,125.0,141.0,141.0,1,2.5527288913726807,None,,,,,0,0,0,0,0,123,123,93,534.4045820236206,,,,,,,,,,,,,,,,,,,,,,,,,,,,,,,,,,,,,,,,,,,,,,,,,,,,,,,,,,,,,,,,,,,,,,,,,,,,,,,,,125.0,200.0,200.0,125.0,141.0,141.0,3.0,3.1,-258,257,0,11,229,-272,534.390284538269,534.39035820961,534.3938419818878,534.4045820236206,534.5542850494385,534.5542850494385,534.5542850494385,534.5542850494385,534.5542850494385,534.5542850494385,534.5542850494385,536.9727728366852,1,2.5527288913726807,None,,,,,,,,,,,,,,,,,,184,4,2025-03-04_12h04.55.135,comp,2024.2.4,None,2025-03-04 12h06.21.965610 -0500,
124,124,0,filler_square,None,None,None,None,None,None,None,None,None,None,1,6.56153130531311,None,,,,,0,0,0,0,0,124,124,194,536.9884111881256,,,,,,,,,,,,,,,,,,,,,,,,,,,,,,,,,,,,,,,,,,,,,,,,,,,,,,,,,,,,,,,,,,,,,,,,,,,,,,,,,100.45263112775477,107.19327021632321,81.7352055049849,94.36473325178473,167.33493987197835,167.33493987197835,2.1,2.12,-197,-250,0,-286,227,255,536.9746158123016,536.9746913909912,536.9780840873718,536.9884111881256,537.132577419281,537.132577419281,537.132577419281,537.132577419281,537.132577419281,537.132577419281,537.132577419281,543.5587203502655,1,6.56153130531311,None,,,,,,,,,,,,,,,,,,184,4,2025-03-04_12h04.55.135,comp,2024.2.4,None,2025-03-04 12h06.21.965610 -0500,
125,125,0,filler_random,None,None,None,None,None,None,None,None,None,None,2,3.3504443168640137,None,,,,,0,0,0,0,0,125,125,160,543.5747103691101,,,,,,,,,,,,,,,,,,,,,,,,,,,,,,,,,,,,,,,,,,,,,,,,,,,,,,,,,,,,,,,,,,,,,,,,,,,,,,,,,81.45925271531844,144.58090539811775,93.5977384686536,195.52607490015603,148.1502545407344,95.75049467264353,2.1,2.12,-266,-290,0,-288,242,278,543.5603663921356,543.5604422092438,543.5639033317566,543.5747103691101,543.7238409519196,543.7238409519196,543.7238409519196,543.7238409519196,543.7238409519196,543.7238409519196,543.7238409519196,546.9272472858429,2,3.3504443168640137,None,,,,,,,,,,,,,,,,,,184,4,2025-03-04_12h04.55.135,comp,2024.2.4,None,2025-03-04 12h06.21.965610 -0500,
126,126,0,critical,dwh,20.0,4.0,upper,141.0,141.0,125.0,200.0,200.0,125.0,2,3.3986940383911133,None,,,,,0,0,0,0,0,126,126,71,546.9426803588867,,,,,,,,,,,,,,,,,,,,,,,,,,,,,,,,,,,,,,,,,,,,,,,,,,,,,,,,,,,,,,,,,,,,,,,,,,,,,,,,,141.0,141.0,125.0,200.0,200.0,125.0,4.0,4.2,-266,18,0,-266,258,12,546.9287176132202,546.9287939071655,546.9319405555725,546.9426803588867,547.0920507907867,547.0920507907867,547.0920507907867,547.0920507907867,547.0920507907867,547.0920507907867,547.0920507907867,550.3452696800232,2,3.3986940383911133,None,,,,,,,,,,,,,,,,,,184,4,2025-03-04_12h04.55.135,comp,2024.2.4,None,2025-03-04 12h06.21.965610 -0500,
127,127,0,critical,whd,20.0,1.0,upper,125.0,200.0,200.0,125.0,141.0,141.0,1,2.1873135566711426,None,,,,,0,0,0,0,0,127,127,91,550.3619079589844,,,,,,,,,,,,,,,,,,,,,,,,,,,,,,,,,,,,,,,,,,,,,,,,,,,,,,,,,,,,,,,,,,,,,,,,,,,,,,,,,125.0,200.0,200.0,125.0,141.0,141.0,1.0,1.1,-738,256,-480,265,-251,278,550.3467724323273,550.34690117836,550.3501543998718,550.3619079589844,550.5108730792999,550.5108730792999,550.5108730792999,550.5108730792999,550.5108730792999,550.5108730792999,550.5108730792999,552.5601937770844,1,2.1873135566711426,None,,,,,,,,,,,,,,,,,,184,4,2025-03-04_12h04.55.135,comp,2024.2.4,None,2025-03-04 12h06.21.965610 -0500,
128,128,0,critical,dhw,35.0,2.1,upper,127.0,127.0,200.0,125.0,125.0,200.0,3,2.369539737701416,None,,,,,0,0,0,0,0,128,128,25,552.5803310871124,,,,,,,,,,,,,,,,,,,,,,,,,,,,,,,,,,,,,,,,,,,,,,,,,,,,,,,,,,,,,,,,,,,,,,,,,,,,,,,,,127.0,127.0,200.0,125.0,125.0,200.0,2.1,2.11,-222,281,0,284,258,-275,552.5616867542267,552.5617623329163,552.5649638175964,552.5803310871124,552.727933883667,552.727933883667,552.727933883667,552.727933883667,552.727933883667,552.727933883667,552.727933883667,554.9680664539337,3,2.369539737701416,None,,,,,,,,,,,,,,,,,,184,4,2025-03-04_12h04.55.135,comp,2024.2.4,None,2025-03-04 12h06.21.965610 -0500,
129,129,0,critical,dwh,20.0,2.1,upper,141.0,141.0,125.0,200.0,200.0,125.0,2,2.317155122756958,None,,,,,0,0,0,0,0,129,129,7,554.9840250015259,,,,,,,,,,,,,,,,,,,,,,,,,,,,,,,,,,,,,,,,,,,,,,,,,,,,,,,,,,,,,,,,,,,,,,,,,,,,,,,,,141.0,141.0,125.0,200.0,200.0,125.0,2.1,2.11,-266,285,0,274,258,-252,554.9695692062378,554.9696435928345,554.9730381965637,554.9840250015259,555.1295149326324,555.1295149326324,555.1295149326324,555.1295149326324,555.1295149326324,555.1295149326324,555.1295149326324,557.3128879070282,2,2.317155122756958,None,,,,,,,,,,,,,,,,,,184,4,2025-03-04_12h04.55.135,comp,2024.2.4,None,2025-03-04 12h06.21.965610 -0500,
130,130,0,critical,whd,35.0,2.1,upper,125.0,200.0,200.0,125.0,127.0,127.0,1,1.4031784534454346,None,,,,,0,0,0,0,0,130,130,13,557.3301181793213,,,,,,,,,,,,,,,,,,,,,,,,,,,,,,,,,,,,,,,,,,,,,,,,,,,,,,,,,,,,,,,,,,,,,,,,,,,,,,,,,125.0,200.0,200.0,125.0,127.0,127.0,2.1,2.11,-258,268,0,261,222,-269,557.3142311573029,557.3142986297607,557.3173632621765,557.3301181793213,557.4807579517365,557.4807579517365,557.4807579517365,557.4807579517365,557.4807579517365,557.4807579517365,557.4807579517365,558.7526309490204,1,1.4031784534454346,None,,,,,,,,,,,,,,,,,,184,4,2025-03-04_12h04.55.135,comp,2024.2.4,None,2025-03-04 12h06.21.965610 -0500,
131,131,0,critical,dhw,35.0,4.0,upper,127.0,127.0,200.0,125.0,125.0,200.0,3,2.1348631381988525,None,,,,,0,0,0,0,0,131,131,53,558.7675278186798,,,,,,,,,,,,,,,,,,,,,,,,,,,,,,,,,,,,,,,,,,,,,,,,,,,,,,,,,,,,,,,,,,,,,,,,,,,,,,,,,127.0,127.0,200.0,125.0,125.0,200.0,4.0,4.2,-222,-18,0,-279,258,0,558.7541289329529,558.7542078495026,558.7570869922638,558.7675278186798,558.9132673740387,558.9132673740387,558.9132673740387,558.9132673740387,558.9132673740387,558.9132673740387,558.9132673740387,560.9150950908661,3,2.1348631381988525,None,,,,,,,,,,,,,,,,,,184,4,2025-03-04_12h04.55.135,comp,2024.2.4,None,2025-03-04 12h06.21.965610 -0500,
132,132,0,critical,wdh,35.0,2.1,upper,125.0,200.0,127.0,127.0,200.0,125.0,1,4.06031346321106,None,,,,,0,0,0,0,0,132,132,33,560.928795337677,,,,,,,,,,,,,,,,,,,,,,,,,,,,,,,,,,,,,,,,,,,,,,,,,,,,,,,,,,,,,,,,,,,,,,,,,,,,,,,,,125.0,200.0,127.0,127.0,200.0,125.0,2.1,2.12,-260,-288,0,-269,222,267,560.9166779518127,560.9168329238892,560.9198884963989,560.928795337677,561.0833714008331,561.0833714008331,561.0833714008331,561.0833714008331,561.0833714008331,561.0833714008331,561.0833714008331,564.9984393119812,1,4.06031346321106,None,,,,,,,,,,,,,,,,,,184,4,2025-03-04_12h04.55.135,comp,2024.2.4,None,2025-03-04 12h06.21.965610 -0500,
133,133,0,critical,hdw,35.0,2.1,lower,133.0,57.0,70.0,70.0,57.0,133.0,3,4.384108304977417,None,,,,,0,0,0,0,0,133,133,20,565.0133047103882,,,,,,,,,,,,,,,,,,,,,,,,,,,,,,,,,,,,,,,,,,,,,,,,,,,,,,,,,,,,,,,,,,,,,,,,,,,,,,,,,133.0,57.0,70.0,70.0,57.0,133.0,2.1,2.12,-160,-289,0,-252,198,288,565.0000288486481,565.0001058578491,565.003484249115,565.0133047103882,565.1681814193726,565.1681814193726,565.1681814193726,565.1681814193726,565.1681814193726,565.1681814193726,565.1681814193726,569.4171888828278,3,4.384108304977417,None,,,,,,,,,,,,,,,,,,184,4,2025-03-04_12h04.55.135,comp,2024.2.4,None,2025-03-04 12h06.21.965610 -0500,
134,134,0,filler_random,None,None,None,None,None,None,None,None,None,None,2,2.8580000400543213,None,,,,,0,0,0,0,0,134,134,149,569.4360375404358,,,,,,,,,,,,,,,,,,,,,,,,,,,,,,,,,,,,,,,,,,,,,,,,,,,,,,,,,,,,,,,,,,,,,,,,,,,,,,,,,101.13071493373754,79.77137358515664,191.40137872925368,82.75181140481436,59.34900308507932,191.06810095382784,4.0,4.2,-177,-4,0,-289,233,6,569.4187972545624,569.4188933372498,569.4219853878021,569.4360375404358,569.5836777687073,569.5836777687073,569.5836777687073,569.5836777687073,569.5836777687073,569.5836777687073,569.5836777687073,572.2999596595764,2,2.8580000400543213,None,,,,,,,,,,,,,,,,,,184,4,2025-03-04_12h04.55.135,comp,2024.2.4,None,2025-03-04 12h06.21.965610 -0500,
135,135,0,critical,wdh,20.0,3.0,upper,125.0,200.0,141.0,141.0,200.0,125.0,1,3.12085223197937,None,,,,,0,0,0,0,0,135,135,81,572.3163232803345,,,,,,,,,,,,,,,,,,,,,,,,,,,,,,,,,,,,,,,,,,,,,,,,,,,,,,,,,,,,,,,,,,,,,,,,,,,,,,,,,125.0,200.0,141.0,141.0,200.0,125.0,3.0,3.1,-266,255,0,-6,229,-264,572.3014304637909,572.3015084266663,572.3046853542328,572.3163232803345,572.458030462265,572.458030462265,572.458030462265,572.458030462265,572.458030462265,572.458030462265,572.458030462265,575.4511897563934,1,3.12085223197937,None,,,,,,,,,,,,,,,,,,184,4,2025-03-04_12h04.55.135,comp,2024.2.4,None,2025-03-04 12h06.21.965610 -0500,
136,136,0,catch,None,None,None,None,None,None,None,None,None,None,1,1.6343488693237305,None,,,,,0,0,0,0,0,136,136,127,575.4677159786224,,,,,,,,,,,,,,,,,,,,,,,,,,,,,,,,,,,,,,,,,,,,,,,,,,,,,,,,,,,,,,,,,,,,,,,,,,,,,,,,,187,138,119,71,103,87,4.0,4.2,-200,17,0,-252,175,-7,575.4529919624329,575.4530684947968,575.4562606811523,575.4677159786224,575.6189775466919,575.6189775466919,575.6189775466919,575.6189775466919,575.6189775466919,575.6189775466919,575.6189775466919,577.1185729503632,1,1.6343488693237305,None,,,,,,,,,,,,,,,,,,184,4,2025-03-04_12h04.55.135,comp,2024.2.4,None,2025-03-04 12h06.21.965610 -0500,
137,137,0,filler_random,None,None,None,None,None,None,None,None,None,None,3,2.5992133617401123,None,,,,,0,0,0,0,0,137,137,146,577.1344771385193,,,,,,,,,,,,,,,,,,,,,,,,,,,,,,,,,,,,,,,,,,,,,,,,,,,,,,,,,,,,,,,,,,,,,,,,,,,,,,,,,80.3747779080844,93.82638503544024,155.83547683237444,77.40476658325152,172.0986209019266,103.55243875530032,1.0,1.3,298,-274,480,-268,666,-270,577.120424747467,577.1205530166626,577.1240894794464,577.1344771385193,577.2849156856537,577.2849156856537,577.2849156856537,577.2849156856537,577.2849156856537,577.2849156856537,577.2849156856537,579.7422134876251,3,2.5992133617401123,None,,,,,,,,,,,,,,,,,,184,4,2025-03-04_12h04.55.135,comp,2024.2.4,None,2025-03-04 12h06.21.965610 -0500,
138,138,0,filler_square,None,None,None,None,None,None,None,None,None,None,2,1.8858251571655273,None,,,,,0,0,0,0,0,138,138,182,579.7593650817871,,,,,,,,,,,,,,,,,,,,,,,,,,,,,,,,,,,,,,,,,,,,,,,,,,,,,,,,,,,,,,,,,,,,,,,,,,,,,,,,,68.58453928392598,64.6128769364174,86.43573669894869,86.43573669894869,67.83577145619803,63.65706486004529,1.0,1.1,-652,272,-480,253,-309,285,579.7441952228546,579.7442784309387,579.7475428581238,579.7593650817871,579.9032683372498,579.9032683372498,579.9032683372498,579.9032683372498,579.9032683372498,579.9032683372498,579.9032683372498,581.66055727005,2,1.8858251571655273,None,,,,,,,,,,,,,,,,,,184,4,2025-03-04_12h04.55.135,comp,2024.2.4,None,2025-03-04 12h06.21.965610 -0500,
139,139,0,critical,dwh,20.0,1.0,lower,78.0,78.0,57.0,133.0,133.0,57.0,2,4.005130290985107,None,,,,,0,0,0,0,0,139,139,66,581.6803622245789,,,,,,,,,,,,,,,,,,,,,,,,,,,,,,,,,,,,,,,,,,,,,,,,,,,,,,,,,,,,,,,,,,,,,,,,,,,,,,,,,78.0,78.0,57.0,133.0,133.0,57.0,1.0,1.2,-202,13,0,-12,191,-4,581.6620285511017,581.6621036529541,581.6649701595306,581.6803622245789,581.8219747543335,581.8219747543335,581.8219747543335,581.8219747543335,581.8219747543335,581.8219747543335,581.8219747543335,585.7049150466919,2,4.005130290985107,None,,,,,,,,,,,,,,,,,,184,4,2025-03-04_12h04.55.135,comp,2024.2.4,None,2025-03-04 12h06.21.965610 -0500,
140,140,0,critical,hwd,20.0,2.1,lower,133.0,57.0,57.0,133.0,78.0,78.0,2,2.3614320755004883,None,,,,,0,0,0,0,0,140,140,18,585.7239465713501,,,,,,,,,,,,,,,,,,,,,,,,,,,,,,,,,,,,,,,,,,,,,,,,,,,,,,,,,,,,,,,,,,,,,,,,,,,,,,,,,133.0,57.0,57.0,133.0,78.0,78.0,2.1,2.12,-191,-280,0,-279,202,288,585.706451177597,585.7065274715424,585.709725856781,585.7239465713501,585.8707299232483,585.8707299232483,585.8707299232483,585.8707299232483,585.8707299232483,585.8707299232483,585.8707299232483,588.088137626648,2,2.3614320755004883,None,,,,,,,,,,,,,,,,,,184,4,2025-03-04_12h04.55.135,comp,2024.2.4,None,2025-03-04 12h06.21.965610 -0500,
141,141,0,catch,None,None,None,None,None,None,None,None,None,None,2,1.7331366539001465,None,,,,,0,0,0,0,0,141,141,122,588.1047132015228,,,,,,,,,,,,,,,,,,,,,,,,,,,,,,,,,,,,,,,,,,,,,,,,,,,,,,,,,,,,,,,,,,,,,,,,,,,,,,,,,72,118,181,144,68,122,1.0,1.2,-227,-13,0,-16,229,-7,588.0901820659637,588.0902597904205,588.0938541889191,588.1047132015228,588.2777717113495,588.2777717113495,588.2777717113495,588.2777717113495,588.2777717113495,588.2777717113495,588.2777717113495,589.8399858474731,2,1.7331366539001465,None,,,,,,,,,,,,,,,,,,184,4,2025-03-04_12h04.55.135,comp,2024.2.4,None,2025-03-04 12h06.21.965610 -0500,
142,142,0,critical,dwh,20.0,3.0,upper,141.0,141.0,125.0,200.0,200.0,125.0,2,1.813232421875,None,,,,,0,0,0,0,0,142,142,69,589.8563723564148,,,,,,,,,,,,,,,,,,,,,,,,,,,,,,,,,,,,,,,,,,,,,,,,,,,,,,,,,,,,,,,,,,,,,,,,,,,,,,,,,141.0,141.0,125.0,200.0,200.0,125.0,3.0,3.2,-266,-263,0,20,258,275,589.8414125442505,589.8414883613586,589.8455708026886,589.8563723564148,590.0037801265717,590.0037801265717,590.0037801265717,590.0037801265717,590.0037801265717,590.0037801265717,590.0037801265717,591.6727602481842,2,1.813232421875,None,,,,,,,,,,,,,,,,,,184,4,2025-03-04_12h04.55.135,comp,2024.2.4,None,2025-03-04 12h06.21.965610 -0500,
143,143,0,filler_random,None,None,None,None,None,None,None,None,None,None,3,1.9171874523162842,None,,,,,0,0,0,0,0,143,143,154,591.6886796951294,,,,,,,,,,,,,,,,,,,,,,,,,,,,,,,,,,,,,,,,,,,,,,,,,,,,,,,,,,,,,,,,,,,,,,,,,,,,,,,,,173.43577843058756,75.70729157892784,160.17007621980545,125.35232936293086,182.12797064666512,172.40322359244885,2.2,2.22,-197,288,0,-265,245,-266,591.6744122505188,591.6744873523712,591.6776776313782,591.6886796951294,591.8396329879761,591.8396329879761,591.8396329879761,591.8396329879761,591.8396329879761,591.8396329879761,591.8396329879761,593.6251313686371,3,1.9171874523162842,None,,,,,,,,,,,,,,,,,,184,4,2025-03-04_12h04.55.135,comp,2024.2.4,None,2025-03-04 12h06.21.965610 -0500,
