thisN,thisTrialN,thisRepN,effect,order,distance,config,diag,h_1,w_1,h_2,w_2,h_3,w_3,rect_choice.keys,rect_choice.rt,rect_choice.duration,instructions_loop.thisRepN,instructions_loop.thisTrialN,instructions_loop.thisN,instructions_loop.thisIndex,blocks.thisRepN,blocks.thisTrialN,blocks.thisN,blocks.thisIndex,trials.thisRepN,trials.thisTrialN,trials.thisN,trials.thisIndex,thisRow.t,notes,consent.started,agree_button.started,decline_button.started,consent_img.started,mouse.started,consent.stopped,agree_button.numClicks,agree_button.timesOn,agree_button.timesOff,decline_button.numClicks,decline_button.timesOn,decline_button.timesOff,mouse.x,mouse.y,mouse.leftButton,mouse.midButton,mouse.rightButton,mouse.time,mouse.clicked_name,exp_params.started,exp_params.stopped,welcome.started,welcome_text.started,welcome.stopped,instructions_1.started,instructions_1_text_1.started,instructions_1_text_2.started,key_resp.started,instructions_1.stopped,instructions_loop.key_resp.keys,instructions_loop.key_resp.rt,instructions_loop.key_resp.duration,instructions_2.started,instructions_2_text_1.started,instructions_2_text_2.started,key_resp_2.started,instructions_2.stopped,instructions_loop.key_resp_2.keys,instructions_loop.key_resp_2.rt,instructions_loop.key_resp_2.duration,instructions_3.started,instructions_3_text_1.started,r1_instr3.started,r2_instr3.started,r3_instr3.started,r1_instr3_label.started,r2_instr3_label.started,r3_instr3_label.started,instructions_3_text_3.started,instructions_3_text_4.started,key_resp_3.started,instructions_3.stopped,instructions_loop.key_resp_3.keys,instructions_loop.key_resp_3.rt,instructions_loop.key_resp_3.duration,instructions_4.started,instructions_4_text_1.started,instructions_4_text_3.started,instructions_4_text_2.started,key_resp_4.started,instructions_4.stopped,instructions_loop.key_resp_4.keys,instructions_loop.key_resp_4.rt,instructions_loop.key_resp_4.duration,instructions_5.started,instructions_5_text_1.started,instructions_5_text_2.started,key_resp_5.started,instructions_5.stopped,instructions_loop.key_resp_5.keys,instructions_loop.key_resp_5.rt,instructions_loop.key_resp_5.duration,start_exp.started,start_exp_text.started,key_resp_6.started,start_exp.stopped,key_resp_6.keys,key_resp_6.rt,key_resp_6.duration,h_1_tmp,w_1_tmp,h_2_tmp,w_2_tmp,h_3_tmp,w_3_tmp,config_tmp,config_tmp_1,r_1_x,r_1_y,r_2_x,r_2_y,r_3_x,r_3_y,pre_trial.started,pre_trial.stopped,choice_trial.started,rect_choice.started,r_1.started,r_2.started,r_3.started,r_1_label.started,r_2_label.started,r_3_label.started,prompt.started,choice_trial.stopped,trials.rect_choice.keys,trials.rect_choice.rt,trials.rect_choice.duration,end_block.started,end_block_text.started,end_block.stopped,end.started,end_text.started,key_resp_7.started,end.stopped,key_resp_7.keys,key_resp_7.rt,key_resp_7.duration,debriefing.started,debrief_form.started,end_debrief.started,debriefing.stopped,end_debrief.keys,end_debrief.rt,end_debrief.duration,participant,computer,date,expName,psychopyVersion,frameRate,expStart,
,,,,,,,,,,,,,,,,,,,,,,,,,,,,,,,0.01486825942993164,0.036394596099853516,0.036394596099853516,0.036394596099853516,0.014670372009277344,48.250523805618286,1,[48.21134161949158],[48.21136546134949],0,,,[-75.0],[-499.0],[1],[0],[0],[48.23506736755371],['agree_button'],,,,,,,,,,,,,,,,,,,,,,,,,,,,,,,,,,,,,,,,,,,,,,,,,,,,,,,,,,,,,,,,,,,,,,,,,,,,,,,,,,,,,,,,,,,,,,,,,,,,,,,,,,,185,1,2025-03-04_13h45.09.989,comp,2024.2.4,58.88684688985139,2025-03-04 13h45.17.997165 -0500,
,,,,,,,,,,,,,,,,,,,,,,,,,,,,,,,,,,,,,,,,,,,,,,,,,,48.25121068954468,48.251280307769775,,,,,,,,,,,,,,,,,,,,,,,,,,,,,,,,,,,,,,,,,,,,,,,,,,,,,,,,,,,,,,,,,,,,,,,,,,,,,,,,,,,,,,,,,,,,,,,,,,,,,,,,,185,1,2025-03-04_13h45.09.989,comp,2024.2.4,58.88684688985139,2025-03-04 13h45.17.997165 -0500,
,,,,,,,,,,,,,,,,,,,,,,,,,,,,,,,,,,,,,,,,,,,,,,,,,,,,48.25185179710388,48.26780891418457,50.26158428192139,,,,,,,,,,,,,,,,,,,,,,,,,,,,,,,,,,,,,,,,,,,,,,,,,,,,,,,,,,,,,,,,,,,,,,,,,,,,,,,,,,,,,,,,,,,,,,,,,,,,,,185,1,2025-03-04_13h45.09.989,comp,2024.2.4,58.88684688985139,2025-03-04 13h45.17.997165 -0500,
0,0,0,,,,,,,,,,,,,,,0,0,0,0,,,,,,,,,50.27984023094177,,,,,,,,,,,,,,,,,,,,,,,,,,50.26248335838318,50.27984023094177,50.27984023094177,51.76182198524475,53.5971405506134,space,1.8167402744293213,None,53.597294330596924,53.61292052268982,53.61292052268982,55.09771990776062,60.88425421714783,space,5.777127265930176,None,60.88440251350403,60.91318964958191,60.91318964958191,60.91318964958191,60.91318964958191,60.91318964958191,60.91318964958191,60.91318964958191,60.91318964958191,60.91318964958191,62.38724064826965,69.43534469604492,space,7.031414985656738,None,69.43551540374756,69.45227837562561,69.45227837562561,69.45227837562561,70.93584847450256,81.20719981193542,space,10.261250257492065,None,81.20735430717468,81.22227954864502,81.22227954864502,82.72282886505127,83.70886254310608,space,0.9765079021453857,None,83.70905709266663,83.72063612937927,83.72063612937927,84.74061846733093,space,1.010488748550415,None,,,,,,,,,,,,,,,,,,,,,,,,,,,,,,,,,,,,,,,,,,,,,,,185,1,2025-03-04_13h45.09.989,comp,2024.2.4,58.88684688985139,2025-03-04 13h45.17.997165 -0500,
0,0,0,filler_square,None,None,None,None,None,None,None,None,None,None,3,41.421715259552,None,,,,,0,0,0,0,0,0,0,196,84.82125997543335,,,,,,,,,,,,,,,,,,,,,,,,,,,,,,,,,,,,,,,,,,,,,,,,,,,,,,,,,,,,,,,,,,,,,,,,,,,,,,,,,58.27631766367117,59.185166028493526,57.26513492681246,58.86111142820437,60.552671928429824,60.552671928429824,1.0,1.2,-155,-12,0,-5,156,-16,84.80392694473267,84.80397963523865,84.8059720993042,84.82125997543335,84.96499156951904,84.96499156951904,84.96499156951904,84.96499156951904,84.96499156951904,84.96499156951904,84.96499156951904,126.24575567245483,3,41.421715259552,None,,,,,,,,,,,,,,,,,,185,1,2025-03-04_13h45.09.989,comp,2024.2.4,58.88684688985139,2025-03-04 13h45.17.997165 -0500,
1,1,0,critical,whd,20.0,2.1,upper,125.0,200.0,200.0,125.0,141.0,141.0,1,13.920982599258423,None,,,,,0,0,0,0,0,1,1,15,126.26608753204346,,,,,,,,,,,,,,,,,,,,,,,,,,,,,,,,,,,,,,,,,,,,,,,,,,,,,,,,,,,,,,,,,,,,,,,,,,,,,,,,,125.0,200.0,200.0,125.0,141.0,141.0,2.1,2.11,-258,284,0,251,229,-255,126.24734616279602,126.24742531776428,126.25034260749817,126.26608753204346,126.40469264984131,126.40469264984131,126.40469264984131,126.40469264984131,126.40469264984131,126.40469264984131,126.40469264984131,140.20411562919617,1,13.920982599258423,None,,,,,,,,,,,,,,,,,,185,1,2025-03-04_13h45.09.989,comp,2024.2.4,58.88684688985139,2025-03-04 13h45.17.997165 -0500,
2,2,0,critical,hdw,20.0,2.1,upper,200.0,125.0,141.0,141.0,125.0,200.0,1,12.233234405517578,None,,,,,0,0,0,0,0,2,2,23,140.21944856643677,,,,,,,,,,,,,,,,,,,,,,,,,,,,,,,,,,,,,,,,,,,,,,,,,,,,,,,,,,,,,,,,,,,,,,,,,,,,,,,,,200.0,125.0,141.0,141.0,125.0,200.0,2.1,2.12,-229,-270,0,-262,266,271,140.20565176010132,140.20573091506958,140.20878076553345,140.21944856643677,140.36005806922913,140.36005806922913,140.36005806922913,140.36005806922913,140.36005806922913,140.36005806922913,140.36005806922913,152.45915961265564,1,12.233234405517578,None,,,,,,,,,,,,,,,,,,185,1,2025-03-04_13h45.09.989,comp,2024.2.4,58.88684688985139,2025-03-04 13h45.17.997165 -0500,
3,3,0,critical,wdh,35.0,3.0,upper,125.0,200.0,127.0,127.0,200.0,125.0,3,5.200880765914917,None,,,,,0,0,0,0,0,3,3,75,152.47438716888428,,,,,,,,,,,,,,,,,,,,,,,,,,,,,,,,,,,,,,,,,,,,,,,,,,,,,,,,,,,,,,,,,,,,,,,,,,,,,,,,,125.0,200.0,127.0,127.0,200.0,125.0,3.0,3.1,-260,286,0,-7,222,-274,152.46066069602966,152.46074056625366,152.46363925933838,152.47438716888428,152.61129021644592,152.61129021644592,152.61129021644592,152.61129021644592,152.61129021644592,152.61129021644592,152.61129021644592,157.68026733398438,3,5.200880765914917,None,,,,,,,,,,,,,,,,,,185,1,2025-03-04_13h45.09.989,comp,2024.2.4,58.88684688985139,2025-03-04 13h45.17.997165 -0500,
4,4,0,critical,whd,35.0,4.0,upper,125.0,200.0,200.0,125.0,127.0,127.0,1,14.498070001602173,None,,,,,0,0,0,0,0,4,4,89,157.6972508430481,,,,,,,,,,,,,,,,,,,,,,,,,,,,,,,,,,,,,,,,,,,,,,,,,,,,,,,,,,,,,,,,,,,,,,,,,,,,,,,,,125.0,200.0,200.0,125.0,127.0,127.0,4.0,4.2,-258,-15,0,-278,222,-12,157.6817684173584,157.68184661865234,157.68490076065063,157.6972508430481,157.84929823875427,157.84929823875427,157.84929823875427,157.84929823875427,157.84929823875427,157.84929823875427,157.84929823875427,172.20303082466125,1,14.498070001602173,None,,,,,,,,,,,,,,,,,,185,1,2025-03-04_13h45.09.989,comp,2024.2.4,58.88684688985139,2025-03-04 13h45.17.997165 -0500,
5,5,0,filler_random,None,None,None,None,None,None,None,None,None,None,1,14.466626644134521,None,,,,,0,0,0,0,0,5,5,143,172.22415709495544,,,,,,,,,,,,,,,,,,,,,,,,,,,,,,,,,,,,,,,,,,,,,,,,,,,,,,,,,,,,,,,,,,,,,,,,,,,,,,,,,197.8195002533215,121.23554683318476,126.18579471506804,151.9333285021475,97.16752516408827,79.86736438415193,1.0,1.1,-713,262,-480,279,-268,288,172.20483541488647,172.20491409301758,172.2087917327881,172.22415709495544,172.37019276618958,172.37019276618958,172.37019276618958,172.37019276618958,172.37019276618958,172.37019276618958,172.37019276618958,186.70637822151184,1,14.466626644134521,None,,,,,,,,,,,,,,,,,,185,1,2025-03-04_13h45.09.989,comp,2024.2.4,58.88684688985139,2025-03-04 13h45.17.997165 -0500,
6,6,0,critical,hdw,20.0,1.0,upper,200.0,125.0,141.0,141.0,125.0,200.0,1,11.978116750717163,None,,,,,0,0,0,0,0,6,6,115,186.72246932983398,,,,,,,,,,,,,,,,,,,,,,,,,,,,,,,,,,,,,,,,,,,,,,,,,,,,,,,,,,,,,,,,,,,,,,,,,,,,,,,,,200.0,125.0,141.0,141.0,125.0,200.0,1.0,1.1,-709,288,-480,261,-214,281,186.7079095840454,186.7079873085022,186.71112275123596,186.72246932983398,186.8764214515686,186.8764214515686,186.8764214515686,186.8764214515686,186.8764214515686,186.8764214515686,186.8764214515686,198.71141695976257,1,11.978116750717163,None,,,,,,,,,,,,,,,,,,185,1,2025-03-04_13h45.09.989,comp,2024.2.4,58.88684688985139,2025-03-04 13h45.17.997165 -0500,
7,7,0,critical,dhw,35.0,3.0,upper,127.0,127.0,200.0,125.0,125.0,200.0,3,9.386749982833862,None,,,,,0,0,0,0,0,7,7,51,198.7278754711151,,,,,,,,,,,,,,,,,,,,,,,,,,,,,,,,,,,,,,,,,,,,,,,,,,,,,,,,,,,,,,,,,,,,,,,,,,,,,,,,,127.0,127.0,200.0,125.0,125.0,200.0,3.0,3.2,-222,-286,0,-13,258,255,198.71301174163818,198.71312379837036,198.7171289920807,198.7278754711151,198.88139510154724,198.88139510154724,198.88139510154724,198.88139510154724,198.88139510154724,198.88139510154724,198.88139510154724,208.1295440196991,3,9.386749982833862,None,,,,,,,,,,,,,,,,,,185,1,2025-03-04_13h45.09.989,comp,2024.2.4,58.88684688985139,2025-03-04 13h45.17.997165 -0500,
8,8,0,critical,hwd,35.0,1.0,lower,133.0,57.0,57.0,133.0,70.0,70.0,2,8.337655305862427,None,,,,,0,0,0,0,0,8,8,96,208.14501214027405,,,,,,,,,,,,,,,,,,,,,,,,,,,,,,,,,,,,,,,,,,,,,,,,,,,,,,,,,,,,,,,,,,,,,,,,,,,,,,,,,133.0,57.0,57.0,133.0,70.0,70.0,1.0,1.3,289,-259,480,-264,678,-253,208.1311502456665,208.13122987747192,208.1344232559204,208.14501214027405,208.28519415855408,208.28519415855408,208.28519415855408,208.28519415855408,208.28519415855408,208.28519415855408,208.28519415855408,216.4998824596405,2,8.337655305862427,None,,,,,,,,,,,,,,,,,,185,1,2025-03-04_13h45.09.989,comp,2024.2.4,58.88684688985139,2025-03-04 13h45.17.997165 -0500,
9,9,0,critical,dwh,20.0,2.1,lower,78.0,78.0,57.0,133.0,133.0,57.0,3,19.839311599731445,None,,,,,0,0,0,0,0,9,9,30,216.51552772521973,,,,,,,,,,,,,,,,,,,,,,,,,,,,,,,,,,,,,,,,,,,,,,,,,,,,,,,,,,,,,,,,,,,,,,,,,,,,,,,,,78.0,78.0,57.0,133.0,133.0,57.0,2.1,2.11,-202,279,0,285,191,-276,216.5015172958374,216.50162076950073,216.5050346851349,216.51552772521973,216.67290663719177,216.67290663719177,216.67290663719177,216.67290663719177,216.67290663719177,216.67290663719177,216.67290663719177,236.37356185913086,3,19.839311599731445,None,,,,,,,,,,,,,,,,,,185,1,2025-03-04_13h45.09.989,comp,2024.2.4,58.88684688985139,2025-03-04 13h45.17.997165 -0500,
10,10,0,filler_square,None,None,None,None,None,None,None,None,None,None,3,15.162906885147095,None,,,,,0,0,0,0,0,10,10,178,236.392680644989,,,,,,,,,,,,,,,,,,,,,,,,,,,,,,,,,,,,,,,,,,,,,,,,,,,,,,,,,,,,,,,,,,,,,,,,,,,,,,,,,61.221777071777396,61.221777071777396,60.742356079610936,59.85018853288193,58.31555754473608,57.09273046420435,3.0,3.1,-157,276,0,-1,154,-286,236.37537384033203,236.37544989585876,236.3785252571106,236.392680644989,236.54651188850403,236.54651188850403,236.54651188850403,236.54651188850403,236.54651188850403,236.54651188850403,236.54651188850403,251.56137084960938,3,15.162906885147095,None,,,,,,,,,,,,,,,,,,185,1,2025-03-04_13h45.09.989,comp,2024.2.4,58.88684688985139,2025-03-04 13h45.17.997165 -0500,
11,11,0,filler_random,None,None,None,None,None,None,None,None,None,None,1,8.921115398406982,None,,,,,0,0,0,0,0,11,11,166,251.5781774520874,,,,,,,,,,,,,,,,,,,,,,,,,,,,,,,,,,,,,,,,,,,,,,,,,,,,,,,,,,,,,,,,,,,,,,,,,,,,,,,,,104.85939738429104,195.39229145146578,67.27896424649303,94.23950417081053,128.2998584859469,155.18971935460706,2.1,2.12,-241,-255,0,-286,221,256,251.56314826011658,251.56323170661926,251.56722044944763,251.5781774520874,251.72620725631714,251.72620725631714,251.72620725631714,251.72620725631714,251.72620725631714,251.72620725631714,251.72620725631714,260.50165128707886,1,8.921115398406982,None,,,,,,,,,,,,,,,,,,185,1,2025-03-04_13h45.09.989,comp,2024.2.4,58.88684688985139,2025-03-04 13h45.17.997165 -0500,
12,12,0,critical,dhw,35.0,1.0,upper,127.0,127.0,200.0,125.0,125.0,200.0,2,10.220128536224365,None,,,,,0,0,0,0,0,12,12,49,260.51939630508423,,,,,,,,,,,,,,,,,,,,,,,,,,,,,,,,,,,,,,,,,,,,,,,,,,,,,,,,,,,,,,,,,,,,,,,,,,,,,,,,,127.0,127.0,200.0,125.0,125.0,200.0,1.0,1.1,-702,288,-480,271,-222,263,260.50338101387024,260.5034818649292,260.50692796707153,260.51939630508423,260.6619336605072,260.6619336605072,260.6619336605072,260.6619336605072,260.6619336605072,260.6619336605072,260.6619336605072,270.7568950653076,2,10.220128536224365,None,,,,,,,,,,,,,,,,,,185,1,2025-03-04_13h45.09.989,comp,2024.2.4,58.88684688985139,2025-03-04 13h45.17.997165 -0500,
13,13,0,critical,dwh,20.0,1.0,lower,78.0,78.0,57.0,133.0,133.0,57.0,2,6.802330017089844,None,,,,,0,0,0,0,0,13,13,66,270.77732610702515,,,,,,,,,,,,,,,,,,,,,,,,,,,,,,,,,,,,,,,,,,,,,,,,,,,,,,,,,,,,,,,,,,,,,,,,,,,,,,,,,78.0,78.0,57.0,133.0,133.0,57.0,1.0,1.3,278,-258,480,-252,671,-252,270.7585780620575,270.75865650177,270.76190543174744,270.77732610702515,270.9223647117615,270.9223647117615,270.9223647117615,270.9223647117615,270.9223647117615,270.9223647117615,270.9223647117615,277.5866439342499,2,6.802330017089844,None,,,,,,,,,,,,,,,,,,185,1,2025-03-04_13h45.09.989,comp,2024.2.4,58.88684688985139,2025-03-04 13h45.17.997165 -0500,
14,14,0,critical,dwh,35.0,4.0,lower,70.0,70.0,57.0,133.0,133.0,57.0,3,13.608154773712158,None,,,,,0,0,0,0,0,14,14,64,277.60315561294556,,,,,,,,,,,,,,,,,,,,,,,,,,,,,,,,,,,,,,,,,,,,,,,,,,,,,,,,,,,,,,,,,,,,,,,,,,,,,,,,,70.0,70.0,57.0,133.0,133.0,57.0,4.0,4.1,-198,-286,0,4,191,-259,277.58821201324463,277.58829045295715,277.5913143157959,277.60315561294556,277.7514600753784,277.7514600753784,277.7514600753784,277.7514600753784,277.7514600753784,277.7514600753784,277.7514600753784,291.2206745147705,3,13.608154773712158,None,,,,,,,,,,,,,,,,,,185,1,2025-03-04_13h45.09.989,comp,2024.2.4,58.88684688985139,2025-03-04 13h45.17.997165 -0500,
15,15,0,catch,None,None,None,None,None,None,None,None,None,None,1,4.237020254135132,None,,,,,0,0,0,0,0,15,15,121,291.2378444671631,,,,,,,,,,,,,,,,,,,,,,,,,,,,,,,,,,,,,,,,,,,,,,,,,,,,,,,,,,,,,,,,,,,,,,,,,,,,,,,,,126,199,93,97,105,85,2.1,2.11,-244,267,0,272,187,-288,291.2225706577301,291.22265100479126,291.2254981994629,291.2378444671631,291.37323451042175,291.37323451042175,291.37323451042175,291.37323451042175,291.37323451042175,291.37323451042175,291.37323451042175,295.4943902492523,1,4.237020254135132,None,,,,,,,,,,,,,,,,,,185,1,2025-03-04_13h45.09.989,comp,2024.2.4,58.88684688985139,2025-03-04 13h45.17.997165 -0500,
16,16,0,filler_random,None,None,None,None,None,None,None,None,None,None,3,3.8638710975646973,None,,,,,0,0,0,0,0,16,16,157,295.5152599811554,,,,,,,,,,,,,,,,,,,,,,,,,,,,,,,,,,,,,,,,,,,,,,,,,,,,,,,,,,,,,,,,,,,,,,,,,,,,,,,,,61.20740087389406,159.84736354814635,99.62535271308596,117.07333964325433,185.80777737312312,169.0949373173986,2.2,2.21,-234,-255,0,250,239,276,295.4965567588806,295.49669194221497,295.49993324279785,295.5152599811554,295.65779733657837,295.65779733657837,295.65779733657837,295.65779733657837,295.65779733657837,295.65779733657837,295.65779733657837,299.396479845047,3,3.8638710975646973,None,,,,,,,,,,,,,,,,,,185,1,2025-03-04_13h45.09.989,comp,2024.2.4,58.88684688985139,2025-03-04 13h45.17.997165 -0500,
17,17,0,critical,dhw,35.0,2.1,lower,70.0,70.0,133.0,57.0,57.0,133.0,2,10.56578016281128,None,,,,,0,0,0,0,0,17,17,24,299.41314363479614,,,,,,,,,,,,,,,,,,,,,,,,,,,,,,,,,,,,,,,,,,,,,,,,,,,,,,,,,,,,,,,,,,,,,,,,,,,,,,,,,70.0,70.0,133.0,57.0,57.0,133.0,2.1,2.12,-160,-269,0,-283,191,263,299.39821314811707,299.39831733703613,299.4018497467041,299.41314363479614,299.55923795700073,299.55923795700073,299.55923795700073,299.55923795700073,299.55923795700073,299.55923795700073,299.55923795700073,309.99573945999146,2,10.56578016281128,None,,,,,,,,,,,,,,,,,,185,1,2025-03-04_13h45.09.989,comp,2024.2.4,58.88684688985139,2025-03-04 13h45.17.997165 -0500,
18,18,0,filler_random,None,None,None,None,None,None,None,None,None,None,1,10.454355478286743,None,,,,,0,0,0,0,0,18,18,132,310.0126187801361,,,,,,,,,,,,,,,,,,,,,,,,,,,,,,,,,,,,,,,,,,,,,,,,,,,,,,,,,,,,,,,,,,,,,,,,,,,,,,,,,173.06766537279498,61.38106603145747,72.94442812080086,106.767167004698,74.43352377985133,62.554672242008444,1.0,1.3,300,-261,480,-270,661,-272,309.99772596359253,309.99780464172363,310.00137066841125,310.0126187801361,310.1623945236206,310.1623945236206,310.1623945236206,310.1623945236206,310.1623945236206,310.1623945236206,310.1623945236206,320.48502588272095,1,10.454355478286743,None,,,,,,,,,,,,,,,,,,185,1,2025-03-04_13h45.09.989,comp,2024.2.4,58.88684688985139,2025-03-04 13h45.17.997165 -0500,
19,19,0,critical,wdh,20.0,2.1,upper,125.0,200.0,141.0,141.0,200.0,125.0,1,7.029132604598999,None,,,,,0,0,0,0,0,19,19,35,320.5023150444031,,,,,,,,,,,,,,,,,,,,,,,,,,,,,,,,,,,,,,,,,,,,,,,,,,,,,,,,,,,,,,,,,,,,,,,,,,,,,,,,,125.0,200.0,141.0,141.0,200.0,125.0,2.1,2.12,-266,-289,0,-265,229,254,320.4867799282074,320.486857175827,320.4898691177368,320.5023150444031,320.6488652229309,320.6488652229309,320.6488652229309,320.6488652229309,320.6488652229309,320.6488652229309,320.6488652229309,327.55285000801086,1,7.029132604598999,None,,,,,,,,,,,,,,,,,,185,1,2025-03-04_13h45.09.989,comp,2024.2.4,58.88684688985139,2025-03-04 13h45.17.997165 -0500,
20,20,0,catch,None,None,None,None,None,None,None,None,None,None,2,5.330556392669678,None,,,,,0,0,0,0,0,20,20,122,327.5692472457886,,,,,,,,,,,,,,,,,,,,,,,,,,,,,,,,,,,,,,,,,,,,,,,,,,,,,,,,,,,,,,,,,,,,,,,,,,,,,,,,,95,95,163,162,79,111,2.2,2.21,-224,-252,0,289,232,255,327.554895401001,327.5549783706665,327.55813097953796,327.5692472457886,327.71839785575867,327.71839785575867,327.71839785575867,327.71839785575867,327.71839785575867,327.71839785575867,327.71839785575867,332.919047832489,2,5.330556392669678,None,,,,,,,,,,,,,,,,,,185,1,2025-03-04_13h45.09.989,comp,2024.2.4,58.88684688985139,2025-03-04 13h45.17.997165 -0500,
21,21,0,filler_square,None,None,None,None,None,None,None,None,None,None,3,1.8722712993621826,None,,,,,0,0,0,0,0,21,21,201,332.9389226436615,,,,,,,,,,,,,,,,,,,,,,,,,,,,,,,,,,,,,,,,,,,,,,,,,,,,,,,,,,,,,,,,,,,,,,,,,,,,,,,,,110.05898888225492,121.41352920181848,74.50543921268103,109.73864185537266,164.85276245405998,164.85276245405998,2.2,2.22,-212,285,0,-255,233,-282,332.92112731933594,332.92120575904846,332.924439907074,332.9389226436615,333.0881905555725,333.0881905555725,333.0881905555725,333.0881905555725,333.0881905555725,333.0881905555725,333.0881905555725,334.82860589027405,3,1.8722712993621826,None,,,,,,,,,,,,,,,,,,185,1,2025-03-04_13h45.09.989,comp,2024.2.4,58.88684688985139,2025-03-04 13h45.17.997165 -0500,
22,22,0,filler_square,None,None,None,None,None,None,None,None,None,None,3,1.7803661823272705,None,,,,,0,0,0,0,0,22,22,185,334.8467571735382,,,,,,,,,,,,,,,,,,,,,,,,,,,,,,,,,,,,,,,,,,,,,,,,,,,,,,,,,,,,,,,,,,,,,,,,,,,,,,,,,68.15377544018155,123.01792093343379,192.10545098285803,79.47656342346109,196.39807217584254,196.39807217584254,4.0,4.1,-197,-281,0,9,234,-274,334.83070373535156,334.830783367157,334.83395409584045,334.8467571735382,334.9875068664551,334.9875068664551,334.9875068664551,334.9875068664551,334.9875068664551,334.9875068664551,334.9875068664551,336.63972425460815,3,1.7803661823272705,None,,,,,,,,,,,,,,,,,,185,1,2025-03-04_13h45.09.989,comp,2024.2.4,58.88684688985139,2025-03-04 13h45.17.997165 -0500,
23,23,0,critical,hdw,35.0,3.0,lower,133.0,57.0,70.0,70.0,57.0,133.0,3,4.56107497215271,None,,,,,0,0,0,0,0,23,23,110,336.6587016582489,,,,,,,,,,,,,,,,,,,,,,,,,,,,,,,,,,,,,,,,,,,,,,,,,,,,,,,,,,,,,,,,,,,,,,,,,,,,,,,,,133.0,57.0,70.0,70.0,57.0,133.0,3.0,3.1,-160,257,0,-16,198,-268,336.6414213180542,336.6415021419525,336.6455035209656,336.6587016582489,336.8049991130829,336.8049991130829,336.8049991130829,336.8049991130829,336.8049991130829,336.8049991130829,336.8049991130829,341.2239556312561,3,4.56107497215271,None,,,,,,,,,,,,,,,,,,185,1,2025-03-04_13h45.09.989,comp,2024.2.4,58.88684688985139,2025-03-04 13h45.17.997165 -0500,
24,24,0,filler_random,None,None,None,None,None,None,None,None,None,None,3,4.034938812255859,None,,,,,0,0,0,0,0,24,24,146,341.2406368255615,,,,,,,,,,,,,,,,,,,,,,,,,,,,,,,,,,,,,,,,,,,,,,,,,,,,,,,,,,,,,,,,,,,,,,,,,,,,,,,,,122.2199271706608,175.938631575511,136.43280055062672,160.20637187006076,148.7930728982937,193.33298734099068,4.0,4.2,-264,-9,0,-287,273,-4,341.2258939743042,341.2259752750397,341.22981119155884,341.2406368255615,341.389954328537,341.389954328537,341.389954328537,341.389954328537,341.389954328537,341.389954328537,341.389954328537,345.2845788002014,3,4.034938812255859,None,,,,,,,,,,,,,,,,,,185,1,2025-03-04_13h45.09.989,comp,2024.2.4,58.88684688985139,2025-03-04 13h45.17.997165 -0500,
25,25,0,filler_random,None,None,None,None,None,None,None,None,None,None,2,2.535175323486328,None,,,,,0,0,0,0,0,25,25,164,345.30055022239685,,,,,,,,,,,,,,,,,,,,,,,,,,,,,,,,,,,,,,,,,,,,,,,,,,,,,,,,,,,,,,,,,,,,,,,,,,,,,,,,,158.56504182064413,75.09723431395219,184.6275537398148,172.2057351872199,141.62749816122704,149.16120435114908,3.0,3.1,-220,265,0,2,257,-278,345.2863779067993,345.2864580154419,345.2894124984741,345.30055022239685,345.437926530838,345.437926530838,345.437926530838,345.437926530838,345.437926530838,345.437926530838,345.437926530838,347.8416931629181,2,2.535175323486328,None,,,,,,,,,,,,,,,,,,185,1,2025-03-04_13h45.09.989,comp,2024.2.4,58.88684688985139,2025-03-04 13h45.17.997165 -0500,
26,26,0,filler_random,None,None,None,None,None,None,None,None,None,None,1,3.7615792751312256,None,,,,,0,0,0,0,0,26,26,136,347.85814929008484,,,,,,,,,,,,,,,,,,,,,,,,,,,,,,,,,,,,,,,,,,,,,,,,,,,,,,,,,,,,,,,,,,,,,,,,,,,,,,,,,173.3372052545339,148.6692627000192,109.62288828465279,126.04917589828203,101.26512320998947,98.69384838752521,2.1,2.11,-233,275,0,279,208,-277,347.8436622619629,347.84374380111694,347.84728145599365,347.85814929008484,348.0107798576355,348.0107798576355,348.0107798576355,348.0107798576355,348.0107798576355,348.0107798576355,348.0107798576355,351.62599897384644,1,3.7615792751312256,None,,,,,,,,,,,,,,,,,,185,1,2025-03-04_13h45.09.989,comp,2024.2.4,58.88684688985139,2025-03-04 13h45.17.997165 -0500,
27,27,0,critical,hwd,20.0,4.0,upper,200.0,125.0,125.0,200.0,141.0,141.0,2,4.833179950714111,None,,,,,0,0,0,0,0,27,27,107,351.6425874233246,,,,,,,,,,,,,,,,,,,,,,,,,,,,,,,,,,,,,,,,,,,,,,,,,,,,,,,,,,,,,,,,,,,,,,,,,,,,,,,,,200.0,125.0,125.0,200.0,141.0,141.0,4.0,4.2,-258,-16,0,-270,266,14,351.62763810157776,351.62771677970886,351.6318130493164,351.6425874233246,351.7926115989685,351.7926115989685,351.7926115989685,351.7926115989685,351.7926115989685,351.7926115989685,351.7926115989685,356.4863407611847,2,4.833179950714111,None,,,,,,,,,,,,,,,,,,185,1,2025-03-04_13h45.09.989,comp,2024.2.4,58.88684688985139,2025-03-04 13h45.17.997165 -0500,
28,28,0,critical,wdh,20.0,2.1,lower,57.0,133.0,78.0,78.0,133.0,57.0,1,2.699132204055786,None,,,,,0,0,0,0,0,28,28,34,356.50396156311035,,,,,,,,,,,,,,,,,,,,,,,,,,,,,,,,,,,,,,,,,,,,,,,,,,,,,,,,,,,,,,,,,,,,,,,,,,,,,,,,,57.0,133.0,78.0,78.0,133.0,57.0,2.1,2.12,-202,-270,0,-265,164,255,356.48787021636963,356.4879484176636,356.4908347129822,356.50396156311035,356.64456367492676,356.64456367492676,356.64456367492676,356.64456367492676,356.64456367492676,356.64456367492676,356.64456367492676,359.2207775115967,1,2.699132204055786,None,,,,,,,,,,,,,,,,,,185,1,2025-03-04_13h45.09.989,comp,2024.2.4,58.88684688985139,2025-03-04 13h45.17.997165 -0500,
29,29,0,filler_random,None,None,None,None,None,None,None,None,None,None,1,1.364941120147705,None,,,,,0,0,0,0,0,29,29,152,359.23818612098694,,,,,,,,,,,,,,,,,,,,,,,,,,,,,,,,,,,,,,,,,,,,,,,,,,,,,,,,,,,,,,,,,,,,,,,,,,,,,,,,,154.16956388313636,149.90588756686384,150.02511409745642,89.83239375604907,135.52028626464227,90.53431326288178,2.2,2.21,-216,-288,0,253,186,274,359.2225134372711,359.2225909233093,359.2254822254181,359.23818612098694,359.37446546554565,359.37446546554565,359.37446546554565,359.37446546554565,359.37446546554565,359.37446546554565,359.37446546554565,360.6180808544159,1,1.364941120147705,None,,,,,,,,,,,,,,,,,,185,1,2025-03-04_13h45.09.989,comp,2024.2.4,58.88684688985139,2025-03-04 13h45.17.997165 -0500,
30,30,0,filler_random,None,None,None,None,None,None,None,None,None,None,1,1.352996826171875,None,,,,,0,0,0,0,0,30,30,134,360.63403606414795,,,,,,,,,,,,,,,,,,,,,,,,,,,,,,,,,,,,,,,,,,,,,,,,,,,,,,,,,,,,,,,,,,,,,,,,,,,,,,,,,197.3459727482444,194.4084024757235,77.17035849251859,95.03274349107207,93.80753924802558,189.59863085484886,2.1,2.12,-241,-272,0,-251,238,267,360.619832277298,360.61991000175476,360.6227617263794,360.63403606414795,360.7752673625946,360.7752673625946,360.7752673625946,360.7752673625946,360.7752673625946,360.7752673625946,360.7752673625946,361.9963872432709,1,1.352996826171875,None,,,,,,,,,,,,,,,,,,185,1,2025-03-04_13h45.09.989,comp,2024.2.4,58.88684688985139,2025-03-04 13h45.17.997165 -0500,
31,31,0,critical,hwd,35.0,1.0,upper,200.0,125.0,125.0,200.0,127.0,127.0,2,8.623556137084961,None,,,,,0,0,0,0,0,31,31,97,362.01285791397095,,,,,,,,,,,,,,,,,,,,,,,,,,,,,,,,,,,,,,,,,,,,,,,,,,,,,,,,,,,,,,,,,,,,,,,,,,,,,,,,,200.0,125.0,125.0,200.0,127.0,127.0,1.0,1.3,222,-252,480,-264,740,-265,361.99796414375305,361.9980425834656,362.0020749568939,362.01285791397095,362.16232919692993,362.16232919692993,362.16232919692993,362.16232919692993,362.16232919692993,362.16232919692993,362.16232919692993,370.6503059864044,2,8.623556137084961,None,,,,,,,,,,,,,,,,,,185,1,2025-03-04_13h45.09.989,comp,2024.2.4,58.88684688985139,2025-03-04 13h45.17.997165 -0500,
32,32,0,filler_square,None,None,None,None,None,None,None,None,None,None,2,1.5588679313659668,None,,,,,0,0,0,0,0,32,32,184,370.6684548854828,,,,,,,,,,,,,,,,,,,,,,,,,,,,,,,,,,,,,,,,,,,,,,,,,,,,,,,,,,,,,,,,,,,,,,,,,,,,,,,,,163.7956229994304,132.29877040547078,176.56944741967766,176.56944741967766,146.48607697100465,118.50466084228313,1.0,1.1,-730,264,-480,280,-236,252,370.65224623680115,370.6523268222809,370.6559534072876,370.6684548854828,370.815144777298,370.815144777298,370.815144777298,370.815144777298,370.815144777298,370.815144777298,370.815144777298,372.23270869255066,2,1.5588679313659668,None,,,,,,,,,,,,,,,,,,185,1,2025-03-04_13h45.09.989,comp,2024.2.4,58.88684688985139,2025-03-04 13h45.17.997165 -0500,
33,33,0,critical,hwd,35.0,3.0,lower,133.0,57.0,57.0,133.0,70.0,70.0,1,4.675036668777466,None,,,,,0,0,0,0,0,33,33,98,372.2484521865845,,,,,,,,,,,,,,,,,,,,,,,,,,,,,,,,,,,,,,,,,,,,,,,,,,,,,,,,,,,,,,,,,,,,,,,,,,,,,,,,,133.0,57.0,57.0,133.0,70.0,70.0,3.0,3.2,-191,-251,0,11,198,268,372.23422026634216,372.23430013656616,372.23746061325073,372.2484521865845,372.3979103565216,372.3979103565216,372.3979103565216,372.3979103565216,372.3979103565216,372.3979103565216,372.3979103565216,376.93599104881287,1,4.675036668777466,None,,,,,,,,,,,,,,,,,,185,1,2025-03-04_13h45.09.989,comp,2024.2.4,58.88684688985139,2025-03-04 13h45.17.997165 -0500,
34,34,0,filler_square,None,None,None,None,None,None,None,None,None,None,1,1.386791706085205,None,,,,,0,0,0,0,0,34,34,177,376.95230865478516,,,,,,,,,,,,,,,,,,,,,,,,,,,,,,,,,,,,,,,,,,,,,,,,,,,,,,,,,,,,,,,,,,,,,,,,,,,,,,,,,188.4532183469706,188.4532183469706,112.8031703971408,171.62487943193395,112.71014191117743,183.17957523090874,1.0,1.2,-276,4,0,2,273,4,376.9379246234894,376.9380476474762,376.9417676925659,376.95230865478516,377.1008195877075,377.1008195877075,377.1008195877075,377.1008195877075,377.1008195877075,377.1008195877075,377.1008195877075,378.3536741733551,1,1.386791706085205,None,,,,,,,,,,,,,,,,,,185,1,2025-03-04_13h45.09.989,comp,2024.2.4,58.88684688985139,2025-03-04 13h45.17.997165 -0500,
35,35,0,critical,wdh,35.0,4.0,upper,125.0,200.0,127.0,127.0,200.0,125.0,1,8.480565786361694,None,,,,,0,0,0,0,0,35,35,77,378.3708801269531,,,,,,,,,,,,,,,,,,,,,,,,,,,,,,,,,,,,,,,,,,,,,,,,,,,,,,,,,,,,,,,,,,,,,,,,,,,,,,,,,125.0,200.0,127.0,127.0,200.0,125.0,4.0,4.2,-260,6,0,-281,222,-16,378.35540771484375,378.3554883003235,378.3584671020508,378.3708801269531,378.51908802986145,378.51908802986145,378.51908802986145,378.51908802986145,378.51908802986145,378.51908802986145,378.51908802986145,386.8534355163574,1,8.480565786361694,None,,,,,,,,,,,,,,,,,,185,1,2025-03-04_13h45.09.989,comp,2024.2.4,58.88684688985139,2025-03-04 13h45.17.997165 -0500,
36,36,0,critical,hwd,35.0,4.0,upper,200.0,125.0,125.0,200.0,127.0,127.0,2,3.0495924949645996,None,,,,,0,0,0,0,0,36,36,101,386.8736181259155,,,,,,,,,,,,,,,,,,,,,,,,,,,,,,,,,,,,,,,,,,,,,,,,,,,,,,,,,,,,,,,,,,,,,,,,,,,,,,,,,200.0,125.0,125.0,200.0,127.0,127.0,4.0,4.2,-258,-3,0,-259,260,-7,386.8549327850342,386.8550100326538,386.8581511974335,386.8736181259155,387.02190589904785,387.02190589904785,387.02190589904785,387.02190589904785,387.02190589904785,387.02190589904785,387.02190589904785,389.94126200675964,2,3.0495924949645996,None,,,,,,,,,,,,,,,,,,185,1,2025-03-04_13h45.09.989,comp,2024.2.4,58.88684688985139,2025-03-04 13h45.17.997165 -0500,
37,37,0,critical,dhw,20.0,2.1,upper,141.0,141.0,200.0,125.0,125.0,200.0,2,2.2449758052825928,None,,,,,0,0,0,0,0,37,37,27,389.9580931663513,,,,,,,,,,,,,,,,,,,,,,,,,,,,,,,,,,,,,,,,,,,,,,,,,,,,,,,,,,,,,,,,,,,,,,,,,,,,,,,,,141.0,141.0,200.0,125.0,125.0,200.0,2.1,2.12,-229,-258,0,-283,258,270,389.9433469772339,389.94342851638794,389.9468717575073,389.9580931663513,390.1046025753021,390.1046025753021,390.1046025753021,390.1046025753021,390.1046025753021,390.1046025753021,390.1046025753021,392.20616722106934,2,2.2449758052825928,None,,,,,,,,,,,,,,,,,,185,1,2025-03-04_13h45.09.989,comp,2024.2.4,58.88684688985139,2025-03-04 13h45.17.997165 -0500,
38,38,0,critical,wdh,20.0,2.1,upper,125.0,200.0,141.0,141.0,200.0,125.0,3,2.853090763092041,None,,,,,0,0,0,0,0,38,38,11,392.22202134132385,,,,,,,,,,,,,,,,,,,,,,,,,,,,,,,,,,,,,,,,,,,,,,,,,,,,,,,,,,,,,,,,,,,,,,,,,,,,,,,,,125.0,200.0,141.0,141.0,200.0,125.0,2.1,2.11,-266,279,0,288,229,-281,392.2077805995941,392.2078619003296,392.2113106250763,392.22202134132385,392.37270998954773,392.37270998954773,392.37270998954773,392.37270998954773,392.37270998954773,392.37270998954773,392.37270998954773,395.0931284427643,3,2.853090763092041,None,,,,,,,,,,,,,,,,,,185,1,2025-03-04_13h45.09.989,comp,2024.2.4,58.88684688985139,2025-03-04 13h45.17.997165 -0500,
39,39,0,filler_square,None,None,None,None,None,None,None,None,None,None,1,2.05017352104187,None,,,,,0,0,0,0,0,39,39,187,395.114116191864,,,,,,,,,,,,,,,,,,,,,,,,,,,,,,,,,,,,,,,,,,,,,,,,,,,,,,,,,,,,,,,,,,,,,,,,,,,,,,,,,155.79208028219037,155.79208028219037,62.04916088793488,144.8504686950501,81.88958394964526,103.8563365160957,3.0,3.2,-246,-265,0,-10,220,282,395.0951020717621,395.09519028663635,395.0987079143524,395.114116191864,395.2557954788208,395.2557954788208,395.2557954788208,395.2557954788208,395.2557954788208,395.2557954788208,395.2557954788208,397.1744384765625,1,2.05017352104187,None,,,,,,,,,,,,,,,,,,185,1,2025-03-04_13h45.09.989,comp,2024.2.4,58.88684688985139,2025-03-04 13h45.17.997165 -0500,
40,40,0,critical,hdw,20.0,3.0,upper,200.0,125.0,141.0,141.0,125.0,200.0,3,2.652376413345337,None,,,,,0,0,0,0,0,40,40,117,397.1907277107239,,,,,,,,,,,,,,,,,,,,,,,,,,,,,,,,,,,,,,,,,,,,,,,,,,,,,,,,,,,,,,,,,,,,,,,,,,,,,,,,,200.0,125.0,141.0,141.0,125.0,200.0,3.0,3.1,-229,260,0,-9,266,-255,397.1759831905365,397.1760883331299,397.1797773838043,397.1907277107239,397.3434464931488,397.3434464931488,397.3434464931488,397.3434464931488,397.3434464931488,397.3434464931488,397.3434464931488,399.8570125102997,3,2.652376413345337,None,,,,,,,,,,,,,,,,,,185,1,2025-03-04_13h45.09.989,comp,2024.2.4,58.88684688985139,2025-03-04 13h45.17.997165 -0500,
41,41,0,filler_square,None,None,None,None,None,None,None,None,None,None,2,1.0319514274597168,None,,,,,0,0,0,0,0,41,41,179,399.8756945133209,,,,,,,,,,,,,,,,,,,,,,,,,,,,,,,,,,,,,,,,,,,,,,,,,,,,,,,,,,,,,,,,,,,,,,,,,,,,,,,,,169.55464579796674,57.48328789445534,187.6760197389561,187.6760197389561,64.79598855772024,104.06392465994287,2.2,2.22,-219,269,0,-276,242,-262,399.8588469028473,399.8589246273041,399.8619818687439,399.8756945133209,400.0251259803772,400.0251259803772,400.0251259803772,400.0251259803772,400.0251259803772,400.0251259803772,400.0251259803772,400.92510747909546,2,1.0319514274597168,None,,,,,,,,,,,,,,,,,,185,1,2025-03-04_13h45.09.989,comp,2024.2.4,58.88684688985139,2025-03-04 13h45.17.997165 -0500,
42,42,0,filler_square,None,None,None,None,None,None,None,None,None,None,3,2.069035291671753,None,,,,,0,0,0,0,0,42,42,170,400.9421417713165,,,,,,,,,,,,,,,,,,,,,,,,,,,,,,,,,,,,,,,,,,,,,,,,,,,,,,,,,,,,,,,,,,,,,,,,,,,,,,,,,115.60402281526359,73.06685539094657,115.15187423887528,109.71141506838404,131.170836641667,131.170836641667,2.2,2.22,-187,276,0,-264,216,-265,400.92732787132263,400.9274432659149,400.9313876628876,400.9421417713165,401.0911958217621,401.0911958217621,401.0911958217621,401.0911958217621,401.0911958217621,401.0911958217621,401.0911958217621,403.0244460105896,3,2.069035291671753,None,,,,,,,,,,,,,,,,,,185,1,2025-03-04_13h45.09.989,comp,2024.2.4,58.88684688985139,2025-03-04 13h45.17.997165 -0500,
43,43,0,filler_random,None,None,None,None,None,None,None,None,None,None,3,8.72227931022644,None,,,,,0,0,0,0,0,43,43,131,403.0409896373749,,,,,,,,,,,,,,,,,,,,,,,,,,,,,,,,,,,,,,,,,,,,,,,,,,,,,,,,,,,,,,,,,,,,,,,,,,,,,,,,,93.38147306369305,113.76278967399693,74.02796687699387,182.43182916880644,105.79943916147204,138.31430167692577,2.1,2.11,-244,254,0,281,256,-265,403.0262351036072,403.0263440608978,403.0296206474304,403.0409896373749,403.181898355484,403.181898355484,403.181898355484,403.181898355484,403.181898355484,403.181898355484,403.181898355484,411.7812440395355,3,8.72227931022644,None,,,,,,,,,,,,,,,,,,185,1,2025-03-04_13h45.09.989,comp,2024.2.4,58.88684688985139,2025-03-04 13h45.17.997165 -0500,
44,44,0,filler_square,None,None,None,None,None,None,None,None,None,None,1,1.046541452407837,None,,,,,0,0,0,0,0,44,44,190,411.79718685150146,,,,,,,,,,,,,,,,,,,,,,,,,,,,,,,,,,,,,,,,,,,,,,,,,,,,,,,,,,,,,,,,,,,,,,,,,,,,,,,,,197.7106032533162,197.7106032533162,64.94677008278931,155.6357190394176,144.0478295035792,63.84883665264119,4.0,4.2,-273,16,0,-262,206,-5,411.78333282470703,411.783415555954,411.78681468963623,411.79718685150146,411.9451653957367,411.9451653957367,411.9451653957367,411.9451653957367,411.9451653957367,411.9451653957367,411.9451653957367,412.8514316082001,1,1.046541452407837,None,,,,,,,,,,,,,,,,,,185,1,2025-03-04_13h45.09.989,comp,2024.2.4,58.88684688985139,2025-03-04 13h45.17.997165 -0500,
45,45,0,critical,dhw,20.0,1.0,lower,78.0,78.0,133.0,57.0,57.0,133.0,3,4.4683678150177,None,,,,,0,0,0,0,0,45,45,54,412.87158036231995,,,,,,,,,,,,,,,,,,,,,,,,,,,,,,,,,,,,,,,,,,,,,,,,,,,,,,,,,,,,,,,,,,,,,,,,,,,,,,,,,78.0,78.0,133.0,57.0,57.0,133.0,1.0,1.2,-164,13,0,-10,191,-3,412.8529553413391,412.85303592681885,412.85590171813965,412.87158036231995,413.01214718818665,413.01214718818665,413.01214718818665,413.01214718818665,413.01214718818665,413.01214718818665,413.01214718818665,417.3496181964874,3,4.4683678150177,None,,,,,,,,,,,,,,,,,,185,1,2025-03-04_13h45.09.989,comp,2024.2.4,58.88684688985139,2025-03-04 13h45.17.997165 -0500,
46,46,0,critical,whd,35.0,4.0,lower,57.0,133.0,133.0,57.0,70.0,70.0,1,7.9822611808776855,None,,,,,0,0,0,0,0,46,46,88,417.3657956123352,,,,,,,,,,,,,,,,,,,,,,,,,,,,,,,,,,,,,,,,,,,,,,,,,,,,,,,,,,,,,,,,,,,,,,,,,,,,,,,,,57.0,133.0,133.0,57.0,70.0,70.0,4.0,4.2,-191,8,0,-259,160,11,417.35113310813904,417.35121393203735,417.35503101348877,417.3657956123352,417.51358938217163,417.51358938217163,417.51358938217163,417.51358938217163,417.51358938217163,417.51358938217163,417.51358938217163,425.3565230369568,1,7.9822611808776855,None,,,,,,,,,,,,,,,,,,185,1,2025-03-04_13h45.09.989,comp,2024.2.4,58.88684688985139,2025-03-04 13h45.17.997165 -0500,
47,47,0,critical,hdw,35.0,2.1,upper,200.0,125.0,127.0,127.0,125.0,200.0,3,1.9191856384277344,None,,,,,0,0,0,0,0,47,47,45,425.3728675842285,,,,,,,,,,,,,,,,,,,,,,,,,,,,,,,,,,,,,,,,,,,,,,,,,,,,,,,,,,,,,,,,,,,,,,,,,,,,,,,,,200.0,125.0,127.0,127.0,125.0,200.0,2.1,2.11,-222,290,0,285,260,-251,425.3581573963165,425.3582673072815,425.3616051673889,425.3728675842285,425.5156605243683,425.5156605243683,425.5156605243683,425.5156605243683,425.5156605243683,425.5156605243683,425.5156605243683,427.3001346588135,3,1.9191856384277344,None,,,,,,,,,,,,,,,,,,185,1,2025-03-04_13h45.09.989,comp,2024.2.4,58.88684688985139,2025-03-04 13h45.17.997165 -0500,
48,48,0,filler_random,None,None,None,None,None,None,None,None,None,None,2,13.99941349029541,None,,,,,0,0,0,0,0,48,48,154,427.3167927265167,,,,,,,,,,,,,,,,,,,,,,,,,,,,,,,,,,,,,,,,,,,,,,,,,,,,,,,,,,,,,,,,,,,,,,,,,,,,,,,,,78.50888832747869,143.0019539640856,80.33666187443222,142.40028659047726,79.50556608019642,145.61250020020708,4.0,4.2,-239,16,0,-269,240,-19,427.3019461631775,427.3020293712616,427.30601477622986,427.3167927265167,427.46531653404236,427.46531653404236,427.46531653404236,427.46531653404236,427.46531653404236,427.46531653404236,427.46531653404236,441.32284593582153,2,13.99941349029541,None,,,,,,,,,,,,,,,,,,185,1,2025-03-04_13h45.09.989,comp,2024.2.4,58.88684688985139,2025-03-04 13h45.17.997165 -0500,
49,49,0,filler_square,None,None,None,None,None,None,None,None,None,None,1,9.319522380828857,None,,,,,0,0,0,0,0,49,49,209,441.33984112739563,,,,,,,,,,,,,,,,,,,,,,,,,,,,,,,,,,,,,,,,,,,,,,,,,,,,,,,,,,,,,,,,,,,,,,,,,,,,,,,,,95.54466161746154,95.54466161746154,78.51997802770332,66.17571031251526,85.67438979039855,64.14894182187228,2.1,2.11,-177,279,0,271,161,-283,441.3248417377472,441.32496333122253,441.328360080719,441.33984112739563,441.48936462402344,441.48936462402344,441.48936462402344,441.48936462402344,441.48936462402344,441.48936462402344,441.48936462402344,450.6747155189514,1,9.319522380828857,None,,,,,,,,,,,,,,,,,,185,1,2025-03-04_13h45.09.989,comp,2024.2.4,58.88684688985139,2025-03-04 13h45.17.997165 -0500,
50,50,0,critical,whd,35.0,2.1,lower,57.0,133.0,133.0,57.0,70.0,70.0,1,7.424832820892334,None,,,,,0,0,0,0,0,50,50,36,450.6904273033142,,,,,,,,,,,,,,,,,,,,,,,,,,,,,,,,,,,,,,,,,,,,,,,,,,,,,,,,,,,,,,,,,,,,,,,,,,,,,,,,,57.0,133.0,133.0,57.0,70.0,70.0,2.1,2.11,-191,285,0,268,160,-258,450.67663502693176,450.6767704486847,450.6801242828369,450.6904273033142,450.84216117858887,450.84216117858887,450.84216117858887,450.84216117858887,450.84216117858887,450.84216117858887,450.84216117858887,458.1285252571106,1,7.424832820892334,None,,,,,,,,,,,,,,,,,,185,1,2025-03-04_13h45.09.989,comp,2024.2.4,58.88684688985139,2025-03-04 13h45.17.997165 -0500,
51,51,0,critical,whd,35.0,2.1,upper,125.0,200.0,200.0,125.0,127.0,127.0,1,5.369898557662964,None,,,,,0,0,0,0,0,51,51,37,458.1454665660858,,,,,,,,,,,,,,,,,,,,,,,,,,,,,,,,,,,,,,,,,,,,,,,,,,,,,,,,,,,,,,,,,,,,,,,,,,,,,,,,,125.0,200.0,200.0,125.0,127.0,127.0,2.1,2.12,-258,-257,0,-272,222,288,458.13034558296204,458.1304876804352,458.1337435245514,458.1454665660858,458.2921690940857,458.2921690940857,458.2921690940857,458.2921690940857,458.2921690940857,458.2921690940857,458.2921690940857,463.5258514881134,1,5.369898557662964,None,,,,,,,,,,,,,,,,,,185,1,2025-03-04_13h45.09.989,comp,2024.2.4,58.88684688985139,2025-03-04 13h45.17.997165 -0500,
52,52,0,critical,dhw,35.0,4.0,lower,70.0,70.0,133.0,57.0,57.0,133.0,3,6.571919679641724,None,,,,,0,0,0,0,0,52,52,52,463.5435972213745,,,,,,,,,,,,,,,,,,,,,,,,,,,,,,,,,,,,,,,,,,,,,,,,,,,,,,,,,,,,,,,,,,,,,,,,,,,,,,,,,70.0,70.0,133.0,57.0,57.0,133.0,4.0,4.1,-160,-283,0,-16,191,-275,463.5273633003235,463.5274426937103,463.530314207077,463.5435972213745,463.6960918903351,463.6960918903351,463.6960918903351,463.6960918903351,463.6960918903351,463.6960918903351,463.6960918903351,470.1295795440674,3,6.571919679641724,None,,,,,,,,,,,,,,,,,,185,1,2025-03-04_13h45.09.989,comp,2024.2.4,58.88684688985139,2025-03-04 13h45.17.997165 -0500,
53,53,0,critical,whd,20.0,2.1,lower,57.0,133.0,133.0,57.0,78.0,78.0,1,2.843768358230591,None,,,,,0,0,0,0,0,53,53,38,470.1451780796051,,,,,,,,,,,,,,,,,,,,,,,,,,,,,,,,,,,,,,,,,,,,,,,,,,,,,,,,,,,,,,,,,,,,,,,,,,,,,,,,,57.0,133.0,133.0,57.0,78.0,78.0,2.1,2.11,-191,260,0,281,164,-287,470.13110184669495,470.1311831474304,470.1345806121826,470.1451780796051,470.2987759113312,470.2987759113312,470.2987759113312,470.2987759113312,470.2987759113312,470.2987759113312,470.2987759113312,472.99957156181335,1,2.843768358230591,None,,,,,,,,,,,,,,,,,,185,1,2025-03-04_13h45.09.989,comp,2024.2.4,58.88684688985139,2025-03-04 13h45.17.997165 -0500,
54,54,0,critical,dwh,35.0,1.0,upper,127.0,127.0,125.0,200.0,200.0,125.0,2,6.924672365188599,None,,,,,0,0,0,0,0,54,54,61,473.01577067375183,,,,,,,,,,,,,,,,,,,,,,,,,,,,,,,,,,,,,,,,,,,,,,,,,,,,,,,,,,,,,,,,,,,,,,,,,,,,,,,,,127.0,127.0,125.0,200.0,200.0,125.0,1.0,1.3,220,-287,480,-285,738,-271,473.00133633613586,473.00141739845276,473.0048530101776,473.01577067375183,473.17065238952637,473.17065238952637,473.17065238952637,473.17065238952637,473.17065238952637,473.17065238952637,473.17065238952637,479.9467372894287,2,6.924672365188599,None,,,,,,,,,,,,,,,,,,185,1,2025-03-04_13h45.09.989,comp,2024.2.4,58.88684688985139,2025-03-04 13h45.17.997165 -0500,
55,55,0,critical,wdh,20.0,2.1,lower,57.0,133.0,78.0,78.0,133.0,57.0,1,3.023332118988037,None,,,,,0,0,0,0,0,55,55,10,479.964111328125,,,,,,,,,,,,,,,,,,,,,,,,,,,,,,,,,,,,,,,,,,,,,,,,,,,,,,,,,,,,,,,,,,,,,,,,,,,,,,,,,57.0,133.0,78.0,78.0,133.0,57.0,2.1,2.12,-202,-275,0,-284,164,277,479.9484016895294,479.948529958725,479.95179986953735,479.964111328125,480.09950041770935,480.09950041770935,480.09950041770935,480.09950041770935,480.09950041770935,480.09950041770935,480.09950041770935,483.00772500038147,1,3.023332118988037,None,,,,,,,,,,,,,,,,,,185,1,2025-03-04_13h45.09.989,comp,2024.2.4,58.88684688985139,2025-03-04 13h45.17.997165 -0500,
56,56,0,filler_square,None,None,None,None,None,None,None,None,None,None,2,7.288853168487549,None,,,,,0,0,0,0,0,56,56,195,483.0277087688446,,,,,,,,,,,,,,,,,,,,,,,,,,,,,,,,,,,,,,,,,,,,,,,,,,,,,,,,,,,,,,,,,,,,,,,,,,,,,,,,,66.08443123971925,60.13364494756896,71.94395649023089,71.94395649023089,70.06905792591742,70.22310258965351,2.2,2.22,-162,273,0,-283,167,-288,483.0095419883728,483.0096197128296,483.01247358322144,483.0277087688446,483.1693363189697,483.1693363189697,483.1693363189697,483.1693363189697,483.1693363189697,483.1693363189697,483.1693363189697,490.3185896873474,2,7.288853168487549,None,,,,,,,,,,,,,,,,,,185,1,2025-03-04_13h45.09.989,comp,2024.2.4,58.88684688985139,2025-03-04 13h45.17.997165 -0500,
57,57,0,critical,dwh,20.0,1.0,upper,141.0,141.0,125.0,200.0,200.0,125.0,2,5.8920204639434814,None,,,,,0,0,0,0,0,57,57,67,490.33554315567017,,,,,,,,,,,,,,,,,,,,,,,,,,,,,,,,,,,,,,,,,,,,,,,,,,,,,,,,,,,,,,,,,,,,,,,,,,,,,,,,,141.0,141.0,125.0,200.0,200.0,125.0,1.0,1.3,214,-269,480,-276,738,-269,490.3202414512634,490.32033038139343,490.3236484527588,490.33554315567017,490.48592138290405,490.48592138290405,490.48592138290405,490.48592138290405,490.48592138290405,490.48592138290405,490.48592138290405,496.2371389865875,2,5.8920204639434814,None,,,,,,,,,,,,,,,,,,185,1,2025-03-04_13h45.09.989,comp,2024.2.4,58.88684688985139,2025-03-04 13h45.17.997165 -0500,
58,58,0,filler_square,None,None,None,None,None,None,None,None,None,None,1,1.556936264038086,None,,,,,0,0,0,0,0,58,58,191,496.2546842098236,,,,,,,,,,,,,,,,,,,,,,,,,,,,,,,,,,,,,,,,,,,,,,,,,,,,,,,,,,,,,,,,,,,,,,,,,,,,,,,,,190.52365738213703,190.52365738213703,103.58066540819796,165.58320645552476,184.02670568643035,89.02657617760349,3.0,3.2,-274,-281,0,11,223,270,496.2392027378082,496.2392838001251,496.24249172210693,496.2546842098236,496.4048447608948,496.4048447608948,496.4048447608948,496.4048447608948,496.4048447608948,496.4048447608948,496.4048447608948,497.82070302963257,1,1.556936264038086,None,,,,,,,,,,,,,,,,,,185,1,2025-03-04_13h45.09.989,comp,2024.2.4,58.88684688985139,2025-03-04 13h45.17.997165 -0500,
59,59,0,critical,dwh,35.0,1.0,lower,70.0,70.0,57.0,133.0,133.0,57.0,2,12.882486581802368,None,,,,,0,0,0,0,0,59,59,60,497.841135263443,,,,,,,,,,,,,,,,,,,,,,,,,,,,,,,,,,,,,,,,,,,,,,,,,,,,,,,,,,,,,,,,,,,,,,,,,,,,,,,,,70.0,70.0,57.0,133.0,133.0,57.0,1.0,1.2,-198,-12,0,7,191,20,497.8222131729126,497.8222904205322,497.82535338401794,497.841135263443,497.9917366504669,497.9917366504669,497.9917366504669,497.9917366504669,497.9917366504669,497.9917366504669,497.9917366504669,510.72797989845276,2,12.882486581802368,None,,,,,,,,,,,,,,,,,,185,1,2025-03-04_13h45.09.989,comp,2024.2.4,58.88684688985139,2025-03-04 13h45.17.997165 -0500,
60,60,0,critical,dwh,35.0,2.1,upper,127.0,127.0,125.0,200.0,200.0,125.0,3,3.067124366760254,None,,,,,0,0,0,0,0,60,60,5,510.74450278282166,,,,,,,,,,,,,,,,,,,,,,,,,,,,,,,,,,,,,,,,,,,,,,,,,,,,,,,,,,,,,,,,,,,,,,,,,,,,,,,,,127.0,127.0,125.0,200.0,200.0,125.0,2.1,2.11,-260,283,0,261,258,-279,510.7296612262726,510.7297430038452,510.733017206192,510.74450278282166,510.89326643943787,510.89326643943787,510.89326643943787,510.89326643943787,510.89326643943787,510.89326643943787,510.89326643943787,513.8232622146606,3,3.067124366760254,None,,,,,,,,,,,,,,,,,,185,1,2025-03-04_13h45.09.989,comp,2024.2.4,58.88684688985139,2025-03-04 13h45.17.997165 -0500,
61,61,0,critical,wdh,20.0,4.0,upper,125.0,200.0,141.0,141.0,200.0,125.0,1,6.9227941036224365,None,,,,,0,0,0,0,0,61,61,83,513.8407869338989,,,,,,,,,,,,,,,,,,,,,,,,,,,,,,,,,,,,,,,,,,,,,,,,,,,,,,,,,,,,,,,,,,,,,,,,,,,,,,,,,125.0,200.0,141.0,141.0,200.0,125.0,4.0,4.1,-266,-250,0,7,229,-285,513.8247783184052,513.8248553276062,513.827714920044,513.8407869338989,513.9774227142334,513.9774227142334,513.9774227142334,513.9774227142334,513.9774227142334,513.9774227142334,513.9774227142334,520.7803962230682,1,6.9227941036224365,None,,,,,,,,,,,,,,,,,,185,1,2025-03-04_13h45.09.989,comp,2024.2.4,58.88684688985139,2025-03-04 13h45.17.997165 -0500,
62,62,0,filler_square,None,None,None,None,None,None,None,None,None,None,1,5.784643888473511,None,,,,,0,0,0,0,0,62,62,202,520.7949404716492,,,,,,,,,,,,,,,,,,,,,,,,,,,,,,,,,,,,,,,,,,,,,,,,,,,,,,,,,,,,,,,,,,,,,,,,,,,,,,,,,107.07509731439285,107.07509731439285,57.849209622440426,100.29075546815118,83.7985364770895,79.69718182726655,2.2,2.21,-200,-286,0,276,186,267,520.7824878692627,520.7825694084167,520.7855298519135,520.7949404716492,520.946370601654,520.946370601654,520.946370601654,520.946370601654,520.946370601654,520.946370601654,520.946370601654,526.5818364620209,1,5.784643888473511,None,,,,,,,,,,,,,,,,,,185,1,2025-03-04_13h45.09.989,comp,2024.2.4,58.88684688985139,2025-03-04 13h45.17.997165 -0500,
63,63,0,critical,dwh,20.0,3.0,upper,141.0,141.0,125.0,200.0,200.0,125.0,3,13.096080780029297,None,,,,,0,0,0,0,0,63,63,69,526.6036677360535,,,,,,,,,,,,,,,,,,,,,,,,,,,,,,,,,,,,,,,,,,,,,,,,,,,,,,,,,,,,,,,,,,,,,,,,,,,,,,,,,141.0,141.0,125.0,200.0,200.0,125.0,3.0,3.2,-266,-255,0,-11,258,267,526.5834820270538,526.5835626125336,526.5868189334869,526.6036677360535,526.7472205162048,526.7472205162048,526.7472205162048,526.7472205162048,526.7472205162048,526.7472205162048,526.7472205162048,539.7028474807739,3,13.096080780029297,None,,,,,,,,,,,,,,,,,,185,1,2025-03-04_13h45.09.989,comp,2024.2.4,58.88684688985139,2025-03-04 13h45.17.997165 -0500,
64,64,0,critical,hwd,35.0,2.1,lower,133.0,57.0,57.0,133.0,70.0,70.0,2,3.700371742248535,None,,,,,0,0,0,0,0,64,64,40,539.719158411026,,,,,,,,,,,,,,,,,,,,,,,,,,,,,,,,,,,,,,,,,,,,,,,,,,,,,,,,,,,,,,,,,,,,,,,,,,,,,,,,,133.0,57.0,57.0,133.0,70.0,70.0,2.1,2.11,-191,269,0,284,198,-259,539.704461812973,539.7045631408691,539.7074997425079,539.719158411026,539.8675529956818,539.8675529956818,539.8675529956818,539.8675529956818,539.8675529956818,539.8675529956818,539.8675529956818,543.4357776641846,2,3.700371742248535,None,,,,,,,,,,,,,,,,,,185,1,2025-03-04_13h45.09.989,comp,2024.2.4,58.88684688985139,2025-03-04 13h45.17.997165 -0500,
65,65,0,catch,None,None,None,None,None,None,None,None,None,None,1,1.352588176727295,None,,,,,0,0,0,0,0,65,65,124,543.4515328407288,,,,,,,,,,,,,,,,,,,,,,,,,,,,,,,,,,,,,,,,,,,,,,,,,,,,,,,,,,,,,,,,,,,,,,,,,,,,,,,,,168,157,115,75,116,74,2.1,2.12,-212,-274,0,-279,170,263,543.4377779960632,543.4378552436829,543.4412198066711,543.4515328407288,543.6019542217255,543.6019542217255,543.6019542217255,543.6019542217255,543.6019542217255,543.6019542217255,543.6019542217255,544.822028875351,1,1.352588176727295,None,,,,,,,,,,,,,,,,,,185,1,2025-03-04_13h45.09.989,comp,2024.2.4,58.88684688985139,2025-03-04 13h45.17.997165 -0500,
66,66,0,critical,whd,35.0,1.0,upper,125.0,200.0,200.0,125.0,127.0,127.0,2,7.57466983795166,None,,,,,0,0,0,0,0,66,66,85,544.8377678394318,,,,,,,,,,,,,,,,,,,,,,,,,,,,,,,,,,,,,,,,,,,,,,,,,,,,,,,,,,,,,,,,,,,,,,,,,,,,,,,,,125.0,200.0,200.0,125.0,127.0,127.0,1.0,1.1,-738,278,-480,274,-258,279,544.8237962722778,544.8239324092865,544.8274140357971,544.8377678394318,544.9885194301605,544.9885194301605,544.9885194301605,544.9885194301605,544.9885194301605,544.9885194301605,544.9885194301605,552.4263648986816,2,7.57466983795166,None,,,,,,,,,,,,,,,,,,185,1,2025-03-04_13h45.09.989,comp,2024.2.4,58.88684688985139,2025-03-04 13h45.17.997165 -0500,
67,67,0,critical,wdh,20.0,3.0,upper,125.0,200.0,141.0,141.0,200.0,125.0,3,2.6921980381011963,None,,,,,0,0,0,0,0,67,67,81,552.4474272727966,,,,,,,,,,,,,,,,,,,,,,,,,,,,,,,,,,,,,,,,,,,,,,,,,,,,,,,,,,,,,,,,,,,,,,,,,,,,,,,,,125.0,200.0,141.0,141.0,200.0,125.0,3.0,3.1,-266,290,0,9,229,-264,552.4279367923737,552.4280359745026,552.4314525127411,552.4474272727966,552.5893607139587,552.5893607139587,552.5893607139587,552.5893607139587,552.5893607139587,552.5893607139587,552.5893607139587,555.157514333725,3,2.6921980381011963,None,,,,,,,,,,,,,,,,,,185,1,2025-03-04_13h45.09.989,comp,2024.2.4,58.88684688985139,2025-03-04 13h45.17.997165 -0500,
68,68,0,filler_random,None,None,None,None,None,None,None,None,None,None,2,1.9755167961120605,None,,,,,0,0,0,0,0,68,68,142,555.1730995178223,,,,,,,,,,,,,,,,,,,,,,,,,,,,,,,,,,,,,,,,,,,,,,,,,,,,,,,,,,,,,,,,,,,,,,,,,,,,,,,,,73.0864961589146,113.15321312068147,97.6479476279802,136.67374629273672,128.8778104285048,84.05913528468042,2.2,2.22,-221,269,0,-261,206,-282,555.1592750549316,555.1593928337097,555.1627376079559,555.1730995178223,555.3229939937592,555.3229939937592,555.3229939937592,555.3229939937592,555.3229939937592,555.3229939937592,555.3229939937592,557.1542308330536,2,1.9755167961120605,None,,,,,,,,,,,,,,,,,,185,1,2025-03-04_13h45.09.989,comp,2024.2.4,58.88684688985139,2025-03-04 13h45.17.997165 -0500,
69,69,0,filler_square,None,None,None,None,None,None,None,None,None,None,1,2.5474703311920166,None,,,,,0,0,0,0,0,69,69,204,557.1711146831512,,,,,,,,,,,,,,,,,,,,,,,,,,,,,,,,,,,,,,,,,,,,,,,,,,,,,,,,,,,,,,,,,,,,,,,,,,,,,,,,,111.0285963476343,111.0285963476343,110.13884519591278,92.7997584923183,89.21161949233971,66.81642735760784,3.0,3.1,-198,258,0,7,176,-280,557.1562051773071,557.1562869548798,557.1594748497009,557.1711146831512,557.3065738677979,557.3065738677979,557.3065738677979,557.3065738677979,557.3065738677979,557.3065738677979,557.3065738677979,559.7232706546783,1,2.5474703311920166,None,,,,,,,,,,,,,,,,,,185,1,2025-03-04_13h45.09.989,comp,2024.2.4,58.88684688985139,2025-03-04 13h45.17.997165 -0500,
70,70,0,filler_square,None,None,None,None,None,None,None,None,None,None,2,1.2077300548553467,None,,,,,0,0,0,0,0,70,70,180,559.7400188446045,,,,,,,,,,,,,,,,,,,,,,,,,,,,,,,,,,,,,,,,,,,,,,,,,,,,,,,,,,,,,,,,,,,,,,,,,,,,,,,,,81.98335698196752,107.30333463599946,152.52461559568042,152.52461559568042,94.13504110322717,141.4134038550214,3.0,3.2,-226,-266,0,0,243,276,559.7250897884369,559.7251741886139,559.7283284664154,559.7400188446045,559.8756453990936,559.8756453990936,559.8756453990936,559.8756453990936,559.8756453990936,559.8756453990936,559.8756453990936,560.9587118625641,2,1.2077300548553467,None,,,,,,,,,,,,,,,,,,185,1,2025-03-04_13h45.09.989,comp,2024.2.4,58.88684688985139,2025-03-04 13h45.17.997165 -0500,
71,71,0,critical,hdw,20.0,3.0,lower,133.0,57.0,78.0,78.0,57.0,133.0,3,7.138001203536987,None,,,,,0,0,0,0,0,71,71,116,560.9784955978394,,,,,,,,,,,,,,,,,,,,,,,,,,,,,,,,,,,,,,,,,,,,,,,,,,,,,,,,,,,,,,,,,,,,,,,,,,,,,,,,,133.0,57.0,78.0,78.0,57.0,133.0,3.0,3.1,-164,254,0,9,202,-264,560.9602191448212,560.9602994918823,560.9634726047516,560.9784955978394,561.1267294883728,561.1267294883728,561.1267294883728,561.1267294883728,561.1267294883728,561.1267294883728,561.1267294883728,568.1187670230865,3,7.138001203536987,None,,,,,,,,,,,,,,,,,,185,1,2025-03-04_13h45.09.989,comp,2024.2.4,58.88684688985139,2025-03-04 13h45.17.997165 -0500,
72,72,0,critical,hdw,20.0,2.1,upper,200.0,125.0,141.0,141.0,125.0,200.0,3,2.1736509799957275,None,,,,,0,0,0,0,0,72,72,47,568.1348929405212,,,,,,,,,,,,,,,,,,,,,,,,,,,,,,,,,,,,,,,,,,,,,,,,,,,,,,,,,,,,,,,,,,,,,,,,,,,,,,,,,200.0,125.0,141.0,141.0,125.0,200.0,2.1,2.11,-229,272,0,288,266,-263,568.1204211711884,568.1204998493195,568.1237514019012,568.1348929405212,568.276814699173,568.276814699173,568.276814699173,568.276814699173,568.276814699173,568.276814699173,568.276814699173,570.3143260478973,3,2.1736509799957275,None,,,,,,,,,,,,,,,,,,185,1,2025-03-04_13h45.09.989,comp,2024.2.4,58.88684688985139,2025-03-04 13h45.17.997165 -0500,
73,73,0,critical,dwh,35.0,2.1,upper,127.0,127.0,125.0,200.0,200.0,125.0,2,2.609375,None,,,,,0,0,0,0,0,73,73,29,570.3308317661285,,,,,,,,,,,,,,,,,,,,,,,,,,,,,,,,,,,,,,,,,,,,,,,,,,,,,,,,,,,,,,,,,,,,,,,,,,,,,,,,,127.0,127.0,125.0,200.0,200.0,125.0,2.1,2.12,-260,-286,0,-258,258,265,570.3159725666046,570.3160552978516,570.3192203044891,570.3308317661285,570.4762785434723,570.4762785434723,570.4762785434723,570.4762785434723,570.4762785434723,570.4762785434723,570.4762785434723,572.9453585147858,2,2.609375,None,,,,,,,,,,,,,,,,,,185,1,2025-03-04_13h45.09.989,comp,2024.2.4,58.88684688985139,2025-03-04 13h45.17.997165 -0500,
74,74,0,critical,hwd,35.0,2.1,upper,200.0,125.0,125.0,200.0,127.0,127.0,1,7.8419928550720215,None,,,,,0,0,0,0,0,74,74,17,572.9616658687592,,,,,,,,,,,,,,,,,,,,,,,,,,,,,,,,,,,,,,,,,,,,,,,,,,,,,,,,,,,,,,,,,,,,,,,,,,,,,,,,,200.0,125.0,125.0,200.0,127.0,127.0,2.1,2.11,-258,258,0,252,260,-278,572.946831703186,572.9469113349915,572.9499762058258,572.9616658687592,573.1157560348511,573.1157560348511,573.1157560348511,573.1157560348511,573.1157560348511,573.1157560348511,573.1157560348511,580.814740896225,1,7.8419928550720215,None,,,,,,,,,,,,,,,,,,185,1,2025-03-04_13h45.09.989,comp,2024.2.4,58.88684688985139,2025-03-04 13h45.17.997165 -0500,
75,75,0,critical,dhw,20.0,4.0,lower,78.0,78.0,133.0,57.0,57.0,133.0,2,2.284757614135742,None,,,,,0,0,0,0,0,75,75,58,580.831223487854,,,,,,,,,,,,,,,,,,,,,,,,,,,,,,,,,,,,,,,,,,,,,,,,,,,,,,,,,,,,,,,,,,,,,,,,,,,,,,,,,78.0,78.0,133.0,57.0,57.0,133.0,4.0,4.2,-164,11,0,-253,191,16,580.8162727355957,580.8163528442383,580.8195824623108,580.831223487854,580.9781084060669,580.9781084060669,580.9781084060669,580.9781084060669,580.9781084060669,580.9781084060669,580.9781084060669,583.1221370697021,2,2.284757614135742,None,,,,,,,,,,,,,,,,,,185,1,2025-03-04_13h45.09.989,comp,2024.2.4,58.88684688985139,2025-03-04 13h45.17.997165 -0500,
76,76,0,critical,dwh,20.0,2.1,lower,78.0,78.0,57.0,133.0,133.0,57.0,2,9.102860450744629,None,,,,,0,0,0,0,0,76,76,6,583.1410570144653,,,,,,,,,,,,,,,,,,,,,,,,,,,,,,,,,,,,,,,,,,,,,,,,,,,,,,,,,,,,,,,,,,,,,,,,,,,,,,,,,78.0,78.0,57.0,133.0,133.0,57.0,2.1,2.12,-202,-272,0,-289,191,282,583.123676776886,583.1237561702728,583.1266832351685,583.1410570144653,583.2822873592377,583.2822873592377,583.2822873592377,583.2822873592377,583.2822873592377,583.2822873592377,583.2822873592377,592.2589240074158,2,9.102860450744629,None,,,,,,,,,,,,,,,,,,185,1,2025-03-04_13h45.09.989,comp,2024.2.4,58.88684688985139,2025-03-04 13h45.17.997165 -0500,
77,77,0,filler_square,None,None,None,None,None,None,None,None,None,None,1,1.4255926609039307,None,,,,,0,0,0,0,0,77,77,192,592.2741532325745,,,,,,,,,,,,,,,,,,,,,,,,,,,,,,,,,,,,,,,,,,,,,,,,,,,,,,,,,,,,,,,,,,,,,,,,,,,,,,,,,162.80436232910637,162.80436232910637,150.06556477210927,90.84515549410261,96.47326756060508,79.86270297409766,2.1,2.11,-223,263,0,280,181,-275,592.2607107162476,592.2607862949371,592.2636501789093,592.2741532325745,592.4216506481171,592.4216506481171,592.4216506481171,592.4216506481171,592.4216506481171,592.4216506481171,592.4216506481171,593.7032647132874,1,1.4255926609039307,None,,,,,,,,,,,,,,,,,,185,1,2025-03-04_13h45.09.989,comp,2024.2.4,58.88684688985139,2025-03-04 13h45.17.997165 -0500,
78,78,0,critical,wdh,35.0,1.0,upper,125.0,200.0,127.0,127.0,200.0,125.0,1,2.400052309036255,None,,,,,0,0,0,0,0,78,78,73,593.7237572669983,,,,,,,,,,,,,,,,,,,,,,,,,,,,,,,,,,,,,,,,,,,,,,,,,,,,,,,,,,,,,,,,,,,,,,,,,,,,,,,,,125.0,200.0,127.0,127.0,200.0,125.0,1.0,1.3,220,-289,480,-271,702,-280,593.7048137187958,593.7049133777618,593.7080805301666,593.7237572669983,593.8692071437836,593.8692071437836,593.8692071437836,593.8692071437836,593.8692071437836,593.8692071437836,593.8692071437836,596.1382217407227,1,2.400052309036255,None,,,,,,,,,,,,,,,,,,185,1,2025-03-04_13h45.09.989,comp,2024.2.4,58.88684688985139,2025-03-04 13h45.17.997165 -0500,
79,79,0,critical,whd,20.0,3.0,upper,125.0,200.0,200.0,125.0,141.0,141.0,1,3.8905394077301025,None,,,,,0,0,0,0,0,79,79,93,596.1540491580963,,,,,,,,,,,,,,,,,,,,,,,,,,,,,,,,,,,,,,,,,,,,,,,,,,,,,,,,,,,,,,,,,,,,,,,,,,,,,,,,,125.0,200.0,200.0,125.0,141.0,141.0,3.0,3.2,-258,-250,0,5,229,262,596.1398632526398,596.1399431228638,596.1437845230103,596.1540491580963,596.3062124252319,596.3062124252319,596.3062124252319,596.3062124252319,596.3062124252319,596.3062124252319,596.3062124252319,600.0558516979218,1,3.8905394077301025,None,,,,,,,,,,,,,,,,,,185,1,2025-03-04_13h45.09.989,comp,2024.2.4,58.88684688985139,2025-03-04 13h45.17.997165 -0500,
80,80,0,critical,hwd,20.0,3.0,lower,133.0,57.0,57.0,133.0,78.0,78.0,1,5.13811469078064,None,,,,,0,0,0,0,0,80,80,104,600.0736081600189,,,,,,,,,,,,,,,,,,,,,,,,,,,,,,,,,,,,,,,,,,,,,,,,,,,,,,,,,,,,,,,,,,,,,,,,,,,,,,,,,133.0,57.0,57.0,133.0,78.0,78.0,3.0,3.2,-191,-261,0,-8,202,270,600.0574626922607,600.0575435161591,600.0612649917603,600.0736081600189,600.2221295833588,600.2221295833588,600.2221295833588,600.2221295833588,600.2221295833588,600.2221295833588,600.2221295833588,605.2231562137604,1,5.13811469078064,None,,,,,,,,,,,,,,,,,,185,1,2025-03-04_13h45.09.989,comp,2024.2.4,58.88684688985139,2025-03-04 13h45.17.997165 -0500,
81,81,0,critical,hdw,20.0,4.0,upper,200.0,125.0,141.0,141.0,125.0,200.0,1,7.693915843963623,None,,,,,0,0,0,0,0,81,81,119,605.2392749786377,,,,,,,,,,,,,,,,,,,,,,,,,,,,,,,,,,,,,,,,,,,,,,,,,,,,,,,,,,,,,,,,,,,,,,,,,,,,,,,,,200.0,125.0,141.0,141.0,125.0,200.0,4.0,4.1,-229,-274,0,13,266,-279,605.2246706485748,605.2247505187988,605.2278211116791,605.2392749786377,605.3889598846436,605.3889598846436,605.3889598846436,605.3889598846436,605.3889598846436,605.3889598846436,605.3889598846436,612.9396240711212,1,7.693915843963623,None,,,,,,,,,,,,,,,,,,185,1,2025-03-04_13h45.09.989,comp,2024.2.4,58.88684688985139,2025-03-04 13h45.17.997165 -0500,
82,82,0,filler_random,None,None,None,None,None,None,None,None,None,None,1,5.217283248901367,None,,,,,0,0,0,0,0,82,82,137,612.9554626941681,,,,,,,,,,,,,,,,,,,,,,,,,,,,,,,,,,,,,,,,,,,,,,,,,,,,,,,,,,,,,,,,,,,,,,,,,,,,,,,,,162.53594737198569,183.981835383805,156.90077725055045,178.7681849877041,116.4818627313798,92.79025720306288,2.1,2.11,-277,285,0,275,232,-284,612.9414048194885,612.9414842128754,612.9445130825043,612.9554626941681,613.0958330631256,613.0958330631256,613.0958330631256,613.0958330631256,613.0958330631256,613.0958330631256,613.0958330631256,618.1781332492828,1,5.217283248901367,None,,,,,,,,,,,,,,,,,,185,1,2025-03-04_13h45.09.989,comp,2024.2.4,58.88684688985139,2025-03-04 13h45.17.997165 -0500,
83,83,0,catch,None,None,None,None,None,None,None,None,None,None,1,1.4648652076721191,None,,,,,0,0,0,0,0,83,83,128,618.1948788166046,,,,,,,,,,,,,,,,,,,,,,,,,,,,,,,,,,,,,,,,,,,,,,,,,,,,,,,,,,,,,,,,,,,,,,,,,,,,,,,,,135,190,115,75,116,74,1.0,1.1,-708,288,-480,264,-310,250,618.1802341938019,618.1803171634674,618.1841065883636,618.1948788166046,618.3421392440796,618.3421392440796,618.3421392440796,618.3421392440796,618.3421392440796,618.3421392440796,618.3421392440796,619.6764733791351,1,1.4648652076721191,None,,,,,,,,,,,,,,,,,,185,1,2025-03-04_13h45.09.989,comp,2024.2.4,58.88684688985139,2025-03-04 13h45.17.997165 -0500,
84,84,0,critical,dwh,35.0,4.0,upper,127.0,127.0,125.0,200.0,200.0,125.0,3,2.5716795921325684,None,,,,,0,0,0,0,0,84,84,65,619.6961214542389,,,,,,,,,,,,,,,,,,,,,,,,,,,,,,,,,,,,,,,,,,,,,,,,,,,,,,,,,,,,,,,,,,,,,,,,,,,,,,,,,127.0,127.0,125.0,200.0,200.0,125.0,4.0,4.1,-260,-280,0,17,258,-272,619.6780803203583,619.6781890392303,619.6815071105957,619.6961214542389,619.8436152935028,619.8436152935028,619.8436152935028,619.8436152935028,619.8436152935028,619.8436152935028,619.8436152935028,622.2775256633759,3,2.5716795921325684,None,,,,,,,,,,,,,,,,,,185,1,2025-03-04_13h45.09.989,comp,2024.2.4,58.88684688985139,2025-03-04 13h45.17.997165 -0500,
85,85,0,filler_random,None,None,None,None,None,None,None,None,None,None,1,3.309520959854126,None,,,,,0,0,0,0,0,85,85,155,622.2945501804352,,,,,,,,,,,,,,,,,,,,,,,,,,,,,,,,,,,,,,,,,,,,,,,,,,,,,,,,,,,,,,,,,,,,,,,,,,,,,,,,,191.02481865109272,61.31581069354017,118.02901897701048,62.96364489310584,102.43625067759993,74.91893823322374,4.0,4.1,-158,-290,0,6,165,-284,622.2794711589813,622.2795548439026,622.2829055786133,622.2945501804352,622.4435844421387,622.4435844421387,622.4435844421387,622.4435844421387,622.4435844421387,622.4435844421387,622.4435844421387,625.6203112602234,1,3.309520959854126,None,,,,,,,,,,,,,,,,,,185,1,2025-03-04_13h45.09.989,comp,2024.2.4,58.88684688985139,2025-03-04 13h45.17.997165 -0500,
86,86,0,critical,hdw,35.0,1.0,lower,133.0,57.0,70.0,70.0,57.0,133.0,3,6.192075729370117,None,,,,,0,0,0,0,0,86,86,108,625.635892868042,,,,,,,,,,,,,,,,,,,,,,,,,,,,,,,,,,,,,,,,,,,,,,,,,,,,,,,,,,,,,,,,,,,,,,,,,,,,,,,,,133.0,57.0,70.0,70.0,57.0,133.0,1.0,1.3,320,-267,480,-290,678,-289,625.6217911243439,625.6218683719635,625.6246871948242,625.635892868042,625.7792303562164,625.7792303562164,625.7792303562164,625.7792303562164,625.7792303562164,625.7792303562164,625.7792303562164,631.8467769622803,3,6.192075729370117,None,,,,,,,,,,,,,,,,,,185,1,2025-03-04_13h45.09.989,comp,2024.2.4,58.88684688985139,2025-03-04 13h45.17.997165 -0500,
87,87,0,critical,wdh,35.0,2.1,lower,57.0,133.0,70.0,70.0,133.0,57.0,3,4.573342561721802,None,,,,,0,0,0,0,0,87,87,8,631.8623621463776,,,,,,,,,,,,,,,,,,,,,,,,,,,,,,,,,,,,,,,,,,,,,,,,,,,,,,,,,,,,,,,,,,,,,,,,,,,,,,,,,57.0,133.0,70.0,70.0,133.0,57.0,2.1,2.11,-198,258,0,270,160,-266,631.8483572006226,631.848433971405,631.8514635562897,631.8623621463776,632.0100164413452,632.0100164413452,632.0100164413452,632.0100164413452,632.0100164413452,632.0100164413452,632.0100164413452,636.4533467292786,3,4.573342561721802,None,,,,,,,,,,,,,,,,,,185,1,2025-03-04_13h45.09.989,comp,2024.2.4,58.88684688985139,2025-03-04 13h45.17.997165 -0500,
88,88,0,filler_square,None,None,None,None,None,None,None,None,None,None,2,3.7184789180755615,None,,,,,0,0,0,0,0,88,88,172,636.4693465232849,,,,,,,,,,,,,,,,,,,,,,,,,,,,,,,,,,,,,,,,,,,,,,,,,,,,,,,,,,,,,,,,,,,,,,,,,,,,,,,,,60.86292123519688,57.606113367927264,64.06311954210953,64.06311954210953,58.85300255122932,61.28150291712045,1.0,1.2,-157,-20,0,14,159,-6,636.455127954483,636.4552681446075,636.4590923786163,636.4693465232849,636.6166229248047,636.6166229248047,636.6166229248047,636.6166229248047,636.6166229248047,636.6166229248047,636.6166229248047,640.19877576828,2,3.7184789180755615,None,,,,,,,,,,,,,,,,,,185,1,2025-03-04_13h45.09.989,comp,2024.2.4,58.88684688985139,2025-03-04 13h45.17.997165 -0500,
89,89,0,critical,whd,35.0,1.0,lower,57.0,133.0,133.0,57.0,70.0,70.0,1,6.76853346824646,None,,,,,0,0,0,0,0,89,89,84,640.2193424701691,,,,,,,,,,,,,,,,,,,,,,,,,,,,,,,,,,,,,,,,,,,,,,,,,,,,,,,,,,,,,,,,,,,,,,,,,,,,,,,,,57.0,133.0,133.0,57.0,70.0,70.0,1.0,1.3,289,-265,480,-263,640,-283,640.2003698348999,640.2004487514496,640.2036590576172,640.2193424701691,640.3664658069611,640.3664658069611,640.3664658069611,640.3664658069611,640.3664658069611,640.3664658069611,640.3664658069611,647.0029199123383,1,6.76853346824646,None,,,,,,,,,,,,,,,,,,185,1,2025-03-04_13h45.09.989,comp,2024.2.4,58.88684688985139,2025-03-04 13h45.17.997165 -0500,
90,90,0,critical,whd,20.0,1.0,upper,125.0,200.0,200.0,125.0,141.0,141.0,1,2.4222676753997803,None,,,,,0,0,0,0,0,90,90,91,647.0227599143982,,,,,,,,,,,,,,,,,,,,,,,,,,,,,,,,,,,,,,,,,,,,,,,,,,,,,,,,,,,,,,,,,,,,,,,,,,,,,,,,,125.0,200.0,200.0,125.0,141.0,141.0,1.0,1.3,222,-271,480,-254,709,-278,647.00443983078,647.0045173168182,647.0084121227264,647.0227599143982,647.1699743270874,647.1699743270874,647.1699743270874,647.1699743270874,647.1699743270874,647.1699743270874,647.1699743270874,649.4558663368225,1,2.4222676753997803,None,,,,,,,,,,,,,,,,,,185,1,2025-03-04_13h45.09.989,comp,2024.2.4,58.88684688985139,2025-03-04 13h45.17.997165 -0500,
91,91,0,critical,dwh,20.0,4.0,lower,78.0,78.0,57.0,133.0,133.0,57.0,3,2.252272129058838,None,,,,,0,0,0,0,0,91,91,70,649.4715468883514,,,,,,,,,,,,,,,,,,,,,,,,,,,,,,,,,,,,,,,,,,,,,,,,,,,,,,,,,,,,,,,,,,,,,,,,,,,,,,,,,78.0,78.0,57.0,133.0,133.0,57.0,4.0,4.1,-202,-261,0,2,191,-281,649.4575412273407,649.4576251506805,649.460777759552,649.4715468883514,649.6196298599243,649.6196298599243,649.6196298599243,649.6196298599243,649.6196298599243,649.6196298599243,649.6196298599243,651.7360346317291,3,2.252272129058838,None,,,,,,,,,,,,,,,,,,185,1,2025-03-04_13h45.09.989,comp,2024.2.4,58.88684688985139,2025-03-04 13h45.17.997165 -0500,
92,92,0,filler_random,None,None,None,None,None,None,None,None,None,None,3,1.3554952144622803,None,,,,,0,0,0,0,0,92,92,135,651.752340555191,,,,,,,,,,,,,,,,,,,,,,,,,,,,,,,,,,,,,,,,,,,,,,,,,,,,,,,,,,,,,,,,,,,,,,,,,,,,,,,,,79.17685030236674,172.65750149290355,125.75481819729573,198.77935184679328,192.53922092502586,172.1401090414234,2.2,2.22,-282,276,0,-281,281,-289,651.7377822399139,651.737860918045,651.7410974502563,651.752340555191,651.9046783447266,651.9046783447266,651.9046783447266,651.9046783447266,651.9046783447266,651.9046783447266,651.9046783447266,653.122816324234,3,1.3554952144622803,None,,,,,,,,,,,,,,,,,,185,1,2025-03-04_13h45.09.989,comp,2024.2.4,58.88684688985139,2025-03-04 13h45.17.997165 -0500,
93,93,0,filler_random,None,None,None,None,None,None,None,None,None,None,2,2.9444403648376465,None,,,,,0,0,0,0,0,93,93,156,653.1398785114288,,,,,,,,,,,,,,,,,,,,,,,,,,,,,,,,,,,,,,,,,,,,,,,,,,,,,,,,,,,,,,,,,,,,,,,,,,,,,,,,,70.74972452754103,115.86799446795892,69.11052302341488,172.99466814996845,68.67279437964575,144.16600535204884,2.1,2.11,-240,269,0,254,255,-283,653.1249067783356,653.1249878406525,653.128472328186,653.1398785114288,653.2869000434875,653.2869000434875,653.2869000434875,653.2869000434875,653.2869000434875,653.2869000434875,653.2869000434875,656.0948252677917,2,2.9444403648376465,None,,,,,,,,,,,,,,,,,,185,1,2025-03-04_13h45.09.989,comp,2024.2.4,58.88684688985139,2025-03-04 13h45.17.997165 -0500,
94,94,0,critical,dhw,35.0,2.1,lower,70.0,70.0,133.0,57.0,57.0,133.0,3,2.226353883743286,None,,,,,0,0,0,0,0,94,94,0,656.1142015457153,,,,,,,,,,,,,,,,,,,,,,,,,,,,,,,,,,,,,,,,,,,,,,,,,,,,,,,,,,,,,,,,,,,,,,,,,,,,,,,,,70.0,70.0,133.0,57.0,57.0,133.0,2.1,2.11,-160,272,0,254,191,-280,656.0963189601898,656.0963981151581,656.099241733551,656.1142015457153,656.2551074028015,656.2551074028015,656.2551074028015,656.2551074028015,656.2551074028015,656.2551074028015,656.2551074028015,658.3588809967041,3,2.226353883743286,None,,,,,,,,,,,,,,,,,,185,1,2025-03-04_13h45.09.989,comp,2024.2.4,58.88684688985139,2025-03-04 13h45.17.997165 -0500,
95,95,0,critical,whd,35.0,2.1,upper,125.0,200.0,200.0,125.0,127.0,127.0,1,8.317227125167847,None,,,,,0,0,0,0,0,95,95,13,658.3745763301849,,,,,,,,,,,,,,,,,,,,,,,,,,,,,,,,,,,,,,,,,,,,,,,,,,,,,,,,,,,,,,,,,,,,,,,,,,,,,,,,,125.0,200.0,200.0,125.0,127.0,127.0,2.1,2.12,-258,-275,0,-258,222,279,658.3606057167053,658.360737323761,658.3641986846924,658.3745763301849,658.5220901966095,658.5220901966095,658.5220901966095,658.5220901966095,658.5220901966095,658.5220901966095,658.5220901966095,666.7073295116425,1,8.317227125167847,None,,,,,,,,,,,,,,,,,,185,1,2025-03-04_13h45.09.989,comp,2024.2.4,58.88684688985139,2025-03-04 13h45.17.997165 -0500,
96,96,0,critical,wdh,20.0,4.0,lower,57.0,133.0,78.0,78.0,133.0,57.0,3,9.08107042312622,None,,,,,0,0,0,0,0,96,96,82,666.7235794067383,,,,,,,,,,,,,,,,,,,,,,,,,,,,,,,,,,,,,,,,,,,,,,,,,,,,,,,,,,,,,,,,,,,,,,,,,,,,,,,,,57.0,133.0,78.0,78.0,133.0,57.0,4.0,4.2,-202,3,0,-271,164,-18,666.7088024616241,666.7088811397552,666.7120909690857,666.7235794067383,666.8752195835114,666.8752195835114,666.8752195835114,666.8752195835114,666.8752195835114,666.8752195835114,666.8752195835114,675.812459230423,3,9.08107042312622,None,,,,,,,,,,,,,,,,,,185,1,2025-03-04_13h45.09.989,comp,2024.2.4,58.88684688985139,2025-03-04 13h45.17.997165 -0500,
97,97,0,critical,whd,20.0,4.0,lower,57.0,133.0,133.0,57.0,78.0,78.0,2,1.256903886795044,None,,,,,0,0,0,0,0,97,97,94,675.8281624317169,,,,,,,,,,,,,,,,,,,,,,,,,,,,,,,,,,,,,,,,,,,,,,,,,,,,,,,,,,,,,,,,,,,,,,,,,,,,,,,,,57.0,133.0,133.0,57.0,78.0,78.0,4.0,4.2,-191,-2,0,-276,164,-6,675.8139622211456,675.8140449523926,675.8171882629395,675.8281624317169,675.9761092662811,675.9761092662811,675.9761092662811,675.9761092662811,675.9761092662811,675.9761092662811,675.9761092662811,677.0955212116241,2,1.256903886795044,None,,,,,,,,,,,,,,,,,,185,1,2025-03-04_13h45.09.989,comp,2024.2.4,58.88684688985139,2025-03-04 13h45.17.997165 -0500,
98,98,0,critical,hdw,20.0,2.1,lower,133.0,57.0,78.0,78.0,57.0,133.0,3,1.965094804763794,None,,,,,0,0,0,0,0,98,98,22,677.1111631393433,,,,,,,,,,,,,,,,,,,,,,,,,,,,,,,,,,,,,,,,,,,,,,,,,,,,,,,,,,,,,,,,,,,,,,,,,,,,,,,,,133.0,57.0,78.0,78.0,57.0,133.0,2.1,2.11,-164,263,0,269,202,-264,677.0970256328583,677.0971281528473,677.1003441810608,677.1111631393433,677.259920835495,677.259920835495,677.259920835495,677.259920835495,677.259920835495,677.259920835495,677.259920835495,679.0948886871338,3,1.965094804763794,None,,,,,,,,,,,,,,,,,,185,1,2025-03-04_13h45.09.989,comp,2024.2.4,58.88684688985139,2025-03-04 13h45.17.997165 -0500,
99,99,0,filler_square,None,None,None,None,None,None,None,None,None,None,3,1.0809781551361084,None,,,,,0,0,0,0,0,99,99,208,679.115553855896,,,,,,,,,,,,,,,,,,,,,,,,,,,,,,,,,,,,,,,,,,,,,,,,,,,,,,,,,,,,,,,,,,,,,,,,,,,,,,,,,113.76097882356474,97.2266353845622,77.27579308513094,98.43276452386671,147.61627410526694,147.61627410526694,3.0,3.2,-194,-280,0,19,219,262,679.0969216823578,679.0970015525818,679.1005516052246,679.115553855896,679.2682549953461,679.2682549953461,679.2682549953461,679.2682549953461,679.2682549953461,679.2682549953461,679.2682549953461,680.1991455554962,3,1.0809781551361084,None,,,,,,,,,,,,,,,,,,185,1,2025-03-04_13h45.09.989,comp,2024.2.4,58.88684688985139,2025-03-04 13h45.17.997165 -0500,
100,100,0,catch,None,None,None,None,None,None,None,None,None,None,1,1.2927665710449219,None,,,,,0,0,0,0,0,100,100,126,680.2158885002136,,,,,,,,,,,,,,,,,,,,,,,,,,,,,,,,,,,,,,,,,,,,,,,,,,,,,,,,,,,,,,,,,,,,,,,,,,,,,,,,,198,127,68,122,124,66,2.1,2.12,-220,-263,0,-288,190,285,680.2012441158295,680.2013528347015,680.204959154129,680.2158885002136,680.3655171394348,680.3655171394348,680.3655171394348,680.3655171394348,680.3655171394348,680.3655171394348,680.3655171394348,681.5114946365356,1,1.2927665710449219,None,,,,,,,,,,,,,,,,,,185,1,2025-03-04_13h45.09.989,comp,2024.2.4,58.88684688985139,2025-03-04 13h45.17.997165 -0500,
101,101,0,filler_square,None,None,None,None,None,None,None,None,None,None,2,1.395833969116211,None,,,,,0,0,0,0,0,101,101,193,681.5284695625305,,,,,,,,,,,,,,,,,,,,,,,,,,,,,,,,,,,,,,,,,,,,,,,,,,,,,,,,,,,,,,,,,,,,,,,,,,,,,,,,,152.8216974840072,158.78232175523647,174.27149590691693,174.27149590691693,62.11638720017006,156.25139736172514,1.0,1.1,-743,259,-480,265,-219,263,681.513439655304,681.5135278701782,681.5168213844299,681.5284695625305,681.6830539703369,681.6830539703369,681.6830539703369,681.6830539703369,681.6830539703369,681.6830539703369,681.6830539703369,682.9268448352814,2,1.395833969116211,None,,,,,,,,,,,,,,,,,,185,1,2025-03-04_13h45.09.989,comp,2024.2.4,58.88684688985139,2025-03-04 13h45.17.997165 -0500,
102,102,0,filler_random,None,None,None,None,None,None,None,None,None,None,2,1.7318170070648193,None,,,,,0,0,0,0,0,102,102,165,682.9447374343872,,,,,,,,,,,,,,,,,,,,,,,,,,,,,,,,,,,,,,,,,,,,,,,,,,,,,,,,,,,,,,,,,,,,,,,,,,,,,,,,,69.51014490327351,93.30158598795467,199.40853766759545,135.85480882392176,134.1443867523592,194.59801121560156,4.0,4.2,-211,2,0,-286,261,-3,682.9287793636322,682.928858757019,682.9320232868195,682.9447374343872,683.0957441329956,683.0957441329956,683.0957441329956,683.0957441329956,683.0957441329956,683.0957441329956,683.0957441329956,684.6872968673706,2,1.7318170070648193,None,,,,,,,,,,,,,,,,,,185,1,2025-03-04_13h45.09.989,comp,2024.2.4,58.88684688985139,2025-03-04 13h45.17.997165 -0500,
103,103,0,filler_random,None,None,None,None,None,None,None,None,None,None,1,1.4642066955566406,None,,,,,0,0,0,0,0,103,103,148,684.707715511322,,,,,,,,,,,,,,,,,,,,,,,,,,,,,,,,,,,,,,,,,,,,,,,,,,,,,,,,,,,,,,,,,,,,,,,,,,,,,,,,,133.3277024006692,195.11306734297403,76.11436555771141,78.96238716827673,76.13043978702595,77.48168256888619,2.1,2.12,-233,-279,0,-288,174,284,684.6889734268188,684.6890542507172,684.6919288635254,684.707715511322,684.8527193069458,684.8527193069458,684.8527193069458,684.8527193069458,684.8527193069458,684.8527193069458,684.8527193069458,686.1888608932495,1,1.4642066955566406,None,,,,,,,,,,,,,,,,,,185,1,2025-03-04_13h45.09.989,comp,2024.2.4,58.88684688985139,2025-03-04 13h45.17.997165 -0500,
104,104,0,filler_random,None,None,None,None,None,None,None,None,None,None,2,1.5013020038604736,None,,,,,0,0,0,0,0,104,104,133,686.2070038318634,,,,,,,,,,,,,,,,,,,,,,,,,,,,,,,,,,,,,,,,,,,,,,,,,,,,,,,,,,,,,,,,,,,,,,,,,,,,,,,,,70.32857643344971,174.8390094827264,94.26757818300554,183.71886527652674,71.12528672324075,72.47867796369715,2.1,2.12,-275,-255,0,-284,224,274,686.1905615329742,686.1906380653381,686.1935024261475,686.2070038318634,686.3455543518066,686.3455543518066,686.3455543518066,686.3455543518066,686.3455543518066,686.3455543518066,686.3455543518066,687.7154450416565,2,1.5013020038604736,None,,,,,,,,,,,,,,,,,,185,1,2025-03-04_13h45.09.989,comp,2024.2.4,58.88684688985139,2025-03-04 13h45.17.997165 -0500,
105,105,0,critical,wdh,35.0,2.1,upper,125.0,200.0,127.0,127.0,200.0,125.0,3,3.2382359504699707,None,,,,,0,0,0,0,0,105,105,9,687.7363278865814,,,,,,,,,,,,,,,,,,,,,,,,,,,,,,,,,,,,,,,,,,,,,,,,,,,,,,,,,,,,,,,,,,,,,,,,,,,,,,,,,125.0,200.0,127.0,127.0,200.0,125.0,2.1,2.11,-260,256,0,253,222,-252,687.7169394493103,687.7170174121857,687.7206063270569,687.7363278865814,687.8808903694153,687.8808903694153,687.8808903694153,687.8808903694153,687.8808903694153,687.8808903694153,687.8808903694153,690.9811460971832,3,3.2382359504699707,None,,,,,,,,,,,,,,,,,,185,1,2025-03-04_13h45.09.989,comp,2024.2.4,58.88684688985139,2025-03-04 13h45.17.997165 -0500,
106,106,0,filler_square,None,None,None,None,None,None,None,None,None,None,3,0.9895634651184082,None,,,,,0,0,0,0,0,106,106,200,690.9983179569244,,,,,,,,,,,,,,,,,,,,,,,,,,,,,,,,,,,,,,,,,,,,,,,,,,,,,,,,,,,,,,,,,,,,,,,,,,,,,,,,,121.99441230721867,58.60255589181746,68.96729623559791,125.40779263587925,133.05592064264363,133.05592064264363,3.0,3.2,-188,-280,0,6,225,270,690.9830451011658,690.983170747757,690.9864077568054,690.9983179569244,691.1501712799072,691.1501712799072,691.1501712799072,691.1501712799072,691.1501712799072,691.1501712799072,691.1501712799072,692.0084903240204,3,0.9895634651184082,None,,,,,,,,,,,,,,,,,,185,1,2025-03-04_13h45.09.989,comp,2024.2.4,58.88684688985139,2025-03-04 13h45.17.997165 -0500,
107,107,0,filler_random,None,None,None,None,None,None,None,None,None,None,2,1.8635077476501465,None,,,,,0,0,0,0,0,107,107,138,692.0284094810486,,,,,,,,,,,,,,,,,,,,,,,,,,,,,,,,,,,,,,,,,,,,,,,,,,,,,,,,,,,,,,,,,,,,,,,,,,,,,,,,,97.5803276211681,188.5526355174241,159.72424566599392,160.29381160529164,155.7161167445936,64.7444104531267,3.0,3.1,-270,282,0,-1,209,-258,692.010195016861,692.0102705955505,692.0131678581238,692.0284094810486,692.1731679439545,692.1731679439545,692.1731679439545,692.1731679439545,692.1731679439545,692.1731679439545,692.1731679439545,693.901248216629,2,1.8635077476501465,None,,,,,,,,,,,,,,,,,,185,1,2025-03-04_13h45.09.989,comp,2024.2.4,58.88684688985139,2025-03-04 13h45.17.997165 -0500,
108,108,0,critical,hdw,35.0,4.0,lower,133.0,57.0,70.0,70.0,57.0,133.0,3,6.93386697769165,None,,,,,0,0,0,0,0,108,108,112,693.9185721874237,,,,,,,,,,,,,,,,,,,,,,,,,,,,,,,,,,,,,,,,,,,,,,,,,,,,,,,,,,,,,,,,,,,,,,,,,,,,,,,,,133.0,57.0,70.0,70.0,57.0,133.0,4.0,4.2,-160,-15,0,-285,198,-9,693.903112411499,693.9032535552979,693.9067828655243,693.9185721874237,694.0675449371338,694.0675449371338,694.0675449371338,694.0675449371338,694.0675449371338,694.0675449371338,694.0675449371338,700.8591797351837,3,6.93386697769165,None,,,,,,,,,,,,,,,,,,185,1,2025-03-04_13h45.09.989,comp,2024.2.4,58.88684688985139,2025-03-04 13h45.17.997165 -0500,
109,109,0,filler_square,None,None,None,None,None,None,None,None,None,None,2,0.9024791717529297,None,,,,,0,0,0,0,0,109,109,186,700.8781938552856,,,,,,,,,,,,,,,,,,,,,,,,,,,,,,,,,,,,,,,,,,,,,,,,,,,,,,,,,,,,,,,,,,,,,,,,,,,,,,,,,94.69635885651229,86.03297001907654,176.3144294731154,176.3144294731154,111.00705180481378,60.37618336177235,3.0,3.2,-227,-281,0,-12,214,276,700.8610994815826,700.8611872196198,700.8644919395447,700.8781938552856,701.0190193653107,701.0190193653107,701.0190193653107,701.0190193653107,701.0190193653107,701.0190193653107,701.0190193653107,701.7881500720978,2,0.9024791717529297,None,,,,,,,,,,,,,,,,,,185,1,2025-03-04_13h45.09.989,comp,2024.2.4,58.88684688985139,2025-03-04 13h45.17.997165 -0500,
110,110,0,filler_square,None,None,None,None,None,None,None,None,None,None,2,2.56834077835083,None,,,,,0,0,0,0,0,110,110,198,701.8037939071655,,,,,,,,,,,,,,,,,,,,,,,,,,,,,,,,,,,,,,,,,,,,,,,,,,,,,,,,,,,,,,,,,,,,,,,,,,,,,,,,,71.73547311849046,96.80202170309714,99.45779445332292,99.45779445332292,74.70403973800407,97.95513236486173,4.0,4.1,-194,-263,0,7,195,-254,701.7902150154114,701.7903006076813,701.7932064533234,701.8037939071655,701.9503791332245,701.9503791332245,701.9503791332245,701.9503791332245,701.9503791332245,701.9503791332245,701.9503791332245,704.3745882511139,2,2.56834077835083,None,,,,,,,,,,,,,,,,,,185,1,2025-03-04_13h45.09.989,comp,2024.2.4,58.88684688985139,2025-03-04 13h45.17.997165 -0500,
111,111,0,filler_square,None,None,None,None,None,None,None,None,None,None,3,1.2643392086029053,None,,,,,0,0,0,0,0,111,111,199,704.395613193512,,,,,,,,,,,,,,,,,,,,,,,,,,,,,,,,,,,,,,,,,,,,,,,,,,,,,,,,,,,,,,,,,,,,,,,,,,,,,,,,,82.54178133122213,68.48115347463015,121.89904184384154,89.58606742551305,129.5622040636814,129.5622040636814,2.2,2.21,-175,-266,0,269,206,259,704.3765187263489,704.3766012191772,704.3797957897186,704.395613193512,704.5367212295532,704.5367212295532,704.5367212295532,704.5367212295532,704.5367212295532,704.5367212295532,704.5367212295532,705.6738848686218,3,1.2643392086029053,None,,,,,,,,,,,,,,,,,,185,1,2025-03-04_13h45.09.989,comp,2024.2.4,58.88684688985139,2025-03-04 13h45.17.997165 -0500,
112,112,0,critical,wdh,20.0,1.0,lower,57.0,133.0,78.0,78.0,133.0,57.0,1,2.538489818572998,None,,,,,0,0,0,0,0,112,112,78,705.6895639896393,,,,,,,,,,,,,,,,,,,,,,,,,,,,,,,,,,,,,,,,,,,,,,,,,,,,,,,,,,,,,,,,,,,,,,,,,,,,,,,,,57.0,133.0,78.0,78.0,133.0,57.0,1.0,1.2,-202,18,0,-1,164,18,705.6756708621979,705.6758091449738,705.6791422367096,705.6895639896393,705.842184305191,705.842184305191,705.842184305191,705.842184305191,705.842184305191,705.842184305191,705.842184305191,708.245609998703,1,2.538489818572998,None,,,,,,,,,,,,,,,,,,185,1,2025-03-04_13h45.09.989,comp,2024.2.4,58.88684688985139,2025-03-04 13h45.17.997165 -0500,
113,113,0,filler_square,None,None,None,None,None,None,None,None,None,None,1,3.3016269207000732,None,,,,,0,0,0,0,0,113,113,207,708.263209104538,,,,,,,,,,,,,,,,,,,,,,,,,,,,,,,,,,,,,,,,,,,,,,,,,,,,,,,,,,,,,,,,,,,,,,,,,,,,,,,,,198.1896105626925,198.1896105626925,96.72700566212907,167.32004414802222,149.68661242709956,188.6349718678253,4.0,4.1,-279,-253,0,-5,274,-283,708.2474002838135,708.2474789619446,708.2503848075867,708.263209104538,708.4046313762665,708.4046313762665,708.4046313762665,708.4046313762665,708.4046313762665,708.4046313762665,708.4046313762665,711.5724687576294,1,3.3016269207000732,None,,,,,,,,,,,,,,,,,,185,1,2025-03-04_13h45.09.989,comp,2024.2.4,58.88684688985139,2025-03-04 13h45.17.997165 -0500,
114,114,0,critical,dhw,20.0,1.0,upper,141.0,141.0,200.0,125.0,125.0,200.0,3,4.567829847335815,None,,,,,0,0,0,0,0,114,114,55,711.5882000923157,,,,,,,,,,,,,,,,,,,,,,,,,,,,,,,,,,,,,,,,,,,,,,,,,,,,,,,,,,,,,,,,,,,,,,,,,,,,,,,,,141.0,141.0,200.0,125.0,125.0,200.0,1.0,1.3,251,-266,480,-259,738,-283,711.5740435123444,711.574152469635,711.5774986743927,711.5882000923157,711.7377560138702,711.7377560138702,711.7377560138702,711.7377560138702,711.7377560138702,711.7377560138702,711.7377560138702,716.1762871742249,3,4.567829847335815,None,,,,,,,,,,,,,,,,,,185,1,2025-03-04_13h45.09.989,comp,2024.2.4,58.88684688985139,2025-03-04 13h45.17.997165 -0500,
115,115,0,catch,None,None,None,None,None,None,None,None,None,None,3,0.8270282745361328,None,,,,,0,0,0,0,0,115,115,120,716.1938378810883,,,,,,,,,,,,,,,,,,,,,,,,,,,,,,,,,,,,,,,,,,,,,,,,,,,,,,,,,,,,,,,,,,,,,,,,,,,,,,,,,125,65,101,89,183,142,1.0,1.1,-653,284,-480,281,-268,257,716.1784155368805,716.1785027980804,716.1814634799957,716.1938378810883,716.3405239582062,716.3405239582062,716.3405239582062,716.3405239582062,716.3405239582062,716.3405239582062,716.3405239582062,717.0252885818481,3,0.8270282745361328,None,,,,,,,,,,,,,,,,,,185,1,2025-03-04_13h45.09.989,comp,2024.2.4,58.88684688985139,2025-03-04 13h45.17.997165 -0500,
116,116,0,critical,hwd,35.0,4.0,lower,133.0,57.0,57.0,133.0,70.0,70.0,1,2.4026143550872803,None,,,,,0,0,0,0,0,116,116,100,717.0415019989014,,,,,,,,,,,,,,,,,,,,,,,,,,,,,,,,,,,,,,,,,,,,,,,,,,,,,,,,,,,,,,,,,,,,,,,,,,,,,,,,,133.0,57.0,57.0,133.0,70.0,70.0,4.0,4.1,-191,-285,0,11,198,-255,717.0267975330353,717.0268778800964,717.029972076416,717.0415019989014,717.1903655529022,717.1903655529022,717.1903655529022,717.1903655529022,717.1903655529022,717.1903655529022,717.1903655529022,719.4462652206421,1,2.4026143550872803,None,,,,,,,,,,,,,,,,,,185,1,2025-03-04_13h45.09.989,comp,2024.2.4,58.88684688985139,2025-03-04 13h45.17.997165 -0500,
117,117,0,filler_square,None,None,None,None,None,None,None,None,None,None,1,1.5265252590179443,None,,,,,0,0,0,0,0,117,117,176,719.4621801376343,,,,,,,,,,,,,,,,,,,,,,,,,,,,,,,,,,,,,,,,,,,,,,,,,,,,,,,,,,,,,,,,,,,,,,,,,,,,,,,,,192.05185186572638,192.05185186572638,70.13744739436822,112.55187059045707,77.43613169904329,117.5870314045761,2.2,2.22,-248,260,0,-259,211,-256,719.4481434822083,719.4482595920563,719.4514055252075,719.4621801376343,719.6082859039307,719.6082859039307,719.6082859039307,719.6082859039307,719.6082859039307,719.6082859039307,719.6082859039307,720.9943461418152,1,1.5265252590179443,None,,,,,,,,,,,,,,,,,,185,1,2025-03-04_13h45.09.989,comp,2024.2.4,58.88684688985139,2025-03-04 13h45.17.997165 -0500,
118,118,0,critical,dhw,35.0,3.0,lower,70.0,70.0,133.0,57.0,57.0,133.0,2,1.7224113941192627,None,,,,,0,0,0,0,0,118,118,50,721.0100557804108,,,,,,,,,,,,,,,,,,,,,,,,,,,,,,,,,,,,,,,,,,,,,,,,,,,,,,,,,,,,,,,,,,,,,,,,,,,,,,,,,70.0,70.0,133.0,57.0,57.0,133.0,3.0,3.2,-160,-285,0,-7,191,275,720.9959859848022,720.9960958957672,720.9993197917938,721.0100557804108,721.1581428050995,721.1581428050995,721.1581428050995,721.1581428050995,721.1581428050995,721.1581428050995,721.1581428050995,722.7417867183685,2,1.7224113941192627,None,,,,,,,,,,,,,,,,,,185,1,2025-03-04_13h45.09.989,comp,2024.2.4,58.88684688985139,2025-03-04 13h45.17.997165 -0500,
119,119,0,critical,dhw,20.0,2.1,lower,78.0,78.0,133.0,57.0,57.0,133.0,3,1.4501829147338867,None,,,,,0,0,0,0,0,119,119,26,722.7619116306305,,,,,,,,,,,,,,,,,,,,,,,,,,,,,,,,,,,,,,,,,,,,,,,,,,,,,,,,,,,,,,,,,,,,,,,,,,,,,,,,,78.0,78.0,133.0,57.0,57.0,133.0,2.1,2.11,-164,286,0,276,191,-257,722.7433829307556,722.7434628009796,722.7463684082031,722.7619116306305,722.909905910492,722.909905910492,722.909905910492,722.909905910492,722.909905910492,722.909905910492,722.909905910492,724.2264692783356,3,1.4501829147338867,None,,,,,,,,,,,,,,,,,,185,1,2025-03-04_13h45.09.989,comp,2024.2.4,58.88684688985139,2025-03-04 13h45.17.997165 -0500,
120,120,0,critical,dwh,35.0,3.0,upper,127.0,127.0,125.0,200.0,200.0,125.0,2,5.474033832550049,None,,,,,0,0,0,0,0,120,120,63,724.2424507141113,,,,,,,,,,,,,,,,,,,,,,,,,,,,,,,,,,,,,,,,,,,,,,,,,,,,,,,,,,,,,,,,,,,,,,,,,,,,,,,,,127.0,127.0,125.0,200.0,200.0,125.0,3.0,3.2,-260,-289,0,2,258,288,724.2280421257019,724.2281646728516,724.2321674823761,724.2424507141113,724.3953416347504,724.3953416347504,724.3953416347504,724.3953416347504,724.3953416347504,724.3953416347504,724.3953416347504,729.7347571849823,2,5.474033832550049,None,,,,,,,,,,,,,,,,,,185,1,2025-03-04_13h45.09.989,comp,2024.2.4,58.88684688985139,2025-03-04 13h45.17.997165 -0500,
121,121,0,critical,hdw,35.0,3.0,upper,200.0,125.0,127.0,127.0,125.0,200.0,3,3.6457951068878174,None,,,,,0,0,0,0,0,121,121,111,729.7502822875977,,,,,,,,,,,,,,,,,,,,,,,,,,,,,,,,,,,,,,,,,,,,,,,,,,,,,,,,,,,,,,,,,,,,,,,,,,,,,,,,,200.0,125.0,127.0,127.0,125.0,200.0,3.0,3.1,-222,272,0,9,260,-289,729.7364315986633,729.7365102767944,729.7397532463074,729.7502822875977,729.8983633518219,729.8983633518219,729.8983633518219,729.8983633518219,729.8983633518219,729.8983633518219,729.8983633518219,733.4124910831451,3,3.6457951068878174,None,,,,,,,,,,,,,,,,,,185,1,2025-03-04_13h45.09.989,comp,2024.2.4,58.88684688985139,2025-03-04 13h45.17.997165 -0500,
122,122,0,critical,whd,35.0,3.0,lower,57.0,133.0,133.0,57.0,70.0,70.0,2,2.9525327682495117,None,,,,,0,0,0,0,0,122,122,86,733.4278655052185,,,,,,,,,,,,,,,,,,,,,,,,,,,,,,,,,,,,,,,,,,,,,,,,,,,,,,,,,,,,,,,,,,,,,,,,,,,,,,,,,57.0,133.0,133.0,57.0,70.0,70.0,3.0,3.1,-191,278,0,2,160,-269,733.4140911102295,733.4141721725464,733.4175107479095,733.4278655052185,733.5690929889679,733.5690929889679,733.5690929889679,733.5690929889679,733.5690929889679,733.5690929889679,733.5690929889679,736.483747959137,2,2.9525327682495117,None,,,,,,,,,,,,,,,,,,185,1,2025-03-04_13h45.09.989,comp,2024.2.4,58.88684688985139,2025-03-04 13h45.17.997165 -0500,
123,123,0,critical,dhw,20.0,2.1,upper,141.0,141.0,200.0,125.0,125.0,200.0,2,2.5641274452209473,None,,,,,0,0,0,0,0,123,123,3,736.4966003894806,,,,,,,,,,,,,,,,,,,,,,,,,,,,,,,,,,,,,,,,,,,,,,,,,,,,,,,,,,,,,,,,,,,,,,,,,,,,,,,,,141.0,141.0,200.0,125.0,125.0,200.0,2.1,2.12,-229,-254,0,-280,258,260,736.4843173027039,736.4843480587006,736.4854276180267,736.4966003894806,736.6475687026978,736.6475687026978,736.6475687026978,736.6475687026978,736.6475687026978,736.6475687026978,736.6475687026978,739.0629599094391,2,2.5641274452209473,None,,,,,,,,,,,,,,,,,,185,1,2025-03-04_13h45.09.989,comp,2024.2.4,58.88684688985139,2025-03-04 13h45.17.997165 -0500,
124,124,0,critical,dwh,20.0,3.0,lower,78.0,78.0,57.0,133.0,133.0,57.0,2,4.829224586486816,None,,,,,0,0,0,0,0,124,124,68,739.0806488990784,,,,,,,,,,,,,,,,,,,,,,,,,,,,,,,,,,,,,,,,,,,,,,,,,,,,,,,,,,,,,,,,,,,,,,,,,,,,,,,,,78.0,78.0,57.0,133.0,133.0,57.0,3.0,3.2,-202,-279,0,10,191,287,739.0645649433136,739.0646440982819,739.0676488876343,739.0806488990784,739.217490196228,739.217490196228,739.217490196228,739.217490196228,739.217490196228,739.217490196228,739.217490196228,743.9157099723816,2,4.829224586486816,None,,,,,,,,,,,,,,,,,,185,1,2025-03-04_13h45.09.989,comp,2024.2.4,58.88684688985139,2025-03-04 13h45.17.997165 -0500,
125,125,0,filler_random,None,None,None,None,None,None,None,None,None,None,1,2.0228352546691895,None,,,,,0,0,0,0,0,125,125,141,743.9342062473297,,,,,,,,,,,,,,,,,,,,,,,,,,,,,,,,,,,,,,,,,,,,,,,,,,,,,,,,,,,,,,,,,,,,,,,,,,,,,,,,,161.98654184439397,196.9131468363919,158.35339292335254,114.87564308444779,122.22091394674304,186.9694257852318,3.0,3.1,-252,272,0,1,247,-252,743.9176404476166,743.9177196025848,743.920961856842,743.9342062473297,744.0830063819885,744.0830063819885,744.0830063819885,744.0830063819885,744.0830063819885,744.0830063819885,744.0830063819885,745.9669370651245,1,2.0228352546691895,None,,,,,,,,,,,,,,,,,,185,1,2025-03-04_13h45.09.989,comp,2024.2.4,58.88684688985139,2025-03-04 13h45.17.997165 -0500,
126,126,0,filler_square,None,None,None,None,None,None,None,None,None,None,2,1.117222547531128,None,,,,,0,0,0,0,0,126,126,189,745.9829618930817,,,,,,,,,,,,,,,,,,,,,,,,,,,,,,,,,,,,,,,,,,,,,,,,,,,,,,,,,,,,,,,,,,,,,,,,,,,,,,,,,60.52023420484556,131.12066250248432,178.62476847857715,178.62476847857715,90.15235734423953,167.34223584971102,2.1,2.11,-251,290,0,267,269,-252,745.9687430858612,745.9688243865967,745.9722399711609,745.9829618930817,746.130028963089,746.130028963089,746.130028963089,746.130028963089,746.130028963089,746.130028963089,746.130028963089,747.1025426387787,2,1.117222547531128,None,,,,,,,,,,,,,,,,,,185,1,2025-03-04_13h45.09.989,comp,2024.2.4,58.88684688985139,2025-03-04 13h45.17.997165 -0500,
127,127,0,critical,hwd,20.0,2.1,lower,133.0,57.0,57.0,133.0,78.0,78.0,1,3.9842121601104736,None,,,,,0,0,0,0,0,127,127,18,747.1238272190094,,,,,,,,,,,,,,,,,,,,,,,,,,,,,,,,,,,,,,,,,,,,,,,,,,,,,,,,,,,,,,,,,,,,,,,,,,,,,,,,,133.0,57.0,57.0,133.0,78.0,78.0,2.1,2.11,-191,286,0,266,202,-269,747.1043541431427,747.1044774055481,747.1078820228577,747.1238272190094,747.2664048671722,747.2664048671722,747.2664048671722,747.2664048671722,747.2664048671722,747.2664048671722,747.2664048671722,751.1231036186218,1,3.9842121601104736,None,,,,,,,,,,,,,,,,,,185,1,2025-03-04_13h45.09.989,comp,2024.2.4,58.88684688985139,2025-03-04 13h45.17.997165 -0500,
128,128,0,filler_square,None,None,None,None,None,None,None,None,None,None,3,2.57004714012146,None,,,,,0,0,0,0,0,128,128,183,751.1381413936615,,,,,,,,,,,,,,,,,,,,,,,,,,,,,,,,,,,,,,,,,,,,,,,,,,,,,,,,,,,,,,,,,,,,,,,,,,,,,,,,,57.060781725157675,57.060781725157675,57.05048360512618,57.0440294974,57.042679392664866,57.04840187136913,1.0,1.1,-633,258,-480,263,-327,254,751.1248950958252,751.1249761581421,751.1278519630432,751.1381413936615,751.2841665744781,751.2841665744781,751.2841665744781,751.2841665744781,751.2841665744781,751.2841665744781,751.2841665744781,753.7186131477356,3,2.57004714012146,None,,,,,,,,,,,,,,,,,,185,1,2025-03-04_13h45.09.989,comp,2024.2.4,58.88684688985139,2025-03-04 13h45.17.997165 -0500,
129,129,0,filler_random,None,None,None,None,None,None,None,None,None,None,1,6.100900173187256,None,,,,,0,0,0,0,0,129,129,160,753.7357549667358,,,,,,,,,,,,,,,,,,,,,,,,,,,,,,,,,,,,,,,,,,,,,,,,,,,,,,,,,,,,,,,,,,,,,,,,,,,,,,,,,108.70350002848811,146.24267087860872,78.06887969711778,83.13930038343821,115.473824178879,107.99846368098895,2.1,2.11,-211,269,0,278,192,-269,753.7204401493073,753.7205758094788,753.723878622055,753.7357549667358,753.8898990154266,753.8898990154266,753.8898990154266,753.8898990154266,753.8898990154266,753.8898990154266,753.8898990154266,759.8550372123718,1,6.100900173187256,None,,,,,,,,,,,,,,,,,,185,1,2025-03-04_13h45.09.989,comp,2024.2.4,58.88684688985139,2025-03-04 13h45.17.997165 -0500,
130,130,0,filler_square,None,None,None,None,None,None,None,None,None,None,2,1.141671895980835,None,,,,,0,0,0,0,0,130,130,194,759.8704605102539,,,,,,,,,,,,,,,,,,,,,,,,,,,,,,,,,,,,,,,,,,,,,,,,,,,,,,,,,,,,,,,,,,,,,,,,,,,,,,,,,105.36052339551622,119.65184451268968,165.79436484890212,165.79436484890212,79.81055044634546,141.31185530274627,1.0,1.2,-239,-8,0,9,250,16,759.8569173812866,759.8569958209991,759.8600518703461,759.8704605102539,760.0238337516785,760.0238337516785,760.0238337516785,760.0238337516785,760.0238337516785,760.0238337516785,760.0238337516785,761.0228796005249,2,1.141671895980835,None,,,,,,,,,,,,,,,,,,185,1,2025-03-04_13h45.09.989,comp,2024.2.4,58.88684688985139,2025-03-04 13h45.17.997165 -0500,
131,131,0,critical,wdh,35.0,2.1,upper,125.0,200.0,127.0,127.0,200.0,125.0,1,2.725867986679077,None,,,,,0,0,0,0,0,131,131,33,761.0389568805695,,,,,,,,,,,,,,,,,,,,,,,,,,,,,,,,,,,,,,,,,,,,,,,,,,,,,,,,,,,,,,,,,,,,,,,,,,,,,,,,,125.0,200.0,127.0,127.0,200.0,125.0,2.1,2.12,-260,-286,0,-252,222,284,761.0244772434235,761.0246059894562,761.0277991294861,761.0389568805695,761.1911513805389,761.1911513805389,761.1911513805389,761.1911513805389,761.1911513805389,761.1911513805389,761.1911513805389,763.7721977233887,1,2.725867986679077,None,,,,,,,,,,,,,,,,,,185,1,2025-03-04_13h45.09.989,comp,2024.2.4,58.88684688985139,2025-03-04 13h45.17.997165 -0500,
132,132,0,critical,hwd,20.0,1.0,lower,133.0,57.0,57.0,133.0,78.0,78.0,1,6.7669713497161865,None,,,,,0,0,0,0,0,132,132,102,763.7893197536469,,,,,,,,,,,,,,,,,,,,,,,,,,,,,,,,,,,,,,,,,,,,,,,,,,,,,,,,,,,,,,,,,,,,,,,,,,,,,,,,,133.0,57.0,57.0,133.0,78.0,78.0,1.0,1.3,289,-283,480,-268,682,-251,763.7738502025604,763.7739810943604,763.7772200107574,763.7893197536469,763.941516160965,763.941516160965,763.941516160965,763.941516160965,763.941516160965,763.941516160965,763.941516160965,770.5602660179138,1,6.7669713497161865,None,,,,,,,,,,,,,,,,,,185,1,2025-03-04_13h45.09.989,comp,2024.2.4,58.88684688985139,2025-03-04 13h45.17.997165 -0500,
133,133,0,filler_square,None,None,None,None,None,None,None,None,None,None,1,3.444021701812744,None,,,,,0,0,0,0,0,133,133,173,770.5766170024872,,,,,,,,,,,,,,,,,,,,,,,,,,,,,,,,,,,,,,,,,,,,,,,,,,,,,,,,,,,,,,,,,,,,,,,,,,,,,,,,,131.43124381588044,131.43124381588044,74.23537543731841,118.10076373876834,125.75033442527243,116.31487875569061,2.2,2.21,-221,-253,0,270,213,276,770.5623631477356,770.5624468326569,770.5656182765961,770.5766170024872,770.7268588542938,770.7268588542938,770.7268588542938,770.7268588542938,770.7268588542938,770.7268588542938,770.7268588542938,774.0246529579163,1,3.444021701812744,None,,,,,,,,,,,,,,,,,,185,1,2025-03-04_13h45.09.989,comp,2024.2.4,58.88684688985139,2025-03-04 13h45.17.997165 -0500,
134,134,0,filler_random,None,None,None,None,None,None,None,None,None,None,1,1.6263978481292725,None,,,,,0,0,0,0,0,134,134,158,774.0417633056641,,,,,,,,,,,,,,,,,,,,,,,,,,,,,,,,,,,,,,,,,,,,,,,,,,,,,,,,,,,,,,,,,,,,,,,,,,,,,,,,,173.79296894476022,171.56632944616956,192.799964738517,95.94240578008177,86.07027591476204,197.5929055598225,3.0,3.1,-230,263,0,8,243,-282,774.0265607833862,774.0266418457031,774.0298326015472,774.0417633056641,774.1931395530701,774.1931395530701,774.1931395530701,774.1931395530701,774.1931395530701,774.1931395530701,774.1931395530701,775.680237531662,1,1.6263978481292725,None,,,,,,,,,,,,,,,,,,185,1,2025-03-04_13h45.09.989,comp,2024.2.4,58.88684688985139,2025-03-04 13h45.17.997165 -0500,
135,135,0,critical,hwd,20.0,1.0,upper,200.0,125.0,125.0,200.0,141.0,141.0,2,9.708547353744507,None,,,,,0,0,0,0,0,135,135,103,775.6964678764343,,,,,,,,,,,,,,,,,,,,,,,,,,,,,,,,,,,,,,,,,,,,,,,,,,,,,,,,,,,,,,,,,,,,,,,,,,,,,,,,,200.0,125.0,125.0,200.0,141.0,141.0,1.0,1.2,-258,-6,0,5,266,-6,775.681857585907,775.681937456131,775.6848123073578,775.6964678764343,775.8425407409668,775.8425407409668,775.8425407409668,775.8425407409668,775.8425407409668,775.8425407409668,775.8425407409668,785.4125392436981,2,9.708547353744507,None,,,,,,,,,,,,,,,,,,185,1,2025-03-04_13h45.09.989,comp,2024.2.4,58.88684688985139,2025-03-04 13h45.17.997165 -0500,
136,136,0,catch,None,None,None,None,None,None,None,None,None,None,1,1.2308349609375,None,,,,,0,0,0,0,0,136,136,129,785.4293711185455,,,,,,,,,,,,,,,,,,,,,,,,,,,,,,,,,,,,,,,,,,,,,,,,,,,,,,,,,,,,,,,,,,,,,,,,,,,,,,,,,130,195,95,95,76,114,4.0,4.1,-241,-255,0,1,200,-277,785.414544582367,785.4146282672882,785.4183669090271,785.4293711185455,785.5775325298309,785.5775325298309,785.5775325298309,785.5775325298309,785.5775325298309,785.5775325298309,785.5775325298309,786.6639041900635,1,1.2308349609375,None,,,,,,,,,,,,,,,,,,185,1,2025-03-04_13h45.09.989,comp,2024.2.4,58.88684688985139,2025-03-04 13h45.17.997165 -0500,
137,137,0,critical,dwh,20.0,4.0,upper,141.0,141.0,125.0,200.0,200.0,125.0,2,1.7653470039367676,None,,,,,0,0,0,0,0,137,137,71,786.6797723770142,,,,,,,,,,,,,,,,,,,,,,,,,,,,,,,,,,,,,,,,,,,,,,,,,,,,,,,,,,,,,,,,,,,,,,,,,,,,,,,,,141.0,141.0,125.0,200.0,200.0,125.0,4.0,4.2,-266,15,0,-253,258,1,786.6654486656189,786.6655342578888,786.6689291000366,786.6797723770142,786.816469669342,786.816469669342,786.816469669342,786.816469669342,786.816469669342,786.816469669342,786.816469669342,788.4482307434082,2,1.7653470039367676,None,,,,,,,,,,,,,,,,,,185,1,2025-03-04_13h45.09.989,comp,2024.2.4,58.88684688985139,2025-03-04 13h45.17.997165 -0500,
138,138,0,critical,dwh,35.0,2.1,lower,70.0,70.0,57.0,133.0,133.0,57.0,2,3.4833900928497314,None,,,,,0,0,0,0,0,138,138,28,788.4648087024689,,,,,,,,,,,,,,,,,,,,,,,,,,,,,,,,,,,,,,,,,,,,,,,,,,,,,,,,,,,,,,,,,,,,,,,,,,,,,,,,,70.0,70.0,57.0,133.0,133.0,57.0,2.1,2.12,-198,-263,0,-283,191,261,788.4499549865723,788.4500393867493,788.453910112381,788.4648087024689,788.6155698299408,788.6155698299408,788.6155698299408,788.6155698299408,788.6155698299408,788.6155698299408,788.6155698299408,791.9502279758453,2,3.4833900928497314,None,,,,,,,,,,,,,,,,,,185,1,2025-03-04_13h45.09.989,comp,2024.2.4,58.88684688985139,2025-03-04 13h45.17.997165 -0500,
139,139,0,filler_square,None,None,None,None,None,None,None,None,None,None,3,1.3096973896026611,None,,,,,0,0,0,0,0,139,139,206,791.967200756073,,,,,,,,,,,,,,,,,,,,,,,,,,,,,,,,,,,,,,,,,,,,,,,,,,,,,,,,,,,,,,,,,,,,,,,,,,,,,,,,,80.24524096325305,107.59117071368975,88.31376726584068,86.62672275011045,136.6920764813283,136.6920764813283,2.2,2.21,-193,-277,0,268,208,283,791.9523179531097,791.952401638031,791.9562246799469,791.967200756073,792.1203529834747,792.1203529834747,792.1203529834747,792.1203529834747,792.1203529834747,792.1203529834747,792.1203529834747,793.2947063446045,3,1.3096973896026611,None,,,,,,,,,,,,,,,,,,185,1,2025-03-04_13h45.09.989,comp,2024.2.4,58.88684688985139,2025-03-04 13h45.17.997165 -0500,
140,140,0,critical,dhw,35.0,1.0,lower,70.0,70.0,133.0,57.0,57.0,133.0,2,3.670100450515747,None,,,,,0,0,0,0,0,140,140,48,793.3109924793243,,,,,,,,,,,,,,,,,,,,,,,,,,,,,,,,,,,,,,,,,,,,,,,,,,,,,,,,,,,,,,,,,,,,,,,,,,,,,,,,,70.0,70.0,133.0,57.0,57.0,133.0,1.0,1.1,-640,279,-480,271,-289,277,793.2963969707489,793.2965281009674,793.2997550964355,793.3109924793243,793.449303150177,793.449303150177,793.449303150177,793.449303150177,793.449303150177,793.449303150177,793.449303150177,796.9868457317352,2,3.670100450515747,None,,,,,,,,,,,,,,,,,,185,1,2025-03-04_13h45.09.989,comp,2024.2.4,58.88684688985139,2025-03-04 13h45.17.997165 -0500,
