thisN,thisTrialN,thisRepN,effect,order,distance,config,diag,h_1,w_1,h_2,w_2,h_3,w_3,rect_choice.keys,rect_choice.rt,rect_choice.duration,instructions_loop.thisRepN,instructions_loop.thisTrialN,instructions_loop.thisN,instructions_loop.thisIndex,blocks.thisRepN,blocks.thisTrialN,blocks.thisN,blocks.thisIndex,trials.thisRepN,trials.thisTrialN,trials.thisN,trials.thisIndex,thisRow.t,notes,consent.started,agree_button.started,decline_button.started,consent_img.started,mouse.started,consent.stopped,agree_button.numClicks,agree_button.timesOn,agree_button.timesOff,decline_button.numClicks,decline_button.timesOn,decline_button.timesOff,mouse.x,mouse.y,mouse.leftButton,mouse.midButton,mouse.rightButton,mouse.time,mouse.clicked_name,exp_params.started,exp_params.stopped,welcome.started,welcome_text.started,welcome.stopped,instructions_1.started,instructions_1_text_1.started,instructions_1_text_2.started,key_resp.started,instructions_1.stopped,instructions_loop.key_resp.keys,instructions_loop.key_resp.rt,instructions_loop.key_resp.duration,instructions_2.started,instructions_2_text_1.started,instructions_2_text_2.started,key_resp_2.started,instructions_2.stopped,instructions_loop.key_resp_2.keys,instructions_loop.key_resp_2.rt,instructions_loop.key_resp_2.duration,instructions_3.started,instructions_3_text_1.started,r1_instr3.started,r2_instr3.started,r3_instr3.started,r1_instr3_label.started,r2_instr3_label.started,r3_instr3_label.started,instructions_3_text_3.started,instructions_3_text_4.started,key_resp_3.started,instructions_3.stopped,instructions_loop.key_resp_3.keys,instructions_loop.key_resp_3.rt,instructions_loop.key_resp_3.duration,instructions_4.started,instructions_4_text_1.started,instructions_4_text_3.started,instructions_4_text_2.started,key_resp_4.started,instructions_4.stopped,instructions_loop.key_resp_4.keys,instructions_loop.key_resp_4.rt,instructions_loop.key_resp_4.duration,instructions_5.started,instructions_5_text_1.started,instructions_5_text_2.started,key_resp_5.started,instructions_5.stopped,instructions_loop.key_resp_5.keys,instructions_loop.key_resp_5.rt,instructions_loop.key_resp_5.duration,start_exp.started,start_exp_text.started,key_resp_6.started,start_exp.stopped,key_resp_6.keys,key_resp_6.rt,key_resp_6.duration,h_1_tmp,w_1_tmp,h_2_tmp,w_2_tmp,h_3_tmp,w_3_tmp,config_tmp,config_tmp_1,r_1_x,r_1_y,r_2_x,r_2_y,r_3_x,r_3_y,pre_trial.started,pre_trial.stopped,choice_trial.started,rect_choice.started,r_1.started,r_2.started,r_3.started,r_1_label.started,r_2_label.started,r_3_label.started,prompt.started,choice_trial.stopped,trials.rect_choice.keys,trials.rect_choice.rt,trials.rect_choice.duration,end_block.started,end_block_text.started,end_block.stopped,end.started,end_text.started,key_resp_7.started,end.stopped,key_resp_7.keys,key_resp_7.rt,key_resp_7.duration,debriefing.started,debrief_form.started,end_debrief.started,debriefing.stopped,end_debrief.keys,end_debrief.rt,end_debrief.duration,participant,computer,date,expName,psychopyVersion,frameRate,expStart,
,,,,,,,,,,,,,,,,,,,,,,,,,,,,,,,0.01496577262878418,0.03165459632873535,0.03165459632873535,0.03165459632873535,0.01469564437866211,82.80270218849182,1,[82.76819229125977],[82.76821565628052],0,,,[-87.0],[-506.0],[1],[0],[0],[82.78710460662842],['agree_button'],,,,,,,,,,,,,,,,,,,,,,,,,,,,,,,,,,,,,,,,,,,,,,,,,,,,,,,,,,,,,,,,,,,,,,,,,,,,,,,,,,,,,,,,,,,,,,,,,,,,,,,,,,,186,1,2025-03-04_14h48.56.176,comp,2024.2.4,57.714908466441365,2025-03-04 14h49.02.438234 -0500,
,,,,,,,,,,,,,,,,,,,,,,,,,,,,,,,,,,,,,,,,,,,,,,,,,,82.80327343940735,82.80334281921387,,,,,,,,,,,,,,,,,,,,,,,,,,,,,,,,,,,,,,,,,,,,,,,,,,,,,,,,,,,,,,,,,,,,,,,,,,,,,,,,,,,,,,,,,,,,,,,,,,,,,,,,,186,1,2025-03-04_14h48.56.176,comp,2024.2.4,57.714908466441365,2025-03-04 14h49.02.438234 -0500,
,,,,,,,,,,,,,,,,,,,,,,,,,,,,,,,,,,,,,,,,,,,,,,,,,,,,82.80340266227722,82.82241249084473,84.80656313896179,,,,,,,,,,,,,,,,,,,,,,,,,,,,,,,,,,,,,,,,,,,,,,,,,,,,,,,,,,,,,,,,,,,,,,,,,,,,,,,,,,,,,,,,,,,,,,,,,,,,,,186,1,2025-03-04_14h48.56.176,comp,2024.2.4,57.714908466441365,2025-03-04 14h49.02.438234 -0500,
0,0,0,,,,,,,,,,,,,,,0,0,0,0,,,,,,,,,84.82459378242493,,,,,,,,,,,,,,,,,,,,,,,,,,84.80752086639404,84.82459378242493,84.82459378242493,86.30493879318237,90.64072108268738,space,4.31507134437561,None,90.64087152481079,90.65630865097046,90.65630865097046,92.14255261421204,99.34364795684814,space,7.197179555892944,None,99.34380197525024,99.37225532531738,99.37225532531738,99.37225532531738,99.37225532531738,99.37225532531738,99.37225532531738,99.37225532531738,99.37225532531738,99.37225532531738,100.83969378471375,109.02972531318665,space,8.180427312850952,None,109.02987909317017,109.04998397827148,109.04998397827148,109.04998397827148,110.52581357955933,118.18293714523315,space,7.653974771499634,None,118.18309187889099,118.1985023021698,118.1985023021698,119.69860553741455,121.16603922843933,space,1.465433120727539,None,121.16627097129822,121.1815836429596,121.1815836429596,123.41589736938477,space,2.222144603729248,None,,,,,,,,,,,,,,,,,,,,,,,,,,,,,,,,,,,,,,,,,,,,,,,186,1,2025-03-04_14h48.56.176,comp,2024.2.4,57.714908466441365,2025-03-04 14h49.02.438234 -0500,
0,0,0,critical,wdh,35.0,2.1,upper,125.0,200.0,127.0,127.0,200.0,125.0,1,4.08447527885437,None,,,,,0,0,0,0,0,0,0,9,123.4955701828003,,,,,,,,,,,,,,,,,,,,,,,,,,,,,,,,,,,,,,,,,,,,,,,,,,,,,,,,,,,,,,,,,,,,,,,,,,,,,,,,,125.0,200.0,127.0,127.0,200.0,125.0,2.1,2.11,-260,268,0,256,222,-282,123.47882890701294,123.47887635231018,123.48056602478027,123.4955701828003,123.64517188072205,123.64517188072205,123.64517188072205,123.64517188072205,123.64517188072205,123.64517188072205,123.64517188072205,127.58454513549805,1,4.08447527885437,None,,,,,,,,,,,,,,,,,,186,1,2025-03-04_14h48.56.176,comp,2024.2.4,57.714908466441365,2025-03-04 14h49.02.438234 -0500,
1,1,0,critical,hwd,20.0,4.0,lower,133.0,57.0,57.0,133.0,78.0,78.0,2,6.307524919509888,None,,,,,0,0,0,0,0,1,1,106,127.60057210922241,,,,,,,,,,,,,,,,,,,,,,,,,,,,,,,,,,,,,,,,,,,,,,,,,,,,,,,,,,,,,,,,,,,,,,,,,,,,,,,,,133.0,57.0,57.0,133.0,78.0,78.0,4.0,4.2,-191,17,0,-281,202,-19,127.58593821525574,127.58601212501526,127.58894157409668,127.60057210922241,127.75181293487549,127.75181293487549,127.75181293487549,127.75181293487549,127.75181293487549,127.75181293487549,127.75181293487549,133.9196548461914,2,6.307524919509888,None,,,,,,,,,,,,,,,,,,186,1,2025-03-04_14h48.56.176,comp,2024.2.4,57.714908466441365,2025-03-04 14h49.02.438234 -0500,
2,2,0,critical,wdh,20.0,1.0,lower,57.0,133.0,78.0,78.0,133.0,57.0,1,7.130255460739136,None,,,,,0,0,0,0,0,2,2,78,133.93782114982605,,,,,,,,,,,,,,,,,,,,,,,,,,,,,,,,,,,,,,,,,,,,,,,,,,,,,,,,,,,,,,,,,,,,,,,,,,,,,,,,,57.0,133.0,78.0,78.0,133.0,57.0,1.0,1.3,278,-277,480,-267,644,-288,133.92108941078186,133.92119765281677,133.92415857315063,133.93782114982605,134.0884554386139,134.0884554386139,134.0884554386139,134.0884554386139,134.0884554386139,134.0884554386139,134.0884554386139,141.07186913490295,1,7.130255460739136,None,,,,,,,,,,,,,,,,,,186,1,2025-03-04_14h48.56.176,comp,2024.2.4,57.714908466441365,2025-03-04 14h49.02.438234 -0500,
3,3,0,critical,hdw,35.0,1.0,lower,133.0,57.0,70.0,70.0,57.0,133.0,3,5.364336013793945,None,,,,,0,0,0,0,0,3,3,108,141.08805131912231,,,,,,,,,,,,,,,,,,,,,,,,,,,,,,,,,,,,,,,,,,,,,,,,,,,,,,,,,,,,,,,,,,,,,,,,,,,,,,,,,133.0,57.0,70.0,70.0,57.0,133.0,1.0,1.1,-640,251,-480,265,-282,267,141.07339930534363,141.0734739303589,141.07626724243164,141.08805131912231,141.22794699668884,141.22794699668884,141.22794699668884,141.22794699668884,141.22794699668884,141.22794699668884,141.22794699668884,146.45844435691833,3,5.364336013793945,None,,,,,,,,,,,,,,,,,,186,1,2025-03-04_14h48.56.176,comp,2024.2.4,57.714908466441365,2025-03-04 14h49.02.438234 -0500,
4,4,0,filler_square,None,None,None,None,None,None,None,None,None,None,2,3.857071876525879,None,,,,,0,0,0,0,0,4,4,186,146.47466707229614,,,,,,,,,,,,,,,,,,,,,,,,,,,,,,,,,,,,,,,,,,,,,,,,,,,,,,,,,,,,,,,,,,,,,,,,,,,,,,,,,69.59490517136169,75.2129553067265,104.80193939328136,104.80193939328136,69.4072172333088,98.05690841084817,2.1,2.11,-186,256,0,268,197,-258,146.4603202342987,146.4604513645172,146.4637861251831,146.47466707229614,146.63172459602356,146.63172459602356,146.63172459602356,146.63172459602356,146.63172459602356,146.63172459602356,146.63172459602356,150.34269523620605,2,3.857071876525879,None,,,,,,,,,,,,,,,,,,186,1,2025-03-04_14h48.56.176,comp,2024.2.4,57.714908466441365,2025-03-04 14h49.02.438234 -0500,
5,5,0,critical,hwd,20.0,2.1,upper,200.0,125.0,125.0,200.0,141.0,141.0,2,7.653318881988525,None,,,,,0,0,0,0,0,5,5,43,150.35895538330078,,,,,,,,,,,,,,,,,,,,,,,,,,,,,,,,,,,,,,,,,,,,,,,,,,,,,,,,,,,,,,,,,,,,,,,,,,,,,,,,,200.0,125.0,125.0,200.0,141.0,141.0,2.1,2.11,-258,275,0,284,266,-281,150.34432458877563,150.34442782402039,150.34802317619324,150.35895538330078,150.50980067253113,150.50980067253113,150.50980067253113,150.50980067253113,150.50980067253113,150.50980067253113,150.50980067253113,158.01565313339233,2,7.653318881988525,None,,,,,,,,,,,,,,,,,,186,1,2025-03-04_14h48.56.176,comp,2024.2.4,57.714908466441365,2025-03-04 14h49.02.438234 -0500,
6,6,0,filler_square,None,None,None,None,None,None,None,None,None,None,2,2.450352907180786,None,,,,,0,0,0,0,0,6,6,175,158.03514766693115,,,,,,,,,,,,,,,,,,,,,,,,,,,,,,,,,,,,,,,,,,,,,,,,,,,,,,,,,,,,,,,,,,,,,,,,,,,,,,,,,143.85741425491278,162.41027296326376,186.32080564754696,186.32080564754696,78.78805060255556,66.94981541783544,2.1,2.11,-270,252,0,277,223,-281,158.0174970626831,158.01757383346558,158.02046155929565,158.03514766693115,158.1791684627533,158.1791684627533,158.1791684627533,158.1791684627533,158.1791684627533,158.1791684627533,158.1791684627533,160.4965329170227,2,2.450352907180786,None,,,,,,,,,,,,,,,,,,186,1,2025-03-04_14h48.56.176,comp,2024.2.4,57.714908466441365,2025-03-04 14h49.02.438234 -0500,
7,7,0,critical,dhw,35.0,2.1,lower,70.0,70.0,133.0,57.0,57.0,133.0,3,5.075147390365601,None,,,,,0,0,0,0,0,7,7,24,160.51282787322998,,,,,,,,,,,,,,,,,,,,,,,,,,,,,,,,,,,,,,,,,,,,,,,,,,,,,,,,,,,,,,,,,,,,,,,,,,,,,,,,,70.0,70.0,133.0,57.0,57.0,133.0,2.1,2.12,-160,-266,0,-287,191,262,160.49800395965576,160.49807929992676,160.50205373764038,160.51282787322998,160.6624128818512,160.6624128818512,160.6624128818512,160.6624128818512,160.6624128818512,160.6624128818512,160.6624128818512,165.59754633903503,3,5.075147390365601,None,,,,,,,,,,,,,,,,,,186,1,2025-03-04_14h48.56.176,comp,2024.2.4,57.714908466441365,2025-03-04 14h49.02.438234 -0500,
8,8,0,critical,hdw,35.0,4.0,upper,200.0,125.0,127.0,127.0,125.0,200.0,1,3.676642417907715,None,,,,,0,0,0,0,0,8,8,113,165.6152024269104,,,,,,,,,,,,,,,,,,,,,,,,,,,,,,,,,,,,,,,,,,,,,,,,,,,,,,,,,,,,,,,,,,,,,,,,,,,,,,,,,200.0,125.0,127.0,127.0,125.0,200.0,4.0,4.1,-222,-274,0,11,260,-262,165.59905791282654,165.59915494918823,165.602290391922,165.6152024269104,165.7523808479309,165.7523808479309,165.7523808479309,165.7523808479309,165.7523808479309,165.7523808479309,165.7523808479309,169.30173206329346,1,3.676642417907715,None,,,,,,,,,,,,,,,,,,186,1,2025-03-04_14h48.56.176,comp,2024.2.4,57.714908466441365,2025-03-04 14h49.02.438234 -0500,
9,9,0,filler_random,None,None,None,None,None,None,None,None,None,None,3,4.701116323471069,None,,,,,0,0,0,0,0,9,9,131,169.31880497932434,,,,,,,,,,,,,,,,,,,,,,,,,,,,,,,,,,,,,,,,,,,,,,,,,,,,,,,,,,,,,,,,,,,,,,,,,,,,,,,,,86.44484376263874,199.90739761424598,114.40625941960931,105.14044067371191,98.95587752945639,174.96710718159693,2.2,2.21,-249,-290,0,266,236,287,169.30374193191528,169.3038206100464,169.3070878982544,169.31880497932434,169.46451115608215,169.46451115608215,169.46451115608215,169.46451115608215,169.46451115608215,169.46451115608215,169.46451115608215,174.0409815311432,3,4.701116323471069,None,,,,,,,,,,,,,,,,,,186,1,2025-03-04_14h48.56.176,comp,2024.2.4,57.714908466441365,2025-03-04 14h49.02.438234 -0500,
10,10,0,filler_random,None,None,None,None,None,None,None,None,None,None,2,2.8643083572387695,None,,,,,0,0,0,0,0,10,10,132,174.05954265594482,,,,,,,,,,,,,,,,,,,,,,,,,,,,,,,,,,,,,,,,,,,,,,,,,,,,,,,,,,,,,,,,,,,,,,,,,,,,,,,,,72.96587507753506,187.6263184546801,156.20147383210275,135.17157488632012,71.86308821312501,102.03705416870153,2.2,2.22,-257,259,0,-267,215,-260,174.0427165031433,174.04279017448425,174.04561758041382,174.05954265594482,174.2000036239624,174.2000036239624,174.2000036239624,174.2000036239624,174.2000036239624,174.2000036239624,174.2000036239624,176.93450927734375,2,2.8643083572387695,None,,,,,,,,,,,,,,,,,,186,1,2025-03-04_14h48.56.176,comp,2024.2.4,57.714908466441365,2025-03-04 14h49.02.438234 -0500,
11,11,0,critical,dhw,35.0,4.0,lower,70.0,70.0,133.0,57.0,57.0,133.0,2,3.804412841796875,None,,,,,0,0,0,0,0,11,11,52,176.95156025886536,,,,,,,,,,,,,,,,,,,,,,,,,,,,,,,,,,,,,,,,,,,,,,,,,,,,,,,,,,,,,,,,,,,,,,,,,,,,,,,,,70.0,70.0,133.0,57.0,57.0,133.0,4.0,4.2,-160,4,0,-260,191,-15,176.93617701530457,176.9362714290619,176.93979358673096,176.95156025886536,177.09955024719238,177.09955024719238,177.09955024719238,177.09955024719238,177.09955024719238,177.09955024719238,177.09955024719238,180.7701439857483,2,3.804412841796875,None,,,,,,,,,,,,,,,,,,186,1,2025-03-04_14h48.56.176,comp,2024.2.4,57.714908466441365,2025-03-04 14h49.02.438234 -0500,
12,12,0,catch,None,None,None,None,None,None,None,None,None,None,2,2.7607481479644775,None,,,,,0,0,0,0,0,12,12,128,180.78789377212524,,,,,,,,,,,,,,,,,,,,,,,,,,,,,,,,,,,,,,,,,,,,,,,,,,,,,,,,,,,,,,,,,,,,,,,,,,,,,,,,,112,78,192,133,120,70,3.0,3.1,-202,286,0,-1,198,-284,180.77209639549255,180.77225255966187,180.77527523040771,180.78789377212524,180.93549394607544,180.93549394607544,180.93549394607544,180.93549394607544,180.93549394607544,180.93549394607544,180.93549394607544,183.55343675613403,2,2.7607481479644775,None,,,,,,,,,,,,,,,,,,186,1,2025-03-04_14h48.56.176,comp,2024.2.4,57.714908466441365,2025-03-04 14h49.02.438234 -0500,
13,13,0,critical,whd,35.0,2.1,lower,57.0,133.0,133.0,57.0,70.0,70.0,1,4.604125738143921,None,,,,,0,0,0,0,0,13,13,12,183.567852973938,,,,,,,,,,,,,,,,,,,,,,,,,,,,,,,,,,,,,,,,,,,,,,,,,,,,,,,,,,,,,,,,,,,,,,,,,,,,,,,,,57.0,133.0,133.0,57.0,70.0,70.0,2.1,2.11,-191,290,0,252,160,-289,183.5550525188446,183.5551791191101,183.55836129188538,183.567852973938,183.72245478630066,183.72245478630066,183.72245478630066,183.72245478630066,183.72245478630066,183.72245478630066,183.72245478630066,188.18979406356812,1,4.604125738143921,None,,,,,,,,,,,,,,,,,,186,1,2025-03-04_14h48.56.176,comp,2024.2.4,57.714908466441365,2025-03-04 14h49.02.438234 -0500,
14,14,0,catch,None,None,None,None,None,None,None,None,None,None,1,1.8306450843811035,None,,,,,0,0,0,0,0,14,14,120,188.20528507232666,,,,,,,,,,,,,,,,,,,,,,,,,,,,,,,,,,,,,,,,,,,,,,,,,,,,,,,,,,,,,,,,,,,,,,,,,,,,,,,,,141,184,130,60,132,58,2.2,2.21,-218,-271,0,268,155,256,188.191819190979,188.19189715385437,188.1950032711029,188.20528507232666,188.3613359928131,188.3613359928131,188.3613359928131,188.3613359928131,188.3613359928131,188.3613359928131,188.3613359928131,190.0386824607849,1,1.8306450843811035,None,,,,,,,,,,,,,,,,,,186,1,2025-03-04_14h48.56.176,comp,2024.2.4,57.714908466441365,2025-03-04 14h49.02.438234 -0500,
15,15,0,critical,dwh,20.0,2.1,upper,141.0,141.0,125.0,200.0,200.0,125.0,2,4.5812811851501465,None,,,,,0,0,0,0,0,15,15,7,190.05513715744019,,,,,,,,,,,,,,,,,,,,,,,,,,,,,,,,,,,,,,,,,,,,,,,,,,,,,,,,,,,,,,,,,,,,,,,,,,,,,,,,,141.0,141.0,125.0,200.0,200.0,125.0,2.1,2.12,-266,-272,0,-264,258,280,190.0401692390442,190.04024481773376,190.04358077049255,190.05513715744019,190.20504713058472,190.20504713058472,190.20504713058472,190.20504713058472,190.20504713058472,190.20504713058472,190.20504713058472,194.6395239830017,2,4.5812811851501465,None,,,,,,,,,,,,,,,,,,186,1,2025-03-04_14h48.56.176,comp,2024.2.4,57.714908466441365,2025-03-04 14h49.02.438234 -0500,
16,16,0,filler_random,None,None,None,None,None,None,None,None,None,None,1,2.3044662475585938,None,,,,,0,0,0,0,0,16,16,145,194.66007828712463,,,,,,,,,,,,,,,,,,,,,,,,,,,,,,,,,,,,,,,,,,,,,,,,,,,,,,,,,,,,,,,,,,,,,,,,,,,,,,,,,194.63724368412804,164.66368150917702,68.34259236971924,76.3491591441194,172.605446506176,117.49464667209551,2.2,2.21,-217,-274,0,261,193,268,194.64124035835266,194.64131665229797,194.64429020881653,194.66007828712463,194.8075520992279,194.8075520992279,194.8075520992279,194.8075520992279,194.8075520992279,194.8075520992279,194.8075520992279,196.97453594207764,1,2.3044662475585938,None,,,,,,,,,,,,,,,,,,186,1,2025-03-04_14h48.56.176,comp,2024.2.4,57.714908466441365,2025-03-04 14h49.02.438234 -0500,
17,17,0,critical,hwd,35.0,1.0,lower,133.0,57.0,57.0,133.0,70.0,70.0,1,5.949145793914795,None,,,,,0,0,0,0,0,17,17,96,196.99080729484558,,,,,,,,,,,,,,,,,,,,,,,,,,,,,,,,,,,,,,,,,,,,,,,,,,,,,,,,,,,,,,,,,,,,,,,,,,,,,,,,,133.0,57.0,57.0,133.0,70.0,70.0,1.0,1.1,-671,279,-480,257,-282,273,196.97605299949646,196.976149559021,196.9794476032257,196.99080729484558,197.14617705345154,197.14617705345154,197.14617705345154,197.14617705345154,197.14617705345154,197.14617705345154,197.14617705345154,202.94270849227905,1,5.949145793914795,None,,,,,,,,,,,,,,,,,,186,1,2025-03-04_14h48.56.176,comp,2024.2.4,57.714908466441365,2025-03-04 14h49.02.438234 -0500,
18,18,0,filler_square,None,None,None,None,None,None,None,None,None,None,1,3.157125473022461,None,,,,,0,0,0,0,0,18,18,203,202.95924925804138,,,,,,,,,,,,,,,,,,,,,,,,,,,,,,,,,,,,,,,,,,,,,,,,,,,,,,,,,,,,,,,,,,,,,,,,,,,,,,,,,147.52845725795362,147.52845725795362,87.93210256378791,67.98556196035088,101.61002253416714,122.97725849699825,2.1,2.11,-204,275,0,254,191,-258,202.9444978237152,202.94457721710205,202.94776701927185,202.95924925804138,203.09895157814026,203.09895157814026,203.09895157814026,203.09895157814026,203.09895157814026,203.09895157814026,203.09895157814026,206.12255859375,1,3.157125473022461,None,,,,,,,,,,,,,,,,,,186,1,2025-03-04_14h48.56.176,comp,2024.2.4,57.714908466441365,2025-03-04 14h49.02.438234 -0500,
19,19,0,critical,dhw,20.0,2.1,upper,141.0,141.0,200.0,125.0,125.0,200.0,2,4.841702222824097,None,,,,,0,0,0,0,0,19,19,27,206.13828492164612,,,,,,,,,,,,,,,,,,,,,,,,,,,,,,,,,,,,,,,,,,,,,,,,,,,,,,,,,,,,,,,,,,,,,,,,,,,,,,,,,141.0,141.0,200.0,125.0,125.0,200.0,2.1,2.12,-229,-272,0,-264,258,285,206.12417840957642,206.12425541877747,206.12747192382812,206.13828492164612,206.29079174995422,206.29079174995422,206.29079174995422,206.29079174995422,206.29079174995422,206.29079174995422,206.29079174995422,210.99450492858887,2,4.841702222824097,None,,,,,,,,,,,,,,,,,,186,1,2025-03-04_14h48.56.176,comp,2024.2.4,57.714908466441365,2025-03-04 14h49.02.438234 -0500,
20,20,0,critical,whd,35.0,1.0,upper,125.0,200.0,200.0,125.0,127.0,127.0,2,4.305518627166748,None,,,,,0,0,0,0,0,20,20,85,211.01043581962585,,,,,,,,,,,,,,,,,,,,,,,,,,,,,,,,,,,,,,,,,,,,,,,,,,,,,,,,,,,,,,,,,,,,,,,,,,,,,,,,,125.0,200.0,200.0,125.0,127.0,127.0,1.0,1.3,222,-275,480,-276,702,-282,210.99597835540771,210.99605202674866,210.99918746948242,211.01043581962585,211.15059661865234,211.15059661865234,211.15059661865234,211.15059661865234,211.15059661865234,211.15059661865234,211.15059661865234,215.32905435562134,2,4.305518627166748,None,,,,,,,,,,,,,,,,,,186,1,2025-03-04_14h48.56.176,comp,2024.2.4,57.714908466441365,2025-03-04 14h49.02.438234 -0500,
21,21,0,critical,hwd,20.0,4.0,upper,200.0,125.0,125.0,200.0,141.0,141.0,1,3.875332832336426,None,,,,,0,0,0,0,0,21,21,107,215.3447606563568,,,,,,,,,,,,,,,,,,,,,,,,,,,,,,,,,,,,,,,,,,,,,,,,,,,,,,,,,,,,,,,,,,,,,,,,,,,,,,,,,200.0,125.0,125.0,200.0,141.0,141.0,4.0,4.1,-258,-272,0,-7,266,-288,215.33058619499207,215.3306610584259,215.33347296714783,215.3447606563568,215.4854440689087,215.4854440689087,215.4854440689087,215.4854440689087,215.4854440689087,215.4854440689087,215.4854440689087,219.2295799255371,1,3.875332832336426,None,,,,,,,,,,,,,,,,,,186,1,2025-03-04_14h48.56.176,comp,2024.2.4,57.714908466441365,2025-03-04 14h49.02.438234 -0500,
22,22,0,filler_random,None,None,None,None,None,None,None,None,None,None,1,5.790163516998291,None,,,,,0,0,0,0,0,22,22,151,219.24587106704712,,,,,,,,,,,,,,,,,,,,,,,,,,,,,,,,,,,,,,,,,,,,,,,,,,,,,,,,,,,,,,,,,,,,,,,,,,,,,,,,,184.29657006070045,106.49280316182237,149.83999259136186,113.62420238469961,91.21895186162993,161.68101899121433,4.0,4.1,-206,-285,0,-5,234,-276,219.231281042099,219.2313551902771,219.23432636260986,219.24587106704712,219.39688777923584,219.39688777923584,219.39688777923584,219.39688777923584,219.39688777923584,219.39688777923584,219.39688777923584,225.04937982559204,1,5.790163516998291,None,,,,,,,,,,,,,,,,,,186,1,2025-03-04_14h48.56.176,comp,2024.2.4,57.714908466441365,2025-03-04 14h49.02.438234 -0500,
23,23,0,filler_random,None,None,None,None,None,None,None,None,None,None,1,2.7107994556427,None,,,,,0,0,0,0,0,23,23,146,225.069885969162,,,,,,,,,,,,,,,,,,,,,,,,,,,,,,,,,,,,,,,,,,,,,,,,,,,,,,,,,,,,,,,,,,,,,,,,,,,,,,,,,199.43057487551087,162.5885264667047,176.73647552750782,167.05231701656538,87.8003878588964,119.84739472650159,4.0,4.2,-261,-11,0,-275,239,-19,225.05124378204346,225.05132794380188,225.05476307868958,225.069885969162,225.21688556671143,225.21688556671143,225.21688556671143,225.21688556671143,225.21688556671143,225.21688556671143,225.21688556671143,227.78520369529724,1,2.7107994556427,None,,,,,,,,,,,,,,,,,,186,1,2025-03-04_14h48.56.176,comp,2024.2.4,57.714908466441365,2025-03-04 14h49.02.438234 -0500,
24,24,0,filler_square,None,None,None,None,None,None,None,None,None,None,1,2.6589760780334473,None,,,,,0,0,0,0,0,24,24,185,227.80191612243652,,,,,,,,,,,,,,,,,,,,,,,,,,,,,,,,,,,,,,,,,,,,,,,,,,,,,,,,,,,,,,,,,,,,,,,,,,,,,,,,,79.52891251712697,79.52891251712697,68.43158576326573,57.55206690596052,78.93863290001127,63.56401997398903,2.1,2.12,-165,-274,0,-274,157,284,227.78726410865784,227.78740119934082,227.7911627292633,227.80191612243652,227.95105075836182,227.95105075836182,227.95105075836182,227.95105075836182,227.95105075836182,227.95105075836182,227.95105075836182,230.4673764705658,1,2.6589760780334473,None,,,,,,,,,,,,,,,,,,186,1,2025-03-04_14h48.56.176,comp,2024.2.4,57.714908466441365,2025-03-04 14h49.02.438234 -0500,
25,25,0,critical,wdh,20.0,2.1,upper,125.0,200.0,141.0,141.0,200.0,125.0,1,8.184571981430054,None,,,,,0,0,0,0,0,25,25,11,230.4834201335907,,,,,,,,,,,,,,,,,,,,,,,,,,,,,,,,,,,,,,,,,,,,,,,,,,,,,,,,,,,,,,,,,,,,,,,,,,,,,,,,,125.0,200.0,141.0,141.0,200.0,125.0,2.1,2.11,-266,262,0,262,229,-273,230.46899962425232,230.469074010849,230.4724042415619,230.4834201335907,230.63673281669617,230.63673281669617,230.63673281669617,230.63673281669617,230.63673281669617,230.63673281669617,230.63673281669617,238.67047357559204,1,8.184571981430054,None,,,,,,,,,,,,,,,,,,186,1,2025-03-04_14h48.56.176,comp,2024.2.4,57.714908466441365,2025-03-04 14h49.02.438234 -0500,
26,26,0,filler_square,None,None,None,None,None,None,None,None,None,None,1,1.8057246208190918,None,,,,,0,0,0,0,0,26,26,182,238.68704438209534,,,,,,,,,,,,,,,,,,,,,,,,,,,,,,,,,,,,,,,,,,,,,,,,,,,,,,,,,,,,,,,,,,,,,,,,,,,,,,,,,184.0367041030977,184.0367041030977,98.80604500872326,148.91609782978253,167.19042447541048,59.7816263261781,1.0,1.3,218,-284,480,-256,680,-270,238.67259001731873,238.6726677417755,238.67606282234192,238.68704438209534,238.84429574012756,238.84429574012756,238.84429574012756,238.84429574012756,238.84429574012756,238.84429574012756,238.84429574012756,240.51051592826843,1,1.8057246208190918,None,,,,,,,,,,,,,,,,,,186,1,2025-03-04_14h48.56.176,comp,2024.2.4,57.714908466441365,2025-03-04 14h49.02.438234 -0500,
27,27,0,filler_random,None,None,None,None,None,None,None,None,None,None,2,2.8683972358703613,None,,,,,0,0,0,0,0,27,27,137,240.52771496772766,,,,,,,,,,,,,,,,,,,,,,,,,,,,,,,,,,,,,,,,,,,,,,,,,,,,,,,,,,,,,,,,,,,,,,,,,,,,,,,,,81.15603965640352,136.42702556382096,146.1537264498777,160.6460767261309,118.1130398946813,59.36103841954335,3.0,3.2,-245,-280,0,-12,206,254,240.51219844818115,240.51227402687073,240.5150601863861,240.52771496772766,240.67219710350037,240.67219710350037,240.67219710350037,240.67219710350037,240.67219710350037,240.67219710350037,240.67219710350037,243.39899230003357,2,2.8683972358703613,None,,,,,,,,,,,,,,,,,,186,1,2025-03-04_14h48.56.176,comp,2024.2.4,57.714908466441365,2025-03-04 14h49.02.438234 -0500,
28,28,0,critical,whd,20.0,3.0,upper,125.0,200.0,200.0,125.0,141.0,141.0,1,3.827287435531616,None,,,,,0,0,0,0,0,28,28,93,243.41900753974915,,,,,,,,,,,,,,,,,,,,,,,,,,,,,,,,,,,,,,,,,,,,,,,,,,,,,,,,,,,,,,,,,,,,,,,,,,,,,,,,,125.0,200.0,200.0,125.0,141.0,141.0,3.0,3.1,-258,278,0,5,229,-267,243.40044689178467,243.40053868293762,243.4033432006836,243.41900753974915,243.5551836490631,243.5551836490631,243.5551836490631,243.5551836490631,243.5551836490631,243.5551836490631,243.5551836490631,247.25403928756714,1,3.827287435531616,None,,,,,,,,,,,,,,,,,,186,1,2025-03-04_14h48.56.176,comp,2024.2.4,57.714908466441365,2025-03-04 14h49.02.438234 -0500,
29,29,0,filler_random,None,None,None,None,None,None,None,None,None,None,1,2.1163156032562256,None,,,,,0,0,0,0,0,29,29,136,247.2719578742981,,,,,,,,,,,,,,,,,,,,,,,,,,,,,,,,,,,,,,,,,,,,,,,,,,,,,,,,,,,,,,,,,,,,,,,,,,,,,,,,,192.01667483174876,181.31746934083878,135.86687109307724,133.66986798518565,170.47441507422332,182.12332298006967,4.0,4.2,-253,19,0,-270,254,-18,247.25574922561646,247.25582671165466,247.2590606212616,247.2719578742981,247.40645956993103,247.40645956993103,247.40645956993103,247.40645956993103,247.40645956993103,247.40645956993103,247.40645956993103,249.39047002792358,1,2.1163156032562256,None,,,,,,,,,,,,,,,,,,186,1,2025-03-04_14h48.56.176,comp,2024.2.4,57.714908466441365,2025-03-04 14h49.02.438234 -0500,
30,30,0,filler_random,None,None,None,None,None,None,None,None,None,None,2,3.1299774646759033,None,,,,,0,0,0,0,0,30,30,144,249.41041254997253,,,,,,,,,,,,,,,,,,,,,,,,,,,,,,,,,,,,,,,,,,,,,,,,,,,,,,,,,,,,,,,,,,,,,,,,,,,,,,,,,108.58938956434628,97.44623111837687,94.0053858094791,197.06922737006857,71.58744555396115,186.63377080231047,3.0,3.2,-243,-268,0,14,288,269,249.3920862674713,249.39218974113464,249.39524388313293,249.41041254997253,249.55695128440857,249.55695128440857,249.55695128440857,249.55695128440857,249.55695128440857,249.55695128440857,249.55695128440857,252.55950593948364,2,3.1299774646759033,None,,,,,,,,,,,,,,,,,,186,1,2025-03-04_14h48.56.176,comp,2024.2.4,57.714908466441365,2025-03-04 14h49.02.438234 -0500,
31,31,0,critical,hdw,35.0,3.0,upper,200.0,125.0,127.0,127.0,125.0,200.0,1,2.6375646591186523,None,,,,,0,0,0,0,0,31,31,111,252.574702501297,,,,,,,,,,,,,,,,,,,,,,,,,,,,,,,,,,,,,,,,,,,,,,,,,,,,,,,,,,,,,,,,,,,,,,,,,,,,,,,,,200.0,125.0,127.0,127.0,125.0,200.0,3.0,3.2,-222,-278,0,-10,260,262,252.5610272884369,252.56110215187073,252.5644257068634,252.574702501297,252.7230486869812,252.7230486869812,252.7230486869812,252.7230486869812,252.7230486869812,252.7230486869812,252.7230486869812,255.22543215751648,1,2.6375646591186523,None,,,,,,,,,,,,,,,,,,186,1,2025-03-04_14h48.56.176,comp,2024.2.4,57.714908466441365,2025-03-04 14h49.02.438234 -0500,
32,32,0,critical,hwd,35.0,2.1,lower,133.0,57.0,57.0,133.0,70.0,70.0,1,3.511354446411133,None,,,,,0,0,0,0,0,32,32,16,255.24500036239624,,,,,,,,,,,,,,,,,,,,,,,,,,,,,,,,,,,,,,,,,,,,,,,,,,,,,,,,,,,,,,,,,,,,,,,,,,,,,,,,,133.0,57.0,57.0,133.0,70.0,70.0,2.1,2.12,-191,-272,0,-255,198,272,255.22690272331238,255.22697472572327,255.2300248146057,255.24500036239624,255.3972544670105,255.3972544670105,255.3972544670105,255.3972544670105,255.3972544670105,255.3972544670105,255.3972544670105,258.76057267189026,1,3.511354446411133,None,,,,,,,,,,,,,,,,,,186,1,2025-03-04_14h48.56.176,comp,2024.2.4,57.714908466441365,2025-03-04 14h49.02.438234 -0500,
33,33,0,filler_square,None,None,None,None,None,None,None,None,None,None,3,1.7869658470153809,None,,,,,0,0,0,0,0,33,33,194,258.7772972583771,,,,,,,,,,,,,,,,,,,,,,,,,,,,,,,,,,,,,,,,,,,,,,,,,,,,,,,,,,,,,,,,,,,,,,,,,,,,,,,,,93.70716491505348,88.92490305555171,120.91392927984788,82.51685786629291,122.64737197949975,122.64737197949975,1.0,1.2,-182,-4,0,12,199,5,258.76236629486084,258.7624430656433,258.7665328979492,258.7772972583771,258.9248859882355,258.9248859882355,258.9248859882355,258.9248859882355,258.9248859882355,258.9248859882355,258.9248859882355,260.5778126716614,3,1.7869658470153809,None,,,,,,,,,,,,,,,,,,186,1,2025-03-04_14h48.56.176,comp,2024.2.4,57.714908466441365,2025-03-04 14h49.02.438234 -0500,
34,34,0,critical,hwd,20.0,2.1,lower,133.0,57.0,57.0,133.0,78.0,78.0,1,5.763427734375,None,,,,,0,0,0,0,0,34,34,18,260.5931992530823,,,,,,,,,,,,,,,,,,,,,,,,,,,,,,,,,,,,,,,,,,,,,,,,,,,,,,,,,,,,,,,,,,,,,,,,,,,,,,,,,133.0,57.0,57.0,133.0,78.0,78.0,2.1,2.12,-191,-288,0,-280,202,280,260.57948207855225,260.5795567035675,260.58287143707275,260.5931992530823,260.7425768375397,260.7425768375397,260.7425768375397,260.7425768375397,260.7425768375397,260.7425768375397,260.7425768375397,266.3635265827179,1,5.763427734375,None,,,,,,,,,,,,,,,,,,186,1,2025-03-04_14h48.56.176,comp,2024.2.4,57.714908466441365,2025-03-04 14h49.02.438234 -0500,
35,35,0,critical,dhw,20.0,2.1,lower,78.0,78.0,133.0,57.0,57.0,133.0,3,2.6248226165771484,None,,,,,0,0,0,0,0,35,35,2,266.37992453575134,,,,,,,,,,,,,,,,,,,,,,,,,,,,,,,,,,,,,,,,,,,,,,,,,,,,,,,,,,,,,,,,,,,,,,,,,,,,,,,,,78.0,78.0,133.0,57.0,57.0,133.0,2.1,2.12,-164,-259,0,-288,191,267,266.36520624160767,266.365282535553,266.36897563934326,266.37992453575134,266.5295820236206,266.5295820236206,266.5295820236206,266.5295820236206,266.5295820236206,266.5295820236206,266.5295820236206,269.01238441467285,3,2.6248226165771484,None,,,,,,,,,,,,,,,,,,186,1,2025-03-04_14h48.56.176,comp,2024.2.4,57.714908466441365,2025-03-04 14h49.02.438234 -0500,
36,36,0,critical,wdh,20.0,2.1,upper,125.0,200.0,141.0,141.0,200.0,125.0,1,5.124643325805664,None,,,,,0,0,0,0,0,36,36,35,269.03149151802063,,,,,,,,,,,,,,,,,,,,,,,,,,,,,,,,,,,,,,,,,,,,,,,,,,,,,,,,,,,,,,,,,,,,,,,,,,,,,,,,,125.0,200.0,141.0,141.0,200.0,125.0,2.1,2.11,-266,264,0,282,229,-255,269.0138192176819,269.0138955116272,269.01676416397095,269.03149151802063,269.17962646484375,269.17962646484375,269.17962646484375,269.17962646484375,269.17962646484375,269.17962646484375,269.17962646484375,274.1715929508209,1,5.124643325805664,None,,,,,,,,,,,,,,,,,,186,1,2025-03-04_14h48.56.176,comp,2024.2.4,57.714908466441365,2025-03-04 14h49.02.438234 -0500,
37,37,0,filler_square,None,None,None,None,None,None,None,None,None,None,3,2.2553672790527344,None,,,,,0,0,0,0,0,37,37,200,274.1889362335205,,,,,,,,,,,,,,,,,,,,,,,,,,,,,,,,,,,,,,,,,,,,,,,,,,,,,,,,,,,,,,,,,,,,,,,,,,,,,,,,,88.70474494645,96.07627506577154,80.60530110873202,90.00753933587953,104.39908111797455,104.39908111797455,4.0,4.2,-189,9,0,-269,193,-19,274.1733913421631,274.17346596717834,274.17630195617676,274.1889362335205,274.33196663856506,274.33196663856506,274.33196663856506,274.33196663856506,274.33196663856506,274.33196663856506,274.33196663856506,276.44866037368774,3,2.2553672790527344,None,,,,,,,,,,,,,,,,,,186,1,2025-03-04_14h48.56.176,comp,2024.2.4,57.714908466441365,2025-03-04 14h49.02.438234 -0500,
38,38,0,critical,dhw,35.0,2.1,upper,127.0,127.0,200.0,125.0,125.0,200.0,3,3.0179171562194824,None,,,,,0,0,0,0,0,38,38,25,276.4664032459259,,,,,,,,,,,,,,,,,,,,,,,,,,,,,,,,,,,,,,,,,,,,,,,,,,,,,,,,,,,,,,,,,,,,,,,,,,,,,,,,,127.0,127.0,200.0,125.0,125.0,200.0,2.1,2.12,-222,-278,0,-250,258,283,276.4501712322235,276.45024943351746,276.4533655643463,276.4664032459259,276.6135697364807,276.6135697364807,276.6135697364807,276.6135697364807,276.6135697364807,276.6135697364807,276.6135697364807,279.5009386539459,3,3.0179171562194824,None,,,,,,,,,,,,,,,,,,186,1,2025-03-04_14h48.56.176,comp,2024.2.4,57.714908466441365,2025-03-04 14h49.02.438234 -0500,
39,39,0,critical,whd,20.0,1.0,lower,57.0,133.0,133.0,57.0,78.0,78.0,2,2.616447925567627,None,,,,,0,0,0,0,0,39,39,90,279.5163447856903,,,,,,,,,,,,,,,,,,,,,,,,,,,,,,,,,,,,,,,,,,,,,,,,,,,,,,,,,,,,,,,,,,,,,,,,,,,,,,,,,57.0,133.0,133.0,57.0,78.0,78.0,1.0,1.3,289,-270,480,-269,644,-255,279.5024800300598,279.5025544166565,279.5059459209442,279.5163447856903,279.6716890335083,279.6716890335083,279.6716890335083,279.6716890335083,279.6716890335083,279.6716890335083,279.6716890335083,282.1385579109192,2,2.616447925567627,None,,,,,,,,,,,,,,,,,,186,1,2025-03-04_14h48.56.176,comp,2024.2.4,57.714908466441365,2025-03-04 14h49.02.438234 -0500,
40,40,0,filler_random,None,None,None,None,None,None,None,None,None,None,3,2.1776018142700195,None,,,,,0,0,0,0,0,40,40,156,282.154776096344,,,,,,,,,,,,,,,,,,,,,,,,,,,,,,,,,,,,,,,,,,,,,,,,,,,,,,,,,,,,,,,,,,,,,,,,,,,,,,,,,109.766124905218,152.64094555064875,100.74934797617212,192.20559316284584,180.05200472917272,157.82061055032375,1.0,1.2,-268,13,0,-10,271,-6,282.140337228775,282.1404137611389,282.1432435512543,282.154776096344,282.29890298843384,282.29890298843384,282.29890298843384,282.29890298843384,282.29890298843384,282.29890298843384,282.29890298843384,284.33650970458984,3,2.1776018142700195,None,,,,,,,,,,,,,,,,,,186,1,2025-03-04_14h48.56.176,comp,2024.2.4,57.714908466441365,2025-03-04 14h49.02.438234 -0500,
41,41,0,filler_square,None,None,None,None,None,None,None,None,None,None,3,2.115041732788086,None,,,,,0,0,0,0,0,41,41,172,284.3531701564789,,,,,,,,,,,,,,,,,,,,,,,,,,,,,,,,,,,,,,,,,,,,,,,,,,,,,,,,,,,,,,,,,,,,,,,,,,,,,,,,,69.21274502507212,89.23676601593021,104.3581703176578,139.019219797581,185.66752653440048,185.66752653440048,2.1,2.11,-210,267,0,284,258,-254,284.33836579322815,284.3384747505188,284.3414103984833,284.3531701564789,284.5016438961029,284.5016438961029,284.5016438961029,284.5016438961029,284.5016438961029,284.5016438961029,284.5016438961029,286.4850883483887,3,2.115041732788086,None,,,,,,,,,,,,,,,,,,186,1,2025-03-04_14h48.56.176,comp,2024.2.4,57.714908466441365,2025-03-04 14h49.02.438234 -0500,
42,42,0,critical,dhw,35.0,1.0,upper,127.0,127.0,200.0,125.0,125.0,200.0,2,2.3238589763641357,None,,,,,0,0,0,0,0,42,42,49,286.5044047832489,,,,,,,,,,,,,,,,,,,,,,,,,,,,,,,,,,,,,,,,,,,,,,,,,,,,,,,,,,,,,,,,,,,,,,,,,,,,,,,,,127.0,127.0,200.0,125.0,125.0,200.0,1.0,1.2,-222,2,0,15,258,0,286.4866361618042,286.48671078681946,286.48972749710083,286.5044047832489,286.65222454071045,286.65222454071045,286.65222454071045,286.65222454071045,286.65222454071045,286.65222454071045,286.65222454071045,288.84171652793884,2,2.3238589763641357,None,,,,,,,,,,,,,,,,,,186,1,2025-03-04_14h48.56.176,comp,2024.2.4,57.714908466441365,2025-03-04 14h49.02.438234 -0500,
43,43,0,critical,wdh,20.0,4.0,lower,57.0,133.0,78.0,78.0,133.0,57.0,3,6.843628406524658,None,,,,,0,0,0,0,0,43,43,82,288.8572211265564,,,,,,,,,,,,,,,,,,,,,,,,,,,,,,,,,,,,,,,,,,,,,,,,,,,,,,,,,,,,,,,,,,,,,,,,,,,,,,,,,57.0,133.0,78.0,78.0,133.0,57.0,4.0,4.1,-202,-273,0,-16,164,-267,288.8432340621948,288.843309879303,288.84614300727844,288.8572211265564,288.99983501434326,288.99983501434326,288.99983501434326,288.99983501434326,288.99983501434326,288.99983501434326,288.99983501434326,295.70765471458435,3,6.843628406524658,None,,,,,,,,,,,,,,,,,,186,1,2025-03-04_14h48.56.176,comp,2024.2.4,57.714908466441365,2025-03-04 14h49.02.438234 -0500,
44,44,0,critical,dwh,35.0,4.0,lower,70.0,70.0,57.0,133.0,133.0,57.0,2,3.2009048461914062,None,,,,,0,0,0,0,0,44,44,64,295.72377848625183,,,,,,,,,,,,,,,,,,,,,,,,,,,,,,,,,,,,,,,,,,,,,,,,,,,,,,,,,,,,,,,,,,,,,,,,,,,,,,,,,70.0,70.0,57.0,133.0,133.0,57.0,4.0,4.2,-198,13,0,-255,191,-8,295.7093858718872,295.70947313308716,295.7128531932831,295.72377848625183,295.8768548965454,295.8768548965454,295.8768548965454,295.8768548965454,295.8768548965454,295.8768548965454,295.8768548965454,298.9419729709625,2,3.2009048461914062,None,,,,,,,,,,,,,,,,,,186,1,2025-03-04_14h48.56.176,comp,2024.2.4,57.714908466441365,2025-03-04 14h49.02.438234 -0500,
45,45,0,critical,dwh,35.0,2.1,upper,127.0,127.0,125.0,200.0,200.0,125.0,2,3.6472878456115723,None,,,,,0,0,0,0,0,45,45,5,298.95736289024353,,,,,,,,,,,,,,,,,,,,,,,,,,,,,,,,,,,,,,,,,,,,,,,,,,,,,,,,,,,,,,,,,,,,,,,,,,,,,,,,,127.0,127.0,125.0,200.0,200.0,125.0,2.1,2.12,-260,-278,0,-285,258,282,298.9435963630676,298.94367003440857,298.94693207740784,298.95736289024353,299.10745000839233,299.10745000839233,299.10745000839233,299.10745000839233,299.10745000839233,299.10745000839233,299.10745000839233,302.60948753356934,2,3.6472878456115723,None,,,,,,,,,,,,,,,,,,186,1,2025-03-04_14h48.56.176,comp,2024.2.4,57.714908466441365,2025-03-04 14h49.02.438234 -0500,
46,46,0,filler_square,None,None,None,None,None,None,None,None,None,None,3,1.818375587463379,None,,,,,0,0,0,0,0,46,46,177,302.62592220306396,,,,,,,,,,,,,,,,,,,,,,,,,,,,,,,,,,,,,,,,,,,,,,,,,,,,,,,,,,,,,,,,,,,,,,,,,,,,,,,,,81.83059558170693,115.42023655774327,67.04099010301891,98.40712805873822,154.9036208697242,154.9036208697242,2.2,2.22,-203,259,0,-273,223,-250,302.6114754676819,302.61155343055725,302.6145091056824,302.62592220306396,302.7748680114746,302.7748680114746,302.7748680114746,302.7748680114746,302.7748680114746,302.7748680114746,302.7748680114746,304.45924711227417,3,1.818375587463379,None,,,,,,,,,,,,,,,,,,186,1,2025-03-04_14h48.56.176,comp,2024.2.4,57.714908466441365,2025-03-04 14h49.02.438234 -0500,
47,47,0,critical,dwh,20.0,2.1,upper,141.0,141.0,125.0,200.0,200.0,125.0,3,2.057061195373535,None,,,,,0,0,0,0,0,47,47,31,304.4756541252136,,,,,,,,,,,,,,,,,,,,,,,,,,,,,,,,,,,,,,,,,,,,,,,,,,,,,,,,,,,,,,,,,,,,,,,,,,,,,,,,,141.0,141.0,125.0,200.0,200.0,125.0,2.1,2.11,-266,253,0,271,258,-273,304.4607515335083,304.46082520484924,304.46416330337524,304.4756541252136,304.6252055168152,304.6252055168152,304.6252055168152,304.6252055168152,304.6252055168152,304.6252055168152,304.6252055168152,306.54269099235535,3,2.057061195373535,None,,,,,,,,,,,,,,,,,,186,1,2025-03-04_14h48.56.176,comp,2024.2.4,57.714908466441365,2025-03-04 14h49.02.438234 -0500,
48,48,0,filler_square,None,None,None,None,None,None,None,None,None,None,3,1.5797007083892822,None,,,,,0,0,0,0,0,48,48,179,306.56066131591797,,,,,,,,,,,,,,,,,,,,,,,,,,,,,,,,,,,,,,,,,,,,,,,,,,,,,,,,,,,,,,,,,,,,,,,,,,,,,,,,,166.59358424637838,171.67766248992586,91.23342176196073,73.28302049616306,179.62647887132022,179.62647887132022,1.0,1.2,-218,-3,0,12,222,3,306.5444860458374,306.5445625782013,306.54763102531433,306.56066131591797,306.70983505249023,306.70983505249023,306.70983505249023,306.70983505249023,306.70983505249023,306.70983505249023,306.70983505249023,308.15199995040894,3,1.5797007083892822,None,,,,,,,,,,,,,,,,,,186,1,2025-03-04_14h48.56.176,comp,2024.2.4,57.714908466441365,2025-03-04 14h49.02.438234 -0500,
49,49,0,filler_random,None,None,None,None,None,None,None,None,None,None,3,3.467756509780884,None,,,,,0,0,0,0,0,49,49,138,308.1696493625641,,,,,,,,,,,,,,,,,,,,,,,,,,,,,,,,,,,,,,,,,,,,,,,,,,,,,,,,,,,,,,,,,,,,,,,,,,,,,,,,,180.1749992138203,86.69534132708539,133.9330443010063,120.53093782419822,175.57383162157657,83.81658635859704,2.2,2.21,-200,-250,0,280,198,250,308.15370440483093,308.15378046035767,308.156583070755,308.1696493625641,308.3101336956024,308.3101336956024,308.3101336956024,308.3101336956024,308.3101336956024,308.3101336956024,308.3101336956024,311.6432867050171,3,3.467756509780884,None,,,,,,,,,,,,,,,,,,186,1,2025-03-04_14h48.56.176,comp,2024.2.4,57.714908466441365,2025-03-04 14h49.02.438234 -0500,
50,50,0,critical,wdh,35.0,2.1,upper,125.0,200.0,127.0,127.0,200.0,125.0,1,2.230851173400879,None,,,,,0,0,0,0,0,50,50,33,311.6614284515381,,,,,,,,,,,,,,,,,,,,,,,,,,,,,,,,,,,,,,,,,,,,,,,,,,,,,,,,,,,,,,,,,,,,,,,,,,,,,,,,,125.0,200.0,127.0,127.0,200.0,125.0,2.1,2.11,-260,276,0,282,222,-268,311.6448793411255,311.64496660232544,311.64828872680664,311.6614284515381,311.811443567276,311.811443567276,311.811443567276,311.811443567276,311.811443567276,311.811443567276,311.811443567276,313.89442133903503,1,2.230851173400879,None,,,,,,,,,,,,,,,,,,186,1,2025-03-04_14h48.56.176,comp,2024.2.4,57.714908466441365,2025-03-04 14h49.02.438234 -0500,
51,51,0,critical,wdh,20.0,3.0,upper,125.0,200.0,141.0,141.0,200.0,125.0,3,3.6520943641662598,None,,,,,0,0,0,0,0,51,51,81,313.91234493255615,,,,,,,,,,,,,,,,,,,,,,,,,,,,,,,,,,,,,,,,,,,,,,,,,,,,,,,,,,,,,,,,,,,,,,,,,,,,,,,,,125.0,200.0,141.0,141.0,200.0,125.0,3.0,3.1,-266,262,0,0,229,-275,313.89589285850525,313.89596796035767,313.8992166519165,313.91234493255615,314.06264996528625,314.06264996528625,314.06264996528625,314.06264996528625,314.06264996528625,314.06264996528625,314.06264996528625,317.5801315307617,3,3.6520943641662598,None,,,,,,,,,,,,,,,,,,186,1,2025-03-04_14h48.56.176,comp,2024.2.4,57.714908466441365,2025-03-04 14h49.02.438234 -0500,
52,52,0,filler_square,None,None,None,None,None,None,None,None,None,None,2,2.816411256790161,None,,,,,0,0,0,0,0,52,52,201,317.59592962265015,,,,,,,,,,,,,,,,,,,,,,,,,,,,,,,,,,,,,,,,,,,,,,,,,,,,,,,,,,,,,,,,,,,,,,,,,,,,,,,,,126.26518953776649,99.764384531259,132.6386233056112,132.6386233056112,96.40564190851165,77.32973129902535,2.1,2.12,-212,-257,0,-289,201,252,317.5820333957672,317.58219599723816,317.585556268692,317.59592962265015,317.75147128105164,317.75147128105164,317.75147128105164,317.75147128105164,317.75147128105164,317.75147128105164,317.75147128105164,320.43008279800415,2,2.816411256790161,None,,,,,,,,,,,,,,,,,,186,1,2025-03-04_14h48.56.176,comp,2024.2.4,57.714908466441365,2025-03-04 14h49.02.438234 -0500,
53,53,0,filler_random,None,None,None,None,None,None,None,None,None,None,1,2.381887674331665,None,,,,,0,0,0,0,0,53,53,167,320.44640946388245,,,,,,,,,,,,,,,,,,,,,,,,,,,,,,,,,,,,,,,,,,,,,,,,,,,,,,,,,,,,,,,,,,,,,,,,,,,,,,,,,167.51297019027032,198.41554313513103,71.91034251323737,177.6697454771785,86.40811999600803,167.5223534066277,2.1,2.12,-284,-280,0,-264,269,270,320.43176078796387,320.43183517456055,320.4358847141266,320.44640946388245,320.58807134628296,320.58807134628296,320.58807134628296,320.58807134628296,320.58807134628296,320.58807134628296,320.58807134628296,322.831830739975,1,2.381887674331665,None,,,,,,,,,,,,,,,,,,186,1,2025-03-04_14h48.56.176,comp,2024.2.4,57.714908466441365,2025-03-04 14h49.02.438234 -0500,
54,54,0,critical,hdw,20.0,2.1,upper,200.0,125.0,141.0,141.0,125.0,200.0,1,4.509896993637085,None,,,,,0,0,0,0,0,54,54,23,322.84662675857544,,,,,,,,,,,,,,,,,,,,,,,,,,,,,,,,,,,,,,,,,,,,,,,,,,,,,,,,,,,,,,,,,,,,,,,,,,,,,,,,,200.0,125.0,141.0,141.0,125.0,200.0,2.1,2.12,-229,-267,0,-255,266,281,322.83302068710327,322.83305954933167,322.8358688354492,322.84662675857544,322.9962463378906,322.9962463378906,322.9962463378906,322.9962463378906,322.9962463378906,322.9962463378906,322.9962463378906,327.37406301498413,1,4.509896993637085,None,,,,,,,,,,,,,,,,,,186,1,2025-03-04_14h48.56.176,comp,2024.2.4,57.714908466441365,2025-03-04 14h49.02.438234 -0500,
55,55,0,critical,hdw,35.0,2.1,lower,133.0,57.0,70.0,70.0,57.0,133.0,1,3.9867663383483887,None,,,,,0,0,0,0,0,55,55,20,327.39357256889343,,,,,,,,,,,,,,,,,,,,,,,,,,,,,,,,,,,,,,,,,,,,,,,,,,,,,,,,,,,,,,,,,,,,,,,,,,,,,,,,,133.0,57.0,70.0,70.0,57.0,133.0,2.1,2.12,-160,-250,0,-257,198,276,327.3755986690521,327.375675201416,327.37849521636963,327.39357256889343,327.5329132080078,327.5329132080078,327.5329132080078,327.5329132080078,327.5329132080078,327.5329132080078,327.5329132080078,331.3835668563843,1,3.9867663383483887,None,,,,,,,,,,,,,,,,,,186,1,2025-03-04_14h48.56.176,comp,2024.2.4,57.714908466441365,2025-03-04 14h49.02.438234 -0500,
56,56,0,critical,dhw,20.0,1.0,lower,78.0,78.0,133.0,57.0,57.0,133.0,2,2.4841275215148926,None,,,,,0,0,0,0,0,56,56,54,331.40014004707336,,,,,,,,,,,,,,,,,,,,,,,,,,,,,,,,,,,,,,,,,,,,,,,,,,,,,,,,,,,,,,,,,,,,,,,,,,,,,,,,,78.0,78.0,133.0,57.0,57.0,133.0,1.0,1.1,-644,279,-480,284,-289,280,331.3849902153015,331.38506627082825,331.3890061378479,331.40014004707336,331.54860639572144,331.54860639572144,331.54860639572144,331.54860639572144,331.54860639572144,331.54860639572144,331.54860639572144,333.9006235599518,2,2.4841275215148926,None,,,,,,,,,,,,,,,,,,186,1,2025-03-04_14h48.56.176,comp,2024.2.4,57.714908466441365,2025-03-04 14h49.02.438234 -0500,
57,57,0,critical,wdh,20.0,4.0,upper,125.0,200.0,141.0,141.0,200.0,125.0,3,3.584446668624878,None,,,,,0,0,0,0,0,57,57,83,333.9160919189453,,,,,,,,,,,,,,,,,,,,,,,,,,,,,,,,,,,,,,,,,,,,,,,,,,,,,,,,,,,,,,,,,,,,,,,,,,,,,,,,,125.0,200.0,141.0,141.0,200.0,125.0,4.0,4.1,-266,-275,0,17,229,-263,333.9022011756897,333.90227246284485,333.90568113327026,333.9160919189453,334.0683388710022,334.0683388710022,334.0683388710022,334.0683388710022,334.0683388710022,334.0683388710022,334.0683388710022,337.5071713924408,3,3.584446668624878,None,,,,,,,,,,,,,,,,,,186,1,2025-03-04_14h48.56.176,comp,2024.2.4,57.714908466441365,2025-03-04 14h49.02.438234 -0500,
58,58,0,critical,dwh,35.0,2.1,lower,70.0,70.0,57.0,133.0,133.0,57.0,3,2.719804525375366,None,,,,,0,0,0,0,0,58,58,4,337.52467012405396,,,,,,,,,,,,,,,,,,,,,,,,,,,,,,,,,,,,,,,,,,,,,,,,,,,,,,,,,,,,,,,,,,,,,,,,,,,,,,,,,70.0,70.0,57.0,133.0,133.0,57.0,2.1,2.11,-198,273,0,263,191,-264,337.50865149497986,337.5087265968323,337.51159930229187,337.52467012405396,337.6699364185333,337.6699364185333,337.6699364185333,337.6699364185333,337.6699364185333,337.6699364185333,337.6699364185333,340.26556944847107,3,2.719804525375366,None,,,,,,,,,,,,,,,,,,186,1,2025-03-04_14h48.56.176,comp,2024.2.4,57.714908466441365,2025-03-04 14h49.02.438234 -0500,
59,59,0,critical,hwd,20.0,2.1,lower,133.0,57.0,57.0,133.0,78.0,78.0,2,2.2552223205566406,None,,,,,0,0,0,0,0,59,59,42,340.2851686477661,,,,,,,,,,,,,,,,,,,,,,,,,,,,,,,,,,,,,,,,,,,,,,,,,,,,,,,,,,,,,,,,,,,,,,,,,,,,,,,,,133.0,57.0,57.0,133.0,78.0,78.0,2.1,2.11,-191,288,0,277,202,-271,340.2670724391937,340.2671675682068,340.2699041366577,340.2851686477661,340.4187972545624,340.4187972545624,340.4187972545624,340.4187972545624,340.4187972545624,340.4187972545624,340.4187972545624,342.5530424118042,2,2.2552223205566406,None,,,,,,,,,,,,,,,,,,186,1,2025-03-04_14h48.56.176,comp,2024.2.4,57.714908466441365,2025-03-04 14h49.02.438234 -0500,
60,60,0,filler_random,None,None,None,None,None,None,None,None,None,None,2,2.923104763031006,None,,,,,0,0,0,0,0,60,60,134,342.569632768631,,,,,,,,,,,,,,,,,,,,,,,,,,,,,,,,,,,,,,,,,,,,,,,,,,,,,,,,,,,,,,,,,,,,,,,,,,,,,,,,,149.1696378737619,165.6877395580664,75.22613194543199,148.55972487159835,136.3762466594208,152.85372964344464,2.1,2.11,-253,274,0,260,247,-275,342.5547556877136,342.5548300743103,342.5580532550812,342.569632768631,342.70965933799744,342.70965933799744,342.70965933799744,342.70965933799744,342.70965933799744,342.70965933799744,342.70965933799744,345.5088064670563,2,2.923104763031006,None,,,,,,,,,,,,,,,,,,186,1,2025-03-04_14h48.56.176,comp,2024.2.4,57.714908466441365,2025-03-04 14h49.02.438234 -0500,
61,61,0,critical,hdw,35.0,4.0,lower,133.0,57.0,70.0,70.0,57.0,133.0,1,4.944325685501099,None,,,,,0,0,0,0,0,61,61,112,345.524453163147,,,,,,,,,,,,,,,,,,,,,,,,,,,,,,,,,,,,,,,,,,,,,,,,,,,,,,,,,,,,,,,,,,,,,,,,,,,,,,,,,133.0,57.0,70.0,70.0,57.0,133.0,4.0,4.2,-160,-12,0,-260,198,5,345.5103747844696,345.5104625225067,345.51335763931274,345.524453163147,345.68037462234497,345.68037462234497,345.68037462234497,345.68037462234497,345.68037462234497,345.68037462234497,345.68037462234497,350.4885559082031,1,4.944325685501099,None,,,,,,,,,,,,,,,,,,186,1,2025-03-04_14h48.56.176,comp,2024.2.4,57.714908466441365,2025-03-04 14h49.02.438234 -0500,
62,62,0,filler_square,None,None,None,None,None,None,None,None,None,None,2,1.435338020324707,None,,,,,0,0,0,0,0,62,62,188,350.5050799846649,,,,,,,,,,,,,,,,,,,,,,,,,,,,,,,,,,,,,,,,,,,,,,,,,,,,,,,,,,,,,,,,,,,,,,,,,,,,,,,,,104.18784835047504,127.45971873510511,137.02934769805768,137.02934769805768,99.05701973684259,118.5674526089327,2.1,2.11,-228,270,0,261,224,-287,350.4902763366699,350.4903531074524,350.49358463287354,350.5050799846649,350.6565430164337,350.6565430164337,350.6565430164337,350.6565430164337,350.6565430164337,350.6565430164337,350.6565430164337,351.953604221344,2,1.435338020324707,None,,,,,,,,,,,,,,,,,,186,1,2025-03-04_14h48.56.176,comp,2024.2.4,57.714908466441365,2025-03-04 14h49.02.438234 -0500,
63,63,0,filler_square,None,None,None,None,None,None,None,None,None,None,2,1.2418675422668457,None,,,,,0,0,0,0,0,63,63,170,351.97044229507446,,,,,,,,,,,,,,,,,,,,,,,,,,,,,,,,,,,,,,,,,,,,,,,,,,,,,,,,,,,,,,,,,,,,,,,,,,,,,,,,,75.04888728251863,73.7872407259525,160.10818603187113,160.10818603187113,64.97922803424693,92.7804705470973,3.0,3.2,-213,-253,0,15,222,281,351.95537185668945,351.9554455280304,351.9582438468933,351.97044229507446,352.10815930366516,352.10815930366516,352.10815930366516,352.10815930366516,352.10815930366516,352.10815930366516,352.10815930366516,353.21636509895325,2,1.2418675422668457,None,,,,,,,,,,,,,,,,,,186,1,2025-03-04_14h48.56.176,comp,2024.2.4,57.714908466441365,2025-03-04 14h49.02.438234 -0500,
64,64,0,filler_random,None,None,None,None,None,None,None,None,None,None,2,1.4578375816345215,None,,,,,0,0,0,0,0,64,64,165,353.2345857620239,,,,,,,,,,,,,,,,,,,,,,,,,,,,,,,,,,,,,,,,,,,,,,,,,,,,,,,,,,,,,,,,,,,,,,,,,,,,,,,,,60.915993497978846,181.22103672137436,199.82802139949067,153.85812437388847,156.45970789280221,101.68664609756736,3.0,3.1,-264,276,0,-12,224,-258,353.21818494796753,353.218300819397,353.2214889526367,353.2345857620239,353.37448263168335,353.37448263168335,353.37448263168335,353.37448263168335,353.37448263168335,353.37448263168335,353.37448263168335,354.7066504955292,2,1.4578375816345215,None,,,,,,,,,,,,,,,,,,186,1,2025-03-04_14h48.56.176,comp,2024.2.4,57.714908466441365,2025-03-04 14h49.02.438234 -0500,
65,65,0,filler_random,None,None,None,None,None,None,None,None,None,None,2,1.354278564453125,None,,,,,0,0,0,0,0,65,65,141,354.7220962047577,,,,,,,,,,,,,,,,,,,,,,,,,,,,,,,,,,,,,,,,,,,,,,,,,,,,,,,,,,,,,,,,,,,,,,,,,,,,,,,,,64.81469127565651,119.44473707265007,179.60752021013565,178.17703002486218,129.0717378139526,197.56314529184277,2.2,2.22,-245,285,0,-252,284,-280,354.70822405815125,354.7082977294922,354.7112238407135,354.7220962047577,354.87457370758057,354.87457370758057,354.87457370758057,354.87457370758057,354.87457370758057,354.87457370758057,354.87457370758057,356.08970308303833,2,1.354278564453125,None,,,,,,,,,,,,,,,,,,186,1,2025-03-04_14h48.56.176,comp,2024.2.4,57.714908466441365,2025-03-04 14h49.02.438234 -0500,
66,66,0,critical,whd,20.0,2.1,upper,125.0,200.0,200.0,125.0,141.0,141.0,2,1.9548766613006592,None,,,,,0,0,0,0,0,66,66,39,356.1055202484131,,,,,,,,,,,,,,,,,,,,,,,,,,,,,,,,,,,,,,,,,,,,,,,,,,,,,,,,,,,,,,,,,,,,,,,,,,,,,,,,,125.0,200.0,200.0,125.0,141.0,141.0,2.1,2.12,-258,-288,0,-288,229,252,356.0911726951599,356.091246843338,356.0940866470337,356.1055202484131,356.25355195999146,356.25355195999146,356.25355195999146,356.25355195999146,356.25355195999146,356.25355195999146,356.25355195999146,358.0753836631775,2,1.9548766613006592,None,,,,,,,,,,,,,,,,,,186,1,2025-03-04_14h48.56.176,comp,2024.2.4,57.714908466441365,2025-03-04 14h49.02.438234 -0500,
67,67,0,filler_random,None,None,None,None,None,None,None,None,None,None,3,3.168569564819336,None,,,,,0,0,0,0,0,67,67,140,358.09189200401306,,,,,,,,,,,,,,,,,,,,,,,,,,,,,,,,,,,,,,,,,,,,,,,,,,,,,,,,,,,,,,,,,,,,,,,,,,,,,,,,,108.66084959352577,122.85929004958332,161.88754491070492,68.88415273650804,145.15390330757177,130.6147956879654,1.0,1.3,288,-255,480,-258,676,-254,358.0770251750946,358.07710003852844,358.08117723464966,358.09189200401306,358.2456946372986,358.2456946372986,358.2456946372986,358.2456946372986,358.2456946372986,358.2456946372986,358.2456946372986,361.27689266204834,3,3.168569564819336,None,,,,,,,,,,,,,,,,,,186,1,2025-03-04_14h48.56.176,comp,2024.2.4,57.714908466441365,2025-03-04 14h49.02.438234 -0500,
68,68,0,critical,dwh,20.0,1.0,upper,141.0,141.0,125.0,200.0,200.0,125.0,3,1.5206241607666016,None,,,,,0,0,0,0,0,68,68,67,361.2919783592224,,,,,,,,,,,,,,,,,,,,,,,,,,,,,,,,,,,,,,,,,,,,,,,,,,,,,,,,,,,,,,,,,,,,,,,,,,,,,,,,,141.0,141.0,125.0,200.0,200.0,125.0,1.0,1.1,-746,253,-480,286,-222,287,361.2783885002136,361.2784626483917,361.2816925048828,361.2919783592224,361.4409713745117,361.4409713745117,361.4409713745117,361.4409713745117,361.4409713745117,361.4409713745117,361.4409713745117,362.81877756118774,3,1.5206241607666016,None,,,,,,,,,,,,,,,,,,186,1,2025-03-04_14h48.56.176,comp,2024.2.4,57.714908466441365,2025-03-04 14h49.02.438234 -0500,
69,69,0,filler_square,None,None,None,None,None,None,None,None,None,None,1,1.5273866653442383,None,,,,,0,0,0,0,0,69,69,184,362.83719968795776,,,,,,,,,,,,,,,,,,,,,,,,,,,,,,,,,,,,,,,,,,,,,,,,,,,,,,,,,,,,,,,,,,,,,,,,,,,,,,,,,122.78602108745264,122.78602108745264,76.95368677927928,96.43300342639607,114.92195463745387,116.11489737142799,4.0,4.1,-206,-290,0,5,202,-278,362.82073521614075,362.82081055641174,362.82393074035645,362.83719968795776,362.97870349884033,362.97870349884033,362.97870349884033,362.97870349884033,362.97870349884033,362.97870349884033,362.97870349884033,364.3763313293457,1,1.5273866653442383,None,,,,,,,,,,,,,,,,,,186,1,2025-03-04_14h48.56.176,comp,2024.2.4,57.714908466441365,2025-03-04 14h49.02.438234 -0500,
70,70,0,catch,None,None,None,None,None,None,None,None,None,None,2,1.2287862300872803,None,,,,,0,0,0,0,0,70,70,122,364.39310598373413,,,,,,,,,,,,,,,,,,,,,,,,,,,,,,,,,,,,,,,,,,,,,,,,,,,,,,,,,,,,,,,,,,,,,,,,,,,,,,,,,115,75,190,135,86,104,1.0,1.3,279,-259,480,-264,696,-272,364.37830543518066,364.3783836364746,364.38156938552856,364.39310598373413,364.53977155685425,364.53977155685425,364.53977155685425,364.53977155685425,364.53977155685425,364.53977155685425,364.53977155685425,365.62645411491394,2,1.2287862300872803,None,,,,,,,,,,,,,,,,,,186,1,2025-03-04_14h48.56.176,comp,2024.2.4,57.714908466441365,2025-03-04 14h49.02.438234 -0500,
71,71,0,filler_random,None,None,None,None,None,None,None,None,None,None,2,1.801645278930664,None,,,,,0,0,0,0,0,71,71,149,365.6432361602783,,,,,,,,,,,,,,,,,,,,,,,,,,,,,,,,,,,,,,,,,,,,,,,,,,,,,,,,,,,,,,,,,,,,,,,,,,,,,,,,,160.3391225998169,147.3490934221067,157.80927185342173,170.68299670587942,116.85278675845714,96.18665524431898,2.2,2.22,-255,262,0,-269,229,-251,365.6281592845917,365.6282629966736,365.6315143108368,365.6432361602783,365.8004341125488,365.8004341125488,365.8004341125488,365.8004341125488,365.8004341125488,365.8004341125488,365.8004341125488,367.45241022109985,2,1.801645278930664,None,,,,,,,,,,,,,,,,,,186,1,2025-03-04_14h48.56.176,comp,2024.2.4,57.714908466441365,2025-03-04 14h49.02.438234 -0500,
72,72,0,filler_square,None,None,None,None,None,None,None,None,None,None,3,2.061490535736084,None,,,,,0,0,0,0,0,72,72,202,367.47152280807495,,,,,,,,,,,,,,,,,,,,,,,,,,,,,,,,,,,,,,,,,,,,,,,,,,,,,,,,,,,,,,,,,,,,,,,,,,,,,,,,,117.23562432300014,91.93309066037665,151.8903849518616,64.72205349991303,156.03697994877518,156.03697994877518,2.1,2.11,-174,252,0,259,206,-275,367.45417523384094,367.4542531967163,367.4570450782776,367.47152280807495,367.61247873306274,367.61247873306274,367.61247873306274,367.61247873306274,367.61247873306274,367.61247873306274,367.61247873306274,369.5353858470917,3,2.061490535736084,None,,,,,,,,,,,,,,,,,,186,1,2025-03-04_14h48.56.176,comp,2024.2.4,57.714908466441365,2025-03-04 14h49.02.438234 -0500,
73,73,0,critical,hdw,20.0,4.0,lower,133.0,57.0,78.0,78.0,57.0,133.0,1,1.8062880039215088,None,,,,,0,0,0,0,0,73,73,118,369.5507402420044,,,,,,,,,,,,,,,,,,,,,,,,,,,,,,,,,,,,,,,,,,,,,,,,,,,,,,,,,,,,,,,,,,,,,,,,,,,,,,,,,133.0,57.0,78.0,78.0,57.0,133.0,4.0,4.1,-164,-279,0,2,202,-263,369.5369393825531,369.5370156764984,369.53991770744324,369.5507402420044,369.69528675079346,369.69528675079346,369.69528675079346,369.69528675079346,369.69528675079346,369.69528675079346,369.69528675079346,371.3638389110565,1,1.8062880039215088,None,,,,,,,,,,,,,,,,,,186,1,2025-03-04_14h48.56.176,comp,2024.2.4,57.714908466441365,2025-03-04 14h49.02.438234 -0500,
74,74,0,filler_random,None,None,None,None,None,None,None,None,None,None,3,1.9924070835113525,None,,,,,0,0,0,0,0,74,74,164,371.38027930259705,,,,,,,,,,,,,,,,,,,,,,,,,,,,,,,,,,,,,,,,,,,,,,,,,,,,,,,,,,,,,,,,,,,,,,,,,,,,,,,,,111.21855983169115,154.61092896916233,146.94328112801895,93.61504632535483,152.28069234925798,195.15984090000921,3.0,3.2,-220,-253,0,-9,240,287,371.36556601524353,371.36569452285767,371.36949610710144,371.38027930259705,371.5275855064392,371.5275855064392,371.5275855064392,371.5275855064392,371.5275855064392,371.5275855064392,371.5275855064392,373.3879749774933,3,1.9924070835113525,None,,,,,,,,,,,,,,,,,,186,1,2025-03-04_14h48.56.176,comp,2024.2.4,57.714908466441365,2025-03-04 14h49.02.438234 -0500,
75,75,0,filler_random,None,None,None,None,None,None,None,None,None,None,2,0.9698777198791504,None,,,,,0,0,0,0,0,75,75,163,373.40287590026855,,,,,,,,,,,,,,,,,,,,,,,,,,,,,,,,,,,,,,,,,,,,,,,,,,,,,,,,,,,,,,,,,,,,,,,,,,,,,,,,,77.80708594452491,159.63050942949937,164.67808822212083,147.939548623932,88.34451671490072,104.87411360537158,2.2,2.21,-250,-255,0,286,222,264,373.3896577358246,373.38973093032837,373.3925099372864,373.40287590026855,373.5442135334015,373.5442135334015,373.5442135334015,373.5442135334015,373.5442135334015,373.5442135334015,373.5442135334015,374.37725591659546,2,0.9698777198791504,None,,,,,,,,,,,,,,,,,,186,1,2025-03-04_14h48.56.176,comp,2024.2.4,57.714908466441365,2025-03-04 14h49.02.438234 -0500,
76,76,0,critical,dwh,35.0,3.0,lower,70.0,70.0,57.0,133.0,133.0,57.0,2,2.3218042850494385,None,,,,,0,0,0,0,0,76,76,62,374.39466404914856,,,,,,,,,,,,,,,,,,,,,,,,,,,,,,,,,,,,,,,,,,,,,,,,,,,,,,,,,,,,,,,,,,,,,,,,,,,,,,,,,70.0,70.0,57.0,133.0,133.0,57.0,3.0,3.1,-198,261,0,-19,191,-257,374.37877106666565,374.3788466453552,374.3817296028137,374.39466404914856,374.53069615364075,374.53069615364075,374.53069615364075,374.53069615364075,374.53069615364075,374.53069615364075,374.53069615364075,376.7307119369507,2,2.3218042850494385,None,,,,,,,,,,,,,,,,,,186,1,2025-03-04_14h48.56.176,comp,2024.2.4,57.714908466441365,2025-03-04 14h49.02.438234 -0500,
77,77,0,filler_random,None,None,None,None,None,None,None,None,None,None,2,1.1778855323791504,None,,,,,0,0,0,0,0,77,77,157,376.7465274333954,,,,,,,,,,,,,,,,,,,,,,,,,,,,,,,,,,,,,,,,,,,,,,,,,,,,,,,,,,,,,,,,,,,,,,,,,,,,,,,,,164.7253686578466,109.4646630437498,151.07971929941215,197.4402122790414,91.43100034824482,186.90396176695768,3.0,3.2,-249,-258,0,-3,288,284,376.7324879169464,376.7325608730316,376.73606848716736,376.7465274333954,376.89771270751953,376.89771270751953,376.89771270751953,376.89771270751953,376.89771270751953,376.89771270751953,376.89771270751953,377.93659472465515,2,1.1778855323791504,None,,,,,,,,,,,,,,,,,,186,1,2025-03-04_14h48.56.176,comp,2024.2.4,57.714908466441365,2025-03-04 14h49.02.438234 -0500,
78,78,0,filler_square,None,None,None,None,None,None,None,None,None,None,1,1.251230239868164,None,,,,,0,0,0,0,0,78,78,196,377.95316195487976,,,,,,,,,,,,,,,,,,,,,,,,,,,,,,,,,,,,,,,,,,,,,,,,,,,,,,,,,,,,,,,,,,,,,,,,,,,,,,,,,134.2048609948477,134.2048609948477,91.64391031285363,129.06708826122554,115.90323053704238,61.14619142126589,3.0,3.1,-228,281,0,-12,191,-276,377.938631772995,377.938707113266,377.9419026374817,377.95316195487976,378.1040253639221,378.1040253639221,378.1040253639221,378.1040253639221,378.1040253639221,378.1040253639221,378.1040253639221,379.2176971435547,1,1.251230239868164,None,,,,,,,,,,,,,,,,,,186,1,2025-03-04_14h48.56.176,comp,2024.2.4,57.714908466441365,2025-03-04 14h49.02.438234 -0500,
79,79,0,critical,hdw,35.0,2.1,upper,200.0,125.0,127.0,127.0,125.0,200.0,1,1.1646053791046143,None,,,,,0,0,0,0,0,79,79,45,379.23141622543335,,,,,,,,,,,,,,,,,,,,,,,,,,,,,,,,,,,,,,,,,,,,,,,,,,,,,,,,,,,,,,,,,,,,,,,,,,,,,,,,,200.0,125.0,127.0,127.0,125.0,200.0,2.1,2.12,-222,-256,0,-269,260,261,379.2194941043854,379.21957182884216,379.22248458862305,379.23141622543335,379.38447403907776,379.38447403907776,379.38447403907776,379.38447403907776,379.38447403907776,379.38447403907776,379.38447403907776,380.4129755496979,1,1.1646053791046143,None,,,,,,,,,,,,,,,,,,186,1,2025-03-04_14h48.56.176,comp,2024.2.4,57.714908466441365,2025-03-04 14h49.02.438234 -0500,
80,80,0,critical,dwh,20.0,3.0,lower,78.0,78.0,57.0,133.0,133.0,57.0,3,1.5836734771728516,None,,,,,0,0,0,0,0,80,80,68,380.4287543296814,,,,,,,,,,,,,,,,,,,,,,,,,,,,,,,,,,,,,,,,,,,,,,,,,,,,,,,,,,,,,,,,,,,,,,,,,,,,,,,,,78.0,78.0,57.0,133.0,133.0,57.0,3.0,3.2,-202,-251,0,-9,191,280,380.4146091938019,380.41468334198,380.4178874492645,380.4287543296814,380.56482219696045,380.56482219696045,380.56482219696045,380.56482219696045,380.56482219696045,380.56482219696045,380.56482219696045,382.0159559249878,3,1.5836734771728516,None,,,,,,,,,,,,,,,,,,186,1,2025-03-04_14h48.56.176,comp,2024.2.4,57.714908466441365,2025-03-04 14h49.02.438234 -0500,
81,81,0,critical,whd,20.0,1.0,upper,125.0,200.0,200.0,125.0,141.0,141.0,3,7.213703870773315,None,,,,,0,0,0,0,0,81,81,91,382.0312478542328,,,,,,,,,,,,,,,,,,,,,,,,,,,,,,,,,,,,,,,,,,,,,,,,,,,,,,,,,,,,,,,,,,,,,,,,,,,,,,,,,125.0,200.0,200.0,125.0,141.0,141.0,1.0,1.2,-258,-10,0,-7,229,-1,382.01741886138916,382.01749634742737,382.0205316543579,382.0312478542328,382.18180894851685,382.18180894851685,382.18180894851685,382.18180894851685,382.18180894851685,382.18180894851685,382.18180894851685,389.2529447078705,3,7.213703870773315,None,,,,,,,,,,,,,,,,,,186,1,2025-03-04_14h48.56.176,comp,2024.2.4,57.714908466441365,2025-03-04 14h49.02.438234 -0500,
82,82,0,catch,None,None,None,None,None,None,None,None,None,None,1,1.1925363540649414,None,,,,,0,0,0,0,0,82,82,123,389.2695653438568,,,,,,,,,,,,,,,,,,,,,,,,,,,,,,,,,,,,,,,,,,,,,,,,,,,,,,,,,,,,,,,,,,,,,,,,,,,,,,,,,158,167,125,65,122,68,4.0,4.1,-212,-251,0,16,162,-253,389.25509881973267,389.2552125453949,389.2586233615875,389.2695653438568,389.41995453834534,389.41995453834534,389.41995453834534,389.41995453834534,389.41995453834534,389.41995453834534,389.41995453834534,390.4696023464203,1,1.1925363540649414,None,,,,,,,,,,,,,,,,,,186,1,2025-03-04_14h48.56.176,comp,2024.2.4,57.714908466441365,2025-03-04 14h49.02.438234 -0500,
83,83,0,critical,wdh,35.0,4.0,lower,57.0,133.0,70.0,70.0,133.0,57.0,2,1.8499844074249268,None,,,,,0,0,0,0,0,83,83,76,390.49084424972534,,,,,,,,,,,,,,,,,,,,,,,,,,,,,,,,,,,,,,,,,,,,,,,,,,,,,,,,,,,,,,,,,,,,,,,,,,,,,,,,,57.0,133.0,70.0,70.0,133.0,57.0,4.0,4.2,-198,3,0,-255,160,-9,390.47115659713745,390.4712347984314,390.474702835083,390.49084424972534,390.6339445114136,390.6339445114136,390.6339445114136,390.6339445114136,390.6339445114136,390.6339445114136,390.6339445114136,392.36002492904663,2,1.8499844074249268,None,,,,,,,,,,,,,,,,,,186,1,2025-03-04_14h48.56.176,comp,2024.2.4,57.714908466441365,2025-03-04 14h49.02.438234 -0500,
84,84,0,filler_random,None,None,None,None,None,None,None,None,None,None,1,1.139185905456543,None,,,,,0,0,0,0,0,84,84,142,392.3779022693634,,,,,,,,,,,,,,,,,,,,,,,,,,,,,,,,,,,,,,,,,,,,,,,,,,,,,,,,,,,,,,,,,,,,,,,,,,,,,,,,,153.64064937162237,190.3403645534998,63.512211145191095,126.54873238184496,75.7439076035143,85.67654524890636,2.2,2.21,-254,-285,0,273,202,289,392.3618323802948,392.36196303367615,392.3651530742645,392.3779022693634,392.51915740966797,392.51915740966797,392.51915740966797,392.51915740966797,392.51915740966797,392.51915740966797,392.51915740966797,393.5232412815094,1,1.139185905456543,None,,,,,,,,,,,,,,,,,,186,1,2025-03-04_14h48.56.176,comp,2024.2.4,57.714908466441365,2025-03-04 14h49.02.438234 -0500,
85,85,0,critical,dhw,20.0,4.0,lower,78.0,78.0,133.0,57.0,57.0,133.0,3,1.6747920513153076,None,,,,,0,0,0,0,0,85,85,58,393.5391676425934,,,,,,,,,,,,,,,,,,,,,,,,,,,,,,,,,,,,,,,,,,,,,,,,,,,,,,,,,,,,,,,,,,,,,,,,,,,,,,,,,78.0,78.0,133.0,57.0,57.0,133.0,4.0,4.1,-164,-264,0,1,191,-285,393.5248923301697,393.5250291824341,393.5282919406891,393.5391676425934,393.6916809082031,393.6916809082031,393.6916809082031,393.6916809082031,393.6916809082031,393.6916809082031,393.6916809082031,395.21866369247437,3,1.6747920513153076,None,,,,,,,,,,,,,,,,,,186,1,2025-03-04_14h48.56.176,comp,2024.2.4,57.714908466441365,2025-03-04 14h49.02.438234 -0500,
86,86,0,critical,whd,35.0,4.0,lower,57.0,133.0,133.0,57.0,70.0,70.0,2,2.841766357421875,None,,,,,0,0,0,0,0,86,86,88,395.2347228527069,,,,,,,,,,,,,,,,,,,,,,,,,,,,,,,,,,,,,,,,,,,,,,,,,,,,,,,,,,,,,,,,,,,,,,,,,,,,,,,,,57.0,133.0,133.0,57.0,70.0,70.0,4.0,4.1,-191,-263,0,-2,160,-261,395.2201771736145,395.220255613327,395.2230384349823,395.2347228527069,395.3729066848755,395.3729066848755,395.3729066848755,395.3729066848755,395.3729066848755,395.3729066848755,395.3729066848755,398.09008526802063,2,2.841766357421875,None,,,,,,,,,,,,,,,,,,186,1,2025-03-04_14h48.56.176,comp,2024.2.4,57.714908466441365,2025-03-04 14h49.02.438234 -0500,
87,87,0,critical,hwd,20.0,1.0,lower,133.0,57.0,57.0,133.0,78.0,78.0,1,2.1677472591400146,None,,,,,0,0,0,0,0,87,87,102,398.1090705394745,,,,,,,,,,,,,,,,,,,,,,,,,,,,,,,,,,,,,,,,,,,,,,,,,,,,,,,,,,,,,,,,,,,,,,,,,,,,,,,,,133.0,57.0,57.0,133.0,78.0,78.0,1.0,1.3,289,-275,480,-282,682,-279,398.09169483184814,398.0917720794678,398.0950047969818,398.1090705394745,398.2588927745819,398.2588927745819,398.2588927745819,398.2588927745819,398.2588927745819,398.2588927745819,398.2588927745819,400.27902340888977,1,2.1677472591400146,None,,,,,,,,,,,,,,,,,,186,1,2025-03-04_14h48.56.176,comp,2024.2.4,57.714908466441365,2025-03-04 14h49.02.438234 -0500,
88,88,0,filler_random,None,None,None,None,None,None,None,None,None,None,2,2.79477596282959,None,,,,,0,0,0,0,0,88,88,158,400.2978594303131,,,,,,,,,,,,,,,,,,,,,,,,,,,,,,,,,,,,,,,,,,,,,,,,,,,,,,,,,,,,,,,,,,,,,,,,,,,,,,,,,88.21080674940335,117.88146708535757,146.65834363958857,178.90122349250777,111.06620011296928,114.5668591330831,1.0,1.1,-724,282,-480,281,-237,286,400.2806899547577,400.28076672554016,400.28362345695496,400.2978594303131,400.43876218795776,400.43876218795776,400.43876218795776,400.43876218795776,400.43876218795776,400.43876218795776,400.43876218795776,403.1060028076172,2,2.79477596282959,None,,,,,,,,,,,,,,,,,,186,1,2025-03-04_14h48.56.176,comp,2024.2.4,57.714908466441365,2025-03-04 14h49.02.438234 -0500,
89,89,0,critical,whd,35.0,2.1,upper,125.0,200.0,200.0,125.0,127.0,127.0,2,3.4344356060028076,None,,,,,0,0,0,0,0,89,89,13,403.12207436561584,,,,,,,,,,,,,,,,,,,,,,,,,,,,,,,,,,,,,,,,,,,,,,,,,,,,,,,,,,,,,,,,,,,,,,,,,,,,,,,,,125.0,200.0,200.0,125.0,127.0,127.0,2.1,2.12,-258,-254,0,-259,222,283,403.107568025589,403.1076412200928,403.1111948490143,403.12207436561584,403.2782566547394,403.2782566547394,403.2782566547394,403.2782566547394,403.2782566547394,403.2782566547394,403.2782566547394,406.5705211162567,2,3.4344356060028076,None,,,,,,,,,,,,,,,,,,186,1,2025-03-04_14h48.56.176,comp,2024.2.4,57.714908466441365,2025-03-04 14h49.02.438234 -0500,
90,90,0,critical,dwh,35.0,4.0,upper,127.0,127.0,125.0,200.0,200.0,125.0,2,2.1071860790252686,None,,,,,0,0,0,0,0,90,90,65,406.5853612422943,,,,,,,,,,,,,,,,,,,,,,,,,,,,,,,,,,,,,,,,,,,,,,,,,,,,,,,,,,,,,,,,,,,,,,,,,,,,,,,,,127.0,127.0,125.0,200.0,200.0,125.0,4.0,4.1,-260,-261,0,13,258,-277,406.57198429107666,406.57205843925476,406.5748794078827,406.5853612422943,406.7252016067505,406.7252016067505,406.7252016067505,406.7252016067505,406.7252016067505,406.7252016067505,406.7252016067505,408.70844173431396,2,2.1071860790252686,None,,,,,,,,,,,,,,,,,,186,1,2025-03-04_14h48.56.176,comp,2024.2.4,57.714908466441365,2025-03-04 14h49.02.438234 -0500,
91,91,0,critical,whd,35.0,1.0,lower,57.0,133.0,133.0,57.0,70.0,70.0,3,5.064659833908081,None,,,,,0,0,0,0,0,91,91,84,408.7241487503052,,,,,,,,,,,,,,,,,,,,,,,,,,,,,,,,,,,,,,,,,,,,,,,,,,,,,,,,,,,,,,,,,,,,,,,,,,,,,,,,,57.0,133.0,133.0,57.0,70.0,70.0,1.0,1.2,-191,-15,0,14,160,-7,408.71006631851196,408.7101936340332,408.7137658596039,408.7241487503052,408.87350273132324,408.87350273132324,408.87350273132324,408.87350273132324,408.87350273132324,408.87350273132324,408.87350273132324,413.7914788722992,3,5.064659833908081,None,,,,,,,,,,,,,,,,,,186,1,2025-03-04_14h48.56.176,comp,2024.2.4,57.714908466441365,2025-03-04 14h49.02.438234 -0500,
92,92,0,critical,whd,35.0,2.1,lower,57.0,133.0,133.0,57.0,70.0,70.0,2,3.700268030166626,None,,,,,0,0,0,0,0,92,92,36,413.8082745075226,,,,,,,,,,,,,,,,,,,,,,,,,,,,,,,,,,,,,,,,,,,,,,,,,,,,,,,,,,,,,,,,,,,,,,,,,,,,,,,,,57.0,133.0,133.0,57.0,70.0,70.0,2.1,2.12,-191,-258,0,-268,160,289,413.79304575920105,413.7931983470917,413.79654455184937,413.8082745075226,413.96103596687317,413.96103596687317,413.96103596687317,413.96103596687317,413.96103596687317,413.96103596687317,413.96103596687317,417.5111973285675,2,3.700268030166626,None,,,,,,,,,,,,,,,,,,186,1,2025-03-04_14h48.56.176,comp,2024.2.4,57.714908466441365,2025-03-04 14h49.02.438234 -0500,
93,93,0,filler_random,None,None,None,None,None,None,None,None,None,None,3,2.4375853538513184,None,,,,,0,0,0,0,0,93,93,162,417.5271408557892,,,,,,,,,,,,,,,,,,,,,,,,,,,,,,,,,,,,,,,,,,,,,,,,,,,,,,,,,,,,,,,,,,,,,,,,,,,,,,,,,68.4122417769778,177.80111563508476,76.81243096154846,140.72489568946196,96.22281785905867,104.49890700796321,1.0,1.1,-735,265,-480,281,-261,254,417.51291966438293,417.5129952430725,417.51638197898865,417.5271408557892,417.67938804626465,417.67938804626465,417.67938804626465,417.67938804626465,417.67938804626465,417.67938804626465,417.67938804626465,419.97791934013367,3,2.4375853538513184,None,,,,,,,,,,,,,,,,,,186,1,2025-03-04_14h48.56.176,comp,2024.2.4,57.714908466441365,2025-03-04 14h49.02.438234 -0500,
94,94,0,critical,hwd,35.0,1.0,upper,200.0,125.0,125.0,200.0,127.0,127.0,3,6.4352874755859375,None,,,,,0,0,0,0,0,94,94,97,419.99333333969116,,,,,,,,,,,,,,,,,,,,,,,,,,,,,,,,,,,,,,,,,,,,,,,,,,,,,,,,,,,,,,,,,,,,,,,,,,,,,,,,,200.0,125.0,125.0,200.0,127.0,127.0,1.0,1.3,222,-276,480,-260,740,-273,419.9795174598694,419.97958970069885,419.9829468727112,419.99333333969116,420.1437063217163,420.1437063217163,420.1437063217163,420.1437063217163,420.1437063217163,420.1437063217163,420.1437063217163,426.44643688201904,3,6.4352874755859375,None,,,,,,,,,,,,,,,,,,186,1,2025-03-04_14h48.56.176,comp,2024.2.4,57.714908466441365,2025-03-04 14h49.02.438234 -0500,
95,95,0,critical,hdw,35.0,2.1,lower,133.0,57.0,70.0,70.0,57.0,133.0,3,2.576310634613037,None,,,,,0,0,0,0,0,95,95,44,426.4619450569153,,,,,,,,,,,,,,,,,,,,,,,,,,,,,,,,,,,,,,,,,,,,,,,,,,,,,,,,,,,,,,,,,,,,,,,,,,,,,,,,,133.0,57.0,70.0,70.0,57.0,133.0,2.1,2.11,-160,273,0,290,198,-251,426.4480891227722,426.4481921195984,426.4515700340271,426.4619450569153,426.61199593544006,426.61199593544006,426.61199593544006,426.61199593544006,426.61199593544006,426.61199593544006,426.61199593544006,429.0449392795563,3,2.576310634613037,None,,,,,,,,,,,,,,,,,,186,1,2025-03-04_14h48.56.176,comp,2024.2.4,57.714908466441365,2025-03-04 14h49.02.438234 -0500,
96,96,0,filler_random,None,None,None,None,None,None,None,None,None,None,1,3.1757516860961914,None,,,,,0,0,0,0,0,96,96,148,429.0609519481659,,,,,,,,,,,,,,,,,,,,,,,,,,,,,,,,,,,,,,,,,,,,,,,,,,,,,,,,,,,,,,,,,,,,,,,,,,,,,,,,,87.83567400534955,144.72703046809485,169.77086123329204,60.338773047123226,121.55517004341111,77.618880615725,3.0,3.2,-199,-281,0,-18,165,265,429.0466778278351,429.0467736721039,429.0499861240387,429.0609519481659,429.2011411190033,429.2011411190033,429.2011411190033,429.2011411190033,429.2011411190033,429.2011411190033,429.2011411190033,432.24757146835327,1,3.1757516860961914,None,,,,,,,,,,,,,,,,,,186,1,2025-03-04_14h48.56.176,comp,2024.2.4,57.714908466441365,2025-03-04 14h49.02.438234 -0500,
97,97,0,critical,hwd,35.0,4.0,upper,200.0,125.0,125.0,200.0,127.0,127.0,1,1.5868141651153564,None,,,,,0,0,0,0,0,97,97,101,432.26581501960754,,,,,,,,,,,,,,,,,,,,,,,,,,,,,,,,,,,,,,,,,,,,,,,,,,,,,,,,,,,,,,,,,,,,,,,,,,,,,,,,,200.0,125.0,125.0,200.0,127.0,127.0,4.0,4.1,-258,-264,0,17,260,-260,432.2491919994354,432.249267578125,432.2526216506958,432.26581501960754,432.4151301383972,432.4151301383972,432.4151301383972,432.4151301383972,432.4151301383972,432.4151301383972,432.4151301383972,433.86530923843384,1,1.5868141651153564,None,,,,,,,,,,,,,,,,,,186,1,2025-03-04_14h48.56.176,comp,2024.2.4,57.714908466441365,2025-03-04 14h49.02.438234 -0500,
98,98,0,critical,hwd,35.0,2.1,upper,200.0,125.0,125.0,200.0,127.0,127.0,3,3.4029643535614014,None,,,,,0,0,0,0,0,98,98,17,433.88161516189575,,,,,,,,,,,,,,,,,,,,,,,,,,,,,,,,,,,,,,,,,,,,,,,,,,,,,,,,,,,,,,,,,,,,,,,,,,,,,,,,,200.0,125.0,125.0,200.0,127.0,127.0,2.1,2.11,-258,258,0,260,260,-261,433.8669157028198,433.8669910430908,433.8702516555786,433.88161516189575,434.03087520599365,434.03087520599365,434.03087520599365,434.03087520599365,434.03087520599365,434.03087520599365,434.03087520599365,437.29926800727844,3,3.4029643535614014,None,,,,,,,,,,,,,,,,,,186,1,2025-03-04_14h48.56.176,comp,2024.2.4,57.714908466441365,2025-03-04 14h49.02.438234 -0500,
99,99,0,filler_square,None,None,None,None,None,None,None,None,None,None,1,4.041858434677124,None,,,,,0,0,0,0,0,99,99,173,437.3153648376465,,,,,,,,,,,,,,,,,,,,,,,,,,,,,,,,,,,,,,,,,,,,,,,,,,,,,,,,,,,,,,,,,,,,,,,,,,,,,,,,,155.6396852704974,155.6396852704974,90.18384286865438,75.18020714003596,78.39371684934964,111.15646965000214,2.2,2.22,-211,257,0,-270,189,-263,437.3010232448578,437.30109691619873,437.30412912368774,437.3153648376465,437.46690940856934,437.46690940856934,437.46690940856934,437.46690940856934,437.46690940856934,437.46690940856934,437.46690940856934,441.3681607246399,1,4.041858434677124,None,,,,,,,,,,,,,,,,,,186,1,2025-03-04_14h48.56.176,comp,2024.2.4,57.714908466441365,2025-03-04 14h49.02.438234 -0500,
100,100,0,critical,whd,20.0,4.0,upper,125.0,200.0,200.0,125.0,141.0,141.0,2,4.436530113220215,None,,,,,0,0,0,0,0,100,100,95,441.3840525150299,,,,,,,,,,,,,,,,,,,,,,,,,,,,,,,,,,,,,,,,,,,,,,,,,,,,,,,,,,,,,,,,,,,,,,,,,,,,,,,,,125.0,200.0,200.0,125.0,141.0,141.0,4.0,4.2,-258,-15,0,-263,229,-5,441.36974000930786,441.36981534957886,441.37318563461304,441.3840525150299,441.533935546875,441.533935546875,441.533935546875,441.533935546875,441.533935546875,441.533935546875,441.533935546875,445.83312368392944,2,4.436530113220215,None,,,,,,,,,,,,,,,,,,186,1,2025-03-04_14h48.56.176,comp,2024.2.4,57.714908466441365,2025-03-04 14h49.02.438234 -0500,
101,101,0,critical,dwh,20.0,2.1,lower,78.0,78.0,57.0,133.0,133.0,57.0,2,2.02707576751709,None,,,,,0,0,0,0,0,101,101,6,445.8502116203308,,,,,,,,,,,,,,,,,,,,,,,,,,,,,,,,,,,,,,,,,,,,,,,,,,,,,,,,,,,,,,,,,,,,,,,,,,,,,,,,,78.0,78.0,57.0,133.0,133.0,57.0,2.1,2.11,-202,266,0,285,191,-281,445.8346173763275,445.8346915245056,445.83749747276306,445.8502116203308,446.0062081813812,446.0062081813812,446.0062081813812,446.0062081813812,446.0062081813812,446.0062081813812,446.0062081813812,447.8866984844208,2,2.02707576751709,None,,,,,,,,,,,,,,,,,,186,1,2025-03-04_14h48.56.176,comp,2024.2.4,57.714908466441365,2025-03-04 14h49.02.438234 -0500,
102,102,0,filler_random,None,None,None,None,None,None,None,None,None,None,2,4.613903760910034,None,,,,,0,0,0,0,0,102,102,133,447.902930021286,,,,,,,,,,,,,,,,,,,,,,,,,,,,,,,,,,,,,,,,,,,,,,,,,,,,,,,,,,,,,,,,,,,,,,,,,,,,,,,,,92.14623403896114,157.11948002969078,102.17674196676245,157.05567186953806,87.30185812311615,153.09579035896027,3.0,3.1,-253,254,0,3,251,-262,447.88858342170715,447.8886818885803,447.89204716682434,447.902930021286,448.05039072036743,448.05039072036743,448.05039072036743,448.05039072036743,448.05039072036743,448.05039072036743,448.05039072036743,452.5222339630127,2,4.613903760910034,None,,,,,,,,,,,,,,,,,,186,1,2025-03-04_14h48.56.176,comp,2024.2.4,57.714908466441365,2025-03-04 14h49.02.438234 -0500,
103,103,0,critical,dwh,35.0,2.1,upper,127.0,127.0,125.0,200.0,200.0,125.0,3,1.8593425750732422,None,,,,,0,0,0,0,0,103,103,29,452.5381956100464,,,,,,,,,,,,,,,,,,,,,,,,,,,,,,,,,,,,,,,,,,,,,,,,,,,,,,,,,,,,,,,,,,,,,,,,,,,,,,,,,127.0,127.0,125.0,200.0,200.0,125.0,2.1,2.11,-260,253,0,268,258,-277,452.52381348609924,452.5239074230194,452.52735233306885,452.5381956100464,452.686874628067,452.686874628067,452.686874628067,452.686874628067,452.686874628067,452.686874628067,452.686874628067,454.4070465564728,3,1.8593425750732422,None,,,,,,,,,,,,,,,,,,186,1,2025-03-04_14h48.56.176,comp,2024.2.4,57.714908466441365,2025-03-04 14h49.02.438234 -0500,
104,104,0,filler_square,None,None,None,None,None,None,None,None,None,None,2,1.1888477802276611,None,,,,,0,0,0,0,0,104,104,181,454.4236855506897,,,,,,,,,,,,,,,,,,,,,,,,,,,,,,,,,,,,,,,,,,,,,,,,,,,,,,,,,,,,,,,,,,,,,,,,,,,,,,,,,148.79396438619366,66.76056209074686,194.43587782153654,194.43587782153654,185.39409904376393,187.99752559607606,2.2,2.22,-227,274,0,-290,287,-284,454.40906286239624,454.4091725349426,454.412894487381,454.4236855506897,454.5723080635071,454.5723080635071,454.5723080635071,454.5723080635071,454.5723080635071,454.5723080635071,454.5723080635071,455.6225025653839,2,1.1888477802276611,None,,,,,,,,,,,,,,,,,,186,1,2025-03-04_14h48.56.176,comp,2024.2.4,57.714908466441365,2025-03-04 14h49.02.438234 -0500,
105,105,0,critical,whd,20.0,2.1,lower,57.0,133.0,133.0,57.0,78.0,78.0,2,3.6135551929473877,None,,,,,0,0,0,0,0,105,105,38,455.63918232917786,,,,,,,,,,,,,,,,,,,,,,,,,,,,,,,,,,,,,,,,,,,,,,,,,,,,,,,,,,,,,,,,,,,,,,,,,,,,,,,,,57.0,133.0,133.0,57.0,78.0,78.0,2.1,2.11,-191,253,0,266,164,-279,455.6240680217743,455.6241919994354,455.62763237953186,455.63918232917786,455.7913043498993,455.7913043498993,455.7913043498993,455.7913043498993,455.7913043498993,455.7913043498993,455.7913043498993,459.2699100971222,2,3.6135551929473877,None,,,,,,,,,,,,,,,,,,186,1,2025-03-04_14h48.56.176,comp,2024.2.4,57.714908466441365,2025-03-04 14h49.02.438234 -0500,
106,106,0,filler_square,None,None,None,None,None,None,None,None,None,None,3,5.322697162628174,None,,,,,0,0,0,0,0,106,106,199,459.2899703979492,,,,,,,,,,,,,,,,,,,,,,,,,,,,,,,,,,,,,,,,,,,,,,,,,,,,,,,,,,,,,,,,,,,,,,,,,,,,,,,,,113.60336717800695,149.88545725807666,114.7168571252782,118.88939383950999,158.76628033657988,158.76628033657988,3.0,3.2,-230,-257,0,10,235,262,459.27174139022827,459.2718152999878,459.2746739387512,459.2899703979492,459.4236788749695,459.4236788749695,459.4236788749695,459.4236788749695,459.4236788749695,459.4236788749695,459.4236788749695,464.62707710266113,3,5.322697162628174,None,,,,,,,,,,,,,,,,,,186,1,2025-03-04_14h48.56.176,comp,2024.2.4,57.714908466441365,2025-03-04 14h49.02.438234 -0500,
107,107,0,catch,None,None,None,None,None,None,None,None,None,None,3,1.4501876831054688,None,,,,,0,0,0,0,0,107,107,121,464.64262533187866,,,,,,,,,,,,,,,,,,,,,,,,,,,,,,,,,,,,,,,,,,,,,,,,,,,,,,,,,,,,,,,,,,,,,,,,,,,,,,,,,79,111,96,94,167,158,1.0,1.1,-678,276,-480,260,-258,258,464.6289749145508,464.62905049324036,464.6320343017578,464.64262533187866,464.7930293083191,464.7930293083191,464.7930293083191,464.7930293083191,464.7930293083191,464.7930293083191,464.7930293083191,466.111074924469,3,1.4501876831054688,None,,,,,,,,,,,,,,,,,,186,1,2025-03-04_14h48.56.176,comp,2024.2.4,57.714908466441365,2025-03-04 14h49.02.438234 -0500,
108,108,0,critical,wdh,20.0,2.1,lower,57.0,133.0,78.0,78.0,133.0,57.0,3,1.6061046123504639,None,,,,,0,0,0,0,0,108,108,34,466.1265959739685,,,,,,,,,,,,,,,,,,,,,,,,,,,,,,,,,,,,,,,,,,,,,,,,,,,,,,,,,,,,,,,,,,,,,,,,,,,,,,,,,57.0,133.0,78.0,78.0,133.0,57.0,2.1,2.11,-202,260,0,290,164,-286,466.11267471313477,466.1127507686615,466.1161768436432,466.1265959739685,466.27563524246216,466.27563524246216,466.27563524246216,466.27563524246216,466.27563524246216,466.27563524246216,466.27563524246216,467.74503898620605,3,1.6061046123504639,None,,,,,,,,,,,,,,,,,,186,1,2025-03-04_14h48.56.176,comp,2024.2.4,57.714908466441365,2025-03-04 14h49.02.438234 -0500,
109,109,0,filler_random,None,None,None,None,None,None,None,None,None,None,2,1.0916929244995117,None,,,,,0,0,0,0,0,109,109,155,467.76092290878296,,,,,,,,,,,,,,,,,,,,,,,,,,,,,,,,,,,,,,,,,,,,,,,,,,,,,,,,,,,,,,,,,,,,,,,,,,,,,,,,,90.5103235276728,103.53661200533932,187.85588133066068,172.05279333810455,132.86903426128066,111.99773405412637,2.1,2.11,-234,250,0,278,238,-261,467.74688625335693,467.7469608783722,467.7498140335083,467.76092290878296,467.9106705188751,467.9106705188751,467.9106705188751,467.9106705188751,467.9106705188751,467.9106705188751,467.9106705188751,468.86492943763733,2,1.0916929244995117,None,,,,,,,,,,,,,,,,,,186,1,2025-03-04_14h48.56.176,comp,2024.2.4,57.714908466441365,2025-03-04 14h49.02.438234 -0500,
110,110,0,critical,hdw,35.0,2.1,upper,200.0,125.0,127.0,127.0,125.0,200.0,1,1.8194599151611328,None,,,,,0,0,0,0,0,110,110,21,468.88121509552,,,,,,,,,,,,,,,,,,,,,,,,,,,,,,,,,,,,,,,,,,,,,,,,,,,,,,,,,,,,,,,,,,,,,,,,,,,,,,,,,200.0,125.0,127.0,127.0,125.0,200.0,2.1,2.12,-222,-260,0,-268,260,283,468.866575717926,468.8666489124298,468.8699417114258,468.88121509552,469.0272777080536,469.0272777080536,469.0272777080536,469.0272777080536,469.0272777080536,469.0272777080536,469.0272777080536,470.71679759025574,1,1.8194599151611328,None,,,,,,,,,,,,,,,,,,186,1,2025-03-04_14h48.56.176,comp,2024.2.4,57.714908466441365,2025-03-04 14h49.02.438234 -0500,
111,111,0,filler_square,None,None,None,None,None,None,None,None,None,None,2,2.088287115097046,None,,,,,0,0,0,0,0,111,111,180,470.7330672740936,,,,,,,,,,,,,,,,,,,,,,,,,,,,,,,,,,,,,,,,,,,,,,,,,,,,,,,,,,,,,,,,,,,,,,,,,,,,,,,,,79.70092076542842,74.6912652768768,86.89107515183186,86.89107515183186,70.71010039405549,74.44421003068143,2.1,2.12,-177,-288,0,-287,177,266,470.71868562698364,470.7188129425049,470.7219429016113,470.7330672740936,470.8831830024719,470.8831830024719,470.8831830024719,470.8831830024719,470.8831830024719,470.8831830024719,470.8831830024719,472.8282346725464,2,2.088287115097046,None,,,,,,,,,,,,,,,,,,186,1,2025-03-04_14h48.56.176,comp,2024.2.4,57.714908466441365,2025-03-04 14h49.02.438234 -0500,
112,112,0,critical,wdh,20.0,1.0,upper,125.0,200.0,141.0,141.0,200.0,125.0,1,2.96805739402771,None,,,,,0,0,0,0,0,112,112,79,472.84465765953064,,,,,,,,,,,,,,,,,,,,,,,,,,,,,,,,,,,,,,,,,,,,,,,,,,,,,,,,,,,,,,,,,,,,,,,,,,,,,,,,,125.0,200.0,141.0,141.0,200.0,125.0,1.0,1.1,-746,250,-480,282,-251,280,472.8297257423401,472.8298010826111,472.8337924480438,472.84465765953064,472.9954266548157,472.9954266548157,472.9954266548157,472.9954266548157,472.9954266548157,472.9954266548157,472.9954266548157,475.83037209510803,1,2.96805739402771,None,,,,,,,,,,,,,,,,,,186,1,2025-03-04_14h48.56.176,comp,2024.2.4,57.714908466441365,2025-03-04 14h49.02.438234 -0500,
113,113,0,catch,None,None,None,None,None,None,None,None,None,None,1,1.2714593410491943,None,,,,,0,0,0,0,0,113,113,127,475.84666657447815,,,,,,,,,,,,,,,,,,,,,,,,,,,,,,,,,,,,,,,,,,,,,,,,,,,,,,,,,,,,,,,,,,,,,,,,,,,,,,,,,133,192,133,57,86,104,2.1,2.12,-220,-258,0,-264,176,251,475.8324897289276,475.8325686454773,475.8363661766052,475.84666657447815,475.98756289482117,475.98756289482117,475.98756289482117,475.98756289482117,475.98756289482117,475.98756289482117,475.98756289482117,477.12933802604675,1,1.2714593410491943,None,,,,,,,,,,,,,,,,,,186,1,2025-03-04_14h48.56.176,comp,2024.2.4,57.714908466441365,2025-03-04 14h49.02.438234 -0500,
114,114,0,critical,hwd,20.0,2.1,upper,200.0,125.0,125.0,200.0,141.0,141.0,2,1.324012041091919,None,,,,,0,0,0,0,0,114,114,19,477.1449432373047,,,,,,,,,,,,,,,,,,,,,,,,,,,,,,,,,,,,,,,,,,,,,,,,,,,,,,,,,,,,,,,,,,,,,,,,,,,,,,,,,200.0,125.0,125.0,200.0,141.0,141.0,2.1,2.12,-258,-254,0,-289,266,251,477.13080620765686,477.13088297843933,477.13416147232056,477.1449432373047,477.2990188598633,477.2990188598633,477.2990188598633,477.2990188598633,477.2990188598633,477.2990188598633,477.2990188598633,478.4786081314087,2,1.324012041091919,None,,,,,,,,,,,,,,,,,,186,1,2025-03-04_14h48.56.176,comp,2024.2.4,57.714908466441365,2025-03-04 14h49.02.438234 -0500,
115,115,0,filler_square,None,None,None,None,None,None,None,None,None,None,3,1.3688349723815918,None,,,,,0,0,0,0,0,115,115,198,478.5008087158203,,,,,,,,,,,,,,,,,,,,,,,,,,,,,,,,,,,,,,,,,,,,,,,,,,,,,,,,,,,,,,,,,,,,,,,,,,,,,,,,,143.3682993619861,58.52127044174794,134.4816677472705,63.45790866169933,165.57254046185352,165.57254046185352,2.1,2.11,-157,253,0,290,211,-266,478.4805257320404,478.4806046485901,478.48380732536316,478.5008087158203,478.63594150543213,478.63594150543213,478.63594150543213,478.63594150543213,478.63594150543213,478.63594150543213,478.63594150543213,479.8801517486572,3,1.3688349723815918,None,,,,,,,,,,,,,,,,,,186,1,2025-03-04_14h48.56.176,comp,2024.2.4,57.714908466441365,2025-03-04 14h49.02.438234 -0500,
116,116,0,catch,None,None,None,None,None,None,None,None,None,None,2,1.0831303596496582,None,,,,,0,0,0,0,0,116,116,126,479.89758825302124,,,,,,,,,,,,,,,,,,,,,,,,,,,,,,,,,,,,,,,,,,,,,,,,,,,,,,,,,,,,,,,,,,,,,,,,,,,,,,,,,85,105,199,126,64,126,2.1,2.12,-212,-275,0,-288,222,281,479.88227558135986,479.88235354423523,479.8863832950592,479.89758825302124,480.04820942878723,480.04820942878723,480.04820942878723,480.04820942878723,480.04820942878723,480.04820942878723,480.04820942878723,480.99688744544983,2,1.0831303596496582,None,,,,,,,,,,,,,,,,,,186,1,2025-03-04_14h48.56.176,comp,2024.2.4,57.714908466441365,2025-03-04 14h49.02.438234 -0500,
117,117,0,critical,whd,35.0,3.0,upper,125.0,200.0,200.0,125.0,127.0,127.0,1,2.5919148921966553,None,,,,,0,0,0,0,0,117,117,87,481.01279497146606,,,,,,,,,,,,,,,,,,,,,,,,,,,,,,,,,,,,,,,,,,,,,,,,,,,,,,,,,,,,,,,,,,,,,,,,,,,,,,,,,125.0,200.0,200.0,125.0,127.0,127.0,3.0,3.1,-258,275,0,-6,222,-263,480.9983649253845,480.9984378814697,481.00161385536194,481.01279497146606,481.1640577316284,481.1640577316284,481.1640577316284,481.1640577316284,481.1640577316284,481.1640577316284,481.1640577316284,483.6230721473694,1,2.5919148921966553,None,,,,,,,,,,,,,,,,,,186,1,2025-03-04_14h48.56.176,comp,2024.2.4,57.714908466441365,2025-03-04 14h49.02.438234 -0500,
118,118,0,critical,hwd,35.0,4.0,lower,133.0,57.0,57.0,133.0,70.0,70.0,2,2.4043819904327393,None,,,,,0,0,0,0,0,118,118,100,483.6405122280121,,,,,,,,,,,,,,,,,,,,,,,,,,,,,,,,,,,,,,,,,,,,,,,,,,,,,,,,,,,,,,,,,,,,,,,,,,,,,,,,,133.0,57.0,57.0,133.0,70.0,70.0,4.0,4.2,-191,19,0,-289,198,4,483.62452149391174,483.6245939731598,483.62742853164673,483.6405122280121,483.78194856643677,483.78194856643677,483.78194856643677,483.78194856643677,483.78194856643677,483.78194856643677,483.78194856643677,486.04983472824097,2,2.4043819904327393,None,,,,,,,,,,,,,,,,,,186,1,2025-03-04_14h48.56.176,comp,2024.2.4,57.714908466441365,2025-03-04 14h49.02.438234 -0500,
119,119,0,critical,hwd,35.0,2.1,upper,200.0,125.0,125.0,200.0,127.0,127.0,1,1.1351866722106934,None,,,,,0,0,0,0,0,119,119,41,486.07084560394287,,,,,,,,,,,,,,,,,,,,,,,,,,,,,,,,,,,,,,,,,,,,,,,,,,,,,,,,,,,,,,,,,,,,,,,,,,,,,,,,,200.0,125.0,125.0,200.0,127.0,127.0,2.1,2.12,-258,-275,0,-266,260,264,486.05132246017456,486.05139780044556,486.0551452636719,486.07084560394287,486.21616315841675,486.21616315841675,486.21616315841675,486.21616315841675,486.21616315841675,486.21616315841675,486.21616315841675,487.21696424484253,1,1.1351866722106934,None,,,,,,,,,,,,,,,,,,186,1,2025-03-04_14h48.56.176,comp,2024.2.4,57.714908466441365,2025-03-04 14h49.02.438234 -0500,
120,120,0,critical,dhw,35.0,4.0,upper,127.0,127.0,200.0,125.0,125.0,200.0,2,1.8199567794799805,None,,,,,0,0,0,0,0,120,120,53,487.232980966568,,,,,,,,,,,,,,,,,,,,,,,,,,,,,,,,,,,,,,,,,,,,,,,,,,,,,,,,,,,,,,,,,,,,,,,,,,,,,,,,,127.0,127.0,200.0,125.0,125.0,200.0,4.0,4.2,-222,18,0,-261,258,7,487.2185835838318,487.21866154670715,487.22205543518066,487.232980966568,487.38809466362,487.38809466362,487.38809466362,487.38809466362,487.38809466362,487.38809466362,487.38809466362,489.0663843154907,2,1.8199567794799805,None,,,,,,,,,,,,,,,,,,186,1,2025-03-04_14h48.56.176,comp,2024.2.4,57.714908466441365,2025-03-04 14h49.02.438234 -0500,
121,121,0,filler_random,None,None,None,None,None,None,None,None,None,None,2,1.60111403465271,None,,,,,0,0,0,0,0,121,121,159,489.08358693122864,,,,,,,,,,,,,,,,,,,,,,,,,,,,,,,,,,,,,,,,,,,,,,,,,,,,,,,,,,,,,,,,,,,,,,,,,,,,,,,,,86.40276183326489,85.50840077019797,190.1289404293807,108.54664930975798,184.07276228183696,87.94885671028548,3.0,3.1,-193,280,0,16,194,-263,489.06820249557495,489.0682997703552,489.071656703949,489.08358693122864,489.2222101688385,489.2222101688385,489.2222101688385,489.2222101688385,489.2222101688385,489.2222101688385,489.2222101688385,490.6996946334839,2,1.60111403465271,None,,,,,,,,,,,,,,,,,,186,1,2025-03-04_14h48.56.176,comp,2024.2.4,57.714908466441365,2025-03-04 14h49.02.438234 -0500,
122,122,0,filler_square,None,None,None,None,None,None,None,None,None,None,1,2.977114200592041,None,,,,,0,0,0,0,0,122,122,205,490.7160737514496,,,,,,,,,,,,,,,,,,,,,,,,,,,,,,,,,,,,,,,,,,,,,,,,,,,,,,,,,,,,,,,,,,,,,,,,,,,,,,,,,61.31685372450231,62.07601352948577,62.7215448240962,62.7215448240962,57.61655849911167,60.86179875562708,2.2,2.21,-158,-253,0,285,158,256,490.7016568183899,490.7017319202423,490.70485067367554,490.7160737514496,490.8672161102295,490.8672161102295,490.8672161102295,490.8672161102295,490.8672161102295,490.8672161102295,490.8672161102295,493.70227789878845,1,2.977114200592041,None,,,,,,,,,,,,,,,,,,186,1,2025-03-04_14h48.56.176,comp,2024.2.4,57.714908466441365,2025-03-04 14h49.02.438234 -0500,
123,123,0,filler_random,None,None,None,None,None,None,None,None,None,None,3,3.6551671028137207,None,,,,,0,0,0,0,0,123,123,169,493.71874809265137,,,,,,,,,,,,,,,,,,,,,,,,,,,,,,,,,,,,,,,,,,,,,,,,,,,,,,,,,,,,,,,,,,,,,,,,,,,,,,,,,81.14700011614822,83.50143433642836,106.74207235307573,71.52190177153844,74.83584190272308,154.38673178470117,2.1,2.12,-174,-271,0,-287,209,279,493.70402479171753,493.7041778564453,493.7079772949219,493.71874809265137,493.86597657203674,493.86597657203674,493.86597657203674,493.86597657203674,493.86597657203674,493.86597657203674,493.86597657203674,497.3868110179901,3,3.6551671028137207,None,,,,,,,,,,,,,,,,,,186,1,2025-03-04_14h48.56.176,comp,2024.2.4,57.714908466441365,2025-03-04 14h49.02.438234 -0500,
124,124,0,critical,hdw,20.0,3.0,upper,200.0,125.0,141.0,141.0,125.0,200.0,3,2.1068291664123535,None,,,,,0,0,0,0,0,124,124,117,497.4022145271301,,,,,,,,,,,,,,,,,,,,,,,,,,,,,,,,,,,,,,,,,,,,,,,,,,,,,,,,,,,,,,,,,,,,,,,,,,,,,,,,,200.0,125.0,141.0,141.0,125.0,200.0,3.0,3.1,-229,253,0,19,266,-285,497.3883936405182,497.38846921920776,497.3918879032135,497.4022145271301,497.54949426651,497.54949426651,497.54949426651,497.54949426651,497.54949426651,497.54949426651,497.54949426651,499.52196407318115,3,2.1068291664123535,None,,,,,,,,,,,,,,,,,,186,1,2025-03-04_14h48.56.176,comp,2024.2.4,57.714908466441365,2025-03-04 14h49.02.438234 -0500,
125,125,0,critical,hdw,35.0,1.0,upper,200.0,125.0,127.0,127.0,125.0,200.0,3,1.9871530532836914,None,,,,,0,0,0,0,0,125,125,109,499.53776264190674,,,,,,,,,,,,,,,,,,,,,,,,,,,,,,,,,,,,,,,,,,,,,,,,,,,,,,,,,,,,,,,,,,,,,,,,,,,,,,,,,200.0,125.0,127.0,127.0,125.0,200.0,1.0,1.3,258,-255,480,-269,740,-290,499.5235946178436,499.5236768722534,499.5270686149597,499.53776264190674,499.6924841403961,499.6924841403961,499.6924841403961,499.6924841403961,499.6924841403961,499.6924841403961,499.6924841403961,501.5395348072052,3,1.9871530532836914,None,,,,,,,,,,,,,,,,,,186,1,2025-03-04_14h48.56.176,comp,2024.2.4,57.714908466441365,2025-03-04 14h49.02.438234 -0500,
126,126,0,critical,dhw,20.0,1.0,upper,141.0,141.0,200.0,125.0,125.0,200.0,3,2.43990159034729,None,,,,,0,0,0,0,0,126,126,55,501.5570704936981,,,,,,,,,,,,,,,,,,,,,,,,,,,,,,,,,,,,,,,,,,,,,,,,,,,,,,,,,,,,,,,,,,,,,,,,,,,,,,,,,141.0,141.0,200.0,125.0,125.0,200.0,1.0,1.1,-709,290,-480,259,-222,254,501.54114842414856,501.54123520851135,501.5440788269043,501.5570704936981,501.70338797569275,501.70338797569275,501.70338797569275,501.70338797569275,501.70338797569275,501.70338797569275,501.70338797569275,504.0112853050232,3,2.43990159034729,None,,,,,,,,,,,,,,,,,,186,1,2025-03-04_14h48.56.176,comp,2024.2.4,57.714908466441365,2025-03-04 14h49.02.438234 -0500,
127,127,0,filler_square,None,None,None,None,None,None,None,None,None,None,1,1.406935691833496,None,,,,,0,0,0,0,0,127,127,208,504.03032183647156,,,,,,,,,,,,,,,,,,,,,,,,,,,,,,,,,,,,,,,,,,,,,,,,,,,,,,,,,,,,,,,,,,,,,,,,,,,,,,,,,59.384474112876816,60.76827701700353,62.61590809387188,62.61590809387188,62.18548181726945,62.01294096502358,2.2,2.22,-158,265,0,-255,158,-279,504.0131757259369,504.01328325271606,504.01654291152954,504.03032183647156,504.1719129085541,504.1719129085541,504.1719129085541,504.1719129085541,504.1719129085541,504.1719129085541,504.1719129085541,505.45583319664,1,1.406935691833496,None,,,,,,,,,,,,,,,,,,186,1,2025-03-04_14h48.56.176,comp,2024.2.4,57.714908466441365,2025-03-04 14h49.02.438234 -0500,
128,128,0,filler_square,None,None,None,None,None,None,None,None,None,None,3,2.7898788452148438,None,,,,,0,0,0,0,0,128,128,197,505.4718379974365,,,,,,,,,,,,,,,,,,,,,,,,,,,,,,,,,,,,,,,,,,,,,,,,,,,,,,,,,,,,,,,,,,,,,,,,,,,,,,,,,71.75800832970909,66.34618496922789,70.03260454460415,59.12393527760624,76.33764684018466,76.33764684018466,3.0,3.1,-159,265,0,-20,164,-256,505.4576346874237,505.4577102661133,505.46156764030457,505.4718379974365,505.62133169174194,505.62133169174194,505.62133169174194,505.62133169174194,505.62133169174194,505.62133169174194,505.62133169174194,508.27233958244324,3,2.7898788452148438,None,,,,,,,,,,,,,,,,,,186,1,2025-03-04_14h48.56.176,comp,2024.2.4,57.714908466441365,2025-03-04 14h49.02.438234 -0500,
129,129,0,critical,whd,35.0,4.0,upper,125.0,200.0,200.0,125.0,127.0,127.0,1,2.9014174938201904,None,,,,,0,0,0,0,0,129,129,89,508.2880048751831,,,,,,,,,,,,,,,,,,,,,,,,,,,,,,,,,,,,,,,,,,,,,,,,,,,,,,,,,,,,,,,,,,,,,,,,,,,,,,,,,125.0,200.0,200.0,125.0,127.0,127.0,4.0,4.1,-258,-261,0,-7,222,-287,508.27388620376587,508.27396273612976,508.2772753238678,508.2880048751831,508.437792301178,508.437792301178,508.437792301178,508.437792301178,508.437792301178,508.437792301178,508.437792301178,511.2037522792816,1,2.9014174938201904,None,,,,,,,,,,,,,,,,,,186,1,2025-03-04_14h48.56.176,comp,2024.2.4,57.714908466441365,2025-03-04 14h49.02.438234 -0500,
130,130,0,critical,hdw,20.0,1.0,lower,133.0,57.0,78.0,78.0,57.0,133.0,3,1.649104356765747,None,,,,,0,0,0,0,0,130,130,114,511.22009110450745,,,,,,,,,,,,,,,,,,,,,,,,,,,,,,,,,,,,,,,,,,,,,,,,,,,,,,,,,,,,,,,,,,,,,,,,,,,,,,,,,133.0,57.0,78.0,78.0,57.0,133.0,1.0,1.1,-644,257,-480,253,-278,285,511.2053098678589,511.20538449287415,511.20821475982666,511.22009110450745,511.35923314094543,511.35923314094543,511.35923314094543,511.35923314094543,511.35923314094543,511.35923314094543,511.35923314094543,512.8776109218597,3,1.649104356765747,None,,,,,,,,,,,,,,,,,,186,1,2025-03-04_14h48.56.176,comp,2024.2.4,57.714908466441365,2025-03-04 14h49.02.438234 -0500,
131,131,0,critical,dhw,20.0,2.1,upper,141.0,141.0,200.0,125.0,125.0,200.0,3,2.6983368396759033,None,,,,,0,0,0,0,0,131,131,3,512.898508310318,,,,,,,,,,,,,,,,,,,,,,,,,,,,,,,,,,,,,,,,,,,,,,,,,,,,,,,,,,,,,,,,,,,,,,,,,,,,,,,,,141.0,141.0,200.0,125.0,125.0,200.0,2.1,2.11,-229,287,0,277,258,-285,512.8791420459747,512.879269361496,512.8827791213989,512.898508310318,513.0405135154724,513.0405135154724,513.0405135154724,513.0405135154724,513.0405135154724,513.0405135154724,513.0405135154724,515.6085529327393,3,2.6983368396759033,None,,,,,,,,,,,,,,,,,,186,1,2025-03-04_14h48.56.176,comp,2024.2.4,57.714908466441365,2025-03-04 14h49.02.438234 -0500,
132,132,0,critical,dwh,20.0,2.1,lower,78.0,78.0,57.0,133.0,133.0,57.0,3,2.8518452644348145,None,,,,,0,0,0,0,0,132,132,30,515.6253442764282,,,,,,,,,,,,,,,,,,,,,,,,,,,,,,,,,,,,,,,,,,,,,,,,,,,,,,,,,,,,,,,,,,,,,,,,,,,,,,,,,78.0,78.0,57.0,133.0,133.0,57.0,2.1,2.11,-202,277,0,279,191,-277,515.6099965572357,515.6100716590881,515.6132390499115,515.6253442764282,515.7784452438354,515.7784452438354,515.7784452438354,515.7784452438354,515.7784452438354,515.7784452438354,515.7784452438354,518.4797616004944,3,2.8518452644348145,None,,,,,,,,,,,,,,,,,,186,1,2025-03-04_14h48.56.176,comp,2024.2.4,57.714908466441365,2025-03-04 14h49.02.438234 -0500,
133,133,0,critical,whd,20.0,4.0,lower,57.0,133.0,133.0,57.0,78.0,78.0,3,1.4340226650238037,None,,,,,0,0,0,0,0,133,133,94,518.499666929245,,,,,,,,,,,,,,,,,,,,,,,,,,,,,,,,,,,,,,,,,,,,,,,,,,,,,,,,,,,,,,,,,,,,,,,,,,,,,,,,,57.0,133.0,133.0,57.0,78.0,78.0,4.0,4.2,-191,9,0,-264,164,-2,518.481368303299,518.4814445972443,518.4842875003815,518.499666929245,518.6415708065033,518.6415708065033,518.6415708065033,518.6415708065033,518.6415708065033,518.6415708065033,518.6415708065033,519.9416179656982,3,1.4340226650238037,None,,,,,,,,,,,,,,,,,,186,1,2025-03-04_14h48.56.176,comp,2024.2.4,57.714908466441365,2025-03-04 14h49.02.438234 -0500,
134,134,0,critical,hdw,20.0,1.0,upper,200.0,125.0,141.0,141.0,125.0,200.0,1,2.942690849304199,None,,,,,0,0,0,0,0,134,134,115,519.9581506252289,,,,,,,,,,,,,,,,,,,,,,,,,,,,,,,,,,,,,,,,,,,,,,,,,,,,,,,,,,,,,,,,,,,,,,,,,,,,,,,,,200.0,125.0,141.0,141.0,125.0,200.0,1.0,1.2,-229,16,0,4,266,13,519.9431068897247,519.9432110786438,519.9465670585632,519.9581506252289,520.098879814148,520.098879814148,520.098879814148,520.098879814148,520.098879814148,520.098879814148,520.098879814148,522.9145743846893,1,2.942690849304199,None,,,,,,,,,,,,,,,,,,186,1,2025-03-04_14h48.56.176,comp,2024.2.4,57.714908466441365,2025-03-04 14h49.02.438234 -0500,
135,135,0,filler_square,None,None,None,None,None,None,None,None,None,None,3,1.329803705215454,None,,,,,0,0,0,0,0,135,135,178,522.9310121536255,,,,,,,,,,,,,,,,,,,,,,,,,,,,,,,,,,,,,,,,,,,,,,,,,,,,,,,,,,,,,,,,,,,,,,,,,,,,,,,,,155.0521346532745,85.90878385174119,101.77215201722873,70.12182677430101,174.57405651694557,174.57405651694557,4.0,4.2,-174,6,0,-256,218,-13,522.9164443016052,522.9165730476379,522.9197471141815,522.9310121536255,523.0770194530487,523.0770194530487,523.0770194530487,523.0770194530487,523.0770194530487,523.0770194530487,523.0770194530487,524.2805888652802,3,1.329803705215454,None,,,,,,,,,,,,,,,,,,186,1,2025-03-04_14h48.56.176,comp,2024.2.4,57.714908466441365,2025-03-04 14h49.02.438234 -0500,
136,136,0,critical,wdh,35.0,2.1,lower,57.0,133.0,70.0,70.0,133.0,57.0,3,1.2666699886322021,None,,,,,0,0,0,0,0,136,136,8,524.2982547283173,,,,,,,,,,,,,,,,,,,,,,,,,,,,,,,,,,,,,,,,,,,,,,,,,,,,,,,,,,,,,,,,,,,,,,,,,,,,,,,,,57.0,133.0,70.0,70.0,133.0,57.0,2.1,2.11,-198,283,0,287,160,-284,524.2823848724365,524.2825138568878,524.2855920791626,524.2982547283173,524.4482843875885,524.4482843875885,524.4482843875885,524.4482843875885,524.4482843875885,524.4482843875885,524.4482843875885,525.57732629776,3,1.2666699886322021,None,,,,,,,,,,,,,,,,,,186,1,2025-03-04_14h48.56.176,comp,2024.2.4,57.714908466441365,2025-03-04 14h49.02.438234 -0500,
137,137,0,critical,dhw,35.0,3.0,lower,70.0,70.0,133.0,57.0,57.0,133.0,2,1.6677331924438477,None,,,,,0,0,0,0,0,137,137,50,525.5931458473206,,,,,,,,,,,,,,,,,,,,,,,,,,,,,,,,,,,,,,,,,,,,,,,,,,,,,,,,,,,,,,,,,,,,,,,,,,,,,,,,,70.0,70.0,133.0,57.0,57.0,133.0,3.0,3.2,-160,-275,0,-16,191,265,525.5788412094116,525.5789155960083,525.5819909572601,525.5931458473206,525.7449538707733,525.7449538707733,525.7449538707733,525.7449538707733,525.7449538707733,525.7449538707733,525.7449538707733,527.262943983078,2,1.6677331924438477,None,,,,,,,,,,,,,,,,,,186,1,2025-03-04_14h48.56.176,comp,2024.2.4,57.714908466441365,2025-03-04 14h49.02.438234 -0500,
138,138,0,filler_square,None,None,None,None,None,None,None,None,None,None,3,2.6118316650390625,None,,,,,0,0,0,0,0,138,138,174,527.281396150589,,,,,,,,,,,,,,,,,,,,,,,,,,,,,,,,,,,,,,,,,,,,,,,,,,,,,,,,,,,,,,,,,,,,,,,,,,,,,,,,,68.45268656198249,80.05032086859623,68.8430839909413,82.40917663730325,92.33968307255309,92.33968307255309,1.0,1.3,303,-278,480,-269,663,-288,527.2648258209229,527.2649512290955,527.2678191661835,527.281396150589,527.4281997680664,527.4281997680664,527.4281997680664,527.4281997680664,527.4281997680664,527.4281997680664,527.4281997680664,529.896733045578,3,2.6118316650390625,None,,,,,,,,,,,,,,,,,,186,1,2025-03-04_14h48.56.176,comp,2024.2.4,57.714908466441365,2025-03-04 14h49.02.438234 -0500,
139,139,0,catch,None,None,None,None,None,None,None,None,None,None,1,1.3561363220214844,None,,,,,0,0,0,0,0,139,139,125,529.9127867221832,,,,,,,,,,,,,,,,,,,,,,,,,,,,,,,,,,,,,,,,,,,,,,,,,,,,,,,,,,,,,,,,,,,,,,,,,,,,,,,,,144,181,133,57,64,126,2.1,2.11,-215,254,0,284,188,-284,529.8986208438873,529.8986968994141,529.9020276069641,529.9127867221832,530.0610501766205,530.0610501766205,530.0610501766205,530.0610501766205,530.0610501766205,530.0610501766205,530.0610501766205,531.2784600257874,1,1.3561363220214844,None,,,,,,,,,,,,,,,,,,186,1,2025-03-04_14h48.56.176,comp,2024.2.4,57.714908466441365,2025-03-04 14h49.02.438234 -0500,
