thisN,thisTrialN,thisRepN,effect,order,distance,config,diag,h_1,w_1,h_2,w_2,h_3,w_3,rect_choice.keys,rect_choice.rt,rect_choice.duration,instructions_loop.thisRepN,instructions_loop.thisTrialN,instructions_loop.thisN,instructions_loop.thisIndex,blocks.thisRepN,blocks.thisTrialN,blocks.thisN,blocks.thisIndex,trials.thisRepN,trials.thisTrialN,trials.thisN,trials.thisIndex,thisRow.t,notes,consent.started,agree_button.started,decline_button.started,consent_img.started,mouse.started,consent.stopped,agree_button.numClicks,agree_button.timesOn,agree_button.timesOff,decline_button.numClicks,decline_button.timesOn,decline_button.timesOff,mouse.x,mouse.y,mouse.leftButton,mouse.midButton,mouse.rightButton,mouse.time,mouse.clicked_name,exp_params.started,exp_params.stopped,welcome.started,welcome_text.started,welcome.stopped,instructions_1.started,instructions_1_text_1.started,instructions_1_text_2.started,key_resp.started,instructions_1.stopped,instructions_loop.key_resp.keys,instructions_loop.key_resp.rt,instructions_loop.key_resp.duration,instructions_2.started,instructions_2_text_1.started,instructions_2_text_2.started,key_resp_2.started,instructions_2.stopped,instructions_loop.key_resp_2.keys,instructions_loop.key_resp_2.rt,instructions_loop.key_resp_2.duration,instructions_3.started,instructions_3_text_1.started,r1_instr3.started,r2_instr3.started,r3_instr3.started,r1_instr3_label.started,r2_instr3_label.started,r3_instr3_label.started,instructions_3_text_3.started,instructions_3_text_4.started,key_resp_3.started,instructions_3.stopped,instructions_loop.key_resp_3.keys,instructions_loop.key_resp_3.rt,instructions_loop.key_resp_3.duration,instructions_4.started,instructions_4_text_1.started,instructions_4_text_3.started,instructions_4_text_2.started,key_resp_4.started,instructions_4.stopped,instructions_loop.key_resp_4.keys,instructions_loop.key_resp_4.rt,instructions_loop.key_resp_4.duration,instructions_5.started,instructions_5_text_1.started,instructions_5_text_2.started,key_resp_5.started,instructions_5.stopped,instructions_loop.key_resp_5.keys,instructions_loop.key_resp_5.rt,instructions_loop.key_resp_5.duration,start_exp.started,start_exp_text.started,key_resp_6.started,start_exp.stopped,key_resp_6.keys,key_resp_6.rt,key_resp_6.duration,h_1_tmp,w_1_tmp,h_2_tmp,w_2_tmp,h_3_tmp,w_3_tmp,config_tmp,config_tmp_1,r_1_x,r_1_y,r_2_x,r_2_y,r_3_x,r_3_y,pre_trial.started,pre_trial.stopped,choice_trial.started,rect_choice.started,r_1.started,r_2.started,r_3.started,r_1_label.started,r_2_label.started,r_3_label.started,prompt.started,choice_trial.stopped,trials.rect_choice.keys,trials.rect_choice.rt,trials.rect_choice.duration,end_block.started,end_block_text.started,end_block.stopped,end.started,end_text.started,key_resp_7.started,end.stopped,key_resp_7.keys,key_resp_7.rt,key_resp_7.duration,debriefing.started,debrief_form.started,end_debrief.started,debriefing.stopped,end_debrief.keys,end_debrief.rt,end_debrief.duration,participant,computer,date,expName,psychopyVersion,frameRate,expStart,
,,,,,,,,,,,,,,,,,,,,,,,,,,,,,,,0.014966011047363281,0.03687930107116699,0.03687930107116699,0.03687930107116699,0.014742612838745117,21.53823208808899,1,[21.498456478118896],[21.498481512069702],0,,,[-78.0],[-503.0],[1],[0],[0],[21.52264142036438],['agree_button'],,,,,,,,,,,,,,,,,,,,,,,,,,,,,,,,,,,,,,,,,,,,,,,,,,,,,,,,,,,,,,,,,,,,,,,,,,,,,,,,,,,,,,,,,,,,,,,,,,,,,,,,,,,187,2,2025-03-04_14h48.59.615,comp,2024.2.4,56.784758851498445,2025-03-04 14h49.05.716776 -0500,
,,,,,,,,,,,,,,,,,,,,,,,,,,,,,,,,,,,,,,,,,,,,,,,,,,21.538944482803345,21.539042472839355,,,,,,,,,,,,,,,,,,,,,,,,,,,,,,,,,,,,,,,,,,,,,,,,,,,,,,,,,,,,,,,,,,,,,,,,,,,,,,,,,,,,,,,,,,,,,,,,,,,,,,,,,187,2,2025-03-04_14h48.59.615,comp,2024.2.4,56.784758851498445,2025-03-04 14h49.05.716776 -0500,
,,,,,,,,,,,,,,,,,,,,,,,,,,,,,,,,,,,,,,,,,,,,,,,,,,,,21.539089679718018,21.55303144454956,23.54864478111267,,,,,,,,,,,,,,,,,,,,,,,,,,,,,,,,,,,,,,,,,,,,,,,,,,,,,,,,,,,,,,,,,,,,,,,,,,,,,,,,,,,,,,,,,,,,,,,,,,,,,,187,2,2025-03-04_14h48.59.615,comp,2024.2.4,56.784758851498445,2025-03-04 14h49.05.716776 -0500,
0,0,0,,,,,,,,,,,,,,,0,0,0,0,,,,,,,,,23.563222646713257,,,,,,,,,,,,,,,,,,,,,,,,,,23.549596548080444,23.563222646713257,23.563222646713257,25.046722173690796,29.9007785320282,space,4.837347030639648,None,29.900954246520996,29.916033029556274,29.916033029556274,31.396716117858887,46.18976449966431,space,14.7903573513031,None,46.18991446495056,46.220609188079834,46.220609188079834,46.220609188079834,46.220609188079834,46.220609188079834,46.220609188079834,46.220609188079834,46.220609188079834,46.220609188079834,47.69479775428772,55.068169832229614,space,7.365340948104858,None,55.068355321884155,55.08536887168884,55.08536887168884,55.08536887168884,56.57455110549927,67.07943844795227,space,10.493841171264648,None,67.07959198951721,67.0947585105896,67.0947585105896,68.57633876800537,74.91271543502808,space,6.322859287261963,None,74.91291046142578,74.92791104316711,74.92791104316711,78.73554134368896,space,3.787229061126709,None,,,,,,,,,,,,,,,,,,,,,,,,,,,,,,,,,,,,,,,,,,,,,,,187,2,2025-03-04_14h48.59.615,comp,2024.2.4,56.784758851498445,2025-03-04 14h49.05.716776 -0500,
0,0,0,filler_square,None,None,None,None,None,None,None,None,None,None,1,2.8842315673828125,None,,,,,0,0,0,0,0,0,0,174,78.81570196151733,,,,,,,,,,,,,,,,,,,,,,,,,,,,,,,,,,,,,,,,,,,,,,,,,,,,,,,,,,,,,,,,,,,,,,,,,,,,,,,,,194.68243081842513,194.68243081842513,137.36604779916928,181.61699225465873,118.85221847217514,174.24281334141997,3.0,3.1,-284,289,0,-17,274,-258,78.79931211471558,78.79934930801392,78.80082440376282,78.81570196151733,78.9674482345581,78.9674482345581,78.9674482345581,78.9674482345581,78.9674482345581,78.9674482345581,78.9674482345581,81.70501351356506,1,2.8842315673828125,None,,,,,,,,,,,,,,,,,,187,2,2025-03-04_14h48.59.615,comp,2024.2.4,56.784758851498445,2025-03-04 14h49.05.716776 -0500,
1,1,0,critical,hwd,35.0,4.0,lower,133.0,57.0,57.0,133.0,70.0,70.0,2,4.835877418518066,None,,,,,0,0,0,0,0,1,1,100,81.71958684921265,,,,,,,,,,,,,,,,,,,,,,,,,,,,,,,,,,,,,,,,,,,,,,,,,,,,,,,,,,,,,,,,,,,,,,,,,,,,,,,,,133.0,57.0,57.0,133.0,70.0,70.0,4.0,4.2,-191,11,0,-278,198,9,81.70637083053589,81.70642256736755,81.70894885063171,81.71958684921265,81.86784601211548,81.86784601211548,81.86784601211548,81.86784601211548,81.86784601211548,81.86784601211548,81.86784601211548,86.56890153884888,2,4.835877418518066,None,,,,,,,,,,,,,,,,,,187,2,2025-03-04_14h48.59.615,comp,2024.2.4,56.784758851498445,2025-03-04 14h49.05.716776 -0500,
2,2,0,critical,whd,20.0,4.0,lower,57.0,133.0,133.0,57.0,78.0,78.0,1,8.873776197433472,None,,,,,0,0,0,0,0,2,2,94,86.58550119400024,,,,,,,,,,,,,,,,,,,,,,,,,,,,,,,,,,,,,,,,,,,,,,,,,,,,,,,,,,,,,,,,,,,,,,,,,,,,,,,,,57.0,133.0,133.0,57.0,78.0,78.0,4.0,4.1,-191,-269,0,-2,164,-274,86.57054257392883,86.5706238746643,86.57435059547424,86.58550119400024,86.73703813552856,86.73703813552856,86.73703813552856,86.73703813552856,86.73703813552856,86.73703813552856,86.73703813552856,95.47387385368347,1,8.873776197433472,None,,,,,,,,,,,,,,,,,,187,2,2025-03-04_14h48.59.615,comp,2024.2.4,56.784758851498445,2025-03-04 14h49.05.716776 -0500,
3,3,0,catch,None,None,None,None,None,None,None,None,None,None,3,1.4448227882385254,None,,,,,0,0,0,0,0,3,3,121,95.49481749534607,,,,,,,,,,,,,,,,,,,,,,,,,,,,,,,,,,,,,,,,,,,,,,,,,,,,,,,,,,,,,,,,,,,,,,,,,,,,,,,,,67,123,128,62,184,141,1.0,1.2,-188,0,0,4,198,-1,95.4761745929718,95.47625207901001,95.47984194755554,95.49481749534607,95.64181804656982,95.64181804656982,95.64181804656982,95.64181804656982,95.64181804656982,95.64181804656982,95.64181804656982,96.96061587333679,3,1.4448227882385254,None,,,,,,,,,,,,,,,,,,187,2,2025-03-04_14h48.59.615,comp,2024.2.4,56.784758851498445,2025-03-04 14h49.05.716776 -0500,
4,4,0,critical,wdh,20.0,3.0,upper,125.0,200.0,141.0,141.0,200.0,125.0,3,5.693828821182251,None,,,,,0,0,0,0,0,4,4,81,96.98152995109558,,,,,,,,,,,,,,,,,,,,,,,,,,,,,,,,,,,,,,,,,,,,,,,,,,,,,,,,,,,,,,,,,,,,,,,,,,,,,,,,,125.0,200.0,141.0,141.0,200.0,125.0,3.0,3.1,-266,259,0,3,229,-282,96.96230173110962,96.96243500709534,96.96625852584839,96.98152995109558,97.12240719795227,97.12240719795227,97.12240719795227,97.12240719795227,97.12240719795227,97.12240719795227,97.12240719795227,102.69304060935974,3,5.693828821182251,None,,,,,,,,,,,,,,,,,,187,2,2025-03-04_14h48.59.615,comp,2024.2.4,56.784758851498445,2025-03-04 14h49.05.716776 -0500,
5,5,0,critical,dwh,20.0,2.1,upper,141.0,141.0,125.0,200.0,200.0,125.0,1,8.620145797729492,None,,,,,0,0,0,0,0,5,5,7,102.71121954917908,,,,,,,,,,,,,,,,,,,,,,,,,,,,,,,,,,,,,,,,,,,,,,,,,,,,,,,,,,,,,,,,,,,,,,,,,,,,,,,,,141.0,141.0,125.0,200.0,200.0,125.0,2.1,2.11,-266,267,0,261,258,-275,102.69474411010742,102.69482159614563,102.69852423667908,102.71121954917908,102.85743641853333,102.85743641853333,102.85743641853333,102.85743641853333,102.85743641853333,102.85743641853333,102.85743641853333,111.34237670898438,1,8.620145797729492,None,,,,,,,,,,,,,,,,,,187,2,2025-03-04_14h48.59.615,comp,2024.2.4,56.784758851498445,2025-03-04 14h49.05.716776 -0500,
6,6,0,critical,wdh,20.0,2.1,lower,57.0,133.0,78.0,78.0,133.0,57.0,3,5.0407633781433105,None,,,,,0,0,0,0,0,6,6,10,111.36271858215332,,,,,,,,,,,,,,,,,,,,,,,,,,,,,,,,,,,,,,,,,,,,,,,,,,,,,,,,,,,,,,,,,,,,,,,,,,,,,,,,,57.0,133.0,78.0,78.0,133.0,57.0,2.1,2.11,-202,289,0,285,164,-280,111.34400606155396,111.34408569335938,111.34764695167542,111.36271858215332,111.5105357170105,111.5105357170105,111.5105357170105,111.5105357170105,111.5105357170105,111.5105357170105,111.5105357170105,116.41813540458679,3,5.0407633781433105,None,,,,,,,,,,,,,,,,,,187,2,2025-03-04_14h48.59.615,comp,2024.2.4,56.784758851498445,2025-03-04 14h49.05.716776 -0500,
7,7,0,catch,None,None,None,None,None,None,None,None,None,None,2,1.8216118812561035,None,,,,,0,0,0,0,0,7,7,126,116.43799901008606,,,,,,,,,,,,,,,,,,,,,,,,,,,,,,,,,,,,,,,,,,,,,,,,,,,,,,,,,,,,,,,,,,,,,,,,,,,,,,,,,110,80,198,127,77,113,1.0,1.3,280,-256,480,-268,696,-262,116.42014169692993,116.42021608352661,116.4234709739685,116.43799901008606,116.57729291915894,116.57729291915894,116.57729291915894,116.57729291915894,116.57729291915894,116.57729291915894,116.57729291915894,118.2781229019165,2,1.8216118812561035,None,,,,,,,,,,,,,,,,,,187,2,2025-03-04_14h48.59.615,comp,2024.2.4,56.784758851498445,2025-03-04 14h49.05.716776 -0500,
8,8,0,filler_square,None,None,None,None,None,None,None,None,None,None,1,5.162044286727905,None,,,,,0,0,0,0,0,8,8,201,118.2977831363678,,,,,,,,,,,,,,,,,,,,,,,,,,,,,,,,,,,,,,,,,,,,,,,,,,,,,,,,,,,,,,,,,,,,,,,,,,,,,,,,,111.95423381761711,111.95423381761711,93.35104667817734,109.82809577408021,68.05805969685626,87.61999743799929,3.0,3.2,-207,-262,0,-18,195,279,118.28020119667053,118.28027844429016,118.28412437438965,118.2977831363678,118.44536209106445,118.44536209106445,118.44536209106445,118.44536209106445,118.44536209106445,118.44536209106445,118.44536209106445,123.46201586723328,1,5.162044286727905,None,,,,,,,,,,,,,,,,,,187,2,2025-03-04_14h48.59.615,comp,2024.2.4,56.784758851498445,2025-03-04 14h49.05.716776 -0500,
9,9,0,catch,None,None,None,None,None,None,None,None,None,None,2,1.5486738681793213,None,,,,,0,0,0,0,0,9,9,128,123.47921085357666,,,,,,,,,,,,,,,,,,,,,,,,,,,,,,,,,,,,,,,,,,,,,,,,,,,,,,,,,,,,,,,,,,,,,,,,,,,,,,,,,61,129,171,154,70,120,2.2,2.22,-238,259,0,-287,233,-290,123.46392869949341,123.46400499343872,123.46743059158325,123.47921085357666,123.63223385810852,123.63223385810852,123.63223385810852,123.63223385810852,123.63223385810852,123.63223385810852,123.63223385810852,125.03002643585205,2,1.5486738681793213,None,,,,,,,,,,,,,,,,,,187,2,2025-03-04_14h48.59.615,comp,2024.2.4,56.784758851498445,2025-03-04 14h49.05.716776 -0500,
10,10,0,critical,dhw,20.0,2.1,lower,78.0,78.0,133.0,57.0,57.0,133.0,2,4.561696529388428,None,,,,,0,0,0,0,0,10,10,26,125.05029726028442,,,,,,,,,,,,,,,,,,,,,,,,,,,,,,,,,,,,,,,,,,,,,,,,,,,,,,,,,,,,,,,,,,,,,,,,,,,,,,,,,78.0,78.0,133.0,57.0,57.0,133.0,2.1,2.12,-164,-271,0,-277,191,272,125.03151822090149,125.03159356117249,125.03503513336182,125.05029726028442,125.19771194458008,125.19771194458008,125.19771194458008,125.19771194458008,125.19771194458008,125.19771194458008,125.19771194458008,129.62002110481262,2,4.561696529388428,None,,,,,,,,,,,,,,,,,,187,2,2025-03-04_14h48.59.615,comp,2024.2.4,56.784758851498445,2025-03-04 14h49.05.716776 -0500,
11,11,0,critical,hdw,20.0,4.0,lower,133.0,57.0,78.0,78.0,57.0,133.0,3,5.494449853897095,None,,,,,0,0,0,0,0,11,11,118,129.63791036605835,,,,,,,,,,,,,,,,,,,,,,,,,,,,,,,,,,,,,,,,,,,,,,,,,,,,,,,,,,,,,,,,,,,,,,,,,,,,,,,,,133.0,57.0,78.0,78.0,57.0,133.0,4.0,4.2,-164,-20,0,-255,202,-1,129.6217555999756,129.62188386917114,129.62587928771973,129.63791036605835,129.78186964988708,129.78186964988708,129.78186964988708,129.78186964988708,129.78186964988708,129.78186964988708,129.78186964988708,135.13651084899902,3,5.494449853897095,None,,,,,,,,,,,,,,,,,,187,2,2025-03-04_14h48.59.615,comp,2024.2.4,56.784758851498445,2025-03-04 14h49.05.716776 -0500,
12,12,0,critical,hwd,35.0,1.0,lower,133.0,57.0,57.0,133.0,70.0,70.0,2,9.074820756912231,None,,,,,0,0,0,0,0,12,12,96,135.1535665988922,,,,,,,,,,,,,,,,,,,,,,,,,,,,,,,,,,,,,,,,,,,,,,,,,,,,,,,,,,,,,,,,,,,,,,,,,,,,,,,,,133.0,57.0,57.0,133.0,70.0,70.0,1.0,1.2,-191,-20,0,-3,198,-14,135.138179063797,135.13828253746033,135.14255952835083,135.1535665988922,135.3072612285614,135.3072612285614,135.3072612285614,135.3072612285614,135.3072612285614,135.3072612285614,135.3072612285614,144.23443460464478,2,9.074820756912231,None,,,,,,,,,,,,,,,,,,187,2,2025-03-04_14h48.59.615,comp,2024.2.4,56.784758851498445,2025-03-04 14h49.05.716776 -0500,
13,13,0,critical,wdh,20.0,2.1,lower,57.0,133.0,78.0,78.0,133.0,57.0,3,28.84050464630127,None,,,,,0,0,0,0,0,13,13,34,144.25107216835022,,,,,,,,,,,,,,,,,,,,,,,,,,,,,,,,,,,,,,,,,,,,,,,,,,,,,,,,,,,,,,,,,,,,,,,,,,,,,,,,,57.0,133.0,78.0,78.0,133.0,57.0,2.1,2.11,-202,256,0,250,164,-254,144.23598456382751,144.23606419563293,144.23937249183655,144.25107216835022,144.38678741455078,144.38678741455078,144.38678741455078,144.38678741455078,144.38678741455078,144.38678741455078,144.38678741455078,173.10477375984192,3,28.84050464630127,None,,,,,,,,,,,,,,,,,,187,2,2025-03-04_14h48.59.615,comp,2024.2.4,56.784758851498445,2025-03-04 14h49.05.716776 -0500,
14,14,0,critical,dhw,35.0,2.1,lower,70.0,70.0,133.0,57.0,57.0,133.0,3,5.483793020248413,None,,,,,0,0,0,0,0,14,14,24,173.1205952167511,,,,,,,,,,,,,,,,,,,,,,,,,,,,,,,,,,,,,,,,,,,,,,,,,,,,,,,,,,,,,,,,,,,,,,,,,,,,,,,,,70.0,70.0,133.0,57.0,57.0,133.0,2.1,2.12,-160,-251,0,-269,191,288,173.1063220500946,173.1064009666443,173.10970997810364,173.1205952167511,173.26141476631165,173.26141476631165,173.26141476631165,173.26141476631165,173.26141476631165,173.26141476631165,173.26141476631165,178.60653614997864,3,5.483793020248413,None,,,,,,,,,,,,,,,,,,187,2,2025-03-04_14h48.59.615,comp,2024.2.4,56.784758851498445,2025-03-04 14h49.05.716776 -0500,
15,15,0,critical,dwh,20.0,2.1,lower,78.0,78.0,57.0,133.0,133.0,57.0,3,3.733461618423462,None,,,,,0,0,0,0,0,15,15,6,178.62285780906677,,,,,,,,,,,,,,,,,,,,,,,,,,,,,,,,,,,,,,,,,,,,,,,,,,,,,,,,,,,,,,,,,,,,,,,,,,,,,,,,,78.0,78.0,57.0,133.0,133.0,57.0,2.1,2.12,-202,-255,0,-287,191,264,178.60817503929138,178.60825276374817,178.61189007759094,178.62285780906677,178.77025389671326,178.77025389671326,178.77025389671326,178.77025389671326,178.77025389671326,178.77025389671326,178.77025389671326,182.36420392990112,3,3.733461618423462,None,,,,,,,,,,,,,,,,,,187,2,2025-03-04_14h48.59.615,comp,2024.2.4,56.784758851498445,2025-03-04 14h49.05.716776 -0500,
16,16,0,critical,hdw,35.0,2.1,lower,133.0,57.0,70.0,70.0,57.0,133.0,1,3.296464204788208,None,,,,,0,0,0,0,0,16,16,44,182.3810305595398,,,,,,,,,,,,,,,,,,,,,,,,,,,,,,,,,,,,,,,,,,,,,,,,,,,,,,,,,,,,,,,,,,,,,,,,,,,,,,,,,133.0,57.0,70.0,70.0,57.0,133.0,2.1,2.12,-160,-260,0,-277,198,288,182.36582207679749,182.36590027809143,182.36938524246216,182.3810305595398,182.51619219779968,182.51619219779968,182.51619219779968,182.51619219779968,182.51619219779968,182.51619219779968,182.51619219779968,185.68237686157227,1,3.296464204788208,None,,,,,,,,,,,,,,,,,,187,2,2025-03-04_14h48.59.615,comp,2024.2.4,56.784758851498445,2025-03-04 14h49.05.716776 -0500,
17,17,0,critical,dhw,20.0,1.0,upper,141.0,141.0,200.0,125.0,125.0,200.0,2,5.12862753868103,None,,,,,0,0,0,0,0,17,17,55,185.69961833953857,,,,,,,,,,,,,,,,,,,,,,,,,,,,,,,,,,,,,,,,,,,,,,,,,,,,,,,,,,,,,,,,,,,,,,,,,,,,,,,,,141.0,141.0,200.0,125.0,125.0,200.0,1.0,1.1,-709,289,-480,285,-222,266,185.68406009674072,185.68419218063354,185.6879017353058,185.69961833953857,185.8502540588379,185.8502540588379,185.8502540588379,185.8502540588379,185.8502540588379,185.8502540588379,185.8502540588379,190.83663654327393,2,5.12862753868103,None,,,,,,,,,,,,,,,,,,187,2,2025-03-04_14h48.59.615,comp,2024.2.4,56.784758851498445,2025-03-04 14h49.05.716776 -0500,
18,18,0,filler_square,None,None,None,None,None,None,None,None,None,None,3,10.732834339141846,None,,,,,0,0,0,0,0,18,18,198,190.8547763824463,,,,,,,,,,,,,,,,,,,,,,,,,,,,,,,,,,,,,,,,,,,,,,,,,,,,,,,,,,,,,,,,,,,,,,,,,,,,,,,,,67.25913138510022,79.06037907111532,74.16854241077621,64.38422238633993,80.00035670345258,80.00035670345258,3.0,3.1,-168,271,0,-7,168,-262,190.83886122703552,190.8389413356781,190.8431797027588,190.8547763824463,191.00119638442993,191.00119638442993,191.00119638442993,191.00119638442993,191.00119638442993,191.00119638442993,191.00119638442993,201.60396337509155,3,10.732834339141846,None,,,,,,,,,,,,,,,,,,187,2,2025-03-04_14h48.59.615,comp,2024.2.4,56.784758851498445,2025-03-04 14h49.05.716776 -0500,
19,19,0,critical,whd,20.0,2.1,upper,125.0,200.0,200.0,125.0,141.0,141.0,1,6.167603254318237,None,,,,,0,0,0,0,0,19,19,39,201.62026476860046,,,,,,,,,,,,,,,,,,,,,,,,,,,,,,,,,,,,,,,,,,,,,,,,,,,,,,,,,,,,,,,,,,,,,,,,,,,,,,,,,125.0,200.0,200.0,125.0,141.0,141.0,2.1,2.12,-258,-273,0,-262,229,265,201.60546398162842,201.60553884506226,201.60900449752808,201.62026476860046,201.77212023735046,201.77212023735046,201.77212023735046,201.77212023735046,201.77212023735046,201.77212023735046,201.77212023735046,207.80658221244812,1,6.167603254318237,None,,,,,,,,,,,,,,,,,,187,2,2025-03-04_14h48.59.615,comp,2024.2.4,56.784758851498445,2025-03-04 14h49.05.716776 -0500,
20,20,0,critical,hdw,20.0,2.1,lower,133.0,57.0,78.0,78.0,57.0,133.0,1,11.021244287490845,None,,,,,0,0,0,0,0,20,20,22,207.82290029525757,,,,,,,,,,,,,,,,,,,,,,,,,,,,,,,,,,,,,,,,,,,,,,,,,,,,,,,,,,,,,,,,,,,,,,,,,,,,,,,,,133.0,57.0,78.0,78.0,57.0,133.0,2.1,2.12,-164,-271,0,-279,202,251,207.80818915367126,207.80826354026794,207.81167125701904,207.82290029525757,207.96275806427002,207.96275806427002,207.96275806427002,207.96275806427002,207.96275806427002,207.96275806427002,207.96275806427002,218.84987258911133,1,11.021244287490845,None,,,,,,,,,,,,,,,,,,187,2,2025-03-04_14h48.59.615,comp,2024.2.4,56.784758851498445,2025-03-04 14h49.05.716776 -0500,
21,21,0,filler_square,None,None,None,None,None,None,None,None,None,None,2,2.5831899642944336,None,,,,,0,0,0,0,0,21,21,184,218.86892747879028,,,,,,,,,,,,,,,,,,,,,,,,,,,,,,,,,,,,,,,,,,,,,,,,,,,,,,,,,,,,,,,,,,,,,,,,,,,,,,,,,113.59496150113928,109.98673431940672,161.08682299872214,161.08682299872214,57.98582769593445,79.01292640655785,2.1,2.12,-232,-280,0,-265,216,265,218.85189080238342,218.85196995735168,218.85573530197144,218.86892747879028,219.01071071624756,219.01071071624756,219.01071071624756,219.01071071624756,219.01071071624756,219.01071071624756,219.01071071624756,221.46266388893127,2,2.5831899642944336,None,,,,,,,,,,,,,,,,,,187,2,2025-03-04_14h48.59.615,comp,2024.2.4,56.784758851498445,2025-03-04 14h49.05.716776 -0500,
22,22,0,filler_square,None,None,None,None,None,None,None,None,None,None,1,1.843526840209961,None,,,,,0,0,0,0,0,22,22,179,221.4808065891266,,,,,,,,,,,,,,,,,,,,,,,,,,,,,,,,,,,,,,,,,,,,,,,,,,,,,,,,,,,,,,,,,,,,,,,,,,,,,,,,,157.35594099279396,157.35594099279396,111.15036770861724,138.11016473824844,90.24225105600692,89.58184693518128,1.0,1.2,-244,13,0,2,210,-2,221.46492648124695,221.46500635147095,221.46840381622314,221.4808065891266,221.63128328323364,221.63128328323364,221.63128328323364,221.63128328323364,221.63128328323364,221.63128328323364,221.63128328323364,223.3275945186615,1,1.843526840209961,None,,,,,,,,,,,,,,,,,,187,2,2025-03-04_14h48.59.615,comp,2024.2.4,56.784758851498445,2025-03-04 14h49.05.716776 -0500,
23,23,0,filler_random,None,None,None,None,None,None,None,None,None,None,2,1.7238645553588867,None,,,,,0,0,0,0,0,23,23,140,223.34480237960815,,,,,,,,,,,,,,,,,,,,,,,,,,,,,,,,,,,,,,,,,,,,,,,,,,,,,,,,,,,,,,,,,,,,,,,,,,,,,,,,,112.32005636112055,93.34245915330622,195.3537473187653,109.44206704584741,125.78264819701214,121.09836190459468,2.1,2.12,-197,-269,0,-256,211,263,223.32938361167908,223.32945656776428,223.3330476284027,223.34480237960815,223.49674034118652,223.49674034118652,223.49674034118652,223.49674034118652,223.49674034118652,223.49674034118652,223.49674034118652,225.0801568031311,2,1.7238645553588867,None,,,,,,,,,,,,,,,,,,187,2,2025-03-04_14h48.59.615,comp,2024.2.4,56.784758851498445,2025-03-04 14h49.05.716776 -0500,
24,24,0,critical,hwd,20.0,3.0,lower,133.0,57.0,57.0,133.0,78.0,78.0,1,4.48314356803894,None,,,,,0,0,0,0,0,24,24,104,225.09645748138428,,,,,,,,,,,,,,,,,,,,,,,,,,,,,,,,,,,,,,,,,,,,,,,,,,,,,,,,,,,,,,,,,,,,,,,,,,,,,,,,,133.0,57.0,57.0,133.0,78.0,78.0,3.0,3.2,-191,-281,0,-15,202,255,225.08167243003845,225.08176946640015,225.0855689048767,225.09645748138428,225.24937987327576,225.24937987327576,225.24937987327576,225.24937987327576,225.24937987327576,225.24937987327576,225.24937987327576,229.58207845687866,1,4.48314356803894,None,,,,,,,,,,,,,,,,,,187,2,2025-03-04_14h48.59.615,comp,2024.2.4,56.784758851498445,2025-03-04 14h49.05.716776 -0500,
25,25,0,critical,whd,35.0,2.1,lower,57.0,133.0,133.0,57.0,70.0,70.0,2,7.597507953643799,None,,,,,0,0,0,0,0,25,25,12,229.59851717948914,,,,,,,,,,,,,,,,,,,,,,,,,,,,,,,,,,,,,,,,,,,,,,,,,,,,,,,,,,,,,,,,,,,,,,,,,,,,,,,,,57.0,133.0,133.0,57.0,70.0,70.0,2.1,2.12,-191,-280,0,-279,160,285,229.58362698554993,229.58375072479248,229.58760023117065,229.59851717948914,229.74760627746582,229.74760627746582,229.74760627746582,229.74760627746582,229.74760627746582,229.74760627746582,229.74760627746582,237.19857144355774,2,7.597507953643799,None,,,,,,,,,,,,,,,,,,187,2,2025-03-04_14h48.59.615,comp,2024.2.4,56.784758851498445,2025-03-04 14h49.05.716776 -0500,
26,26,0,filler_random,None,None,None,None,None,None,None,None,None,None,1,3.580242156982422,None,,,,,0,0,0,0,0,26,26,145,237.2156047821045,,,,,,,,,,,,,,,,,,,,,,,,,,,,,,,,,,,,,,,,,,,,,,,,,,,,,,,,,,,,,,,,,,,,,,,,,,,,,,,,,159.41730723126523,78.04177680097337,169.48016107052737,61.5196713870873,151.74449896099642,58.14681723521934,2.2,2.22,-166,272,0,-263,156,-260,237.20031332969666,237.2003891468048,237.2038791179657,237.2156047821045,237.36702966690063,237.36702966690063,237.36702966690063,237.36702966690063,237.36702966690063,237.36702966690063,237.36702966690063,240.8012409210205,1,3.580242156982422,None,,,,,,,,,,,,,,,,,,187,2,2025-03-04_14h48.59.615,comp,2024.2.4,56.784758851498445,2025-03-04 14h49.05.716776 -0500,
27,27,0,critical,whd,35.0,2.1,upper,125.0,200.0,200.0,125.0,127.0,127.0,2,6.065815448760986,None,,,,,0,0,0,0,0,27,27,37,240.8266463279724,,,,,,,,,,,,,,,,,,,,,,,,,,,,,,,,,,,,,,,,,,,,,,,,,,,,,,,,,,,,,,,,,,,,,,,,,,,,,,,,,125.0,200.0,200.0,125.0,127.0,127.0,2.1,2.12,-258,-264,0,-257,222,251,240.80299592018127,240.80310535430908,240.80680918693542,240.8266463279724,240.96833872795105,240.96833872795105,240.96833872795105,240.96833872795105,240.96833872795105,240.96833872795105,240.96833872795105,246.90394377708435,2,6.065815448760986,None,,,,,,,,,,,,,,,,,,187,2,2025-03-04_14h48.59.615,comp,2024.2.4,56.784758851498445,2025-03-04 14h49.05.716776 -0500,
28,28,0,filler_square,None,None,None,None,None,None,None,None,None,None,1,4.475616693496704,None,,,,,0,0,0,0,0,28,28,190,246.92122268676758,,,,,,,,,,,,,,,,,,,,,,,,,,,,,,,,,,,,,,,,,,,,,,,,,,,,,,,,,,,,,,,,,,,,,,,,,,,,,,,,,111.0339852503437,111.0339852503437,94.55683020587514,87.39858176123772,60.7553553985235,76.90872243188281,2.1,2.11,-195,254,0,287,178,-267,246.90606212615967,246.90614104270935,246.91032648086548,246.92122268676758,247.0753834247589,247.0753834247589,247.0753834247589,247.0753834247589,247.0753834247589,247.0753834247589,247.0753834247589,251.40307211875916,1,4.475616693496704,None,,,,,,,,,,,,,,,,,,187,2,2025-03-04_14h48.59.615,comp,2024.2.4,56.784758851498445,2025-03-04 14h49.05.716776 -0500,
29,29,0,critical,dwh,20.0,3.0,upper,141.0,141.0,125.0,200.0,200.0,125.0,3,4.638181209564209,None,,,,,0,0,0,0,0,29,29,69,251.42154502868652,,,,,,,,,,,,,,,,,,,,,,,,,,,,,,,,,,,,,,,,,,,,,,,,,,,,,,,,,,,,,,,,,,,,,,,,,,,,,,,,,141.0,141.0,125.0,200.0,200.0,125.0,3.0,3.1,-266,251,0,-14,258,-275,251.4046335220337,251.40473461151123,251.40819597244263,251.42154502868652,251.5725269317627,251.5725269317627,251.5725269317627,251.5725269317627,251.5725269317627,251.5725269317627,251.5725269317627,256.073846578598,3,4.638181209564209,None,,,,,,,,,,,,,,,,,,187,2,2025-03-04_14h48.59.615,comp,2024.2.4,56.784758851498445,2025-03-04 14h49.05.716776 -0500,
30,30,0,critical,hdw,20.0,1.0,upper,200.0,125.0,141.0,141.0,125.0,200.0,1,6.586457014083862,None,,,,,0,0,0,0,0,30,30,115,256.08926272392273,,,,,,,,,,,,,,,,,,,,,,,,,,,,,,,,,,,,,,,,,,,,,,,,,,,,,,,,,,,,,,,,,,,,,,,,,,,,,,,,,200.0,125.0,141.0,141.0,125.0,200.0,1.0,1.1,-709,273,-480,263,-214,282,256.0754826068878,256.075558423996,256.07902550697327,256.08926272392273,256.24175453186035,256.24175453186035,256.24175453186035,256.24175453186035,256.24175453186035,256.24175453186035,256.24175453186035,262.69374227523804,1,6.586457014083862,None,,,,,,,,,,,,,,,,,,187,2,2025-03-04_14h48.59.615,comp,2024.2.4,56.784758851498445,2025-03-04 14h49.05.716776 -0500,
31,31,0,catch,None,None,None,None,None,None,None,None,None,None,3,1.6412489414215088,None,,,,,0,0,0,0,0,31,31,127,262.715194940567,,,,,,,,,,,,,,,,,,,,,,,,,,,,,,,,,,,,,,,,,,,,,,,,,,,,,,,,,,,,,,,,,,,,,,,,,,,,,,,,,58,132,118,72,193,132,2.2,2.22,-198,282,0,-288,198,-271,262.6959562301636,262.6960334777832,262.6998612880707,262.715194940567,262.8590545654297,262.8590545654297,262.8590545654297,262.8590545654297,262.8590545654297,262.8590545654297,262.8590545654297,264.3604381084442,3,1.6412489414215088,None,,,,,,,,,,,,,,,,,,187,2,2025-03-04_14h48.59.615,comp,2024.2.4,56.784758851498445,2025-03-04 14h49.05.716776 -0500,
32,32,0,critical,wdh,35.0,1.0,upper,125.0,200.0,127.0,127.0,200.0,125.0,3,2.0991933345794678,None,,,,,0,0,0,0,0,32,32,73,264.376745223999,,,,,,,,,,,,,,,,,,,,,,,,,,,,,,,,,,,,,,,,,,,,,,,,,,,,,,,,,,,,,,,,,,,,,,,,,,,,,,,,,125.0,200.0,127.0,127.0,200.0,125.0,1.0,1.1,-740,257,-480,288,-258,287,264.3622076511383,264.3623309135437,264.36604380607605,264.376745223999,264.52718806266785,264.52718806266785,264.52718806266785,264.52718806266785,264.52718806266785,264.52718806266785,264.52718806266785,266.4931936264038,3,2.0991933345794678,None,,,,,,,,,,,,,,,,,,187,2,2025-03-04_14h48.59.615,comp,2024.2.4,56.784758851498445,2025-03-04 14h49.05.716776 -0500,
33,33,0,critical,whd,20.0,3.0,upper,125.0,200.0,200.0,125.0,141.0,141.0,2,1.687323808670044,None,,,,,0,0,0,0,0,33,33,93,266.5088827610016,,,,,,,,,,,,,,,,,,,,,,,,,,,,,,,,,,,,,,,,,,,,,,,,,,,,,,,,,,,,,,,,,,,,,,,,,,,,,,,,,125.0,200.0,200.0,125.0,141.0,141.0,3.0,3.1,-258,280,0,-1,229,-271,266.4947657585144,266.4948613643646,266.49862360954285,266.5088827610016,266.6598584651947,266.6598584651947,266.6598584651947,266.6598584651947,266.6598584651947,266.6598584651947,266.6598584651947,268.20973014831543,2,1.687323808670044,None,,,,,,,,,,,,,,,,,,187,2,2025-03-04_14h48.59.615,comp,2024.2.4,56.784758851498445,2025-03-04 14h49.05.716776 -0500,
34,34,0,filler_square,None,None,None,None,None,None,None,None,None,None,1,10.530441045761108,None,,,,,0,0,0,0,0,34,34,200,268.2259397506714,,,,,,,,,,,,,,,,,,,,,,,,,,,,,,,,,,,,,,,,,,,,,,,,,,,,,,,,,,,,,,,,,,,,,,,,,,,,,,,,,60.41709625725857,60.41709625725857,57.63449967014313,59.95323135433232,59.17185850237413,57.88967298546975,3.0,3.1,-156,266,0,0,155,-268,268.21162009239197,268.2117202281952,268.21562671661377,268.2259397506714,268.37578320503235,268.37578320503235,268.37578320503235,268.37578320503235,268.37578320503235,268.37578320503235,268.37578320503235,278.76264238357544,1,10.530441045761108,None,,,,,,,,,,,,,,,,,,187,2,2025-03-04_14h48.59.615,comp,2024.2.4,56.784758851498445,2025-03-04 14h49.05.716776 -0500,
35,35,0,filler_square,None,None,None,None,None,None,None,None,None,None,3,5.425215721130371,None,,,,,0,0,0,0,0,35,35,170,278.77928590774536,,,,,,,,,,,,,,,,,,,,,,,,,,,,,,,,,,,,,,,,,,,,,,,,,,,,,,,,,,,,,,,,,,,,,,,,,,,,,,,,,63.97495606671476,65.41197060066034,67.1936287377078,59.1358457996288,67.97928452981255,67.97928452981255,4.0,4.1,-158,-264,0,17,160,-260,278.76456093788147,278.7646412849426,278.7685010433197,278.77928590774536,278.92674374580383,278.92674374580383,278.92674374580383,278.92674374580383,278.92674374580383,278.92674374580383,278.92674374580383,284.21515583992004,3,5.425215721130371,None,,,,,,,,,,,,,,,,,,187,2,2025-03-04_14h48.59.615,comp,2024.2.4,56.784758851498445,2025-03-04 14h49.05.716776 -0500,
36,36,0,filler_random,None,None,None,None,None,None,None,None,None,None,1,6.774653673171997,None,,,,,0,0,0,0,0,36,36,143,284.23147535324097,,,,,,,,,,,,,,,,,,,,,,,,,,,,,,,,,,,,,,,,,,,,,,,,,,,,,,,,,,,,,,,,,,,,,,,,,,,,,,,,,165.96038069269895,132.28606759238363,90.30927416720166,112.36871313808098,172.48723776147708,99.39281288421014,2.2,2.22,-218,261,0,-277,202,-251,284.217000246048,284.21707940101624,284.2207684516907,284.23147535324097,284.3817090988159,284.3817090988159,284.3817090988159,284.3817090988159,284.3817090988159,284.3817090988159,284.3817090988159,291.0169446468353,1,6.774653673171997,None,,,,,,,,,,,,,,,,,,187,2,2025-03-04_14h48.59.615,comp,2024.2.4,56.784758851498445,2025-03-04 14h49.05.716776 -0500,
37,37,0,critical,hwd,35.0,3.0,upper,200.0,125.0,125.0,200.0,127.0,127.0,2,7.555055618286133,None,,,,,0,0,0,0,0,37,37,99,291.0330626964569,,,,,,,,,,,,,,,,,,,,,,,,,,,,,,,,,,,,,,,,,,,,,,,,,,,,,,,,,,,,,,,,,,,,,,,,,,,,,,,,,200.0,125.0,125.0,200.0,127.0,127.0,3.0,3.1,-258,273,0,-20,260,-255,291.0185194015503,291.0185935497284,291.0223526954651,291.0330626964569,291.18026876449585,291.18026876449585,291.18026876449585,291.18026876449585,291.18026876449585,291.18026876449585,291.18026876449585,298.59252738952637,2,7.555055618286133,None,,,,,,,,,,,,,,,,,,187,2,2025-03-04_14h48.59.615,comp,2024.2.4,56.784758851498445,2025-03-04 14h49.05.716776 -0500,
38,38,0,filler_square,None,None,None,None,None,None,None,None,None,None,3,2.096174478530884,None,,,,,0,0,0,0,0,38,38,175,298.61164116859436,,,,,,,,,,,,,,,,,,,,,,,,,,,,,,,,,,,,,,,,,,,,,,,,,,,,,,,,,,,,,,,,,,,,,,,,,,,,,,,,,75.73584220485823,100.44187003506296,66.68386212107109,107.01956193996979,118.08869228520871,118.08869228520871,3.0,3.1,-200,266,0,-5,209,-270,298.59461188316345,298.5947196483612,298.5984673500061,298.61164116859436,298.75308322906494,298.75308322906494,298.75308322906494,298.75308322906494,298.75308322906494,298.75308322906494,298.75308322906494,300.71906995773315,3,2.096174478530884,None,,,,,,,,,,,,,,,,,,187,2,2025-03-04_14h48.59.615,comp,2024.2.4,56.784758851498445,2025-03-04 14h49.05.716776 -0500,
39,39,0,critical,hdw,35.0,2.1,lower,133.0,57.0,70.0,70.0,57.0,133.0,1,5.963003158569336,None,,,,,0,0,0,0,0,39,39,20,300.7372167110443,,,,,,,,,,,,,,,,,,,,,,,,,,,,,,,,,,,,,,,,,,,,,,,,,,,,,,,,,,,,,,,,,,,,,,,,,,,,,,,,,133.0,57.0,70.0,70.0,57.0,133.0,2.1,2.11,-160,267,0,260,198,-289,300.72060799598694,300.7207078933716,300.7241053581238,300.7372167110443,300.8889675140381,300.8889675140381,300.8889675140381,300.8889675140381,300.8889675140381,300.8889675140381,300.8889675140381,306.7048408985138,1,5.963003158569336,None,,,,,,,,,,,,,,,,,,187,2,2025-03-04_14h48.59.615,comp,2024.2.4,56.784758851498445,2025-03-04 14h49.05.716776 -0500,
40,40,0,critical,wdh,35.0,2.1,lower,57.0,133.0,70.0,70.0,133.0,57.0,3,4.306662321090698,None,,,,,0,0,0,0,0,40,40,32,306.7211444377899,,,,,,,,,,,,,,,,,,,,,,,,,,,,,,,,,,,,,,,,,,,,,,,,,,,,,,,,,,,,,,,,,,,,,,,,,,,,,,,,,57.0,133.0,70.0,70.0,133.0,57.0,2.1,2.11,-198,289,0,288,160,-272,306.70642256736755,306.7064983844757,306.7102506160736,306.7211444377899,306.8770158290863,306.8770158290863,306.8770158290863,306.8770158290863,306.8770158290863,306.8770158290863,306.8770158290863,311.0383176803589,3,4.306662321090698,None,,,,,,,,,,,,,,,,,,187,2,2025-03-04_14h48.59.615,comp,2024.2.4,56.784758851498445,2025-03-04 14h49.05.716776 -0500,
41,41,0,filler_random,None,None,None,None,None,None,None,None,None,None,2,1.1255290508270264,None,,,,,0,0,0,0,0,41,41,166,311.05529594421387,,,,,,,,,,,,,,,,,,,,,,,,,,,,,,,,,,,,,,,,,,,,,,,,,,,,,,,,,,,,,,,,,,,,,,,,,,,,,,,,,104.40412492125787,171.46217233819863,166.8985979107578,181.38539607695145,65.93052897926307,81.78980681977254,2.1,2.11,-272,265,0,276,228,-273,311.0400583744049,311.040137052536,311.04375100135803,311.05529594421387,311.20703506469727,311.20703506469727,311.20703506469727,311.20703506469727,311.20703506469727,311.20703506469727,311.20703506469727,312.1907470226288,2,1.1255290508270264,None,,,,,,,,,,,,,,,,,,187,2,2025-03-04_14h48.59.615,comp,2024.2.4,56.784758851498445,2025-03-04 14h49.05.716776 -0500,
42,42,0,critical,whd,20.0,2.1,lower,57.0,133.0,133.0,57.0,78.0,78.0,1,13.883121252059937,None,,,,,0,0,0,0,0,42,42,14,312.2091715335846,,,,,,,,,,,,,,,,,,,,,,,,,,,,,,,,,,,,,,,,,,,,,,,,,,,,,,,,,,,,,,,,,,,,,,,,,,,,,,,,,57.0,133.0,133.0,57.0,78.0,78.0,2.1,2.11,-191,257,0,272,164,-267,312.19235348701477,312.1924538612366,312.1961305141449,312.2091715335846,312.3556716442108,312.3556716442108,312.3556716442108,312.3556716442108,312.3556716442108,312.3556716442108,312.3556716442108,326.1026282310486,1,13.883121252059937,None,,,,,,,,,,,,,,,,,,187,2,2025-03-04_14h48.59.615,comp,2024.2.4,56.784758851498445,2025-03-04 14h49.05.716776 -0500,
43,43,0,filler_random,None,None,None,None,None,None,None,None,None,None,1,1.4348280429840088,None,,,,,0,0,0,0,0,43,43,132,326.12107729911804,,,,,,,,,,,,,,,,,,,,,,,,,,,,,,,,,,,,,,,,,,,,,,,,,,,,,,,,,,,,,,,,,,,,,,,,,,,,,,,,,159.07127915929976,199.44905591835305,70.76198839940821,108.87413443598274,124.60413604966236,151.98976274853726,2.1,2.11,-250,275,0,266,226,-279,326.1043484210968,326.10442638397217,326.1076476573944,326.12107729911804,326.2601807117462,326.2601807117462,326.2601807117462,326.2601807117462,326.2601807117462,326.2601807117462,326.2601807117462,327.56822776794434,1,1.4348280429840088,None,,,,,,,,,,,,,,,,,,187,2,2025-03-04_14h48.59.615,comp,2024.2.4,56.784758851498445,2025-03-04 14h49.05.716776 -0500,
44,44,0,critical,dhw,35.0,1.0,lower,70.0,70.0,133.0,57.0,57.0,133.0,2,21.233837366104126,None,,,,,0,0,0,0,0,44,44,48,327.58615255355835,,,,,,,,,,,,,,,,,,,,,,,,,,,,,,,,,,,,,,,,,,,,,,,,,,,,,,,,,,,,,,,,,,,,,,,,,,,,,,,,,70.0,70.0,133.0,57.0,57.0,133.0,1.0,1.1,-640,281,-480,280,-289,280,327.5696978569031,327.569787979126,327.5730719566345,327.58615255355835,327.7321472167969,327.7321472167969,327.7321472167969,327.7321472167969,327.7321472167969,327.7321472167969,327.7321472167969,348.83499693870544,2,21.233837366104126,None,,,,,,,,,,,,,,,,,,187,2,2025-03-04_14h48.59.615,comp,2024.2.4,56.784758851498445,2025-03-04 14h49.05.716776 -0500,
45,45,0,filler_random,None,None,None,None,None,None,None,None,None,None,3,3.5929555892944336,None,,,,,0,0,0,0,0,45,45,144,348.85189604759216,,,,,,,,,,,,,,,,,,,,,,,,,,,,,,,,,,,,,,,,,,,,,,,,,,,,,,,,,,,,,,,,,,,,,,,,,,,,,,,,,88.87093710909502,150.80730215614284,197.99566799841025,80.55529914378275,159.98767840632706,190.79256051442874,2.1,2.11,-212,288,0,278,232,-284,348.8368625640869,348.8370010852814,348.8407144546509,348.85189604759216,349.0017442703247,349.0017442703247,349.0017442703247,349.0017442703247,349.0017442703247,349.0017442703247,349.0017442703247,352.4501430988312,3,3.5929555892944336,None,,,,,,,,,,,,,,,,,,187,2,2025-03-04_14h48.59.615,comp,2024.2.4,56.784758851498445,2025-03-04 14h49.05.716776 -0500,
46,46,0,critical,dhw,20.0,1.0,lower,78.0,78.0,133.0,57.0,57.0,133.0,2,5.4171130657196045,None,,,,,0,0,0,0,0,46,46,54,352.46690940856934,,,,,,,,,,,,,,,,,,,,,,,,,,,,,,,,,,,,,,,,,,,,,,,,,,,,,,,,,,,,,,,,,,,,,,,,,,,,,,,,,78.0,78.0,133.0,57.0,57.0,133.0,1.0,1.2,-164,7,0,2,191,16,352.4516613483429,352.45176219940186,352.45503854751587,352.46690940856934,352.60343956947327,352.60343956947327,352.60343956947327,352.60343956947327,352.60343956947327,352.60343956947327,352.60343956947327,357.9038815498352,2,5.4171130657196045,None,,,,,,,,,,,,,,,,,,187,2,2025-03-04_14h48.59.615,comp,2024.2.4,56.784758851498445,2025-03-04 14h49.05.716776 -0500,
47,47,0,filler_random,None,None,None,None,None,None,None,None,None,None,1,1.0676066875457764,None,,,,,0,0,0,0,0,47,47,151,357.9203929901123,,,,,,,,,,,,,,,,,,,,,,,,,,,,,,,,,,,,,,,,,,,,,,,,,,,,,,,,,,,,,,,,,,,,,,,,,,,,,,,,,183.78664015329642,173.99203605523888,104.83589402433577,142.13094890431285,153.78067083833983,113.2329803664753,3.0,3.1,-254,266,0,-2,224,-278,357.90577816963196,357.9058828353882,357.9097125530243,357.9203929901123,358.0749340057373,358.0749340057373,358.0749340057373,358.0749340057373,358.0749340057373,358.0749340057373,358.0749340057373,359.00405192375183,1,1.0676066875457764,None,,,,,,,,,,,,,,,,,,187,2,2025-03-04_14h48.59.615,comp,2024.2.4,56.784758851498445,2025-03-04 14h49.05.716776 -0500,
48,48,0,filler_square,None,None,None,None,None,None,None,None,None,None,2,0.9435222148895264,None,,,,,0,0,0,0,0,48,48,187,359.02119612693787,,,,,,,,,,,,,,,,,,,,,,,,,,,,,,,,,,,,,,,,,,,,,,,,,,,,,,,,,,,,,,,,,,,,,,,,,,,,,,,,,83.8255729275656,74.43385342116903,143.11236792228317,143.11236792228317,68.93635834624415,120.99983161753428,1.0,1.2,-205,-16,0,-6,228,-11,359.0060272216797,359.0061013698578,359.0098419189453,359.02119612693787,359.18302607536316,359.18302607536316,359.18302607536316,359.18302607536316,359.18302607536316,359.18302607536316,359.18302607536316,359.9705550670624,2,0.9435222148895264,None,,,,,,,,,,,,,,,,,,187,2,2025-03-04_14h48.59.615,comp,2024.2.4,56.784758851498445,2025-03-04 14h49.05.716776 -0500,
49,49,0,critical,wdh,20.0,2.1,upper,125.0,200.0,141.0,141.0,200.0,125.0,1,4.244943618774414,None,,,,,0,0,0,0,0,49,49,35,359.99173164367676,,,,,,,,,,,,,,,,,,,,,,,,,,,,,,,,,,,,,,,,,,,,,,,,,,,,,,,,,,,,,,,,,,,,,,,,,,,,,,,,,125.0,200.0,141.0,141.0,200.0,125.0,2.1,2.11,-266,283,0,253,229,-277,359.9722111225128,359.9723358154297,359.9761481285095,359.99173164367676,360.1389982700348,360.1389982700348,360.1389982700348,360.1389982700348,360.1389982700348,360.1389982700348,360.1389982700348,364.2396409511566,1,4.244943618774414,None,,,,,,,,,,,,,,,,,,187,2,2025-03-04_14h48.59.615,comp,2024.2.4,56.784758851498445,2025-03-04 14h49.05.716776 -0500,
50,50,0,critical,wdh,20.0,1.0,upper,125.0,200.0,141.0,141.0,200.0,125.0,3,2.2940120697021484,None,,,,,0,0,0,0,0,50,50,79,364.2557108402252,,,,,,,,,,,,,,,,,,,,,,,,,,,,,,,,,,,,,,,,,,,,,,,,,,,,,,,,,,,,,,,,,,,,,,,,,,,,,,,,,125.0,200.0,141.0,141.0,200.0,125.0,1.0,1.1,-746,254,-480,255,-251,269,364.24123334884644,364.2413103580475,364.244998216629,364.2557108402252,364.4044735431671,364.4044735431671,364.4044735431671,364.4044735431671,364.4044735431671,364.4044735431671,364.4044735431671,366.55749011039734,3,2.2940120697021484,None,,,,,,,,,,,,,,,,,,187,2,2025-03-04_14h48.59.615,comp,2024.2.4,56.784758851498445,2025-03-04 14h49.05.716776 -0500,
51,51,0,catch,None,None,None,None,None,None,None,None,None,None,1,1.1162941455841064,None,,,,,0,0,0,0,0,51,51,129,366.5757884979248,,,,,,,,,,,,,,,,,,,,,,,,,,,,,,,,,,,,,,,,,,,,,,,,,,,,,,,,,,,,,,,,,,,,,,,,,,,,,,,,,126,199,82,108,129,61,3.0,3.1,-250,252,0,-1,180,-271,366.5592348575592,366.5593123435974,366.56263065338135,366.5757884979248,366.73192501068115,366.73192501068115,366.73192501068115,366.73192501068115,366.73192501068115,366.73192501068115,366.73192501068115,367.71176409721375,1,1.1162941455841064,None,,,,,,,,,,,,,,,,,,187,2,2025-03-04_14h48.59.615,comp,2024.2.4,56.784758851498445,2025-03-04 14h49.05.716776 -0500,
52,52,0,filler_square,None,None,None,None,None,None,None,None,None,None,1,1.6553456783294678,None,,,,,0,0,0,0,0,52,52,207,367.7329754829407,,,,,,,,,,,,,,,,,,,,,,,,,,,,,,,,,,,,,,,,,,,,,,,,,,,,,,,,,,,,,,,,,,,,,,,,,,,,,,,,,109.83528340853528,109.83528340853528,70.76835449299371,100.23819857142405,72.02079152489344,83.61565703342292,2.2,2.22,-201,257,0,-270,188,-284,367.71388483047485,367.71396350860596,367.7177939414978,367.7329754829407,367.87456798553467,367.87456798553467,367.87456798553467,367.87456798553467,367.87456798553467,367.87456798553467,367.87456798553467,369.4073703289032,1,1.6553456783294678,None,,,,,,,,,,,,,,,,,,187,2,2025-03-04_14h48.59.615,comp,2024.2.4,56.784758851498445,2025-03-04 14h49.05.716776 -0500,
53,53,0,filler_square,None,None,None,None,None,None,None,None,None,None,1,1.5439598560333252,None,,,,,0,0,0,0,0,53,53,197,369.42827010154724,,,,,,,,,,,,,,,,,,,,,,,,,,,,,,,,,,,,,,,,,,,,,,,,,,,,,,,,,,,,,,,,,,,,,,,,,,,,,,,,,161.66614176356262,161.66614176356262,161.6072778694895,82.64953915050803,135.6930701123638,152.14290916031678,3.0,3.2,-218,-284,0,10,213,272,369.4095015525818,369.40958070755005,369.41334414482117,369.42827010154724,369.5750222206116,369.5750222206116,369.5750222206116,369.5750222206116,369.5750222206116,369.5750222206116,369.5750222206116,370.9903964996338,1,1.5439598560333252,None,,,,,,,,,,,,,,,,,,187,2,2025-03-04_14h48.59.615,comp,2024.2.4,56.784758851498445,2025-03-04 14h49.05.716776 -0500,
54,54,0,filler_square,None,None,None,None,None,None,None,None,None,None,1,1.605257511138916,None,,,,,0,0,0,0,0,54,54,180,371.0070893764496,,,,,,,,,,,,,,,,,,,,,,,,,,,,,,,,,,,,,,,,,,,,,,,,,,,,,,,,,,,,,,,,,,,,,,,,,,,,,,,,,125.78662685734047,125.78662685734047,85.5962185100893,104.05776625249177,109.69224211538281,81.66539170455394,2.2,2.21,-211,-287,0,253,189,274,370.99231696128845,370.99239587783813,370.99591040611267,371.0070893764496,371.15518498420715,371.15518498420715,371.15518498420715,371.15518498420715,371.15518498420715,371.15518498420715,371.15518498420715,372.6254382133484,1,1.605257511138916,None,,,,,,,,,,,,,,,,,,187,2,2025-03-04_14h48.59.615,comp,2024.2.4,56.784758851498445,2025-03-04 14h49.05.716776 -0500,
55,55,0,critical,hwd,35.0,2.1,upper,200.0,125.0,125.0,200.0,127.0,127.0,1,4.386099576950073,None,,,,,0,0,0,0,0,55,55,41,372.64193868637085,,,,,,,,,,,,,,,,,,,,,,,,,,,,,,,,,,,,,,,,,,,,,,,,,,,,,,,,,,,,,,,,,,,,,,,,,,,,,,,,,200.0,125.0,125.0,200.0,127.0,127.0,2.1,2.11,-258,280,0,273,260,-278,372.62708258628845,372.62716007232666,372.63165259361267,372.64193868637085,372.8025963306427,372.8025963306427,372.8025963306427,372.8025963306427,372.8025963306427,372.8025963306427,372.8025963306427,377.04672837257385,1,4.386099576950073,None,,,,,,,,,,,,,,,,,,187,2,2025-03-04_14h48.59.615,comp,2024.2.4,56.784758851498445,2025-03-04 14h49.05.716776 -0500,
56,56,0,filler_random,None,None,None,None,None,None,None,None,None,None,2,1.6172065734863281,None,,,,,0,0,0,0,0,56,56,164,377.0668988227844,,,,,,,,,,,,,,,,,,,,,,,,,,,,,,,,,,,,,,,,,,,,,,,,,,,,,,,,,,,,,,,,,,,,,,,,,,,,,,,,,176.92673848614731,133.9860020782287,144.14817250330282,192.29087843990496,170.51640456749448,93.5340181451634,4.0,4.1,-259,-286,0,-2,239,-267,377.04900312423706,377.04913902282715,377.05249667167664,377.0668988227844,377.21166229248047,377.21166229248047,377.21166229248047,377.21166229248047,377.21166229248047,377.21166229248047,377.21166229248047,378.6954483985901,2,1.6172065734863281,None,,,,,,,,,,,,,,,,,,187,2,2025-03-04_14h48.59.615,comp,2024.2.4,56.784758851498445,2025-03-04 14h49.05.716776 -0500,
57,57,0,filler_random,None,None,None,None,None,None,None,None,None,None,2,9.588330030441284,None,,,,,0,0,0,0,0,57,57,161,378.7117381095886,,,,,,,,,,,,,,,,,,,,,,,,,,,,,,,,,,,,,,,,,,,,,,,,,,,,,,,,,,,,,,,,,,,,,,,,,,,,,,,,,190.649675963662,58.85988377014001,100.85932686294075,182.67921412001942,93.59572448210626,123.6655713827734,1.0,1.3,263,-283,480,-265,729,-269,378.6972770690918,378.6973705291748,378.70096611976624,378.7117381095886,378.87228417396545,378.87228417396545,378.87228417396545,378.87228417396545,378.87228417396545,378.87228417396545,378.87228417396545,388.31329226493835,2,9.588330030441284,None,,,,,,,,,,,,,,,,,,187,2,2025-03-04_14h48.59.615,comp,2024.2.4,56.784758851498445,2025-03-04 14h49.05.716776 -0500,
58,58,0,critical,hwd,20.0,4.0,lower,133.0,57.0,57.0,133.0,78.0,78.0,1,3.8990464210510254,None,,,,,0,0,0,0,0,58,58,106,388.3297872543335,,,,,,,,,,,,,,,,,,,,,,,,,,,,,,,,,,,,,,,,,,,,,,,,,,,,,,,,,,,,,,,,,,,,,,,,,,,,,,,,,133.0,57.0,57.0,133.0,78.0,78.0,4.0,4.1,-191,-277,0,11,202,-283,388.31493067741394,388.31500458717346,388.31859850883484,388.3297872543335,388.48122692108154,388.48122692108154,388.48122692108154,388.48122692108154,388.48122692108154,388.48122692108154,388.48122692108154,392.23276114463806,1,3.8990464210510254,None,,,,,,,,,,,,,,,,,,187,2,2025-03-04_14h48.59.615,comp,2024.2.4,56.784758851498445,2025-03-04 14h49.05.716776 -0500,
59,59,0,critical,dwh,35.0,2.1,upper,127.0,127.0,125.0,200.0,200.0,125.0,2,5.370861530303955,None,,,,,0,0,0,0,0,59,59,5,392.2492392063141,,,,,,,,,,,,,,,,,,,,,,,,,,,,,,,,,,,,,,,,,,,,,,,,,,,,,,,,,,,,,,,,,,,,,,,,,,,,,,,,,127.0,127.0,125.0,200.0,200.0,125.0,2.1,2.12,-260,-287,0,-289,258,273,392.2344148159027,392.2345459461212,392.2383246421814,392.2492392063141,392.3865945339203,392.3865945339203,392.3865945339203,392.3865945339203,392.3865945339203,392.3865945339203,392.3865945339203,397.63315200805664,2,5.370861530303955,None,,,,,,,,,,,,,,,,,,187,2,2025-03-04_14h48.59.615,comp,2024.2.4,56.784758851498445,2025-03-04 14h49.05.716776 -0500,
60,60,0,critical,dwh,35.0,2.1,lower,70.0,70.0,57.0,133.0,133.0,57.0,2,3.5315821170806885,None,,,,,0,0,0,0,0,60,60,28,397.6491115093231,,,,,,,,,,,,,,,,,,,,,,,,,,,,,,,,,,,,,,,,,,,,,,,,,,,,,,,,,,,,,,,,,,,,,,,,,,,,,,,,,70.0,70.0,57.0,133.0,133.0,57.0,2.1,2.12,-198,-253,0,-270,191,272,397.6347270011902,397.63480520248413,397.6383273601532,397.6491115093231,397.8034303188324,397.8034303188324,397.8034303188324,397.8034303188324,397.8034303188324,397.8034303188324,397.8034303188324,401.20081996917725,2,3.5315821170806885,None,,,,,,,,,,,,,,,,,,187,2,2025-03-04_14h48.59.615,comp,2024.2.4,56.784758851498445,2025-03-04 14h49.05.716776 -0500,
61,61,0,critical,whd,35.0,1.0,lower,57.0,133.0,133.0,57.0,70.0,70.0,2,6.0169243812561035,None,,,,,0,0,0,0,0,61,61,84,401.219810962677,,,,,,,,,,,,,,,,,,,,,,,,,,,,,,,,,,,,,,,,,,,,,,,,,,,,,,,,,,,,,,,,,,,,,,,,,,,,,,,,,57.0,133.0,133.0,57.0,70.0,70.0,1.0,1.1,-671,260,-480,278,-320,282,401.2023663520813,401.20243883132935,401.2060673236847,401.219810962677,401.3688793182373,401.3688793182373,401.3688793182373,401.3688793182373,401.3688793182373,401.3688793182373,401.3688793182373,407.24399161338806,2,6.0169243812561035,None,,,,,,,,,,,,,,,,,,187,2,2025-03-04_14h48.59.615,comp,2024.2.4,56.784758851498445,2025-03-04 14h49.05.716776 -0500,
62,62,0,filler_random,None,None,None,None,None,None,None,None,None,None,2,2.8191936016082764,None,,,,,0,0,0,0,0,62,62,149,407.26539969444275,,,,,,,,,,,,,,,,,,,,,,,,,,,,,,,,,,,,,,,,,,,,,,,,,,,,,,,,,,,,,,,,,,,,,,,,,,,,,,,,,79.78931774202675,114.83992479576912,86.91924811806045,146.6107263796531,183.15916469787345,76.46717924164737,2.2,2.22,-227,278,0,-260,208,-271,407.2458188533783,407.2459239959717,407.24958324432373,407.26539969444275,407.4047899246216,407.4047899246216,407.4047899246216,407.4047899246216,407.4047899246216,407.4047899246216,407.4047899246216,410.08820056915283,2,2.8191936016082764,None,,,,,,,,,,,,,,,,,,187,2,2025-03-04_14h48.59.615,comp,2024.2.4,56.784758851498445,2025-03-04 14h49.05.716776 -0500,
63,63,0,filler_square,None,None,None,None,None,None,None,None,None,None,1,1.7464849948883057,None,,,,,0,0,0,0,0,63,63,178,410.10574746131897,,,,,,,,,,,,,,,,,,,,,,,,,,,,,,,,,,,,,,,,,,,,,,,,,,,,,,,,,,,,,,,,,,,,,,,,,,,,,,,,,137.30777913706788,137.30777913706788,85.79167596875487,78.02671353588464,68.90150571288856,87.36174927427683,2.2,2.22,-204,285,0,-257,179,-259,410.0904369354248,410.09057211875916,410.0950062274933,410.10574746131897,410.25645112991333,410.25645112991333,410.25645112991333,410.25645112991333,410.25645112991333,410.25645112991333,410.25645112991333,411.8571584224701,1,1.7464849948883057,None,,,,,,,,,,,,,,,,,,187,2,2025-03-04_14h48.59.615,comp,2024.2.4,56.784758851498445,2025-03-04 14h49.05.716776 -0500,
64,64,0,filler_random,None,None,None,None,None,None,None,None,None,None,2,1.248518466949463,None,,,,,0,0,0,0,0,64,64,131,411.87576723098755,,,,,,,,,,,,,,,,,,,,,,,,,,,,,,,,,,,,,,,,,,,,,,,,,,,,,,,,,,,,,,,,,,,,,,,,,,,,,,,,,78.07421669323787,162.74252402174997,145.04286066895816,193.31615389714506,187.17709145929723,112.3654458542214,4.0,4.1,-274,-252,0,16,249,-272,411.85897731781006,411.8590564727783,411.8624680042267,411.87576723098755,412.03028678894043,412.03028678894043,412.03028678894043,412.03028678894043,412.03028678894043,412.03028678894043,412.03028678894043,413.126384973526,2,1.248518466949463,None,,,,,,,,,,,,,,,,,,187,2,2025-03-04_14h48.59.615,comp,2024.2.4,56.784758851498445,2025-03-04 14h49.05.716776 -0500,
65,65,0,filler_random,None,None,None,None,None,None,None,None,None,None,3,1.2137389183044434,None,,,,,0,0,0,0,0,65,65,155,413.14240550994873,,,,,,,,,,,,,,,,,,,,,,,,,,,,,,,,,,,,,,,,,,,,,,,,,,,,,,,,,,,,,,,,,,,,,,,,,,,,,,,,,99.97424154904375,153.45716981840633,82.76880036049609,68.29033592497957,163.6189401297889,190.40177734731634,1.0,1.2,-207,-20,0,15,225,17,413.1282651424408,413.1283805370331,413.13178634643555,413.14240550994873,413.29593777656555,413.29593777656555,413.29593777656555,413.29593777656555,413.29593777656555,413.29593777656555,413.29593777656555,414.3769829273224,3,1.2137389183044434,None,,,,,,,,,,,,,,,,,,187,2,2025-03-04_14h48.59.615,comp,2024.2.4,56.784758851498445,2025-03-04 14h49.05.716776 -0500,
66,66,0,filler_square,None,None,None,None,None,None,None,None,None,None,2,1.085888385772705,None,,,,,0,0,0,0,0,66,66,193,414.3983907699585,,,,,,,,,,,,,,,,,,,,,,,,,,,,,,,,,,,,,,,,,,,,,,,,,,,,,,,,,,,,,,,,,,,,,,,,,,,,,,,,,120.4720085781326,172.02219789907517,196.99241818142255,196.99241818142255,110.62421020182026,58.228532161883244,1.0,1.1,-761,283,-480,256,-256,289,414.37914085388184,414.3792209625244,414.3830955028534,414.3983907699585,414.53904247283936,414.53904247283936,414.53904247283936,414.53904247283936,414.53904247283936,414.53904247283936,414.53904247283936,415.49645042419434,2,1.085888385772705,None,,,,,,,,,,,,,,,,,,187,2,2025-03-04_14h48.59.615,comp,2024.2.4,56.784758851498445,2025-03-04 14h49.05.716776 -0500,
67,67,0,critical,hdw,35.0,3.0,upper,200.0,125.0,127.0,127.0,125.0,200.0,1,5.023813962936401,None,,,,,0,0,0,0,0,67,67,111,415.5165116786957,,,,,,,,,,,,,,,,,,,,,,,,,,,,,,,,,,,,,,,,,,,,,,,,,,,,,,,,,,,,,,,,,,,,,,,,,,,,,,,,,200.0,125.0,127.0,127.0,125.0,200.0,3.0,3.2,-222,-260,0,-2,260,289,415.4980115890503,415.4980857372284,415.50128173828125,415.5165116786957,415.65626072883606,415.65626072883606,415.65626072883606,415.65626072883606,415.65626072883606,415.65626072883606,415.65626072883606,420.5427842140198,1,5.023813962936401,None,,,,,,,,,,,,,,,,,,187,2,2025-03-04_14h48.59.615,comp,2024.2.4,56.784758851498445,2025-03-04 14h49.05.716776 -0500,
68,68,0,critical,whd,20.0,2.1,lower,57.0,133.0,133.0,57.0,78.0,78.0,2,1.9251923561096191,None,,,,,0,0,0,0,0,68,68,38,420.5596058368683,,,,,,,,,,,,,,,,,,,,,,,,,,,,,,,,,,,,,,,,,,,,,,,,,,,,,,,,,,,,,,,,,,,,,,,,,,,,,,,,,57.0,133.0,133.0,57.0,78.0,78.0,2.1,2.11,-191,266,0,278,164,-254,420.54443073272705,420.5445132255554,420.54806113243103,420.5596058368683,420.70753145217896,420.70753145217896,420.70753145217896,420.70753145217896,420.70753145217896,420.70753145217896,420.70753145217896,422.49218821525574,2,1.9251923561096191,None,,,,,,,,,,,,,,,,,,187,2,2025-03-04_14h48.59.615,comp,2024.2.4,56.784758851498445,2025-03-04 14h49.05.716776 -0500,
69,69,0,critical,dhw,35.0,4.0,upper,127.0,127.0,200.0,125.0,125.0,200.0,2,4.207744598388672,None,,,,,0,0,0,0,0,69,69,53,422.5084640979767,,,,,,,,,,,,,,,,,,,,,,,,,,,,,,,,,,,,,,,,,,,,,,,,,,,,,,,,,,,,,,,,,,,,,,,,,,,,,,,,,127.0,127.0,200.0,125.0,125.0,200.0,4.0,4.1,-222,-283,0,-14,258,-286,422.49382853507996,422.4939339160919,422.4975082874298,422.5084640979767,422.65603971481323,422.65603971481323,422.65603971481323,422.65603971481323,422.65603971481323,422.65603971481323,422.65603971481323,426.73095512390137,2,4.207744598388672,None,,,,,,,,,,,,,,,,,,187,2,2025-03-04_14h48.59.615,comp,2024.2.4,56.784758851498445,2025-03-04 14h49.05.716776 -0500,
70,70,0,filler_random,None,None,None,None,None,None,None,None,None,None,2,4.0228166580200195,None,,,,,0,0,0,0,0,70,70,141,426.749737739563,,,,,,,,,,,,,,,,,,,,,,,,,,,,,,,,,,,,,,,,,,,,,,,,,,,,,,,,,,,,,,,,,,,,,,,,,,,,,,,,,174.39291712624058,62.3079317966672,169.6923395287165,133.66833234010568,97.8225682164131,148.0874472950181,2.1,2.11,-194,279,0,286,237,-267,426.73275566101074,426.73283791542053,426.73612356185913,426.749737739563,426.89282298088074,426.89282298088074,426.89282298088074,426.89282298088074,426.89282298088074,426.89282298088074,426.89282298088074,430.7764563560486,2,4.0228166580200195,None,,,,,,,,,,,,,,,,,,187,2,2025-03-04_14h48.59.615,comp,2024.2.4,56.784758851498445,2025-03-04 14h49.05.716776 -0500,
71,71,0,critical,hwd,35.0,2.1,upper,200.0,125.0,125.0,200.0,127.0,127.0,1,1.4981226921081543,None,,,,,0,0,0,0,0,71,71,17,430.79447388648987,,,,,,,,,,,,,,,,,,,,,,,,,,,,,,,,,,,,,,,,,,,,,,,,,,,,,,,,,,,,,,,,,,,,,,,,,,,,,,,,,200.0,125.0,125.0,200.0,127.0,127.0,2.1,2.11,-258,271,0,278,260,-279,430.77814745903015,430.7782473564148,430.78190517425537,430.79447388648987,430.94804096221924,430.94804096221924,430.94804096221924,430.94804096221924,430.94804096221924,430.94804096221924,430.94804096221924,432.31331491470337,1,1.4981226921081543,None,,,,,,,,,,,,,,,,,,187,2,2025-03-04_14h48.59.615,comp,2024.2.4,56.784758851498445,2025-03-04 14h49.05.716776 -0500,
72,72,0,critical,hdw,35.0,2.1,upper,200.0,125.0,127.0,127.0,125.0,200.0,1,6.793461084365845,None,,,,,0,0,0,0,0,72,72,45,432.331796169281,,,,,,,,,,,,,,,,,,,,,,,,,,,,,,,,,,,,,,,,,,,,,,,,,,,,,,,,,,,,,,,,,,,,,,,,,,,,,,,,,200.0,125.0,127.0,127.0,125.0,200.0,2.1,2.11,-222,269,0,286,260,-269,432.3150177001953,432.3151533603668,432.31914734840393,432.331796169281,432.47803378105164,432.47803378105164,432.47803378105164,432.47803378105164,432.47803378105164,432.47803378105164,432.47803378105164,439.1321642398834,1,6.793461084365845,None,,,,,,,,,,,,,,,,,,187,2,2025-03-04_14h48.59.615,comp,2024.2.4,56.784758851498445,2025-03-04 14h49.05.716776 -0500,
73,73,0,filler_square,None,None,None,None,None,None,None,None,None,None,1,7.814593553543091,None,,,,,0,0,0,0,0,73,73,199,439.1496036052704,,,,,,,,,,,,,,,,,,,,,,,,,,,,,,,,,,,,,,,,,,,,,,,,,,,,,,,,,,,,,,,,,,,,,,,,,,,,,,,,,87.17084328360447,87.17084328360447,85.93539861519395,62.97282390188582,74.98381821755767,86.2854326985143,2.2,2.21,-171,-271,0,269,171,256,439.1342785358429,439.1343586444855,439.1381719112396,439.1496036052704,439.29534006118774,439.29534006118774,439.29534006118774,439.29534006118774,439.29534006118774,439.29534006118774,439.29534006118774,446.9828727245331,1,7.814593553543091,None,,,,,,,,,,,,,,,,,,187,2,2025-03-04_14h48.59.615,comp,2024.2.4,56.784758851498445,2025-03-04 14h49.05.716776 -0500,
74,74,0,filler_square,None,None,None,None,None,None,None,None,None,None,2,1.0195159912109375,None,,,,,0,0,0,0,0,74,74,171,447.0009562969208,,,,,,,,,,,,,,,,,,,,,,,,,,,,,,,,,,,,,,,,,,,,,,,,,,,,,,,,,,,,,,,,,,,,,,,,,,,,,,,,,124.73584025026804,65.71177328231457,137.61986794253647,137.61986794253647,67.25968447634678,59.79891791097615,4.0,4.1,-198,-288,0,-12,195,-251,446.98465156555176,446.9847602844238,446.98828768730164,447.0009562969208,447.14978408813477,447.14978408813477,447.14978408813477,447.14978408813477,447.14978408813477,447.14978408813477,447.14978408813477,448.0318658351898,2,1.0195159912109375,None,,,,,,,,,,,,,,,,,,187,2,2025-03-04_14h48.59.615,comp,2024.2.4,56.784758851498445,2025-03-04 14h49.05.716776 -0500,
75,75,0,critical,dwh,20.0,2.1,lower,78.0,78.0,57.0,133.0,133.0,57.0,3,2.9036755561828613,None,,,,,0,0,0,0,0,75,75,30,448.05256366729736,,,,,,,,,,,,,,,,,,,,,,,,,,,,,,,,,,,,,,,,,,,,,,,,,,,,,,,,,,,,,,,,,,,,,,,,,,,,,,,,,78.0,78.0,57.0,133.0,133.0,57.0,2.1,2.11,-202,254,0,270,191,-272,448.0334599018097,448.0335602760315,448.0371708869934,448.05256366729736,448.19957733154297,448.19957733154297,448.19957733154297,448.19957733154297,448.19957733154297,448.19957733154297,448.19957733154297,450.9758491516113,3,2.9036755561828613,None,,,,,,,,,,,,,,,,,,187,2,2025-03-04_14h48.59.615,comp,2024.2.4,56.784758851498445,2025-03-04 14h49.05.716776 -0500,
76,76,0,filler_square,None,None,None,None,None,None,None,None,None,None,3,0.9860901832580566,None,,,,,0,0,0,0,0,76,76,185,450.9945116043091,,,,,,,,,,,,,,,,,,,,,,,,,,,,,,,,,,,,,,,,,,,,,,,,,,,,,,,,,,,,,,,,,,,,,,,,,,,,,,,,,118.597849277046,120.88879412852168,136.7198935251451,119.33301081646714,198.46424184729705,198.46424184729705,1.0,1.2,-216,-4,0,-12,255,13,450.97760558128357,450.97776103019714,450.9813234806061,450.9945116043091,451.13355469703674,451.13355469703674,451.13355469703674,451.13355469703674,451.13355469703674,451.13355469703674,451.13355469703674,451.98281717300415,3,0.9860901832580566,None,,,,,,,,,,,,,,,,,,187,2,2025-03-04_14h48.59.615,comp,2024.2.4,56.784758851498445,2025-03-04 14h49.05.716776 -0500,
77,77,0,critical,dhw,20.0,4.0,lower,78.0,78.0,133.0,57.0,57.0,133.0,2,5.273715257644653,None,,,,,0,0,0,0,0,77,77,58,452.0031945705414,,,,,,,,,,,,,,,,,,,,,,,,,,,,,,,,,,,,,,,,,,,,,,,,,,,,,,,,,,,,,,,,,,,,,,,,,,,,,,,,,78.0,78.0,133.0,57.0,57.0,133.0,4.0,4.1,-164,-282,0,18,191,-261,451.98443150520325,451.98452615737915,451.98814821243286,452.0031945705414,452.1380772590637,452.1380772590637,452.1380772590637,452.1380772590637,452.1380772590637,452.1380772590637,452.1380772590637,457.2879614830017,2,5.273715257644653,None,,,,,,,,,,,,,,,,,,187,2,2025-03-04_14h48.59.615,comp,2024.2.4,56.784758851498445,2025-03-04 14h49.05.716776 -0500,
78,78,0,filler_random,None,None,None,None,None,None,None,None,None,None,3,5.531430006027222,None,,,,,0,0,0,0,0,78,78,137,457.30489706993103,,,,,,,,,,,,,,,,,,,,,,,,,,,,,,,,,,,,,,,,,,,,,,,,,,,,,,,,,,,,,,,,,,,,,,,,,,,,,,,,,68.23881134415237,77.94485683492823,189.58524672352235,81.16539789249398,124.23531713301743,166.64980940092022,2.1,2.12,-176,-268,0,-275,220,287,457.2900302410126,457.29015946388245,457.2941701412201,457.30489706993103,457.4571614265442,457.4571614265442,457.4571614265442,457.4571614265442,457.4571614265442,457.4571614265442,457.4571614265442,462.85704803466797,3,5.531430006027222,None,,,,,,,,,,,,,,,,,,187,2,2025-03-04_14h48.59.615,comp,2024.2.4,56.784758851498445,2025-03-04 14h49.05.716776 -0500,
79,79,0,critical,wdh,35.0,4.0,upper,125.0,200.0,127.0,127.0,200.0,125.0,3,1.5615899562835693,None,,,,,0,0,0,0,0,79,79,77,462.87462544441223,,,,,,,,,,,,,,,,,,,,,,,,,,,,,,,,,,,,,,,,,,,,,,,,,,,,,,,,,,,,,,,,,,,,,,,,,,,,,,,,,125.0,200.0,127.0,127.0,200.0,125.0,4.0,4.2,-260,5,0,-287,222,0,462.85853457450867,462.8586091995239,462.86203503608704,462.87462544441223,463.0242190361023,463.0242190361023,463.0242190361023,463.0242190361023,463.0242190361023,463.0242190361023,463.0242190361023,464.4534115791321,3,1.5615899562835693,None,,,,,,,,,,,,,,,,,,187,2,2025-03-04_14h48.59.615,comp,2024.2.4,56.784758851498445,2025-03-04 14h49.05.716776 -0500,
80,80,0,critical,hdw,20.0,2.1,lower,133.0,57.0,78.0,78.0,57.0,133.0,1,2.3463618755340576,None,,,,,0,0,0,0,0,80,80,46,464.4690465927124,,,,,,,,,,,,,,,,,,,,,,,,,,,,,,,,,,,,,,,,,,,,,,,,,,,,,,,,,,,,,,,,,,,,,,,,,,,,,,,,,133.0,57.0,78.0,78.0,57.0,133.0,2.1,2.11,-164,277,0,252,202,-264,464.45500230789185,464.4550790786743,464.4584889411926,464.4690465927124,464.62341690063477,464.62341690063477,464.62341690063477,464.62341690063477,464.62341690063477,464.62341690063477,464.62341690063477,466.82017064094543,1,2.3463618755340576,None,,,,,,,,,,,,,,,,,,187,2,2025-03-04_14h48.59.615,comp,2024.2.4,56.784758851498445,2025-03-04 14h49.05.716776 -0500,
81,81,0,filler_square,None,None,None,None,None,None,None,None,None,None,2,1.584531545639038,None,,,,,0,0,0,0,0,81,81,177,466.8364329338074,,,,,,,,,,,,,,,,,,,,,,,,,,,,,,,,,,,,,,,,,,,,,,,,,,,,,,,,,,,,,,,,,,,,,,,,,,,,,,,,,169.7093234695448,164.03399931535088,195.56550167831477,195.56550167831477,114.85855325475822,90.17363383625315,4.0,4.2,-276,14,0,-278,239,-16,466.82203340530396,466.82211232185364,466.82556438446045,466.8364329338074,466.99023509025574,466.99023509025574,466.99023509025574,466.99023509025574,466.99023509025574,466.99023509025574,466.99023509025574,468.4263114929199,2,1.584531545639038,None,,,,,,,,,,,,,,,,,,187,2,2025-03-04_14h48.59.615,comp,2024.2.4,56.784758851498445,2025-03-04 14h49.05.716776 -0500,
82,82,0,critical,dwh,20.0,1.0,upper,141.0,141.0,125.0,200.0,200.0,125.0,3,3.2861359119415283,None,,,,,0,0,0,0,0,82,82,67,468.4468243122101,,,,,,,,,,,,,,,,,,,,,,,,,,,,,,,,,,,,,,,,,,,,,,,,,,,,,,,,,,,,,,,,,,,,,,,,,,,,,,,,,141.0,141.0,125.0,200.0,200.0,125.0,1.0,1.2,-266,10,0,17,258,9,468.4278733730316,468.4280016422272,468.4313325881958,468.4468243122101,468.58891582489014,468.58891582489014,468.58891582489014,468.58891582489014,468.58891582489014,468.58891582489014,468.58891582489014,471.74180603027344,3,3.2861359119415283,None,,,,,,,,,,,,,,,,,,187,2,2025-03-04_14h48.59.615,comp,2024.2.4,56.784758851498445,2025-03-04 14h49.05.716776 -0500,
83,83,0,critical,wdh,35.0,2.1,upper,125.0,200.0,127.0,127.0,200.0,125.0,3,9.285446166992188,None,,,,,0,0,0,0,0,83,83,33,471.75902581214905,,,,,,,,,,,,,,,,,,,,,,,,,,,,,,,,,,,,,,,,,,,,,,,,,,,,,,,,,,,,,,,,,,,,,,,,,,,,,,,,,125.0,200.0,127.0,127.0,200.0,125.0,2.1,2.11,-260,275,0,280,222,-284,471.74365997314453,471.74382638931274,471.7482044696808,471.75902581214905,471.895672082901,471.895672082901,471.895672082901,471.895672082901,471.895672082901,471.895672082901,471.895672082901,481.06134700775146,3,9.285446166992188,None,,,,,,,,,,,,,,,,,,187,2,2025-03-04_14h48.59.615,comp,2024.2.4,56.784758851498445,2025-03-04 14h49.05.716776 -0500,
84,84,0,critical,hwd,20.0,1.0,upper,200.0,125.0,125.0,200.0,141.0,141.0,1,7.111951589584351,None,,,,,0,0,0,0,0,84,84,103,481.0770263671875,,,,,,,,,,,,,,,,,,,,,,,,,,,,,,,,,,,,,,,,,,,,,,,,,,,,,,,,,,,,,,,,,,,,,,,,,,,,,,,,,200.0,125.0,125.0,200.0,141.0,141.0,1.0,1.3,222,-272,480,-260,746,-288,481.06311321258545,481.0631935596466,481.0668261051178,481.0770263671875,481.22589015960693,481.22589015960693,481.22589015960693,481.22589015960693,481.22589015960693,481.22589015960693,481.22589015960693,488.1954665184021,1,7.111951589584351,None,,,,,,,,,,,,,,,,,,187,2,2025-03-04_14h48.59.615,comp,2024.2.4,56.784758851498445,2025-03-04 14h49.05.716776 -0500,
85,85,0,critical,dwh,35.0,3.0,lower,70.0,70.0,57.0,133.0,133.0,57.0,2,11.265526056289673,None,,,,,0,0,0,0,0,85,85,62,488.21153020858765,,,,,,,,,,,,,,,,,,,,,,,,,,,,,,,,,,,,,,,,,,,,,,,,,,,,,,,,,,,,,,,,,,,,,,,,,,,,,,,,,70.0,70.0,57.0,133.0,133.0,57.0,3.0,3.1,-198,287,0,18,191,-262,488.1970634460449,488.1971399784088,488.2008202075958,488.21153020858765,488.3657262325287,488.3657262325287,488.3657262325287,488.3657262325287,488.3657262325287,488.3657262325287,488.3657262325287,499.48025250434875,2,11.265526056289673,None,,,,,,,,,,,,,,,,,,187,2,2025-03-04_14h48.59.615,comp,2024.2.4,56.784758851498445,2025-03-04 14h49.05.716776 -0500,
86,86,0,filler_random,None,None,None,None,None,None,None,None,None,None,1,1.1295139789581299,None,,,,,0,0,0,0,0,86,86,139,499.49927711486816,,,,,,,,,,,,,,,,,,,,,,,,,,,,,,,,,,,,,,,,,,,,,,,,,,,,,,,,,,,,,,,,,,,,,,,,,,,,,,,,,191.76185580119682,184.80468438228667,125.6237366012609,85.24208423216166,180.65900656470146,145.16742315364803,3.0,3.1,-231,252,0,-15,211,-283,499.4807460308075,499.48076605796814,499.48162508010864,499.49927711486816,499.6335711479187,499.6335711479187,499.6335711479187,499.6335711479187,499.6335711479187,499.6335711479187,499.6335711479187,500.6354877948761,1,1.1295139789581299,None,,,,,,,,,,,,,,,,,,187,2,2025-03-04_14h48.59.615,comp,2024.2.4,56.784758851498445,2025-03-04 14h49.05.716776 -0500,
87,87,0,filler_random,None,None,None,None,None,None,None,None,None,None,2,0.893233060836792,None,,,,,0,0,0,0,0,87,87,163,500.6557514667511,,,,,,,,,,,,,,,,,,,,,,,,,,,,,,,,,,,,,,,,,,,,,,,,,,,,,,,,,,,,,,,,,,,,,,,,,,,,,,,,,87.27638988554042,105.7616002634854,160.89578121065773,184.45620878409358,144.22416499555845,144.3249220742691,3.0,3.2,-241,-290,0,0,260,254,500.63769698143005,500.6378312110901,500.6411702632904,500.6557514667511,500.8020589351654,500.8020589351654,500.8020589351654,500.8020589351654,500.8020589351654,500.8020589351654,500.8020589351654,501.5541105270386,2,0.893233060836792,None,,,,,,,,,,,,,,,,,,187,2,2025-03-04_14h48.59.615,comp,2024.2.4,56.784758851498445,2025-03-04 14h49.05.716776 -0500,
88,88,0,critical,dhw,35.0,2.1,upper,127.0,127.0,200.0,125.0,125.0,200.0,3,2.1707818508148193,None,,,,,0,0,0,0,0,88,88,1,501.5705318450928,,,,,,,,,,,,,,,,,,,,,,,,,,,,,,,,,,,,,,,,,,,,,,,,,,,,,,,,,,,,,,,,,,,,,,,,,,,,,,,,,127.0,127.0,200.0,125.0,125.0,200.0,2.1,2.11,-222,267,0,287,258,-274,501.5556197166443,501.55572152137756,501.5589394569397,501.5705318450928,501.7168745994568,501.7168745994568,501.7168745994568,501.7168745994568,501.7168745994568,501.7168745994568,501.7168745994568,503.74935603141785,3,2.1707818508148193,None,,,,,,,,,,,,,,,,,,187,2,2025-03-04_14h48.59.615,comp,2024.2.4,56.784758851498445,2025-03-04 14h49.05.716776 -0500,
89,89,0,critical,whd,35.0,2.1,upper,125.0,200.0,200.0,125.0,127.0,127.0,2,1.3960394859313965,None,,,,,0,0,0,0,0,89,89,13,503.7686197757721,,,,,,,,,,,,,,,,,,,,,,,,,,,,,,,,,,,,,,,,,,,,,,,,,,,,,,,,,,,,,,,,,,,,,,,,,,,,,,,,,125.0,200.0,200.0,125.0,127.0,127.0,2.1,2.11,-258,270,0,258,222,-263,503.7509672641754,503.75104451179504,503.7544584274292,503.7686197757721,503.91695737838745,503.91695737838745,503.91695737838745,503.91695737838745,503.91695737838745,503.91695737838745,503.91695737838745,505.16964173316956,2,1.3960394859313965,None,,,,,,,,,,,,,,,,,,187,2,2025-03-04_14h48.59.615,comp,2024.2.4,56.784758851498445,2025-03-04 14h49.05.716776 -0500,
90,90,0,critical,dhw,20.0,3.0,lower,78.0,78.0,133.0,57.0,57.0,133.0,2,3.432918071746826,None,,,,,0,0,0,0,0,90,90,56,505.1870450973511,,,,,,,,,,,,,,,,,,,,,,,,,,,,,,,,,,,,,,,,,,,,,,,,,,,,,,,,,,,,,,,,,,,,,,,,,,,,,,,,,78.0,78.0,133.0,57.0,57.0,133.0,3.0,3.2,-164,-272,0,-1,191,259,505.1715319156647,505.1716730594635,505.17553091049194,505.1870450973511,505.33409881591797,505.33409881591797,505.33409881591797,505.33409881591797,505.33409881591797,505.33409881591797,505.33409881591797,508.63327836990356,2,3.432918071746826,None,,,,,,,,,,,,,,,,,,187,2,2025-03-04_14h48.59.615,comp,2024.2.4,56.784758851498445,2025-03-04 14h49.05.716776 -0500,
91,91,0,filler_random,None,None,None,None,None,None,None,None,None,None,1,1.436145305633545,None,,,,,0,0,0,0,0,91,91,158,508.6482973098755,,,,,,,,,,,,,,,,,,,,,,,,,,,,,,,,,,,,,,,,,,,,,,,,,,,,,,,,,,,,,,,,,,,,,,,,,,,,,,,,,146.75384608768073,188.04406440201484,97.77846440390005,59.3050070698418,99.77291769337054,131.49178730837377,2.1,2.11,-220,272,0,252,191,-252,508.63422656059265,508.6342656612396,508.63592076301575,508.6482973098755,508.79905819892883,508.79905819892883,508.79905819892883,508.79905819892883,508.79905819892883,508.79905819892883,508.79905819892883,510.10525727272034,1,1.436145305633545,None,,,,,,,,,,,,,,,,,,187,2,2025-03-04_14h48.59.615,comp,2024.2.4,56.784758851498445,2025-03-04 14h49.05.716776 -0500,
92,92,0,critical,hwd,35.0,2.1,lower,133.0,57.0,57.0,133.0,70.0,70.0,1,7.210881233215332,None,,,,,0,0,0,0,0,92,92,16,510.12152576446533,,,,,,,,,,,,,,,,,,,,,,,,,,,,,,,,,,,,,,,,,,,,,,,,,,,,,,,,,,,,,,,,,,,,,,,,,,,,,,,,,133.0,57.0,57.0,133.0,70.0,70.0,2.1,2.11,-191,271,0,258,198,-259,510.1070272922516,510.10714650154114,510.1109447479248,510.12152576446533,510.27370405197144,510.27370405197144,510.27370405197144,510.27370405197144,510.27370405197144,510.27370405197144,510.27370405197144,517.3447813987732,1,7.210881233215332,None,,,,,,,,,,,,,,,,,,187,2,2025-03-04_14h48.59.615,comp,2024.2.4,56.784758851498445,2025-03-04 14h49.05.716776 -0500,
93,93,0,critical,hwd,20.0,3.0,upper,200.0,125.0,125.0,200.0,141.0,141.0,1,15.36391282081604,None,,,,,0,0,0,0,0,93,93,105,517.3604941368103,,,,,,,,,,,,,,,,,,,,,,,,,,,,,,,,,,,,,,,,,,,,,,,,,,,,,,,,,,,,,,,,,,,,,,,,,,,,,,,,,200.0,125.0,125.0,200.0,141.0,141.0,3.0,3.1,-258,269,0,6,266,-260,517.3463561534882,517.3464369773865,517.3497257232666,517.3604941368103,517.5041420459747,517.5041420459747,517.5041420459747,517.5041420459747,517.5041420459747,517.5041420459747,517.5041420459747,532.7272481918335,1,15.36391282081604,None,,,,,,,,,,,,,,,,,,187,2,2025-03-04_14h48.59.615,comp,2024.2.4,56.784758851498445,2025-03-04 14h49.05.716776 -0500,
94,94,0,critical,hdw,20.0,2.1,upper,200.0,125.0,141.0,141.0,125.0,200.0,3,3.4375057220458984,None,,,,,0,0,0,0,0,94,94,23,532.7430512905121,,,,,,,,,,,,,,,,,,,,,,,,,,,,,,,,,,,,,,,,,,,,,,,,,,,,,,,,,,,,,,,,,,,,,,,,,,,,,,,,,200.0,125.0,141.0,141.0,125.0,200.0,2.1,2.11,-229,264,0,253,266,-258,532.7285244464874,532.7285645008087,532.7322247028351,532.7430512905121,532.8990828990936,532.8990828990936,532.8990828990936,532.8990828990936,532.8990828990936,532.8990828990936,532.8990828990936,536.1941437721252,3,3.4375057220458984,None,,,,,,,,,,,,,,,,,,187,2,2025-03-04_14h48.59.615,comp,2024.2.4,56.784758851498445,2025-03-04 14h49.05.716776 -0500,
95,95,0,critical,dhw,35.0,4.0,lower,70.0,70.0,133.0,57.0,57.0,133.0,3,9.595467329025269,None,,,,,0,0,0,0,0,95,95,52,536.2096700668335,,,,,,,,,,,,,,,,,,,,,,,,,,,,,,,,,,,,,,,,,,,,,,,,,,,,,,,,,,,,,,,,,,,,,,,,,,,,,,,,,70.0,70.0,133.0,57.0,57.0,133.0,4.0,4.1,-160,-262,0,16,191,-255,536.1954870223999,536.1955409049988,536.1981694698334,536.2096700668335,536.3609595298767,536.3609595298767,536.3609595298767,536.3609595298767,536.3609595298767,536.3609595298767,536.3609595298767,545.8145310878754,3,9.595467329025269,None,,,,,,,,,,,,,,,,,,187,2,2025-03-04_14h48.59.615,comp,2024.2.4,56.784758851498445,2025-03-04 14h49.05.716776 -0500,
96,96,0,critical,hdw,35.0,1.0,upper,200.0,125.0,127.0,127.0,125.0,200.0,1,2.814128875732422,None,,,,,0,0,0,0,0,96,96,109,545.8306081295013,,,,,,,,,,,,,,,,,,,,,,,,,,,,,,,,,,,,,,,,,,,,,,,,,,,,,,,,,,,,,,,,,,,,,,,,,,,,,,,,,200.0,125.0,127.0,127.0,125.0,200.0,1.0,1.2,-222,5,0,7,260,-9,545.8160574436188,545.8161373138428,545.819901227951,545.8306081295013,545.978217124939,545.978217124939,545.978217124939,545.978217124939,545.978217124939,545.978217124939,545.978217124939,548.655351638794,1,2.814128875732422,None,,,,,,,,,,,,,,,,,,187,2,2025-03-04_14h48.59.615,comp,2024.2.4,56.784758851498445,2025-03-04 14h49.05.716776 -0500,
97,97,0,critical,dwh,20.0,4.0,lower,78.0,78.0,57.0,133.0,133.0,57.0,2,4.407181024551392,None,,,,,0,0,0,0,0,97,97,70,548.6702432632446,,,,,,,,,,,,,,,,,,,,,,,,,,,,,,,,,,,,,,,,,,,,,,,,,,,,,,,,,,,,,,,,,,,,,,,,,,,,,,,,,78.0,78.0,57.0,133.0,133.0,57.0,4.0,4.2,-202,15,0,-271,191,19,548.6569941043854,548.6570725440979,548.6603760719299,548.6702432632446,548.8176527023315,548.8176527023315,548.8176527023315,548.8176527023315,548.8176527023315,548.8176527023315,548.8176527023315,553.0827190876007,2,4.407181024551392,None,,,,,,,,,,,,,,,,,,187,2,2025-03-04_14h48.59.615,comp,2024.2.4,56.784758851498445,2025-03-04 14h49.05.716776 -0500,
98,98,0,filler_random,None,None,None,None,None,None,None,None,None,None,1,5.856384038925171,None,,,,,0,0,0,0,0,98,98,134,553.1001167297363,,,,,,,,,,,,,,,,,,,,,,,,,,,,,,,,,,,,,,,,,,,,,,,,,,,,,,,,,,,,,,,,,,,,,,,,,,,,,,,,,79.27356068907088,160.9735393311418,108.74897944374658,112.88630816344326,104.55887735491547,68.24047664656854,1.0,1.1,-713,273,-480,259,-293,271,553.0845065116882,553.0845828056335,553.0888814926147,553.1001167297363,553.2503633499146,553.2503633499146,553.2503633499146,553.2503633499146,553.2503633499146,553.2503633499146,553.2503633499146,558.965918302536,1,5.856384038925171,None,,,,,,,,,,,,,,,,,,187,2,2025-03-04_14h48.59.615,comp,2024.2.4,56.784758851498445,2025-03-04 14h49.05.716776 -0500,
99,99,0,critical,whd,35.0,3.0,upper,125.0,200.0,200.0,125.0,127.0,127.0,2,1.9658513069152832,None,,,,,0,0,0,0,0,99,99,87,558.9826691150665,,,,,,,,,,,,,,,,,,,,,,,,,,,,,,,,,,,,,,,,,,,,,,,,,,,,,,,,,,,,,,,,,,,,,,,,,,,,,,,,,125.0,200.0,200.0,125.0,127.0,127.0,3.0,3.1,-258,287,0,7,222,-275,558.9674074649811,558.9674847126007,558.97101354599,558.9826691150665,559.1348130702972,559.1348130702972,559.1348130702972,559.1348130702972,559.1348130702972,559.1348130702972,559.1348130702972,560.9584331512451,2,1.9658513069152832,None,,,,,,,,,,,,,,,,,,187,2,2025-03-04_14h48.59.615,comp,2024.2.4,56.784758851498445,2025-03-04 14h49.05.716776 -0500,
100,100,0,filler_random,None,None,None,None,None,None,None,None,None,None,1,9.105254888534546,None,,,,,0,0,0,0,0,100,100,169,560.9734580516815,,,,,,,,,,,,,,,,,,,,,,,,,,,,,,,,,,,,,,,,,,,,,,,,,,,,,,,,,,,,,,,,,,,,,,,,,,,,,,,,,146.3309125049215,146.85491026404986,93.68078546879414,136.39665843062423,183.50012363120055,69.89100599128287,1.0,1.1,-718,252,-480,286,-281,279,560.9602365493774,560.9603159427643,560.9635806083679,560.9734580516815,561.1159338951111,561.1159338951111,561.1159338951111,561.1159338951111,561.1159338951111,561.1159338951111,561.1159338951111,570.0897786617279,1,9.105254888534546,None,,,,,,,,,,,,,,,,,,187,2,2025-03-04_14h48.59.615,comp,2024.2.4,56.784758851498445,2025-03-04 14h49.05.716776 -0500,
101,101,0,critical,hdw,20.0,3.0,upper,200.0,125.0,141.0,141.0,125.0,200.0,1,10.753379106521606,None,,,,,0,0,0,0,0,101,101,117,570.1074147224426,,,,,,,,,,,,,,,,,,,,,,,,,,,,,,,,,,,,,,,,,,,,,,,,,,,,,,,,,,,,,,,,,,,,,,,,,,,,,,,,,200.0,125.0,141.0,141.0,125.0,200.0,3.0,3.2,-229,-282,0,-19,266,274,570.091507434845,570.091638803482,570.0955529212952,570.1074147224426,570.2535467147827,570.2535467147827,570.2535467147827,570.2535467147827,570.2535467147827,570.2535467147827,570.2535467147827,580.8793864250183,1,10.753379106521606,None,,,,,,,,,,,,,,,,,,187,2,2025-03-04_14h48.59.615,comp,2024.2.4,56.784758851498445,2025-03-04 14h49.05.716776 -0500,
102,102,0,critical,whd,20.0,1.0,upper,125.0,200.0,200.0,125.0,141.0,141.0,2,1.733189582824707,None,,,,,0,0,0,0,0,102,102,91,580.8955109119415,,,,,,,,,,,,,,,,,,,,,,,,,,,,,,,,,,,,,,,,,,,,,,,,,,,,,,,,,,,,,,,,,,,,,,,,,,,,,,,,,125.0,200.0,200.0,125.0,141.0,141.0,1.0,1.1,-738,263,-480,270,-251,271,580.8810768127441,580.8811523914337,580.8850564956665,580.8955109119415,581.0495758056641,581.0495758056641,581.0495758056641,581.0495758056641,581.0495758056641,581.0495758056641,581.0495758056641,582.6419470310211,2,1.733189582824707,None,,,,,,,,,,,,,,,,,,187,2,2025-03-04_14h48.59.615,comp,2024.2.4,56.784758851498445,2025-03-04 14h49.05.716776 -0500,
103,103,0,critical,wdh,20.0,1.0,lower,57.0,133.0,78.0,78.0,133.0,57.0,3,3.525395631790161,None,,,,,0,0,0,0,0,103,103,78,582.6575632095337,,,,,,,,,,,,,,,,,,,,,,,,,,,,,,,,,,,,,,,,,,,,,,,,,,,,,,,,,,,,,,,,,,,,,,,,,,,,,,,,,57.0,133.0,78.0,78.0,133.0,57.0,1.0,1.1,-682,286,-480,287,-316,288,582.6434891223907,582.6435651779175,582.6472311019897,582.6575632095337,582.8151626586914,582.8151626586914,582.8151626586914,582.8151626586914,582.8151626586914,582.8151626586914,582.8151626586914,586.1877460479736,3,3.525395631790161,None,,,,,,,,,,,,,,,,,,187,2,2025-03-04_14h48.59.615,comp,2024.2.4,56.784758851498445,2025-03-04 14h49.05.716776 -0500,
104,104,0,filler_square,None,None,None,None,None,None,None,None,None,None,3,1.1601800918579102,None,,,,,0,0,0,0,0,104,104,186,586.2045476436615,,,,,,,,,,,,,,,,,,,,,,,,,,,,,,,,,,,,,,,,,,,,,,,,,,,,,,,,,,,,,,,,,,,,,,,,,,,,,,,,,83.3836304367111,62.24988386574685,94.3748705400763,168.18554220738577,175.33357635898764,175.33357635898764,3.0,3.2,-211,-262,0,0,268,259,586.1895351409912,586.1896085739136,586.1928758621216,586.2045476436615,586.3514409065247,586.3514409065247,586.3514409065247,586.3514409065247,586.3514409065247,586.3514409065247,586.3514409065247,587.3755090236664,3,1.1601800918579102,None,,,,,,,,,,,,,,,,,,187,2,2025-03-04_14h48.59.615,comp,2024.2.4,56.784758851498445,2025-03-04 14h49.05.716776 -0500,
105,105,0,critical,hwd,35.0,3.0,lower,133.0,57.0,57.0,133.0,70.0,70.0,1,2.2846076488494873,None,,,,,0,0,0,0,0,105,105,98,587.3923163414001,,,,,,,,,,,,,,,,,,,,,,,,,,,,,,,,,,,,,,,,,,,,,,,,,,,,,,,,,,,,,,,,,,,,,,,,,,,,,,,,,133.0,57.0,57.0,133.0,70.0,70.0,3.0,3.2,-191,-257,0,19,198,286,587.3771097660065,587.377189874649,587.3807165622711,587.3923163414001,587.54523229599,587.54523229599,587.54523229599,587.54523229599,587.54523229599,587.54523229599,587.54523229599,589.6955904960632,1,2.2846076488494873,None,,,,,,,,,,,,,,,,,,187,2,2025-03-04_14h48.59.615,comp,2024.2.4,56.784758851498445,2025-03-04 14h49.05.716776 -0500,
106,106,0,filler_square,None,None,None,None,None,None,None,None,None,None,2,2.0210611820220947,None,,,,,0,0,0,0,0,106,106,191,589.7115299701691,,,,,,,,,,,,,,,,,,,,,,,,,,,,,,,,,,,,,,,,,,,,,,,,,,,,,,,,,,,,,,,,,,,,,,,,,,,,,,,,,67.45965464186857,60.28471648232871,79.82977773474494,68.67726122824271,84.2566758434751,84.2566758434751,2.1,2.12,-160,-253,0,-261,172,262,589.6976220607758,589.6978008747101,589.701057434082,589.7115299701691,589.8615386486053,589.8615386486053,589.8615386486053,589.8615386486053,589.8615386486053,589.8615386486053,589.8615386486053,591.7433927059174,2,2.0210611820220947,None,,,,,,,,,,,,,,,,,,187,2,2025-03-04_14h48.59.615,comp,2024.2.4,56.784758851498445,2025-03-04 14h49.05.716776 -0500,
107,107,0,filler_random,None,None,None,None,None,None,None,None,None,None,2,5.572528839111328,None,,,,,0,0,0,0,0,107,107,150,591.7601647377014,,,,,,,,,,,,,,,,,,,,,,,,,,,,,,,,,,,,,,,,,,,,,,,,,,,,,,,,,,,,,,,,,,,,,,,,,,,,,,,,,88.58850418885599,167.21650413979472,99.04917105422814,174.2999947402199,176.37246615475232,62.02402355093128,2.2,2.21,-267,-269,0,257,214,279,591.7451252937317,591.7452030181885,591.7486159801483,591.7601647377014,591.91175365448,591.91175365448,591.91175365448,591.91175365448,591.91175365448,591.91175365448,591.91175365448,597.3475203514099,2,5.572528839111328,None,,,,,,,,,,,,,,,,,,187,2,2025-03-04_14h48.59.615,comp,2024.2.4,56.784758851498445,2025-03-04 14h49.05.716776 -0500,
108,108,0,critical,dhw,35.0,3.0,lower,70.0,70.0,133.0,57.0,57.0,133.0,2,4.53775429725647,None,,,,,0,0,0,0,0,108,108,50,597.3631205558777,,,,,,,,,,,,,,,,,,,,,,,,,,,,,,,,,,,,,,,,,,,,,,,,,,,,,,,,,,,,,,,,,,,,,,,,,,,,,,,,,70.0,70.0,133.0,57.0,57.0,133.0,3.0,3.2,-160,-270,0,-12,191,268,597.3490662574768,597.3491408824921,597.3528742790222,597.3631205558777,597.518609046936,597.518609046936,597.518609046936,597.518609046936,597.518609046936,597.518609046936,597.518609046936,601.9176092147827,2,4.53775429725647,None,,,,,,,,,,,,,,,,,,187,2,2025-03-04_14h48.59.615,comp,2024.2.4,56.784758851498445,2025-03-04 14h49.05.716776 -0500,
109,109,0,filler_random,None,None,None,None,None,None,None,None,None,None,2,4.583072662353516,None,,,,,0,0,0,0,0,109,109,135,601.9335434436798,,,,,,,,,,,,,,,,,,,,,,,,,,,,,,,,,,,,,,,,,,,,,,,,,,,,,,,,,,,,,,,,,,,,,,,,,,,,,,,,,86.10784773859967,198.66581570706407,160.80173332739295,139.7966455402742,170.90742847541065,60.604400461347836,3.0,3.2,-265,-256,0,5,196,258,601.9200024604797,601.920078754425,601.9233345985413,601.9335434436798,602.0787999629974,602.0787999629974,602.0787999629974,602.0787999629974,602.0787999629974,602.0787999629974,602.0787999629974,606.5333921909332,2,4.583072662353516,None,,,,,,,,,,,,,,,,,,187,2,2025-03-04_14h48.59.615,comp,2024.2.4,56.784758851498445,2025-03-04 14h49.05.716776 -0500,
110,110,0,catch,None,None,None,None,None,None,None,None,None,None,1,1.057257890701294,None,,,,,0,0,0,0,0,110,110,124,606.5495681762695,,,,,,,,,,,,,,,,,,,,,,,,,,,,,,,,,,,,,,,,,,,,,,,,,,,,,,,,,,,,,,,,,,,,,,,,,,,,,,,,,151,174,114,76,81,109,1.0,1.2,-221,-4,0,-4,188,0,606.5353939533234,606.5354909896851,606.5393266677856,606.5495681762695,606.6916046142578,606.6916046142578,606.6916046142578,606.6916046142578,606.6916046142578,606.6916046142578,606.6916046142578,607.6178343296051,1,1.057257890701294,None,,,,,,,,,,,,,,,,,,187,2,2025-03-04_14h48.59.615,comp,2024.2.4,56.784758851498445,2025-03-04 14h49.05.716776 -0500,
111,111,0,critical,dwh,20.0,4.0,upper,141.0,141.0,125.0,200.0,200.0,125.0,2,2.2343385219573975,None,,,,,0,0,0,0,0,111,111,71,607.634407043457,,,,,,,,,,,,,,,,,,,,,,,,,,,,,,,,,,,,,,,,,,,,,,,,,,,,,,,,,,,,,,,,,,,,,,,,,,,,,,,,,141.0,141.0,125.0,200.0,200.0,125.0,4.0,4.2,-266,10,0,-277,258,13,607.6195504665375,607.6196587085724,607.6233141422272,607.634407043457,607.7864217758179,607.7864217758179,607.7864217758179,607.7864217758179,607.7864217758179,607.7864217758179,607.7864217758179,609.8833994865417,2,2.2343385219573975,None,,,,,,,,,,,,,,,,,,187,2,2025-03-04_14h48.59.615,comp,2024.2.4,56.784758851498445,2025-03-04 14h49.05.716776 -0500,
112,112,0,critical,dwh,20.0,3.0,lower,78.0,78.0,57.0,133.0,133.0,57.0,3,4.378758907318115,None,,,,,0,0,0,0,0,112,112,68,609.8996315002441,,,,,,,,,,,,,,,,,,,,,,,,,,,,,,,,,,,,,,,,,,,,,,,,,,,,,,,,,,,,,,,,,,,,,,,,,,,,,,,,,78.0,78.0,57.0,133.0,133.0,57.0,3.0,3.1,-202,290,0,-14,191,-267,609.884928226471,609.8850026130676,609.8884012699127,609.8996315002441,610.0528047084808,610.0528047084808,610.0528047084808,610.0528047084808,610.0528047084808,610.0528047084808,610.0528047084808,614.2838704586029,3,4.378758907318115,None,,,,,,,,,,,,,,,,,,187,2,2025-03-04_14h48.59.615,comp,2024.2.4,56.784758851498445,2025-03-04 14h49.05.716776 -0500,
113,113,0,filler_square,None,None,None,None,None,None,None,None,None,None,1,5.127861738204956,None,,,,,0,0,0,0,0,113,113,205,614.3008172512054,,,,,,,,,,,,,,,,,,,,,,,,,,,,,,,,,,,,,,,,,,,,,,,,,,,,,,,,,,,,,,,,,,,,,,,,,,,,,,,,,87.25406568775944,87.25406568775944,73.53086018623694,68.04324455391962,79.36009407056348,75.24832941918548,3.0,3.2,-174,-274,0,4,168,280,614.2857513427734,614.2858309745789,614.2892744541168,614.3008172512054,614.4422700405121,614.4422700405121,614.4422700405121,614.4422700405121,614.4422700405121,614.4422700405121,614.4422700405121,619.4439270496368,1,5.127861738204956,None,,,,,,,,,,,,,,,,,,187,2,2025-03-04_14h48.59.615,comp,2024.2.4,56.784758851498445,2025-03-04 14h49.05.716776 -0500,
114,114,0,critical,wdh,35.0,3.0,lower,57.0,133.0,70.0,70.0,133.0,57.0,3,7.280481338500977,None,,,,,0,0,0,0,0,114,114,74,619.4602196216583,,,,,,,,,,,,,,,,,,,,,,,,,,,,,,,,,,,,,,,,,,,,,,,,,,,,,,,,,,,,,,,,,,,,,,,,,,,,,,,,,57.0,133.0,70.0,70.0,133.0,57.0,3.0,3.1,-198,279,0,5,160,-262,619.4457077980042,619.4458003044128,619.4491214752197,619.4602196216583,619.603847026825,619.603847026825,619.603847026825,619.603847026825,619.603847026825,619.603847026825,619.603847026825,626.7549912929535,3,7.280481338500977,None,,,,,,,,,,,,,,,,,,187,2,2025-03-04_14h48.59.615,comp,2024.2.4,56.784758851498445,2025-03-04 14h49.05.716776 -0500,
115,115,0,catch,None,None,None,None,None,None,None,None,None,None,2,1.1070892810821533,None,,,,,0,0,0,0,0,115,115,120,626.7709240913391,,,,,,,,,,,,,,,,,,,,,,,,,,,,,,,,,,,,,,,,,,,,,,,,,,,,,,,,,,,,,,,,,,,,,,,,,,,,,,,,,79,111,155,170,118,72,3.0,3.2,-236,-252,0,-8,217,273,626.7570223808289,626.7571012973785,626.7605261802673,626.7709240913391,626.9240205287933,626.9240205287933,626.9240205287933,626.9240205287933,626.9240205287933,626.9240205287933,626.9240205287933,627.8896255493164,2,1.1070892810821533,None,,,,,,,,,,,,,,,,,,187,2,2025-03-04_14h48.59.615,comp,2024.2.4,56.784758851498445,2025-03-04 14h49.05.716776 -0500,
116,116,0,filler_random,None,None,None,None,None,None,None,None,None,None,3,1.2513110637664795,None,,,,,0,0,0,0,0,116,116,148,627.9061357975006,,,,,,,,,,,,,,,,,,,,,,,,,,,,,,,,,,,,,,,,,,,,,,,,,,,,,,,,,,,,,,,,,,,,,,,,,,,,,,,,,97.06886605022909,76.38956381476311,114.63991967245568,98.67628772876432,115.11791468630143,187.80896447152776,2.2,2.21,-184,-279,0,282,239,254,627.8915019035339,627.8915796279907,627.8958826065063,627.9061357975006,628.0557246208191,628.0557246208191,628.0557246208191,628.0557246208191,628.0557246208191,628.0557246208191,628.0557246208191,629.1670207977295,3,1.2513110637664795,None,,,,,,,,,,,,,,,,,,187,2,2025-03-04_14h48.59.615,comp,2024.2.4,56.784758851498445,2025-03-04 14h49.05.716776 -0500,
117,117,0,critical,dwh,20.0,2.1,upper,141.0,141.0,125.0,200.0,200.0,125.0,2,1.7465479373931885,None,,,,,0,0,0,0,0,117,117,31,629.1861689090729,,,,,,,,,,,,,,,,,,,,,,,,,,,,,,,,,,,,,,,,,,,,,,,,,,,,,,,,,,,,,,,,,,,,,,,,,,,,,,,,,141.0,141.0,125.0,200.0,200.0,125.0,2.1,2.11,-266,268,0,253,258,-254,629.1685562133789,629.1686351299286,629.1718862056732,629.1861689090729,629.3290600776672,629.3290600776672,629.3290600776672,629.3290600776672,629.3290600776672,629.3290600776672,629.3290600776672,630.944253206253,2,1.7465479373931885,None,,,,,,,,,,,,,,,,,,187,2,2025-03-04_14h48.59.615,comp,2024.2.4,56.784758851498445,2025-03-04 14h49.05.716776 -0500,
118,118,0,critical,dwh,20.0,1.0,lower,78.0,78.0,57.0,133.0,133.0,57.0,2,2.8050763607025146,None,,,,,0,0,0,0,0,118,118,66,630.9604251384735,,,,,,,,,,,,,,,,,,,,,,,,,,,,,,,,,,,,,,,,,,,,,,,,,,,,,,,,,,,,,,,,,,,,,,,,,,,,,,,,,78.0,78.0,57.0,133.0,133.0,57.0,1.0,1.3,278,-286,480,-268,671,-277,630.946031332016,630.9461483955383,630.9501504898071,630.9604251384735,631.1144635677338,631.1144635677338,631.1144635677338,631.1144635677338,631.1144635677338,631.1144635677338,631.1144635677338,633.7727808952332,2,2.8050763607025146,None,,,,,,,,,,,,,,,,,,187,2,2025-03-04_14h48.59.615,comp,2024.2.4,56.784758851498445,2025-03-04 14h49.05.716776 -0500,
119,119,0,critical,hwd,20.0,4.0,upper,200.0,125.0,125.0,200.0,141.0,141.0,2,1.294520616531372,None,,,,,0,0,0,0,0,119,119,107,633.7901844978333,,,,,,,,,,,,,,,,,,,,,,,,,,,,,,,,,,,,,,,,,,,,,,,,,,,,,,,,,,,,,,,,,,,,,,,,,,,,,,,,,200.0,125.0,125.0,200.0,141.0,141.0,4.0,4.1,-258,-280,0,-10,266,-265,633.774420261383,633.7745311260223,633.778534412384,633.7901844978333,633.92999958992,633.92999958992,633.92999958992,633.92999958992,633.92999958992,633.92999958992,633.92999958992,635.1001765727997,2,1.294520616531372,None,,,,,,,,,,,,,,,,,,187,2,2025-03-04_14h48.59.615,comp,2024.2.4,56.784758851498445,2025-03-04 14h49.05.716776 -0500,
120,120,0,critical,wdh,35.0,2.1,upper,125.0,200.0,127.0,127.0,200.0,125.0,1,2.8062338829040527,None,,,,,0,0,0,0,0,120,120,9,635.1187827587128,,,,,,,,,,,,,,,,,,,,,,,,,,,,,,,,,,,,,,,,,,,,,,,,,,,,,,,,,,,,,,,,,,,,,,,,,,,,,,,,,125.0,200.0,127.0,127.0,200.0,125.0,2.1,2.11,-260,262,0,287,222,-274,635.1018025875092,635.1019105911255,635.1055471897125,635.1187827587128,635.2605712413788,635.2605712413788,635.2605712413788,635.2605712413788,635.2605712413788,635.2605712413788,635.2605712413788,637.9295134544373,1,2.8062338829040527,None,,,,,,,,,,,,,,,,,,187,2,2025-03-04_14h48.59.615,comp,2024.2.4,56.784758851498445,2025-03-04 14h49.05.716776 -0500,
121,121,0,critical,wdh,20.0,4.0,upper,125.0,200.0,141.0,141.0,200.0,125.0,3,2.217329978942871,None,,,,,0,0,0,0,0,121,121,83,637.9487924575806,,,,,,,,,,,,,,,,,,,,,,,,,,,,,,,,,,,,,,,,,,,,,,,,,,,,,,,,,,,,,,,,,,,,,,,,,,,,,,,,,125.0,200.0,141.0,141.0,200.0,125.0,4.0,4.2,-266,-1,0,-284,229,-17,637.9311463832855,637.9312250614166,637.9348769187927,637.9487924575806,638.0930626392365,638.0930626392365,638.0930626392365,638.0930626392365,638.0930626392365,638.0930626392365,638.0930626392365,640.1767826080322,3,2.217329978942871,None,,,,,,,,,,,,,,,,,,187,2,2025-03-04_14h48.59.615,comp,2024.2.4,56.784758851498445,2025-03-04 14h49.05.716776 -0500,
122,122,0,critical,wdh,35.0,2.1,lower,57.0,133.0,70.0,70.0,133.0,57.0,3,3.7321572303771973,None,,,,,0,0,0,0,0,122,122,8,640.1927661895752,,,,,,,,,,,,,,,,,,,,,,,,,,,,,,,,,,,,,,,,,,,,,,,,,,,,,,,,,,,,,,,,,,,,,,,,,,,,,,,,,57.0,133.0,70.0,70.0,133.0,57.0,2.1,2.12,-198,-263,0,-265,160,279,640.1783139705658,640.1783909797668,640.1820681095123,640.1927661895752,640.3400812149048,640.3400812149048,640.3400812149048,640.3400812149048,640.3400812149048,640.3400812149048,640.3400812149048,643.9438536167145,3,3.7321572303771973,None,,,,,,,,,,,,,,,,,,187,2,2025-03-04_14h48.59.615,comp,2024.2.4,56.784758851498445,2025-03-04 14h49.05.716776 -0500,
123,123,0,critical,dhw,35.0,3.0,upper,127.0,127.0,200.0,125.0,125.0,200.0,2,1.9132401943206787,None,,,,,0,0,0,0,0,123,123,51,643.9638805389404,,,,,,,,,,,,,,,,,,,,,,,,,,,,,,,,,,,,,,,,,,,,,,,,,,,,,,,,,,,,,,,,,,,,,,,,,,,,,,,,,127.0,127.0,200.0,125.0,125.0,200.0,3.0,3.1,-222,274,0,-3,258,-276,643.9454536437988,643.9455301761627,643.9490373134613,643.9638805389404,644.111615896225,644.111615896225,644.111615896225,644.111615896225,644.111615896225,644.111615896225,644.111615896225,645.8792395591736,2,1.9132401943206787,None,,,,,,,,,,,,,,,,,,187,2,2025-03-04_14h48.59.615,comp,2024.2.4,56.784758851498445,2025-03-04 14h49.05.716776 -0500,
124,124,0,critical,whd,20.0,2.1,upper,125.0,200.0,200.0,125.0,141.0,141.0,2,3.81296706199646,None,,,,,0,0,0,0,0,124,124,15,645.8963179588318,,,,,,,,,,,,,,,,,,,,,,,,,,,,,,,,,,,,,,,,,,,,,,,,,,,,,,,,,,,,,,,,,,,,,,,,,,,,,,,,,125.0,200.0,200.0,125.0,141.0,141.0,2.1,2.11,-258,255,0,278,229,-267,645.880952835083,645.8810319900513,645.8853588104248,645.8963179588318,646.053474187851,646.053474187851,646.053474187851,646.053474187851,646.053474187851,646.053474187851,646.053474187851,649.7120852470398,2,3.81296706199646,None,,,,,,,,,,,,,,,,,,187,2,2025-03-04_14h48.59.615,comp,2024.2.4,56.784758851498445,2025-03-04 14h49.05.716776 -0500,
125,125,0,critical,hwd,35.0,4.0,upper,200.0,125.0,125.0,200.0,127.0,127.0,1,6.267964839935303,None,,,,,0,0,0,0,0,125,125,101,649.7288389205933,,,,,,,,,,,,,,,,,,,,,,,,,,,,,,,,,,,,,,,,,,,,,,,,,,,,,,,,,,,,,,,,,,,,,,,,,,,,,,,,,200.0,125.0,125.0,200.0,127.0,127.0,4.0,4.2,-258,1,0,-276,260,1,649.7136096954346,649.7137212753296,649.7171680927277,649.7288389205933,649.8767876625061,649.8767876625061,649.8767876625061,649.8767876625061,649.8767876625061,649.8767876625061,649.8767876625061,655.9990193843842,1,6.267964839935303,None,,,,,,,,,,,,,,,,,,187,2,2025-03-04_14h48.59.615,comp,2024.2.4,56.784758851498445,2025-03-04 14h49.05.716776 -0500,
126,126,0,filler_random,None,None,None,None,None,None,None,None,None,None,1,1.5978071689605713,None,,,,,0,0,0,0,0,126,126,136,656.015974521637,,,,,,,,,,,,,,,,,,,,,,,,,,,,,,,,,,,,,,,,,,,,,,,,,,,,,,,,,,,,,,,,,,,,,,,,,,,,,,,,,141.32437728322952,187.4437834293963,116.90086979608219,59.379170241711385,94.33943336401427,167.61304978505797,2.1,2.11,-219,261,0,263,209,-273,656.0010349750519,656.0011270046234,656.0051605701447,656.015974521637,656.167159318924,656.167159318924,656.167159318924,656.167159318924,656.167159318924,656.167159318924,656.167159318924,657.616219997406,1,1.5978071689605713,None,,,,,,,,,,,,,,,,,,187,2,2025-03-04_14h48.59.615,comp,2024.2.4,56.784758851498445,2025-03-04 14h49.05.716776 -0500,
127,127,0,filler_square,None,None,None,None,None,None,None,None,None,None,3,3.1647655963897705,None,,,,,0,0,0,0,0,127,127,196,657.6327457427979,,,,,,,,,,,,,,,,,,,,,,,,,,,,,,,,,,,,,,,,,,,,,,,,,,,,,,,,,,,,,,,,,,,,,,,,,,,,,,,,,139.9434066692396,136.93417055130718,86.94110707984375,71.71789892854135,142.078034790718,142.078034790718,3.0,3.1,-200,258,0,-4,203,-258,657.6182823181152,657.6183779239655,657.6220781803131,657.6327457427979,657.7803196907043,657.7803196907043,657.7803196907043,657.7803196907043,657.7803196907043,657.7803196907043,657.7803196907043,660.7996747493744,3,3.1647655963897705,None,,,,,,,,,,,,,,,,,,187,2,2025-03-04_14h48.59.615,comp,2024.2.4,56.784758851498445,2025-03-04 14h49.05.716776 -0500,
128,128,0,filler_random,None,None,None,None,None,None,None,None,None,None,1,1.3163962364196777,None,,,,,0,0,0,0,0,128,128,154,660.8168294429779,,,,,,,,,,,,,,,,,,,,,,,,,,,,,,,,,,,,,,,,,,,,,,,,,,,,,,,,,,,,,,,,,,,,,,,,,,,,,,,,,175.89604728283123,195.52171995729526,177.2869648684136,162.02147568239633,126.53840535872426,72.13941307500231,2.1,2.11,-275,285,0,279,213,-254,660.801372051239,660.8014483451843,660.805850982666,660.8168294429779,660.9675395488739,660.9675395488739,660.9675395488739,660.9675395488739,660.9675395488739,660.9675395488739,660.9675395488739,662.1355805397034,1,1.3163962364196777,None,,,,,,,,,,,,,,,,,,187,2,2025-03-04_14h48.59.615,comp,2024.2.4,56.784758851498445,2025-03-04 14h49.05.716776 -0500,
129,129,0,critical,wdh,20.0,2.1,upper,125.0,200.0,141.0,141.0,200.0,125.0,1,2.7809722423553467,None,,,,,0,0,0,0,0,129,129,11,662.1518716812134,,,,,,,,,,,,,,,,,,,,,,,,,,,,,,,,,,,,,,,,,,,,,,,,,,,,,,,,,,,,,,,,,,,,,,,,,,,,,,,,,125.0,200.0,141.0,141.0,200.0,125.0,2.1,2.12,-266,-275,0,-270,229,258,662.1373302936554,662.1374106407166,662.1411669254303,662.1518716812134,662.2887830734253,662.2887830734253,662.2887830734253,662.2887830734253,662.2887830734253,662.2887830734253,662.2887830734253,664.9503185749054,1,2.7809722423553467,None,,,,,,,,,,,,,,,,,,187,2,2025-03-04_14h48.59.615,comp,2024.2.4,56.784758851498445,2025-03-04 14h49.05.716776 -0500,
130,130,0,filler_random,None,None,None,None,None,None,None,None,None,None,3,2.5423898696899414,None,,,,,0,0,0,0,0,130,130,167,664.9753189086914,,,,,,,,,,,,,,,,,,,,,,,,,,,,,,,,,,,,,,,,,,,,,,,,,,,,,,,,,,,,,,,,,,,,,,,,,,,,,,,,,155.36908746428747,92.6065030265442,122.43039573551222,125.57863283282144,121.75806622457424,144.22074323960027,4.0,4.1,-205,-284,0,11,231,-251,664.9520266056061,664.9521048069,664.9556303024292,664.9753189086914,665.1177506446838,665.1177506446838,665.1177506446838,665.1177506446838,665.1177506446838,665.1177506446838,665.1177506446838,667.5358309745789,3,2.5423898696899414,None,,,,,,,,,,,,,,,,,,187,2,2025-03-04_14h48.59.615,comp,2024.2.4,56.784758851498445,2025-03-04 14h49.05.716776 -0500,
131,131,0,filler_random,None,None,None,None,None,None,None,None,None,None,1,2.4851338863372803,None,,,,,0,0,0,0,0,131,131,168,667.5516605377197,,,,,,,,,,,,,,,,,,,,,,,,,,,,,,,,,,,,,,,,,,,,,,,,,,,,,,,,,,,,,,,,,,,,,,,,,,,,,,,,,142.49579850305633,185.01554091428747,112.85517857116304,85.03610047548045,113.50138588449789,188.73873642676296,1.0,1.3,249,-285,480,-281,713,-278,667.5376126766205,667.5377128124237,667.5414414405823,667.5516605377197,667.7050743103027,667.7050743103027,667.7050743103027,667.7050743103027,667.7050743103027,667.7050743103027,667.7050743103027,670.0521032810211,1,2.4851338863372803,None,,,,,,,,,,,,,,,,,,187,2,2025-03-04_14h48.59.615,comp,2024.2.4,56.784758851498445,2025-03-04 14h49.05.716776 -0500,
132,132,0,critical,wdh,20.0,3.0,lower,57.0,133.0,78.0,78.0,133.0,57.0,3,14.510902881622314,None,,,,,0,0,0,0,0,132,132,80,670.0705749988556,,,,,,,,,,,,,,,,,,,,,,,,,,,,,,,,,,,,,,,,,,,,,,,,,,,,,,,,,,,,,,,,,,,,,,,,,,,,,,,,,57.0,133.0,78.0,78.0,133.0,57.0,3.0,3.2,-202,-284,0,-9,164,254,670.0535724163055,670.0536470413208,670.0572607517242,670.0705749988556,670.223940372467,670.223940372467,670.223940372467,670.223940372467,670.223940372467,670.223940372467,670.223940372467,684.5927093029022,3,14.510902881622314,None,,,,,,,,,,,,,,,,,,187,2,2025-03-04_14h48.59.615,comp,2024.2.4,56.784758851498445,2025-03-04 14h49.05.716776 -0500,
133,133,0,critical,dwh,35.0,2.1,lower,70.0,70.0,57.0,133.0,133.0,57.0,3,1.9459292888641357,None,,,,,0,0,0,0,0,133,133,4,684.611376285553,,,,,,,,,,,,,,,,,,,,,,,,,,,,,,,,,,,,,,,,,,,,,,,,,,,,,,,,,,,,,,,,,,,,,,,,,,,,,,,,,70.0,70.0,57.0,133.0,133.0,57.0,2.1,2.11,-198,267,0,253,191,-266,684.5943145751953,684.5943944454193,684.5981423854828,684.611376285553,684.7626593112946,684.7626593112946,684.7626593112946,684.7626593112946,684.7626593112946,684.7626593112946,684.7626593112946,686.5744395256042,3,1.9459292888641357,None,,,,,,,,,,,,,,,,,,187,2,2025-03-04_14h48.59.615,comp,2024.2.4,56.784758851498445,2025-03-04 14h49.05.716776 -0500,
134,134,0,filler_random,None,None,None,None,None,None,None,None,None,None,2,3.214975118637085,None,,,,,0,0,0,0,0,134,134,133,686.590343952179,,,,,,,,,,,,,,,,,,,,,,,,,,,,,,,,,,,,,,,,,,,,,,,,,,,,,,,,,,,,,,,,,,,,,,,,,,,,,,,,,106.83359881155585,199.22496787756137,146.47720408974354,112.52666935621288,65.90200774502847,131.36906754784565,2.1,2.11,-252,273,0,281,218,-283,686.5761947631836,686.5762705802917,686.5801358222961,686.590343952179,686.7495739459991,686.7495739459991,686.7495739459991,686.7495739459991,686.7495739459991,686.7495739459991,686.7495739459991,689.8079512119293,2,3.214975118637085,None,,,,,,,,,,,,,,,,,,187,2,2025-03-04_14h48.59.615,comp,2024.2.4,56.784758851498445,2025-03-04 14h49.05.716776 -0500,
135,135,0,filler_square,None,None,None,None,None,None,None,None,None,None,3,7.835637092590332,None,,,,,0,0,0,0,0,135,135,173,689.8252058029175,,,,,,,,,,,,,,,,,,,,,,,,,,,,,,,,,,,,,,,,,,,,,,,,,,,,,,,,,,,,,,,,,,,,,,,,,,,,,,,,,72.32258896917467,105.21373519015478,116.95887921240013,87.42579811491147,117.65099928239798,117.65099928239798,4.0,4.2,-192,18,0,-267,199,13,689.8097875118256,689.8099193572998,689.8135373592377,689.8252058029175,689.975777387619,689.975777387619,689.975777387619,689.975777387619,689.975777387619,689.975777387619,689.975777387619,697.6785600185394,3,7.835637092590332,None,,,,,,,,,,,,,,,,,,187,2,2025-03-04_14h48.59.615,comp,2024.2.4,56.784758851498445,2025-03-04 14h49.05.716776 -0500,
136,136,0,filler_random,None,None,None,None,None,None,None,None,None,None,2,2.374540328979492,None,,,,,0,0,0,0,0,136,136,162,697.6953852176666,,,,,,,,,,,,,,,,,,,,,,,,,,,,,,,,,,,,,,,,,,,,,,,,,,,,,,,,,,,,,,,,,,,,,,,,,,,,,,,,,126.11698719902068,138.16100305020524,132.196815185272,135.55836584968102,108.97524359223237,143.7560528977691,4.0,4.2,-233,-14,0,-290,236,-6,697.6804287433624,697.6805505752563,697.6842696666718,697.6953852176666,697.8424186706543,697.8424186706543,697.8424186706543,697.8424186706543,697.8424186706543,697.8424186706543,697.8424186706543,700.0865821838379,2,2.374540328979492,None,,,,,,,,,,,,,,,,,,187,2,2025-03-04_14h48.59.615,comp,2024.2.4,56.784758851498445,2025-03-04 14h49.05.716776 -0500,
137,137,0,filler_square,None,None,None,None,None,None,None,None,None,None,3,1.0099496841430664,None,,,,,0,0,0,0,0,137,137,183,700.1068761348724,,,,,,,,,,,,,,,,,,,,,,,,,,,,,,,,,,,,,,,,,,,,,,,,,,,,,,,,,,,,,,,,,,,,,,,,,,,,,,,,,156.58489688136927,139.0198231618631,127.0690967478358,130.7283405768809,182.46325668559604,182.46325668559604,1.0,1.2,-231,0,0,16,253,-13,700.0885107517242,700.0886375904083,700.0922117233276,700.1068761348724,700.2493968009949,700.2493968009949,700.2493968009949,700.2493968009949,700.2493968009949,700.2493968009949,700.2493968009949,701.1331400871277,3,1.0099496841430664,None,,,,,,,,,,,,,,,,,,187,2,2025-03-04_14h48.59.615,comp,2024.2.4,56.784758851498445,2025-03-04 14h49.05.716776 -0500,
138,138,0,critical,dhw,20.0,3.0,upper,141.0,141.0,200.0,125.0,125.0,200.0,2,2.0484464168548584,None,,,,,0,0,0,0,0,138,138,57,701.148509979248,,,,,,,,,,,,,,,,,,,,,,,,,,,,,,,,,,,,,,,,,,,,,,,,,,,,,,,,,,,,,,,,,,,,,,,,,,,,,,,,,141.0,141.0,200.0,125.0,125.0,200.0,3.0,3.1,-229,261,0,18,258,-272,701.1346626281738,701.1347713470459,701.1382775306702,701.148509979248,701.2950806617737,701.2950806617737,701.2950806617737,701.2950806617737,701.2950806617737,701.2950806617737,701.2950806617737,703.2121050357819,2,2.0484464168548584,None,,,,,,,,,,,,,,,,,,187,2,2025-03-04_14h48.59.615,comp,2024.2.4,56.784758851498445,2025-03-04 14h49.05.716776 -0500,
139,139,0,filler_square,None,None,None,None,None,None,None,None,None,None,2,4.303713083267212,None,,,,,0,0,0,0,0,139,139,206,703.2291452884674,,,,,,,,,,,,,,,,,,,,,,,,,,,,,,,,,,,,,,,,,,,,,,,,,,,,,,,,,,,,,,,,,,,,,,,,,,,,,,,,,118.12515921682689,86.34370497497301,118.41815022982178,118.41815022982178,102.71248139026088,60.687135870570984,3.0,3.2,-198,-284,0,-2,186,271,703.2141196727753,703.2141942977905,703.2179284095764,703.2291452884674,703.3771295547485,703.3771295547485,703.3771295547485,703.3771295547485,703.3771295547485,703.3771295547485,703.3771295547485,707.5466387271881,2,4.303713083267212,None,,,,,,,,,,,,,,,,,,187,2,2025-03-04_14h48.59.615,comp,2024.2.4,56.784758851498445,2025-03-04 14h49.05.716776 -0500,
