thisN,thisTrialN,thisRepN,effect,order,distance,config,diag,h_1,w_1,h_2,w_2,h_3,w_3,rect_choice.keys,rect_choice.rt,rect_choice.duration,instructions_loop.thisRepN,instructions_loop.thisTrialN,instructions_loop.thisN,instructions_loop.thisIndex,blocks.thisRepN,blocks.thisTrialN,blocks.thisN,blocks.thisIndex,trials.thisRepN,trials.thisTrialN,trials.thisN,trials.thisIndex,thisRow.t,notes,consent.started,agree_button.started,decline_button.started,consent_img.started,mouse.started,consent.stopped,agree_button.numClicks,agree_button.timesOn,agree_button.timesOff,decline_button.numClicks,decline_button.timesOn,decline_button.timesOff,mouse.x,mouse.y,mouse.leftButton,mouse.midButton,mouse.rightButton,mouse.time,mouse.clicked_name,exp_params.started,exp_params.stopped,welcome.started,welcome_text.started,welcome.stopped,instructions_1.started,instructions_1_text_1.started,instructions_1_text_2.started,key_resp.started,instructions_1.stopped,instructions_loop.key_resp.keys,instructions_loop.key_resp.rt,instructions_loop.key_resp.duration,instructions_2.started,instructions_2_text_1.started,instructions_2_text_2.started,key_resp_2.started,instructions_2.stopped,instructions_loop.key_resp_2.keys,instructions_loop.key_resp_2.rt,instructions_loop.key_resp_2.duration,instructions_3.started,instructions_3_text_1.started,r1_instr3.started,r2_instr3.started,r3_instr3.started,r1_instr3_label.started,r2_instr3_label.started,r3_instr3_label.started,instructions_3_text_3.started,instructions_3_text_4.started,key_resp_3.started,instructions_3.stopped,instructions_loop.key_resp_3.keys,instructions_loop.key_resp_3.rt,instructions_loop.key_resp_3.duration,instructions_4.started,instructions_4_text_1.started,instructions_4_text_3.started,instructions_4_text_2.started,key_resp_4.started,instructions_4.stopped,instructions_loop.key_resp_4.keys,instructions_loop.key_resp_4.rt,instructions_loop.key_resp_4.duration,instructions_5.started,instructions_5_text_1.started,instructions_5_text_2.started,key_resp_5.started,instructions_5.stopped,instructions_loop.key_resp_5.keys,instructions_loop.key_resp_5.rt,instructions_loop.key_resp_5.duration,start_exp.started,start_exp_text.started,key_resp_6.started,start_exp.stopped,key_resp_6.keys,key_resp_6.rt,key_resp_6.duration,h_1_tmp,w_1_tmp,h_2_tmp,w_2_tmp,h_3_tmp,w_3_tmp,config_tmp,config_tmp_1,r_1_x,r_1_y,r_2_x,r_2_y,r_3_x,r_3_y,pre_trial.started,pre_trial.stopped,choice_trial.started,rect_choice.started,r_1.started,r_2.started,r_3.started,r_1_label.started,r_2_label.started,r_3_label.started,prompt.started,choice_trial.stopped,trials.rect_choice.keys,trials.rect_choice.rt,trials.rect_choice.duration,end_block.started,end_block_text.started,end_block.stopped,end.started,end_text.started,key_resp_7.started,end.stopped,key_resp_7.keys,key_resp_7.rt,key_resp_7.duration,debriefing.started,debrief_form.started,end_debrief.started,debriefing.stopped,end_debrief.keys,end_debrief.rt,end_debrief.duration,participant,computer,date,expName,psychopyVersion,frameRate,expStart,
,,,,,,,,,,,,,,,,,,,,,,,,,,,,,,,0.01517486572265625,0.041475534439086914,0.041475534439086914,0.041475534439086914,0.014802694320678711,6.831966876983643,1,[6.7892677783966064],[6.789278984069824],0,,,[-108.0],[-531.0],[1],[0],[0],[6.816256284713745],['agree_button'],,,,,,,,,,,,,,,,,,,,,,,,,,,,,,,,,,,,,,,,,,,,,,,,,,,,,,,,,,,,,,,,,,,,,,,,,,,,,,,,,,,,,,,,,,,,,,,,,,,,,,,,,,,188,3,2025-03-04_14h48.54.362,comp,2024.2.4,60.074995201796675,2025-03-04 14h49.01.200734 -0500,
,,,,,,,,,,,,,,,,,,,,,,,,,,,,,,,,,,,,,,,,,,,,,,,,,,6.832240581512451,6.832274436950684,,,,,,,,,,,,,,,,,,,,,,,,,,,,,,,,,,,,,,,,,,,,,,,,,,,,,,,,,,,,,,,,,,,,,,,,,,,,,,,,,,,,,,,,,,,,,,,,,,,,,,,,,188,3,2025-03-04_14h48.54.362,comp,2024.2.4,60.074995201796675,2025-03-04 14h49.01.200734 -0500,
,,,,,,,,,,,,,,,,,,,,,,,,,,,,,,,,,,,,,,,,,,,,,,,,,,,,6.83229660987854,6.845659255981445,8.843547582626343,,,,,,,,,,,,,,,,,,,,,,,,,,,,,,,,,,,,,,,,,,,,,,,,,,,,,,,,,,,,,,,,,,,,,,,,,,,,,,,,,,,,,,,,,,,,,,,,,,,,,,188,3,2025-03-04_14h48.54.362,comp,2024.2.4,60.074995201796675,2025-03-04 14h49.01.200734 -0500,
0,0,0,,,,,,,,,,,,,,,0,0,0,0,,,,,,,,,8.860177993774414,,,,,,,,,,,,,,,,,,,,,,,,,,8.844105005264282,8.860177993774414,8.860177993774414,10.34341025352478,11.82818341255188,space,1.4669511318206787,None,11.828263282775879,11.843613862991333,11.843613862991333,13.343502759933472,17.06141185760498,space,3.7154040336608887,None,17.061488389968872,17.082990169525146,17.082990169525146,17.082990169525146,17.082990169525146,17.082990169525146,17.082990169525146,17.082990169525146,17.082990169525146,17.082990169525146,18.57711434364319,23.06172490119934,space,4.465852975845337,None,23.061806201934814,23.077052354812622,23.077052354812622,23.077052354812622,24.57668948173523,27.89461922645569,space,3.3123672008514404,None,27.894697427749634,27.910341024398804,27.910341024398804,29.409945964813232,29.96106791496277,space,0.5431840419769287,None,29.961177110671997,29.976808547973633,29.976808547973633,30.77772092819214,space,0.7923009395599365,None,,,,,,,,,,,,,,,,,,,,,,,,,,,,,,,,,,,,,,,,,,,,,,,188,3,2025-03-04_14h48.54.362,comp,2024.2.4,60.074995201796675,2025-03-04 14h49.01.200734 -0500,
0,0,0,critical,hwd,20.0,1.0,lower,133.0,57.0,57.0,133.0,78.0,78.0,1,2.2907326221466064,None,,,,,0,0,0,0,0,0,0,102,30.83755111694336,,,,,,,,,,,,,,,,,,,,,,,,,,,,,,,,,,,,,,,,,,,,,,,,,,,,,,,,,,,,,,,,,,,,,,,,,,,,,,,,,133.0,57.0,57.0,133.0,78.0,78.0,1.0,1.2,-191,1,0,-1,202,-6,30.82354426383972,30.823588371276855,30.82561159133911,30.83755111694336,30.98313617706299,30.98313617706299,30.98313617706299,30.98313617706299,30.98313617706299,30.98313617706299,30.98313617706299,33.144514322280884,1,2.2907326221466064,None,,,,,,,,,,,,,,,,,,188,3,2025-03-04_14h48.54.362,comp,2024.2.4,60.074995201796675,2025-03-04 14h49.01.200734 -0500,
1,1,0,critical,hdw,35.0,2.1,lower,133.0,57.0,70.0,70.0,57.0,133.0,1,1.8336491584777832,None,,,,,0,0,0,0,0,1,1,20,33.15994739532471,,,,,,,,,,,,,,,,,,,,,,,,,,,,,,,,,,,,,,,,,,,,,,,,,,,,,,,,,,,,,,,,,,,,,,,,,,,,,,,,,133.0,57.0,70.0,70.0,57.0,133.0,2.1,2.12,-160,-263,0,-277,198,273,33.14530634880066,33.14534592628479,33.147785663604736,33.15994739532471,33.31000328063965,33.31000328063965,33.31000328063965,33.31000328063965,33.31000328063965,33.31000328063965,33.31000328063965,35.01116919517517,1,1.8336491584777832,None,,,,,,,,,,,,,,,,,,188,3,2025-03-04_14h48.54.362,comp,2024.2.4,60.074995201796675,2025-03-04 14h49.01.200734 -0500,
2,2,0,catch,None,None,None,None,None,None,None,None,None,None,3,1.1747915744781494,None,,,,,0,0,0,0,0,2,2,126,35.02661943435669,,,,,,,,,,,,,,,,,,,,,,,,,,,,,,,,,,,,,,,,,,,,,,,,,,,,,,,,,,,,,,,,,,,,,,,,,,,,,,,,,120,70,131,59,141,184,1.0,1.2,-160,11,0,19,218,10,35.01218771934509,35.012227058410645,35.014609575271606,35.02661943435669,35.17682456970215,35.17682456970215,35.17682456970215,35.17682456970215,35.17682456970215,35.17682456970215,35.17682456970215,36.211238622665405,3,1.1747915744781494,None,,,,,,,,,,,,,,,,,,188,3,2025-03-04_14h48.54.362,comp,2024.2.4,60.074995201796675,2025-03-04 14h49.01.200734 -0500,
3,3,0,filler_square,None,None,None,None,None,None,None,None,None,None,3,1.1422438621520996,None,,,,,0,0,0,0,0,3,3,172,36.226797342300415,,,,,,,,,,,,,,,,,,,,,,,,,,,,,,,,,,,,,,,,,,,,,,,,,,,,,,,,,,,,,,,,,,,,,,,,,,,,,,,,,57.534997014595376,141.518135031761,158.87443048046893,135.30422134561502,160.29452250740883,160.29452250740883,2.1,2.12,-234,-264,0,-279,244,279,36.21220278739929,36.212244749069214,36.214346408843994,36.226797342300415,36.37699890136719,36.37699890136719,36.37699890136719,36.37699890136719,36.37699890136719,36.37699890136719,36.37699890136719,37.37800216674805,3,1.1422438621520996,None,,,,,,,,,,,,,,,,,,188,3,2025-03-04_14h48.54.362,comp,2024.2.4,60.074995201796675,2025-03-04 14h49.01.200734 -0500,
4,4,0,filler_random,None,None,None,None,None,None,None,None,None,None,1,0.7672278881072998,None,,,,,0,0,0,0,0,4,4,155,37.393401861190796,,,,,,,,,,,,,,,,,,,,,,,,,,,,,,,,,,,,,,,,,,,,,,,,,,,,,,,,,,,,,,,,,,,,,,,,,,,,,,,,,113.97005311350574,161.1076103749389,96.42944442663949,104.55393228420579,100.03606047893237,80.78882596809109,2.2,2.22,-229,264,0,-262,189,-276,37.3789119720459,37.37895178794861,37.38108968734741,37.393401861190796,37.54333519935608,37.54333519935608,37.54333519935608,37.54333519935608,37.54333519935608,37.54333519935608,37.54333519935608,38.17785906791687,1,0.7672278881072998,None,,,,,,,,,,,,,,,,,,188,3,2025-03-04_14h48.54.362,comp,2024.2.4,60.074995201796675,2025-03-04 14h49.01.200734 -0500,
5,5,0,critical,hwd,20.0,2.1,upper,200.0,125.0,125.0,200.0,141.0,141.0,2,1.9600238800048828,None,,,,,0,0,0,0,0,5,5,43,38.19327712059021,,,,,,,,,,,,,,,,,,,,,,,,,,,,,,,,,,,,,,,,,,,,,,,,,,,,,,,,,,,,,,,,,,,,,,,,,,,,,,,,,200.0,125.0,125.0,200.0,141.0,141.0,2.1,2.11,-258,273,0,263,266,-286,38.1786892414093,38.178730726242065,38.18096947669983,38.19327712059021,38.34353733062744,38.34353733062744,38.34353733062744,38.34353733062744,38.34353733062744,38.34353733062744,38.34353733062744,40.1614134311676,2,1.9600238800048828,None,,,,,,,,,,,,,,,,,,188,3,2025-03-04_14h48.54.362,comp,2024.2.4,60.074995201796675,2025-03-04 14h49.01.200734 -0500,
6,6,0,critical,hwd,20.0,3.0,upper,200.0,125.0,125.0,200.0,141.0,141.0,2,1.5441880226135254,None,,,,,0,0,0,0,0,6,6,105,40.17683696746826,,,,,,,,,,,,,,,,,,,,,,,,,,,,,,,,,,,,,,,,,,,,,,,,,,,,,,,,,,,,,,,,,,,,,,,,,,,,,,,,,200.0,125.0,125.0,200.0,141.0,141.0,3.0,3.2,-258,-271,0,-6,266,278,40.162224769592285,40.16226506233215,40.16473174095154,40.17683696746826,40.32686519622803,40.32686519622803,40.32686519622803,40.32686519622803,40.32686519622803,40.32686519622803,40.32686519622803,41.72800135612488,2,1.5441880226135254,None,,,,,,,,,,,,,,,,,,188,3,2025-03-04_14h48.54.362,comp,2024.2.4,60.074995201796675,2025-03-04 14h49.01.200734 -0500,
7,7,0,critical,whd,35.0,2.1,lower,57.0,133.0,133.0,57.0,70.0,70.0,2,1.1046454906463623,None,,,,,0,0,0,0,0,7,7,12,41.743435859680176,,,,,,,,,,,,,,,,,,,,,,,,,,,,,,,,,,,,,,,,,,,,,,,,,,,,,,,,,,,,,,,,,,,,,,,,,,,,,,,,,57.0,133.0,133.0,57.0,70.0,70.0,2.1,2.12,-191,-257,0,-256,160,274,41.72884440422058,41.72888684272766,41.73108100891113,41.743435859680176,41.89324712753296,41.89324712753296,41.89324712753296,41.89324712753296,41.89324712753296,41.89324712753296,41.89324712753296,42.86108684539795,2,1.1046454906463623,None,,,,,,,,,,,,,,,,,,188,3,2025-03-04_14h48.54.362,comp,2024.2.4,60.074995201796675,2025-03-04 14h49.01.200734 -0500,
8,8,0,catch,None,None,None,None,None,None,None,None,None,None,1,1.0357298851013184,None,,,,,0,0,0,0,0,8,8,125,42.876543283462524,,,,,,,,,,,,,,,,,,,,,,,,,,,,,,,,,,,,,,,,,,,,,,,,,,,,,,,,,,,,,,,,,,,,,,,,,,,,,,,,,140,185,97,93,76,114,1.0,1.1,-715,263,-480,253,-280,287,42.86215019226074,42.86219048500061,42.86457133293152,42.876543283462524,43.026994466781616,43.026994466781616,43.026994466781616,43.026994466781616,43.026994466781616,43.026994466781616,43.026994466781616,43.92788004875183,1,1.0357298851013184,None,,,,,,,,,,,,,,,,,,188,3,2025-03-04_14h48.54.362,comp,2024.2.4,60.074995201796675,2025-03-04 14h49.01.200734 -0500,
9,9,0,filler_square,None,None,None,None,None,None,None,None,None,None,1,1.0577445030212402,None,,,,,0,0,0,0,0,9,9,189,43.943477392196655,,,,,,,,,,,,,,,,,,,,,,,,,,,,,,,,,,,,,,,,,,,,,,,,,,,,,,,,,,,,,,,,,,,,,,,,,,,,,,,,,153.3070268329897,153.3070268329897,135.38005090919103,60.33686299515033,84.06625323521592,61.33825876346308,3.0,3.2,-203,-253,0,-13,157,285,43.92886018753052,43.92890119552612,43.93244981765747,43.943477392196655,44.09339451789856,44.09339451789856,44.09339451789856,44.09339451789856,44.09339451789856,44.09339451789856,44.09339451789856,45.01114749908447,1,1.0577445030212402,None,,,,,,,,,,,,,,,,,,188,3,2025-03-04_14h48.54.362,comp,2024.2.4,60.074995201796675,2025-03-04 14h49.01.200734 -0500,
10,10,0,critical,hwd,35.0,2.1,lower,133.0,57.0,57.0,133.0,70.0,70.0,2,0.9770359992980957,None,,,,,0,0,0,0,0,10,10,40,45.02678418159485,,,,,,,,,,,,,,,,,,,,,,,,,,,,,,,,,,,,,,,,,,,,,,,,,,,,,,,,,,,,,,,,,,,,,,,,,,,,,,,,,133.0,57.0,57.0,133.0,70.0,70.0,2.1,2.11,-191,274,0,264,198,-263,45.01193380355835,45.011974573135376,45.01412606239319,45.02678418159485,45.176748752593994,45.176748752593994,45.176748752593994,45.176748752593994,45.176748752593994,45.176748752593994,45.176748752593994,46.01341724395752,2,0.9770359992980957,None,,,,,,,,,,,,,,,,,,188,3,2025-03-04_14h48.54.362,comp,2024.2.4,60.074995201796675,2025-03-04 14h49.01.200734 -0500,
11,11,0,filler_random,None,None,None,None,None,None,None,None,None,None,1,0.7257444858551025,None,,,,,0,0,0,0,0,11,11,164,46.02755856513977,,,,,,,,,,,,,,,,,,,,,,,,,,,,,,,,,,,,,,,,,,,,,,,,,,,,,,,,,,,,,,,,,,,,,,,,,,,,,,,,,170.8299306913177,197.97068238143007,69.11369994712939,188.43052945371778,67.8123739461444,66.99867252559277,1.0,1.2,-289,3,0,7,224,-4,46.01424431800842,46.014281034469604,46.016149044036865,46.02755856513977,46.1771125793457,46.1771125793457,46.1771125793457,46.1771125793457,46.1771125793457,46.1771125793457,46.1771125793457,46.76158285140991,1,0.7257444858551025,None,,,,,,,,,,,,,,,,,,188,3,2025-03-04_14h48.54.362,comp,2024.2.4,60.074995201796675,2025-03-04 14h49.01.200734 -0500,
12,12,0,filler_square,None,None,None,None,None,None,None,None,None,None,3,0.8167293071746826,None,,,,,0,0,0,0,0,12,12,203,46.77683353424072,,,,,,,,,,,,,,,,,,,,,,,,,,,,,,,,,,,,,,,,,,,,,,,,,,,,,,,,,,,,,,,,,,,,,,,,,,,,,,,,,78.34826671206163,76.19690688945892,121.3254045072608,61.14882180209175,156.1451541013646,156.1451541013646,1.0,1.1,-645,259,-480,290,-275,255,46.762558698654175,46.76259970664978,46.76510405540466,46.77683353424072,46.92696738243103,46.92696738243103,46.92696738243103,46.92696738243103,46.92696738243103,46.92696738243103,46.92696738243103,47.61113476753235,3,0.8167293071746826,None,,,,,,,,,,,,,,,,,,188,3,2025-03-04_14h48.54.362,comp,2024.2.4,60.074995201796675,2025-03-04 14h49.01.200734 -0500,
13,13,0,catch,None,None,None,None,None,None,None,None,None,None,1,0.958366870880127,None,,,,,0,0,0,0,0,13,13,121,47.626498222351074,,,,,,,,,,,,,,,,,,,,,,,,,,,,,,,,,,,,,,,,,,,,,,,,,,,,,,,,,,,,,,,,,,,,,,,,,,,,,,,,,150,175,91,99,131,59,4.0,4.1,-233,-283,0,16,175,-287,47.61218333244324,47.61222505569458,47.614609718322754,47.626498222351074,47.776689767837524,47.776689767837524,47.776689767837524,47.776689767837524,47.776689767837524,47.776689767837524,47.776689767837524,48.59458065032959,1,0.958366870880127,None,,,,,,,,,,,,,,,,,,188,3,2025-03-04_14h48.54.362,comp,2024.2.4,60.074995201796675,2025-03-04 14h49.01.200734 -0500,
14,14,0,filler_random,None,None,None,None,None,None,None,None,None,None,3,0.9268782138824463,None,,,,,0,0,0,0,0,14,14,140,48.61012864112854,,,,,,,,,,,,,,,,,,,,,,,,,,,,,,,,,,,,,,,,,,,,,,,,,,,,,,,,,,,,,,,,,,,,,,,,,,,,,,,,,131.91673332647593,70.54456738317984,75.12411415596912,94.9769530540211,156.9065091911408,119.86242825222284,4.0,4.2,-179,-6,0,-273,203,18,48.595526456832886,48.595569372177124,48.598069190979004,48.61012864112854,48.76008367538452,48.76008367538452,48.76008367538452,48.76008367538452,48.76008367538452,48.76008367538452,48.76008367538452,49.54450845718384,3,0.9268782138824463,None,,,,,,,,,,,,,,,,,,188,3,2025-03-04_14h48.54.362,comp,2024.2.4,60.074995201796675,2025-03-04 14h49.01.200734 -0500,
15,15,0,critical,hwd,20.0,2.1,lower,133.0,57.0,57.0,133.0,78.0,78.0,1,2.385057210922241,None,,,,,0,0,0,0,0,15,15,18,49.56008005142212,,,,,,,,,,,,,,,,,,,,,,,,,,,,,,,,,,,,,,,,,,,,,,,,,,,,,,,,,,,,,,,,,,,,,,,,,,,,,,,,,133.0,57.0,57.0,133.0,78.0,78.0,2.1,2.12,-191,-270,0,-289,202,280,49.54529619216919,49.54533767700195,49.547770261764526,49.56008005142212,49.70999622344971,49.70999622344971,49.70999622344971,49.70999622344971,49.70999622344971,49.70999622344971,49.70999622344971,51.961119174957275,1,2.385057210922241,None,,,,,,,,,,,,,,,,,,188,3,2025-03-04_14h48.54.362,comp,2024.2.4,60.074995201796675,2025-03-04 14h49.01.200734 -0500,
16,16,0,critical,dhw,35.0,1.0,upper,127.0,127.0,200.0,125.0,125.0,200.0,2,0.9845116138458252,None,,,,,0,0,0,0,0,16,16,49,51.97645330429077,,,,,,,,,,,,,,,,,,,,,,,,,,,,,,,,,,,,,,,,,,,,,,,,,,,,,,,,,,,,,,,,,,,,,,,,,,,,,,,,,127.0,127.0,200.0,125.0,125.0,200.0,1.0,1.3,258,-281,480,-261,738,-258,51.96191096305847,51.96195077896118,51.964298725128174,51.97645330429077,52.12675976753235,52.12675976753235,52.12675976753235,52.12675976753235,52.12675976753235,52.12675976753235,52.12675976753235,52.977967977523804,2,0.9845116138458252,None,,,,,,,,,,,,,,,,,,188,3,2025-03-04_14h48.54.362,comp,2024.2.4,60.074995201796675,2025-03-04 14h49.01.200734 -0500,
17,17,0,filler_random,None,None,None,None,None,None,None,None,None,None,2,1.6956584453582764,None,,,,,0,0,0,0,0,17,17,149,52.99317955970764,,,,,,,,,,,,,,,,,,,,,,,,,,,,,,,,,,,,,,,,,,,,,,,,,,,,,,,,,,,,,,,,,,,,,,,,,,,,,,,,,164.37420340312298,173.91155437704575,189.1890212542011,155.4848642278936,142.90334300734352,180.78260110801253,1.0,1.2,-261,15,0,6,264,2,52.97887372970581,52.97891449928284,52.9815137386322,52.99317955970764,53.14347052574158,53.14347052574158,53.14347052574158,53.14347052574158,53.14347052574158,53.14347052574158,53.14347052574158,54.694628953933716,2,1.6956584453582764,None,,,,,,,,,,,,,,,,,,188,3,2025-03-04_14h48.54.362,comp,2024.2.4,60.074995201796675,2025-03-04 14h49.01.200734 -0500,
18,18,0,filler_square,None,None,None,None,None,None,None,None,None,None,1,0.8589463233947754,None,,,,,0,0,0,0,0,18,18,207,54.70998406410217,,,,,,,,,,,,,,,,,,,,,,,,,,,,,,,,,,,,,,,,,,,,,,,,,,,,,,,,,,,,,,,,,,,,,,,,,,,,,,,,,193.5312459594585,193.5312459594585,76.83432157380756,187.22149369556593,167.49556591600697,85.50596519285457,4.0,4.1,-286,-269,0,8,232,-282,54.69561553001404,54.6956570148468,54.69780969619751,54.70998406410217,54.86012148857117,54.86012148857117,54.86012148857117,54.86012148857117,54.86012148857117,54.86012148857117,54.86012148857117,55.57799744606018,1,0.8589463233947754,None,,,,,,,,,,,,,,,,,,188,3,2025-03-04_14h48.54.362,comp,2024.2.4,60.074995201796675,2025-03-04 14h49.01.200734 -0500,
19,19,0,critical,dhw,20.0,4.0,upper,141.0,141.0,200.0,125.0,125.0,200.0,2,1.0650224685668945,None,,,,,0,0,0,0,0,19,19,59,55.59346795082092,,,,,,,,,,,,,,,,,,,,,,,,,,,,,,,,,,,,,,,,,,,,,,,,,,,,,,,,,,,,,,,,,,,,,,,,,,,,,,,,,141.0,141.0,200.0,125.0,125.0,200.0,4.0,4.2,-229,-19,0,-265,258,0,55.578903913497925,55.57894468307495,55.581199169158936,55.59346795082092,55.74345779418945,55.74345779418945,55.74345779418945,55.74345779418945,55.74345779418945,55.74345779418945,55.74345779418945,56.661541223526,2,1.0650224685668945,None,,,,,,,,,,,,,,,,,,188,3,2025-03-04_14h48.54.362,comp,2024.2.4,60.074995201796675,2025-03-04 14h49.01.200734 -0500,
20,20,0,filler_random,None,None,None,None,None,None,None,None,None,None,3,0.892326831817627,None,,,,,0,0,0,0,0,20,20,135,56.67676329612732,,,,,,,,,,,,,,,,,,,,,,,,,,,,,,,,,,,,,,,,,,,,,,,,,,,,,,,,,,,,,,,,,,,,,,,,,,,,,,,,,76.33956669371952,178.6879655753317,149.265865056873,79.36883599620914,106.64342950925139,195.98942707571172,1.0,1.1,-705,255,-480,281,-246,287,56.6624870300293,56.662527322769165,56.664711713790894,56.67676329612732,56.82706665992737,56.82706665992737,56.82706665992737,56.82706665992737,56.82706665992737,56.82706665992737,56.82706665992737,57.57777667045593,3,0.892326831817627,None,,,,,,,,,,,,,,,,,,188,3,2025-03-04_14h48.54.362,comp,2024.2.4,60.074995201796675,2025-03-04 14h49.01.200734 -0500,
21,21,0,filler_square,None,None,None,None,None,None,None,None,None,None,2,0.7999413013458252,None,,,,,0,0,0,0,0,21,21,200,57.59345531463623,,,,,,,,,,,,,,,,,,,,,,,,,,,,,,,,,,,,,,,,,,,,,,,,,,,,,,,,,,,,,,,,,,,,,,,,,,,,,,,,,57.75612539684116,112.4550239367323,123.3796984844704,123.3796984844704,92.18775960312352,73.80910319893441,2.1,2.11,-214,276,0,283,195,-254,57.578749656677246,57.57879304885864,57.580986738204956,57.59345531463623,57.74335980415344,57.74335980415344,57.74335980415344,57.74335980415344,57.74335980415344,57.74335980415344,57.74335980415344,58.410983085632324,2,0.7999413013458252,None,,,,,,,,,,,,,,,,,,188,3,2025-03-04_14h48.54.362,comp,2024.2.4,60.074995201796675,2025-03-04 14h49.01.200734 -0500,
22,22,0,critical,hdw,20.0,2.1,lower,133.0,57.0,78.0,78.0,57.0,133.0,3,1.51883864402771,None,,,,,0,0,0,0,0,22,22,46,58.4264771938324,,,,,,,,,,,,,,,,,,,,,,,,,,,,,,,,,,,,,,,,,,,,,,,,,,,,,,,,,,,,,,,,,,,,,,,,,,,,,,,,,133.0,57.0,78.0,78.0,57.0,133.0,2.1,2.11,-164,276,0,276,202,-270,58.411834955215454,58.411874532699585,58.41396164894104,58.4264771938324,58.57655167579651,58.57655167579651,58.57655167579651,58.57655167579651,58.57655167579651,58.57655167579651,58.57655167579651,59.960957288742065,3,1.51883864402771,None,,,,,,,,,,,,,,,,,,188,3,2025-03-04_14h48.54.362,comp,2024.2.4,60.074995201796675,2025-03-04 14h49.01.200734 -0500,
23,23,0,critical,dhw,35.0,2.1,lower,70.0,70.0,133.0,57.0,57.0,133.0,2,1.497330904006958,None,,,,,0,0,0,0,0,23,23,0,59.976399421691895,,,,,,,,,,,,,,,,,,,,,,,,,,,,,,,,,,,,,,,,,,,,,,,,,,,,,,,,,,,,,,,,,,,,,,,,,,,,,,,,,70.0,70.0,133.0,57.0,57.0,133.0,2.1,2.11,-160,258,0,276,191,-280,59.96175956726074,59.96179962158203,59.96385645866394,59.976399421691895,60.1268835067749,60.1268835067749,60.1268835067749,60.1268835067749,60.1268835067749,60.1268835067749,60.1268835067749,61.4778528213501,2,1.497330904006958,None,,,,,,,,,,,,,,,,,,188,3,2025-03-04_14h48.54.362,comp,2024.2.4,60.074995201796675,2025-03-04 14h49.01.200734 -0500,
24,24,0,critical,dwh,35.0,1.0,lower,70.0,70.0,57.0,133.0,133.0,57.0,2,0.9001097679138184,None,,,,,0,0,0,0,0,24,24,60,61.493338108062744,,,,,,,,,,,,,,,,,,,,,,,,,,,,,,,,,,,,,,,,,,,,,,,,,,,,,,,,,,,,,,,,,,,,,,,,,,,,,,,,,70.0,70.0,57.0,133.0,133.0,57.0,1.0,1.3,282,-273,480,-263,671,-253,61.478676319122314,61.4787163734436,61.481207847595215,61.493338108062744,61.643487215042114,61.643487215042114,61.643487215042114,61.643487215042114,61.643487215042114,61.643487215042114,61.643487215042114,62.41082763671875,2,0.9001097679138184,None,,,,,,,,,,,,,,,,,,188,3,2025-03-04_14h48.54.362,comp,2024.2.4,60.074995201796675,2025-03-04 14h49.01.200734 -0500,
25,25,0,catch,None,None,None,None,None,None,None,None,None,None,3,1.085688829421997,None,,,,,0,0,0,0,0,25,25,120,62.42634177207947,,,,,,,,,,,,,,,,,,,,,,,,,,,,,,,,,,,,,,,,,,,,,,,,,,,,,,,,,,,,,,,,,,,,,,,,,,,,,,,,,96,94,118,72,181,144,2.2,2.21,-179,-250,0,288,204,251,62.4118914604187,62.41193127632141,62.414546251297,62.42634177207947,62.57653331756592,62.57653331756592,62.57653331756592,62.57653331756592,62.57653331756592,62.57653331756592,62.57653331756592,63.52794694900513,3,1.085688829421997,None,,,,,,,,,,,,,,,,,,188,3,2025-03-04_14h48.54.362,comp,2024.2.4,60.074995201796675,2025-03-04 14h49.01.200734 -0500,
26,26,0,filler_square,None,None,None,None,None,None,None,None,None,None,3,0.8992819786071777,None,,,,,0,0,0,0,0,26,26,170,63.54306411743164,,,,,,,,,,,,,,,,,,,,,,,,,,,,,,,,,,,,,,,,,,,,,,,,,,,,,,,,,,,,,,,,,,,,,,,,,,,,,,,,,97.7503035456835,78.07780091360613,106.51616511109724,123.94105726037503,170.3091781078445,170.3091781078445,4.0,4.2,-197,6,0,-285,243,-20,63.52886891365051,63.52890706062317,63.53143668174744,63.54306411743164,63.69333052635193,63.69333052635193,63.69333052635193,63.69333052635193,63.69333052635193,63.69333052635193,63.69333052635193,64.44451880455017,3,0.8992819786071777,None,,,,,,,,,,,,,,,,,,188,3,2025-03-04_14h48.54.362,comp,2024.2.4,60.074995201796675,2025-03-04 14h49.01.200734 -0500,
27,27,0,critical,dwh,35.0,2.1,lower,70.0,70.0,57.0,133.0,133.0,57.0,2,0.9251742362976074,None,,,,,0,0,0,0,0,27,27,28,64.45985102653503,,,,,,,,,,,,,,,,,,,,,,,,,,,,,,,,,,,,,,,,,,,,,,,,,,,,,,,,,,,,,,,,,,,,,,,,,,,,,,,,,70.0,70.0,57.0,133.0,133.0,57.0,2.1,2.12,-198,-256,0,-264,191,282,64.44533157348633,64.44537353515625,64.44751715660095,64.45985102653503,64.61013078689575,64.61013078689575,64.61013078689575,64.61013078689575,64.61013078689575,64.61013078689575,64.61013078689575,65.39420771598816,2,0.9251742362976074,None,,,,,,,,,,,,,,,,,,188,3,2025-03-04_14h48.54.362,comp,2024.2.4,60.074995201796675,2025-03-04 14h49.01.200734 -0500,
28,28,0,critical,whd,20.0,2.1,upper,125.0,200.0,200.0,125.0,141.0,141.0,1,1.7919824123382568,None,,,,,0,0,0,0,0,28,28,15,65.40986204147339,,,,,,,,,,,,,,,,,,,,,,,,,,,,,,,,,,,,,,,,,,,,,,,,,,,,,,,,,,,,,,,,,,,,,,,,,,,,,,,,,125.0,200.0,200.0,125.0,141.0,141.0,2.1,2.11,-258,271,0,279,229,-276,65.39502573013306,65.39506769180298,65.39744973182678,65.40986204147339,65.56008672714233,65.56008672714233,65.56008672714233,65.56008672714233,65.56008672714233,65.56008672714233,65.56008672714233,67.21117663383484,1,1.7919824123382568,None,,,,,,,,,,,,,,,,,,188,3,2025-03-04_14h48.54.362,comp,2024.2.4,60.074995201796675,2025-03-04 14h49.01.200734 -0500,
29,29,0,critical,dwh,35.0,2.1,lower,70.0,70.0,57.0,133.0,133.0,57.0,2,0.9101395606994629,None,,,,,0,0,0,0,0,29,29,4,67.22667670249939,,,,,,,,,,,,,,,,,,,,,,,,,,,,,,,,,,,,,,,,,,,,,,,,,,,,,,,,,,,,,,,,,,,,,,,,,,,,,,,,,70.0,70.0,57.0,133.0,133.0,57.0,2.1,2.12,-198,-257,0,-252,191,255,67.21200728416443,67.21205806732178,67.21449518203735,67.22667670249939,67.37659001350403,67.37659001350403,67.37659001350403,67.37659001350403,67.37659001350403,67.37659001350403,67.37659001350403,68.14423561096191,2,0.9101395606994629,None,,,,,,,,,,,,,,,,,,188,3,2025-03-04_14h48.54.362,comp,2024.2.4,60.074995201796675,2025-03-04 14h49.01.200734 -0500,
30,30,0,filler_random,None,None,None,None,None,None,None,None,None,None,3,0.9520888328552246,None,,,,,0,0,0,0,0,30,30,152,68.15990114212036,,,,,,,,,,,,,,,,,,,,,,,,,,,,,,,,,,,,,,,,,,,,,,,,,,,,,,,,,,,,,,,,,,,,,,,,,,,,,,,,,57.28305748613841,153.5522823202875,151.23310494287284,58.40843221645962,185.66189122339117,186.89675888229752,2.1,2.12,-202,-275,0,-282,219,274,68.14517092704773,68.14521145820618,68.14780783653259,68.15990114212036,68.31003069877625,68.31003069877625,68.31003069877625,68.31003069877625,68.31003069877625,68.31003069877625,68.31003069877625,69.12766122817993,3,0.9520888328552246,None,,,,,,,,,,,,,,,,,,188,3,2025-03-04_14h48.54.362,comp,2024.2.4,60.074995201796675,2025-03-04 14h49.01.200734 -0500,
31,31,0,critical,whd,35.0,2.1,upper,125.0,200.0,200.0,125.0,127.0,127.0,2,0.8100225925445557,None,,,,,0,0,0,0,0,31,31,37,69.1430447101593,,,,,,,,,,,,,,,,,,,,,,,,,,,,,,,,,,,,,,,,,,,,,,,,,,,,,,,,,,,,,,,,,,,,,,,,,,,,,,,,,125.0,200.0,200.0,125.0,127.0,127.0,2.1,2.12,-258,-255,0,-286,222,250,69.1284773349762,69.12851667404175,69.13147735595703,69.1430447101593,69.29329204559326,69.29329204559326,69.29329204559326,69.29329204559326,69.29329204559326,69.29329204559326,69.29329204559326,69.96117424964905,2,0.8100225925445557,None,,,,,,,,,,,,,,,,,,188,3,2025-03-04_14h48.54.362,comp,2024.2.4,60.074995201796675,2025-03-04 14h49.01.200734 -0500,
32,32,0,critical,whd,20.0,2.1,upper,125.0,200.0,200.0,125.0,141.0,141.0,1,0.944166898727417,None,,,,,0,0,0,0,0,32,32,39,69.97662544250488,,,,,,,,,,,,,,,,,,,,,,,,,,,,,,,,,,,,,,,,,,,,,,,,,,,,,,,,,,,,,,,,,,,,,,,,,,,,,,,,,125.0,200.0,200.0,125.0,141.0,141.0,2.1,2.11,-258,264,0,283,229,-288,69.96195363998413,69.9619927406311,69.9640691280365,69.97662544250488,70.12675094604492,70.12675094604492,70.12675094604492,70.12675094604492,70.12675094604492,70.12675094604492,70.12675094604492,70.92768907546997,1,0.944166898727417,None,,,,,,,,,,,,,,,,,,188,3,2025-03-04_14h48.54.362,comp,2024.2.4,60.074995201796675,2025-03-04 14h49.01.200734 -0500,
33,33,0,critical,whd,35.0,2.1,lower,57.0,133.0,133.0,57.0,70.0,70.0,2,0.7936108112335205,None,,,,,0,0,0,0,0,33,33,36,70.94318532943726,,,,,,,,,,,,,,,,,,,,,,,,,,,,,,,,,,,,,,,,,,,,,,,,,,,,,,,,,,,,,,,,,,,,,,,,,,,,,,,,,57.0,133.0,133.0,57.0,70.0,70.0,2.1,2.11,-191,264,0,274,160,-252,70.92847657203674,70.92851710319519,70.93094992637634,70.94318532943726,71.09307956695557,71.09307956695557,71.09307956695557,71.09307956695557,71.09307956695557,71.09307956695557,71.09307956695557,71.74420762062073,2,0.7936108112335205,None,,,,,,,,,,,,,,,,,,188,3,2025-03-04_14h48.54.362,comp,2024.2.4,60.074995201796675,2025-03-04 14h49.01.200734 -0500,
34,34,0,critical,wdh,20.0,1.0,lower,57.0,133.0,78.0,78.0,133.0,57.0,1,0.9202823638916016,None,,,,,0,0,0,0,0,34,34,78,71.7597885131836,,,,,,,,,,,,,,,,,,,,,,,,,,,,,,,,,,,,,,,,,,,,,,,,,,,,,,,,,,,,,,,,,,,,,,,,,,,,,,,,,57.0,133.0,78.0,78.0,133.0,57.0,1.0,1.2,-202,4,0,19,164,18,71.74498391151428,71.74503922462463,71.7474377155304,71.7597885131836,71.90971064567566,71.90971064567566,71.90971064567566,71.90971064567566,71.90971064567566,71.90971064567566,71.90971064567566,72.69415593147278,1,0.9202823638916016,None,,,,,,,,,,,,,,,,,,188,3,2025-03-04_14h48.54.362,comp,2024.2.4,60.074995201796675,2025-03-04 14h49.01.200734 -0500,
35,35,0,filler_random,None,None,None,None,None,None,None,None,None,None,2,0.7061505317687988,None,,,,,0,0,0,0,0,35,35,133,72.7096312046051,,,,,,,,,,,,,,,,,,,,,,,,,,,,,,,,,,,,,,,,,,,,,,,,,,,,,,,,,,,,,,,,,,,,,,,,,,,,,,,,,140.61067823082612,105.8241470871828,83.36914381324246,197.96375920774145,94.36143185778229,89.62114610996211,2.2,2.22,-248,261,0,-271,240,-274,72.69509887695312,72.69514060020447,72.69751787185669,72.7096312046051,72.8598198890686,72.8598198890686,72.8598198890686,72.8598198890686,72.8598198890686,72.8598198890686,72.8598198890686,73.42763328552246,2,0.7061505317687988,None,,,,,,,,,,,,,,,,,,188,3,2025-03-04_14h48.54.362,comp,2024.2.4,60.074995201796675,2025-03-04 14h49.01.200734 -0500,
36,36,0,filler_square,None,None,None,None,None,None,None,None,None,None,1,5.021352291107178,None,,,,,0,0,0,0,0,36,36,205,73.44307255744934,,,,,,,,,,,,,,,,,,,,,,,,,,,,,,,,,,,,,,,,,,,,,,,,,,,,,,,,,,,,,,,,,,,,,,,,,,,,,,,,,79.08060708507875,79.08060708507875,78.80874736104684,76.14846633384914,70.38720872456229,64.35888987218661,1.0,1.1,-654,273,-480,275,-314,290,73.4286208152771,73.42866110801697,73.43124413490295,73.44307255744934,73.59335112571716,73.59335112571716,73.59335112571716,73.59335112571716,73.59335112571716,73.59335112571716,73.59335112571716,78.47743058204651,1,5.021352291107178,None,,,,,,,,,,,,,,,,,,188,3,2025-03-04_14h48.54.362,comp,2024.2.4,60.074995201796675,2025-03-04 14h49.01.200734 -0500,
37,37,0,filler_square,None,None,None,None,None,None,None,None,None,None,1,0.9657838344573975,None,,,,,0,0,0,0,0,37,37,179,78.49296951293945,,,,,,,,,,,,,,,,,,,,,,,,,,,,,,,,,,,,,,,,,,,,,,,,,,,,,,,,,,,,,,,,,,,,,,,,,,,,,,,,,144.55557034397015,144.55557034397015,114.82619280166287,144.11223804251412,111.28082501388812,123.46693019299983,4.0,4.1,-240,-270,0,1,230,-282,78.47839093208313,78.47843074798584,78.48089456558228,78.49296951293945,78.64313817024231,78.64313817024231,78.64313817024231,78.64313817024231,78.64313817024231,78.64313817024231,78.64313817024231,79.46118712425232,1,0.9657838344573975,None,,,,,,,,,,,,,,,,,,188,3,2025-03-04_14h48.54.362,comp,2024.2.4,60.074995201796675,2025-03-04 14h49.01.200734 -0500,
38,38,0,filler_random,None,None,None,None,None,None,None,None,None,None,2,0.6922204494476318,None,,,,,0,0,0,0,0,38,38,134,79.47658061981201,,,,,,,,,,,,,,,,,,,,,,,,,,,,,,,,,,,,,,,,,,,,,,,,,,,,,,,,,,,,,,,,,,,,,,,,,,,,,,,,,138.68699682015574,61.79148004478135,94.28595613193887,170.80643993209094,105.72506198185444,132.52687587786517,3.0,3.2,-212,-263,0,14,248,253,79.46209406852722,79.46213555335999,79.46537232398987,79.47658061981201,79.6265275478363,79.6265275478363,79.6265275478363,79.6265275478363,79.6265275478363,79.6265275478363,79.6265275478363,80.17772650718689,2,0.6922204494476318,None,,,,,,,,,,,,,,,,,,188,3,2025-03-04_14h48.54.362,comp,2024.2.4,60.074995201796675,2025-03-04 14h49.01.200734 -0500,
39,39,0,critical,wdh,35.0,2.1,lower,57.0,133.0,70.0,70.0,133.0,57.0,3,1.016627550125122,None,,,,,0,0,0,0,0,39,39,32,80.19318270683289,,,,,,,,,,,,,,,,,,,,,,,,,,,,,,,,,,,,,,,,,,,,,,,,,,,,,,,,,,,,,,,,,,,,,,,,,,,,,,,,,57.0,133.0,70.0,70.0,133.0,57.0,2.1,2.12,-198,-281,0,-285,160,269,80.17856216430664,80.17860245704651,80.18074297904968,80.19318270683289,80.3430507183075,80.3430507183075,80.3430507183075,80.3430507183075,80.3430507183075,80.3430507183075,80.3430507183075,81.21108865737915,3,1.016627550125122,None,,,,,,,,,,,,,,,,,,188,3,2025-03-04_14h48.54.362,comp,2024.2.4,60.074995201796675,2025-03-04 14h49.01.200734 -0500,
40,40,0,filler_random,None,None,None,None,None,None,None,None,None,None,2,0.8472535610198975,None,,,,,0,0,0,0,0,40,40,143,81.2264187335968,,,,,,,,,,,,,,,,,,,,,,,,,,,,,,,,,,,,,,,,,,,,,,,,,,,,,,,,,,,,,,,,,,,,,,,,,,,,,,,,,185.4359161737765,105.31830698312643,85.20885038756342,189.09106325066892,188.27081866501274,198.4473017865308,4.0,4.2,-243,10,0,-250,290,10,81.21195316314697,81.21199250221252,81.21407794952393,81.2264187335968,81.3771538734436,81.3771538734436,81.3771538734436,81.3771538734436,81.3771538734436,81.3771538734436,81.3771538734436,82.07782030105591,2,0.8472535610198975,None,,,,,,,,,,,,,,,,,,188,3,2025-03-04_14h48.54.362,comp,2024.2.4,60.074995201796675,2025-03-04 14h49.01.200734 -0500,
41,41,0,critical,dwh,35.0,4.0,lower,70.0,70.0,57.0,133.0,133.0,57.0,2,0.9809093475341797,None,,,,,0,0,0,0,0,41,41,64,82.09322047233582,,,,,,,,,,,,,,,,,,,,,,,,,,,,,,,,,,,,,,,,,,,,,,,,,,,,,,,,,,,,,,,,,,,,,,,,,,,,,,,,,70.0,70.0,57.0,133.0,133.0,57.0,4.0,4.2,-198,12,0,-262,191,-17,82.07860660552979,82.07864689826965,82.08111763000488,82.09322047233582,82.24307513237,82.24307513237,82.24307513237,82.24307513237,82.24307513237,82.24307513237,82.24307513237,83.07755541801453,2,0.9809093475341797,None,,,,,,,,,,,,,,,,,,188,3,2025-03-04_14h48.54.362,comp,2024.2.4,60.074995201796675,2025-03-04 14h49.01.200734 -0500,
42,42,0,filler_random,None,None,None,None,None,None,None,None,None,None,1,0.8187637329101562,None,,,,,0,0,0,0,0,42,42,165,83.09316873550415,,,,,,,,,,,,,,,,,,,,,,,,,,,,,,,,,,,,,,,,,,,,,,,,,,,,,,,,,,,,,,,,,,,,,,,,,,,,,,,,,168.16397441402393,177.8550811498764,186.11261859342974,81.21138053417617,94.40944613917917,134.32280903492997,2.1,2.12,-226,-251,0,-261,204,270,83.07847428321838,83.07851529121399,83.08097124099731,83.09316873550415,83.24322295188904,83.24322295188904,83.24322295188904,83.24322295188904,83.24322295188904,83.24322295188904,83.24322295188904,83.92759966850281,1,0.8187637329101562,None,,,,,,,,,,,,,,,,,,188,3,2025-03-04_14h48.54.362,comp,2024.2.4,60.074995201796675,2025-03-04 14h49.01.200734 -0500,
43,43,0,critical,dwh,20.0,3.0,upper,141.0,141.0,125.0,200.0,200.0,125.0,3,1.099780797958374,None,,,,,0,0,0,0,0,43,43,69,83.94294357299805,,,,,,,,,,,,,,,,,,,,,,,,,,,,,,,,,,,,,,,,,,,,,,,,,,,,,,,,,,,,,,,,,,,,,,,,,,,,,,,,,141.0,141.0,125.0,200.0,200.0,125.0,3.0,3.1,-266,284,0,-5,258,-290,83.92841386795044,83.92845368385315,83.93184018135071,83.94294357299805,84.0932445526123,84.0932445526123,84.0932445526123,84.0932445526123,84.0932445526123,84.0932445526123,84.0932445526123,85.0610020160675,3,1.099780797958374,None,,,,,,,,,,,,,,,,,,188,3,2025-03-04_14h48.54.362,comp,2024.2.4,60.074995201796675,2025-03-04 14h49.01.200734 -0500,
44,44,0,critical,hdw,35.0,3.0,upper,200.0,125.0,127.0,127.0,125.0,200.0,1,0.9084539413452148,None,,,,,0,0,0,0,0,44,44,111,85.07619738578796,,,,,,,,,,,,,,,,,,,,,,,,,,,,,,,,,,,,,,,,,,,,,,,,,,,,,,,,,,,,,,,,,,,,,,,,,,,,,,,,,200.0,125.0,127.0,127.0,125.0,200.0,3.0,3.1,-222,267,0,16,260,-270,85.06179523468018,85.06183528900146,85.06418681144714,85.07619738578796,85.22657871246338,85.22657871246338,85.22657871246338,85.22657871246338,85.22657871246338,85.22657871246338,85.22657871246338,85.99451637268066,1,0.9084539413452148,None,,,,,,,,,,,,,,,,,,188,3,2025-03-04_14h48.54.362,comp,2024.2.4,60.074995201796675,2025-03-04 14h49.01.200734 -0500,
45,45,0,catch,None,None,None,None,None,None,None,None,None,None,3,0.8639740943908691,None,,,,,0,0,0,0,0,45,45,129,86.00971841812134,,,,,,,,,,,,,,,,,,,,,,,,,,,,,,,,,,,,,,,,,,,,,,,,,,,,,,,,,,,,,,,,,,,,,,,,,,,,,,,,,121,69,73,117,129,196,3.0,3.1,-189,284,0,9,252,-285,85.99557065963745,85.99561262130737,85.9980092048645,86.00971841812134,86.15976452827454,86.15976452827454,86.15976452827454,86.15976452827454,86.15976452827454,86.15976452827454,86.15976452827454,86.87771558761597,3,0.8639740943908691,None,,,,,,,,,,,,,,,,,,188,3,2025-03-04_14h48.54.362,comp,2024.2.4,60.074995201796675,2025-03-04 14h49.01.200734 -0500,
46,46,0,filler_random,None,None,None,None,None,None,None,None,None,None,2,1.0029282569885254,None,,,,,0,0,0,0,0,46,46,163,86.89317154884338,,,,,,,,,,,,,,,,,,,,,,,,,,,,,,,,,,,,,,,,,,,,,,,,,,,,,,,,,,,,,,,,,,,,,,,,,,,,,,,,,150.49538505166473,136.39507644417722,142.8016166701048,169.35907596330986,115.7659063754675,150.71667040063457,3.0,3.2,-249,-269,0,14,256,281,86.87859725952148,86.87863802909851,86.88110184669495,86.89317154884338,87.043447971344,87.043447971344,87.043447971344,87.043447971344,87.043447971344,87.043447971344,87.043447971344,87.91086864471436,2,1.0029282569885254,None,,,,,,,,,,,,,,,,,,188,3,2025-03-04_14h48.54.362,comp,2024.2.4,60.074995201796675,2025-03-04 14h49.01.200734 -0500,
47,47,0,critical,hwd,20.0,2.1,lower,133.0,57.0,57.0,133.0,78.0,78.0,1,0.8265104293823242,None,,,,,0,0,0,0,0,47,47,42,87.92618083953857,,,,,,,,,,,,,,,,,,,,,,,,,,,,,,,,,,,,,,,,,,,,,,,,,,,,,,,,,,,,,,,,,,,,,,,,,,,,,,,,,133.0,57.0,57.0,133.0,78.0,78.0,2.1,2.12,-191,-275,0,-250,202,279,87.91164040565491,87.91167879104614,87.91421842575073,87.92618083953857,88.07626271247864,88.07626271247864,88.07626271247864,88.07626271247864,88.07626271247864,88.07626271247864,88.07626271247864,88.76071834564209,1,0.8265104293823242,None,,,,,,,,,,,,,,,,,,188,3,2025-03-04_14h48.54.362,comp,2024.2.4,60.074995201796675,2025-03-04 14h49.01.200734 -0500,
48,48,0,critical,wdh,35.0,3.0,upper,125.0,200.0,127.0,127.0,200.0,125.0,3,1.0554530620574951,None,,,,,0,0,0,0,0,48,48,75,88.77631998062134,,,,,,,,,,,,,,,,,,,,,,,,,,,,,,,,,,,,,,,,,,,,,,,,,,,,,,,,,,,,,,,,,,,,,,,,,,,,,,,,,125.0,200.0,127.0,127.0,200.0,125.0,3.0,3.1,-260,279,0,16,222,-287,88.76149487495422,88.76153779029846,88.76404857635498,88.77631998062134,88.9266927242279,88.9266927242279,88.9266927242279,88.9266927242279,88.9266927242279,88.9266927242279,88.9266927242279,89.84445118904114,3,1.0554530620574951,None,,,,,,,,,,,,,,,,,,188,3,2025-03-04_14h48.54.362,comp,2024.2.4,60.074995201796675,2025-03-04 14h49.01.200734 -0500,
49,49,0,filler_square,None,None,None,None,None,None,None,None,None,None,2,2.517254114151001,None,,,,,0,0,0,0,0,49,49,173,89.85962963104248,,,,,,,,,,,,,,,,,,,,,,,,,,,,,,,,,,,,,,,,,,,,,,,,,,,,,,,,,,,,,,,,,,,,,,,,,,,,,,,,,57.01733214339723,57.00501310985493,57.01402549363752,57.01831661347538,57.02869624893696,57.02869624893696,4.0,4.2,-153,-8,0,-263,153,-4,89.84545183181763,89.84549403190613,89.84797430038452,89.85962963104248,90.0097451210022,90.0097451210022,90.0097451210022,90.0097451210022,90.0097451210022,90.0097451210022,90.0097451210022,92.3941159248352,2,2.517254114151001,None,,,,,,,,,,,,,,,,,,188,3,2025-03-04_14h48.54.362,comp,2024.2.4,60.074995201796675,2025-03-04 14h49.01.200734 -0500,
50,50,0,catch,None,None,None,None,None,None,None,None,None,None,1,0.7274081707000732,None,,,,,0,0,0,0,0,50,50,128,92.40949487686157,,,,,,,,,,,,,,,,,,,,,,,,,,,,,,,,,,,,,,,,,,,,,,,,,,,,,,,,,,,,,,,,,,,,,,,,,,,,,,,,,109,81,200,125,98,92,3.0,3.2,-199,-267,0,-11,204,290,92.39514756202698,92.39518737792969,92.39754629135132,92.40949487686157,92.55977296829224,92.55977296829224,92.55977296829224,92.55977296829224,92.55977296829224,92.55977296829224,92.55977296829224,93.14423656463623,1,0.7274081707000732,None,,,,,,,,,,,,,,,,,,188,3,2025-03-04_14h48.54.362,comp,2024.2.4,60.074995201796675,2025-03-04 14h49.01.200734 -0500,
51,51,0,filler_square,None,None,None,None,None,None,None,None,None,None,3,0.8560066223144531,None,,,,,0,0,0,0,0,51,51,184,93.15974283218384,,,,,,,,,,,,,,,,,,,,,,,,,,,,,,,,,,,,,,,,,,,,,,,,,,,,,,,,,,,,,,,,,,,,,,,,,,,,,,,,,89.90934108268202,105.36756787831763,89.7801569650803,101.3703221356383,109.60322466940978,109.60322466940978,4.0,4.1,-199,-283,0,9,201,-287,93.1451644897461,93.14520239830017,93.14751768112183,93.15974283218384,93.3096866607666,93.3096866607666,93.3096866607666,93.3096866607666,93.3096866607666,93.3096866607666,93.3096866607666,94.02757525444031,3,0.8560066223144531,None,,,,,,,,,,,,,,,,,,188,3,2025-03-04_14h48.54.362,comp,2024.2.4,60.074995201796675,2025-03-04 14h49.01.200734 -0500,
52,52,0,catch,None,None,None,None,None,None,None,None,None,None,2,1.4775028228759766,None,,,,,0,0,0,0,0,52,52,123,94.04301023483276,,,,,,,,,,,,,,,,,,,,,,,,,,,,,,,,,,,,,,,,,,,,,,,,,,,,,,,,,,,,,,,,,,,,,,,,,,,,,,,,,95,95,149,176,132,58,3.0,3.1,-232,268,0,-19,213,-263,94.02868580818176,94.02872657775879,94.03127431869507,94.04301023483276,94.19312334060669,94.19312334060669,94.19312334060669,94.19312334060669,94.19312334060669,94.19312334060669,94.19312334060669,95.52749466896057,2,1.4775028228759766,None,,,,,,,,,,,,,,,,,,188,3,2025-03-04_14h48.54.362,comp,2024.2.4,60.074995201796675,2025-03-04 14h49.01.200734 -0500,
53,53,0,critical,whd,35.0,3.0,lower,57.0,133.0,133.0,57.0,70.0,70.0,2,0.915064811706543,None,,,,,0,0,0,0,0,53,53,86,95.54313707351685,,,,,,,,,,,,,,,,,,,,,,,,,,,,,,,,,,,,,,,,,,,,,,,,,,,,,,,,,,,,,,,,,,,,,,,,,,,,,,,,,57.0,133.0,133.0,57.0,70.0,70.0,3.0,3.2,-191,-280,0,13,160,252,95.52836203575134,95.52840495109558,95.53063488006592,95.54313707351685,95.69304323196411,95.69304323196411,95.69304323196411,95.69304323196411,95.69304323196411,95.69304323196411,95.69304323196411,96.46092224121094,2,0.915064811706543,None,,,,,,,,,,,,,,,,,,188,3,2025-03-04_14h48.54.362,comp,2024.2.4,60.074995201796675,2025-03-04 14h49.01.200734 -0500,
54,54,0,filler_random,None,None,None,None,None,None,None,None,None,None,1,0.8762681484222412,None,,,,,0,0,0,0,0,54,54,137,96.47637343406677,,,,,,,,,,,,,,,,,,,,,,,,,,,,,,,,,,,,,,,,,,,,,,,,,,,,,,,,,,,,,,,,,,,,,,,,,,,,,,,,,146.30759669778473,113.48659970184224,157.1358909322442,62.47442225971558,87.14322379545892,188.30616727921347,1.0,1.2,-184,-11,0,-7,221,12,96.46180534362793,96.46184468269348,96.46398067474365,96.47637343406677,96.62676334381104,96.62676334381104,96.62676334381104,96.62676334381104,96.62676334381104,96.62676334381104,96.62676334381104,97.36088156700134,1,0.8762681484222412,None,,,,,,,,,,,,,,,,,,188,3,2025-03-04_14h48.54.362,comp,2024.2.4,60.074995201796675,2025-03-04 14h49.01.200734 -0500,
55,55,0,critical,hwd,35.0,4.0,lower,133.0,57.0,57.0,133.0,70.0,70.0,1,0.8661835193634033,None,,,,,0,0,0,0,0,55,55,100,97.37639379501343,,,,,,,,,,,,,,,,,,,,,,,,,,,,,,,,,,,,,,,,,,,,,,,,,,,,,,,,,,,,,,,,,,,,,,,,,,,,,,,,,133.0,57.0,57.0,133.0,70.0,70.0,4.0,4.1,-191,-270,0,-14,198,-253,97.36167454719543,97.36171770095825,97.36432886123657,97.37639379501343,97.52624678611755,97.52624678611755,97.52624678611755,97.52624678611755,97.52624678611755,97.52624678611755,97.52624678611755,98.24440431594849,1,0.8661835193634033,None,,,,,,,,,,,,,,,,,,188,3,2025-03-04_14h48.54.362,comp,2024.2.4,60.074995201796675,2025-03-04 14h49.01.200734 -0500,
56,56,0,filler_random,None,None,None,None,None,None,None,None,None,None,3,1.2139387130737305,None,,,,,0,0,0,0,0,56,56,157,98.25970005989075,,,,,,,,,,,,,,,,,,,,,,,,,,,,,,,,,,,,,,,,,,,,,,,,,,,,,,,,,,,,,,,,,,,,,,,,,,,,,,,,,163.15357672929684,107.13667097419216,88.61549516830735,165.8544788543469,127.53922216850259,157.93612834841105,2.1,2.11,-232,264,0,254,258,-268,98.24531388282776,98.24535465240479,98.24747943878174,98.25970005989075,98.40999102592468,98.40999102592468,98.40999102592468,98.40999102592468,98.40999102592468,98.40999102592468,98.40999102592468,99.47771668434143,3,1.2139387130737305,None,,,,,,,,,,,,,,,,,,188,3,2025-03-04_14h48.54.362,comp,2024.2.4,60.074995201796675,2025-03-04 14h49.01.200734 -0500,
57,57,0,filler_square,None,None,None,None,None,None,None,None,None,None,3,0.771061897277832,None,,,,,0,0,0,0,0,57,57,175,99.49315905570984,,,,,,,,,,,,,,,,,,,,,,,,,,,,,,,,,,,,,,,,,,,,,,,,,,,,,,,,,,,,,,,,,,,,,,,,,,,,,,,,,111.02631236234816,136.75526468086008,89.99066722947883,78.21040946872083,150.0378633362251,150.0378633362251,3.0,3.2,-203,-262,0,-7,210,276,99.47866082191467,99.47870302200317,99.48111915588379,99.49315905570984,99.64305424690247,99.64305424690247,99.64305424690247,99.64305424690247,99.64305424690247,99.64305424690247,99.64305424690247,100.27745914459229,3,0.771061897277832,None,,,,,,,,,,,,,,,,,,188,3,2025-03-04_14h48.54.362,comp,2024.2.4,60.074995201796675,2025-03-04 14h49.01.200734 -0500,
58,58,0,critical,wdh,35.0,2.1,lower,57.0,133.0,70.0,70.0,133.0,57.0,1,0.7715089321136475,None,,,,,0,0,0,0,0,58,58,8,100.29274582862854,,,,,,,,,,,,,,,,,,,,,,,,,,,,,,,,,,,,,,,,,,,,,,,,,,,,,,,,,,,,,,,,,,,,,,,,,,,,,,,,,57.0,133.0,70.0,70.0,133.0,57.0,2.1,2.11,-198,259,0,279,160,-279,100.27824425697327,100.27828288078308,100.28069591522217,100.29274582862854,100.44291353225708,100.44291353225708,100.44291353225708,100.44291353225708,100.44291353225708,100.44291353225708,100.44291353225708,101.07739233970642,1,0.7715089321136475,None,,,,,,,,,,,,,,,,,,188,3,2025-03-04_14h48.54.362,comp,2024.2.4,60.074995201796675,2025-03-04 14h49.01.200734 -0500,
59,59,0,filler_random,None,None,None,None,None,None,None,None,None,None,3,0.6756722927093506,None,,,,,0,0,0,0,0,59,59,131,101.09289169311523,,,,,,,,,,,,,,,,,,,,,,,,,,,,,,,,,,,,,,,,,,,,,,,,,,,,,,,,,,,,,,,,,,,,,,,,,,,,,,,,,119.29201688472274,75.93210721567388,123.39285537673814,85.78437400033204,177.6943064300251,85.086029757462,3.0,3.1,-177,261,0,-1,181,-258,101.07829880714417,101.07833862304688,101.08082866668701,101.09289169311523,101.24307107925415,101.24307107925415,101.24307107925415,101.24307107925415,101.24307107925415,101.24307107925415,101.24307107925415,101.77743554115295,3,0.6756722927093506,None,,,,,,,,,,,,,,,,,,188,3,2025-03-04_14h48.54.362,comp,2024.2.4,60.074995201796675,2025-03-04 14h49.01.200734 -0500,
60,60,0,filler_square,None,None,None,None,None,None,None,None,None,None,3,0.8651788234710693,None,,,,,0,0,0,0,0,60,60,194,101.79304814338684,,,,,,,,,,,,,,,,,,,,,,,,,,,,,,,,,,,,,,,,,,,,,,,,,,,,,,,,,,,,,,,,,,,,,,,,,,,,,,,,,95.07230971452907,148.22800926987276,57.83750933664649,113.04162275860948,167.27218624520276,167.27218624520276,2.1,2.11,-227,257,0,250,236,-289,101.77844381332397,101.77848553657532,101.780601978302,101.79304814338684,101.94309377670288,101.94309377670288,101.94309377670288,101.94309377670288,101.94309377670288,101.94309377670288,101.94309377670288,102.66127014160156,3,0.8651788234710693,None,,,,,,,,,,,,,,,,,,188,3,2025-03-04_14h48.54.362,comp,2024.2.4,60.074995201796675,2025-03-04 14h49.01.200734 -0500,
61,61,0,critical,hdw,20.0,3.0,lower,133.0,57.0,78.0,78.0,57.0,133.0,1,0.7711508274078369,None,,,,,0,0,0,0,0,61,61,116,102.67644953727722,,,,,,,,,,,,,,,,,,,,,,,,,,,,,,,,,,,,,,,,,,,,,,,,,,,,,,,,,,,,,,,,,,,,,,,,,,,,,,,,,133.0,57.0,78.0,78.0,57.0,133.0,3.0,3.1,-164,266,0,9,202,-288,102.66206407546997,102.66210579872131,102.66424012184143,102.67644953727722,102.82639837265015,102.82639837265015,102.82639837265015,102.82639837265015,102.82639837265015,102.82639837265015,102.82639837265015,103.46065664291382,1,0.7711508274078369,None,,,,,,,,,,,,,,,,,,188,3,2025-03-04_14h48.54.362,comp,2024.2.4,60.074995201796675,2025-03-04 14h49.01.200734 -0500,
62,62,0,filler_random,None,None,None,None,None,None,None,None,None,None,3,0.7251083850860596,None,,,,,0,0,0,0,0,62,62,156,103.47606587409973,,,,,,,,,,,,,,,,,,,,,,,,,,,,,,,,,,,,,,,,,,,,,,,,,,,,,,,,,,,,,,,,,,,,,,,,,,,,,,,,,107.2861312863374,85.53701524122154,84.90838221721032,155.15456250284615,104.24444352995144,143.2091073627531,4.0,4.2,-216,14,0,-262,245,2,103.46156740188599,103.46160793304443,103.46416401863098,103.47606587409973,103.62631845474243,103.62631845474243,103.62631845474243,103.62631845474243,103.62631845474243,103.62631845474243,103.62631845474243,104.21086287498474,3,0.7251083850860596,None,,,,,,,,,,,,,,,,,,188,3,2025-03-04_14h48.54.362,comp,2024.2.4,60.074995201796675,2025-03-04 14h49.01.200734 -0500,
63,63,0,filler_square,None,None,None,None,None,None,None,None,None,None,3,0.8471767902374268,None,,,,,0,0,0,0,0,63,63,186,104.22633934020996,,,,,,,,,,,,,,,,,,,,,,,,,,,,,,,,,,,,,,,,,,,,,,,,,,,,,,,,,,,,,,,,,,,,,,,,,,,,,,,,,76.23004704892519,128.43653945247374,109.22121789977898,117.96272886815058,134.2614087911106,134.2614087911106,3.0,3.2,-219,-254,0,-16,222,251,104.21183466911316,104.21187806129456,104.21443152427673,104.22633934020996,104.3762674331665,104.3762674331665,104.3762674331665,104.3762674331665,104.3762674331665,104.3762674331665,104.3762674331665,105.07760691642761,3,0.8471767902374268,None,,,,,,,,,,,,,,,,,,188,3,2025-03-04_14h48.54.362,comp,2024.2.4,60.074995201796675,2025-03-04 14h49.01.200734 -0500,
64,64,0,critical,whd,20.0,2.1,lower,57.0,133.0,133.0,57.0,78.0,78.0,2,0.7643527984619141,None,,,,,0,0,0,0,0,64,64,14,105.0929958820343,,,,,,,,,,,,,,,,,,,,,,,,,,,,,,,,,,,,,,,,,,,,,,,,,,,,,,,,,,,,,,,,,,,,,,,,,,,,,,,,,57.0,133.0,133.0,57.0,78.0,78.0,2.1,2.11,-191,258,0,267,164,-289,105.07841897010803,105.07846117019653,105.08061647415161,105.0929958820343,105.24294877052307,105.24294877052307,105.24294877052307,105.24294877052307,105.24294877052307,105.24294877052307,105.24294877052307,105.86169624328613,2,0.7643527984619141,None,,,,,,,,,,,,,,,,,,188,3,2025-03-04_14h48.54.362,comp,2024.2.4,60.074995201796675,2025-03-04 14h49.01.200734 -0500,
65,65,0,critical,dwh,20.0,4.0,upper,141.0,141.0,125.0,200.0,200.0,125.0,2,0.8031015396118164,None,,,,,0,0,0,0,0,65,65,71,105.87666392326355,,,,,,,,,,,,,,,,,,,,,,,,,,,,,,,,,,,,,,,,,,,,,,,,,,,,,,,,,,,,,,,,,,,,,,,,,,,,,,,,,141.0,141.0,125.0,200.0,200.0,125.0,4.0,4.1,-266,-266,0,-2,258,-272,105.86247038841248,105.86250948905945,105.8646035194397,105.87666392326355,106.02674293518066,106.02674293518066,106.02674293518066,106.02674293518066,106.02674293518066,106.02674293518066,106.02674293518066,106.69421911239624,2,0.8031015396118164,None,,,,,,,,,,,,,,,,,,188,3,2025-03-04_14h48.54.362,comp,2024.2.4,60.074995201796675,2025-03-04 14h49.01.200734 -0500,
66,66,0,critical,dhw,20.0,2.1,upper,141.0,141.0,200.0,125.0,125.0,200.0,3,1.154808759689331,None,,,,,0,0,0,0,0,66,66,27,106.70949006080627,,,,,,,,,,,,,,,,,,,,,,,,,,,,,,,,,,,,,,,,,,,,,,,,,,,,,,,,,,,,,,,,,,,,,,,,,,,,,,,,,141.0,141.0,200.0,125.0,125.0,200.0,2.1,2.11,-229,281,0,253,258,-266,106.69497346878052,106.69503021240234,106.69704675674438,106.70949006080627,106.85993075370789,106.85993075370789,106.85993075370789,106.85993075370789,106.85993075370789,106.85993075370789,106.85993075370789,107.87774515151978,3,1.154808759689331,None,,,,,,,,,,,,,,,,,,188,3,2025-03-04_14h48.54.362,comp,2024.2.4,60.074995201796675,2025-03-04 14h49.01.200734 -0500,
67,67,0,critical,dhw,35.0,3.0,upper,127.0,127.0,200.0,125.0,125.0,200.0,3,0.9808998107910156,None,,,,,0,0,0,0,0,67,67,51,107.89276027679443,,,,,,,,,,,,,,,,,,,,,,,,,,,,,,,,,,,,,,,,,,,,,,,,,,,,,,,,,,,,,,,,,,,,,,,,,,,,,,,,,127.0,127.0,200.0,125.0,125.0,200.0,3.0,3.1,-222,279,0,-9,258,-254,107.87853360176086,107.87857437133789,107.88107299804688,107.89276027679443,108.04327416419983,108.04327416419983,108.04327416419983,108.04327416419983,108.04327416419983,108.04327416419983,108.04327416419983,108.87775826454163,3,0.9808998107910156,None,,,,,,,,,,,,,,,,,,188,3,2025-03-04_14h48.54.362,comp,2024.2.4,60.074995201796675,2025-03-04 14h49.01.200734 -0500,
68,68,0,filler_random,None,None,None,None,None,None,None,None,None,None,2,0.6755373477935791,None,,,,,0,0,0,0,0,68,68,166,108.8929796218872,,,,,,,,,,,,,,,,,,,,,,,,,,,,,,,,,,,,,,,,,,,,,,,,,,,,,,,,,,,,,,,,,,,,,,,,,,,,,,,,,99.34453724839133,185.76843907038264,165.5858809468158,174.30057276063684,155.52195075754517,80.62520151875594,2.2,2.21,-276,-252,0,286,223,286,108.8786690235138,108.8787088394165,108.8808445930481,108.8929796218872,109.04305458068848,109.04305458068848,109.04305458068848,109.04305458068848,109.04305458068848,109.04305458068848,109.04305458068848,109.57766699790955,2,0.6755373477935791,None,,,,,,,,,,,,,,,,,,188,3,2025-03-04_14h48.54.362,comp,2024.2.4,60.074995201796675,2025-03-04 14h49.01.200734 -0500,
69,69,0,filler_random,None,None,None,None,None,None,None,None,None,None,3,0.711336612701416,None,,,,,0,0,0,0,0,69,69,168,109.59313917160034,,,,,,,,,,,,,,,,,,,,,,,,,,,,,,,,,,,,,,,,,,,,,,,,,,,,,,,,,,,,,,,,,,,,,,,,,,,,,,,,,85.11331706668616,110.43125718845455,59.25048301832405,170.20845433927747,148.24215644014384,173.29444053182047,4.0,4.1,-236,-253,0,-10,268,-278,109.57861852645874,109.57865810394287,109.58117628097534,109.59313917160034,109.74299955368042,109.74299955368042,109.74299955368042,109.74299955368042,109.74299955368042,109.74299955368042,109.74299955368042,110.31074118614197,3,0.711336612701416,None,,,,,,,,,,,,,,,,,,188,3,2025-03-04_14h48.54.362,comp,2024.2.4,60.074995201796675,2025-03-04 14h49.01.200734 -0500,
70,70,0,critical,whd,35.0,4.0,lower,57.0,133.0,133.0,57.0,70.0,70.0,2,0.6746506690979004,None,,,,,0,0,0,0,0,70,70,88,110.32620096206665,,,,,,,,,,,,,,,,,,,,,,,,,,,,,,,,,,,,,,,,,,,,,,,,,,,,,,,,,,,,,,,,,,,,,,,,,,,,,,,,,57.0,133.0,133.0,57.0,70.0,70.0,4.0,4.1,-191,-253,0,-8,160,-279,110.31152105331421,110.31155967712402,110.31411147117615,110.32620096206665,110.47611927986145,110.47611927986145,110.47611927986145,110.47611927986145,110.47611927986145,110.47611927986145,110.47611927986145,111.01064324378967,2,0.6746506690979004,None,,,,,,,,,,,,,,,,,,188,3,2025-03-04_14h48.54.362,comp,2024.2.4,60.074995201796675,2025-03-04 14h49.01.200734 -0500,
71,71,0,critical,dwh,35.0,2.1,upper,127.0,127.0,125.0,200.0,200.0,125.0,2,0.8473401069641113,None,,,,,0,0,0,0,0,71,71,5,111.02624607086182,,,,,,,,,,,,,,,,,,,,,,,,,,,,,,,,,,,,,,,,,,,,,,,,,,,,,,,,,,,,,,,,,,,,,,,,,,,,,,,,,127.0,127.0,125.0,200.0,200.0,125.0,2.1,2.12,-260,-266,0,-290,258,282,111.01146221160889,111.01150393486023,111.01418042182922,111.02624607086182,111.17630696296692,111.17630696296692,111.17630696296692,111.17630696296692,111.17630696296692,111.17630696296692,111.17630696296692,111.87767720222473,2,0.8473401069641113,None,,,,,,,,,,,,,,,,,,188,3,2025-03-04_14h48.54.362,comp,2024.2.4,60.074995201796675,2025-03-04 14h49.01.200734 -0500,
72,72,0,critical,whd,20.0,2.1,lower,57.0,133.0,133.0,57.0,78.0,78.0,2,0.8755354881286621,None,,,,,0,0,0,0,0,72,72,38,111.89298987388611,,,,,,,,,,,,,,,,,,,,,,,,,,,,,,,,,,,,,,,,,,,,,,,,,,,,,,,,,,,,,,,,,,,,,,,,,,,,,,,,,57.0,133.0,133.0,57.0,78.0,78.0,2.1,2.12,-191,-271,0,-274,164,254,111.87847781181335,111.87851762771606,111.88065576553345,111.89298987388611,112.04290580749512,112.04290580749512,112.04290580749512,112.04290580749512,112.04290580749512,112.04290580749512,112.04290580749512,112.77722597122192,2,0.8755354881286621,None,,,,,,,,,,,,,,,,,,188,3,2025-03-04_14h48.54.362,comp,2024.2.4,60.074995201796675,2025-03-04 14h49.01.200734 -0500,
73,73,0,filler_square,None,None,None,None,None,None,None,None,None,None,2,1.1029422283172607,None,,,,,0,0,0,0,0,73,73,171,112.79289507865906,,,,,,,,,,,,,,,,,,,,,,,,,,,,,,,,,,,,,,,,,,,,,,,,,,,,,,,,,,,,,,,,,,,,,,,,,,,,,,,,,65.05384465111393,65.05384465111393,58.373629234468964,59.83078744311771,59.769994909784494,57.53913897053932,1.0,1.2,-158,16,0,-14,155,-5,112.77816772460938,112.77820777893066,112.78030371665955,112.79289507865906,112.94270944595337,112.94270944595337,112.94270944595337,112.94270944595337,112.94270944595337,112.94270944595337,112.94270944595337,113.91068506240845,2,1.1029422283172607,None,,,,,,,,,,,,,,,,,,188,3,2025-03-04_14h48.54.362,comp,2024.2.4,60.074995201796675,2025-03-04 14h49.01.200734 -0500,
74,74,0,critical,dwh,20.0,2.1,lower,78.0,78.0,57.0,133.0,133.0,57.0,2,0.6671175956726074,None,,,,,0,0,0,0,0,74,74,6,113.92603254318237,,,,,,,,,,,,,,,,,,,,,,,,,,,,,,,,,,,,,,,,,,,,,,,,,,,,,,,,,,,,,,,,,,,,,,,,,,,,,,,,,78.0,78.0,57.0,133.0,133.0,57.0,2.1,2.11,-202,271,0,283,191,-273,113.91149377822876,113.91153264045715,113.91370368003845,113.92603254318237,114.07610297203064,114.07610297203064,114.07610297203064,114.07610297203064,114.07610297203064,114.07610297203064,114.07610297203064,114.61062026023865,2,0.6671175956726074,None,,,,,,,,,,,,,,,,,,188,3,2025-03-04_14h48.54.362,comp,2024.2.4,60.074995201796675,2025-03-04 14h49.01.200734 -0500,
75,75,0,critical,hdw,20.0,4.0,lower,133.0,57.0,78.0,78.0,57.0,133.0,1,1.5747768878936768,None,,,,,0,0,0,0,0,75,75,118,114.6259617805481,,,,,,,,,,,,,,,,,,,,,,,,,,,,,,,,,,,,,,,,,,,,,,,,,,,,,,,,,,,,,,,,,,,,,,,,,,,,,,,,,133.0,57.0,78.0,78.0,57.0,133.0,4.0,4.1,-164,-279,0,-11,202,-282,114.61142444610596,114.61146521568298,114.6139829158783,114.6259617805481,114.77617740631104,114.77617740631104,114.77617740631104,114.77617740631104,114.77617740631104,114.77617740631104,114.77617740631104,116.21059203147888,1,1.5747768878936768,None,,,,,,,,,,,,,,,,,,188,3,2025-03-04_14h48.54.362,comp,2024.2.4,60.074995201796675,2025-03-04 14h49.01.200734 -0500,
76,76,0,critical,hwd,20.0,3.0,lower,133.0,57.0,57.0,133.0,78.0,78.0,2,0.615971565246582,None,,,,,0,0,0,0,0,76,76,104,116.22633004188538,,,,,,,,,,,,,,,,,,,,,,,,,,,,,,,,,,,,,,,,,,,,,,,,,,,,,,,,,,,,,,,,,,,,,,,,,,,,,,,,,133.0,57.0,57.0,133.0,78.0,78.0,3.0,3.2,-191,-261,0,2,202,257,116.21141695976257,116.21145749092102,116.2139048576355,116.22633004188538,116.37610840797424,116.37610840797424,116.37610840797424,116.37610840797424,116.37610840797424,116.37610840797424,116.37610840797424,116.86056017875671,2,0.615971565246582,None,,,,,,,,,,,,,,,,,,188,3,2025-03-04_14h48.54.362,comp,2024.2.4,60.074995201796675,2025-03-04 14h49.01.200734 -0500,
77,77,0,critical,wdh,35.0,4.0,lower,57.0,133.0,70.0,70.0,133.0,57.0,3,0.6837999820709229,None,,,,,0,0,0,0,0,77,77,76,116.87602829933167,,,,,,,,,,,,,,,,,,,,,,,,,,,,,,,,,,,,,,,,,,,,,,,,,,,,,,,,,,,,,,,,,,,,,,,,,,,,,,,,,57.0,133.0,70.0,70.0,133.0,57.0,4.0,4.1,-198,-262,0,15,160,-277,116.86134719848633,116.8613862991333,116.86386132240295,116.87602829933167,117.02606081962585,117.02606081962585,117.02606081962585,117.02606081962585,117.02606081962585,117.02606081962585,117.02606081962585,117.57718658447266,3,0.6837999820709229,None,,,,,,,,,,,,,,,,,,188,3,2025-03-04_14h48.54.362,comp,2024.2.4,60.074995201796675,2025-03-04 14h49.01.200734 -0500,
78,78,0,critical,hwd,20.0,1.0,upper,200.0,125.0,125.0,200.0,141.0,141.0,2,1.295698881149292,None,,,,,0,0,0,0,0,78,78,103,117.59265160560608,,,,,,,,,,,,,,,,,,,,,,,,,,,,,,,,,,,,,,,,,,,,,,,,,,,,,,,,,,,,,,,,,,,,,,,,,,,,,,,,,200.0,125.0,125.0,200.0,141.0,141.0,1.0,1.3,222,-287,480,-266,746,-253,117.5779960155487,117.57804870605469,117.58043503761292,117.59265160560608,117.74294662475586,117.74294662475586,117.74294662475586,117.74294662475586,117.74294662475586,117.74294662475586,117.74294662475586,118.89420175552368,2,1.295698881149292,None,,,,,,,,,,,,,,,,,,188,3,2025-03-04_14h48.54.362,comp,2024.2.4,60.074995201796675,2025-03-04 14h49.01.200734 -0500,
79,79,0,filler_square,None,None,None,None,None,None,None,None,None,None,2,0.7866086959838867,None,,,,,0,0,0,0,0,79,79,185,118.90966844558716,,,,,,,,,,,,,,,,,,,,,,,,,,,,,,,,,,,,,,,,,,,,,,,,,,,,,,,,,,,,,,,,,,,,,,,,,,,,,,,,,85.19680911936675,70.45318413782834,193.33495981774578,193.33495981774578,145.9869009851645,163.41900813773833,2.2,2.22,-228,265,0,-270,274,-286,118.89518070220947,118.89522075653076,118.89733839035034,118.90966844558716,119.05972290039062,119.05972290039062,119.05972290039062,119.05972290039062,119.05972290039062,119.05972290039062,119.05972290039062,119.71077823638916,2,0.7866086959838867,None,,,,,,,,,,,,,,,,,,188,3,2025-03-04_14h48.54.362,comp,2024.2.4,60.074995201796675,2025-03-04 14h49.01.200734 -0500,
80,80,0,filler_square,None,None,None,None,None,None,None,None,None,None,1,0.810523271560669,None,,,,,0,0,0,0,0,80,80,187,119.72594833374023,,,,,,,,,,,,,,,,,,,,,,,,,,,,,,,,,,,,,,,,,,,,,,,,,,,,,,,,,,,,,,,,,,,,,,,,,,,,,,,,,130.38499524999457,130.38499524999457,72.8029269646801,126.49402068576241,81.670755305718,66.8768513029899,4.0,4.1,-224,-265,0,19,193,-260,119.71171951293945,119.71175789833069,119.71432280540466,119.72594833374023,119.87607622146606,119.87607622146606,119.87607622146606,119.87607622146606,119.87607622146606,119.87607622146606,119.87607622146606,120.54398012161255,1,0.810523271560669,None,,,,,,,,,,,,,,,,,,188,3,2025-03-04_14h48.54.362,comp,2024.2.4,60.074995201796675,2025-03-04 14h49.01.200734 -0500,
81,81,0,filler_square,None,None,None,None,None,None,None,None,None,None,3,0.6500890254974365,None,,,,,0,0,0,0,0,81,81,192,120.5596776008606,,,,,,,,,,,,,,,,,,,,,,,,,,,,,,,,,,,,,,,,,,,,,,,,,,,,,,,,,,,,,,,,,,,,,,,,,,,,,,,,,108.4544397676089,84.2846648608753,94.0450292126043,118.66233089703056,193.4040796658941,193.4040796658941,4.0,4.1,-197,-255,0,-16,252,-280,120.54494953155518,120.54499173164368,120.54711055755615,120.5596776008606,120.70968627929688,120.70968627929688,120.70968627929688,120.70968627929688,120.70968627929688,120.70968627929688,120.70968627929688,121.21104860305786,3,0.6500890254974365,None,,,,,,,,,,,,,,,,,,188,3,2025-03-04_14h48.54.362,comp,2024.2.4,60.074995201796675,2025-03-04 14h49.01.200734 -0500,
82,82,0,filler_random,None,None,None,None,None,None,None,None,None,None,2,0.6622147560119629,None,,,,,0,0,0,0,0,82,82,141,121.22620391845703,,,,,,,,,,,,,,,,,,,,,,,,,,,,,,,,,,,,,,,,,,,,,,,,,,,,,,,,,,,,,,,,,,,,,,,,,,,,,,,,,64.30080424264861,114.00909539900397,104.17272085780868,124.91939934119053,57.99041451565501,163.14695696849662,2.1,2.11,-215,253,0,250,240,-256,121.21200656890869,121.21213793754578,121.21467208862305,121.22620391845703,121.37629413604736,121.37629413604736,121.37629413604736,121.37629413604736,121.37629413604736,121.37629413604736,121.37629413604736,121.8941125869751,2,0.6622147560119629,None,,,,,,,,,,,,,,,,,,188,3,2025-03-04_14h48.54.362,comp,2024.2.4,60.074995201796675,2025-03-04 14h49.01.200734 -0500,
83,83,0,catch,None,None,None,None,None,None,None,None,None,None,1,0.6271460056304932,None,,,,,0,0,0,0,0,83,83,122,121.90952730178833,,,,,,,,,,,,,,,,,,,,,,,,,,,,,,,,,,,,,,,,,,,,,,,,,,,,,,,,,,,,,,,,,,,,,,,,,,,,,,,,,168,157,84,106,118,72,2.2,2.22,-228,251,0,-285,185,-289,121.8951210975647,121.89516139030457,121.89720249176025,121.90952730178833,122.059485912323,122.059485912323,122.059485912323,122.059485912323,122.059485912323,122.059485912323,122.059485912323,122.54404139518738,1,0.6271460056304932,None,,,,,,,,,,,,,,,,,,188,3,2025-03-04_14h48.54.362,comp,2024.2.4,60.074995201796675,2025-03-04 14h49.01.200734 -0500,
84,84,0,filler_random,None,None,None,None,None,None,None,None,None,None,3,0.7290706634521484,None,,,,,0,0,0,0,0,84,84,144,122.55960440635681,,,,,,,,,,,,,,,,,,,,,,,,,,,,,,,,,,,,,,,,,,,,,,,,,,,,,,,,,,,,,,,,,,,,,,,,,,,,,,,,,115.79509662884331,143.65348818309428,62.83282095062376,121.17420443762822,198.50114809392932,84.18937333982868,1.0,1.2,-228,-17,0,-8,199,-13,122.54494714736938,122.54498624801636,122.54827046394348,122.55960440635681,122.70967555046082,122.70967555046082,122.70967555046082,122.70967555046082,122.70967555046082,122.70967555046082,122.70967555046082,123.29407167434692,3,0.7290706634521484,None,,,,,,,,,,,,,,,,,,188,3,2025-03-04_14h48.54.362,comp,2024.2.4,60.074995201796675,2025-03-04 14h49.01.200734 -0500,
85,85,0,critical,dwh,35.0,3.0,upper,127.0,127.0,125.0,200.0,200.0,125.0,2,1.386164665222168,None,,,,,0,0,0,0,0,85,85,63,123.30946469306946,,,,,,,,,,,,,,,,,,,,,,,,,,,,,,,,,,,,,,,,,,,,,,,,,,,,,,,,,,,,,,,,,,,,,,,,,,,,,,,,,127.0,127.0,125.0,200.0,200.0,125.0,3.0,3.2,-260,-275,0,-2,258,253,123.29484462738037,123.2948853969574,123.29721021652222,123.30946469306946,123.45974969863892,123.45974969863892,123.45974969863892,123.45974969863892,123.45974969863892,123.45974969863892,123.45974969863892,124.71080803871155,2,1.386164665222168,None,,,,,,,,,,,,,,,,,,188,3,2025-03-04_14h48.54.362,comp,2024.2.4,60.074995201796675,2025-03-04 14h49.01.200734 -0500,
86,86,0,critical,whd,35.0,1.0,lower,57.0,133.0,133.0,57.0,70.0,70.0,2,1.0583844184875488,None,,,,,0,0,0,0,0,86,86,84,124.7259783744812,,,,,,,,,,,,,,,,,,,,,,,,,,,,,,,,,,,,,,,,,,,,,,,,,,,,,,,,,,,,,,,,,,,,,,,,,,,,,,,,,57.0,133.0,133.0,57.0,70.0,70.0,1.0,1.3,289,-252,480,-270,640,-273,124.71164464950562,124.71168422698975,124.71428561210632,124.7259783744812,124.87611985206604,124.87611985206604,124.87611985206604,124.87611985206604,124.87611985206604,124.87611985206604,124.87611985206604,125.79386687278748,2,1.0583844184875488,None,,,,,,,,,,,,,,,,,,188,3,2025-03-04_14h48.54.362,comp,2024.2.4,60.074995201796675,2025-03-04 14h49.01.200734 -0500,
87,87,0,critical,dhw,35.0,4.0,lower,70.0,70.0,133.0,57.0,57.0,133.0,2,1.5833797454833984,None,,,,,0,0,0,0,0,87,87,52,125.80956888198853,,,,,,,,,,,,,,,,,,,,,,,,,,,,,,,,,,,,,,,,,,,,,,,,,,,,,,,,,,,,,,,,,,,,,,,,,,,,,,,,,70.0,70.0,133.0,57.0,57.0,133.0,4.0,4.2,-160,5,0,-264,191,-13,125.79465460777283,125.7946949005127,125.79676461219788,125.80956888198853,125.95939683914185,125.95939683914185,125.95939683914185,125.95939683914185,125.95939683914185,125.95939683914185,125.95939683914185,127.41053056716919,2,1.5833797454833984,None,,,,,,,,,,,,,,,,,,188,3,2025-03-04_14h48.54.362,comp,2024.2.4,60.074995201796675,2025-03-04 14h49.01.200734 -0500,
88,88,0,critical,dwh,20.0,2.1,lower,78.0,78.0,57.0,133.0,133.0,57.0,2,1.1587703227996826,None,,,,,0,0,0,0,0,88,88,30,127.42586278915405,,,,,,,,,,,,,,,,,,,,,,,,,,,,,,,,,,,,,,,,,,,,,,,,,,,,,,,,,,,,,,,,,,,,,,,,,,,,,,,,,78.0,78.0,57.0,133.0,133.0,57.0,2.1,2.12,-202,-253,0,-278,191,285,127.41129851341248,127.41133546829224,127.41382360458374,127.42586278915405,127.57605838775635,127.57605838775635,127.57605838775635,127.57605838775635,127.57605838775635,127.57605838775635,127.57605838775635,128.59389400482178,2,1.1587703227996826,None,,,,,,,,,,,,,,,,,,188,3,2025-03-04_14h48.54.362,comp,2024.2.4,60.074995201796675,2025-03-04 14h49.01.200734 -0500,
89,89,0,filler_square,None,None,None,None,None,None,None,None,None,None,1,1.1426746845245361,None,,,,,0,0,0,0,0,89,89,177,128.60973691940308,,,,,,,,,,,,,,,,,,,,,,,,,,,,,,,,,,,,,,,,,,,,,,,,,,,,,,,,,,,,,,,,,,,,,,,,,,,,,,,,,145.99140141362625,145.99140141362625,86.81379761930361,107.6744583409432,96.41324977570224,102.16477155058871,3.0,3.2,-223,-255,0,15,201,288,128.5948679447174,128.59490966796875,128.59812760353088,128.60973691940308,128.75955319404602,128.75955319404602,128.75955319404602,128.75955319404602,128.75955319404602,128.75955319404602,128.75955319404602,129.7605857849121,1,1.1426746845245361,None,,,,,,,,,,,,,,,,,,188,3,2025-03-04_14h48.54.362,comp,2024.2.4,60.074995201796675,2025-03-04 14h49.01.200734 -0500,
90,90,0,critical,dwh,35.0,3.0,lower,70.0,70.0,57.0,133.0,133.0,57.0,2,0.6820592880249023,None,,,,,0,0,0,0,0,90,90,62,129.77612447738647,,,,,,,,,,,,,,,,,,,,,,,,,,,,,,,,,,,,,,,,,,,,,,,,,,,,,,,,,,,,,,,,,,,,,,,,,,,,,,,,,70.0,70.0,57.0,133.0,133.0,57.0,3.0,3.1,-198,254,0,-16,191,-278,129.7613799571991,129.76142024993896,129.76388788223267,129.77612447738647,129.92614483833313,129.92614483833313,129.92614483833313,129.92614483833313,129.92614483833313,129.92614483833313,129.92614483833313,130.46066093444824,2,0.6820592880249023,None,,,,,,,,,,,,,,,,,,188,3,2025-03-04_14h48.54.362,comp,2024.2.4,60.074995201796675,2025-03-04 14h49.01.200734 -0500,
91,91,0,critical,dhw,35.0,4.0,upper,127.0,127.0,200.0,125.0,125.0,200.0,3,0.781937837600708,None,,,,,0,0,0,0,0,91,91,53,130.4763627052307,,,,,,,,,,,,,,,,,,,,,,,,,,,,,,,,,,,,,,,,,,,,,,,,,,,,,,,,,,,,,,,,,,,,,,,,,,,,,,,,,127.0,127.0,200.0,125.0,125.0,200.0,4.0,4.2,-222,9,0,-250,258,-14,130.46143698692322,130.4614782333374,130.46402978897095,130.4763627052307,130.626398563385,130.626398563385,130.626398563385,130.626398563385,130.626398563385,130.626398563385,130.626398563385,131.26097011566162,3,0.781937837600708,None,,,,,,,,,,,,,,,,,,188,3,2025-03-04_14h48.54.362,comp,2024.2.4,60.074995201796675,2025-03-04 14h49.01.200734 -0500,
92,92,0,critical,whd,20.0,3.0,lower,57.0,133.0,133.0,57.0,78.0,78.0,2,0.6837520599365234,None,,,,,0,0,0,0,0,92,92,92,131.27617812156677,,,,,,,,,,,,,,,,,,,,,,,,,,,,,,,,,,,,,,,,,,,,,,,,,,,,,,,,,,,,,,,,,,,,,,,,,,,,,,,,,57.0,133.0,133.0,57.0,78.0,78.0,3.0,3.2,-191,-271,0,17,164,289,131.26176762580872,131.26180934906006,131.26433753967285,131.27617812156677,131.426100730896,131.426100730896,131.426100730896,131.426100730896,131.426100730896,131.426100730896,131.426100730896,131.97713160514832,2,0.6837520599365234,None,,,,,,,,,,,,,,,,,,188,3,2025-03-04_14h48.54.362,comp,2024.2.4,60.074995201796675,2025-03-04 14h49.01.200734 -0500,
93,93,0,catch,None,None,None,None,None,None,None,None,None,None,2,0.7920784950256348,None,,,,,0,0,0,0,0,93,93,124,131.9926197528839,,,,,,,,,,,,,,,,,,,,,,,,,,,,,,,,,,,,,,,,,,,,,,,,,,,,,,,,,,,,,,,,,,,,,,,,,,,,,,,,,129,61,142,183,98,92,3.0,3.1,-218,263,0,0,234,-283,131.9781892299652,131.97822904586792,131.98034000396729,131.9926197528839,132.1428370475769,132.1428370475769,132.1428370475769,132.1428370475769,132.1428370475769,132.1428370475769,132.1428370475769,132.79400277137756,2,0.7920784950256348,None,,,,,,,,,,,,,,,,,,188,3,2025-03-04_14h48.54.362,comp,2024.2.4,60.074995201796675,2025-03-04 14h49.01.200734 -0500,
94,94,0,critical,whd,20.0,4.0,upper,125.0,200.0,200.0,125.0,141.0,141.0,1,1.5917153358459473,None,,,,,0,0,0,0,0,94,94,95,132.80954122543335,,,,,,,,,,,,,,,,,,,,,,,,,,,,,,,,,,,,,,,,,,,,,,,,,,,,,,,,,,,,,,,,,,,,,,,,,,,,,,,,,125.0,200.0,200.0,125.0,141.0,141.0,4.0,4.1,-258,-290,0,-20,229,-259,132.7948260307312,132.79486799240112,132.79724597930908,132.80954122543335,132.96009016036987,132.96009016036987,132.96009016036987,132.96009016036987,132.96009016036987,132.96009016036987,132.96009016036987,134.41075158119202,1,1.5917153358459473,None,,,,,,,,,,,,,,,,,,188,3,2025-03-04_14h48.54.362,comp,2024.2.4,60.074995201796675,2025-03-04 14h49.01.200734 -0500,
95,95,0,critical,wdh,35.0,2.1,upper,125.0,200.0,127.0,127.0,200.0,125.0,1,1.1173229217529297,None,,,,,0,0,0,0,0,95,95,33,134.42619514465332,,,,,,,,,,,,,,,,,,,,,,,,,,,,,,,,,,,,,,,,,,,,,,,,,,,,,,,,,,,,,,,,,,,,,,,,,,,,,,,,,125.0,200.0,127.0,127.0,200.0,125.0,2.1,2.12,-260,-263,0,-257,222,273,134.41154789924622,134.41158747673035,134.41406154632568,134.42619514465332,134.57619428634644,134.57619428634644,134.57619428634644,134.57619428634644,134.57619428634644,134.57619428634644,134.57619428634644,135.5606689453125,1,1.1173229217529297,None,,,,,,,,,,,,,,,,,,188,3,2025-03-04_14h48.54.362,comp,2024.2.4,60.074995201796675,2025-03-04 14h49.01.200734 -0500,
96,96,0,critical,hdw,35.0,1.0,upper,200.0,125.0,127.0,127.0,125.0,200.0,3,1.703641653060913,None,,,,,0,0,0,0,0,96,96,109,135.575932264328,,,,,,,,,,,,,,,,,,,,,,,,,,,,,,,,,,,,,,,,,,,,,,,,,,,,,,,,,,,,,,,,,,,,,,,,,,,,,,,,,200.0,125.0,127.0,127.0,125.0,200.0,1.0,1.3,258,-260,480,-258,740,-257,135.56144380569458,135.56148481369019,135.56390357017517,135.575932264328,135.72618889808655,135.72618889808655,135.72618889808655,135.72618889808655,135.72618889808655,135.72618889808655,135.72618889808655,137.2939579486847,3,1.703641653060913,None,,,,,,,,,,,,,,,,,,188,3,2025-03-04_14h48.54.362,comp,2024.2.4,60.074995201796675,2025-03-04 14h49.01.200734 -0500,
97,97,0,filler_random,None,None,None,None,None,None,None,None,None,None,3,1.1703808307647705,None,,,,,0,0,0,0,0,97,97,159,137.3092098236084,,,,,,,,,,,,,,,,,,,,,,,,,,,,,,,,,,,,,,,,,,,,,,,,,,,,,,,,,,,,,,,,,,,,,,,,,,,,,,,,,126.1252302245753,60.87500439771357,80.27807149431953,136.90506274443382,186.6729303911386,82.4811031138374,3.0,3.1,-195,280,0,19,206,-281,137.29484605789185,137.29488444328308,137.29721117019653,137.3092098236084,137.45939707756042,137.45939707756042,137.45939707756042,137.45939707756042,137.45939707756042,137.45939707756042,137.45939707756042,138.4937801361084,3,1.1703808307647705,None,,,,,,,,,,,,,,,,,,188,3,2025-03-04_14h48.54.362,comp,2024.2.4,60.074995201796675,2025-03-04 14h49.01.200734 -0500,
98,98,0,critical,hwd,35.0,2.1,upper,200.0,125.0,125.0,200.0,127.0,127.0,1,0.7868776321411133,None,,,,,0,0,0,0,0,98,98,41,138.50914096832275,,,,,,,,,,,,,,,,,,,,,,,,,,,,,,,,,,,,,,,,,,,,,,,,,,,,,,,,,,,,,,,,,,,,,,,,,,,,,,,,,200.0,125.0,125.0,200.0,127.0,127.0,2.1,2.12,-258,-290,0,-262,260,282,138.4945845603943,138.49462413787842,138.49719309806824,138.50914096832275,138.65959286689758,138.65959286689758,138.65959286689758,138.65959286689758,138.65959286689758,138.65959286689758,138.65959286689758,139.31070613861084,1,0.7868776321411133,None,,,,,,,,,,,,,,,,,,188,3,2025-03-04_14h48.54.362,comp,2024.2.4,60.074995201796675,2025-03-04 14h49.01.200734 -0500,
99,99,0,filler_square,None,None,None,None,None,None,None,None,None,None,1,0.7056400775909424,None,,,,,0,0,0,0,0,99,99,181,139.32591843605042,,,,,,,,,,,,,,,,,,,,,,,,,,,,,,,,,,,,,,,,,,,,,,,,,,,,,,,,,,,,,,,,,,,,,,,,,,,,,,,,,170.99721512495574,170.99721512495574,95.03752009082216,130.0112440735806,69.51173346918003,158.27511401425556,2.1,2.11,-247,276,0,289,240,-275,139.31167435646057,139.31171655654907,139.31383109092712,139.32591843605042,139.47622752189636,139.47622752189636,139.47622752189636,139.47622752189636,139.47622752189636,139.47622752189636,139.47622752189636,140.04407000541687,1,0.7056400775909424,None,,,,,,,,,,,,,,,,,,188,3,2025-03-04_14h48.54.362,comp,2024.2.4,60.074995201796675,2025-03-04 14h49.01.200734 -0500,
100,100,0,critical,dhw,35.0,2.1,upper,127.0,127.0,200.0,125.0,125.0,200.0,3,0.9251651763916016,None,,,,,0,0,0,0,0,100,100,25,140.05927276611328,,,,,,,,,,,,,,,,,,,,,,,,,,,,,,,,,,,,,,,,,,,,,,,,,,,,,,,,,,,,,,,,,,,,,,,,,,,,,,,,,127.0,127.0,200.0,125.0,125.0,200.0,2.1,2.11,-222,260,0,287,258,-254,140.04485321044922,140.04489398002625,140.04697179794312,140.05927276611328,140.20962476730347,140.20962476730347,140.20962476730347,140.20962476730347,140.20962476730347,140.20962476730347,140.20962476730347,140.9940583705902,3,0.9251651763916016,None,,,,,,,,,,,,,,,,,,188,3,2025-03-04_14h48.54.362,comp,2024.2.4,60.074995201796675,2025-03-04 14h49.01.200734 -0500,
101,101,0,filler_random,None,None,None,None,None,None,None,None,None,None,2,1.3108799457550049,None,,,,,0,0,0,0,0,101,101,162,141.0095133781433,,,,,,,,,,,,,,,,,,,,,,,,,,,,,,,,,,,,,,,,,,,,,,,,,,,,,,,,,,,,,,,,,,,,,,,,,,,,,,,,,154.8011492646503,75.56301825213751,198.62516987683003,159.7505891024539,122.84126420109826,63.836857249842275,4.0,4.1,-214,-266,0,6,208,-253,140.99491548538208,140.99495482444763,140.9972426891327,141.0095133781433,141.15949034690857,141.15949034690857,141.15949034690857,141.15949034690857,141.15949034690857,141.15949034690857,141.15949034690857,142.32724046707153,2,1.3108799457550049,None,,,,,,,,,,,,,,,,,,188,3,2025-03-04_14h48.54.362,comp,2024.2.4,60.074995201796675,2025-03-04 14h49.01.200734 -0500,
102,102,0,filler_square,None,None,None,None,None,None,None,None,None,None,3,1.466597080230713,None,,,,,0,0,0,0,0,102,102,208,142.34278988838196,,,,,,,,,,,,,,,,,,,,,,,,,,,,,,,,,,,,,,,,,,,,,,,,,,,,,,,,,,,,,,,,,,,,,,,,,,,,,,,,,77.4188277725097,73.1125632344629,73.07768832184723,60.15942212064194,87.65462566697312,87.65462566697312,2.1,2.11,-163,266,0,285,170,-264,142.32821989059448,142.3282594680786,142.33040404319763,142.34278988838196,142.49265050888062,142.49265050888062,142.49265050888062,142.49265050888062,142.49265050888062,142.49265050888062,142.49265050888062,143.8270983695984,3,1.466597080230713,None,,,,,,,,,,,,,,,,,,188,3,2025-03-04_14h48.54.362,comp,2024.2.4,60.074995201796675,2025-03-04 14h49.01.200734 -0500,
103,103,0,critical,whd,20.0,1.0,lower,57.0,133.0,133.0,57.0,78.0,78.0,2,0.8306734561920166,None,,,,,0,0,0,0,0,103,103,90,143.84248208999634,,,,,,,,,,,,,,,,,,,,,,,,,,,,,,,,,,,,,,,,,,,,,,,,,,,,,,,,,,,,,,,,,,,,,,,,,,,,,,,,,57.0,133.0,133.0,57.0,78.0,78.0,1.0,1.3,289,-286,480,-259,644,-256,143.82791376113892,143.82795333862305,143.8303258419037,143.84248208999634,143.99286246299744,143.99286246299744,143.99286246299744,143.99286246299744,143.99286246299744,143.99286246299744,143.99286246299744,144.67712950706482,2,0.8306734561920166,None,,,,,,,,,,,,,,,,,,188,3,2025-03-04_14h48.54.362,comp,2024.2.4,60.074995201796675,2025-03-04 14h49.01.200734 -0500,
104,104,0,critical,hwd,35.0,1.0,upper,200.0,125.0,125.0,200.0,127.0,127.0,1,1.1002109050750732,None,,,,,0,0,0,0,0,104,104,97,144.6928689479828,,,,,,,,,,,,,,,,,,,,,,,,,,,,,,,,,,,,,,,,,,,,,,,,,,,,,,,,,,,,,,,,,,,,,,,,,,,,,,,,,200.0,125.0,125.0,200.0,127.0,127.0,1.0,1.1,-738,254,-480,273,-220,271,144.67790818214417,144.6779477596283,144.68006563186646,144.6928689479828,144.84315752983093,144.84315752983093,144.84315752983093,144.84315752983093,144.84315752983093,144.84315752983093,144.84315752983093,145.81069111824036,1,1.1002109050750732,None,,,,,,,,,,,,,,,,,,188,3,2025-03-04_14h48.54.362,comp,2024.2.4,60.074995201796675,2025-03-04 14h49.01.200734 -0500,
105,105,0,filler_square,None,None,None,None,None,None,None,None,None,None,2,0.6214809417724609,None,,,,,0,0,0,0,0,105,105,209,145.82588863372803,,,,,,,,,,,,,,,,,,,,,,,,,,,,,,,,,,,,,,,,,,,,,,,,,,,,,,,,,,,,,,,,,,,,,,,,,,,,,,,,,67.89224355545134,84.05278888968861,166.79656791576826,166.79656791576826,68.74936116780354,153.0418781083709,3.0,3.2,-221,-277,0,20,256,268,145.8116569519043,145.81169748306274,145.81431579589844,145.82588863372803,145.97618627548218,145.97618627548218,145.97618627548218,145.97618627548218,145.97618627548218,145.97618627548218,145.97618627548218,146.4604194164276,2,0.6214809417724609,None,,,,,,,,,,,,,,,,,,188,3,2025-03-04_14h48.54.362,comp,2024.2.4,60.074995201796675,2025-03-04 14h49.01.200734 -0500,
106,106,0,critical,hdw,35.0,1.0,lower,133.0,57.0,70.0,70.0,57.0,133.0,3,0.9501259326934814,None,,,,,0,0,0,0,0,106,106,108,146.47577381134033,,,,,,,,,,,,,,,,,,,,,,,,,,,,,,,,,,,,,,,,,,,,,,,,,,,,,,,,,,,,,,,,,,,,,,,,,,,,,,,,,133.0,57.0,70.0,70.0,57.0,133.0,1.0,1.1,-640,255,-480,288,-282,270,146.4611930847168,146.46123242378235,146.46362781524658,146.47577381134033,146.6260280609131,146.6260280609131,146.6260280609131,146.6260280609131,146.6260280609131,146.6260280609131,146.6260280609131,147.4437234401703,3,0.9501259326934814,None,,,,,,,,,,,,,,,,,,188,3,2025-03-04_14h48.54.362,comp,2024.2.4,60.074995201796675,2025-03-04 14h49.01.200734 -0500,
107,107,0,critical,whd,20.0,1.0,upper,125.0,200.0,200.0,125.0,141.0,141.0,2,0.6771786212921143,None,,,,,0,0,0,0,0,107,107,91,147.4591782093048,,,,,,,,,,,,,,,,,,,,,,,,,,,,,,,,,,,,,,,,,,,,,,,,,,,,,,,,,,,,,,,,,,,,,,,,,,,,,,,,,125.0,200.0,200.0,125.0,141.0,141.0,1.0,1.2,-258,3,0,-18,229,-9,147.44450449943542,147.44454503059387,147.44705367088318,147.4591782093048,147.6094777584076,147.6094777584076,147.6094777584076,147.6094777584076,147.6094777584076,147.6094777584076,147.6094777584076,148.14390516281128,2,0.6771786212921143,None,,,,,,,,,,,,,,,,,,188,3,2025-03-04_14h48.54.362,comp,2024.2.4,60.074995201796675,2025-03-04 14h49.01.200734 -0500,
108,108,0,critical,wdh,20.0,2.1,upper,125.0,200.0,141.0,141.0,200.0,125.0,1,0.9522945880889893,None,,,,,0,0,0,0,0,108,108,35,148.15931916236877,,,,,,,,,,,,,,,,,,,,,,,,,,,,,,,,,,,,,,,,,,,,,,,,,,,,,,,,,,,,,,,,,,,,,,,,,,,,,,,,,125.0,200.0,141.0,141.0,200.0,125.0,2.1,2.12,-266,-252,0,-275,229,255,148.1447103023529,148.14475202560425,148.1473093032837,148.15931916236877,148.30944871902466,148.30944871902466,148.30944871902466,148.30944871902466,148.30944871902466,148.30944871902466,148.30944871902466,149.1271641254425,1,0.9522945880889893,None,,,,,,,,,,,,,,,,,,188,3,2025-03-04_14h48.54.362,comp,2024.2.4,60.074995201796675,2025-03-04 14h49.01.200734 -0500,
109,109,0,critical,dhw,35.0,2.1,lower,70.0,70.0,133.0,57.0,57.0,133.0,2,0.9154253005981445,None,,,,,0,0,0,0,0,109,109,24,149.14247488975525,,,,,,,,,,,,,,,,,,,,,,,,,,,,,,,,,,,,,,,,,,,,,,,,,,,,,,,,,,,,,,,,,,,,,,,,,,,,,,,,,70.0,70.0,133.0,57.0,57.0,133.0,2.1,2.11,-160,284,0,268,191,-269,149.12792563438416,149.1279640197754,149.13004899024963,149.14247488975525,149.2925317287445,149.2925317287445,149.2925317287445,149.2925317287445,149.2925317287445,149.2925317287445,149.2925317287445,150.06063985824585,2,0.9154253005981445,None,,,,,,,,,,,,,,,,,,188,3,2025-03-04_14h48.54.362,comp,2024.2.4,60.074995201796675,2025-03-04 14h49.01.200734 -0500,
110,110,0,filler_random,None,None,None,None,None,None,None,None,None,None,3,0.7878551483154297,None,,,,,0,0,0,0,0,110,110,161,150.0760600566864,,,,,,,,,,,,,,,,,,,,,,,,,,,,,,,,,,,,,,,,,,,,,,,,,,,,,,,,,,,,,,,,,,,,,,,,,,,,,,,,,138.19807520210728,111.20581370997596,147.58788338684946,93.42759726376528,131.78291665419601,177.03149266505596,4.0,4.1,-198,-284,0,9,231,-276,150.06165671348572,150.06169724464417,150.0643765926361,150.0760600566864,150.22610640525818,150.22610640525818,150.22610640525818,150.22610640525818,150.22610640525818,150.22610640525818,150.22610640525818,150.87720704078674,3,0.7878551483154297,None,,,,,,,,,,,,,,,,,,188,3,2025-03-04_14h48.54.362,comp,2024.2.4,60.074995201796675,2025-03-04 14h49.01.200734 -0500,
111,111,0,filler_square,None,None,None,None,None,None,None,None,None,None,3,0.9657576084136963,None,,,,,0,0,0,0,0,111,111,180,150.89264392852783,,,,,,,,,,,,,,,,,,,,,,,,,,,,,,,,,,,,,,,,,,,,,,,,,,,,,,,,,,,,,,,,,,,,,,,,,,,,,,,,,68.23498102917097,88.30352877102874,115.36398614525649,140.42394860791373,146.10506430060974,146.10506430060974,2.2,2.21,-210,-256,0,250,239,262,150.87818360328674,150.87822484970093,150.88150787353516,150.89264392852783,151.0427439212799,151.0427439212799,151.0427439212799,151.0427439212799,151.0427439212799,151.0427439212799,151.0427439212799,151.8606984615326,3,0.9657576084136963,None,,,,,,,,,,,,,,,,,,188,3,2025-03-04_14h48.54.362,comp,2024.2.4,60.074995201796675,2025-03-04 14h49.01.200734 -0500,
112,112,0,filler_random,None,None,None,None,None,None,None,None,None,None,3,1.0194683074951172,None,,,,,0,0,0,0,0,112,112,167,151.87609457969666,,,,,,,,,,,,,,,,,,,,,,,,,,,,,,,,,,,,,,,,,,,,,,,,,,,,,,,,,,,,,,,,,,,,,,,,,,,,,,,,,179.60273209852403,72.0821782969548,62.398314729759036,181.77521409749392,129.80798658442825,163.11560177027116,1.0,1.3,257,-278,480,-272,748,-283,151.8616704940796,151.86171007156372,151.86437940597534,151.87609457969666,152.02608489990234,152.02608489990234,152.02608489990234,152.02608489990234,152.02608489990234,152.02608489990234,152.02608489990234,152.9107985496521,3,1.0194683074951172,None,,,,,,,,,,,,,,,,,,188,3,2025-03-04_14h48.54.362,comp,2024.2.4,60.074995201796675,2025-03-04 14h49.01.200734 -0500,
113,113,0,filler_random,None,None,None,None,None,None,None,None,None,None,1,0.9536933898925781,None,,,,,0,0,0,0,0,113,113,146,152.92587566375732,,,,,,,,,,,,,,,,,,,,,,,,,,,,,,,,,,,,,,,,,,,,,,,,,,,,,,,,,,,,,,,,,,,,,,,,,,,,,,,,,161.26189488717205,189.772084531335,183.8009630349702,120.09162800299904,163.0524004364541,88.51476928299677,3.0,3.2,-251,-273,0,17,200,272,152.91169261932373,152.9117465019226,152.91429686546326,152.92587566375732,153.0763282775879,153.0763282775879,153.0763282775879,153.0763282775879,153.0763282775879,153.0763282775879,153.0763282775879,153.89393281936646,1,0.9536933898925781,None,,,,,,,,,,,,,,,,,,188,3,2025-03-04_14h48.54.362,comp,2024.2.4,60.074995201796675,2025-03-04 14h49.01.200734 -0500,
114,114,0,filler_random,None,None,None,None,None,None,None,None,None,None,2,0.7061464786529541,None,,,,,0,0,0,0,0,114,114,147,153.90911436080933,,,,,,,,,,,,,,,,,,,,,,,,,,,,,,,,,,,,,,,,,,,,,,,,,,,,,,,,,,,,,,,,,,,,,,,,,,,,,,,,,62.58717527557396,172.63419591895513,156.87232369401517,138.5581125952994,168.82966739162154,115.14622122046212,2.1,2.11,-252,275,0,261,223,-266,153.89484763145447,153.89488911628723,153.89758467674255,153.90911436080933,154.05989336967468,154.05989336967468,154.05989336967468,154.05989336967468,154.05989336967468,154.05989336967468,154.05989336967468,154.6275773048401,2,0.7061464786529541,None,,,,,,,,,,,,,,,,,,188,3,2025-03-04_14h48.54.362,comp,2024.2.4,60.074995201796675,2025-03-04 14h49.01.200734 -0500,
115,115,0,critical,hwd,20.0,4.0,upper,200.0,125.0,125.0,200.0,141.0,141.0,2,1.2214486598968506,None,,,,,0,0,0,0,0,115,115,107,154.64242506027222,,,,,,,,,,,,,,,,,,,,,,,,,,,,,,,,,,,,,,,,,,,,,,,,,,,,,,,,,,,,,,,,,,,,,,,,,,,,,,,,,200.0,125.0,125.0,200.0,141.0,141.0,4.0,4.1,-258,-262,0,11,266,-253,154.62834525108337,154.62838411331177,154.63076829910278,154.64242506027222,154.79293942451477,154.79293942451477,154.79293942451477,154.79293942451477,154.79293942451477,154.79293942451477,154.79293942451477,155.87720370292664,2,1.2214486598968506,None,,,,,,,,,,,,,,,,,,188,3,2025-03-04_14h48.54.362,comp,2024.2.4,60.074995201796675,2025-03-04 14h49.01.200734 -0500,
116,116,0,filler_square,None,None,None,None,None,None,None,None,None,None,2,0.5868699550628662,None,,,,,0,0,0,0,0,116,116,193,155.89259004592896,,,,,,,,,,,,,,,,,,,,,,,,,,,,,,,,,,,,,,,,,,,,,,,,,,,,,,,,,,,,,,,,,,,,,,,,,,,,,,,,,68.75774759482465,75.01759200438815,118.2428316219899,118.2428316219899,77.98003640752475,83.73824227889217,2.1,2.11,-193,283,0,284,197,-260,155.87818098068237,155.87822270393372,155.88147807121277,155.89259004592896,156.04250264167786,156.04250264167786,156.04250264167786,156.04250264167786,156.04250264167786,156.04250264167786,156.04250264167786,156.4936044216156,2,0.5868699550628662,None,,,,,,,,,,,,,,,,,,188,3,2025-03-04_14h48.54.362,comp,2024.2.4,60.074995201796675,2025-03-04 14h49.01.200734 -0500,
117,117,0,filler_random,None,None,None,None,None,None,None,None,None,None,3,0.7382421493530273,None,,,,,0,0,0,0,0,117,117,142,156.50908708572388,,,,,,,,,,,,,,,,,,,,,,,,,,,,,,,,,,,,,,,,,,,,,,,,,,,,,,,,,,,,,,,,,,,,,,,,,,,,,,,,,66.48277245921739,81.34895860791869,179.50147964789738,74.84843049695323,86.6691912967261,147.07700066072613,3.0,3.2,-174,-252,0,19,207,259,156.49473071098328,156.494770526886,156.49729800224304,156.50908708572388,156.6592469215393,156.6592469215393,156.6592469215393,156.6592469215393,156.6592469215393,156.6592469215393,156.6592469215393,157.26067519187927,3,0.7382421493530273,None,,,,,,,,,,,,,,,,,,188,3,2025-03-04_14h48.54.362,comp,2024.2.4,60.074995201796675,2025-03-04 14h49.01.200734 -0500,
118,118,0,filler_random,None,None,None,None,None,None,None,None,None,None,2,1.1818273067474365,None,,,,,0,0,0,0,0,118,118,148,157.27609014511108,,,,,,,,,,,,,,,,,,,,,,,,,,,,,,,,,,,,,,,,,,,,,,,,,,,,,,,,,,,,,,,,,,,,,,,,,,,,,,,,,198.77757676371147,58.11339893729533,109.54860508940666,150.96738441582335,79.70553224990547,110.68952464710819,2.2,2.22,-201,279,0,-270,227,-260,157.26175570487976,157.2617952823639,157.26393628120422,157.27609014511108,157.42603516578674,157.42603516578674,157.42603516578674,157.42603516578674,157.42603516578674,157.42603516578674,157.42603516578674,158.46065425872803,2,1.1818273067474365,None,,,,,,,,,,,,,,,,,,188,3,2025-03-04_14h48.54.362,comp,2024.2.4,60.074995201796675,2025-03-04 14h49.01.200734 -0500,
119,119,0,critical,dhw,20.0,3.0,upper,141.0,141.0,200.0,125.0,125.0,200.0,3,0.8763093948364258,None,,,,,0,0,0,0,0,119,119,57,158.4760582447052,,,,,,,,,,,,,,,,,,,,,,,,,,,,,,,,,,,,,,,,,,,,,,,,,,,,,,,,,,,,,,,,,,,,,,,,,,,,,,,,,141.0,141.0,200.0,125.0,125.0,200.0,3.0,3.2,-229,-280,0,6,258,287,158.46155214309692,158.46159172058105,158.4642128944397,158.4760582447052,158.62604188919067,158.62604188919067,158.62604188919067,158.62604188919067,158.62604188919067,158.62604188919067,158.62604188919067,159.36058974266052,3,0.8763093948364258,None,,,,,,,,,,,,,,,,,,188,3,2025-03-04_14h48.54.362,comp,2024.2.4,60.074995201796675,2025-03-04 14h49.01.200734 -0500,
120,120,0,filler_square,None,None,None,None,None,None,None,None,None,None,2,0.8249855041503906,None,,,,,0,0,0,0,0,120,120,198,159.3759000301361,,,,,,,,,,,,,,,,,,,,,,,,,,,,,,,,,,,,,,,,,,,,,,,,,,,,,,,,,,,,,,,,,,,,,,,,,,,,,,,,,161.98535199729037,123.24927089665928,84.77723989466747,153.18038642800582,176.44305577064574,176.44305577064574,2.2,2.21,-234,-261,0,273,261,264,159.36158418655396,159.36164045333862,159.36373043060303,159.3759000301361,159.52639770507812,159.52639770507812,159.52639770507812,159.52639770507812,159.52639770507812,159.52639770507812,159.52639770507812,160.21066999435425,2,0.8249855041503906,None,,,,,,,,,,,,,,,,,,188,3,2025-03-04_14h48.54.362,comp,2024.2.4,60.074995201796675,2025-03-04 14h49.01.200734 -0500,
121,121,0,filler_square,None,None,None,None,None,None,None,None,None,None,1,0.9499273300170898,None,,,,,0,0,0,0,0,121,121,195,160.2261610031128,,,,,,,,,,,,,,,,,,,,,,,,,,,,,,,,,,,,,,,,,,,,,,,,,,,,,,,,,,,,,,,,,,,,,,,,,,,,,,,,,87.29529461986104,87.29529461986104,61.959783948657645,78.27317809099917,67.77018889586844,74.43650402885527,3.0,3.2,-179,-269,0,-17,172,284,160.21164178848267,160.21168303489685,160.21417117118835,160.2261610031128,160.3757061958313,160.3757061958313,160.3757061958313,160.3757061958313,160.3757061958313,160.3757061958313,160.3757061958313,161.1936616897583,1,0.9499273300170898,None,,,,,,,,,,,,,,,,,,188,3,2025-03-04_14h48.54.362,comp,2024.2.4,60.074995201796675,2025-03-04 14h49.01.200734 -0500,
122,122,0,critical,hwd,35.0,2.1,upper,200.0,125.0,125.0,200.0,127.0,127.0,2,0.8546104431152344,None,,,,,0,0,0,0,0,122,122,17,161.20900201797485,,,,,,,,,,,,,,,,,,,,,,,,,,,,,,,,,,,,,,,,,,,,,,,,,,,,,,,,,,,,,,,,,,,,,,,,,,,,,,,,,200.0,125.0,125.0,200.0,127.0,127.0,2.1,2.11,-258,256,0,282,260,-289,161.19445705413818,161.1944978237152,161.1970031261444,161.20900201797485,161.35963106155396,161.35963106155396,161.35963106155396,161.35963106155396,161.35963106155396,161.35963106155396,161.35963106155396,162.07729697227478,2,0.8546104431152344,None,,,,,,,,,,,,,,,,,,188,3,2025-03-04_14h48.54.362,comp,2024.2.4,60.074995201796675,2025-03-04 14h49.01.200734 -0500,
123,123,0,filler_random,None,None,None,None,None,None,None,None,None,None,2,1.8597853183746338,None,,,,,0,0,0,0,0,123,123,150,162.09242224693298,,,,,,,,,,,,,,,,,,,,,,,,,,,,,,,,,,,,,,,,,,,,,,,,,,,,,,,,,,,,,,,,,,,,,,,,,,,,,,,,,63.344852005483745,146.45113801701837,93.53590965566389,174.4575207621663,180.26478263697678,102.46834002211682,2.1,2.12,-256,-285,0,-285,234,285,162.07821583747864,162.07825684547424,162.08036851882935,162.09242224693298,162.24259305000305,162.24259305000305,162.24259305000305,162.24259305000305,162.24259305000305,162.24259305000305,162.24259305000305,163.9606339931488,2,1.8597853183746338,None,,,,,,,,,,,,,,,,,,188,3,2025-03-04_14h48.54.362,comp,2024.2.4,60.074995201796675,2025-03-04 14h49.01.200734 -0500,
124,124,0,critical,wdh,20.0,1.0,upper,125.0,200.0,141.0,141.0,200.0,125.0,1,1.3837461471557617,None,,,,,0,0,0,0,0,124,124,79,163.9760627746582,,,,,,,,,,,,,,,,,,,,,,,,,,,,,,,,,,,,,,,,,,,,,,,,,,,,,,,,,,,,,,,,,,,,,,,,,,,,,,,,,125.0,200.0,141.0,141.0,200.0,125.0,1.0,1.2,-266,13,0,-10,229,2,163.96153569221497,163.96157574653625,163.96414399147034,163.9760627746582,164.125958442688,164.125958442688,164.125958442688,164.125958442688,164.125958442688,164.125958442688,164.125958442688,165.37712574005127,1,1.3837461471557617,None,,,,,,,,,,,,,,,,,,188,3,2025-03-04_14h48.54.362,comp,2024.2.4,60.074995201796675,2025-03-04 14h49.01.200734 -0500,
125,125,0,filler_random,None,None,None,None,None,None,None,None,None,None,1,1.000396728515625,None,,,,,0,0,0,0,0,125,125,130,165.3923590183258,,,,,,,,,,,,,,,,,,,,,,,,,,,,,,,,,,,,,,,,,,,,,,,,,,,,,,,,,,,,,,,,,,,,,,,,,,,,,,,,,156.79912570751418,116.30468902526351,61.802481774799254,156.56624319192372,79.68543430627211,169.2355499259176,1.0,1.3,248,-282,480,-281,739,-286,165.37803530693054,165.37807512283325,165.38043594360352,165.3923590183258,165.54258513450623,165.54258513450623,165.54258513450623,165.54258513450623,165.54258513450623,165.54258513450623,165.54258513450623,166.41039633750916,1,1.000396728515625,None,,,,,,,,,,,,,,,,,,188,3,2025-03-04_14h48.54.362,comp,2024.2.4,60.074995201796675,2025-03-04 14h49.01.200734 -0500,
126,126,0,critical,whd,35.0,3.0,upper,125.0,200.0,200.0,125.0,127.0,127.0,2,0.7747817039489746,None,,,,,0,0,0,0,0,126,126,87,166.425856590271,,,,,,,,,,,,,,,,,,,,,,,,,,,,,,,,,,,,,,,,,,,,,,,,,,,,,,,,,,,,,,,,,,,,,,,,,,,,,,,,,125.0,200.0,200.0,125.0,127.0,127.0,3.0,3.2,-258,-273,0,18,222,266,166.41119241714478,166.41123342514038,166.41456842422485,166.425856590271,166.5760052204132,166.5760052204132,166.5760052204132,166.5760052204132,166.5760052204132,166.5760052204132,166.5760052204132,167.21067190170288,2,0.7747817039489746,None,,,,,,,,,,,,,,,,,,188,3,2025-03-04_14h48.54.362,comp,2024.2.4,60.074995201796675,2025-03-04 14h49.01.200734 -0500,
127,127,0,critical,wdh,20.0,4.0,lower,57.0,133.0,78.0,78.0,133.0,57.0,1,1.8053302764892578,None,,,,,0,0,0,0,0,127,127,82,167.22595977783203,,,,,,,,,,,,,,,,,,,,,,,,,,,,,,,,,,,,,,,,,,,,,,,,,,,,,,,,,,,,,,,,,,,,,,,,,,,,,,,,,57.0,133.0,78.0,78.0,133.0,57.0,4.0,4.2,-202,19,0,-271,164,-15,167.21143794059753,167.21147847175598,167.2138602733612,167.22595977783203,167.37583017349243,167.37583017349243,167.37583017349243,167.37583017349243,167.37583017349243,167.37583017349243,167.37583017349243,169.04390382766724,1,1.8053302764892578,None,,,,,,,,,,,,,,,,,,188,3,2025-03-04_14h48.54.362,comp,2024.2.4,60.074995201796675,2025-03-04 14h49.01.200734 -0500,
128,128,0,filler_square,None,None,None,None,None,None,None,None,None,None,3,0.7508084774017334,None,,,,,0,0,0,0,0,128,128,199,169.0590901374817,,,,,,,,,,,,,,,,,,,,,,,,,,,,,,,,,,,,,,,,,,,,,,,,,,,,,,,,,,,,,,,,,,,,,,,,,,,,,,,,,101.0322780220535,83.30221134315082,102.12152612097825,92.1974307123428,111.16140653223553,111.16140653223553,4.0,4.1,-184,-280,0,-9,198,-260,169.04487013816833,169.0449104309082,169.04759645462036,169.0590901374817,169.20918369293213,169.20918369293213,169.20918369293213,169.20918369293213,169.20918369293213,169.20918369293213,169.20918369293213,169.8268563747406,3,0.7508084774017334,None,,,,,,,,,,,,,,,,,,188,3,2025-03-04_14h48.54.362,comp,2024.2.4,60.074995201796675,2025-03-04 14h49.01.200734 -0500,
129,129,0,critical,hdw,20.0,2.1,upper,200.0,125.0,141.0,141.0,125.0,200.0,3,1.0155842304229736,None,,,,,0,0,0,0,0,129,129,47,169.84233045578003,,,,,,,,,,,,,,,,,,,,,,,,,,,,,,,,,,,,,,,,,,,,,,,,,,,,,,,,,,,,,,,,,,,,,,,,,,,,,,,,,200.0,125.0,141.0,141.0,125.0,200.0,2.1,2.12,-229,-272,0,-278,266,287,169.82763862609863,169.8276767730713,169.8305640220642,169.84233045578003,169.9926233291626,169.9926233291626,169.9926233291626,169.9926233291626,169.9926233291626,169.9926233291626,169.9926233291626,170.86064100265503,3,1.0155842304229736,None,,,,,,,,,,,,,,,,,,188,3,2025-03-04_14h48.54.362,comp,2024.2.4,60.074995201796675,2025-03-04 14h49.01.200734 -0500,
130,130,0,critical,wdh,35.0,3.0,lower,57.0,133.0,70.0,70.0,133.0,57.0,3,0.782158613204956,None,,,,,0,0,0,0,0,130,130,74,170.87598156929016,,,,,,,,,,,,,,,,,,,,,,,,,,,,,,,,,,,,,,,,,,,,,,,,,,,,,,,,,,,,,,,,,,,,,,,,,,,,,,,,,57.0,133.0,70.0,70.0,133.0,57.0,3.0,3.2,-198,-263,0,-19,160,264,170.86144137382507,170.861483335495,170.86410641670227,170.87598156929016,171.0257956981659,171.0257956981659,171.0257956981659,171.0257956981659,171.0257956981659,171.0257956981659,171.0257956981659,171.66034960746765,3,0.782158613204956,None,,,,,,,,,,,,,,,,,,188,3,2025-03-04_14h48.54.362,comp,2024.2.4,60.074995201796675,2025-03-04 14h49.01.200734 -0500,
131,131,0,filler_square,None,None,None,None,None,None,None,None,None,None,2,0.6922693252563477,None,,,,,0,0,0,0,0,131,131,188,171.67585372924805,,,,,,,,,,,,,,,,,,,,,,,,,,,,,,,,,,,,,,,,,,,,,,,,,,,,,,,,,,,,,,,,,,,,,,,,,,,,,,,,,79.49728555477772,77.44295766180565,110.05396511803124,110.05396511803124,78.22159872326458,60.685250089131365,2.1,2.12,-190,-268,0,-261,181,250,171.66127920150757,171.6613199710846,171.66392421722412,171.67585372924805,171.82569861412048,171.82569861412048,171.82569861412048,171.82569861412048,171.82569861412048,171.82569861412048,171.82569861412048,172.3768608570099,2,0.6922693252563477,None,,,,,,,,,,,,,,,,,,188,3,2025-03-04_14h48.54.362,comp,2024.2.4,60.074995201796675,2025-03-04 14h49.01.200734 -0500,
132,132,0,critical,dhw,20.0,2.1,lower,78.0,78.0,133.0,57.0,57.0,133.0,3,0.9434835910797119,None,,,,,0,0,0,0,0,132,132,26,172.3926076889038,,,,,,,,,,,,,,,,,,,,,,,,,,,,,,,,,,,,,,,,,,,,,,,,,,,,,,,,,,,,,,,,,,,,,,,,,,,,,,,,,78.0,78.0,133.0,57.0,57.0,133.0,2.1,2.12,-164,-269,0,-254,191,259,172.3776741027832,172.37771582603455,172.38025951385498,172.3926076889038,172.54236102104187,172.54236102104187,172.54236102104187,172.54236102104187,172.54236102104187,172.54236102104187,172.54236102104187,173.34339427947998,3,0.9434835910797119,None,,,,,,,,,,,,,,,,,,188,3,2025-03-04_14h48.54.362,comp,2024.2.4,60.074995201796675,2025-03-04 14h49.01.200734 -0500,
133,133,0,filler_random,None,None,None,None,None,None,None,None,None,None,1,0.73695969581604,None,,,,,0,0,0,0,0,133,133,153,173.3591320514679,,,,,,,,,,,,,,,,,,,,,,,,,,,,,,,,,,,,,,,,,,,,,,,,,,,,,,,,,,,,,,,,,,,,,,,,,,,,,,,,,142.47513270301204,135.9894352267831,78.29188454309912,158.72643140720197,116.66748878050552,76.89354199673556,2.1,2.12,-243,-285,0,-276,214,268,173.34442472457886,173.3444652557373,173.34704208374023,173.3591320514679,173.5091953277588,173.5091953277588,173.5091953277588,173.5091953277588,173.5091953277588,173.5091953277588,173.5091953277588,174.11035084724426,1,0.73695969581604,None,,,,,,,,,,,,,,,,,,188,3,2025-03-04_14h48.54.362,comp,2024.2.4,60.074995201796675,2025-03-04 14h49.01.200734 -0500,
134,134,0,filler_square,None,None,None,None,None,None,None,None,None,None,3,1.442413568496704,None,,,,,0,0,0,0,0,134,134,182,174.1256618499756,,,,,,,,,,,,,,,,,,,,,,,,,,,,,,,,,,,,,,,,,,,,,,,,,,,,,,,,,,,,,,,,,,,,,,,,,,,,,,,,,60.399493879993415,60.399493879993415,57.52951355606599,59.14596450887442,60.04090670077471,58.95444360010014,1.0,1.3,324,-262,480,-254,635,-289,174.11131143569946,174.11135244369507,174.11379265785217,174.1256618499756,174.27575850486755,174.27575850486755,174.27575850486755,174.27575850486755,174.27575850486755,174.27575850486755,174.27575850486755,175.57688283920288,3,1.442413568496704,None,,,,,,,,,,,,,,,,,,188,3,2025-03-04_14h48.54.362,comp,2024.2.4,60.074995201796675,2025-03-04 14h49.01.200734 -0500,
135,135,0,critical,wdh,20.0,2.1,upper,125.0,200.0,141.0,141.0,200.0,125.0,1,1.407897710800171,None,,,,,0,0,0,0,0,135,135,11,175.5926160812378,,,,,,,,,,,,,,,,,,,,,,,,,,,,,,,,,,,,,,,,,,,,,,,,,,,,,,,,,,,,,,,,,,,,,,,,,,,,,,,,,125.0,200.0,141.0,141.0,200.0,125.0,2.1,2.12,-266,-267,0,-271,229,270,175.57770371437073,175.57774376869202,175.58041763305664,175.5926160812378,175.74265241622925,175.74265241622925,175.74265241622925,175.74265241622925,175.74265241622925,175.74265241622925,175.74265241622925,177.01055455207825,1,1.407897710800171,None,,,,,,,,,,,,,,,,,,188,3,2025-03-04_14h48.54.362,comp,2024.2.4,60.074995201796675,2025-03-04 14h49.01.200734 -0500,
136,136,0,critical,hwd,35.0,3.0,upper,200.0,125.0,125.0,200.0,127.0,127.0,2,0.837738037109375,None,,,,,0,0,0,0,0,136,136,99,177.02596306800842,,,,,,,,,,,,,,,,,,,,,,,,,,,,,,,,,,,,,,,,,,,,,,,,,,,,,,,,,,,,,,,,,,,,,,,,,,,,,,,,,200.0,125.0,125.0,200.0,127.0,127.0,3.0,3.2,-258,-284,0,16,260,282,177.0113492012024,177.01138949394226,177.01354098320007,177.02596306800842,177.17607283592224,177.17607283592224,177.17607283592224,177.17607283592224,177.17607283592224,177.17607283592224,177.17607283592224,177.8771312236786,2,0.837738037109375,None,,,,,,,,,,,,,,,,,,188,3,2025-03-04_14h48.54.362,comp,2024.2.4,60.074995201796675,2025-03-04 14h49.01.200734 -0500,
137,137,0,filler_random,None,None,None,None,None,None,None,None,None,None,2,0.6687424182891846,None,,,,,0,0,0,0,0,137,137,158,177.89234614372253,,,,,,,,,,,,,,,,,,,,,,,,,,,,,,,,,,,,,,,,,,,,,,,,,,,,,,,,,,,,,,,,,,,,,,,,,,,,,,,,,171.23140597561746,112.66183368059913,175.38414354790575,170.5980004471457,109.53331023098913,193.01840473053673,2.1,2.11,-238,263,0,280,278,-290,177.87804412841797,177.87808346748352,177.8801941871643,177.89234614372253,178.04271936416626,178.04271936416626,178.04271936416626,178.04271936416626,178.04271936416626,178.04271936416626,178.04271936416626,178.57736134529114,2,0.6687424182891846,None,,,,,,,,,,,,,,,,,,188,3,2025-03-04_14h48.54.362,comp,2024.2.4,60.074995201796675,2025-03-04 14h49.01.200734 -0500,
138,138,0,critical,wdh,35.0,1.0,lower,57.0,133.0,70.0,70.0,133.0,57.0,3,0.9599790573120117,None,,,,,0,0,0,0,0,138,138,72,178.59228467941284,,,,,,,,,,,,,,,,,,,,,,,,,,,,,,,,,,,,,,,,,,,,,,,,,,,,,,,,,,,,,,,,,,,,,,,,,,,,,,,,,57.0,133.0,70.0,70.0,133.0,57.0,1.0,1.2,-198,-18,0,7,160,8,178.57816648483276,178.5782072544098,178.58033847808838,178.59228467941284,178.74254202842712,178.74254202842712,178.74254202842712,178.74254202842712,178.74254202842712,178.74254202842712,178.74254202842712,179.56016039848328,3,0.9599790573120117,None,,,,,,,,,,,,,,,,,,188,3,2025-03-04_14h48.54.362,comp,2024.2.4,60.074995201796675,2025-03-04 14h49.01.200734 -0500,
139,139,0,critical,hdw,20.0,3.0,upper,200.0,125.0,141.0,141.0,125.0,200.0,2,0.7122504711151123,None,,,,,0,0,0,0,0,139,139,117,179.57576894760132,,,,,,,,,,,,,,,,,,,,,,,,,,,,,,,,,,,,,,,,,,,,,,,,,,,,,,,,,,,,,,,,,,,,,,,,,,,,,,,,,200.0,125.0,141.0,141.0,125.0,200.0,3.0,3.2,-229,-274,0,3,266,264,179.56093645095825,179.56097674369812,179.56331062316895,179.57576894760132,179.72593140602112,179.72593140602112,179.72593140602112,179.72593140602112,179.72593140602112,179.72593140602112,179.72593140602112,180.29372572898865,2,0.7122504711151123,None,,,,,,,,,,,,,,,,,,188,3,2025-03-04_14h48.54.362,comp,2024.2.4,60.074995201796675,2025-03-04 14h49.01.200734 -0500,
