thisN,thisTrialN,thisRepN,effect,order,distance,config,diag,h_1,w_1,h_2,w_2,h_3,w_3,rect_choice.keys,rect_choice.rt,rect_choice.duration,instructions_loop.thisRepN,instructions_loop.thisTrialN,instructions_loop.thisN,instructions_loop.thisIndex,blocks.thisRepN,blocks.thisTrialN,blocks.thisN,blocks.thisIndex,trials.thisRepN,trials.thisTrialN,trials.thisN,trials.thisIndex,thisRow.t,notes,consent.started,agree_button.started,decline_button.started,consent_img.started,mouse.started,consent.stopped,agree_button.numClicks,agree_button.timesOn,agree_button.timesOff,decline_button.numClicks,decline_button.timesOn,decline_button.timesOff,mouse.x,mouse.y,mouse.leftButton,mouse.midButton,mouse.rightButton,mouse.time,mouse.clicked_name,exp_params.started,exp_params.stopped,welcome.started,welcome_text.started,welcome.stopped,instructions_1.started,instructions_1_text_1.started,instructions_1_text_2.started,key_resp.started,instructions_1.stopped,instructions_loop.key_resp.keys,instructions_loop.key_resp.rt,instructions_loop.key_resp.duration,instructions_2.started,instructions_2_text_1.started,instructions_2_text_2.started,key_resp_2.started,instructions_2.stopped,instructions_loop.key_resp_2.keys,instructions_loop.key_resp_2.rt,instructions_loop.key_resp_2.duration,instructions_3.started,instructions_3_text_1.started,r1_instr3.started,r2_instr3.started,r3_instr3.started,r1_instr3_label.started,r2_instr3_label.started,r3_instr3_label.started,instructions_3_text_3.started,instructions_3_text_4.started,key_resp_3.started,instructions_3.stopped,instructions_loop.key_resp_3.keys,instructions_loop.key_resp_3.rt,instructions_loop.key_resp_3.duration,instructions_4.started,instructions_4_text_1.started,instructions_4_text_3.started,instructions_4_text_2.started,key_resp_4.started,instructions_4.stopped,instructions_loop.key_resp_4.keys,instructions_loop.key_resp_4.rt,instructions_loop.key_resp_4.duration,instructions_5.started,instructions_5_text_1.started,instructions_5_text_2.started,key_resp_5.started,instructions_5.stopped,instructions_loop.key_resp_5.keys,instructions_loop.key_resp_5.rt,instructions_loop.key_resp_5.duration,start_exp.started,start_exp_text.started,key_resp_6.started,start_exp.stopped,key_resp_6.keys,key_resp_6.rt,key_resp_6.duration,h_1_tmp,w_1_tmp,h_2_tmp,w_2_tmp,h_3_tmp,w_3_tmp,config_tmp,config_tmp_1,r_1_x,r_1_y,r_2_x,r_2_y,r_3_x,r_3_y,pre_trial.started,pre_trial.stopped,choice_trial.started,rect_choice.started,r_1.started,r_2.started,r_3.started,r_1_label.started,r_2_label.started,r_3_label.started,prompt.started,choice_trial.stopped,trials.rect_choice.keys,trials.rect_choice.rt,trials.rect_choice.duration,end_block.started,end_block_text.started,end_block.stopped,end.started,end_text.started,key_resp_7.started,end.stopped,key_resp_7.keys,key_resp_7.rt,key_resp_7.duration,debriefing.started,debrief_form.started,end_debrief.started,debriefing.stopped,end_debrief.keys,end_debrief.rt,end_debrief.duration,participant,computer,date,expName,psychopyVersion,frameRate,expStart,
,,,,,,,,,,,,,,,,,,,,,,,,,,,,,,,0.015099287033081055,0.03875088691711426,0.03875088691711426,0.03875088691711426,0.014902830123901367,8.90574598312378,1,[8.864654064178467],[8.864675998687744],0,,,[-74.0],[-502.0],[1],[0],[0],[8.890063762664795],['agree_button'],,,,,,,,,,,,,,,,,,,,,,,,,,,,,,,,,,,,,,,,,,,,,,,,,,,,,,,,,,,,,,,,,,,,,,,,,,,,,,,,,,,,,,,,,,,,,,,,,,,,,,,,,,,189,1,2025-03-05_11h04.36.812,comp,2024.2.4,56.130538875677324,2025-03-05 11h04.48.264072 -0500,
,,,,,,,,,,,,,,,,,,,,,,,,,,,,,,,,,,,,,,,,,,,,,,,,,,8.906248331069946,8.906344652175903,,,,,,,,,,,,,,,,,,,,,,,,,,,,,,,,,,,,,,,,,,,,,,,,,,,,,,,,,,,,,,,,,,,,,,,,,,,,,,,,,,,,,,,,,,,,,,,,,,,,,,,,,189,1,2025-03-05_11h04.36.812,comp,2024.2.4,56.130538875677324,2025-03-05 11h04.48.264072 -0500,
,,,,,,,,,,,,,,,,,,,,,,,,,,,,,,,,,,,,,,,,,,,,,,,,,,,,8.906391143798828,8.919430017471313,10.906511783599854,,,,,,,,,,,,,,,,,,,,,,,,,,,,,,,,,,,,,,,,,,,,,,,,,,,,,,,,,,,,,,,,,,,,,,,,,,,,,,,,,,,,,,,,,,,,,,,,,,,,,,189,1,2025-03-05_11h04.36.812,comp,2024.2.4,56.130538875677324,2025-03-05 11h04.48.264072 -0500,
0,0,0,,,,,,,,,,,,,,,0,0,0,0,,,,,,,,,10.92302131652832,,,,,,,,,,,,,,,,,,,,,,,,,,10.907410860061646,10.92302131652832,10.92302131652832,12.406907320022583,16.092668056488037,space,3.671060085296631,None,16.092824697494507,16.108184814453125,16.108184814453125,17.59275221824646,23.964563608169556,space,6.3572680950164795,None,23.964725732803345,23.997910976409912,23.997910976409912,23.997910976409912,23.997910976409912,23.997910976409912,23.997910976409912,23.997910976409912,23.997910976409912,23.997910976409912,25.47699737548828,32.378732204437256,space,6.88110089302063,None,32.37890148162842,32.398985624313354,32.398985624313354,32.398985624313354,33.88083791732788,39.34784960746765,space,5.45314359664917,None,39.3480064868927,39.363365650177,39.363365650177,40.850003242492676,42.11749219894409,space,1.251936435699463,None,42.11769676208496,42.13378882408142,42.13378882408142,43.73472738265991,space,1.5842101573944092,None,,,,,,,,,,,,,,,,,,,,,,,,,,,,,,,,,,,,,,,,,,,,,,,189,1,2025-03-05_11h04.36.812,comp,2024.2.4,56.130538875677324,2025-03-05 11h04.48.264072 -0500,
0,0,0,critical,dwh,20.0,3.0,upper,141.0,141.0,125.0,200.0,200.0,125.0,3,8.017889499664307,None,,,,,0,0,0,0,0,0,0,69,43.813376665115356,,,,,,,,,,,,,,,,,,,,,,,,,,,,,,,,,,,,,,,,,,,,,,,,,,,,,,,,,,,,,,,,,,,,,,,,,,,,,,,,,141.0,141.0,125.0,200.0,200.0,125.0,3.0,3.2,-266,-268,0,2,258,260,43.79724884033203,43.79729342460632,43.79860782623291,43.813376665115356,43.95685958862305,43.95685958862305,43.95685958862305,43.95685958862305,43.95685958862305,43.95685958862305,43.95685958862305,51.84004330635071,3,8.017889499664307,None,,,,,,,,,,,,,,,,,,189,1,2025-03-05_11h04.36.812,comp,2024.2.4,56.130538875677324,2025-03-05 11h04.48.264072 -0500,
1,1,0,critical,wdh,20.0,1.0,upper,125.0,200.0,141.0,141.0,200.0,125.0,3,6.844102382659912,None,,,,,0,0,0,0,0,1,1,79,51.85810446739197,,,,,,,,,,,,,,,,,,,,,,,,,,,,,,,,,,,,,,,,,,,,,,,,,,,,,,,,,,,,,,,,,,,,,,,,,,,,,,,,,125.0,200.0,141.0,141.0,200.0,125.0,1.0,1.3,214,-273,480,-263,709,-275,51.8416793346405,51.84175133705139,51.84487819671631,51.85810446739197,52.00931358337402,52.00931358337402,52.00931358337402,52.00931358337402,52.00931358337402,52.00931358337402,52.00931358337402,58.70642948150635,3,6.844102382659912,None,,,,,,,,,,,,,,,,,,189,1,2025-03-05_11h04.36.812,comp,2024.2.4,56.130538875677324,2025-03-05 11h04.48.264072 -0500,
2,2,0,critical,wdh,20.0,2.1,lower,57.0,133.0,78.0,78.0,133.0,57.0,2,10.553914308547974,None,,,,,0,0,0,0,0,2,2,10,58.724109411239624,,,,,,,,,,,,,,,,,,,,,,,,,,,,,,,,,,,,,,,,,,,,,,,,,,,,,,,,,,,,,,,,,,,,,,,,,,,,,,,,,57.0,133.0,78.0,78.0,133.0,57.0,2.1,2.12,-202,-286,0,-273,164,279,58.707967042922974,58.70804524421692,58.711111307144165,58.724109411239624,58.87205624580383,58.87205624580383,58.87205624580383,58.87205624580383,58.87205624580383,58.87205624580383,58.87205624580383,69.29368305206299,2,10.553914308547974,None,,,,,,,,,,,,,,,,,,189,1,2025-03-05_11h04.36.812,comp,2024.2.4,56.130538875677324,2025-03-05 11h04.48.264072 -0500,
3,3,0,critical,hwd,35.0,2.1,upper,200.0,125.0,125.0,200.0,127.0,127.0,2,8.97879433631897,None,,,,,0,0,0,0,0,3,3,41,69.31546783447266,,,,,,,,,,,,,,,,,,,,,,,,,,,,,,,,,,,,,,,,,,,,,,,,,,,,,,,,,,,,,,,,,,,,,,,,,,,,,,,,,200.0,125.0,125.0,200.0,127.0,127.0,2.1,2.12,-258,-287,0,-254,260,274,69.29530763626099,69.29540657997131,69.29878950119019,69.31546783447266,69.45960092544556,69.45960092544556,69.45960092544556,69.45960092544556,69.45960092544556,69.45960092544556,69.45960092544556,78.29775881767273,2,8.97879433631897,None,,,,,,,,,,,,,,,,,,189,1,2025-03-05_11h04.36.812,comp,2024.2.4,56.130538875677324,2025-03-05 11h04.48.264072 -0500,
4,4,0,filler_random,None,None,None,None,None,None,None,None,None,None,2,3.215127944946289,None,,,,,0,0,0,0,0,4,4,142,78.31894493103027,,,,,,,,,,,,,,,,,,,,,,,,,,,,,,,,,,,,,,,,,,,,,,,,,,,,,,,,,,,,,,,,,,,,,,,,,,,,,,,,,153.4583685618779,120.54046157354733,192.44838555660832,137.77200245195607,76.17972414846608,60.50734463311495,1.0,1.2,-225,-12,0,-4,195,-20,78.29976797103882,78.29984903335571,78.30295085906982,78.31894493103027,78.46377420425415,78.46377420425415,78.46377420425415,78.46377420425415,78.46377420425415,78.46377420425415,78.46377420425415,81.54826045036316,2,3.215127944946289,None,,,,,,,,,,,,,,,,,,189,1,2025-03-05_11h04.36.812,comp,2024.2.4,56.130538875677324,2025-03-05 11h04.48.264072 -0500,
5,5,0,critical,dhw,20.0,4.0,upper,141.0,141.0,200.0,125.0,125.0,200.0,3,6.92175555229187,None,,,,,0,0,0,0,0,5,5,59,81.56437468528748,,,,,,,,,,,,,,,,,,,,,,,,,,,,,,,,,,,,,,,,,,,,,,,,,,,,,,,,,,,,,,,,,,,,,,,,,,,,,,,,,141.0,141.0,200.0,125.0,125.0,200.0,4.0,4.2,-229,-3,0,-265,258,-11,81.54978132247925,81.54991149902344,81.55395770072937,81.56437468528748,81.71347260475159,81.71347260475159,81.71347260475159,81.71347260475159,81.71347260475159,81.71347260475159,81.71347260475159,88.49922037124634,3,6.92175555229187,None,,,,,,,,,,,,,,,,,,189,1,2025-03-05_11h04.36.812,comp,2024.2.4,56.130538875677324,2025-03-05 11h04.48.264072 -0500,
6,6,0,critical,whd,35.0,3.0,lower,57.0,133.0,133.0,57.0,70.0,70.0,3,6.0186920166015625,None,,,,,0,0,0,0,0,6,6,86,88.51542353630066,,,,,,,,,,,,,,,,,,,,,,,,,,,,,,,,,,,,,,,,,,,,,,,,,,,,,,,,,,,,,,,,,,,,,,,,,,,,,,,,,57.0,133.0,133.0,57.0,70.0,70.0,3.0,3.2,-191,-269,0,-9,160,283,88.50083518028259,88.50091028213501,88.50419235229492,88.51542353630066,88.66598224639893,88.66598224639893,88.66598224639893,88.66598224639893,88.66598224639893,88.66598224639893,88.66598224639893,94.55108213424683,3,6.0186920166015625,None,,,,,,,,,,,,,,,,,,189,1,2025-03-05_11h04.36.812,comp,2024.2.4,56.130538875677324,2025-03-05 11h04.48.264072 -0500,
7,7,0,critical,hwd,35.0,2.1,lower,133.0,57.0,57.0,133.0,70.0,70.0,1,7.119455099105835,None,,,,,0,0,0,0,0,7,7,40,94.56687521934509,,,,,,,,,,,,,,,,,,,,,,,,,,,,,,,,,,,,,,,,,,,,,,,,,,,,,,,,,,,,,,,,,,,,,,,,,,,,,,,,,133.0,57.0,57.0,133.0,70.0,70.0,2.1,2.12,-191,-288,0,-287,198,288,94.55277109146118,94.55290484428406,94.55646920204163,94.56687521934509,94.71535444259644,94.71535444259644,94.71535444259644,94.71535444259644,94.71535444259644,94.71535444259644,94.71535444259644,101.68897867202759,1,7.119455099105835,None,,,,,,,,,,,,,,,,,,189,1,2025-03-05_11h04.36.812,comp,2024.2.4,56.130538875677324,2025-03-05 11h04.48.264072 -0500,
8,8,0,critical,whd,20.0,3.0,lower,57.0,133.0,133.0,57.0,78.0,78.0,2,8.371293067932129,None,,,,,0,0,0,0,0,8,8,92,101.70699691772461,,,,,,,,,,,,,,,,,,,,,,,,,,,,,,,,,,,,,,,,,,,,,,,,,,,,,,,,,,,,,,,,,,,,,,,,,,,,,,,,,57.0,133.0,133.0,57.0,78.0,78.0,3.0,3.1,-191,262,0,12,164,-252,101.69066953659058,101.69075107574463,101.69386959075928,101.70699691772461,101.8528778553009,101.8528778553009,101.8528778553009,101.8528778553009,101.8528778553009,101.8528778553009,101.8528778553009,110.0931966304779,2,8.371293067932129,None,,,,,,,,,,,,,,,,,,189,1,2025-03-05_11h04.36.812,comp,2024.2.4,56.130538875677324,2025-03-05 11h04.48.264072 -0500,
9,9,0,catch,None,None,None,None,None,None,None,None,None,None,1,2.3772048950195312,None,,,,,0,0,0,0,0,9,9,126,110.10943651199341,,,,,,,,,,,,,,,,,,,,,,,,,,,,,,,,,,,,,,,,,,,,,,,,,,,,,,,,,,,,,,,,,,,,,,,,,,,,,,,,,180,145,127,63,76,114,3.0,3.1,-200,283,0,15,184,-260,110.09523510932922,110.09533882141113,110.09823179244995,110.10943651199341,110.25618529319763,110.25618529319763,110.25618529319763,110.25618529319763,110.25618529319763,110.25618529319763,110.25618529319763,112.49296879768372,1,2.3772048950195312,None,,,,,,,,,,,,,,,,,,189,1,2025-03-05_11h04.36.812,comp,2024.2.4,56.130538875677324,2025-03-05 11h04.48.264072 -0500,
10,10,0,catch,None,None,None,None,None,None,None,None,None,None,3,2.084684133529663,None,,,,,0,0,0,0,0,10,10,120,112.51375842094421,,,,,,,,,,,,,,,,,,,,,,,,,,,,,,,,,,,,,,,,,,,,,,,,,,,,,,,,,,,,,,,,,,,,,,,,,,,,,,,,,131,59,116,74,152,173,4.0,4.2,-162,-16,0,-261,220,-4,112.49549913406372,112.49558401107788,112.49860668182373,112.51375842094421,112.65774178504944,112.65774178504944,112.65774178504944,112.65774178504944,112.65774178504944,112.65774178504944,112.65774178504944,114.60883450508118,3,2.084684133529663,None,,,,,,,,,,,,,,,,,,189,1,2025-03-05_11h04.36.812,comp,2024.2.4,56.130538875677324,2025-03-05 11h04.48.264072 -0500,
11,11,0,filler_random,None,None,None,None,None,None,None,None,None,None,3,5.149863243103027,None,,,,,0,0,0,0,0,11,11,135,114.624831199646,,,,,,,,,,,,,,,,,,,,,,,,,,,,,,,,,,,,,,,,,,,,,,,,,,,,,,,,,,,,,,,,,,,,,,,,,,,,,,,,,131.47199067556167,127.85275614635712,190.56847219795628,78.70082563168202,133.8137673802085,183.7660136021026,2.2,2.22,-199,263,0,-274,227,-264,114.6106116771698,114.61069083213806,114.6136965751648,114.624831199646,114.77913689613342,114.77913689613342,114.77913689613342,114.77913689613342,114.77913689613342,114.77913689613342,114.77913689613342,119.77875113487244,3,5.149863243103027,None,,,,,,,,,,,,,,,,,,189,1,2025-03-05_11h04.36.812,comp,2024.2.4,56.130538875677324,2025-03-05 11h04.48.264072 -0500,
12,12,0,critical,dhw,20.0,1.0,upper,141.0,141.0,200.0,125.0,125.0,200.0,2,5.5863001346588135,None,,,,,0,0,0,0,0,12,12,55,119.7958254814148,,,,,,,,,,,,,,,,,,,,,,,,,,,,,,,,,,,,,,,,,,,,,,,,,,,,,,,,,,,,,,,,,,,,,,,,,,,,,,,,,141.0,141.0,200.0,125.0,125.0,200.0,1.0,1.3,251,-264,480,-269,738,-285,119.78093767166138,119.78101897239685,119.78453516960144,119.7958254814148,119.9399938583374,119.9399938583374,119.9399938583374,119.9399938583374,119.9399938583374,119.9399938583374,119.9399938583374,125.39677667617798,2,5.5863001346588135,None,,,,,,,,,,,,,,,,,,189,1,2025-03-05_11h04.36.812,comp,2024.2.4,56.130538875677324,2025-03-05 11h04.48.264072 -0500,
13,13,0,critical,dwh,20.0,2.1,lower,78.0,78.0,57.0,133.0,133.0,57.0,2,3.073988676071167,None,,,,,0,0,0,0,0,13,13,30,125.41348123550415,,,,,,,,,,,,,,,,,,,,,,,,,,,,,,,,,,,,,,,,,,,,,,,,,,,,,,,,,,,,,,,,,,,,,,,,,,,,,,,,,78.0,78.0,57.0,133.0,133.0,57.0,2.1,2.12,-202,-280,0,-286,191,267,125.3985025882721,125.39863610267639,125.40203213691711,125.41348123550415,125.56388735771179,125.56388735771179,125.56388735771179,125.56388735771179,125.56388735771179,125.56388735771179,125.56388735771179,128.49531626701355,2,3.073988676071167,None,,,,,,,,,,,,,,,,,,189,1,2025-03-05_11h04.36.812,comp,2024.2.4,56.130538875677324,2025-03-05 11h04.48.264072 -0500,
14,14,0,critical,hwd,20.0,2.1,upper,200.0,125.0,125.0,200.0,141.0,141.0,1,6.254220247268677,None,,,,,0,0,0,0,0,14,14,43,128.51206874847412,,,,,,,,,,,,,,,,,,,,,,,,,,,,,,,,,,,,,,,,,,,,,,,,,,,,,,,,,,,,,,,,,,,,,,,,,,,,,,,,,200.0,125.0,125.0,200.0,141.0,141.0,2.1,2.11,-258,265,0,285,266,-280,128.4968957901001,128.496976852417,128.50112986564636,128.51206874847412,128.6602087020874,128.6602087020874,128.6602087020874,128.6602087020874,128.6602087020874,128.6602087020874,128.6602087020874,134.78020024299622,1,6.254220247268677,None,,,,,,,,,,,,,,,,,,189,1,2025-03-05_11h04.36.812,comp,2024.2.4,56.130538875677324,2025-03-05 11h04.48.264072 -0500,
15,15,0,filler_random,None,None,None,None,None,None,None,None,None,None,2,1.5935194492340088,None,,,,,0,0,0,0,0,15,15,157,134.79766845703125,,,,,,,,,,,,,,,,,,,,,,,,,,,,,,,,,,,,,,,,,,,,,,,,,,,,,,,,,,,,,,,,,,,,,,,,,,,,,,,,,69.607297475536,112.43257316939136,163.0372821250388,129.8067372888057,57.237298535610705,85.67106890624765,3.0,3.1,-217,269,0,14,204,-259,134.78194618225098,134.78202533721924,134.7854609489441,134.79766845703125,134.9494755268097,134.9494755268097,134.9494755268097,134.9494755268097,134.9494755268097,134.9494755268097,134.9494755268097,136.3948073387146,2,1.5935194492340088,None,,,,,,,,,,,,,,,,,,189,1,2025-03-05_11h04.36.812,comp,2024.2.4,56.130538875677324,2025-03-05 11h04.48.264072 -0500,
16,16,0,filler_random,None,None,None,None,None,None,None,None,None,None,2,6.2977821826934814,None,,,,,0,0,0,0,0,16,16,154,136.41249895095825,,,,,,,,,,,,,,,,,,,,,,,,,,,,,,,,,,,,,,,,,,,,,,,,,,,,,,,,,,,,,,,,,,,,,,,,,,,,,,,,,85.62079756383108,172.2047583467122,114.1046899643277,167.88149501015894,158.12691997777998,96.08613677560948,4.0,4.1,-266,-277,0,1,228,-267,136.39652562141418,136.39660358428955,136.39960527420044,136.41249895095825,136.56304168701172,136.56304168701172,136.56304168701172,136.56304168701172,136.56304168701172,136.56304168701172,136.56304168701172,142.72574949264526,2,6.2977821826934814,None,,,,,,,,,,,,,,,,,,189,1,2025-03-05_11h04.36.812,comp,2024.2.4,56.130538875677324,2025-03-05 11h04.48.264072 -0500,
17,17,0,critical,dwh,35.0,2.1,upper,127.0,127.0,125.0,200.0,200.0,125.0,2,4.0339391231536865,None,,,,,0,0,0,0,0,17,17,29,142.74160885810852,,,,,,,,,,,,,,,,,,,,,,,,,,,,,,,,,,,,,,,,,,,,,,,,,,,,,,,,,,,,,,,,,,,,,,,,,,,,,,,,,127.0,127.0,125.0,200.0,200.0,125.0,2.1,2.12,-260,-255,0,-281,258,260,142.7272355556488,142.72733545303345,142.73022413253784,142.74160885810852,142.8826847076416,142.8826847076416,142.8826847076416,142.8826847076416,142.8826847076416,142.8826847076416,142.8826847076416,146.7845175266266,2,4.0339391231536865,None,,,,,,,,,,,,,,,,,,189,1,2025-03-05_11h04.36.812,comp,2024.2.4,56.130538875677324,2025-03-05 11h04.48.264072 -0500,
18,18,0,critical,whd,20.0,2.1,upper,125.0,200.0,200.0,125.0,141.0,141.0,3,6.070017576217651,None,,,,,0,0,0,0,0,18,18,15,146.8005542755127,,,,,,,,,,,,,,,,,,,,,,,,,,,,,,,,,,,,,,,,,,,,,,,,,,,,,,,,,,,,,,,,,,,,,,,,,,,,,,,,,125.0,200.0,200.0,125.0,141.0,141.0,2.1,2.11,-258,260,0,258,229,-281,146.78608202934265,146.78616166114807,146.78967595100403,146.8005542755127,146.9491629600525,146.9491629600525,146.9491629600525,146.9491629600525,146.9491629600525,146.9491629600525,146.9491629600525,152.87352108955383,3,6.070017576217651,None,,,,,,,,,,,,,,,,,,189,1,2025-03-05_11h04.36.812,comp,2024.2.4,56.130538875677324,2025-03-05 11h04.48.264072 -0500,
19,19,0,critical,wdh,20.0,2.1,upper,125.0,200.0,141.0,141.0,200.0,125.0,3,16.269527673721313,None,,,,,0,0,0,0,0,19,19,11,152.8889331817627,,,,,,,,,,,,,,,,,,,,,,,,,,,,,,,,,,,,,,,,,,,,,,,,,,,,,,,,,,,,,,,,,,,,,,,,,,,,,,,,,125.0,200.0,141.0,141.0,200.0,125.0,2.1,2.11,-266,268,0,274,229,-278,152.87510514259338,152.8751847743988,152.87810254096985,152.8889331817627,153.04593658447266,153.04593658447266,153.04593658447266,153.04593658447266,153.04593658447266,153.04593658447266,153.04593658447266,169.1750135421753,3,16.269527673721313,None,,,,,,,,,,,,,,,,,,189,1,2025-03-05_11h04.36.812,comp,2024.2.4,56.130538875677324,2025-03-05 11h04.48.264072 -0500,
20,20,0,filler_square,None,None,None,None,None,None,None,None,None,None,2,2.639719009399414,None,,,,,0,0,0,0,0,20,20,182,169.1915946006775,,,,,,,,,,,,,,,,,,,,,,,,,,,,,,,,,,,,,,,,,,,,,,,,,,,,,,,,,,,,,,,,,,,,,,,,,,,,,,,,,104.4710531514707,171.1972318642556,175.40136894868613,175.40136894868613,126.28944341955521,118.73702061962015,2.1,2.12,-269,-252,0,-255,243,269,169.17688179016113,169.17696046829224,169.1810371875763,169.1915946006775,169.3418595790863,169.3418595790863,169.3418595790863,169.3418595790863,169.3418595790863,169.3418595790863,169.3418595790863,171.84332942962646,2,2.639719009399414,None,,,,,,,,,,,,,,,,,,189,1,2025-03-05_11h04.36.812,comp,2024.2.4,56.130538875677324,2025-03-05 11h04.48.264072 -0500,
21,21,0,critical,dwh,20.0,4.0,upper,141.0,141.0,125.0,200.0,200.0,125.0,2,4.906464576721191,None,,,,,0,0,0,0,0,21,21,71,171.86045098304749,,,,,,,,,,,,,,,,,,,,,,,,,,,,,,,,,,,,,,,,,,,,,,,,,,,,,,,,,,,,,,,,,,,,,,,,,,,,,,,,,141.0,141.0,125.0,200.0,200.0,125.0,4.0,4.2,-266,3,0,-286,258,-17,171.84483242034912,171.84493827819824,171.84815120697021,171.86045098304749,172.0082244873047,172.0082244873047,172.0082244873047,172.0082244873047,172.0082244873047,172.0082244873047,172.0082244873047,176.77771949768066,2,4.906464576721191,None,,,,,,,,,,,,,,,,,,189,1,2025-03-05_11h04.36.812,comp,2024.2.4,56.130538875677324,2025-03-05 11h04.48.264072 -0500,
22,22,0,filler_square,None,None,None,None,None,None,None,None,None,None,2,10.149527311325073,None,,,,,0,0,0,0,0,22,22,176,176.79438257217407,,,,,,,,,,,,,,,,,,,,,,,,,,,,,,,,,,,,,,,,,,,,,,,,,,,,,,,,,,,,,,,,,,,,,,,,,,,,,,,,,129.54122249643706,129.54122249643706,122.82798303923678,127.1121051389849,109.01809676100225,126.2515176942483,2.2,2.22,-224,259,0,-275,223,-277,176.77978086471558,176.77989840507507,176.78343963623047,176.79438257217407,176.94336867332458,176.94336867332458,176.94336867332458,176.94336867332458,176.94336867332458,176.94336867332458,176.94336867332458,186.95064616203308,2,10.149527311325073,None,,,,,,,,,,,,,,,,,,189,1,2025-03-05_11h04.36.812,comp,2024.2.4,56.130538875677324,2025-03-05 11h04.48.264072 -0500,
23,23,0,critical,wdh,35.0,4.0,lower,57.0,133.0,70.0,70.0,133.0,57.0,3,4.761246919631958,None,,,,,0,0,0,0,0,23,23,76,186.966402053833,,,,,,,,,,,,,,,,,,,,,,,,,,,,,,,,,,,,,,,,,,,,,,,,,,,,,,,,,,,,,,,,,,,,,,,,,,,,,,,,,57.0,133.0,70.0,70.0,133.0,57.0,4.0,4.1,-198,-259,0,-10,160,-289,186.95232796669006,186.95241808891296,186.9555320739746,186.966402053833,187.11272501945496,187.11272501945496,187.11272501945496,187.11272501945496,187.11272501945496,187.11272501945496,187.11272501945496,191.73548245429993,3,4.761246919631958,None,,,,,,,,,,,,,,,,,,189,1,2025-03-05_11h04.36.812,comp,2024.2.4,56.130538875677324,2025-03-05 11h04.48.264072 -0500,
24,24,0,critical,hdw,20.0,1.0,upper,200.0,125.0,141.0,141.0,125.0,200.0,3,4.783349514007568,None,,,,,0,0,0,0,0,24,24,115,191.7513976097107,,,,,,,,,,,,,,,,,,,,,,,,,,,,,,,,,,,,,,,,,,,,,,,,,,,,,,,,,,,,,,,,,,,,,,,,,,,,,,,,,200.0,125.0,141.0,141.0,125.0,200.0,1.0,1.2,-229,-10,0,19,266,20,191.7370481491089,191.73712944984436,191.74046444892883,191.7513976097107,191.89855432510376,191.89855432510376,191.89855432510376,191.89855432510376,191.89855432510376,191.89855432510376,191.89855432510376,196.55184888839722,3,4.783349514007568,None,,,,,,,,,,,,,,,,,,189,1,2025-03-05_11h04.36.812,comp,2024.2.4,56.130538875677324,2025-03-05 11h04.48.264072 -0500,
25,25,0,critical,hwd,20.0,2.1,upper,200.0,125.0,125.0,200.0,141.0,141.0,1,4.296138286590576,None,,,,,0,0,0,0,0,25,25,19,196.5671727657318,,,,,,,,,,,,,,,,,,,,,,,,,,,,,,,,,,,,,,,,,,,,,,,,,,,,,,,,,,,,,,,,,,,,,,,,,,,,,,,,,200.0,125.0,125.0,200.0,141.0,141.0,2.1,2.11,-258,257,0,254,266,-258,196.55352449417114,196.55360436439514,196.5568482875824,196.5671727657318,196.7123167514801,196.7123167514801,196.7123167514801,196.7123167514801,196.7123167514801,196.7123167514801,196.7123167514801,200.86855912208557,1,4.296138286590576,None,,,,,,,,,,,,,,,,,,189,1,2025-03-05_11h04.36.812,comp,2024.2.4,56.130538875677324,2025-03-05 11h04.48.264072 -0500,
26,26,0,critical,dwh,35.0,2.1,lower,70.0,70.0,57.0,133.0,133.0,57.0,3,7.721205711364746,None,,,,,0,0,0,0,0,26,26,28,200.88539242744446,,,,,,,,,,,,,,,,,,,,,,,,,,,,,,,,,,,,,,,,,,,,,,,,,,,,,,,,,,,,,,,,,,,,,,,,,,,,,,,,,70.0,70.0,57.0,133.0,133.0,57.0,2.1,2.11,-198,268,0,253,191,-274,200.87008905410767,200.87017226219177,200.87444019317627,200.88539242744446,201.0346782207489,201.0346782207489,201.0346782207489,201.0346782207489,201.0346782207489,201.0346782207489,201.0346782207489,208.61009407043457,3,7.721205711364746,None,,,,,,,,,,,,,,,,,,189,1,2025-03-05_11h04.36.812,comp,2024.2.4,56.130538875677324,2025-03-05 11h04.48.264072 -0500,
27,27,0,filler_random,None,None,None,None,None,None,None,None,None,None,2,3.6189324855804443,None,,,,,0,0,0,0,0,27,27,169,208.62803530693054,,,,,,,,,,,,,,,,,,,,,,,,,,,,,,,,,,,,,,,,,,,,,,,,,,,,,,,,,,,,,,,,,,,,,,,,,,,,,,,,,122.98854030131584,64.62302846216728,182.59274206423578,107.46843123780701,172.85064816292007,91.7417743545722,2.1,2.11,-182,275,0,289,196,-283,208.61184549331665,208.6119248867035,208.6148374080658,208.62803530693054,208.77171921730042,208.77171921730042,208.77171921730042,208.77171921730042,208.77171921730042,208.77171921730042,208.77171921730042,212.2517066001892,2,3.6189324855804443,None,,,,,,,,,,,,,,,,,,189,1,2025-03-05_11h04.36.812,comp,2024.2.4,56.130538875677324,2025-03-05 11h04.48.264072 -0500,
28,28,0,critical,dhw,20.0,3.0,upper,141.0,141.0,200.0,125.0,125.0,200.0,3,5.891213655471802,None,,,,,0,0,0,0,0,28,28,57,212.26752948760986,,,,,,,,,,,,,,,,,,,,,,,,,,,,,,,,,,,,,,,,,,,,,,,,,,,,,,,,,,,,,,,,,,,,,,,,,,,,,,,,,141.0,141.0,200.0,125.0,125.0,200.0,3.0,3.2,-229,-263,0,-7,258,257,212.2532181739807,212.25333309173584,212.25621962547302,212.26752948760986,212.40476202964783,212.40476202964783,212.40476202964783,212.40476202964783,212.40476202964783,212.40476202964783,212.40476202964783,218.17349982261658,3,5.891213655471802,None,,,,,,,,,,,,,,,,,,189,1,2025-03-05_11h04.36.812,comp,2024.2.4,56.130538875677324,2025-03-05 11h04.48.264072 -0500,
29,29,0,critical,dwh,20.0,1.0,upper,141.0,141.0,125.0,200.0,200.0,125.0,3,3.2094197273254395,None,,,,,0,0,0,0,0,29,29,67,218.18905663490295,,,,,,,,,,,,,,,,,,,,,,,,,,,,,,,,,,,,,,,,,,,,,,,,,,,,,,,,,,,,,,,,,,,,,,,,,,,,,,,,,141.0,141.0,125.0,200.0,200.0,125.0,1.0,1.2,-266,-12,0,-11,258,-19,218.1751205921173,218.175199508667,218.17867469787598,218.18905663490295,218.33709836006165,218.33709836006165,218.33709836006165,218.33709836006165,218.33709836006165,218.33709836006165,218.33709836006165,221.4079225063324,3,3.2094197273254395,None,,,,,,,,,,,,,,,,,,189,1,2025-03-05_11h04.36.812,comp,2024.2.4,56.130538875677324,2025-03-05 11h04.48.264072 -0500,
30,30,0,critical,whd,35.0,4.0,upper,125.0,200.0,200.0,125.0,127.0,127.0,2,2.7249398231506348,None,,,,,0,0,0,0,0,30,30,89,221.42564463615417,,,,,,,,,,,,,,,,,,,,,,,,,,,,,,,,,,,,,,,,,,,,,,,,,,,,,,,,,,,,,,,,,,,,,,,,,,,,,,,,,125.0,200.0,200.0,125.0,127.0,127.0,4.0,4.1,-258,-271,0,-12,222,-263,221.40947651863098,221.4095573425293,221.41382932662964,221.42564463615417,221.57477951049805,221.57477951049805,221.57477951049805,221.57477951049805,221.57477951049805,221.57477951049805,221.57477951049805,224.16511726379395,2,2.7249398231506348,None,,,,,,,,,,,,,,,,,,189,1,2025-03-05_11h04.36.812,comp,2024.2.4,56.130538875677324,2025-03-05 11h04.48.264072 -0500,
31,31,0,critical,hwd,20.0,2.1,lower,133.0,57.0,57.0,133.0,78.0,78.0,1,2.9420857429504395,None,,,,,0,0,0,0,0,31,31,42,224.18445801734924,,,,,,,,,,,,,,,,,,,,,,,,,,,,,,,,,,,,,,,,,,,,,,,,,,,,,,,,,,,,,,,,,,,,,,,,,,,,,,,,,133.0,57.0,57.0,133.0,78.0,78.0,2.1,2.12,-191,-282,0,-273,202,272,224.1668074131012,224.1668984889984,224.17017555236816,224.18445801734924,224.32536029815674,224.32536029815674,224.32536029815674,224.32536029815674,224.32536029815674,224.32536029815674,224.32536029815674,227.1435570716858,1,2.9420857429504395,None,,,,,,,,,,,,,,,,,,189,1,2025-03-05_11h04.36.812,comp,2024.2.4,56.130538875677324,2025-03-05 11h04.48.264072 -0500,
32,32,0,filler_square,None,None,None,None,None,None,None,None,None,None,2,3.6288700103759766,None,,,,,0,0,0,0,0,32,32,171,227.16171193122864,,,,,,,,,,,,,,,,,,,,,,,,,,,,,,,,,,,,,,,,,,,,,,,,,,,,,,,,,,,,,,,,,,,,,,,,,,,,,,,,,70.23906215993415,57.166322255040534,78.751715711701,78.751715711701,62.80504322448278,73.57293963612696,1.0,1.1,-644,251,-480,261,-308,281,227.14543676376343,227.1455476284027,227.1487991809845,227.16171193122864,227.31232976913452,227.31232976913452,227.31232976913452,227.31232976913452,227.31232976913452,227.31232976913452,227.31232976913452,230.7941427230835,2,3.6288700103759766,None,,,,,,,,,,,,,,,,,,189,1,2025-03-05_11h04.36.812,comp,2024.2.4,56.130538875677324,2025-03-05 11h04.48.264072 -0500,
33,33,0,critical,wdh,20.0,2.1,lower,57.0,133.0,78.0,78.0,133.0,57.0,3,5.964686632156372,None,,,,,0,0,0,0,0,33,33,34,230.8104169368744,,,,,,,,,,,,,,,,,,,,,,,,,,,,,,,,,,,,,,,,,,,,,,,,,,,,,,,,,,,,,,,,,,,,,,,,,,,,,,,,,57.0,133.0,78.0,78.0,133.0,57.0,2.1,2.12,-202,-254,0,-287,164,281,230.79574847221375,230.79583621025085,230.79943442344666,230.8104169368744,230.96138334274292,230.96138334274292,230.96138334274292,230.96138334274292,230.96138334274292,230.96138334274292,230.96138334274292,236.78118586540222,3,5.964686632156372,None,,,,,,,,,,,,,,,,,,189,1,2025-03-05_11h04.36.812,comp,2024.2.4,56.130538875677324,2025-03-05 11h04.48.264072 -0500,
34,34,0,filler_square,None,None,None,None,None,None,None,None,None,None,3,1.3053245544433594,None,,,,,0,0,0,0,0,34,34,201,236.7973301410675,,,,,,,,,,,,,,,,,,,,,,,,,,,,,,,,,,,,,,,,,,,,,,,,,,,,,,,,,,,,,,,,,,,,,,,,,,,,,,,,,132.46705543719636,66.76514233629862,181.1805522080213,73.8015441237026,194.28364047590523,194.28364047590523,1.0,1.2,-166,-17,0,-6,230,10,236.78311014175415,236.7831916809082,236.78644561767578,236.7973301410675,236.945862531662,236.945862531662,236.945862531662,236.945862531662,236.945862531662,236.945862531662,236.945862531662,238.11500000953674,3,1.3053245544433594,None,,,,,,,,,,,,,,,,,,189,1,2025-03-05_11h04.36.812,comp,2024.2.4,56.130538875677324,2025-03-05 11h04.48.264072 -0500,
35,35,0,critical,whd,20.0,2.1,lower,57.0,133.0,133.0,57.0,78.0,78.0,2,5.124862194061279,None,,,,,0,0,0,0,0,35,35,14,238.1311776638031,,,,,,,,,,,,,,,,,,,,,,,,,,,,,,,,,,,,,,,,,,,,,,,,,,,,,,,,,,,,,,,,,,,,,,,,,,,,,,,,,57.0,133.0,133.0,57.0,78.0,78.0,2.1,2.12,-191,-282,0,-275,164,264,238.1167185306549,238.116797208786,238.1207616329193,238.1311776638031,238.267475605011,238.267475605011,238.267475605011,238.267475605011,238.267475605011,238.267475605011,238.267475605011,243.26722884178162,2,5.124862194061279,None,,,,,,,,,,,,,,,,,,189,1,2025-03-05_11h04.36.812,comp,2024.2.4,56.130538875677324,2025-03-05 11h04.48.264072 -0500,
36,36,0,critical,dwh,35.0,1.0,upper,127.0,127.0,125.0,200.0,200.0,125.0,2,4.266940116882324,None,,,,,0,0,0,0,0,36,36,61,243.28368663787842,,,,,,,,,,,,,,,,,,,,,,,,,,,,,,,,,,,,,,,,,,,,,,,,,,,,,,,,,,,,,,,,,,,,,,,,,,,,,,,,,127.0,127.0,125.0,200.0,200.0,125.0,1.0,1.1,-740,273,-480,275,-222,280,243.26917433738708,243.26933407783508,243.27283382415771,243.28368663787842,243.43559098243713,243.43559098243713,243.43559098243713,243.43559098243713,243.43559098243713,243.43559098243713,243.43559098243713,247.56773447990417,2,4.266940116882324,None,,,,,,,,,,,,,,,,,,189,1,2025-03-05_11h04.36.812,comp,2024.2.4,56.130538875677324,2025-03-05 11h04.48.264072 -0500,
37,37,0,filler_square,None,None,None,None,None,None,None,None,None,None,2,4.253134727478027,None,,,,,0,0,0,0,0,37,37,183,247.5854949951172,,,,,,,,,,,,,,,,,,,,,,,,,,,,,,,,,,,,,,,,,,,,,,,,,,,,,,,,,,,,,,,,,,,,,,,,,,,,,,,,,91.65675894364924,69.9865783271253,96.16978800259528,96.16978800259528,67.5103176791766,75.59703519459019,4.0,4.2,-179,18,0,-280,182,16,247.56968235969543,247.5697638988495,247.572758436203,247.5854949951172,247.73217725753784,247.73217725753784,247.73217725753784,247.73217725753784,247.73217725753784,247.73217725753784,247.73217725753784,251.84888243675232,2,4.253134727478027,None,,,,,,,,,,,,,,,,,,189,1,2025-03-05_11h04.36.812,comp,2024.2.4,56.130538875677324,2025-03-05 11h04.48.264072 -0500,
38,38,0,critical,hdw,35.0,4.0,upper,200.0,125.0,127.0,127.0,125.0,200.0,1,4.317882299423218,None,,,,,0,0,0,0,0,38,38,113,251.8649344444275,,,,,,,,,,,,,,,,,,,,,,,,,,,,,,,,,,,,,,,,,,,,,,,,,,,,,,,,,,,,,,,,,,,,,,,,,,,,,,,,,200.0,125.0,127.0,127.0,125.0,200.0,4.0,4.2,-222,10,0,-270,260,8,251.8503668308258,251.85044503211975,251.8533456325531,251.8649344444275,252.00381731987,252.00381731987,252.00381731987,252.00381731987,252.00381731987,252.00381731987,252.00381731987,256.1965239048004,1,4.317882299423218,None,,,,,,,,,,,,,,,,,,189,1,2025-03-05_11h04.36.812,comp,2024.2.4,56.130538875677324,2025-03-05 11h04.48.264072 -0500,
39,39,0,filler_square,None,None,None,None,None,None,None,None,None,None,1,2.97124981880188,None,,,,,0,0,0,0,0,39,39,175,256.21136951446533,,,,,,,,,,,,,,,,,,,,,,,,,,,,,,,,,,,,,,,,,,,,,,,,,,,,,,,,,,,,,,,,,,,,,,,,,,,,,,,,,121.47571275084742,121.47571275084742,63.17003304014629,81.77735110319423,96.89175424647146,95.27232931347649,1.0,1.3,282,-289,480,-258,665,-281,256.1983425617218,256.1984224319458,256.2014169692993,256.21136951446533,256.35655331611633,256.35655331611633,256.35655331611633,256.35655331611633,256.35655331611633,256.35655331611633,256.35655331611633,259.18633556365967,1,2.97124981880188,None,,,,,,,,,,,,,,,,,,189,1,2025-03-05_11h04.36.812,comp,2024.2.4,56.130538875677324,2025-03-05 11h04.48.264072 -0500,
40,40,0,critical,dwh,20.0,4.0,lower,78.0,78.0,57.0,133.0,133.0,57.0,3,3.6040499210357666,None,,,,,0,0,0,0,0,40,40,70,259.202716588974,,,,,,,,,,,,,,,,,,,,,,,,,,,,,,,,,,,,,,,,,,,,,,,,,,,,,,,,,,,,,,,,,,,,,,,,,,,,,,,,,78.0,78.0,57.0,133.0,133.0,57.0,4.0,4.1,-202,-280,0,-3,191,-250,259.18779277801514,259.1878707408905,259.1918866634369,259.202716588974,259.3530685901642,259.3530685901642,259.3530685901642,259.3530685901642,259.3530685901642,259.3530685901642,259.3530685901642,262.81835103034973,3,3.6040499210357666,None,,,,,,,,,,,,,,,,,,189,1,2025-03-05_11h04.36.812,comp,2024.2.4,56.130538875677324,2025-03-05 11h04.48.264072 -0500,
41,41,0,critical,dhw,20.0,3.0,lower,78.0,78.0,133.0,57.0,57.0,133.0,2,5.948704481124878,None,,,,,0,0,0,0,0,41,41,56,262.83481097221375,,,,,,,,,,,,,,,,,,,,,,,,,,,,,,,,,,,,,,,,,,,,,,,,,,,,,,,,,,,,,,,,,,,,,,,,,,,,,,,,,78.0,78.0,133.0,57.0,57.0,133.0,3.0,3.2,-164,-284,0,-14,191,281,262.8198459148407,262.8199243545532,262.82283449172974,262.83481097221375,262.9752731323242,262.9752731323242,262.9752731323242,262.9752731323242,262.9752731323242,262.9752731323242,262.9752731323242,268.7895293235779,2,5.948704481124878,None,,,,,,,,,,,,,,,,,,189,1,2025-03-05_11h04.36.812,comp,2024.2.4,56.130538875677324,2025-03-05 11h04.48.264072 -0500,
42,42,0,critical,dhw,20.0,2.1,lower,78.0,78.0,133.0,57.0,57.0,133.0,3,5.385223388671875,None,,,,,0,0,0,0,0,42,42,2,268.8061728477478,,,,,,,,,,,,,,,,,,,,,,,,,,,,,,,,,,,,,,,,,,,,,,,,,,,,,,,,,,,,,,,,,,,,,,,,,,,,,,,,,78.0,78.0,133.0,57.0,57.0,133.0,2.1,2.12,-164,-273,0,-278,191,267,268.7911374568939,268.7912619113922,268.79512667655945,268.8061728477478,268.95280027389526,268.95280027389526,268.95280027389526,268.95280027389526,268.95280027389526,268.95280027389526,268.95280027389526,274.19614362716675,3,5.385223388671875,None,,,,,,,,,,,,,,,,,,189,1,2025-03-05_11h04.36.812,comp,2024.2.4,56.130538875677324,2025-03-05 11h04.48.264072 -0500,
43,43,0,filler_random,None,None,None,None,None,None,None,None,None,None,1,1.809241771697998,None,,,,,0,0,0,0,0,43,43,164,274.21337890625,,,,,,,,,,,,,,,,,,,,,,,,,,,,,,,,,,,,,,,,,,,,,,,,,,,,,,,,,,,,,,,,,,,,,,,,,,,,,,,,,145.521927978289,125.5197639063287,114.74362115938207,91.32964478076588,64.57676685958228,139.24972653028323,2.1,2.11,-204,266,0,269,211,-276,274.1980435848236,274.1981692314148,274.2014362812042,274.21337890625,274.36115288734436,274.36115288734436,274.36115288734436,274.36115288734436,274.36115288734436,274.36115288734436,274.36115288734436,276.0258119106293,1,1.809241771697998,None,,,,,,,,,,,,,,,,,,189,1,2025-03-05_11h04.36.812,comp,2024.2.4,56.130538875677324,2025-03-05 11h04.48.264072 -0500,
44,44,0,critical,hwd,35.0,3.0,upper,200.0,125.0,125.0,200.0,127.0,127.0,2,3.8609344959259033,None,,,,,0,0,0,0,0,44,44,99,276.04220056533813,,,,,,,,,,,,,,,,,,,,,,,,,,,,,,,,,,,,,,,,,,,,,,,,,,,,,,,,,,,,,,,,,,,,,,,,,,,,,,,,,200.0,125.0,125.0,200.0,127.0,127.0,3.0,3.2,-258,-268,0,-14,260,257,276.0274980068207,276.0276346206665,276.0310995578766,276.04220056533813,276.19736552238464,276.19736552238464,276.19736552238464,276.19736552238464,276.19736552238464,276.19736552238464,276.19736552238464,279.91020488739014,2,3.8609344959259033,None,,,,,,,,,,,,,,,,,,189,1,2025-03-05_11h04.36.812,comp,2024.2.4,56.130538875677324,2025-03-05 11h04.48.264072 -0500,
45,45,0,critical,dhw,20.0,2.1,upper,141.0,141.0,200.0,125.0,125.0,200.0,2,3.777484893798828,None,,,,,0,0,0,0,0,45,45,27,279.9263508319855,,,,,,,,,,,,,,,,,,,,,,,,,,,,,,,,,,,,,,,,,,,,,,,,,,,,,,,,,,,,,,,,,,,,,,,,,,,,,,,,,141.0,141.0,200.0,125.0,125.0,200.0,2.1,2.12,-229,-281,0,-285,258,278,279.91171765327454,279.9117953777313,279.91544365882874,279.9263508319855,280.07833909988403,280.07833909988403,280.07833909988403,280.07833909988403,280.07833909988403,280.07833909988403,280.07833909988403,283.7111306190491,2,3.777484893798828,None,,,,,,,,,,,,,,,,,,189,1,2025-03-05_11h04.36.812,comp,2024.2.4,56.130538875677324,2025-03-05 11h04.48.264072 -0500,
46,46,0,critical,wdh,20.0,2.1,upper,125.0,200.0,141.0,141.0,200.0,125.0,3,3.712388277053833,None,,,,,0,0,0,0,0,46,46,35,283.7272250652313,,,,,,,,,,,,,,,,,,,,,,,,,,,,,,,,,,,,,,,,,,,,,,,,,,,,,,,,,,,,,,,,,,,,,,,,,,,,,,,,,125.0,200.0,141.0,141.0,200.0,125.0,2.1,2.12,-266,-258,0,-289,229,261,283.7127962112427,283.71287655830383,283.7161178588867,283.7272250652313,283.8800780773163,283.8800780773163,283.8800780773163,283.8800780773163,283.8800780773163,283.8800780773163,283.8800780773163,287.4465506076813,3,3.712388277053833,None,,,,,,,,,,,,,,,,,,189,1,2025-03-05_11h04.36.812,comp,2024.2.4,56.130538875677324,2025-03-05 11h04.48.264072 -0500,
47,47,0,catch,None,None,None,None,None,None,None,None,None,None,3,1.1191701889038086,None,,,,,0,0,0,0,0,47,47,122,287.4635179042816,,,,,,,,,,,,,,,,,,,,,,,,,,,,,,,,,,,,,,,,,,,,,,,,,,,,,,,,,,,,,,,,,,,,,,,,,,,,,,,,,104,86,116,74,136,189,3.0,3.2,-176,-288,0,-17,228,273,287.4487087726593,287.448792219162,287.45256662368774,287.4635179042816,287.61407828330994,287.61407828330994,287.61407828330994,287.61407828330994,287.61407828330994,287.61407828330994,287.61407828330994,288.59606552124023,3,1.1191701889038086,None,,,,,,,,,,,,,,,,,,189,1,2025-03-05_11h04.36.812,comp,2024.2.4,56.130538875677324,2025-03-05 11h04.48.264072 -0500,
48,48,0,filler_square,None,None,None,None,None,None,None,None,None,None,3,3.8892900943756104,None,,,,,0,0,0,0,0,48,48,178,288.6133499145508,,,,,,,,,,,,,,,,,,,,,,,,,,,,,,,,,,,,,,,,,,,,,,,,,,,,,,,,,,,,,,,,,,,,,,,,,,,,,,,,,157.96574051614664,153.38018179514063,146.54435417994836,73.13032748777883,176.00803077401312,176.00803077401312,1.0,1.1,-689,266,-480,254,-259,250,288.59809589385986,288.5981752872467,288.6018810272217,288.6133499145508,288.76104259490967,288.76104259490967,288.76104259490967,288.76104259490967,288.76104259490967,288.76104259490967,288.76104259490967,292.52034091949463,3,3.8892900943756104,None,,,,,,,,,,,,,,,,,,189,1,2025-03-05_11h04.36.812,comp,2024.2.4,56.130538875677324,2025-03-05 11h04.48.264072 -0500,
49,49,0,critical,wdh,35.0,2.1,upper,125.0,200.0,127.0,127.0,200.0,125.0,1,4.354728698730469,None,,,,,0,0,0,0,0,49,49,33,292.540078163147,,,,,,,,,,,,,,,,,,,,,,,,,,,,,,,,,,,,,,,,,,,,,,,,,,,,,,,,,,,,,,,,,,,,,,,,,,,,,,,,,125.0,200.0,127.0,127.0,200.0,125.0,2.1,2.12,-260,-283,0,-285,222,280,292.52178955078125,292.52186703681946,292.524765253067,292.540078163147,292.6816473007202,292.6816473007202,292.6816473007202,292.6816473007202,292.6816473007202,292.6816473007202,292.6816473007202,296.9100892543793,1,4.354728698730469,None,,,,,,,,,,,,,,,,,,189,1,2025-03-05_11h04.36.812,comp,2024.2.4,56.130538875677324,2025-03-05 11h04.48.264072 -0500,
50,50,0,critical,dhw,35.0,3.0,upper,127.0,127.0,200.0,125.0,125.0,200.0,3,3.4224908351898193,None,,,,,0,0,0,0,0,50,50,51,296.92831802368164,,,,,,,,,,,,,,,,,,,,,,,,,,,,,,,,,,,,,,,,,,,,,,,,,,,,,,,,,,,,,,,,,,,,,,,,,,,,,,,,,127.0,127.0,200.0,125.0,125.0,200.0,3.0,3.2,-222,-274,0,-6,258,267,296.9116623401642,296.9117441177368,296.91467928886414,296.92831802368164,297.06268095970154,297.06268095970154,297.06268095970154,297.06268095970154,297.06268095970154,297.06268095970154,297.06268095970154,300.36590218544006,3,3.4224908351898193,None,,,,,,,,,,,,,,,,,,189,1,2025-03-05_11h04.36.812,comp,2024.2.4,56.130538875677324,2025-03-05 11h04.48.264072 -0500,
51,51,0,filler_random,None,None,None,None,None,None,None,None,None,None,3,4.175409317016602,None,,,,,0,0,0,0,0,51,51,160,300.38339257240295,,,,,,,,,,,,,,,,,,,,,,,,,,,,,,,,,,,,,,,,,,,,,,,,,,,,,,,,,,,,,,,,,,,,,,,,,,,,,,,,,72.70625393761472,61.819585202736654,177.07918856495053,87.19575154525504,116.9496792171723,193.02761937325954,1.0,1.1,-651,289,-480,277,-244,272,300.367534160614,300.3676106929779,300.37067198753357,300.38339257240295,300.54261231422424,300.54261231422424,300.54261231422424,300.54261231422424,300.54261231422424,300.54261231422424,300.54261231422424,304.5706055164337,3,4.175409317016602,None,,,,,,,,,,,,,,,,,,189,1,2025-03-05_11h04.36.812,comp,2024.2.4,56.130538875677324,2025-03-05 11h04.48.264072 -0500,
52,52,0,filler_square,None,None,None,None,None,None,None,None,None,None,2,6.179455757141113,None,,,,,0,0,0,0,0,52,52,170,304.5873544216156,,,,,,,,,,,,,,,,,,,,,,,,,,,,,,,,,,,,,,,,,,,,,,,,,,,,,,,,,,,,,,,,,,,,,,,,,,,,,,,,,58.078789412561406,58.07202288351847,64.43213010056846,64.43213010056846,57.93010988368795,57.164295682425625,2.1,2.11,-157,289,0,254,157,-279,304.5727159976959,304.572794675827,304.5761408805847,304.5873544216156,304.7337877750397,304.7337877750397,304.7337877750397,304.7337877750397,304.7337877750397,304.7337877750397,304.7337877750397,310.7845313549042,2,6.179455757141113,None,,,,,,,,,,,,,,,,,,189,1,2025-03-05_11h04.36.812,comp,2024.2.4,56.130538875677324,2025-03-05 11h04.48.264072 -0500,
53,53,0,critical,hdw,20.0,2.1,upper,200.0,125.0,141.0,141.0,125.0,200.0,3,4.509215354919434,None,,,,,0,0,0,0,0,53,53,47,310.8025827407837,,,,,,,,,,,,,,,,,,,,,,,,,,,,,,,,,,,,,,,,,,,,,,,,,,,,,,,,,,,,,,,,,,,,,,,,,,,,,,,,,200.0,125.0,141.0,141.0,125.0,200.0,2.1,2.11,-229,272,0,288,266,-265,310.7861726284027,310.78624868392944,310.789621591568,310.8025827407837,310.95367670059204,310.95367670059204,310.95367670059204,310.95367670059204,310.95367670059204,310.95367670059204,310.95367670059204,315.3200809955597,3,4.509215354919434,None,,,,,,,,,,,,,,,,,,189,1,2025-03-05_11h04.36.812,comp,2024.2.4,56.130538875677324,2025-03-05 11h04.48.264072 -0500,
54,54,0,filler_square,None,None,None,None,None,None,None,None,None,None,2,1.5392265319824219,None,,,,,0,0,0,0,0,54,54,188,315.3395428657532,,,,,,,,,,,,,,,,,,,,,,,,,,,,,,,,,,,,,,,,,,,,,,,,,,,,,,,,,,,,,,,,,,,,,,,,,,,,,,,,,77.03541048737893,74.1438249155911,78.30065985534344,78.30065985534344,72.71534589201961,58.44847639027824,2.2,2.22,-172,279,0,-252,164,-280,315.32202553749084,315.3221046924591,315.32534766197205,315.3395428657532,315.4883768558502,315.4883768558502,315.4883768558502,315.4883768558502,315.4883768558502,315.4883768558502,315.4883768558502,316.8889374732971,2,1.5392265319824219,None,,,,,,,,,,,,,,,,,,189,1,2025-03-05_11h04.36.812,comp,2024.2.4,56.130538875677324,2025-03-05 11h04.48.264072 -0500,
55,55,0,filler_random,None,None,None,None,None,None,None,None,None,None,1,2.1898140907287598,None,,,,,0,0,0,0,0,55,55,152,316.9049608707428,,,,,,,,,,,,,,,,,,,,,,,,,,,,,,,,,,,,,,,,,,,,,,,,,,,,,,,,,,,,,,,,,,,,,,,,,,,,,,,,,96.257011904509,173.0874141367036,177.9321314068901,76.86379669235147,88.30049678512522,62.34520771200841,3.0,3.2,-221,-288,0,7,166,256,316.89080119132996,316.8909101486206,316.8941333293915,316.9049608707428,317.0426573753357,317.0426573753357,317.0426573753357,317.0426573753357,317.0426573753357,317.0426573753357,317.0426573753357,319.10565090179443,1,2.1898140907287598,None,,,,,,,,,,,,,,,,,,189,1,2025-03-05_11h04.36.812,comp,2024.2.4,56.130538875677324,2025-03-05 11h04.48.264072 -0500,
56,56,0,filler_random,None,None,None,None,None,None,None,None,None,None,2,3.3537497520446777,None,,,,,0,0,0,0,0,56,56,139,319.12500500679016,,,,,,,,,,,,,,,,,,,,,,,,,,,,,,,,,,,,,,,,,,,,,,,,,,,,,,,,,,,,,,,,,,,,,,,,,,,,,,,,,141.52140084222853,105.02563202090715,168.97898797497618,191.34404249514915,182.25973820812868,119.97450465711401,2.2,2.21,-244,-252,0,273,252,263,319.1073296070099,319.1074080467224,319.1106059551239,319.12500500679016,319.2734091281891,319.2734091281891,319.2734091281891,319.2734091281891,319.2734091281891,319.2734091281891,319.2734091281891,322.4890968799591,2,3.3537497520446777,None,,,,,,,,,,,,,,,,,,189,1,2025-03-05_11h04.36.812,comp,2024.2.4,56.130538875677324,2025-03-05 11h04.48.264072 -0500,
57,57,0,filler_random,None,None,None,None,None,None,None,None,None,None,1,1.6205394268035889,None,,,,,0,0,0,0,0,57,57,167,322.50619101524353,,,,,,,,,,,,,,,,,,,,,,,,,,,,,,,,,,,,,,,,,,,,,,,,,,,,,,,,,,,,,,,,,,,,,,,,,,,,,,,,,164.3789665652327,85.97310278447762,61.191370735781824,84.64752384996694,59.68818009529113,116.13199818629136,4.0,4.1,-181,-282,0,-2,196,-265,322.4908456802368,322.4909756183624,322.4942276477814,322.50619101524353,322.65609526634216,322.65609526634216,322.65609526634216,322.65609526634216,322.65609526634216,322.65609526634216,322.65609526634216,324.13927245140076,1,1.6205394268035889,None,,,,,,,,,,,,,,,,,,189,1,2025-03-05_11h04.36.812,comp,2024.2.4,56.130538875677324,2025-03-05 11h04.48.264072 -0500,
58,58,0,filler_random,None,None,None,None,None,None,None,None,None,None,1,6.475618362426758,None,,,,,0,0,0,0,0,58,58,146,324.15577721595764,,,,,,,,,,,,,,,,,,,,,,,,,,,,,,,,,,,,,,,,,,,,,,,,,,,,,,,,,,,,,,,,,,,,,,,,,,,,,,,,,158.35315338795616,126.27314726837129,144.69099217757454,84.45707406888576,146.73286499462876,117.21623057236485,4.0,4.2,-201,-12,0,-261,197,0,324.14101099967957,324.14108872413635,324.14440751075745,324.15577721595764,324.30636954307556,324.30636954307556,324.30636954307556,324.30636954307556,324.30636954307556,324.30636954307556,324.30636954307556,330.64116311073303,1,6.475618362426758,None,,,,,,,,,,,,,,,,,,189,1,2025-03-05_11h04.36.812,comp,2024.2.4,56.130538875677324,2025-03-05 11h04.48.264072 -0500,
59,59,0,filler_random,None,None,None,None,None,None,None,None,None,None,1,1.2208728790283203,None,,,,,0,0,0,0,0,59,59,159,330.6669054031372,,,,,,,,,,,,,,,,,,,,,,,,,,,,,,,,,,,,,,,,,,,,,,,,,,,,,,,,,,,,,,,,,,,,,,,,,,,,,,,,,130.43486010353263,176.75830975184357,89.82468728925167,167.99956049803512,58.696405696484284,151.98903136724422,2.1,2.11,-268,281,0,250,256,-254,330.6429269313812,330.64300537109375,330.6461453437805,330.6669054031372,330.80863189697266,330.80863189697266,330.80863189697266,330.80863189697266,330.80863189697266,330.80863189697266,330.80863189697266,331.89389204978943,1,1.2208728790283203,None,,,,,,,,,,,,,,,,,,189,1,2025-03-05_11h04.36.812,comp,2024.2.4,56.130538875677324,2025-03-05 11h04.48.264072 -0500,
60,60,0,critical,hwd,35.0,2.1,lower,133.0,57.0,57.0,133.0,70.0,70.0,1,5.643008470535278,None,,,,,0,0,0,0,0,60,60,16,331.91070199012756,,,,,,,,,,,,,,,,,,,,,,,,,,,,,,,,,,,,,,,,,,,,,,,,,,,,,,,,,,,,,,,,,,,,,,,,,,,,,,,,,133.0,57.0,57.0,133.0,70.0,70.0,2.1,2.11,-191,259,0,261,198,-266,331.89554619789124,331.89562702178955,331.8990955352783,331.91070199012756,332.06399869918823,332.06399869918823,332.06399869918823,332.06399869918823,332.06399869918823,332.06399869918823,332.06399869918823,337.55958700180054,1,5.643008470535278,None,,,,,,,,,,,,,,,,,,189,1,2025-03-05_11h04.36.812,comp,2024.2.4,56.130538875677324,2025-03-05 11h04.48.264072 -0500,
61,61,0,filler_random,None,None,None,None,None,None,None,None,None,None,1,4.54248309135437,None,,,,,0,0,0,0,0,61,61,130,337.5763795375824,,,,,,,,,,,,,,,,,,,,,,,,,,,,,,,,,,,,,,,,,,,,,,,,,,,,,,,,,,,,,,,,,,,,,,,,,,,,,,,,,139.14937722083002,196.5359693418903,115.90266842842009,195.6566563152396,157.66312901567665,110.62508495633448,2.2,2.22,-292,255,0,-259,249,-254,337.5612802505493,337.56139063835144,337.5645489692688,337.5763795375824,337.7140040397644,337.7140040397644,337.7140040397644,337.7140040397644,337.7140040397644,337.7140040397644,337.7140040397644,342.1292691230774,1,4.54248309135437,None,,,,,,,,,,,,,,,,,,189,1,2025-03-05_11h04.36.812,comp,2024.2.4,56.130538875677324,2025-03-05 11h04.48.264072 -0500,
62,62,0,critical,whd,35.0,2.1,upper,125.0,200.0,200.0,125.0,127.0,127.0,2,4.124399662017822,None,,,,,0,0,0,0,0,62,62,37,342.14656686782837,,,,,,,,,,,,,,,,,,,,,,,,,,,,,,,,,,,,,,,,,,,,,,,,,,,,,,,,,,,,,,,,,,,,,,,,,,,,,,,,,125.0,200.0,200.0,125.0,127.0,127.0,2.1,2.11,-258,273,0,285,222,-264,342.13080072402954,342.13088178634644,342.1349811553955,342.14656686782837,342.29926919937134,342.29926919937134,342.29926919937134,342.29926919937134,342.29926919937134,342.29926919937134,342.29926919937134,346.2847170829773,2,4.124399662017822,None,,,,,,,,,,,,,,,,,,189,1,2025-03-05_11h04.36.812,comp,2024.2.4,56.130538875677324,2025-03-05 11h04.48.264072 -0500,
63,63,0,critical,hwd,35.0,1.0,upper,200.0,125.0,125.0,200.0,127.0,127.0,1,3.209613561630249,None,,,,,0,0,0,0,0,63,63,97,346.3014802932739,,,,,,,,,,,,,,,,,,,,,,,,,,,,,,,,,,,,,,,,,,,,,,,,,,,,,,,,,,,,,,,,,,,,,,,,,,,,,,,,,200.0,125.0,125.0,200.0,127.0,127.0,1.0,1.3,222,-289,480,-266,740,-277,346.28630924224854,346.2863917350769,346.2902386188507,346.3014802932739,346.4447958469391,346.4447958469391,346.4447958469391,346.4447958469391,346.4447958469391,346.4447958469391,346.4447958469391,349.51714992523193,1,3.209613561630249,None,,,,,,,,,,,,,,,,,,189,1,2025-03-05_11h04.36.812,comp,2024.2.4,56.130538875677324,2025-03-05 11h04.48.264072 -0500,
64,64,0,critical,hwd,20.0,2.1,lower,133.0,57.0,57.0,133.0,78.0,78.0,1,10.447672367095947,None,,,,,0,0,0,0,0,64,64,18,349.5359432697296,,,,,,,,,,,,,,,,,,,,,,,,,,,,,,,,,,,,,,,,,,,,,,,,,,,,,,,,,,,,,,,,,,,,,,,,,,,,,,,,,133.0,57.0,57.0,133.0,78.0,78.0,2.1,2.11,-191,263,0,266,202,-271,349.51910948753357,349.51924777030945,349.52243661880493,349.5359432697296,349.68099451065063,349.68099451065063,349.68099451065063,349.68099451065063,349.68099451065063,349.68099451065063,349.68099451065063,359.99223589897156,1,10.447672367095947,None,,,,,,,,,,,,,,,,,,189,1,2025-03-05_11h04.36.812,comp,2024.2.4,56.130538875677324,2025-03-05 11h04.48.264072 -0500,
65,65,0,filler_random,None,None,None,None,None,None,None,None,None,None,1,1.620734691619873,None,,,,,0,0,0,0,0,65,65,131,360.0107510089874,,,,,,,,,,,,,,,,,,,,,,,,,,,,,,,,,,,,,,,,,,,,,,,,,,,,,,,,,,,,,,,,,,,,,,,,,,,,,,,,,183.3547577981263,188.60917064409,85.08481916728596,69.96664021154022,187.9659588285296,87.77555177331695,2.2,2.22,-225,265,0,-282,175,-255,359.9939570426941,359.99403715133667,359.9969651699066,360.0107510089874,360.15205931663513,360.15205931663513,360.15205931663513,360.15205931663513,360.15205931663513,360.15205931663513,360.15205931663513,361.63642835617065,1,1.620734691619873,None,,,,,,,,,,,,,,,,,,189,1,2025-03-05_11h04.36.812,comp,2024.2.4,56.130538875677324,2025-03-05 11h04.48.264072 -0500,
66,66,0,critical,dhw,35.0,4.0,upper,127.0,127.0,200.0,125.0,125.0,200.0,2,2.2138917446136475,None,,,,,0,0,0,0,0,66,66,53,361.6570394039154,,,,,,,,,,,,,,,,,,,,,,,,,,,,,,,,,,,,,,,,,,,,,,,,,,,,,,,,,,,,,,,,,,,,,,,,,,,,,,,,,127.0,127.0,200.0,125.0,125.0,200.0,4.0,4.2,-222,-19,0,-265,258,16,361.6379210948944,361.6380383968353,361.6412789821625,361.6570394039154,361.80168437957764,361.80168437957764,361.80168437957764,361.80168437957764,361.80168437957764,361.80168437957764,361.80168437957764,363.88866114616394,2,2.2138917446136475,None,,,,,,,,,,,,,,,,,,189,1,2025-03-05_11h04.36.812,comp,2024.2.4,56.130538875677324,2025-03-05 11h04.48.264072 -0500,
67,67,0,filler_random,None,None,None,None,None,None,None,None,None,None,1,2.0534615516662598,None,,,,,0,0,0,0,0,67,67,137,363.90543150901794,,,,,,,,,,,,,,,,,,,,,,,,,,,,,,,,,,,,,,,,,,,,,,,,,,,,,,,,,,,,,,,,,,,,,,,,,,,,,,,,,167.2712014848006,135.96319362263984,132.4119939500205,75.74430740041771,111.21675264958779,118.0124350761092,2.1,2.12,-202,-268,0,-255,193,254,363.89068055152893,363.8907632827759,363.8940885066986,363.90543150901794,364.05292081832886,364.05292081832886,364.05292081832886,364.05292081832886,364.05292081832886,364.05292081832886,364.05292081832886,365.9743883609772,1,2.0534615516662598,None,,,,,,,,,,,,,,,,,,189,1,2025-03-05_11h04.36.812,comp,2024.2.4,56.130538875677324,2025-03-05 11h04.48.264072 -0500,
68,68,0,filler_square,None,None,None,None,None,None,None,None,None,None,3,1.192434549331665,None,,,,,0,0,0,0,0,68,68,172,365.99128007888794,,,,,,,,,,,,,,,,,,,,,,,,,,,,,,,,,,,,,,,,,,,,,,,,,,,,,,,,,,,,,,,,,,,,,,,,,,,,,,,,,171.60373964662094,99.31562627715057,72.66575907043459,121.59539143148635,174.88822474479446,174.88822474479446,2.1,2.11,-206,271,0,261,244,-282,365.97648763656616,365.9765660762787,365.97985100746155,365.99128007888794,366.1378388404846,366.1378388404846,366.1378388404846,366.1378388404846,366.1378388404846,366.1378388404846,366.1378388404846,367.18709325790405,3,1.192434549331665,None,,,,,,,,,,,,,,,,,,189,1,2025-03-05_11h04.36.812,comp,2024.2.4,56.130538875677324,2025-03-05 11h04.48.264072 -0500,
69,69,0,critical,hdw,35.0,3.0,upper,200.0,125.0,127.0,127.0,125.0,200.0,1,3.0290591716766357,None,,,,,0,0,0,0,0,69,69,111,367.2030506134033,,,,,,,,,,,,,,,,,,,,,,,,,,,,,,,,,,,,,,,,,,,,,,,,,,,,,,,,,,,,,,,,,,,,,,,,,,,,,,,,,200.0,125.0,127.0,127.0,125.0,200.0,3.0,3.1,-222,256,0,-20,260,-285,367.18864154815674,367.1887195110321,367.19208121299744,367.2030506134033,367.3646910190582,367.3646910190582,367.3646910190582,367.3646910190582,367.3646910190582,367.3646910190582,367.3646910190582,370.2385756969452,1,3.0290591716766357,None,,,,,,,,,,,,,,,,,,189,1,2025-03-05_11h04.36.812,comp,2024.2.4,56.130538875677324,2025-03-05 11h04.48.264072 -0500,
70,70,0,critical,dwh,35.0,3.0,upper,127.0,127.0,125.0,200.0,200.0,125.0,3,1.655451774597168,None,,,,,0,0,0,0,0,70,70,63,370.2554740905762,,,,,,,,,,,,,,,,,,,,,,,,,,,,,,,,,,,,,,,,,,,,,,,,,,,,,,,,,,,,,,,,,,,,,,,,,,,,,,,,,127.0,127.0,125.0,200.0,200.0,125.0,3.0,3.1,-260,273,0,-18,258,-278,370.24013662338257,370.24021792411804,370.2443253993988,370.2554740905762,370.4040515422821,370.4040515422821,370.4040515422821,370.4040515422821,370.4040515422821,370.4040515422821,370.4040515422821,371.92275381088257,3,1.655451774597168,None,,,,,,,,,,,,,,,,,,189,1,2025-03-05_11h04.36.812,comp,2024.2.4,56.130538875677324,2025-03-05 11h04.48.264072 -0500,
71,71,0,critical,whd,20.0,3.0,upper,125.0,200.0,200.0,125.0,141.0,141.0,2,7.5458457469940186,None,,,,,0,0,0,0,0,71,71,93,371.94141364097595,,,,,,,,,,,,,,,,,,,,,,,,,,,,,,,,,,,,,,,,,,,,,,,,,,,,,,,,,,,,,,,,,,,,,,,,,,,,,,,,,125.0,200.0,200.0,125.0,141.0,141.0,3.0,3.1,-258,254,0,-18,229,-287,371.9243185520172,371.924400806427,371.9283559322357,371.94141364097595,372.0975000858307,372.0975000858307,372.0975000858307,372.0975000858307,372.0975000858307,372.0975000858307,372.0975000858307,379.5058491230011,2,7.5458457469940186,None,,,,,,,,,,,,,,,,,,189,1,2025-03-05_11h04.36.812,comp,2024.2.4,56.130538875677324,2025-03-05 11h04.48.264072 -0500,
72,72,0,filler_random,None,None,None,None,None,None,None,None,None,None,2,2.80308198928833,None,,,,,0,0,0,0,0,72,72,132,379.52385997772217,,,,,,,,,,,,,,,,,,,,,,,,,,,,,,,,,,,,,,,,,,,,,,,,,,,,,,,,,,,,,,,,,,,,,,,,,,,,,,,,,70.89353990001098,99.72052680362526,153.5204602845562,123.97335294050723,129.86266914331594,109.35439536769542,2.1,2.12,-208,-271,0,-270,213,273,379.5076656341553,379.50776767730713,379.5110011100769,379.52385997772217,379.65862226486206,379.65862226486206,379.65862226486206,379.65862226486206,379.65862226486206,379.65862226486206,379.65862226486206,382.3405430316925,2,2.80308198928833,None,,,,,,,,,,,,,,,,,,189,1,2025-03-05_11h04.36.812,comp,2024.2.4,56.130538875677324,2025-03-05 11h04.48.264072 -0500,
73,73,0,filler_random,None,None,None,None,None,None,None,None,None,None,2,1.0189073085784912,None,,,,,0,0,0,0,0,73,73,163,382.35630917549133,,,,,,,,,,,,,,,,,,,,,,,,,,,,,,,,,,,,,,,,,,,,,,,,,,,,,,,,,,,,,,,,,,,,,,,,,,,,,,,,,90.96933785937165,128.23457726137835,123.60415580759991,191.72342155829847,138.77380038268433,66.75693137629683,2.2,2.22,-256,255,0,-271,225,-268,382.3422441482544,382.34234404563904,382.34548330307007,382.35630917549133,382.4984972476959,382.4984972476959,382.4984972476959,382.4984972476959,382.4984972476959,382.4984972476959,382.4984972476959,383.3799977302551,2,1.0189073085784912,None,,,,,,,,,,,,,,,,,,189,1,2025-03-05_11h04.36.812,comp,2024.2.4,56.130538875677324,2025-03-05 11h04.48.264072 -0500,
74,74,0,critical,dwh,35.0,2.1,upper,127.0,127.0,125.0,200.0,200.0,125.0,2,7.4313881397247314,None,,,,,0,0,0,0,0,74,74,5,383.40058422088623,,,,,,,,,,,,,,,,,,,,,,,,,,,,,,,,,,,,,,,,,,,,,,,,,,,,,,,,,,,,,,,,,,,,,,,,,,,,,,,,,127.0,127.0,125.0,200.0,200.0,125.0,2.1,2.12,-260,-270,0,-264,258,276,383.381680727005,383.38181495666504,383.3850748538971,383.40058422088623,383.5427939891815,383.5427939891815,383.5427939891815,383.5427939891815,383.5427939891815,383.5427939891815,383.5427939891815,390.8375651836395,2,7.4313881397247314,None,,,,,,,,,,,,,,,,,,189,1,2025-03-05_11h04.36.812,comp,2024.2.4,56.130538875677324,2025-03-05 11h04.48.264072 -0500,
75,75,0,filler_random,None,None,None,None,None,None,None,None,None,None,2,3.026174783706665,None,,,,,0,0,0,0,0,75,75,134,390.8534166812897,,,,,,,,,,,,,,,,,,,,,,,,,,,,,,,,,,,,,,,,,,,,,,,,,,,,,,,,,,,,,,,,,,,,,,,,,,,,,,,,,158.7891528900214,115.2117203448411,195.79119107066194,109.48705273773277,133.0316694485035,79.29422935539037,4.0,4.1,-208,-278,0,-8,190,-257,390.83931255340576,390.8393976688385,390.84250569343567,390.8534166812897,390.99421429634094,390.99421429634094,390.99421429634094,390.99421429634094,390.99421429634094,390.99421429634094,390.99421429634094,393.88771963119507,2,3.026174783706665,None,,,,,,,,,,,,,,,,,,189,1,2025-03-05_11h04.36.812,comp,2024.2.4,56.130538875677324,2025-03-05 11h04.48.264072 -0500,
76,76,0,critical,wdh,20.0,3.0,upper,125.0,200.0,141.0,141.0,200.0,125.0,3,4.026274919509888,None,,,,,0,0,0,0,0,76,76,81,393.90864086151123,,,,,,,,,,,,,,,,,,,,,,,,,,,,,,,,,,,,,,,,,,,,,,,,,,,,,,,,,,,,,,,,,,,,,,,,,,,,,,,,,125.0,200.0,141.0,141.0,200.0,125.0,3.0,3.2,-266,-264,0,11,229,255,393.8893051147461,393.88940262794495,393.8927729129791,393.90864086151123,394.0536513328552,394.0536513328552,394.0536513328552,394.0536513328552,394.0536513328552,394.0536513328552,394.0536513328552,397.94766330718994,3,4.026274919509888,None,,,,,,,,,,,,,,,,,,189,1,2025-03-05_11h04.36.812,comp,2024.2.4,56.130538875677324,2025-03-05 11h04.48.264072 -0500,
77,77,0,critical,wdh,35.0,1.0,lower,57.0,133.0,70.0,70.0,133.0,57.0,3,10.689260005950928,None,,,,,0,0,0,0,0,77,77,72,397.9657332897186,,,,,,,,,,,,,,,,,,,,,,,,,,,,,,,,,,,,,,,,,,,,,,,,,,,,,,,,,,,,,,,,,,,,,,,,,,,,,,,,,57.0,133.0,70.0,70.0,133.0,57.0,1.0,1.2,-198,-12,0,8,160,14,397.9491910934448,397.9492700099945,397.9526867866516,397.9657332897186,398.11282777786255,398.11282777786255,398.11282777786255,398.11282777786255,398.11282777786255,398.11282777786255,398.11282777786255,408.6741201877594,3,10.689260005950928,None,,,,,,,,,,,,,,,,,,189,1,2025-03-05_11h04.36.812,comp,2024.2.4,56.130538875677324,2025-03-05 11h04.48.264072 -0500,
78,78,0,critical,dhw,35.0,2.1,upper,127.0,127.0,200.0,125.0,125.0,200.0,3,5.099473476409912,None,,,,,0,0,0,0,0,78,78,25,408.6919116973877,,,,,,,,,,,,,,,,,,,,,,,,,,,,,,,,,,,,,,,,,,,,,,,,,,,,,,,,,,,,,,,,,,,,,,,,,,,,,,,,,127.0,127.0,200.0,125.0,125.0,200.0,2.1,2.11,-222,259,0,262,258,-268,408.67575240135193,408.67586040496826,408.6791903972626,408.6919116973877,408.83238101005554,408.83238101005554,408.83238101005554,408.83238101005554,408.83238101005554,408.83238101005554,408.83238101005554,413.80089139938354,3,5.099473476409912,None,,,,,,,,,,,,,,,,,,189,1,2025-03-05_11h04.36.812,comp,2024.2.4,56.130538875677324,2025-03-05 11h04.48.264072 -0500,
79,79,0,critical,dwh,35.0,2.1,lower,70.0,70.0,57.0,133.0,133.0,57.0,3,2.6849098205566406,None,,,,,0,0,0,0,0,79,79,4,413.8180797100067,,,,,,,,,,,,,,,,,,,,,,,,,,,,,,,,,,,,,,,,,,,,,,,,,,,,,,,,,,,,,,,,,,,,,,,,,,,,,,,,,70.0,70.0,57.0,133.0,133.0,57.0,2.1,2.12,-198,-264,0,-273,191,269,413.8024730682373,413.80255651474,413.80619835853577,413.8180797100067,413.9747414588928,413.9747414588928,413.9747414588928,413.9747414588928,413.9747414588928,413.9747414588928,413.9747414588928,416.52268409729004,3,2.6849098205566406,None,,,,,,,,,,,,,,,,,,189,1,2025-03-05_11h04.36.812,comp,2024.2.4,56.130538875677324,2025-03-05 11h04.48.264072 -0500,
80,80,0,catch,None,None,None,None,None,None,None,None,None,None,2,1.0557153224945068,None,,,,,0,0,0,0,0,80,80,123,416.5437226295471,,,,,,,,,,,,,,,,,,,,,,,,,,,,,,,,,,,,,,,,,,,,,,,,,,,,,,,,,,,,,,,,,,,,,,,,,,,,,,,,,116,74,176,149,69,121,2.1,2.11,-208,265,0,255,231,-251,416.52484917640686,416.52493166923523,416.52838945388794,416.5437226295471,416.6866657733917,416.6866657733917,416.6866657733917,416.6866657733917,416.6866657733917,416.6866657733917,416.6866657733917,417.6018486022949,2,1.0557153224945068,None,,,,,,,,,,,,,,,,,,189,1,2025-03-05_11h04.36.812,comp,2024.2.4,56.130538875677324,2025-03-05 11h04.48.264072 -0500,
81,81,0,critical,hdw,35.0,2.1,lower,133.0,57.0,70.0,70.0,57.0,133.0,1,4.6364099979400635,None,,,,,0,0,0,0,0,81,81,20,417.6188588142395,,,,,,,,,,,,,,,,,,,,,,,,,,,,,,,,,,,,,,,,,,,,,,,,,,,,,,,,,,,,,,,,,,,,,,,,,,,,,,,,,133.0,57.0,70.0,70.0,57.0,133.0,2.1,2.12,-160,-257,0,-289,198,271,417.60344409942627,417.6035215854645,417.6069140434265,417.6188588142395,417.758038520813,417.758038520813,417.758038520813,417.758038520813,417.758038520813,417.758038520813,417.758038520813,422.272962808609,1,4.6364099979400635,None,,,,,,,,,,,,,,,,,,189,1,2025-03-05_11h04.36.812,comp,2024.2.4,56.130538875677324,2025-03-05 11h04.48.264072 -0500,
82,82,0,critical,dwh,35.0,4.0,upper,127.0,127.0,125.0,200.0,200.0,125.0,3,2.2226643562316895,None,,,,,0,0,0,0,0,82,82,65,422.2884566783905,,,,,,,,,,,,,,,,,,,,,,,,,,,,,,,,,,,,,,,,,,,,,,,,,,,,,,,,,,,,,,,,,,,,,,,,,,,,,,,,,127.0,127.0,125.0,200.0,200.0,125.0,4.0,4.1,-260,-279,0,6,258,-266,422.2745523452759,422.2746329307556,422.2778923511505,422.2884566783905,422.43847846984863,422.43847846984863,422.43847846984863,422.43847846984863,422.43847846984863,422.43847846984863,422.43847846984863,424.5250418186188,3,2.2226643562316895,None,,,,,,,,,,,,,,,,,,189,1,2025-03-05_11h04.36.812,comp,2024.2.4,56.130538875677324,2025-03-05 11h04.48.264072 -0500,
83,83,0,filler_square,None,None,None,None,None,None,None,None,None,None,2,1.0946433544158936,None,,,,,0,0,0,0,0,83,83,173,424.54532051086426,,,,,,,,,,,,,,,,,,,,,,,,,,,,,,,,,,,,,,,,,,,,,,,,,,,,,,,,,,,,,,,,,,,,,,,,,,,,,,,,,131.2566196322764,102.26010356905107,195.707118881164,195.707118881164,162.7838834487739,57.88802055067726,1.0,1.1,-725,268,-480,279,-257,265,424.52717661857605,424.5272572040558,424.530531167984,424.54532051086426,424.6895227432251,424.6895227432251,424.6895227432251,424.6895227432251,424.6895227432251,424.6895227432251,424.6895227432251,425.64242815971375,2,1.0946433544158936,None,,,,,,,,,,,,,,,,,,189,1,2025-03-05_11h04.36.812,comp,2024.2.4,56.130538875677324,2025-03-05 11h04.48.264072 -0500,
84,84,0,critical,hdw,20.0,2.1,lower,133.0,57.0,78.0,78.0,57.0,133.0,3,6.1881232261657715,None,,,,,0,0,0,0,0,84,84,46,425.65890192985535,,,,,,,,,,,,,,,,,,,,,,,,,,,,,,,,,,,,,,,,,,,,,,,,,,,,,,,,,,,,,,,,,,,,,,,,,,,,,,,,,133.0,57.0,78.0,78.0,57.0,133.0,2.1,2.11,-164,270,0,265,202,-263,425.6439962387085,425.6440751552582,425.6480097770691,425.65890192985535,425.8094410896301,425.8094410896301,425.8094410896301,425.8094410896301,425.8094410896301,425.8094410896301,425.8094410896301,431.8571107387543,3,6.1881232261657715,None,,,,,,,,,,,,,,,,,,189,1,2025-03-05_11h04.36.812,comp,2024.2.4,56.130538875677324,2025-03-05 11h04.48.264072 -0500,
85,85,0,critical,dwh,35.0,3.0,lower,70.0,70.0,57.0,133.0,133.0,57.0,2,6.958604335784912,None,,,,,0,0,0,0,0,85,85,62,431.8734323978424,,,,,,,,,,,,,,,,,,,,,,,,,,,,,,,,,,,,,,,,,,,,,,,,,,,,,,,,,,,,,,,,,,,,,,,,,,,,,,,,,70.0,70.0,57.0,133.0,133.0,57.0,3.0,3.2,-198,-277,0,17,191,255,431.8587760925293,431.8589098453522,431.8623971939087,431.8734323978424,432.02111291885376,432.02111291885376,432.02111291885376,432.02111291885376,432.02111291885376,432.02111291885376,432.02111291885376,438.8418221473694,2,6.958604335784912,None,,,,,,,,,,,,,,,,,,189,1,2025-03-05_11h04.36.812,comp,2024.2.4,56.130538875677324,2025-03-05 11h04.48.264072 -0500,
86,86,0,filler_square,None,None,None,None,None,None,None,None,None,None,1,1.3908841609954834,None,,,,,0,0,0,0,0,86,86,181,438.86478209495544,,,,,,,,,,,,,,,,,,,,,,,,,,,,,,,,,,,,,,,,,,,,,,,,,,,,,,,,,,,,,,,,,,,,,,,,,,,,,,,,,190.44521925002624,190.44521925002624,62.63101329389303,64.19356900841095,103.5523823397639,145.02083148819924,2.1,2.11,-223,252,0,275,201,-282,438.8436470031738,438.843727350235,438.8468990325928,438.86478209495544,439.0131323337555,439.0131323337555,439.0131323337555,439.0131323337555,439.0131323337555,439.0131323337555,439.0131323337555,440.2590796947479,1,1.3908841609954834,None,,,,,,,,,,,,,,,,,,189,1,2025-03-05_11h04.36.812,comp,2024.2.4,56.130538875677324,2025-03-05 11h04.48.264072 -0500,
87,87,0,critical,hdw,20.0,4.0,upper,200.0,125.0,141.0,141.0,125.0,200.0,3,3.6851465702056885,None,,,,,0,0,0,0,0,87,87,119,440.2748336791992,,,,,,,,,,,,,,,,,,,,,,,,,,,,,,,,,,,,,,,,,,,,,,,,,,,,,,,,,,,,,,,,,,,,,,,,,,,,,,,,,200.0,125.0,141.0,141.0,125.0,200.0,4.0,4.2,-229,19,0,-271,266,5,440.26063680648804,440.2607171535492,440.26389026641846,440.2748336791992,440.4286494255066,440.4286494255066,440.4286494255066,440.4286494255066,440.4286494255066,440.4286494255066,440.4286494255066,443.97773790359497,3,3.6851465702056885,None,,,,,,,,,,,,,,,,,,189,1,2025-03-05_11h04.36.812,comp,2024.2.4,56.130538875677324,2025-03-05 11h04.48.264072 -0500,
88,88,0,catch,None,None,None,None,None,None,None,None,None,None,3,1.3589122295379639,None,,,,,0,0,0,0,0,88,88,129,443.99349451065063,,,,,,,,,,,,,,,,,,,,,,,,,,,,,,,,,,,,,,,,,,,,,,,,,,,,,,,,,,,,,,,,,,,,,,,,,,,,,,,,,99,91,82,108,164,161,3.0,3.2,-196,-272,0,-17,230,265,443.9796462059021,443.97972536087036,443.9831268787384,443.99349451065063,444.14659667015076,444.14659667015076,444.14659667015076,444.14659667015076,444.14659667015076,444.14659667015076,444.14659667015076,445.36377334594727,3,1.3589122295379639,None,,,,,,,,,,,,,,,,,,189,1,2025-03-05_11h04.36.812,comp,2024.2.4,56.130538875677324,2025-03-05 11h04.48.264072 -0500,
89,89,0,critical,dwh,35.0,1.0,lower,70.0,70.0,57.0,133.0,133.0,57.0,3,5.899240970611572,None,,,,,0,0,0,0,0,89,89,60,445.38060212135315,,,,,,,,,,,,,,,,,,,,,,,,,,,,,,,,,,,,,,,,,,,,,,,,,,,,,,,,,,,,,,,,,,,,,,,,,,,,,,,,,70.0,70.0,57.0,133.0,133.0,57.0,1.0,1.1,-678,270,-480,268,-289,256,445.3655278682709,445.36561036109924,445.36952209472656,445.38060212135315,445.52839398384094,445.52839398384094,445.52839398384094,445.52839398384094,445.52839398384094,445.52839398384094,445.52839398384094,451.2980856895447,3,5.899240970611572,None,,,,,,,,,,,,,,,,,,189,1,2025-03-05_11h04.36.812,comp,2024.2.4,56.130538875677324,2025-03-05 11h04.48.264072 -0500,
90,90,0,critical,hdw,20.0,3.0,upper,200.0,125.0,141.0,141.0,125.0,200.0,3,4.7889251708984375,None,,,,,0,0,0,0,0,90,90,117,451.31415915489197,,,,,,,,,,,,,,,,,,,,,,,,,,,,,,,,,,,,,,,,,,,,,,,,,,,,,,,,,,,,,,,,,,,,,,,,,,,,,,,,,200.0,125.0,141.0,141.0,125.0,200.0,3.0,3.2,-229,-252,0,-6,266,287,451.2997148036957,451.2998445034027,451.303750038147,451.31415915489197,451.46137595176697,451.46137595176697,451.46137595176697,451.46137595176697,451.46137595176697,451.46137595176697,451.46137595176697,456.11363554000854,3,4.7889251708984375,None,,,,,,,,,,,,,,,,,,189,1,2025-03-05_11h04.36.812,comp,2024.2.4,56.130538875677324,2025-03-05 11h04.48.264072 -0500,
91,91,0,critical,whd,35.0,2.1,lower,57.0,133.0,133.0,57.0,70.0,70.0,2,4.1489715576171875,None,,,,,0,0,0,0,0,91,91,36,456.13019251823425,,,,,,,,,,,,,,,,,,,,,,,,,,,,,,,,,,,,,,,,,,,,,,,,,,,,,,,,,,,,,,,,,,,,,,,,,,,,,,,,,57.0,133.0,133.0,57.0,70.0,70.0,2.1,2.12,-191,-261,0,-276,160,281,456.1151466369629,456.11522579193115,456.11811804771423,456.13019251823425,456.26963233947754,456.26963233947754,456.26963233947754,456.26963233947754,456.26963233947754,456.26963233947754,456.26963233947754,460.28288888931274,2,4.1489715576171875,None,,,,,,,,,,,,,,,,,,189,1,2025-03-05_11h04.36.812,comp,2024.2.4,56.130538875677324,2025-03-05 11h04.48.264072 -0500,
92,92,0,critical,hdw,35.0,4.0,lower,133.0,57.0,70.0,70.0,57.0,133.0,1,4.964410066604614,None,,,,,0,0,0,0,0,92,92,112,460.2992079257965,,,,,,,,,,,,,,,,,,,,,,,,,,,,,,,,,,,,,,,,,,,,,,,,,,,,,,,,,,,,,,,,,,,,,,,,,,,,,,,,,133.0,57.0,70.0,70.0,57.0,133.0,4.0,4.1,-160,-280,0,-5,198,-278,460.2845239639282,460.28464007377625,460.28815054893494,460.2992079257965,460.4463469982147,460.4463469982147,460.4463469982147,460.4463469982147,460.4463469982147,460.4463469982147,460.4463469982147,465.26692247390747,1,4.964410066604614,None,,,,,,,,,,,,,,,,,,189,1,2025-03-05_11h04.36.812,comp,2024.2.4,56.130538875677324,2025-03-05 11h04.48.264072 -0500,
93,93,0,critical,dwh,20.0,3.0,lower,78.0,78.0,57.0,133.0,133.0,57.0,2,10.127232074737549,None,,,,,0,0,0,0,0,93,93,68,465.288049697876,,,,,,,,,,,,,,,,,,,,,,,,,,,,,,,,,,,,,,,,,,,,,,,,,,,,,,,,,,,,,,,,,,,,,,,,,,,,,,,,,78.0,78.0,57.0,133.0,133.0,57.0,3.0,3.2,-202,-282,0,-12,191,269,465.2685465812683,465.26868057250977,465.27212142944336,465.288049697876,465.4381673336029,465.4381673336029,465.4381673336029,465.4381673336029,465.4381673336029,465.4381673336029,465.4381673336029,475.42815947532654,2,10.127232074737549,None,,,,,,,,,,,,,,,,,,189,1,2025-03-05_11h04.36.812,comp,2024.2.4,56.130538875677324,2025-03-05 11h04.48.264072 -0500,
94,94,0,filler_square,None,None,None,None,None,None,None,None,None,None,2,2.5225398540496826,None,,,,,0,0,0,0,0,94,94,204,475.44520449638367,,,,,,,,,,,,,,,,,,,,,,,,,,,,,,,,,,,,,,,,,,,,,,,,,,,,,,,,,,,,,,,,,,,,,,,,,,,,,,,,,74.86993249701136,71.73966021356611,87.28584415101892,87.28584415101892,67.4275397594017,73.98875590960968,1.0,1.1,-656,261,-480,263,-303,267,475.42999601364136,475.43007373809814,475.4329800605774,475.44520449638367,475.58825516700745,475.58825516700745,475.58825516700745,475.58825516700745,475.58825516700745,475.58825516700745,475.58825516700745,477.973180770874,2,2.5225398540496826,None,,,,,,,,,,,,,,,,,,189,1,2025-03-05_11h04.36.812,comp,2024.2.4,56.130538875677324,2025-03-05 11h04.48.264072 -0500,
95,95,0,critical,wdh,35.0,2.1,upper,125.0,200.0,127.0,127.0,200.0,125.0,3,6.9644622802734375,None,,,,,0,0,0,0,0,95,95,9,477.9945273399353,,,,,,,,,,,,,,,,,,,,,,,,,,,,,,,,,,,,,,,,,,,,,,,,,,,,,,,,,,,,,,,,,,,,,,,,,,,,,,,,,125.0,200.0,127.0,127.0,200.0,125.0,2.1,2.11,-260,284,0,284,222,-273,477.9749367237091,477.97505164146423,477.97883105278015,477.9945273399353,478.13103199005127,478.13103199005127,478.13103199005127,478.13103199005127,478.13103199005127,478.13103199005127,478.13103199005127,484.97324800491333,3,6.9644622802734375,None,,,,,,,,,,,,,,,,,,189,1,2025-03-05_11h04.36.812,comp,2024.2.4,56.130538875677324,2025-03-05 11h04.48.264072 -0500,
96,96,0,critical,dhw,35.0,1.0,lower,70.0,70.0,133.0,57.0,57.0,133.0,2,3.5865237712860107,None,,,,,0,0,0,0,0,96,96,48,484.9895694255829,,,,,,,,,,,,,,,,,,,,,,,,,,,,,,,,,,,,,,,,,,,,,,,,,,,,,,,,,,,,,,,,,,,,,,,,,,,,,,,,,70.0,70.0,133.0,57.0,57.0,133.0,1.0,1.1,-640,285,-480,274,-289,272,484.9741425514221,484.97418236732483,484.9758970737457,484.9895694255829,485.14618372917175,485.14618372917175,485.14618372917175,485.14618372917175,485.14618372917175,485.14618372917175,485.14618372917175,488.5830280780792,2,3.5865237712860107,None,,,,,,,,,,,,,,,,,,189,1,2025-03-05_11h04.36.812,comp,2024.2.4,56.130538875677324,2025-03-05 11h04.48.264072 -0500,
97,97,0,critical,whd,20.0,4.0,lower,57.0,133.0,133.0,57.0,78.0,78.0,3,2.9668116569519043,None,,,,,0,0,0,0,0,97,97,94,488.6014976501465,,,,,,,,,,,,,,,,,,,,,,,,,,,,,,,,,,,,,,,,,,,,,,,,,,,,,,,,,,,,,,,,,,,,,,,,,,,,,,,,,57.0,133.0,133.0,57.0,78.0,78.0,4.0,4.1,-191,-277,0,10,164,-283,488.58472299575806,488.5848548412323,488.5881106853485,488.6014976501465,488.7426040172577,488.7426040172577,488.7426040172577,488.7426040172577,488.7426040172577,488.7426040172577,488.7426040172577,491.5787124633789,3,2.9668116569519043,None,,,,,,,,,,,,,,,,,,189,1,2025-03-05_11h04.36.812,comp,2024.2.4,56.130538875677324,2025-03-05 11h04.48.264072 -0500,
98,98,0,critical,dhw,35.0,1.0,upper,127.0,127.0,200.0,125.0,125.0,200.0,3,7.349114656448364,None,,,,,0,0,0,0,0,98,98,49,491.59505891799927,,,,,,,,,,,,,,,,,,,,,,,,,,,,,,,,,,,,,,,,,,,,,,,,,,,,,,,,,,,,,,,,,,,,,,,,,,,,,,,,,127.0,127.0,200.0,125.0,125.0,200.0,1.0,1.3,258,-252,480,-257,738,-260,491.58034086227417,491.58046102523804,491.583997964859,491.59505891799927,491.746262550354,491.746262550354,491.746262550354,491.746262550354,491.746262550354,491.746262550354,491.746262550354,498.95088291168213,3,7.349114656448364,None,,,,,,,,,,,,,,,,,,189,1,2025-03-05_11h04.36.812,comp,2024.2.4,56.130538875677324,2025-03-05 11h04.48.264072 -0500,
99,99,0,filler_square,None,None,None,None,None,None,None,None,None,None,3,3.1778948307037354,None,,,,,0,0,0,0,0,99,99,209,498.96553921699524,,,,,,,,,,,,,,,,,,,,,,,,,,,,,,,,,,,,,,,,,,,,,,,,,,,,,,,,,,,,,,,,,,,,,,,,,,,,,,,,,63.148673363412954,60.622863944895194,58.065320684708055,58.95719112463298,63.849540182117444,63.849540182117444,2.2,2.21,-156,-274,0,264,157,252,498.9526288509369,498.9527065753937,498.95560216903687,498.96553921699524,499.1115143299103,499.1115143299103,499.1115143299103,499.1115143299103,499.1115143299103,499.1115143299103,499.1115143299103,502.14849948883057,3,3.1778948307037354,None,,,,,,,,,,,,,,,,,,189,1,2025-03-05_11h04.36.812,comp,2024.2.4,56.130538875677324,2025-03-05 11h04.48.264072 -0500,
100,100,0,critical,dhw,35.0,3.0,lower,70.0,70.0,133.0,57.0,57.0,133.0,3,1.8322319984436035,None,,,,,0,0,0,0,0,100,100,50,502.1671624183655,,,,,,,,,,,,,,,,,,,,,,,,,,,,,,,,,,,,,,,,,,,,,,,,,,,,,,,,,,,,,,,,,,,,,,,,,,,,,,,,,70.0,70.0,133.0,57.0,57.0,133.0,3.0,3.1,-160,285,0,-13,191,-267,502.15012311935425,502.1502068042755,502.1533451080322,502.1671624183655,502.31325006484985,502.31325006484985,502.31325006484985,502.31325006484985,502.31325006484985,502.31325006484985,502.31325006484985,504.01354718208313,3,1.8322319984436035,None,,,,,,,,,,,,,,,,,,189,1,2025-03-05_11h04.36.812,comp,2024.2.4,56.130538875677324,2025-03-05 11h04.48.264072 -0500,
101,101,0,filler_square,None,None,None,None,None,None,None,None,None,None,1,6.129335641860962,None,,,,,0,0,0,0,0,101,101,186,504.030131816864,,,,,,,,,,,,,,,,,,,,,,,,,,,,,,,,,,,,,,,,,,,,,,,,,,,,,,,,,,,,,,,,,,,,,,,,,,,,,,,,,184.81161019666573,184.81161019666573,176.0086477532381,175.92605004606816,96.31005392778161,177.52303286345935,2.1,2.11,-276,288,0,263,273,-250,504.0152666568756,504.0154085159302,504.01955485343933,504.030131816864,504.18112659454346,504.18112659454346,504.18112659454346,504.18112659454346,504.18112659454346,504.18112659454346,504.18112659454346,510.1774594783783,1,6.129335641860962,None,,,,,,,,,,,,,,,,,,189,1,2025-03-05_11h04.36.812,comp,2024.2.4,56.130538875677324,2025-03-05 11h04.48.264072 -0500,
102,102,0,filler_square,None,None,None,None,None,None,None,None,None,None,2,2.750342607498169,None,,,,,0,0,0,0,0,102,102,203,510.1929738521576,,,,,,,,,,,,,,,,,,,,,,,,,,,,,,,,,,,,,,,,,,,,,,,,,,,,,,,,,,,,,,,,,,,,,,,,,,,,,,,,,168.64012610094937,188.91094056754392,196.0916324733836,196.0916324733836,114.6284340632238,105.91112828971406,2.2,2.21,-289,-250,0,275,247,279,510.17921447753906,510.1793143749237,510.182222366333,510.1929738521576,510.3328654766083,510.3328654766083,510.3328654766083,510.3328654766083,510.3328654766083,510.3328654766083,510.3328654766083,512.9529006481171,2,2.750342607498169,None,,,,,,,,,,,,,,,,,,189,1,2025-03-05_11h04.36.812,comp,2024.2.4,56.130538875677324,2025-03-05 11h04.48.264072 -0500,
103,103,0,filler_square,None,None,None,None,None,None,None,None,None,None,3,1.5434160232543945,None,,,,,0,0,0,0,0,103,103,193,512.968866109848,,,,,,,,,,,,,,,,,,,,,,,,,,,,,,,,,,,,,,,,,,,,,,,,,,,,,,,,,,,,,,,,,,,,,,,,,,,,,,,,,128.92182236320946,149.23943706168768,81.66883070172044,68.575350647591,178.9624466673572,178.9624466673572,4.0,4.1,-205,-284,0,-19,220,-288,512.9547226428986,512.9548056125641,512.958016872406,512.968866109848,513.1164693832397,513.1164693832397,513.1164693832397,513.1164693832397,513.1164693832397,513.1164693832397,513.1164693832397,514.5171928405762,3,1.5434160232543945,None,,,,,,,,,,,,,,,,,,189,1,2025-03-05_11h04.36.812,comp,2024.2.4,56.130538875677324,2025-03-05 11h04.48.264072 -0500,
104,104,0,filler_random,None,None,None,None,None,None,None,None,None,None,1,5.193229675292969,None,,,,,0,0,0,0,0,104,104,136,514.534384727478,,,,,,,,,,,,,,,,,,,,,,,,,,,,,,,,,,,,,,,,,,,,,,,,,,,,,,,,,,,,,,,,,,,,,,,,,,,,,,,,,89.93046518294221,85.87442386074252,73.40326084269415,71.37346131685861,62.06826579570088,117.8574018377771,4.0,4.1,-175,-259,0,-4,191,-257,514.5188782215118,514.5189571380615,514.5231974124908,514.534384727478,514.6859471797943,514.6859471797943,514.6859471797943,514.6859471797943,514.6859471797943,514.6859471797943,514.6859471797943,519.7383413314819,1,5.193229675292969,None,,,,,,,,,,,,,,,,,,189,1,2025-03-05_11h04.36.812,comp,2024.2.4,56.130538875677324,2025-03-05 11h04.48.264072 -0500,
105,105,0,filler_square,None,None,None,None,None,None,None,None,None,None,1,8.876703977584839,None,,,,,0,0,0,0,0,105,105,189,519.7551126480103,,,,,,,,,,,,,,,,,,,,,,,,,,,,,,,,,,,,,,,,,,,,,,,,,,,,,,,,,,,,,,,,,,,,,,,,,,,,,,,,,78.94819589380921,78.94819589380921,67.84549396787246,69.16879297458654,78.52756411161006,58.916353906924364,1.0,1.1,-650,262,-480,264,-320,259,519.7401509284973,519.7402300834656,519.7442011833191,519.7551126480103,519.9026374816895,519.9026374816895,519.9026374816895,519.9026374816895,519.9026374816895,519.9026374816895,519.9026374816895,528.6386029720306,1,8.876703977584839,None,,,,,,,,,,,,,,,,,,189,1,2025-03-05_11h04.36.812,comp,2024.2.4,56.130538875677324,2025-03-05 11h04.48.264072 -0500,
106,106,0,critical,whd,20.0,2.1,upper,125.0,200.0,200.0,125.0,141.0,141.0,2,6.1749279499053955,None,,,,,0,0,0,0,0,106,106,39,528.6564815044403,,,,,,,,,,,,,,,,,,,,,,,,,,,,,,,,,,,,,,,,,,,,,,,,,,,,,,,,,,,,,,,,,,,,,,,,,,,,,,,,,125.0,200.0,200.0,125.0,141.0,141.0,2.1,2.11,-258,270,0,286,229,-266,528.6400899887085,528.6401689052582,528.6430487632751,528.6564815044403,528.8050453662872,528.8050453662872,528.8050453662872,528.8050453662872,528.8050453662872,528.8050453662872,528.8050453662872,534.8336057662964,2,6.1749279499053955,None,,,,,,,,,,,,,,,,,,189,1,2025-03-05_11h04.36.812,comp,2024.2.4,56.130538875677324,2025-03-05 11h04.48.264072 -0500,
107,107,0,critical,whd,35.0,1.0,upper,125.0,200.0,200.0,125.0,127.0,127.0,2,3.5454530715942383,None,,,,,0,0,0,0,0,107,107,85,534.8538582324982,,,,,,,,,,,,,,,,,,,,,,,,,,,,,,,,,,,,,,,,,,,,,,,,,,,,,,,,,,,,,,,,,,,,,,,,,,,,,,,,,125.0,200.0,200.0,125.0,127.0,127.0,1.0,1.1,-738,267,-480,283,-258,282,534.8350768089294,534.8351576328278,534.8380770683289,534.8538582324982,534.9903202056885,534.9903202056885,534.9903202056885,534.9903202056885,534.9903202056885,534.9903202056885,534.9903202056885,538.4088170528412,2,3.5454530715942383,None,,,,,,,,,,,,,,,,,,189,1,2025-03-05_11h04.36.812,comp,2024.2.4,56.130538875677324,2025-03-05 11h04.48.264072 -0500,
108,108,0,catch,None,None,None,None,None,None,None,None,None,None,3,1.2084558010101318,None,,,,,0,0,0,0,0,108,108,121,538.426112651825,,,,,,,,,,,,,,,,,,,,,,,,,,,,,,,,,,,,,,,,,,,,,,,,,,,,,,,,,,,,,,,,,,,,,,,,,,,,,,,,,80,110,76,114,151,174,4.0,4.2,-208,-16,0,-272,240,-1,538.4111521244049,538.4112358093262,538.4151408672333,538.426112651825,538.5771746635437,538.5771746635437,538.5771746635437,538.5771746635437,538.5771746635437,538.5771746635437,538.5771746635437,539.6406364440918,3,1.2084558010101318,None,,,,,,,,,,,,,,,,,,189,1,2025-03-05_11h04.36.812,comp,2024.2.4,56.130538875677324,2025-03-05 11h04.48.264072 -0500,
109,109,0,critical,hdw,20.0,1.0,lower,133.0,57.0,78.0,78.0,57.0,133.0,3,6.118476867675781,None,,,,,0,0,0,0,0,109,109,114,539.657623052597,,,,,,,,,,,,,,,,,,,,,,,,,,,,,,,,,,,,,,,,,,,,,,,,,,,,,,,,,,,,,,,,,,,,,,,,,,,,,,,,,133.0,57.0,78.0,78.0,57.0,133.0,1.0,1.3,316,-285,480,-287,682,-290,539.642195224762,539.6423263549805,539.6459355354309,539.657623052597,539.8134682178497,539.8134682178497,539.8134682178497,539.8134682178497,539.8134682178497,539.8134682178497,539.8134682178497,545.795259475708,3,6.118476867675781,None,,,,,,,,,,,,,,,,,,189,1,2025-03-05_11h04.36.812,comp,2024.2.4,56.130538875677324,2025-03-05 11h04.48.264072 -0500,
110,110,0,critical,dwh,20.0,1.0,lower,78.0,78.0,57.0,133.0,133.0,57.0,3,5.629355430603027,None,,,,,0,0,0,0,0,110,110,66,545.8106372356415,,,,,,,,,,,,,,,,,,,,,,,,,,,,,,,,,,,,,,,,,,,,,,,,,,,,,,,,,,,,,,,,,,,,,,,,,,,,,,,,,78.0,78.0,57.0,133.0,133.0,57.0,1.0,1.3,278,-286,480,-272,671,-275,545.7969036102295,545.7969839572906,545.8002400398254,545.8106372356415,545.959082365036,545.959082365036,545.959082365036,545.959082365036,545.959082365036,545.959082365036,545.959082365036,551.4464716911316,3,5.629355430603027,None,,,,,,,,,,,,,,,,,,189,1,2025-03-05_11h04.36.812,comp,2024.2.4,56.130538875677324,2025-03-05 11h04.48.264072 -0500,
111,111,0,filler_square,None,None,None,None,None,None,None,None,None,None,2,1.712411880493164,None,,,,,0,0,0,0,0,111,111,187,551.4646303653717,,,,,,,,,,,,,,,,,,,,,,,,,,,,,,,,,,,,,,,,,,,,,,,,,,,,,,,,,,,,,,,,,,,,,,,,,,,,,,,,,97.94410301425998,76.11411741851063,100.44230440607245,100.44230440607245,94.07156833477671,90.41239617063488,2.1,2.11,-184,286,0,262,191,-288,551.448367357254,551.4484479427338,551.4515285491943,551.4646303653717,551.6100730895996,551.6100730895996,551.6100730895996,551.6100730895996,551.6100730895996,551.6100730895996,551.6100730895996,553.1805131435394,2,1.712411880493164,None,,,,,,,,,,,,,,,,,,189,1,2025-03-05_11h04.36.812,comp,2024.2.4,56.130538875677324,2025-03-05 11h04.48.264072 -0500,
112,112,0,critical,dwh,20.0,2.1,lower,78.0,78.0,57.0,133.0,133.0,57.0,2,3.363504648208618,None,,,,,0,0,0,0,0,112,112,6,553.1962389945984,,,,,,,,,,,,,,,,,,,,,,,,,,,,,,,,,,,,,,,,,,,,,,,,,,,,,,,,,,,,,,,,,,,,,,,,,,,,,,,,,78.0,78.0,57.0,133.0,133.0,57.0,2.1,2.12,-202,-265,0,-257,191,267,553.1820676326752,553.1821451187134,553.1850633621216,553.1962389945984,553.3493494987488,553.3493494987488,553.3493494987488,553.3493494987488,553.3493494987488,553.3493494987488,553.3493494987488,556.5695283412933,2,3.363504648208618,None,,,,,,,,,,,,,,,,,,189,1,2025-03-05_11h04.36.812,comp,2024.2.4,56.130538875677324,2025-03-05 11h04.48.264072 -0500,
113,113,0,filler_random,None,None,None,None,None,None,None,None,None,None,2,1.7743103504180908,None,,,,,0,0,0,0,0,113,113,143,556.5859847068787,,,,,,,,,,,,,,,,,,,,,,,,,,,,,,,,,,,,,,,,,,,,,,,,,,,,,,,,,,,,,,,,,,,,,,,,,,,,,,,,,84.73619076647098,170.7499242861637,183.05364587077014,184.25864168900642,167.58194846983216,108.32104581376859,4.0,4.2,-274,-11,0,-287,242,12,556.5713121891022,556.571396112442,556.5743153095245,556.5859847068787,556.7269034385681,556.7269034385681,556.7269034385681,556.7269034385681,556.7269034385681,556.7269034385681,556.7269034385681,558.363972902298,2,1.7743103504180908,None,,,,,,,,,,,,,,,,,,189,1,2025-03-05_11h04.36.812,comp,2024.2.4,56.130538875677324,2025-03-05 11h04.48.264072 -0500,
114,114,0,critical,wdh,35.0,3.0,upper,125.0,200.0,127.0,127.0,200.0,125.0,3,3.1308140754699707,None,,,,,0,0,0,0,0,114,114,75,558.380588054657,,,,,,,,,,,,,,,,,,,,,,,,,,,,,,,,,,,,,,,,,,,,,,,,,,,,,,,,,,,,,,,,,,,,,,,,,,,,,,,,,125.0,200.0,127.0,127.0,200.0,125.0,3.0,3.2,-260,-264,0,6,222,261,558.3655223846436,558.3656024932861,558.3690085411072,558.380588054657,558.5234689712524,558.5234689712524,558.5234689712524,558.5234689712524,558.5234689712524,558.5234689712524,558.5234689712524,561.5149207115173,3,3.1308140754699707,None,,,,,,,,,,,,,,,,,,189,1,2025-03-05_11h04.36.812,comp,2024.2.4,56.130538875677324,2025-03-05 11h04.48.264072 -0500,
115,115,0,critical,hdw,20.0,2.1,lower,133.0,57.0,78.0,78.0,57.0,133.0,3,2.5483434200286865,None,,,,,0,0,0,0,0,115,115,22,561.5320358276367,,,,,,,,,,,,,,,,,,,,,,,,,,,,,,,,,,,,,,,,,,,,,,,,,,,,,,,,,,,,,,,,,,,,,,,,,,,,,,,,,133.0,57.0,78.0,78.0,57.0,133.0,2.1,2.11,-164,280,0,278,202,-273,561.5165724754333,561.5167078971863,561.5202553272247,561.5320358276367,561.6813778877258,561.6813778877258,561.6813778877258,561.6813778877258,561.6813778877258,561.6813778877258,561.6813778877258,564.0835220813751,3,2.5483434200286865,None,,,,,,,,,,,,,,,,,,189,1,2025-03-05_11h04.36.812,comp,2024.2.4,56.130538875677324,2025-03-05 11h04.48.264072 -0500,
116,116,0,catch,None,None,None,None,None,None,None,None,None,None,2,1.1867713928222656,None,,,,,0,0,0,0,0,116,116,128,564.1006362438202,,,,,,,,,,,,,,,,,,,,,,,,,,,,,,,,,,,,,,,,,,,,,,,,,,,,,,,,,,,,,,,,,,,,,,,,,,,,,,,,,113,77,128,197,120,70,2.1,2.11,-233,255,0,286,230,-273,564.0855808258057,564.0856626033783,564.0888493061066,564.1006362438202,564.2487094402313,564.2487094402313,564.2487094402313,564.2487094402313,564.2487094402313,564.2487094402313,564.2487094402313,565.2981600761414,2,1.1867713928222656,None,,,,,,,,,,,,,,,,,,189,1,2025-03-05_11h04.36.812,comp,2024.2.4,56.130538875677324,2025-03-05 11h04.48.264072 -0500,
117,117,0,critical,hdw,20.0,3.0,lower,133.0,57.0,78.0,78.0,57.0,133.0,1,4.798269748687744,None,,,,,0,0,0,0,0,117,117,116,565.3140633106232,,,,,,,,,,,,,,,,,,,,,,,,,,,,,,,,,,,,,,,,,,,,,,,,,,,,,,,,,,,,,,,,,,,,,,,,,,,,,,,,,133.0,57.0,78.0,78.0,57.0,133.0,3.0,3.2,-164,-273,0,-1,202,267,565.2997364997864,565.2998147010803,565.3029277324677,565.3140633106232,565.4686598777771,565.4686598777771,565.4686598777771,565.4686598777771,565.4686598777771,565.4686598777771,565.4686598777771,570.1215622425079,1,4.798269748687744,None,,,,,,,,,,,,,,,,,,189,1,2025-03-05_11h04.36.812,comp,2024.2.4,56.130538875677324,2025-03-05 11h04.48.264072 -0500,
118,118,0,filler_square,None,None,None,None,None,None,None,None,None,None,3,1.7689812183380127,None,,,,,0,0,0,0,0,118,118,185,570.1424608230591,,,,,,,,,,,,,,,,,,,,,,,,,,,,,,,,,,,,,,,,,,,,,,,,,,,,,,,,,,,,,,,,,,,,,,,,,,,,,,,,,113.60423479228757,115.71518231905982,127.70340512757942,80.44068152234308,135.11087541903208,135.11087541903208,2.1,2.11,-194,266,0,257,204,-251,570.12353348732,570.1236169338226,570.1266839504242,570.1424608230591,570.2846689224243,570.2846689224243,570.2846689224243,570.2846689224243,570.2846689224243,570.2846689224243,570.2846689224243,571.9247763156891,3,1.7689812183380127,None,,,,,,,,,,,,,,,,,,189,1,2025-03-05_11h04.36.812,comp,2024.2.4,56.130538875677324,2025-03-05 11h04.48.264072 -0500,
119,119,0,filler_square,None,None,None,None,None,None,None,None,None,None,2,6.763307094573975,None,,,,,0,0,0,0,0,119,119,177,571.9404406547546,,,,,,,,,,,,,,,,,,,,,,,,,,,,,,,,,,,,,,,,,,,,,,,,,,,,,,,,,,,,,,,,,,,,,,,,,,,,,,,,,58.5205184111077,59.81999834844243,61.087241113982245,61.087241113982245,57.61164218999433,58.68368752763402,2.1,2.11,-156,264,0,268,156,-259,571.9265265464783,571.9266047477722,571.9295039176941,571.9404406547546,572.0838913917542,572.0838913917542,572.0838913917542,572.0838913917542,572.0838913917542,572.0838913917542,572.0838913917542,578.7219381332397,2,6.763307094573975,None,,,,,,,,,,,,,,,,,,189,1,2025-03-05_11h04.36.812,comp,2024.2.4,56.130538875677324,2025-03-05 11h04.48.264072 -0500,
120,120,0,critical,whd,20.0,1.0,upper,125.0,200.0,200.0,125.0,141.0,141.0,2,15.55662488937378,None,,,,,0,0,0,0,0,120,120,91,578.7388248443604,,,,,,,,,,,,,,,,,,,,,,,,,,,,,,,,,,,,,,,,,,,,,,,,,,,,,,,,,,,,,,,,,,,,,,,,,,,,,,,,,125.0,200.0,200.0,125.0,141.0,141.0,1.0,1.2,-258,13,0,-13,229,-7,578.7235312461853,578.7236540317535,578.7270867824554,578.7388248443604,578.8876016139984,578.8876016139984,578.8876016139984,578.8876016139984,578.8876016139984,578.8876016139984,578.8876016139984,594.3110766410828,2,15.55662488937378,None,,,,,,,,,,,,,,,,,,189,1,2025-03-05_11h04.36.812,comp,2024.2.4,56.130538875677324,2025-03-05 11h04.48.264072 -0500,
121,121,0,filler_square,None,None,None,None,None,None,None,None,None,None,3,2.7931740283966064,None,,,,,0,0,0,0,0,121,121,179,594.3275837898254,,,,,,,,,,,,,,,,,,,,,,,,,,,,,,,,,,,,,,,,,,,,,,,,,,,,,,,,,,,,,,,,,,,,,,,,,,,,,,,,,102.7604809355873,102.7604809355873,70.27178543792645,73.73950170307471,101.9853775863625,82.51837742210047,2.2,2.22,-184,254,0,-273,174,-254,594.3131914138794,594.3132710456848,594.3171670436859,594.3275837898254,594.4815485477448,594.4815485477448,594.4815485477448,594.4815485477448,594.4815485477448,594.4815485477448,594.4815485477448,597.1263570785522,3,2.7931740283966064,None,,,,,,,,,,,,,,,,,,189,1,2025-03-05_11h04.36.812,comp,2024.2.4,56.130538875677324,2025-03-05 11h04.48.264072 -0500,
122,122,0,critical,whd,35.0,2.1,upper,125.0,200.0,200.0,125.0,127.0,127.0,2,4.529902458190918,None,,,,,0,0,0,0,0,122,122,13,597.1427450180054,,,,,,,,,,,,,,,,,,,,,,,,,,,,,,,,,,,,,,,,,,,,,,,,,,,,,,,,,,,,,,,,,,,,,,,,,,,,,,,,,125.0,200.0,200.0,125.0,127.0,127.0,2.1,2.12,-258,-261,0,-255,222,274,597.1280558109283,597.1281797885895,597.1316120624542,597.1427450180054,597.291232585907,597.291232585907,597.291232585907,597.291232585907,597.291232585907,597.291232585907,597.291232585907,601.6786034107208,2,4.529902458190918,None,,,,,,,,,,,,,,,,,,189,1,2025-03-05_11h04.36.812,comp,2024.2.4,56.130538875677324,2025-03-05 11h04.48.264072 -0500,
123,123,0,critical,wdh,20.0,4.0,upper,125.0,200.0,141.0,141.0,200.0,125.0,2,6.258213520050049,None,,,,,0,0,0,0,0,123,123,83,601.6949496269226,,,,,,,,,,,,,,,,,,,,,,,,,,,,,,,,,,,,,,,,,,,,,,,,,,,,,,,,,,,,,,,,,,,,,,,,,,,,,,,,,125.0,200.0,141.0,141.0,200.0,125.0,4.0,4.2,-266,13,0,-268,229,-6,601.6802694797516,601.680403470993,601.6839187145233,601.6949496269226,601.8441927433014,601.8441927433014,601.8441927433014,601.8441927433014,601.8441927433014,601.8441927433014,601.8441927433014,607.9634392261505,2,6.258213520050049,None,,,,,,,,,,,,,,,,,,189,1,2025-03-05_11h04.36.812,comp,2024.2.4,56.130538875677324,2025-03-05 11h04.48.264072 -0500,
124,124,0,filler_square,None,None,None,None,None,None,None,None,None,None,1,2.0524234771728516,None,,,,,0,0,0,0,0,124,124,205,607.9801127910614,,,,,,,,,,,,,,,,,,,,,,,,,,,,,,,,,,,,,,,,,,,,,,,,,,,,,,,,,,,,,,,,,,,,,,,,,,,,,,,,,174.47150057057644,174.47150057057644,137.0444787884714,168.2806232165143,136.36591794884941,73.52061757071401,4.0,4.2,-267,13,0,-270,217,0,607.9652509689331,607.965362071991,607.9690368175507,607.9801127910614,608.1179187297821,608.1179187297821,608.1179187297821,608.1179187297821,608.1179187297821,608.1179187297821,608.1179187297821,610.0390565395355,1,2.0524234771728516,None,,,,,,,,,,,,,,,,,,189,1,2025-03-05_11h04.36.812,comp,2024.2.4,56.130538875677324,2025-03-05 11h04.48.264072 -0500,
125,125,0,filler_square,None,None,None,None,None,None,None,None,None,None,3,1.2493796348571777,None,,,,,0,0,0,0,0,125,125,196,610.0549626350403,,,,,,,,,,,,,,,,,,,,,,,,,,,,,,,,,,,,,,,,,,,,,,,,,,,,,,,,,,,,,,,,,,,,,,,,,,,,,,,,,89.57551574015956,65.3311659118443,81.48453546863325,63.00446161000092,133.73133308853346,133.73133308853346,2.2,2.21,-160,-286,0,275,194,279,610.0408251285553,610.0409054756165,610.0438394546509,610.0549626350403,610.1955966949463,610.1955966949463,610.1955966949463,610.1955966949463,610.1955966949463,610.1955966949463,610.1955966949463,611.3159129619598,3,1.2493796348571777,None,,,,,,,,,,,,,,,,,,189,1,2025-03-05_11h04.36.812,comp,2024.2.4,56.130538875677324,2025-03-05 11h04.48.264072 -0500,
126,126,0,critical,hwd,20.0,3.0,lower,133.0,57.0,57.0,133.0,78.0,78.0,2,6.658611297607422,None,,,,,0,0,0,0,0,126,126,104,611.3334758281708,,,,,,,,,,,,,,,,,,,,,,,,,,,,,,,,,,,,,,,,,,,,,,,,,,,,,,,,,,,,,,,,,,,,,,,,,,,,,,,,,133.0,57.0,57.0,133.0,78.0,78.0,3.0,3.1,-191,278,0,18,202,-259,611.3175573348999,611.3176395893097,611.3207483291626,611.3334758281708,611.479819059372,611.479819059372,611.479819059372,611.479819059372,611.479819059372,611.479819059372,611.479819059372,618.0006437301636,2,6.658611297607422,None,,,,,,,,,,,,,,,,,,189,1,2025-03-05_11h04.36.812,comp,2024.2.4,56.130538875677324,2025-03-05 11h04.48.264072 -0500,
127,127,0,critical,dwh,35.0,4.0,lower,70.0,70.0,57.0,133.0,133.0,57.0,2,3.246856212615967,None,,,,,0,0,0,0,0,127,127,64,618.0173485279083,,,,,,,,,,,,,,,,,,,,,,,,,,,,,,,,,,,,,,,,,,,,,,,,,,,,,,,,,,,,,,,,,,,,,,,,,,,,,,,,,70.0,70.0,57.0,133.0,133.0,57.0,4.0,4.1,-198,-257,0,-1,191,-279,618.002242565155,618.0023980140686,618.0062201023102,618.0173485279083,618.1665160655975,618.1665160655975,618.1665160655975,618.1665160655975,618.1665160655975,618.1665160655975,618.1665160655975,621.2831344604492,2,3.246856212615967,None,,,,,,,,,,,,,,,,,,189,1,2025-03-05_11h04.36.812,comp,2024.2.4,56.130538875677324,2025-03-05 11h04.48.264072 -0500,
128,128,0,filler_random,None,None,None,None,None,None,None,None,None,None,3,1.570634365081787,None,,,,,0,0,0,0,0,128,128,162,621.3031530380249,,,,,,,,,,,,,,,,,,,,,,,,,,,,,,,,,,,,,,,,,,,,,,,,,,,,,,,,,,,,,,,,,,,,,,,,,,,,,,,,,72.50322247842126,167.38305096699187,135.53832915613725,79.06594829388031,111.26008813326357,157.770389845336,2.1,2.11,-219,288,0,256,214,-285,621.285019159317,621.2851440906525,621.2883975505829,621.3031530380249,621.4360506534576,621.4360506534576,621.4360506534576,621.4360506534576,621.4360506534576,621.4360506534576,621.4360506534576,622.8847806453705,3,1.570634365081787,None,,,,,,,,,,,,,,,,,,189,1,2025-03-05_11h04.36.812,comp,2024.2.4,56.130538875677324,2025-03-05 11h04.48.264072 -0500,
129,129,0,critical,hdw,35.0,2.1,lower,133.0,57.0,70.0,70.0,57.0,133.0,3,8.059502363204956,None,,,,,0,0,0,0,0,129,129,44,622.9012126922607,,,,,,,,,,,,,,,,,,,,,,,,,,,,,,,,,,,,,,,,,,,,,,,,,,,,,,,,,,,,,,,,,,,,,,,,,,,,,,,,,133.0,57.0,70.0,70.0,57.0,133.0,2.1,2.11,-160,251,0,286,198,-269,622.8863251209259,622.8864092826843,622.8899409770966,622.9012126922607,623.0534925460815,623.0534925460815,623.0534925460815,623.0534925460815,623.0534925460815,623.0534925460815,623.0534925460815,630.9715054035187,3,8.059502363204956,None,,,,,,,,,,,,,,,,,,189,1,2025-03-05_11h04.36.812,comp,2024.2.4,56.130538875677324,2025-03-05 11h04.48.264072 -0500,
130,130,0,filler_random,None,None,None,None,None,None,None,None,None,None,1,11.531616449356079,None,,,,,0,0,0,0,0,130,130,141,630.988258600235,,,,,,,,,,,,,,,,,,,,,,,,,,,,,,,,,,,,,,,,,,,,,,,,,,,,,,,,,,,,,,,,,,,,,,,,,,,,,,,,,130.83346817041323,108.34164537346206,198.1944802890288,63.06678352280211,173.01305539281788,79.5942370173345,1.0,1.3,298,-259,480,-262,647,-284,630.973555803299,630.9736394882202,630.9772522449493,630.988258600235,631.138457775116,631.138457775116,631.138457775116,631.138457775116,631.138457775116,631.138457775116,631.138457775116,642.5244421958923,1,11.531616449356079,None,,,,,,,,,,,,,,,,,,189,1,2025-03-05_11h04.36.812,comp,2024.2.4,56.130538875677324,2025-03-05 11h04.48.264072 -0500,
131,131,0,critical,wdh,35.0,2.1,lower,57.0,133.0,70.0,70.0,133.0,57.0,1,4.730973958969116,None,,,,,0,0,0,0,0,131,131,8,642.5411062240601,,,,,,,,,,,,,,,,,,,,,,,,,,,,,,,,,,,,,,,,,,,,,,,,,,,,,,,,,,,,,,,,,,,,,,,,,,,,,,,,,57.0,133.0,70.0,70.0,133.0,57.0,2.1,2.12,-198,-251,0,-254,160,256,642.5260148048401,642.5260970592499,642.5301876068115,642.5411062240601,642.6980557441711,642.6980557441711,642.6980557441711,642.6980557441711,642.6980557441711,642.6980557441711,642.6980557441711,647.2769870758057,1,4.730973958969116,None,,,,,,,,,,,,,,,,,,189,1,2025-03-05_11h04.36.812,comp,2024.2.4,56.130538875677324,2025-03-05 11h04.48.264072 -0500,
132,132,0,critical,wdh,20.0,3.0,lower,57.0,133.0,78.0,78.0,133.0,57.0,1,4.418136358261108,None,,,,,0,0,0,0,0,132,132,80,647.2935354709625,,,,,,,,,,,,,,,,,,,,,,,,,,,,,,,,,,,,,,,,,,,,,,,,,,,,,,,,,,,,,,,,,,,,,,,,,,,,,,,,,57.0,133.0,78.0,78.0,133.0,57.0,3.0,3.2,-202,-287,0,13,164,282,647.2786757946014,647.2787585258484,647.2826600074768,647.2935354709625,647.4421668052673,647.4421668052673,647.4421668052673,647.4421668052673,647.4421668052673,647.4421668052673,647.4421668052673,651.7274808883667,1,4.418136358261108,None,,,,,,,,,,,,,,,,,,189,1,2025-03-05_11h04.36.812,comp,2024.2.4,56.130538875677324,2025-03-05 11h04.48.264072 -0500,
133,133,0,filler_square,None,None,None,None,None,None,None,None,None,None,3,2.0049400329589844,None,,,,,0,0,0,0,0,133,133,180,651.7467451095581,,,,,,,,,,,,,,,,,,,,,,,,,,,,,,,,,,,,,,,,,,,,,,,,,,,,,,,,,,,,,,,,,,,,,,,,,,,,,,,,,62.758044267007435,60.47752317325353,57.34516079737045,58.32657176147003,67.43450496774668,67.43450496774668,4.0,4.2,-155,2,0,-253,159,-6,651.7292540073395,651.7293949127197,651.7326595783234,651.7467451095581,651.8939723968506,651.8939723968506,651.8939723968506,651.8939723968506,651.8939723968506,651.8939723968506,651.8939723968506,653.7638967037201,3,2.0049400329589844,None,,,,,,,,,,,,,,,,,,189,1,2025-03-05_11h04.36.812,comp,2024.2.4,56.130538875677324,2025-03-05 11h04.48.264072 -0500,
134,134,0,filler_square,None,None,None,None,None,None,None,None,None,None,3,2.324502944946289,None,,,,,0,0,0,0,0,134,134,198,653.7800402641296,,,,,,,,,,,,,,,,,,,,,,,,,,,,,,,,,,,,,,,,,,,,,,,,,,,,,,,,,,,,,,,,,,,,,,,,,,,,,,,,,66.33202035524027,61.15982838394551,68.06784632921656,65.55706717001205,82.63996518631842,82.63996518631842,2.1,2.11,-159,279,0,277,170,-256,653.7661995887756,653.7662801742554,653.769202709198,653.7800402641296,653.9268770217896,653.9268770217896,653.9268770217896,653.9268770217896,653.9268770217896,653.9268770217896,653.9268770217896,656.1121044158936,3,2.324502944946289,None,,,,,,,,,,,,,,,,,,189,1,2025-03-05_11h04.36.812,comp,2024.2.4,56.130538875677324,2025-03-05 11h04.48.264072 -0500,
135,135,0,filler_square,None,None,None,None,None,None,None,None,None,None,1,2.911190986633301,None,,,,,0,0,0,0,0,135,135,195,656.1290094852448,,,,,,,,,,,,,,,,,,,,,,,,,,,,,,,,,,,,,,,,,,,,,,,,,,,,,,,,,,,,,,,,,,,,,,,,,,,,,,,,,72.20645021016219,72.20645021016219,66.10790237684147,70.02150834628219,69.79028700875476,67.29630648269098,2.1,2.11,-167,273,0,271,165,-266,656.1139559745789,656.1140353679657,656.118082523346,656.1290094852448,656.2826180458069,656.2826180458069,656.2826180458069,656.2826180458069,656.2826180458069,656.2826180458069,656.2826180458069,659.0448160171509,1,2.911190986633301,None,,,,,,,,,,,,,,,,,,189,1,2025-03-05_11h04.36.812,comp,2024.2.4,56.130538875677324,2025-03-05 11h04.48.264072 -0500,
136,136,0,critical,hwd,35.0,4.0,upper,200.0,125.0,125.0,200.0,127.0,127.0,2,4.354612112045288,None,,,,,0,0,0,0,0,136,136,101,659.0612494945526,,,,,,,,,,,,,,,,,,,,,,,,,,,,,,,,,,,,,,,,,,,,,,,,,,,,,,,,,,,,,,,,,,,,,,,,,,,,,,,,,200.0,125.0,125.0,200.0,127.0,127.0,4.0,4.2,-258,17,0,-287,260,-19,659.0463433265686,659.046422958374,659.0495374202728,659.0612494945526,659.2127184867859,659.2127184867859,659.2127184867859,659.2127184867859,659.2127184867859,659.2127184867859,659.2127184867859,663.4326903820038,2,4.354612112045288,None,,,,,,,,,,,,,,,,,,189,1,2025-03-05_11h04.36.812,comp,2024.2.4,56.130538875677324,2025-03-05 11h04.48.264072 -0500,
137,137,0,filler_random,None,None,None,None,None,None,None,None,None,None,2,1.0896611213684082,None,,,,,0,0,0,0,0,137,137,151,663.4543528556824,,,,,,,,,,,,,,,,,,,,,,,,,,,,,,,,,,,,,,,,,,,,,,,,,,,,,,,,,,,,,,,,,,,,,,,,,,,,,,,,,87.12278636255728,58.157305763143555,151.67756432431258,167.07768764479925,104.38757608888645,131.7385327612582,3.0,3.2,-209,-266,0,2,245,281,663.4351408481598,663.4352369308472,663.4388363361359,663.4543528556824,663.5984408855438,663.5984408855438,663.5984408855438,663.5984408855438,663.5984408855438,663.5984408855438,663.5984408855438,664.5491578578949,2,1.0896611213684082,None,,,,,,,,,,,,,,,,,,189,1,2025-03-05_11h04.36.812,comp,2024.2.4,56.130538875677324,2025-03-05 11h04.48.264072 -0500,
138,138,0,critical,wdh,35.0,3.0,lower,57.0,133.0,70.0,70.0,133.0,57.0,1,5.498232841491699,None,,,,,0,0,0,0,0,138,138,74,664.5661499500275,,,,,,,,,,,,,,,,,,,,,,,,,,,,,,,,,,,,,,,,,,,,,,,,,,,,,,,,,,,,,,,,,,,,,,,,,,,,,,,,,57.0,133.0,70.0,70.0,133.0,57.0,3.0,3.2,-198,-264,0,20,160,289,664.5511078834534,664.5512430667877,664.5545613765717,664.5661499500275,664.7136142253876,664.7136142253876,664.7136142253876,664.7136142253876,664.7136142253876,664.7136142253876,664.7136142253876,670.0825119018555,1,5.498232841491699,None,,,,,,,,,,,,,,,,,,189,1,2025-03-05_11h04.36.812,comp,2024.2.4,56.130538875677324,2025-03-05 11h04.48.264072 -0500,
139,139,0,critical,dhw,20.0,1.0,lower,78.0,78.0,133.0,57.0,57.0,133.0,3,7.325221300125122,None,,,,,0,0,0,0,0,139,139,54,670.0986070632935,,,,,,,,,,,,,,,,,,,,,,,,,,,,,,,,,,,,,,,,,,,,,,,,,,,,,,,,,,,,,,,,,,,,,,,,,,,,,,,,,78.0,78.0,133.0,57.0,57.0,133.0,1.0,1.1,-644,288,-480,271,-289,276,670.0841538906097,670.0843119621277,670.0878615379333,670.0986070632935,670.2534534931183,670.2534534931183,670.2534534931183,670.2534534931183,670.2534534931183,670.2534534931183,670.2534534931183,677.4334206581116,3,7.325221300125122,None,,,,,,,,,,,,,,,,,,189,1,2025-03-05_11h04.36.812,comp,2024.2.4,56.130538875677324,2025-03-05 11h04.48.264072 -0500,
140,140,0,filler_random,None,None,None,None,None,None,None,None,None,None,3,1.1257600784301758,None,,,,,0,0,0,0,0,140,140,155,677.4501078128815,,,,,,,,,,,,,,,,,,,,,,,,,,,,,,,,,,,,,,,,,,,,,,,,,,,,,,,,,,,,,,,,,,,,,,,,,,,,,,,,,132.0688989160067,109.77181264814539,184.50548517833815,71.61943794700446,163.31791112480286,151.63967976332108,2.1,2.11,-187,280,0,284,208,-280,677.4351222515106,677.435248374939,677.4386870861053,677.4501078128815,677.6036100387573,677.6036100387573,677.6036100387573,677.6036100387573,677.6036100387573,677.6036100387573,677.6036100387573,678.5878400802612,3,1.1257600784301758,None,,,,,,,,,,,,,,,,,,189,1,2025-03-05_11h04.36.812,comp,2024.2.4,56.130538875677324,2025-03-05 11h04.48.264072 -0500,
