thisN,thisTrialN,thisRepN,effect,order,distance,config,diag,h_1,w_1,h_2,w_2,h_3,w_3,rect_choice.keys,rect_choice.rt,rect_choice.duration,instructions_loop.thisRepN,instructions_loop.thisTrialN,instructions_loop.thisN,instructions_loop.thisIndex,blocks.thisRepN,blocks.thisTrialN,blocks.thisN,blocks.thisIndex,trials.thisRepN,trials.thisTrialN,trials.thisN,trials.thisIndex,thisRow.t,notes,consent.started,agree_button.started,decline_button.started,consent_img.started,mouse.started,consent.stopped,agree_button.numClicks,agree_button.timesOn,agree_button.timesOff,decline_button.numClicks,decline_button.timesOn,decline_button.timesOff,mouse.x,mouse.y,mouse.leftButton,mouse.midButton,mouse.rightButton,mouse.time,mouse.clicked_name,exp_params.started,exp_params.stopped,welcome.started,welcome_text.started,welcome.stopped,instructions_1.started,instructions_1_text_1.started,instructions_1_text_2.started,key_resp.started,instructions_1.stopped,instructions_loop.key_resp.keys,instructions_loop.key_resp.rt,instructions_loop.key_resp.duration,instructions_2.started,instructions_2_text_1.started,instructions_2_text_2.started,key_resp_2.started,instructions_2.stopped,instructions_loop.key_resp_2.keys,instructions_loop.key_resp_2.rt,instructions_loop.key_resp_2.duration,instructions_3.started,instructions_3_text_1.started,r1_instr3.started,r2_instr3.started,r3_instr3.started,r1_instr3_label.started,r2_instr3_label.started,r3_instr3_label.started,instructions_3_text_3.started,instructions_3_text_4.started,key_resp_3.started,instructions_3.stopped,instructions_loop.key_resp_3.keys,instructions_loop.key_resp_3.rt,instructions_loop.key_resp_3.duration,instructions_4.started,instructions_4_text_1.started,instructions_4_text_3.started,instructions_4_text_2.started,key_resp_4.started,instructions_4.stopped,instructions_loop.key_resp_4.keys,instructions_loop.key_resp_4.rt,instructions_loop.key_resp_4.duration,instructions_5.started,instructions_5_text_1.started,instructions_5_text_2.started,key_resp_5.started,instructions_5.stopped,instructions_loop.key_resp_5.keys,instructions_loop.key_resp_5.rt,instructions_loop.key_resp_5.duration,start_exp.started,start_exp_text.started,key_resp_6.started,start_exp.stopped,key_resp_6.keys,key_resp_6.rt,key_resp_6.duration,h_1_tmp,w_1_tmp,h_2_tmp,w_2_tmp,h_3_tmp,w_3_tmp,config_tmp,config_tmp_1,r_1_x,r_1_y,r_2_x,r_2_y,r_3_x,r_3_y,pre_trial.started,pre_trial.stopped,choice_trial.started,rect_choice.started,r_1.started,r_2.started,r_3.started,r_1_label.started,r_2_label.started,r_3_label.started,prompt.started,choice_trial.stopped,trials.rect_choice.keys,trials.rect_choice.rt,trials.rect_choice.duration,end_block.started,end_block_text.started,end_block.stopped,end.started,end_text.started,key_resp_7.started,end.stopped,key_resp_7.keys,key_resp_7.rt,key_resp_7.duration,debriefing.started,debrief_form.started,end_debrief.started,debriefing.stopped,end_debrief.keys,end_debrief.rt,end_debrief.duration,participant,computer,date,expName,psychopyVersion,frameRate,expStart,
,,,,,,,,,,,,,,,,,,,,,,,,,,,,,,,0.014649152755737305,0.03829002380371094,0.03829002380371094,0.03829002380371094,0.014449834823608398,30.23527717590332,1,[30.194013357162476],[30.19403600692749],0,,,[-112.0],[-501.0],[1],[0],[0],[30.22009301185608],['agree_button'],,,,,,,,,,,,,,,,,,,,,,,,,,,,,,,,,,,,,,,,,,,,,,,,,,,,,,,,,,,,,,,,,,,,,,,,,,,,,,,,,,,,,,,,,,,,,,,,,,,,,,,,,,,18,2,2025-02-18_15h03.36.872,comp,2024.2.4,56.96909440102575,2025-02-18 15h03.48.135926 -0500,
,,,,,,,,,,,,,,,,,,,,,,,,,,,,,,,,,,,,,,,,,,,,,,,,,,30.235806226730347,30.235872507095337,,,,,,,,,,,,,,,,,,,,,,,,,,,,,,,,,,,,,,,,,,,,,,,,,,,,,,,,,,,,,,,,,,,,,,,,,,,,,,,,,,,,,,,,,,,,,,,,,,,,,,,,,18,2,2025-02-18_15h03.36.872,comp,2024.2.4,56.96909440102575,2025-02-18 15h03.48.135926 -0500,
,,,,,,,,,,,,,,,,,,,,,,,,,,,,,,,,,,,,,,,,,,,,,,,,,,,,30.235939264297485,30.25121021270752,32.24967622756958,,,,,,,,,,,,,,,,,,,,,,,,,,,,,,,,,,,,,,,,,,,,,,,,,,,,,,,,,,,,,,,,,,,,,,,,,,,,,,,,,,,,,,,,,,,,,,,,,,,,,,18,2,2025-02-18_15h03.36.872,comp,2024.2.4,56.96909440102575,2025-02-18 15h03.48.135926 -0500,
0,0,0,,,,,,,,,,,,,,,0,0,0,0,,,,,,,,,32.269713163375854,,,,,,,,,,,,,,,,,,,,,,,,,,32.25054597854614,32.269713163375854,32.269713163375854,33.74675798416138,38.469534397125244,space,4.712161064147949,None,38.46968483924866,38.48586368560791,38.48586368560791,39.964669704437256,44.68823289871216,space,4.717844247817993,None,44.688380002975464,44.721346855163574,44.721346855163574,44.721346855163574,44.721346855163574,44.721346855163574,44.721346855163574,44.721346855163574,44.721346855163574,44.721346855163574,46.188562870025635,48.26607370376587,space,2.0615904331207275,None,48.266234397888184,48.287296533584595,48.287296533584595,48.287296533584595,49.77115035057068,52.80714774131775,space,3.031036615371704,None,52.80730652809143,52.82489585876465,52.82489585876465,54.32223153114319,54.656487464904785,space,0.3288249969482422,None,54.65667366981506,54.67533993721008,54.67533993721008,55.62235689163208,space,0.9347119331359863,None,,,,,,,,,,,,,,,,,,,,,,,,,,,,,,,,,,,,,,,,,,,,,,,18,2,2025-02-18_15h03.36.872,comp,2024.2.4,56.96909440102575,2025-02-18 15h03.48.135926 -0500,
0,0,0,filler_square,None,None,None,None,None,None,None,None,None,None,3,1.9990086555480957,None,,,,,0,0,0,0,0,0,0,202,55.69161057472229,,,,,,,,,,,,,,,,,,,,,,,,,,,,,,,,,,,,,,,,,,,,,,,,,,,,,,,,,,,,,,,,,,,,,,,,,,,,,,,,,82.12083346936039,83.81348979585965,85.4413955775232,71.00587401009327,92.10736714238901,92.10736714238901,3.0,3.1,-173,278,0,-14,178,-290,55.67924380302429,55.67927670478821,55.680559396743774,55.69161057472229,55.849937200546265,55.849937200546265,55.849937200546265,55.849937200546265,55.849937200546265,55.849937200546265,55.849937200546265,57.69769835472107,3,1.9990086555480957,None,,,,,,,,,,,,,,,,,,18,2,2025-02-18_15h03.36.872,comp,2024.2.4,56.96909440102575,2025-02-18 15h03.48.135926 -0500,
1,1,0,critical,hdw,20.0,4.0,upper,200.0,125.0,141.0,141.0,125.0,200.0,3,4.1207640171051025,None,,,,,0,0,0,0,0,1,1,119,57.71404409408569,,,,,,,,,,,,,,,,,,,,,,,,,,,,,,,,,,,,,,,,,,,,,,,,,,,,,,,,,,,,,,,,,,,,,,,,,,,,,,,,,200.0,125.0,141.0,141.0,125.0,200.0,4.0,4.2,-229,-5,0,-268,266,-14,57.69903230667114,57.69909334182739,57.701354026794434,57.71404409408569,57.85678148269653,57.85678148269653,57.85678148269653,57.85678148269653,57.85678148269653,57.85678148269653,57.85678148269653,61.84342861175537,3,4.1207640171051025,None,,,,,,,,,,,,,,,,,,18,2,2025-02-18_15h03.36.872,comp,2024.2.4,56.96909440102575,2025-02-18 15h03.48.135926 -0500,
2,2,0,critical,dhw,20.0,2.1,upper,141.0,141.0,200.0,125.0,125.0,200.0,2,7.406494617462158,None,,,,,0,0,0,0,0,2,2,3,61.85964488983154,,,,,,,,,,,,,,,,,,,,,,,,,,,,,,,,,,,,,,,,,,,,,,,,,,,,,,,,,,,,,,,,,,,,,,,,,,,,,,,,,141.0,141.0,200.0,125.0,125.0,200.0,2.1,2.12,-229,-274,0,-258,258,257,61.8450071811676,61.84508395195007,61.848607778549194,61.85964488983154,62.01679491996765,62.01679491996765,62.01679491996765,62.01679491996765,62.01679491996765,62.01679491996765,62.01679491996765,69.27861309051514,2,7.406494617462158,None,,,,,,,,,,,,,,,,,,18,2,2025-02-18_15h03.36.872,comp,2024.2.4,56.96909440102575,2025-02-18 15h03.48.135926 -0500,
3,3,0,catch,None,None,None,None,None,None,None,None,None,None,1,1.2727689743041992,None,,,,,0,0,0,0,0,3,3,125,69.29898524284363,,,,,,,,,,,,,,,,,,,,,,,,,,,,,,,,,,,,,,,,,,,,,,,,,,,,,,,,,,,,,,,,,,,,,,,,,,,,,,,,,179,146,117,73,120,70,4.0,4.1,-206,-263,0,2,168,-268,69.28057289123535,69.2806510925293,69.28379464149475,69.29898524284363,69.44608759880066,69.44608759880066,69.44608759880066,69.44608759880066,69.44608759880066,69.44608759880066,69.44608759880066,70.58004355430603,1,1.2727689743041992,None,,,,,,,,,,,,,,,,,,18,2,2025-02-18_15h03.36.872,comp,2024.2.4,56.96909440102575,2025-02-18 15h03.48.135926 -0500,
4,4,0,critical,hdw,20.0,1.0,upper,200.0,125.0,141.0,141.0,125.0,200.0,3,5.618517637252808,None,,,,,0,0,0,0,0,4,4,115,70.59960627555847,,,,,,,,,,,,,,,,,,,,,,,,,,,,,,,,,,,,,,,,,,,,,,,,,,,,,,,,,,,,,,,,,,,,,,,,,,,,,,,,,200.0,125.0,141.0,141.0,125.0,200.0,1.0,1.1,-709,287,-480,284,-214,290,70.58151698112488,70.58159351348877,70.58471941947937,70.59960627555847,70.74615573883057,70.74615573883057,70.74615573883057,70.74615573883057,70.74615573883057,70.74615573883057,70.74615573883057,76.23041868209839,3,5.618517637252808,None,,,,,,,,,,,,,,,,,,18,2,2025-02-18_15h03.36.872,comp,2024.2.4,56.96909440102575,2025-02-18 15h03.48.135926 -0500,
5,5,0,critical,whd,35.0,4.0,upper,125.0,200.0,200.0,125.0,127.0,127.0,1,2.828826665878296,None,,,,,0,0,0,0,0,5,5,89,76.245521068573,,,,,,,,,,,,,,,,,,,,,,,,,,,,,,,,,,,,,,,,,,,,,,,,,,,,,,,,,,,,,,,,,,,,,,,,,,,,,,,,,125.0,200.0,200.0,125.0,127.0,127.0,4.0,4.1,-258,-258,0,9,222,-262,76.2319643497467,76.23204255104065,76.23500776290894,76.245521068573,76.39472842216492,76.39472842216492,76.39472842216492,76.39472842216492,76.39472842216492,76.39472842216492,76.39472842216492,79.08981418609619,1,2.828826665878296,None,,,,,,,,,,,,,,,,,,18,2,2025-02-18_15h03.36.872,comp,2024.2.4,56.96909440102575,2025-02-18 15h03.48.135926 -0500,
6,6,0,critical,hdw,35.0,1.0,lower,133.0,57.0,70.0,70.0,57.0,133.0,3,4.060149192810059,None,,,,,0,0,0,0,0,6,6,108,79.11066937446594,,,,,,,,,,,,,,,,,,,,,,,,,,,,,,,,,,,,,,,,,,,,,,,,,,,,,,,,,,,,,,,,,,,,,,,,,,,,,,,,,133.0,57.0,70.0,70.0,57.0,133.0,1.0,1.1,-640,286,-480,258,-282,262,79.09146404266357,79.091543674469,79.0949239730835,79.11066937446594,79.24850821495056,79.24850821495056,79.24850821495056,79.24850821495056,79.24850821495056,79.24850821495056,79.24850821495056,83.17822313308716,3,4.060149192810059,None,,,,,,,,,,,,,,,,,,18,2,2025-02-18_15h03.36.872,comp,2024.2.4,56.96909440102575,2025-02-18 15h03.48.135926 -0500,
7,7,0,critical,hwd,20.0,4.0,upper,200.0,125.0,125.0,200.0,141.0,141.0,1,8.647589683532715,None,,,,,0,0,0,0,0,7,7,107,83.19512128829956,,,,,,,,,,,,,,,,,,,,,,,,,,,,,,,,,,,,,,,,,,,,,,,,,,,,,,,,,,,,,,,,,,,,,,,,,,,,,,,,,200.0,125.0,125.0,200.0,141.0,141.0,4.0,4.1,-258,-252,0,0,266,-284,83.17995691299438,83.18010139465332,83.18347311019897,83.19512128829956,83.33172106742859,83.33172106742859,83.33172106742859,83.33172106742859,83.33172106742859,83.33172106742859,83.33172106742859,91.8526656627655,1,8.647589683532715,None,,,,,,,,,,,,,,,,,,18,2,2025-02-18_15h03.36.872,comp,2024.2.4,56.96909440102575,2025-02-18 15h03.48.135926 -0500,
8,8,0,critical,wdh,35.0,2.1,upper,125.0,200.0,127.0,127.0,200.0,125.0,1,6.094548225402832,None,,,,,0,0,0,0,0,8,8,9,91.86824417114258,,,,,,,,,,,,,,,,,,,,,,,,,,,,,,,,,,,,,,,,,,,,,,,,,,,,,,,,,,,,,,,,,,,,,,,,,,,,,,,,,125.0,200.0,127.0,127.0,200.0,125.0,2.1,2.12,-260,-266,0,-263,222,280,91.8541796207428,91.85425853729248,91.85747575759888,91.86824417114258,92.01632833480835,92.01632833480835,92.01632833480835,92.01632833480835,92.01632833480835,92.01632833480835,92.01632833480835,97.9713842868805,1,6.094548225402832,None,,,,,,,,,,,,,,,,,,18,2,2025-02-18_15h03.36.872,comp,2024.2.4,56.96909440102575,2025-02-18 15h03.48.135926 -0500,
9,9,0,filler_square,None,None,None,None,None,None,None,None,None,None,2,1.9275665283203125,None,,,,,0,0,0,0,0,9,9,175,97.98755431175232,,,,,,,,,,,,,,,,,,,,,,,,,,,,,,,,,,,,,,,,,,,,,,,,,,,,,,,,,,,,,,,,,,,,,,,,,,,,,,,,,92.94703626208451,128.8793130326057,133.22401593487348,133.22401593487348,125.3143580899361,81.58382327002275,2.2,2.22,-227,270,0,-252,203,-255,97.97324872016907,97.973384141922,97.97669243812561,97.98755431175232,98.13799357414246,98.13799357414246,98.13799357414246,98.13799357414246,98.13799357414246,98.13799357414246,98.13799357414246,99.92264819145203,2,1.9275665283203125,None,,,,,,,,,,,,,,,,,,18,2,2025-02-18_15h03.36.872,comp,2024.2.4,56.96909440102575,2025-02-18 15h03.48.135926 -0500,
10,10,0,filler_random,None,None,None,None,None,None,None,None,None,None,3,3.0160422325134277,None,,,,,0,0,0,0,0,10,10,161,99.93860459327698,,,,,,,,,,,,,,,,,,,,,,,,,,,,,,,,,,,,,,,,,,,,,,,,,,,,,,,,,,,,,,,,,,,,,,,,,,,,,,,,,98.38523908979974,161.21512614626744,149.27836734401757,178.12340661520142,149.93581318489163,198.18593641399013,2.2,2.22,-266,290,0,-264,284,-251,99.92438292503357,99.92446160316467,99.92782640457153,99.93860459327698,100.08877873420715,100.08877873420715,100.08877873420715,100.08877873420715,100.08877873420715,100.08877873420715,100.08877873420715,102.97298908233643,3,3.0160422325134277,None,,,,,,,,,,,,,,,,,,18,2,2025-02-18_15h03.36.872,comp,2024.2.4,56.96909440102575,2025-02-18 15h03.48.135926 -0500,
11,11,0,filler_square,None,None,None,None,None,None,None,None,None,None,1,3.382054328918457,None,,,,,0,0,0,0,0,11,11,181,102.98863458633423,,,,,,,,,,,,,,,,,,,,,,,,,,,,,,,,,,,,,,,,,,,,,,,,,,,,,,,,,,,,,,,,,,,,,,,,,,,,,,,,,131.44109384997108,131.44109384997108,121.44253238132991,71.83611769106712,122.80526503796204,98.5632256190328,4.0,4.2,-198,-9,0,-289,181,-2,102.9747805595398,102.97485971450806,102.97836017608643,102.98863458633423,103.13977837562561,103.13977837562561,103.13977837562561,103.13977837562561,103.13977837562561,103.13977837562561,103.13977837562561,106.37724089622498,1,3.382054328918457,None,,,,,,,,,,,,,,,,,,18,2,2025-02-18_15h03.36.872,comp,2024.2.4,56.96909440102575,2025-02-18 15h03.48.135926 -0500,
12,12,0,critical,dhw,20.0,2.1,upper,141.0,141.0,200.0,125.0,125.0,200.0,2,6.737966060638428,None,,,,,0,0,0,0,0,12,12,27,106.39334654808044,,,,,,,,,,,,,,,,,,,,,,,,,,,,,,,,,,,,,,,,,,,,,,,,,,,,,,,,,,,,,,,,,,,,,,,,,,,,,,,,,141.0,141.0,200.0,125.0,125.0,200.0,2.1,2.12,-229,-288,0,-288,258,261,106.37905383110046,106.37920236587524,106.38250470161438,106.39334654808044,106.54116630554199,106.54116630554199,106.54116630554199,106.54116630554199,106.54116630554199,106.54116630554199,106.54116630554199,113.14295864105225,2,6.737966060638428,None,,,,,,,,,,,,,,,,,,18,2,2025-02-18_15h03.36.872,comp,2024.2.4,56.96909440102575,2025-02-18 15h03.48.135926 -0500,
13,13,0,filler_square,None,None,None,None,None,None,None,None,None,None,1,1.5143659114837646,None,,,,,0,0,0,0,0,13,13,192,113.15984344482422,,,,,,,,,,,,,,,,,,,,,,,,,,,,,,,,,,,,,,,,,,,,,,,,,,,,,,,,,,,,,,,,,,,,,,,,,,,,,,,,,116.9600063218221,116.9600063218221,106.45062489532444,87.9144764988408,76.7699182071902,87.32847046474043,3.0,3.2,-198,-252,0,4,184,261,113.14475679397583,113.14483618736267,113.14833378791809,113.15984344482422,113.30784511566162,113.30784511566162,113.30784511566162,113.30784511566162,113.30784511566162,113.30784511566162,113.30784511566162,114.69241261482239,1,1.5143659114837646,None,,,,,,,,,,,,,,,,,,18,2,2025-02-18_15h03.36.872,comp,2024.2.4,56.96909440102575,2025-02-18 15h03.48.135926 -0500,
14,14,0,critical,hdw,20.0,2.1,lower,133.0,57.0,78.0,78.0,57.0,133.0,1,6.977751731872559,None,,,,,0,0,0,0,0,14,14,46,114.71278548240662,,,,,,,,,,,,,,,,,,,,,,,,,,,,,,,,,,,,,,,,,,,,,,,,,,,,,,,,,,,,,,,,,,,,,,,,,,,,,,,,,133.0,57.0,78.0,78.0,57.0,133.0,2.1,2.11,-164,261,0,253,202,-284,114.69404077529907,114.69415998458862,114.69746112823486,114.71278548240662,114.86116480827332,114.86116480827332,114.86116480827332,114.86116480827332,114.86116480827332,114.86116480827332,114.86116480827332,121.69434428215027,1,6.977751731872559,None,,,,,,,,,,,,,,,,,,18,2,2025-02-18_15h03.36.872,comp,2024.2.4,56.96909440102575,2025-02-18 15h03.48.135926 -0500,
15,15,0,critical,dwh,35.0,4.0,upper,127.0,127.0,125.0,200.0,200.0,125.0,2,6.6515889167785645,None,,,,,0,0,0,0,0,15,15,65,121.71076107025146,,,,,,,,,,,,,,,,,,,,,,,,,,,,,,,,,,,,,,,,,,,,,,,,,,,,,,,,,,,,,,,,,,,,,,,,,,,,,,,,,127.0,127.0,125.0,200.0,200.0,125.0,4.0,4.1,-260,-258,0,-16,258,-285,121.69581174850464,121.69589114189148,121.69905948638916,121.71076107025146,121.86080193519592,121.86080193519592,121.86080193519592,121.86080193519592,121.86080193519592,121.86080193519592,121.86080193519592,128.37476229667664,2,6.6515889167785645,None,,,,,,,,,,,,,,,,,,18,2,2025-02-18_15h03.36.872,comp,2024.2.4,56.96909440102575,2025-02-18 15h03.48.135926 -0500,
16,16,0,catch,None,None,None,None,None,None,None,None,None,None,1,1.4380848407745361,None,,,,,0,0,0,0,0,16,16,122,128.3960838317871,,,,,,,,,,,,,,,,,,,,,,,,,,,,,,,,,,,,,,,,,,,,,,,,,,,,,,,,,,,,,,,,,,,,,,,,,,,,,,,,,176,149,98,92,104,86,2.1,2.12,-216,-266,0,-255,185,280,128.3768937587738,128.37700486183167,128.38030433654785,128.3960838317871,128.53701066970825,128.53701066970825,128.53701066970825,128.53701066970825,128.53701066970825,128.53701066970825,128.53701066970825,129.84814381599426,1,1.4380848407745361,None,,,,,,,,,,,,,,,,,,18,2,2025-02-18_15h03.36.872,comp,2024.2.4,56.96909440102575,2025-02-18 15h03.48.135926 -0500,
17,17,0,critical,whd,35.0,2.1,upper,125.0,200.0,200.0,125.0,127.0,127.0,2,2.393641233444214,None,,,,,0,0,0,0,0,17,17,37,129.86497139930725,,,,,,,,,,,,,,,,,,,,,,,,,,,,,,,,,,,,,,,,,,,,,,,,,,,,,,,,,,,,,,,,,,,,,,,,,,,,,,,,,125.0,200.0,200.0,125.0,127.0,127.0,2.1,2.11,-258,252,0,272,222,-288,129.84983468055725,129.84999585151672,129.85372185707092,129.86497139930725,130.01342153549194,130.01342153549194,130.01342153549194,130.01342153549194,130.01342153549194,130.01342153549194,130.01342153549194,132.26451516151428,2,2.393641233444214,None,,,,,,,,,,,,,,,,,,18,2,2025-02-18_15h03.36.872,comp,2024.2.4,56.96909440102575,2025-02-18 15h03.48.135926 -0500,
18,18,0,critical,whd,20.0,2.1,upper,125.0,200.0,200.0,125.0,141.0,141.0,1,6.131305932998657,None,,,,,0,0,0,0,0,18,18,39,132.28008651733398,,,,,,,,,,,,,,,,,,,,,,,,,,,,,,,,,,,,,,,,,,,,,,,,,,,,,,,,,,,,,,,,,,,,,,,,,,,,,,,,,125.0,200.0,200.0,125.0,141.0,141.0,2.1,2.11,-258,257,0,272,229,-276,132.26550698280334,132.26555395126343,132.26736688613892,132.28008651733398,132.43233561515808,132.43233561515808,132.43233561515808,132.43233561515808,132.43233561515808,132.43233561515808,132.43233561515808,138.4163749217987,1,6.131305932998657,None,,,,,,,,,,,,,,,,,,18,2,2025-02-18_15h03.36.872,comp,2024.2.4,56.96909440102575,2025-02-18 15h03.48.135926 -0500,
19,19,0,filler_random,None,None,None,None,None,None,None,None,None,None,1,1.0739951133728027,None,,,,,0,0,0,0,0,19,19,164,138.43237018585205,,,,,,,,,,,,,,,,,,,,,,,,,,,,,,,,,,,,,,,,,,,,,,,,,,,,,,,,,,,,,,,,,,,,,,,,,,,,,,,,,166.24250480781913,156.42707791217592,88.76821570871634,170.00176087678523,140.34415559453606,90.09589153799215,2.2,2.21,-259,-258,0,268,226,284,138.41800951957703,138.41808438301086,138.421058177948,138.43237018585205,138.58424496650696,138.58424496650696,138.58424496650696,138.58424496650696,138.58424496650696,138.58424496650696,138.58424496650696,139.52196741104126,1,1.0739951133728027,None,,,,,,,,,,,,,,,,,,18,2,2025-02-18_15h03.36.872,comp,2024.2.4,56.96909440102575,2025-02-18 15h03.48.135926 -0500,
20,20,0,critical,dhw,20.0,3.0,lower,78.0,78.0,133.0,57.0,57.0,133.0,2,1.761235237121582,None,,,,,0,0,0,0,0,20,20,56,139.53745102882385,,,,,,,,,,,,,,,,,,,,,,,,,,,,,,,,,,,,,,,,,,,,,,,,,,,,,,,,,,,,,,,,,,,,,,,,,,,,,,,,,78.0,78.0,133.0,57.0,57.0,133.0,3.0,3.1,-164,286,0,-12,191,-267,139.5236964225769,139.5237958431244,139.52710509300232,139.53745102882385,139.68447017669678,139.68447017669678,139.68447017669678,139.68447017669678,139.68447017669678,139.68447017669678,139.68447017669678,141.30452966690063,2,1.761235237121582,None,,,,,,,,,,,,,,,,,,18,2,2025-02-18_15h03.36.872,comp,2024.2.4,56.96909440102575,2025-02-18 15h03.48.135926 -0500,
21,21,0,filler_square,None,None,None,None,None,None,None,None,None,None,1,1.6615114212036133,None,,,,,0,0,0,0,0,21,21,186,141.32461428642273,,,,,,,,,,,,,,,,,,,,,,,,,,,,,,,,,,,,,,,,,,,,,,,,,,,,,,,,,,,,,,,,,,,,,,,,,,,,,,,,,121.17473228992166,121.17473228992166,120.8400648039817,80.53849829902994,93.81248358311441,78.69420338560333,3.0,3.1,-197,284,0,10,176,-258,141.3066279888153,141.3067057132721,141.3098862171173,141.32461428642273,141.46770524978638,141.46770524978638,141.46770524978638,141.46770524978638,141.46770524978638,141.46770524978638,141.46770524978638,143.0017499923706,1,1.6615114212036133,None,,,,,,,,,,,,,,,,,,18,2,2025-02-18_15h03.36.872,comp,2024.2.4,56.96909440102575,2025-02-18 15h03.48.135926 -0500,
22,22,0,critical,dwh,20.0,4.0,lower,78.0,78.0,57.0,133.0,133.0,57.0,3,2.7303292751312256,None,,,,,0,0,0,0,0,22,22,70,143.01744151115417,,,,,,,,,,,,,,,,,,,,,,,,,,,,,,,,,,,,,,,,,,,,,,,,,,,,,,,,,,,,,,,,,,,,,,,,,,,,,,,,,78.0,78.0,57.0,133.0,133.0,57.0,4.0,4.2,-202,-10,0,-280,191,-8,143.0033643245697,143.00344967842102,143.0070230960846,143.01744151115417,143.15838193893433,143.15838193893433,143.15838193893433,143.15838193893433,143.15838193893433,143.15838193893433,143.15838193893433,145.75106811523438,3,2.7303292751312256,None,,,,,,,,,,,,,,,,,,18,2,2025-02-18_15h03.36.872,comp,2024.2.4,56.96909440102575,2025-02-18 15h03.48.135926 -0500,
23,23,0,filler_random,None,None,None,None,None,None,None,None,None,None,2,2.947014093399048,None,,,,,0,0,0,0,0,23,23,134,145.76762866973877,,,,,,,,,,,,,,,,,,,,,,,,,,,,,,,,,,,,,,,,,,,,,,,,,,,,,,,,,,,,,,,,,,,,,,,,,,,,,,,,,126.95708724302881,57.58039950809635,96.04835300541373,164.79073856495268,186.52279429559675,57.54594768214694,1.0,1.1,-687,255,-480,259,-273,259,145.75280117988586,145.75288033485413,145.75572800636292,145.76762866973877,145.9234495162964,145.9234495162964,145.9234495162964,145.9234495162964,145.9234495162964,145.9234495162964,145.9234495162964,148.72274088859558,2,2.947014093399048,None,,,,,,,,,,,,,,,,,,18,2,2025-02-18_15h03.36.872,comp,2024.2.4,56.96909440102575,2025-02-18 15h03.48.135926 -0500,
24,24,0,filler_random,None,None,None,None,None,None,None,None,None,None,2,1.6886727809906006,None,,,,,0,0,0,0,0,24,24,157,148.73850202560425,,,,,,,,,,,,,,,,,,,,,,,,,,,,,,,,,,,,,,,,,,,,,,,,,,,,,,,,,,,,,,,,,,,,,,,,,,,,,,,,,133.67054905541062,129.2969651937649,139.0136426457659,177.0504369307763,61.265735318543584,100.10279126481086,2.1,2.12,-249,-289,0,-287,235,253,148.72449493408203,148.7245728969574,148.72773790359497,148.73850202560425,148.88788294792175,148.88788294792175,148.88788294792175,148.88788294792175,148.88788294792175,148.88788294792175,148.88788294792175,150.44280886650085,2,1.6886727809906006,None,,,,,,,,,,,,,,,,,,18,2,2025-02-18_15h03.36.872,comp,2024.2.4,56.96909440102575,2025-02-18 15h03.48.135926 -0500,
25,25,0,critical,whd,35.0,2.1,lower,57.0,133.0,133.0,57.0,70.0,70.0,2,2.535797357559204,None,,,,,0,0,0,0,0,25,25,36,150.4584231376648,,,,,,,,,,,,,,,,,,,,,,,,,,,,,,,,,,,,,,,,,,,,,,,,,,,,,,,,,,,,,,,,,,,,,,,,,,,,,,,,,57.0,133.0,133.0,57.0,70.0,70.0,2.1,2.11,-191,286,0,280,160,-283,150.44434809684753,150.44442224502563,150.44731640815735,150.4584231376648,150.60434246063232,150.60434246063232,150.60434246063232,150.60434246063232,150.60434246063232,150.60434246063232,150.60434246063232,152.99839615821838,2,2.535797357559204,None,,,,,,,,,,,,,,,,,,18,2,2025-02-18_15h03.36.872,comp,2024.2.4,56.96909440102575,2025-02-18 15h03.48.135926 -0500,
26,26,0,critical,hdw,20.0,3.0,upper,200.0,125.0,141.0,141.0,125.0,200.0,1,10.768671989440918,None,,,,,0,0,0,0,0,26,26,117,153.01837635040283,,,,,,,,,,,,,,,,,,,,,,,,,,,,,,,,,,,,,,,,,,,,,,,,,,,,,,,,,,,,,,,,,,,,,,,,,,,,,,,,,200.0,125.0,141.0,141.0,125.0,200.0,3.0,3.2,-229,-275,0,-4,266,252,152.99981331825256,152.99988675117493,153.00267577171326,153.01837635040283,153.1558759212494,153.1558759212494,153.1558759212494,153.1558759212494,153.1558759212494,153.1558759212494,153.1558759212494,163.7932207584381,1,10.768671989440918,None,,,,,,,,,,,,,,,,,,18,2,2025-02-18_15h03.36.872,comp,2024.2.4,56.96909440102575,2025-02-18 15h03.48.135926 -0500,
27,27,0,critical,dhw,35.0,3.0,lower,70.0,70.0,133.0,57.0,57.0,133.0,3,4.112649202346802,None,,,,,0,0,0,0,0,27,27,50,163.81035208702087,,,,,,,,,,,,,,,,,,,,,,,,,,,,,,,,,,,,,,,,,,,,,,,,,,,,,,,,,,,,,,,,,,,,,,,,,,,,,,,,,70.0,70.0,133.0,57.0,57.0,133.0,3.0,3.2,-160,-255,0,-4,191,273,163.7946856021881,163.79480171203613,163.7989363670349,163.81035208702087,163.95989418029785,163.95989418029785,163.95989418029785,163.95989418029785,163.95989418029785,163.95989418029785,163.95989418029785,167.9288306236267,3,4.112649202346802,None,,,,,,,,,,,,,,,,,,18,2,2025-02-18_15h03.36.872,comp,2024.2.4,56.96909440102575,2025-02-18 15h03.48.135926 -0500,
28,28,0,critical,whd,20.0,1.0,upper,125.0,200.0,200.0,125.0,141.0,141.0,2,11.45836853981018,None,,,,,0,0,0,0,0,28,28,91,167.94482421875,,,,,,,,,,,,,,,,,,,,,,,,,,,,,,,,,,,,,,,,,,,,,,,,,,,,,,,,,,,,,,,,,,,,,,,,,,,,,,,,,125.0,200.0,200.0,125.0,141.0,141.0,1.0,1.2,-258,17,0,-17,229,-1,167.93084478378296,167.93100547790527,167.93407034873962,167.94482421875,168.09355664253235,168.09355664253235,168.09355664253235,168.09355664253235,168.09355664253235,168.09355664253235,168.09355664253235,179.4142541885376,2,11.45836853981018,None,,,,,,,,,,,,,,,,,,18,2,2025-02-18_15h03.36.872,comp,2024.2.4,56.96909440102575,2025-02-18 15h03.48.135926 -0500,
29,29,0,filler_square,None,None,None,None,None,None,None,None,None,None,1,1.9792180061340332,None,,,,,0,0,0,0,0,29,29,173,179.4309949874878,,,,,,,,,,,,,,,,,,,,,,,,,,,,,,,,,,,,,,,,,,,,,,,,,,,,,,,,,,,,,,,,,,,,,,,,,,,,,,,,,73.8928826498798,73.8928826498798,67.33988090945914,58.468450413770256,57.68701764765183,61.68214012458732,3.0,3.2,-162,-259,0,-10,156,288,179.41611289978027,179.41619181632996,179.42021012306213,179.4309949874878,179.58661675453186,179.58661675453186,179.58661675453186,179.58661675453186,179.58661675453186,179.58661675453186,179.58661675453186,181.41513061523438,1,1.9792180061340332,None,,,,,,,,,,,,,,,,,,18,2,2025-02-18_15h03.36.872,comp,2024.2.4,56.96909440102575,2025-02-18 15h03.48.135926 -0500,
30,30,0,critical,whd,35.0,3.0,lower,57.0,133.0,133.0,57.0,70.0,70.0,2,4.73102068901062,None,,,,,0,0,0,0,0,30,30,86,181.43158435821533,,,,,,,,,,,,,,,,,,,,,,,,,,,,,,,,,,,,,,,,,,,,,,,,,,,,,,,,,,,,,,,,,,,,,,,,,,,,,,,,,57.0,133.0,133.0,57.0,70.0,70.0,3.0,3.1,-191,279,0,1,160,-289,181.41668272018433,181.416761636734,181.4207944869995,181.43158435821533,181.58056783676147,181.58056783676147,181.58056783676147,181.58056783676147,181.58056783676147,181.58056783676147,181.58056783676147,186.16840410232544,2,4.73102068901062,None,,,,,,,,,,,,,,,,,,18,2,2025-02-18_15h03.36.872,comp,2024.2.4,56.96909440102575,2025-02-18 15h03.48.135926 -0500,
31,31,0,critical,hwd,20.0,2.1,lower,133.0,57.0,57.0,133.0,78.0,78.0,1,6.6105241775512695,None,,,,,0,0,0,0,0,31,31,18,186.1843066215515,,,,,,,,,,,,,,,,,,,,,,,,,,,,,,,,,,,,,,,,,,,,,,,,,,,,,,,,,,,,,,,,,,,,,,,,,,,,,,,,,133.0,57.0,57.0,133.0,78.0,78.0,2.1,2.11,-191,258,0,253,202,-252,186.17000675201416,186.1700828075409,186.1734902858734,186.1843066215515,186.33240699768066,186.33240699768066,186.33240699768066,186.33240699768066,186.33240699768066,186.33240699768066,186.33240699768066,192.80097460746765,1,6.6105241775512695,None,,,,,,,,,,,,,,,,,,18,2,2025-02-18_15h03.36.872,comp,2024.2.4,56.96909440102575,2025-02-18 15h03.48.135926 -0500,
32,32,0,filler_random,None,None,None,None,None,None,None,None,None,None,2,1.5778412818908691,None,,,,,0,0,0,0,0,32,32,137,192.81711983680725,,,,,,,,,,,,,,,,,,,,,,,,,,,,,,,,,,,,,,,,,,,,,,,,,,,,,,,,,,,,,,,,,,,,,,,,,,,,,,,,,104.33011125933945,71.0192677842262,193.62069093835692,188.24322833151425,195.51065727319306,129.55721098058942,2.1,2.12,-226,-270,0,-256,255,275,192.80294632911682,192.80302810668945,192.80641412734985,192.81711983680725,192.96770405769348,192.96770405769348,192.96770405769348,192.96770405769348,192.96770405769348,192.96770405769348,192.96770405769348,194.4018692970276,2,1.5778412818908691,None,,,,,,,,,,,,,,,,,,18,2,2025-02-18_15h03.36.872,comp,2024.2.4,56.96909440102575,2025-02-18 15h03.48.135926 -0500,
33,33,0,filler_square,None,None,None,None,None,None,None,None,None,None,1,6.1505537033081055,None,,,,,0,0,0,0,0,33,33,189,194.4196629524231,,,,,,,,,,,,,,,,,,,,,,,,,,,,,,,,,,,,,,,,,,,,,,,,,,,,,,,,,,,,,,,,,,,,,,,,,,,,,,,,,70.61917791219778,70.61917791219778,70.12422297059885,58.25215820673753,66.69498138529676,69.82834589162461,2.2,2.22,-160,274,0,-253,160,-278,194.4040982723236,194.40417766571045,194.40817022323608,194.4196629524231,194.56587529182434,194.56587529182434,194.56587529182434,194.56587529182434,194.56587529182434,194.56587529182434,194.56587529182434,200.58578395843506,1,6.1505537033081055,None,,,,,,,,,,,,,,,,,,18,2,2025-02-18_15h03.36.872,comp,2024.2.4,56.96909440102575,2025-02-18 15h03.48.135926 -0500,
34,34,0,critical,wdh,20.0,4.0,upper,125.0,200.0,141.0,141.0,200.0,125.0,1,5.96121883392334,None,,,,,0,0,0,0,0,34,34,83,200.6020450592041,,,,,,,,,,,,,,,,,,,,,,,,,,,,,,,,,,,,,,,,,,,,,,,,,,,,,,,,,,,,,,,,,,,,,,,,,,,,,,,,,125.0,200.0,141.0,141.0,200.0,125.0,4.0,4.2,-266,19,0,-284,229,11,200.58747720718384,200.587553024292,200.59080982208252,200.6020450592041,200.75276613235474,200.75276613235474,200.75276613235474,200.75276613235474,200.75276613235474,200.75276613235474,200.75276613235474,206.5713701248169,1,5.96121883392334,None,,,,,,,,,,,,,,,,,,18,2,2025-02-18_15h03.36.872,comp,2024.2.4,56.96909440102575,2025-02-18 15h03.48.135926 -0500,
35,35,0,filler_square,None,None,None,None,None,None,None,None,None,None,3,1.2787542343139648,None,,,,,0,0,0,0,0,35,35,179,206.58794474601746,,,,,,,,,,,,,,,,,,,,,,,,,,,,,,,,,,,,,,,,,,,,,,,,,,,,,,,,,,,,,,,,,,,,,,,,,,,,,,,,,103.42223912150519,124.7948913509934,135.4828568158548,94.33660199947835,158.60736857828505,158.60736857828505,3.0,3.1,-206,279,0,-2,222,-269,206.5732548236847,206.5733826160431,206.576589345932,206.58794474601746,206.7397119998932,206.7397119998932,206.7397119998932,206.7397119998932,206.7397119998932,206.7397119998932,206.7397119998932,207.87085247039795,3,1.2787542343139648,None,,,,,,,,,,,,,,,,,,18,2,2025-02-18_15h03.36.872,comp,2024.2.4,56.96909440102575,2025-02-18 15h03.48.135926 -0500,
36,36,0,filler_square,None,None,None,None,None,None,None,None,None,None,1,1.7941386699676514,None,,,,,0,0,0,0,0,36,36,171,207.8880066871643,,,,,,,,,,,,,,,,,,,,,,,,,,,,,,,,,,,,,,,,,,,,,,,,,,,,,,,,,,,,,,,,,,,,,,,,,,,,,,,,,102.22613030632299,102.22613030632299,72.64589996145962,74.35436087451625,84.63331950527495,90.96950873765994,4.0,4.2,-184,-14,0,-252,179,-4,207.8728449344635,207.8729510307312,207.87622261047363,207.8880066871643,208.03526258468628,208.03526258468628,208.03526258468628,208.03526258468628,208.03526258468628,208.03526258468628,208.03526258468628,209.69157648086548,1,1.7941386699676514,None,,,,,,,,,,,,,,,,,,18,2,2025-02-18_15h03.36.872,comp,2024.2.4,56.96909440102575,2025-02-18 15h03.48.135926 -0500,
37,37,0,critical,wdh,20.0,2.1,upper,125.0,200.0,141.0,141.0,200.0,125.0,1,3.839397430419922,None,,,,,0,0,0,0,0,37,37,35,209.70813703536987,,,,,,,,,,,,,,,,,,,,,,,,,,,,,,,,,,,,,,,,,,,,,,,,,,,,,,,,,,,,,,,,,,,,,,,,,,,,,,,,,125.0,200.0,141.0,141.0,200.0,125.0,2.1,2.12,-266,-263,0,-280,229,260,209.69316911697388,209.69324350357056,209.69655418395996,209.70813703536987,209.85630440711975,209.85630440711975,209.85630440711975,209.85630440711975,209.85630440711975,209.85630440711975,209.85630440711975,213.56543159484863,1,3.839397430419922,None,,,,,,,,,,,,,,,,,,18,2,2025-02-18_15h03.36.872,comp,2024.2.4,56.96909440102575,2025-02-18 15h03.48.135926 -0500,
38,38,0,filler_random,None,None,None,None,None,None,None,None,None,None,1,2.460379123687744,None,,,,,0,0,0,0,0,38,38,132,213.58202266693115,,,,,,,,,,,,,,,,,,,,,,,,,,,,,,,,,,,,,,,,,,,,,,,,,,,,,,,,,,,,,,,,,,,,,,,,,,,,,,,,,116.42674191903305,166.88273002337144,175.02184800934668,68.94530842890052,93.68375585301433,126.35483600741529,2.2,2.21,-214,-290,0,255,194,264,213.56740355491638,213.567480802536,213.57073855400085,213.58202266693115,213.72781658172607,213.72781658172607,213.72781658172607,213.72781658172607,213.72781658172607,213.72781658172607,213.72781658172607,216.0452196598053,1,2.460379123687744,None,,,,,,,,,,,,,,,,,,18,2,2025-02-18_15h03.36.872,comp,2024.2.4,56.96909440102575,2025-02-18 15h03.48.135926 -0500,
39,39,0,critical,wdh,20.0,2.1,upper,125.0,200.0,141.0,141.0,200.0,125.0,3,10.498372316360474,None,,,,,0,0,0,0,0,39,39,11,216.06408882141113,,,,,,,,,,,,,,,,,,,,,,,,,,,,,,,,,,,,,,,,,,,,,,,,,,,,,,,,,,,,,,,,,,,,,,,,,,,,,,,,,125.0,200.0,141.0,141.0,200.0,125.0,2.1,2.11,-266,259,0,255,229,-251,216.0468692779541,216.0469732284546,216.04981446266174,216.06408882141113,216.20897030830383,216.20897030830383,216.20897030830383,216.20897030830383,216.20897030830383,216.20897030830383,216.20897030830383,226.57811975479126,3,10.498372316360474,None,,,,,,,,,,,,,,,,,,18,2,2025-02-18_15h03.36.872,comp,2024.2.4,56.96909440102575,2025-02-18 15h03.48.135926 -0500,
40,40,0,filler_square,None,None,None,None,None,None,None,None,None,None,1,1.384753942489624,None,,,,,0,0,0,0,0,40,40,195,226.59358263015747,,,,,,,,,,,,,,,,,,,,,,,,,,,,,,,,,,,,,,,,,,,,,,,,,,,,,,,,,,,,,,,,,,,,,,,,,,,,,,,,,108.33265101602314,108.33265101602314,64.27303038461241,92.67470455913028,68.54377760734765,106.9300358787711,2.2,2.22,-197,289,0,-270,196,-262,226.5798683166504,226.57996559143066,226.5833022594452,226.59358263015747,226.74469351768494,226.74469351768494,226.74469351768494,226.74469351768494,226.74469351768494,226.74469351768494,226.74469351768494,227.98410272598267,1,1.384753942489624,None,,,,,,,,,,,,,,,,,,18,2,2025-02-18_15h03.36.872,comp,2024.2.4,56.96909440102575,2025-02-18 15h03.48.135926 -0500,
41,41,0,critical,wdh,20.0,4.0,lower,57.0,133.0,78.0,78.0,133.0,57.0,1,4.576643705368042,None,,,,,0,0,0,0,0,41,41,82,228.001695394516,,,,,,,,,,,,,,,,,,,,,,,,,,,,,,,,,,,,,,,,,,,,,,,,,,,,,,,,,,,,,,,,,,,,,,,,,,,,,,,,,57.0,133.0,78.0,78.0,133.0,57.0,4.0,4.2,-202,-9,0,-251,164,16,227.98559832572937,227.98567986488342,227.988600730896,228.001695394516,228.14552307128906,228.14552307128906,228.14552307128906,228.14552307128906,228.14552307128906,228.14552307128906,228.14552307128906,232.58280086517334,1,4.576643705368042,None,,,,,,,,,,,,,,,,,,18,2,2025-02-18_15h03.36.872,comp,2024.2.4,56.96909440102575,2025-02-18 15h03.48.135926 -0500,
42,42,0,critical,wdh,35.0,2.1,lower,57.0,133.0,70.0,70.0,133.0,57.0,3,6.91306209564209,None,,,,,0,0,0,0,0,42,42,32,232.60133934020996,,,,,,,,,,,,,,,,,,,,,,,,,,,,,,,,,,,,,,,,,,,,,,,,,,,,,,,,,,,,,,,,,,,,,,,,,,,,,,,,,57.0,133.0,70.0,70.0,133.0,57.0,2.1,2.12,-198,-279,0,-289,160,255,232.584862947464,232.58502554893494,232.58802723884583,232.60133934020996,232.74636363983154,232.74636363983154,232.74636363983154,232.74636363983154,232.74636363983154,232.74636363983154,232.74636363983154,239.51769089698792,3,6.91306209564209,None,,,,,,,,,,,,,,,,,,18,2,2025-02-18_15h03.36.872,comp,2024.2.4,56.96909440102575,2025-02-18 15h03.48.135926 -0500,
43,43,0,critical,hdw,35.0,3.0,lower,133.0,57.0,70.0,70.0,57.0,133.0,1,9.722642660140991,None,,,,,0,0,0,0,0,43,43,110,239.536274433136,,,,,,,,,,,,,,,,,,,,,,,,,,,,,,,,,,,,,,,,,,,,,,,,,,,,,,,,,,,,,,,,,,,,,,,,,,,,,,,,,133.0,57.0,70.0,70.0,57.0,133.0,3.0,3.1,-160,261,0,16,198,-262,239.51958322525024,239.51967120170593,239.52315998077393,239.536274433136,239.68078589439392,239.68078589439392,239.68078589439392,239.68078589439392,239.68078589439392,239.68078589439392,239.68078589439392,249.26896929740906,1,9.722642660140991,None,,,,,,,,,,,,,,,,,,18,2,2025-02-18_15h03.36.872,comp,2024.2.4,56.96909440102575,2025-02-18 15h03.48.135926 -0500,
44,44,0,critical,hwd,20.0,2.1,upper,200.0,125.0,125.0,200.0,141.0,141.0,1,8.189525604248047,None,,,,,0,0,0,0,0,44,44,43,249.28470158576965,,,,,,,,,,,,,,,,,,,,,,,,,,,,,,,,,,,,,,,,,,,,,,,,,,,,,,,,,,,,,,,,,,,,,,,,,,,,,,,,,200.0,125.0,125.0,200.0,141.0,141.0,2.1,2.11,-258,260,0,261,266,-276,249.2705340385437,249.27061223983765,249.27400088310242,249.28470158576965,249.4369285106659,249.4369285106659,249.4369285106659,249.4369285106659,249.4369285106659,249.4369285106659,249.4369285106659,257.4872610569,1,8.189525604248047,None,,,,,,,,,,,,,,,,,,18,2,2025-02-18_15h03.36.872,comp,2024.2.4,56.96909440102575,2025-02-18 15h03.48.135926 -0500,
45,45,0,critical,whd,35.0,2.1,lower,57.0,133.0,133.0,57.0,70.0,70.0,2,2.127152681350708,None,,,,,0,0,0,0,0,45,45,12,257.5075924396515,,,,,,,,,,,,,,,,,,,,,,,,,,,,,,,,,,,,,,,,,,,,,,,,,,,,,,,,,,,,,,,,,,,,,,,,,,,,,,,,,57.0,133.0,133.0,57.0,70.0,70.0,2.1,2.12,-191,-259,0,-285,160,265,257.4888119697571,257.4888846874237,257.4922432899475,257.5075924396515,257.65480065345764,257.65480065345764,257.65480065345764,257.65480065345764,257.65480065345764,257.65480065345764,257.65480065345764,259.64068698883057,2,2.127152681350708,None,,,,,,,,,,,,,,,,,,18,2,2025-02-18_15h03.36.872,comp,2024.2.4,56.96909440102575,2025-02-18 15h03.48.135926 -0500,
46,46,0,filler_random,None,None,None,None,None,None,None,None,None,None,2,4.450341463088989,None,,,,,0,0,0,0,0,46,46,155,259.6567418575287,,,,,,,,,,,,,,,,,,,,,,,,,,,,,,,,,,,,,,,,,,,,,,,,,,,,,,,,,,,,,,,,,,,,,,,,,,,,,,,,,75.36322877016362,60.997264930426276,110.34844851595476,110.43657154251702,145.25617929090936,64.19257309153392,2.1,2.12,-182,-274,0,-252,183,258,259.64265418052673,259.6427357196808,259.6459822654724,259.6567418575287,259.8050367832184,259.8050367832184,259.8050367832184,259.8050367832184,259.8050367832184,259.8050367832184,259.8050367832184,264.11438965797424,2,4.450341463088989,None,,,,,,,,,,,,,,,,,,18,2,2025-02-18_15h03.36.872,comp,2024.2.4,56.96909440102575,2025-02-18 15h03.48.135926 -0500,
47,47,0,critical,wdh,35.0,3.0,upper,125.0,200.0,127.0,127.0,200.0,125.0,1,6.288861989974976,None,,,,,0,0,0,0,0,47,47,75,264.13043308258057,,,,,,,,,,,,,,,,,,,,,,,,,,,,,,,,,,,,,,,,,,,,,,,,,,,,,,,,,,,,,,,,,,,,,,,,,,,,,,,,,125.0,200.0,127.0,127.0,200.0,125.0,3.0,3.2,-260,-271,0,-8,222,267,264.1158821582794,264.1159815788269,264.1188111305237,264.13043308258057,264.2730612754822,264.2730612754822,264.2730612754822,264.2730612754822,264.2730612754822,264.2730612754822,264.2730612754822,270.42574310302734,1,6.288861989974976,None,,,,,,,,,,,,,,,,,,18,2,2025-02-18_15h03.36.872,comp,2024.2.4,56.96909440102575,2025-02-18 15h03.48.135926 -0500,
48,48,0,filler_random,None,None,None,None,None,None,None,None,None,None,2,2.825052499771118,None,,,,,0,0,0,0,0,48,48,154,270.4422605037689,,,,,,,,,,,,,,,,,,,,,,,,,,,,,,,,,,,,,,,,,,,,,,,,,,,,,,,,,,,,,,,,,,,,,,,,,,,,,,,,,124.99812727794102,77.41075337782982,192.88055729151475,75.6884611233713,58.6826481258357,155.03774504931982,1.0,1.2,-173,17,0,2,211,13,270.4274880886078,270.427570104599,270.4310095310211,270.4422605037689,270.5914409160614,270.5914409160614,270.5914409160614,270.5914409160614,270.5914409160614,270.5914409160614,270.5914409160614,273.27651500701904,2,2.825052499771118,None,,,,,,,,,,,,,,,,,,18,2,2025-02-18_15h03.36.872,comp,2024.2.4,56.96909440102575,2025-02-18 15h03.48.135926 -0500,
49,49,0,filler_random,None,None,None,None,None,None,None,None,None,None,1,1.5012521743774414,None,,,,,0,0,0,0,0,49,49,169,273.2930097579956,,,,,,,,,,,,,,,,,,,,,,,,,,,,,,,,,,,,,,,,,,,,,,,,,,,,,,,,,,,,,,,,,,,,,,,,,,,,,,,,,124.37795288553576,146.9808886889399,119.4796936564519,117.21887526032904,64.45119379099248,65.2275960146461,1.0,1.2,-228,-3,0,13,187,-14,273.27820801734924,273.27828550338745,273.2822811603546,273.2930097579956,273.4406907558441,273.4406907558441,273.4406907558441,273.4406907558441,273.4406907558441,273.4406907558441,273.4406907558441,274.8109884262085,1,1.5012521743774414,None,,,,,,,,,,,,,,,,,,18,2,2025-02-18_15h03.36.872,comp,2024.2.4,56.96909440102575,2025-02-18 15h03.48.135926 -0500,
50,50,0,filler_square,None,None,None,None,None,None,None,None,None,None,1,1.0936064720153809,None,,,,,0,0,0,0,0,50,50,177,274.82884550094604,,,,,,,,,,,,,,,,,,,,,,,,,,,,,,,,,,,,,,,,,,,,,,,,,,,,,,,,,,,,,,,,,,,,,,,,,,,,,,,,,195.89595808969395,195.89595808969395,187.29429316810885,75.86254754172163,118.93418374148918,119.51204101979285,2.1,2.11,-232,279,0,258,194,-285,274.8129596710205,274.8130352497101,274.8161971569061,274.82884550094604,274.97599840164185,274.97599840164185,274.97599840164185,274.97599840164185,274.97599840164185,274.97599840164185,274.97599840164185,275.9271125793457,1,1.0936064720153809,None,,,,,,,,,,,,,,,,,,18,2,2025-02-18_15h03.36.872,comp,2024.2.4,56.96909440102575,2025-02-18 15h03.48.135926 -0500,
51,51,0,filler_square,None,None,None,None,None,None,None,None,None,None,3,1.130631923675537,None,,,,,0,0,0,0,0,51,51,196,275.9440002441406,,,,,,,,,,,,,,,,,,,,,,,,,,,,,,,,,,,,,,,,,,,,,,,,,,,,,,,,,,,,,,,,,,,,,,,,,,,,,,,,,88.69638944819732,74.93766131753429,78.664172074764,79.7353934546434,108.5664168090926,108.5664168090926,2.1,2.12,-173,-262,0,-252,190,258,275.9290916919708,275.92917799949646,275.93325185775757,275.9440002441406,276.08092427253723,276.08092427253723,276.08092427253723,276.08092427253723,276.08092427253723,276.08092427253723,276.08092427253723,277.07677841186523,3,1.130631923675537,None,,,,,,,,,,,,,,,,,,18,2,2025-02-18_15h03.36.872,comp,2024.2.4,56.96909440102575,2025-02-18 15h03.48.135926 -0500,
52,52,0,filler_square,None,None,None,None,None,None,None,None,None,None,2,1.4297983646392822,None,,,,,0,0,0,0,0,52,52,174,277.093341588974,,,,,,,,,,,,,,,,,,,,,,,,,,,,,,,,,,,,,,,,,,,,,,,,,,,,,,,,,,,,,,,,,,,,,,,,,,,,,,,,,159.52530600596168,161.4292253485665,194.65865413740664,194.65865413740664,66.12708212556974,101.65721813818695,4.0,4.1,-274,-259,0,-13,244,-282,277.078547000885,277.0786278247833,277.0818338394165,277.093341588974,277.24560713768005,277.24560713768005,277.24560713768005,277.24560713768005,277.24560713768005,277.24560713768005,277.24560713768005,278.5302529335022,2,1.4297983646392822,None,,,,,,,,,,,,,,,,,,18,2,2025-02-18_15h03.36.872,comp,2024.2.4,56.96909440102575,2025-02-18 15h03.48.135926 -0500,
53,53,0,filler_random,None,None,None,None,None,None,None,None,None,None,3,2.6239354610443115,None,,,,,0,0,0,0,0,53,53,159,278.54641556739807,,,,,,,,,,,,,,,,,,,,,,,,,,,,,,,,,,,,,,,,,,,,,,,,,,,,,,,,,,,,,,,,,,,,,,,,,,,,,,,,,109.00006502316415,117.17116338499575,132.21427724205375,158.67471606285883,156.49194390534194,168.00719630874892,1.0,1.1,-714,251,-480,257,-221,290,278.53267550468445,278.53275966644287,278.5356767177582,278.54641556739807,278.6955771446228,278.6955771446228,278.6955771446228,278.6955771446228,278.6955771446228,278.6955771446228,278.6955771446228,281.1889719963074,3,2.6239354610443115,None,,,,,,,,,,,,,,,,,,18,2,2025-02-18_15h03.36.872,comp,2024.2.4,56.96909440102575,2025-02-18 15h03.48.135926 -0500,
54,54,0,critical,dwh,35.0,1.0,lower,70.0,70.0,57.0,133.0,133.0,57.0,2,3.5539944171905518,None,,,,,0,0,0,0,0,54,54,60,281.2087380886078,,,,,,,,,,,,,,,,,,,,,,,,,,,,,,,,,,,,,,,,,,,,,,,,,,,,,,,,,,,,,,,,,,,,,,,,,,,,,,,,,70.0,70.0,57.0,133.0,133.0,57.0,1.0,1.1,-678,266,-480,287,-289,285,281.1904966831207,281.19057059288025,281.1934554576874,281.2087380886078,281.34783959388733,281.34783959388733,281.34783959388733,281.34783959388733,281.34783959388733,281.34783959388733,281.34783959388733,284.76483392715454,2,3.5539944171905518,None,,,,,,,,,,,,,,,,,,18,2,2025-02-18_15h03.36.872,comp,2024.2.4,56.96909440102575,2025-02-18 15h03.48.135926 -0500,
55,55,0,critical,hwd,20.0,1.0,lower,133.0,57.0,57.0,133.0,78.0,78.0,2,2.3816583156585693,None,,,,,0,0,0,0,0,55,55,102,284.7808771133423,,,,,,,,,,,,,,,,,,,,,,,,,,,,,,,,,,,,,,,,,,,,,,,,,,,,,,,,,,,,,,,,,,,,,,,,,,,,,,,,,133.0,57.0,57.0,133.0,78.0,78.0,1.0,1.1,-671,252,-480,282,-278,289,284.7665536403656,284.7666985988617,284.7700843811035,284.7808771133423,284.92786383628845,284.92786383628845,284.92786383628845,284.92786383628845,284.92786383628845,284.92786383628845,284.92786383628845,287.1658265590668,2,2.3816583156585693,None,,,,,,,,,,,,,,,,,,18,2,2025-02-18_15h03.36.872,comp,2024.2.4,56.96909440102575,2025-02-18 15h03.48.135926 -0500,
56,56,0,critical,whd,20.0,2.1,lower,57.0,133.0,133.0,57.0,78.0,78.0,2,4.5001630783081055,None,,,,,0,0,0,0,0,56,56,14,287.1828315258026,,,,,,,,,,,,,,,,,,,,,,,,,,,,,,,,,,,,,,,,,,,,,,,,,,,,,,,,,,,,,,,,,,,,,,,,,,,,,,,,,57.0,133.0,133.0,57.0,78.0,78.0,2.1,2.11,-191,288,0,260,164,-256,287.1675682067871,287.167685508728,287.1711437702179,287.1828315258026,287.32980155944824,287.32980155944824,287.32980155944824,287.32980155944824,287.32980155944824,287.32980155944824,287.32980155944824,291.68551111221313,2,4.5001630783081055,None,,,,,,,,,,,,,,,,,,18,2,2025-02-18_15h03.36.872,comp,2024.2.4,56.96909440102575,2025-02-18 15h03.48.135926 -0500,
57,57,0,critical,whd,20.0,2.1,upper,125.0,200.0,200.0,125.0,141.0,141.0,2,2.694047212600708,None,,,,,0,0,0,0,0,57,57,15,291.70109486579895,,,,,,,,,,,,,,,,,,,,,,,,,,,,,,,,,,,,,,,,,,,,,,,,,,,,,,,,,,,,,,,,,,,,,,,,,,,,,,,,,125.0,200.0,200.0,125.0,141.0,141.0,2.1,2.12,-258,-281,0,-277,229,282,291.68721318244934,291.68729424476624,291.6902000904083,291.70109486579895,291.84924602508545,291.84924602508545,291.84924602508545,291.84924602508545,291.84924602508545,291.84924602508545,291.84924602508545,294.40237641334534,2,2.694047212600708,None,,,,,,,,,,,,,,,,,,18,2,2025-02-18_15h03.36.872,comp,2024.2.4,56.96909440102575,2025-02-18 15h03.48.135926 -0500,
58,58,0,critical,dwh,20.0,2.1,lower,78.0,78.0,57.0,133.0,133.0,57.0,3,6.104521751403809,None,,,,,0,0,0,0,0,58,58,30,294.4177916049957,,,,,,,,,,,,,,,,,,,,,,,,,,,,,,,,,,,,,,,,,,,,,,,,,,,,,,,,,,,,,,,,,,,,,,,,,,,,,,,,,78.0,78.0,57.0,133.0,133.0,57.0,2.1,2.11,-202,273,0,263,191,-270,294.40389752388,294.40399289131165,294.4070987701416,294.4177916049957,294.5702373981476,294.5702373981476,294.5702373981476,294.5702373981476,294.5702373981476,294.5702373981476,294.5702373981476,300.53500175476074,3,6.104521751403809,None,,,,,,,,,,,,,,,,,,18,2,2025-02-18_15h03.36.872,comp,2024.2.4,56.96909440102575,2025-02-18 15h03.48.135926 -0500,
59,59,0,critical,hwd,35.0,3.0,upper,200.0,125.0,125.0,200.0,127.0,127.0,1,3.1690258979797363,None,,,,,0,0,0,0,0,59,59,99,300.55340600013733,,,,,,,,,,,,,,,,,,,,,,,,,,,,,,,,,,,,,,,,,,,,,,,,,,,,,,,,,,,,,,,,,,,,,,,,,,,,,,,,,200.0,125.0,125.0,200.0,127.0,127.0,3.0,3.2,-258,-274,0,-8,260,257,300.5364158153534,300.5364897251129,300.54000782966614,300.55340600013733,300.70154333114624,300.70154333114624,300.70154333114624,300.70154333114624,300.70154333114624,300.70154333114624,300.70154333114624,303.73572611808777,1,3.1690258979797363,None,,,,,,,,,,,,,,,,,,18,2,2025-02-18_15h03.36.872,comp,2024.2.4,56.96909440102575,2025-02-18 15h03.48.135926 -0500,
60,60,0,catch,None,None,None,None,None,None,None,None,None,None,2,1.0495967864990234,None,,,,,0,0,0,0,0,60,60,128,303.7528004646301,,,,,,,,,,,,,,,,,,,,,,,,,,,,,,,,,,,,,,,,,,,,,,,,,,,,,,,,,,,,,,,,,,,,,,,,,,,,,,,,,68,122,161,164,78,112,3.0,3.2,-239,-273,0,-13,234,262,303.7379267215729,303.73801708221436,303.7416627407074,303.7528004646301,303.90041399002075,303.90041399002075,303.90041399002075,303.90041399002075,303.90041399002075,303.90041399002075,303.90041399002075,304.8195219039917,2,1.0495967864990234,None,,,,,,,,,,,,,,,,,,18,2,2025-02-18_15h03.36.872,comp,2024.2.4,56.96909440102575,2025-02-18 15h03.48.135926 -0500,
61,61,0,critical,wdh,35.0,2.1,upper,125.0,200.0,127.0,127.0,200.0,125.0,1,7.297808647155762,None,,,,,0,0,0,0,0,61,61,33,304.83332419395447,,,,,,,,,,,,,,,,,,,,,,,,,,,,,,,,,,,,,,,,,,,,,,,,,,,,,,,,,,,,,,,,,,,,,,,,,,,,,,,,,125.0,200.0,127.0,127.0,200.0,125.0,2.1,2.11,-260,256,0,289,222,-264,304.8210618495941,304.82115387916565,304.82434916496277,304.83332419395447,304.9848837852478,304.9848837852478,304.9848837852478,304.9848837852478,304.9848837852478,304.9848837852478,304.9848837852478,312.138818025589,1,7.297808647155762,None,,,,,,,,,,,,,,,,,,18,2,2025-02-18_15h03.36.872,comp,2024.2.4,56.96909440102575,2025-02-18 15h03.48.135926 -0500,
62,62,0,filler_random,None,None,None,None,None,None,None,None,None,None,1,1.4546549320220947,None,,,,,0,0,0,0,0,62,62,151,312.155357837677,,,,,,,,,,,,,,,,,,,,,,,,,,,,,,,,,,,,,,,,,,,,,,,,,,,,,,,,,,,,,,,,,,,,,,,,,,,,,,,,,178.8302297957111,111.90724226240286,71.71210398004797,123.86210980648032,113.4586844280384,111.00121076789702,4.0,4.2,-214,20,0,-287,213,-1,312.140501499176,312.1405780315399,312.1446108818054,312.155357837677,312.305700302124,312.305700302124,312.305700302124,312.305700302124,312.305700302124,312.305700302124,312.305700302124,313.6208174228668,1,1.4546549320220947,None,,,,,,,,,,,,,,,,,,18,2,2025-02-18_15h03.36.872,comp,2024.2.4,56.96909440102575,2025-02-18 15h03.48.135926 -0500,
63,63,0,filler_square,None,None,None,None,None,None,None,None,None,None,2,1.3158271312713623,None,,,,,0,0,0,0,0,63,63,200,313.6389670372009,,,,,,,,,,,,,,,,,,,,,,,,,,,,,,,,,,,,,,,,,,,,,,,,,,,,,,,,,,,,,,,,,,,,,,,,,,,,,,,,,85.22080321300847,99.28050511636462,105.59250201427763,105.59250201427763,98.22688353923004,83.56000593235768,1.0,1.2,-198,1,0,-7,191,13,313.6225619316101,313.6226387023926,313.6257514953613,313.6389670372009,313.78705072402954,313.78705072402954,313.78705072402954,313.78705072402954,313.78705072402954,313.78705072402954,313.78705072402954,314.95912051200867,2,1.3158271312713623,None,,,,,,,,,,,,,,,,,,18,2,2025-02-18_15h03.36.872,comp,2024.2.4,56.96909440102575,2025-02-18 15h03.48.135926 -0500,
64,64,0,filler_random,None,None,None,None,None,None,None,None,None,None,3,1.5702729225158691,None,,,,,0,0,0,0,0,64,64,140,314.9765844345093,,,,,,,,,,,,,,,,,,,,,,,,,,,,,,,,,,,,,,,,,,,,,,,,,,,,,,,,,,,,,,,,,,,,,,,,,,,,,,,,,67.01278494121414,159.26146760711748,109.13572990217104,100.3816319168888,102.9992456328911,186.01379896958642,3.0,3.1,-226,285,0,12,239,-255,314.9614746570587,314.96155619621277,314.965030670166,314.9765844345093,315.1200342178345,315.1200342178345,315.1200342178345,315.1200342178345,315.1200342178345,315.1200342178345,315.1200342178345,316.55540108680725,3,1.5702729225158691,None,,,,,,,,,,,,,,,,,,18,2,2025-02-18_15h03.36.872,comp,2024.2.4,56.96909440102575,2025-02-18 15h03.48.135926 -0500,
65,65,0,filler_random,None,None,None,None,None,None,None,None,None,None,3,1.0059945583343506,None,,,,,0,0,0,0,0,65,65,152,316.57244062423706,,,,,,,,,,,,,,,,,,,,,,,,,,,,,,,,,,,,,,,,,,,,,,,,,,,,,,,,,,,,,,,,,,,,,,,,,,,,,,,,,70.97115881640082,139.68271102094872,70.1971397226339,121.06588616993736,121.77172833378398,175.4901245246882,2.1,2.12,-226,-274,0,-260,244,290,316.5573630332947,316.5574412345886,316.5607109069824,316.57244062423706,316.7212772369385,316.7212772369385,316.7212772369385,316.7212772369385,316.7212772369385,316.7212772369385,316.7212772369385,317.597962141037,3,1.0059945583343506,None,,,,,,,,,,,,,,,,,,18,2,2025-02-18_15h03.36.872,comp,2024.2.4,56.96909440102575,2025-02-18 15h03.48.135926 -0500,
66,66,0,filler_random,None,None,None,None,None,None,None,None,None,None,2,6.594334840774536,None,,,,,0,0,0,0,0,66,66,149,317.6160397529602,,,,,,,,,,,,,,,,,,,,,,,,,,,,,,,,,,,,,,,,,,,,,,,,,,,,,,,,,,,,,,,,,,,,,,,,,,,,,,,,,181.43322914134757,90.49428892558889,191.85977861798668,87.58398141320777,152.53470645778685,81.53557955321075,4.0,4.2,-185,13,0,-287,181,5,317.5998477935791,317.59995698928833,317.60326766967773,317.6160397529602,317.7567434310913,317.7567434310913,317.7567434310913,317.7567434310913,317.7567434310913,317.7567434310913,317.7567434310913,324.22496151924133,2,6.594334840774536,None,,,,,,,,,,,,,,,,,,18,2,2025-02-18_15h03.36.872,comp,2024.2.4,56.96909440102575,2025-02-18 15h03.48.135926 -0500,
67,67,0,catch,None,None,None,None,None,None,None,None,None,None,3,0.9622886180877686,None,,,,,0,0,0,0,0,67,67,127,324.2409324645996,,,,,,,,,,,,,,,,,,,,,,,,,,,,,,,,,,,,,,,,,,,,,,,,,,,,,,,,,,,,,,,,,,,,,,,,,,,,,,,,,84,106,75,115,136,189,2.1,2.12,-206,-289,0,-271,248,273,324.22682762145996,324.226922750473,324.229939699173,324.2409324645996,324.3886640071869,324.3886640071869,324.3886640071869,324.3886640071869,324.3886640071869,324.3886640071869,324.3886640071869,325.20964908599854,3,0.9622886180877686,None,,,,,,,,,,,,,,,,,,18,2,2025-02-18_15h03.36.872,comp,2024.2.4,56.96909440102575,2025-02-18 15h03.48.135926 -0500,
68,68,0,filler_random,None,None,None,None,None,None,None,None,None,None,1,1.3287506103515625,None,,,,,0,0,0,0,0,68,68,143,325.2265021800995,,,,,,,,,,,,,,,,,,,,,,,,,,,,,,,,,,,,,,,,,,,,,,,,,,,,,,,,,,,,,,,,,,,,,,,,,,,,,,,,,172.02370080078552,82.74596792568363,170.2538875329464,62.71673779228465,164.01679449492644,79.38675101075624,4.0,4.1,-169,-267,0,-15,167,-289,325.21138095855713,325.2115104198456,325.2147116661072,325.2265021800995,325.3781280517578,325.3781280517578,325.3781280517578,325.3781280517578,325.3781280517578,325.3781280517578,325.3781280517578,326.55796217918396,1,1.3287506103515625,None,,,,,,,,,,,,,,,,,,18,2,2025-02-18_15h03.36.872,comp,2024.2.4,56.96909440102575,2025-02-18 15h03.48.135926 -0500,
69,69,0,filler_square,None,None,None,None,None,None,None,None,None,None,3,1.4204137325286865,None,,,,,0,0,0,0,0,69,69,176,326.573885679245,,,,,,,,,,,,,,,,,,,,,,,,,,,,,,,,,,,,,,,,,,,,,,,,,,,,,,,,,,,,,,,,,,,,,,,,,,,,,,,,,57.069664892206376,85.723111647802,73.54987746537915,89.93799915101991,93.30477673593916,93.30477673593916,2.1,2.11,-184,284,0,275,188,-263,326.55965280532837,326.55972814559937,326.5628311634064,326.573885679245,326.7155690193176,326.7155690193176,326.7155690193176,326.7155690193176,326.7155690193176,326.7155690193176,326.7155690193176,328.00935339927673,3,1.4204137325286865,None,,,,,,,,,,,,,,,,,,18,2,2025-02-18_15h03.36.872,comp,2024.2.4,56.96909440102575,2025-02-18 15h03.48.135926 -0500,
70,70,0,critical,hwd,20.0,3.0,upper,200.0,125.0,125.0,200.0,141.0,141.0,2,3.7057418823242188,None,,,,,0,0,0,0,0,70,70,105,328.0245797634125,,,,,,,,,,,,,,,,,,,,,,,,,,,,,,,,,,,,,,,,,,,,,,,,,,,,,,,,,,,,,,,,,,,,,,,,,,,,,,,,,200.0,125.0,125.0,200.0,141.0,141.0,3.0,3.1,-258,285,0,-14,266,-279,328.01083159446716,328.01092648506165,328.01392102241516,328.0245797634125,328.18283247947693,328.18283247947693,328.18283247947693,328.18283247947693,328.18283247947693,328.18283247947693,328.18283247947693,331.7447304725647,2,3.7057418823242188,None,,,,,,,,,,,,,,,,,,18,2,2025-02-18_15h03.36.872,comp,2024.2.4,56.96909440102575,2025-02-18 15h03.48.135926 -0500,
71,71,0,critical,dwh,20.0,4.0,upper,141.0,141.0,125.0,200.0,200.0,125.0,2,5.547121047973633,None,,,,,0,0,0,0,0,71,71,71,331.76011967658997,,,,,,,,,,,,,,,,,,,,,,,,,,,,,,,,,,,,,,,,,,,,,,,,,,,,,,,,,,,,,,,,,,,,,,,,,,,,,,,,,141.0,141.0,125.0,200.0,200.0,125.0,4.0,4.1,-266,-267,0,17,258,-259,331.74630641937256,331.7463870048523,331.7497720718384,331.76011967658997,331.9165110588074,331.9165110588074,331.9165110588074,331.9165110588074,331.9165110588074,331.9165110588074,331.9165110588074,337.3113126754761,2,5.547121047973633,None,,,,,,,,,,,,,,,,,,18,2,2025-02-18_15h03.36.872,comp,2024.2.4,56.96909440102575,2025-02-18 15h03.48.135926 -0500,
72,72,0,critical,hwd,35.0,2.1,lower,133.0,57.0,57.0,133.0,70.0,70.0,1,2.203237771987915,None,,,,,0,0,0,0,0,72,72,40,337.3274712562561,,,,,,,,,,,,,,,,,,,,,,,,,,,,,,,,,,,,,,,,,,,,,,,,,,,,,,,,,,,,,,,,,,,,,,,,,,,,,,,,,133.0,57.0,57.0,133.0,70.0,70.0,2.1,2.11,-191,269,0,269,198,-278,337.31281328201294,337.31289076805115,337.3157649040222,337.3274712562561,337.4638328552246,337.4638328552246,337.4638328552246,337.4638328552246,337.4638328552246,337.4638328552246,337.4638328552246,339.5327718257904,1,2.203237771987915,None,,,,,,,,,,,,,,,,,,18,2,2025-02-18_15h03.36.872,comp,2024.2.4,56.96909440102575,2025-02-18 15h03.48.135926 -0500,
73,73,0,critical,dhw,35.0,3.0,upper,127.0,127.0,200.0,125.0,125.0,200.0,3,3.269127607345581,None,,,,,0,0,0,0,0,73,73,51,339.5491704940796,,,,,,,,,,,,,,,,,,,,,,,,,,,,,,,,,,,,,,,,,,,,,,,,,,,,,,,,,,,,,,,,,,,,,,,,,,,,,,,,,127.0,127.0,200.0,125.0,125.0,200.0,3.0,3.1,-222,282,0,-7,258,-278,339.53460788726807,339.534729719162,339.5384798049927,339.5491704940796,339.69671869277954,339.69671869277954,339.69671869277954,339.69671869277954,339.69671869277954,339.69671869277954,339.69671869277954,342.8299705982208,3,3.269127607345581,None,,,,,,,,,,,,,,,,,,18,2,2025-02-18_15h03.36.872,comp,2024.2.4,56.96909440102575,2025-02-18 15h03.48.135926 -0500,
74,74,0,critical,wdh,35.0,1.0,lower,57.0,133.0,70.0,70.0,133.0,57.0,3,2.156595230102539,None,,,,,0,0,0,0,0,74,74,72,342.8457534313202,,,,,,,,,,,,,,,,,,,,,,,,,,,,,,,,,,,,,,,,,,,,,,,,,,,,,,,,,,,,,,,,,,,,,,,,,,,,,,,,,57.0,133.0,70.0,70.0,133.0,57.0,1.0,1.3,282,-288,480,-283,640,-262,342.8313879966736,342.8314607143402,342.8345649242401,342.8457534313202,342.98176622390747,342.98176622390747,342.98176622390747,342.98176622390747,342.98176622390747,342.98176622390747,342.98176622390747,345.0149977207184,3,2.156595230102539,None,,,,,,,,,,,,,,,,,,18,2,2025-02-18_15h03.36.872,comp,2024.2.4,56.96909440102575,2025-02-18 15h03.48.135926 -0500,
75,75,0,filler_square,None,None,None,None,None,None,None,None,None,None,1,1.3594136238098145,None,,,,,0,0,0,0,0,75,75,187,345.03522086143494,,,,,,,,,,,,,,,,,,,,,,,,,,,,,,,,,,,,,,,,,,,,,,,,,,,,,,,,,,,,,,,,,,,,,,,,,,,,,,,,,109.21418334059989,109.21418334059989,79.11420069363322,91.37336200329466,103.77670086667995,66.78465076009543,2.1,2.12,-196,-271,0,-283,175,267,345.0167872905731,345.0168659687042,345.020343542099,345.03522086143494,345.18999195098877,345.18999195098877,345.18999195098877,345.18999195098877,345.18999195098877,345.18999195098877,345.18999195098877,346.3995614051819,1,1.3594136238098145,None,,,,,,,,,,,,,,,,,,18,2,2025-02-18_15h03.36.872,comp,2024.2.4,56.96909440102575,2025-02-18 15h03.48.135926 -0500,
76,76,0,critical,hwd,35.0,3.0,lower,133.0,57.0,57.0,133.0,70.0,70.0,2,3.8599166870117188,None,,,,,0,0,0,0,0,76,76,98,346.41541051864624,,,,,,,,,,,,,,,,,,,,,,,,,,,,,,,,,,,,,,,,,,,,,,,,,,,,,,,,,,,,,,,,,,,,,,,,,,,,,,,,,133.0,57.0,57.0,133.0,70.0,70.0,3.0,3.2,-191,-284,0,-18,198,267,346.4011151790619,346.4011936187744,346.4041600227356,346.41541051864624,346.5654709339142,346.5654709339142,346.5654709339142,346.5654709339142,346.5654709339142,346.5654709339142,346.5654709339142,350.2805495262146,2,3.8599166870117188,None,,,,,,,,,,,,,,,,,,18,2,2025-02-18_15h03.36.872,comp,2024.2.4,56.96909440102575,2025-02-18 15h03.48.135926 -0500,
77,77,0,critical,hdw,35.0,4.0,upper,200.0,125.0,127.0,127.0,125.0,200.0,1,4.1314475536346436,None,,,,,0,0,0,0,0,77,77,113,350.29671597480774,,,,,,,,,,,,,,,,,,,,,,,,,,,,,,,,,,,,,,,,,,,,,,,,,,,,,,,,,,,,,,,,,,,,,,,,,,,,,,,,,200.0,125.0,127.0,127.0,125.0,200.0,4.0,4.1,-222,-256,0,20,260,-254,350.28207755088806,350.2821521759033,350.28497076034546,350.29671597480774,350.44896936416626,350.44896936416626,350.44896936416626,350.44896936416626,350.44896936416626,350.44896936416626,350.44896936416626,354.4338881969452,1,4.1314475536346436,None,,,,,,,,,,,,,,,,,,18,2,2025-02-18_15h03.36.872,comp,2024.2.4,56.96909440102575,2025-02-18 15h03.48.135926 -0500,
78,78,0,filler_random,None,None,None,None,None,None,None,None,None,None,2,1.1682016849517822,None,,,,,0,0,0,0,0,78,78,136,354.45033526420593,,,,,,,,,,,,,,,,,,,,,,,,,,,,,,,,,,,,,,,,,,,,,,,,,,,,,,,,,,,,,,,,,,,,,,,,,,,,,,,,,87.8167633430759,102.03583528168855,162.65091353273908,120.57598474994695,149.2617019462556,84.45386520663531,3.0,3.1,-207,267,0,-4,199,-256,354.43563652038574,354.4357166290283,354.4387981891632,354.45033526420593,354.60338854789734,354.60338854789734,354.60338854789734,354.60338854789734,354.60338854789734,354.60338854789734,354.60338854789734,355.63523054122925,2,1.1682016849517822,None,,,,,,,,,,,,,,,,,,18,2,2025-02-18_15h03.36.872,comp,2024.2.4,56.96909440102575,2025-02-18 15h03.48.135926 -0500,
79,79,0,filler_random,None,None,None,None,None,None,None,None,None,None,1,1.5034334659576416,None,,,,,0,0,0,0,0,79,79,135,355.65118956565857,,,,,,,,,,,,,,,,,,,,,,,,,,,,,,,,,,,,,,,,,,,,,,,,,,,,,,,,,,,,,,,,,,,,,,,,,,,,,,,,,66.16449252115136,147.06255170763822,85.56479225227203,59.31620714495719,71.01813460128766,62.4629976357304,2.2,2.21,-199,-271,0,276,157,275,355.6370747089386,355.63715147972107,355.64052152633667,355.65118956565857,355.80371141433716,355.80371141433716,355.80371141433716,355.80371141433716,355.80371141433716,355.80371141433716,355.80371141433716,357.1724829673767,1,1.5034334659576416,None,,,,,,,,,,,,,,,,,,18,2,2025-02-18_15h03.36.872,comp,2024.2.4,56.96909440102575,2025-02-18 15h03.48.135926 -0500,
80,80,0,critical,whd,20.0,3.0,upper,125.0,200.0,200.0,125.0,141.0,141.0,1,3.954227924346924,None,,,,,0,0,0,0,0,80,80,93,357.19283056259155,,,,,,,,,,,,,,,,,,,,,,,,,,,,,,,,,,,,,,,,,,,,,,,,,,,,,,,,,,,,,,,,,,,,,,,,,,,,,,,,,125.0,200.0,200.0,125.0,141.0,141.0,3.0,3.1,-258,251,0,9,229,-283,357.17412781715393,357.17420291900635,357.17744851112366,357.19283056259155,357.33634996414185,357.33634996414185,357.33634996414185,357.33634996414185,357.33634996414185,357.33634996414185,357.33634996414185,361.15426445007324,1,3.954227924346924,None,,,,,,,,,,,,,,,,,,18,2,2025-02-18_15h03.36.872,comp,2024.2.4,56.96909440102575,2025-02-18 15h03.48.135926 -0500,
81,81,0,critical,wdh,20.0,1.0,lower,57.0,133.0,78.0,78.0,133.0,57.0,3,2.563441276550293,None,,,,,0,0,0,0,0,81,81,78,361.175137758255,,,,,,,,,,,,,,,,,,,,,,,,,,,,,,,,,,,,,,,,,,,,,,,,,,,,,,,,,,,,,,,,,,,,,,,,,,,,,,,,,57.0,133.0,78.0,78.0,133.0,57.0,1.0,1.2,-202,5,0,-12,164,2,361.15568113327026,361.1557586193085,361.15862941741943,361.175137758255,361.32244300842285,361.32244300842285,361.32244300842285,361.32244300842285,361.32244300842285,361.32244300842285,361.32244300842285,363.74121499061584,3,2.563441276550293,None,,,,,,,,,,,,,,,,,,18,2,2025-02-18_15h03.36.872,comp,2024.2.4,56.96909440102575,2025-02-18 15h03.48.135926 -0500,
82,82,0,critical,whd,20.0,1.0,lower,57.0,133.0,133.0,57.0,78.0,78.0,2,3.0811069011688232,None,,,,,0,0,0,0,0,82,82,90,363.76144099235535,,,,,,,,,,,,,,,,,,,,,,,,,,,,,,,,,,,,,,,,,,,,,,,,,,,,,,,,,,,,,,,,,,,,,,,,,,,,,,,,,57.0,133.0,133.0,57.0,78.0,78.0,1.0,1.1,-671,263,-480,263,-316,275,363.742862701416,363.7429687976837,363.7458701133728,363.76144099235535,363.9048638343811,363.9048638343811,363.9048638343811,363.9048638343811,363.9048638343811,363.9048638343811,363.9048638343811,366.84701585769653,2,3.0811069011688232,None,,,,,,,,,,,,,,,,,,18,2,2025-02-18_15h03.36.872,comp,2024.2.4,56.96909440102575,2025-02-18 15h03.48.135926 -0500,
83,83,0,filler_square,None,None,None,None,None,None,None,None,None,None,1,2.695021390914917,None,,,,,0,0,0,0,0,83,83,172,366.86789989471436,,,,,,,,,,,,,,,,,,,,,,,,,,,,,,,,,,,,,,,,,,,,,,,,,,,,,,,,,,,,,,,,,,,,,,,,,,,,,,,,,103.39755840498087,103.39755840498087,64.90527736611634,101.96896314851666,101.93300323902412,86.35193797548031,1.0,1.2,-199,-7,0,-18,190,-14,366.84889221191406,366.8490500450134,366.85231852531433,366.86789989471436,367.00253796577454,367.00253796577454,367.00253796577454,367.00253796577454,367.00253796577454,367.00253796577454,367.00253796577454,369.573349237442,1,2.695021390914917,None,,,,,,,,,,,,,,,,,,18,2,2025-02-18_15h03.36.872,comp,2024.2.4,56.96909440102575,2025-02-18 15h03.48.135926 -0500,
84,84,0,critical,dhw,20.0,1.0,upper,141.0,141.0,200.0,125.0,125.0,200.0,2,6.965338230133057,None,,,,,0,0,0,0,0,84,84,55,369.58923053741455,,,,,,,,,,,,,,,,,,,,,,,,,,,,,,,,,,,,,,,,,,,,,,,,,,,,,,,,,,,,,,,,,,,,,,,,,,,,,,,,,141.0,141.0,200.0,125.0,125.0,200.0,1.0,1.2,-229,16,0,15,258,18,369.5748543739319,369.57495880126953,369.5783257484436,369.58923053741455,369.7383842468262,369.7383842468262,369.7383842468262,369.7383842468262,369.7383842468262,369.7383842468262,369.7383842468262,376.56570529937744,2,6.965338230133057,None,,,,,,,,,,,,,,,,,,18,2,2025-02-18_15h03.36.872,comp,2024.2.4,56.96909440102575,2025-02-18 15h03.48.135926 -0500,
85,85,0,critical,dhw,20.0,4.0,lower,78.0,78.0,133.0,57.0,57.0,133.0,2,6.0229737758636475,None,,,,,0,0,0,0,0,85,85,58,376.58243560791016,,,,,,,,,,,,,,,,,,,,,,,,,,,,,,,,,,,,,,,,,,,,,,,,,,,,,,,,,,,,,,,,,,,,,,,,,,,,,,,,,78.0,78.0,133.0,57.0,57.0,133.0,4.0,4.2,-164,-5,0,-273,191,-1,376.5673544406891,376.5674617290497,376.5707890987396,376.58243560791016,376.7259912490845,376.7259912490845,376.7259912490845,376.7259912490845,376.7259912490845,376.7259912490845,376.7259912490845,382.61052536964417,2,6.0229737758636475,None,,,,,,,,,,,,,,,,,,18,2,2025-02-18_15h03.36.872,comp,2024.2.4,56.96909440102575,2025-02-18 15h03.48.135926 -0500,
86,86,0,filler_square,None,None,None,None,None,None,None,None,None,None,1,2.368903398513794,None,,,,,0,0,0,0,0,86,86,190,382.6340675354004,,,,,,,,,,,,,,,,,,,,,,,,,,,,,,,,,,,,,,,,,,,,,,,,,,,,,,,,,,,,,,,,,,,,,,,,,,,,,,,,,106.42911839541759,106.42911839541759,73.67191252635695,59.893792576900694,102.73406700132259,61.28781268757494,2.2,2.22,-179,290,0,-255,157,-266,382.61273670196533,382.61282110214233,382.6168155670166,382.6340675354004,382.7772648334503,382.7772648334503,382.7772648334503,382.7772648334503,382.7772648334503,382.7772648334503,382.7772648334503,385.012238740921,1,2.368903398513794,None,,,,,,,,,,,,,,,,,,18,2,2025-02-18_15h03.36.872,comp,2024.2.4,56.96909440102575,2025-02-18 15h03.48.135926 -0500,
87,87,0,critical,hwd,35.0,4.0,upper,200.0,125.0,125.0,200.0,127.0,127.0,1,6.39845871925354,None,,,,,0,0,0,0,0,87,87,101,385.02833342552185,,,,,,,,,,,,,,,,,,,,,,,,,,,,,,,,,,,,,,,,,,,,,,,,,,,,,,,,,,,,,,,,,,,,,,,,,,,,,,,,,200.0,125.0,125.0,200.0,127.0,127.0,4.0,4.2,-258,4,0,-253,260,-15,385.01386761665344,385.01402139663696,385.01747155189514,385.02833342552185,385.1786620616913,385.1786620616913,385.1786620616913,385.1786620616913,385.1786620616913,385.1786620616913,385.1786620616913,391.44596552848816,1,6.39845871925354,None,,,,,,,,,,,,,,,,,,18,2,2025-02-18_15h03.36.872,comp,2024.2.4,56.96909440102575,2025-02-18 15h03.48.135926 -0500,
88,88,0,filler_random,None,None,None,None,None,None,None,None,None,None,2,1.0531861782073975,None,,,,,0,0,0,0,0,88,88,144,391.4613604545593,,,,,,,,,,,,,,,,,,,,,,,,,,,,,,,,,,,,,,,,,,,,,,,,,,,,,,,,,,,,,,,,,,,,,,,,,,,,,,,,,110.9297126784336,162.18025707607075,159.00527678422876,196.15966921785963,73.50802735808998,75.7569107764198,2.1,2.12,-275,-263,0,-251,232,289,391.4476363658905,391.44771003723145,391.4508652687073,391.4613604545593,391.6141412258148,391.6141412258148,391.6141412258148,391.6141412258148,391.6141412258148,391.6141412258148,391.6141412258148,392.533171415329,2,1.0531861782073975,None,,,,,,,,,,,,,,,,,,18,2,2025-02-18_15h03.36.872,comp,2024.2.4,56.96909440102575,2025-02-18 15h03.48.135926 -0500,
89,89,0,critical,dhw,35.0,2.1,upper,127.0,127.0,200.0,125.0,125.0,200.0,2,9.628384590148926,None,,,,,0,0,0,0,0,89,89,1,392.5506327152252,,,,,,,,,,,,,,,,,,,,,,,,,,,,,,,,,,,,,,,,,,,,,,,,,,,,,,,,,,,,,,,,,,,,,,,,,,,,,,,,,127.0,127.0,200.0,125.0,125.0,200.0,2.1,2.11,-222,268,0,262,258,-261,392.53477907180786,392.534859418869,392.53781819343567,392.5506327152252,392.69772720336914,392.69772720336914,392.69772720336914,392.69772720336914,392.69772720336914,392.69772720336914,392.69772720336914,402.1817994117737,2,9.628384590148926,None,,,,,,,,,,,,,,,,,,18,2,2025-02-18_15h03.36.872,comp,2024.2.4,56.96909440102575,2025-02-18 15h03.48.135926 -0500,
90,90,0,critical,hwd,35.0,2.1,upper,200.0,125.0,125.0,200.0,127.0,127.0,1,4.235743999481201,None,,,,,0,0,0,0,0,90,90,41,402.1986343860626,,,,,,,,,,,,,,,,,,,,,,,,,,,,,,,,,,,,,,,,,,,,,,,,,,,,,,,,,,,,,,,,,,,,,,,,,,,,,,,,,200.0,125.0,125.0,200.0,127.0,127.0,2.1,2.12,-258,-286,0,-273,260,281,402.1834490299225,402.1835289001465,402.1868107318878,402.1986343860626,402.3364543914795,402.3364543914795,402.3364543914795,402.3364543914795,402.3364543914795,402.3364543914795,402.3364543914795,406.45005083084106,1,4.235743999481201,None,,,,,,,,,,,,,,,,,,18,2,2025-02-18_15h03.36.872,comp,2024.2.4,56.96909440102575,2025-02-18 15h03.48.135926 -0500,
91,91,0,critical,hwd,20.0,1.0,upper,200.0,125.0,125.0,200.0,141.0,141.0,1,8.25675892829895,None,,,,,0,0,0,0,0,91,91,103,406.46571493148804,,,,,,,,,,,,,,,,,,,,,,,,,,,,,,,,,,,,,,,,,,,,,,,,,,,,,,,,,,,,,,,,,,,,,,,,,,,,,,,,,200.0,125.0,125.0,200.0,141.0,141.0,1.0,1.3,222,-258,480,-277,746,-284,406.45173358917236,406.45182156562805,406.45519828796387,406.46571493148804,406.62372732162476,406.62372732162476,406.62372732162476,406.62372732162476,406.62372732162476,406.62372732162476,406.62372732162476,414.7374658584595,1,8.25675892829895,None,,,,,,,,,,,,,,,,,,18,2,2025-02-18_15h03.36.872,comp,2024.2.4,56.96909440102575,2025-02-18 15h03.48.135926 -0500,
92,92,0,filler_random,None,None,None,None,None,None,None,None,None,None,3,1.521641731262207,None,,,,,0,0,0,0,0,92,92,158,414.7528643608093,,,,,,,,,,,,,,,,,,,,,,,,,,,,,,,,,,,,,,,,,,,,,,,,,,,,,,,,,,,,,,,,,,,,,,,,,,,,,,,,,92.23085530302043,165.78524450238473,195.30752978533675,126.12368710632732,170.3955285145678,136.93924401770883,4.0,4.2,-242,-15,0,-286,228,14,414.73911333084106,414.7391891479492,414.74247670173645,414.7528643608093,414.9036490917206,414.9036490917206,414.9036490917206,414.9036490917206,414.9036490917206,414.9036490917206,414.9036490917206,416.28896594047546,3,1.521641731262207,None,,,,,,,,,,,,,,,,,,18,2,2025-02-18_15h03.36.872,comp,2024.2.4,56.96909440102575,2025-02-18 15h03.48.135926 -0500,
93,93,0,critical,dwh,35.0,1.0,upper,127.0,127.0,125.0,200.0,200.0,125.0,2,2.905949354171753,None,,,,,0,0,0,0,0,93,93,61,416.3044512271881,,,,,,,,,,,,,,,,,,,,,,,,,,,,,,,,,,,,,,,,,,,,,,,,,,,,,,,,,,,,,,,,,,,,,,,,,,,,,,,,,127.0,127.0,125.0,200.0,200.0,125.0,1.0,1.3,220,-253,480,-283,738,-281,416.29052925109863,416.2906184196472,416.29412937164307,416.3044512271881,416.4535310268402,416.4535310268402,416.4535310268402,416.4535310268402,416.4535310268402,416.4535310268402,416.4535310268402,419.2224130630493,2,2.905949354171753,None,,,,,,,,,,,,,,,,,,18,2,2025-02-18_15h03.36.872,comp,2024.2.4,56.96909440102575,2025-02-18 15h03.48.135926 -0500,
94,94,0,filler_random,None,None,None,None,None,None,None,None,None,None,2,1.3210241794586182,None,,,,,0,0,0,0,0,94,94,141,419.2413878440857,,,,,,,,,,,,,,,,,,,,,,,,,,,,,,,,,,,,,,,,,,,,,,,,,,,,,,,,,,,,,,,,,,,,,,,,,,,,,,,,,131.98314190946152,67.25861646395362,109.03599441438374,190.9475668887382,93.47552064787794,131.87868044941752,2.2,2.22,-225,289,0,-260,257,-289,419.2241725921631,419.22425079345703,419.22737765312195,419.2413878440857,419.3890006542206,419.3890006542206,419.3890006542206,419.3890006542206,419.3890006542206,419.3890006542206,419.3890006542206,420.5785822868347,2,1.3210241794586182,None,,,,,,,,,,,,,,,,,,18,2,2025-02-18_15h03.36.872,comp,2024.2.4,56.96909440102575,2025-02-18 15h03.48.135926 -0500,
95,95,0,critical,hwd,35.0,4.0,lower,133.0,57.0,57.0,133.0,70.0,70.0,2,2.7884435653686523,None,,,,,0,0,0,0,0,95,95,100,420.5979633331299,,,,,,,,,,,,,,,,,,,,,,,,,,,,,,,,,,,,,,,,,,,,,,,,,,,,,,,,,,,,,,,,,,,,,,,,,,,,,,,,,133.0,57.0,57.0,133.0,70.0,70.0,4.0,4.1,-191,-275,0,8,198,-284,420.58014941215515,420.58022928237915,420.5831813812256,420.5979633331299,420.73972153663635,420.73972153663635,420.73972153663635,420.73972153663635,420.73972153663635,420.73972153663635,420.73972153663635,423.39731764793396,2,2.7884435653686523,None,,,,,,,,,,,,,,,,,,18,2,2025-02-18_15h03.36.872,comp,2024.2.4,56.96909440102575,2025-02-18 15h03.48.135926 -0500,
96,96,0,critical,dhw,35.0,4.0,upper,127.0,127.0,200.0,125.0,125.0,200.0,3,3.115377426147461,None,,,,,0,0,0,0,0,96,96,53,423.4150769710541,,,,,,,,,,,,,,,,,,,,,,,,,,,,,,,,,,,,,,,,,,,,,,,,,,,,,,,,,,,,,,,,,,,,,,,,,,,,,,,,,127.0,127.0,200.0,125.0,125.0,200.0,4.0,4.2,-222,7,0,-271,258,11,423.39882373809814,423.3989248275757,423.401752948761,423.4150769710541,423.5576615333557,423.5576615333557,423.5576615333557,423.5576615333557,423.5576615333557,423.5576615333557,423.5576615333557,426.5457501411438,3,3.115377426147461,None,,,,,,,,,,,,,,,,,,18,2,2025-02-18_15h03.36.872,comp,2024.2.4,56.96909440102575,2025-02-18 15h03.48.135926 -0500,
97,97,0,catch,None,None,None,None,None,None,None,None,None,None,2,0.8180162906646729,None,,,,,0,0,0,0,0,97,97,124,426.56097173690796,,,,,,,,,,,,,,,,,,,,,,,,,,,,,,,,,,,,,,,,,,,,,,,,,,,,,,,,,,,,,,,,,,,,,,,,,,,,,,,,,87,103,146,179,77,113,2.2,2.22,-237,288,0,-270,242,-264,426.5477385520935,426.54781579971313,426.55066680908203,426.56097173690796,426.7070062160492,426.7070062160492,426.7070062160492,426.7070062160492,426.7070062160492,426.7070062160492,426.7070062160492,427.39156126976013,2,0.8180162906646729,None,,,,,,,,,,,,,,,,,,18,2,2025-02-18_15h03.36.872,comp,2024.2.4,56.96909440102575,2025-02-18 15h03.48.135926 -0500,
98,98,0,critical,hdw,35.0,4.0,lower,133.0,57.0,70.0,70.0,57.0,133.0,1,3.3070755004882812,None,,,,,0,0,0,0,0,98,98,112,427.4073586463928,,,,,,,,,,,,,,,,,,,,,,,,,,,,,,,,,,,,,,,,,,,,,,,,,,,,,,,,,,,,,,,,,,,,,,,,,,,,,,,,,133.0,57.0,70.0,70.0,57.0,133.0,4.0,4.2,-160,-18,0,-274,198,5,427.39316844940186,427.39324283599854,427.39680004119873,427.4073586463928,427.56344079971313,427.56344079971313,427.56344079971313,427.56344079971313,427.56344079971313,427.56344079971313,427.56344079971313,430.72544407844543,1,3.3070755004882812,None,,,,,,,,,,,,,,,,,,18,2,2025-02-18_15h03.36.872,comp,2024.2.4,56.96909440102575,2025-02-18 15h03.48.135926 -0500,
99,99,0,critical,dhw,35.0,1.0,lower,70.0,70.0,133.0,57.0,57.0,133.0,2,1.8859710693359375,None,,,,,0,0,0,0,0,99,99,48,430.74134135246277,,,,,,,,,,,,,,,,,,,,,,,,,,,,,,,,,,,,,,,,,,,,,,,,,,,,,,,,,,,,,,,,,,,,,,,,,,,,,,,,,70.0,70.0,133.0,57.0,57.0,133.0,1.0,1.2,-160,12,0,10,191,-17,430.72704672813416,430.7271282672882,430.7303123474121,430.74134135246277,430.89467573165894,430.89467573165894,430.89467573165894,430.89467573165894,430.89467573165894,430.89467573165894,430.89467573165894,432.63147926330566,2,1.8859710693359375,None,,,,,,,,,,,,,,,,,,18,2,2025-02-18_15h03.36.872,comp,2024.2.4,56.96909440102575,2025-02-18 15h03.48.135926 -0500,
100,100,0,filler_square,None,None,None,None,None,None,None,None,None,None,3,1.4992954730987549,None,,,,,0,0,0,0,0,100,100,207,432.6471743583679,,,,,,,,,,,,,,,,,,,,,,,,,,,,,,,,,,,,,,,,,,,,,,,,,,,,,,,,,,,,,,,,,,,,,,,,,,,,,,,,,176.36547090347176,152.79543974782402,91.86242130041165,171.00658597330323,191.92413211762982,191.92413211762982,2.1,2.11,-258,289,0,261,277,-268,432.63324189186096,432.6333181858063,432.63644909858704,432.6471743583679,432.79172110557556,432.79172110557556,432.79172110557556,432.79172110557556,432.79172110557556,432.79172110557556,432.79172110557556,434.1589777469635,3,1.4992954730987549,None,,,,,,,,,,,,,,,,,,18,2,2025-02-18_15h03.36.872,comp,2024.2.4,56.96909440102575,2025-02-18 15h03.48.135926 -0500,
101,101,0,filler_square,None,None,None,None,None,None,None,None,None,None,1,5.204792261123657,None,,,,,0,0,0,0,0,101,101,197,434.1742868423462,,,,,,,,,,,,,,,,,,,,,,,,,,,,,,,,,,,,,,,,,,,,,,,,,,,,,,,,,,,,,,,,,,,,,,,,,,,,,,,,,75.88180203816978,75.88180203816978,72.84041524382683,75.1202783378836,70.99375147341101,67.06685349654175,1.0,1.3,308,-253,480,-286,647,-281,434.16018867492676,434.16023802757263,434.16229701042175,434.1742868423462,434.3249807357788,434.3249807357788,434.3249807357788,434.3249807357788,434.3249807357788,434.3249807357788,434.3249807357788,439.38516902923584,1,5.204792261123657,None,,,,,,,,,,,,,,,,,,18,2,2025-02-18_15h03.36.872,comp,2024.2.4,56.96909440102575,2025-02-18 15h03.48.135926 -0500,
102,102,0,filler_random,None,None,None,None,None,None,None,None,None,None,1,3.058575391769409,None,,,,,0,0,0,0,0,102,102,148,439.40054154396057,,,,,,,,,,,,,,,,,,,,,,,,,,,,,,,,,,,,,,,,,,,,,,,,,,,,,,,,,,,,,,,,,,,,,,,,,,,,,,,,,176.03026541190854,145.5516974097685,106.31332082705858,145.3521901548309,152.78724457466637,174.48429550273406,1.0,1.3,239,-265,480,-258,736,-257,439.38682079315186,439.3868954181671,439.38972067832947,439.40054154396057,439.54581117630005,439.54581117630005,439.54581117630005,439.54581117630005,439.54581117630005,439.54581117630005,439.54581117630005,442.46132946014404,1,3.058575391769409,None,,,,,,,,,,,,,,,,,,18,2,2025-02-18_15h03.36.872,comp,2024.2.4,56.96909440102575,2025-02-18 15h03.48.135926 -0500,
103,103,0,critical,whd,20.0,4.0,upper,125.0,200.0,200.0,125.0,141.0,141.0,1,2.8933591842651367,None,,,,,0,0,0,0,0,103,103,95,442.47816348075867,,,,,,,,,,,,,,,,,,,,,,,,,,,,,,,,,,,,,,,,,,,,,,,,,,,,,,,,,,,,,,,,,,,,,,,,,,,,,,,,,125.0,200.0,200.0,125.0,141.0,141.0,4.0,4.1,-258,-255,0,-12,229,-258,442.4628756046295,442.46298837661743,442.46629762649536,442.47816348075867,442.6142258644104,442.6142258644104,442.6142258644104,442.6142258644104,442.6142258644104,442.6142258644104,442.6142258644104,445.3804259300232,1,2.8933591842651367,None,,,,,,,,,,,,,,,,,,18,2,2025-02-18_15h03.36.872,comp,2024.2.4,56.96909440102575,2025-02-18 15h03.48.135926 -0500,
104,104,0,critical,dwh,35.0,2.1,upper,127.0,127.0,125.0,200.0,200.0,125.0,2,4.262863636016846,None,,,,,0,0,0,0,0,104,104,5,445.3962969779968,,,,,,,,,,,,,,,,,,,,,,,,,,,,,,,,,,,,,,,,,,,,,,,,,,,,,,,,,,,,,,,,,,,,,,,,,,,,,,,,,127.0,127.0,125.0,200.0,200.0,125.0,2.1,2.12,-260,-273,0,-259,258,281,445.38194274902344,445.3820197582245,445.38548946380615,445.3962969779968,445.547242641449,445.547242641449,445.547242641449,445.547242641449,445.547242641449,445.547242641449,445.547242641449,449.66651701927185,2,4.262863636016846,None,,,,,,,,,,,,,,,,,,18,2,2025-02-18_15h03.36.872,comp,2024.2.4,56.96909440102575,2025-02-18 15h03.48.135926 -0500,
105,105,0,critical,hdw,20.0,2.1,upper,200.0,125.0,141.0,141.0,125.0,200.0,1,10.006624460220337,None,,,,,0,0,0,0,0,105,105,47,449.6838824748993,,,,,,,,,,,,,,,,,,,,,,,,,,,,,,,,,,,,,,,,,,,,,,,,,,,,,,,,,,,,,,,,,,,,,,,,,,,,,,,,,200.0,125.0,141.0,141.0,125.0,200.0,2.1,2.12,-229,-261,0,-285,266,272,449.6679699420929,449.6680543422699,449.670934677124,449.6838824748993,449.8377375602722,449.8377375602722,449.8377375602722,449.8377375602722,449.8377375602722,449.8377375602722,449.8377375602722,459.70045804977417,1,10.006624460220337,None,,,,,,,,,,,,,,,,,,18,2,2025-02-18_15h03.36.872,comp,2024.2.4,56.96909440102575,2025-02-18 15h03.48.135926 -0500,
106,106,0,critical,dhw,35.0,2.1,upper,127.0,127.0,200.0,125.0,125.0,200.0,2,5.846891164779663,None,,,,,0,0,0,0,0,106,106,25,459.7163174152374,,,,,,,,,,,,,,,,,,,,,,,,,,,,,,,,,,,,,,,,,,,,,,,,,,,,,,,,,,,,,,,,,,,,,,,,,,,,,,,,,127.0,127.0,200.0,125.0,125.0,200.0,2.1,2.11,-222,280,0,261,258,-274,459.70196652412415,459.7020466327667,459.7048990726471,459.7163174152374,459.867502450943,459.867502450943,459.867502450943,459.867502450943,459.867502450943,459.867502450943,459.867502450943,465.5699977874756,2,5.846891164779663,None,,,,,,,,,,,,,,,,,,18,2,2025-02-18_15h03.36.872,comp,2024.2.4,56.96909440102575,2025-02-18 15h03.48.135926 -0500,
107,107,0,critical,dwh,35.0,2.1,lower,70.0,70.0,57.0,133.0,133.0,57.0,3,2.6326146125793457,None,,,,,0,0,0,0,0,107,107,4,465.58583903312683,,,,,,,,,,,,,,,,,,,,,,,,,,,,,,,,,,,,,,,,,,,,,,,,,,,,,,,,,,,,,,,,,,,,,,,,,,,,,,,,,70.0,70.0,57.0,133.0,133.0,57.0,2.1,2.11,-198,275,0,258,191,-268,465.57154417037964,465.57162380218506,465.5750434398651,465.58583903312683,465.72599387168884,465.72599387168884,465.72599387168884,465.72599387168884,465.72599387168884,465.72599387168884,465.72599387168884,468.2354736328125,3,2.6326146125793457,None,,,,,,,,,,,,,,,,,,18,2,2025-02-18_15h03.36.872,comp,2024.2.4,56.96909440102575,2025-02-18 15h03.48.135926 -0500,
108,108,0,critical,dhw,20.0,4.0,upper,141.0,141.0,200.0,125.0,125.0,200.0,2,4.352560043334961,None,,,,,0,0,0,0,0,108,108,59,468.25015139579773,,,,,,,,,,,,,,,,,,,,,,,,,,,,,,,,,,,,,,,,,,,,,,,,,,,,,,,,,,,,,,,,,,,,,,,,,,,,,,,,,141.0,141.0,200.0,125.0,125.0,200.0,4.0,4.2,-229,15,0,-258,258,-11,468.2368664741516,468.2369771003723,468.2398760318756,468.25015139579773,468.3872790336609,468.3872790336609,468.3872790336609,468.3872790336609,468.3872790336609,468.3872790336609,468.3872790336609,472.605970621109,2,4.352560043334961,None,,,,,,,,,,,,,,,,,,18,2,2025-02-18_15h03.36.872,comp,2024.2.4,56.96909440102575,2025-02-18 15h03.48.135926 -0500,
109,109,0,critical,dwh,35.0,4.0,lower,70.0,70.0,57.0,133.0,133.0,57.0,2,5.3615405559539795,None,,,,,0,0,0,0,0,109,109,64,472.62500524520874,,,,,,,,,,,,,,,,,,,,,,,,,,,,,,,,,,,,,,,,,,,,,,,,,,,,,,,,,,,,,,,,,,,,,,,,,,,,,,,,,70.0,70.0,57.0,133.0,133.0,57.0,4.0,4.1,-198,-288,0,15,191,-274,472.6074392795563,472.60751461982727,472.6107349395752,472.62500524520874,472.77684688568115,472.77684688568115,472.77684688568115,472.77684688568115,472.77684688568115,472.77684688568115,472.77684688568115,477.9911937713623,2,5.3615405559539795,None,,,,,,,,,,,,,,,,,,18,2,2025-02-18_15h03.36.872,comp,2024.2.4,56.96909440102575,2025-02-18 15h03.48.135926 -0500,
110,110,0,filler_square,None,None,None,None,None,None,None,None,None,None,3,0.9601860046386719,None,,,,,0,0,0,0,0,110,110,178,478.0103507041931,,,,,,,,,,,,,,,,,,,,,,,,,,,,,,,,,,,,,,,,,,,,,,,,,,,,,,,,,,,,,,,,,,,,,,,,,,,,,,,,,61.00352367683719,109.04376491730018,89.76804839630555,94.34371732500162,139.6774121875495,139.6774121875495,2.2,2.21,-198,-274,0,281,213,256,477.99327325820923,477.9933536052704,477.9970860481262,478.0103507041931,478.1553065776825,478.1553065776825,478.1553065776825,478.1553065776825,478.1553065776825,478.1553065776825,478.1553065776825,478.97199010849,3,0.9601860046386719,None,,,,,,,,,,,,,,,,,,18,2,2025-02-18_15h03.36.872,comp,2024.2.4,56.96909440102575,2025-02-18 15h03.48.135926 -0500,
111,111,0,filler_square,None,None,None,None,None,None,None,None,None,None,1,1.2474746704101562,None,,,,,0,0,0,0,0,111,111,184,478.98802876472473,,,,,,,,,,,,,,,,,,,,,,,,,,,,,,,,,,,,,,,,,,,,,,,,,,,,,,,,,,,,,,,,,,,,,,,,,,,,,,,,,121.6524933162045,121.6524933162045,115.77585137790359,62.5176022726708,117.92888536731243,103.5250527667238,4.0,4.1,-188,-277,0,20,179,-290,478.9727177619934,478.9727623462677,478.9740078449249,478.98802876472473,479.12434101104736,479.12434101104736,479.12434101104736,479.12434101104736,479.12434101104736,479.12434101104736,479.12434101104736,480.2427611351013,1,1.2474746704101562,None,,,,,,,,,,,,,,,,,,18,2,2025-02-18_15h03.36.872,comp,2024.2.4,56.96909440102575,2025-02-18 15h03.48.135926 -0500,
112,112,0,filler_random,None,None,None,None,None,None,None,None,None,None,2,1.5672969818115234,None,,,,,0,0,0,0,0,112,112,142,480.25924372673035,,,,,,,,,,,,,,,,,,,,,,,,,,,,,,,,,,,,,,,,,,,,,,,,,,,,,,,,,,,,,,,,,,,,,,,,,,,,,,,,,141.551745177565,136.90309884867986,128.7261665733226,193.76370163388444,78.82157789569177,152.26640292607914,1.0,1.1,-741,278,-480,290,-211,272,480.2447991371155,480.2448809146881,480.2484931945801,480.25924372673035,480.4070088863373,480.4070088863373,480.4070088863373,480.4070088863373,480.4070088863373,480.4070088863373,480.4070088863373,481.8418028354645,2,1.5672969818115234,None,,,,,,,,,,,,,,,,,,18,2,2025-02-18_15h03.36.872,comp,2024.2.4,56.96909440102575,2025-02-18 15h03.48.135926 -0500,
113,113,0,critical,hdw,35.0,3.0,upper,200.0,125.0,127.0,127.0,125.0,200.0,3,3.058926820755005,None,,,,,0,0,0,0,0,113,113,111,481.857084274292,,,,,,,,,,,,,,,,,,,,,,,,,,,,,,,,,,,,,,,,,,,,,,,,,,,,,,,,,,,,,,,,,,,,,,,,,,,,,,,,,200.0,125.0,127.0,127.0,125.0,200.0,3.0,3.2,-222,-252,0,1,260,273,481.84337997436523,481.84346318244934,481.846803188324,481.857084274292,482.01801681518555,482.01801681518555,482.01801681518555,482.01801681518555,482.01801681518555,482.01801681518555,482.01801681518555,484.926673412323,3,3.058926820755005,None,,,,,,,,,,,,,,,,,,18,2,2025-02-18_15h03.36.872,comp,2024.2.4,56.96909440102575,2025-02-18 15h03.48.135926 -0500,
114,114,0,critical,hdw,35.0,1.0,upper,200.0,125.0,127.0,127.0,125.0,200.0,1,2.4287118911743164,None,,,,,0,0,0,0,0,114,114,109,484.94276666641235,,,,,,,,,,,,,,,,,,,,,,,,,,,,,,,,,,,,,,,,,,,,,,,,,,,,,,,,,,,,,,,,,,,,,,,,,,,,,,,,,200.0,125.0,127.0,127.0,125.0,200.0,1.0,1.1,-702,276,-480,269,-220,278,484.9282693862915,484.9283447265625,484.9319486618042,484.94276666641235,485.09246945381165,485.09246945381165,485.09246945381165,485.09246945381165,485.09246945381165,485.09246945381165,485.09246945381165,487.3782298564911,1,2.4287118911743164,None,,,,,,,,,,,,,,,,,,18,2,2025-02-18_15h03.36.872,comp,2024.2.4,56.96909440102575,2025-02-18 15h03.48.135926 -0500,
115,115,0,filler_square,None,None,None,None,None,None,None,None,None,None,2,1.1522576808929443,None,,,,,0,0,0,0,0,115,115,204,487.3942527770996,,,,,,,,,,,,,,,,,,,,,,,,,,,,,,,,,,,,,,,,,,,,,,,,,,,,,,,,,,,,,,,,,,,,,,,,,,,,,,,,,74.5805957616443,62.542061032299614,84.76880271359971,84.76880271359971,76.57245819607787,67.05133583509577,3.0,3.1,-170,287,0,-18,172,-255,487.38023114204407,487.38031339645386,487.38346004486084,487.3942527770996,487.5428500175476,487.5428500175476,487.5428500175476,487.5428500175476,487.5428500175476,487.5428500175476,487.5428500175476,488.56232213974,2,1.1522576808929443,None,,,,,,,,,,,,,,,,,,18,2,2025-02-18_15h03.36.872,comp,2024.2.4,56.96909440102575,2025-02-18 15h03.48.135926 -0500,
116,116,0,critical,hwd,35.0,2.1,upper,200.0,125.0,125.0,200.0,127.0,127.0,1,8.215126991271973,None,,,,,0,0,0,0,0,116,116,17,488.57956099510193,,,,,,,,,,,,,,,,,,,,,,,,,,,,,,,,,,,,,,,,,,,,,,,,,,,,,,,,,,,,,,,,,,,,,,,,,,,,,,,,,200.0,125.0,125.0,200.0,127.0,127.0,2.1,2.12,-258,-269,0,-285,260,281,488.5639247894287,488.5640072822571,488.5671298503876,488.57956099510193,488.72724533081055,488.72724533081055,488.72724533081055,488.72724533081055,488.72724533081055,488.72724533081055,488.72724533081055,496.7976267337799,1,8.215126991271973,None,,,,,,,,,,,,,,,,,,18,2,2025-02-18_15h03.36.872,comp,2024.2.4,56.96909440102575,2025-02-18 15h03.48.135926 -0500,
117,117,0,critical,whd,35.0,3.0,upper,125.0,200.0,200.0,125.0,127.0,127.0,2,1.608621597290039,None,,,,,0,0,0,0,0,117,117,87,496.81826734542847,,,,,,,,,,,,,,,,,,,,,,,,,,,,,,,,,,,,,,,,,,,,,,,,,,,,,,,,,,,,,,,,,,,,,,,,,,,,,,,,,125.0,200.0,200.0,125.0,127.0,127.0,3.0,3.2,-258,-265,0,-5,222,261,496.799170255661,496.79924511909485,496.8024709224701,496.81826734542847,496.96862602233887,496.96862602233887,496.96862602233887,496.96862602233887,496.96862602233887,496.96862602233887,496.96862602233887,498.4292540550232,2,1.608621597290039,None,,,,,,,,,,,,,,,,,,18,2,2025-02-18_15h03.36.872,comp,2024.2.4,56.96909440102575,2025-02-18 15h03.48.135926 -0500,
118,118,0,filler_random,None,None,None,None,None,None,None,None,None,None,1,1.324455976486206,None,,,,,0,0,0,0,0,118,118,150,498.44676423072815,,,,,,,,,,,,,,,,,,,,,,,,,,,,,,,,,,,,,,,,,,,,,,,,,,,,,,,,,,,,,,,,,,,,,,,,,,,,,,,,,125.99529218899625,102.49342993754075,113.91123894778511,62.388285732522064,128.93688969757528,63.503381004350395,2.1,2.11,-178,254,0,252,159,-253,498.4308741092682,498.43096947669983,498.4339416027069,498.44676423072815,498.604026556015,498.604026556015,498.604026556015,498.604026556015,498.604026556015,498.604026556015,498.604026556015,499.7808187007904,1,1.324455976486206,None,,,,,,,,,,,,,,,,,,18,2,2025-02-18_15h03.36.872,comp,2024.2.4,56.96909440102575,2025-02-18 15h03.48.135926 -0500,
119,119,0,filler_random,None,None,None,None,None,None,None,None,None,None,1,1.08555006980896,None,,,,,0,0,0,0,0,119,119,139,499.79696011543274,,,,,,,,,,,,,,,,,,,,,,,,,,,,,,,,,,,,,,,,,,,,,,,,,,,,,,,,,,,,,,,,,,,,,,,,,,,,,,,,,149.95050874031514,161.55874606373467,147.16138803389902,81.03553171013189,71.22612737341572,63.28693405646064,1.0,1.1,-697,274,-480,273,-312,260,499.7824923992157,499.78256726264954,499.7858536243439,499.79696011543274,499.95034098625183,499.95034098625183,499.95034098625183,499.95034098625183,499.95034098625183,499.95034098625183,499.95034098625183,500.89855694770813,1,1.08555006980896,None,,,,,,,,,,,,,,,,,,18,2,2025-02-18_15h03.36.872,comp,2024.2.4,56.96909440102575,2025-02-18 15h03.48.135926 -0500,
120,120,0,critical,whd,20.0,3.0,lower,57.0,133.0,133.0,57.0,78.0,78.0,2,9.816200733184814,None,,,,,0,0,0,0,0,120,120,92,500.91436672210693,,,,,,,,,,,,,,,,,,,,,,,,,,,,,,,,,,,,,,,,,,,,,,,,,,,,,,,,,,,,,,,,,,,,,,,,,,,,,,,,,57.0,133.0,133.0,57.0,78.0,78.0,3.0,3.2,-191,-250,0,12,164,265,500.9001693725586,500.90024399757385,500.9040241241455,500.91436672210693,501.0697708129883,501.0697708129883,501.0697708129883,501.0697708129883,501.0697708129883,501.0697708129883,501.0697708129883,510.73415637016296,2,9.816200733184814,None,,,,,,,,,,,,,,,,,,18,2,2025-02-18_15h03.36.872,comp,2024.2.4,56.96909440102575,2025-02-18 15h03.48.135926 -0500,
121,121,0,critical,hwd,20.0,3.0,lower,133.0,57.0,57.0,133.0,78.0,78.0,1,6.4602227210998535,None,,,,,0,0,0,0,0,121,121,104,510.75102400779724,,,,,,,,,,,,,,,,,,,,,,,,,,,,,,,,,,,,,,,,,,,,,,,,,,,,,,,,,,,,,,,,,,,,,,,,,,,,,,,,,133.0,57.0,57.0,133.0,78.0,78.0,3.0,3.1,-191,261,0,-15,202,-283,510.735684633255,510.73576164245605,510.7397210597992,510.75102400779724,510.9049491882324,510.9049491882324,510.9049491882324,510.9049491882324,510.9049491882324,510.9049491882324,510.9049491882324,517.2194323539734,1,6.4602227210998535,None,,,,,,,,,,,,,,,,,,18,2,2025-02-18_15h03.36.872,comp,2024.2.4,56.96909440102575,2025-02-18 15h03.48.135926 -0500,
122,122,0,critical,hwd,35.0,1.0,upper,200.0,125.0,125.0,200.0,127.0,127.0,2,4.895144701004028,None,,,,,0,0,0,0,0,122,122,97,517.2354309558868,,,,,,,,,,,,,,,,,,,,,,,,,,,,,,,,,,,,,,,,,,,,,,,,,,,,,,,,,,,,,,,,,,,,,,,,,,,,,,,,,200.0,125.0,125.0,200.0,127.0,127.0,1.0,1.1,-738,262,-480,274,-220,275,517.2209324836731,517.2210149765015,517.2243535518646,517.2354309558868,517.3881142139435,517.3881142139435,517.3881142139435,517.3881142139435,517.3881142139435,517.3881142139435,517.3881142139435,522.1416382789612,2,4.895144701004028,None,,,,,,,,,,,,,,,,,,18,2,2025-02-18_15h03.36.872,comp,2024.2.4,56.96909440102575,2025-02-18 15h03.48.135926 -0500,
123,123,0,catch,None,None,None,None,None,None,None,None,None,None,3,0.948089599609375,None,,,,,0,0,0,0,0,123,123,126,522.1581223011017,,,,,,,,,,,,,,,,,,,,,,,,,,,,,,,,,,,,,,,,,,,,,,,,,,,,,,,,,,,,,,,,,,,,,,,,,,,,,,,,,90,100,122,68,172,153,2.2,2.22,-180,267,0,-264,206,-259,522.1435585021973,522.1436126232147,522.1456434726715,522.1581223011017,522.302526473999,522.302526473999,522.302526473999,522.302526473999,522.302526473999,522.302526473999,522.302526473999,523.1186985969543,3,0.948089599609375,None,,,,,,,,,,,,,,,,,,18,2,2025-02-18_15h03.36.872,comp,2024.2.4,56.96909440102575,2025-02-18 15h03.48.135926 -0500,
124,124,0,critical,dhw,20.0,3.0,upper,141.0,141.0,200.0,125.0,125.0,200.0,3,9.269428968429565,None,,,,,0,0,0,0,0,124,124,57,523.1335334777832,,,,,,,,,,,,,,,,,,,,,,,,,,,,,,,,,,,,,,,,,,,,,,,,,,,,,,,,,,,,,,,,,,,,,,,,,,,,,,,,,141.0,141.0,200.0,125.0,125.0,200.0,3.0,3.2,-229,-289,0,5,258,261,523.1194913387299,523.1195266246796,523.1209602355957,523.1335334777832,523.2840459346771,523.2840459346771,523.2840459346771,523.2840459346771,523.2840459346771,523.2840459346771,523.2840459346771,532.4066796302795,3,9.269428968429565,None,,,,,,,,,,,,,,,,,,18,2,2025-02-18_15h03.36.872,comp,2024.2.4,56.96909440102575,2025-02-18 15h03.48.135926 -0500,
125,125,0,filler_square,None,None,None,None,None,None,None,None,None,None,3,0.8834190368652344,None,,,,,0,0,0,0,0,125,125,201,532.4232251644135,,,,,,,,,,,,,,,,,,,,,,,,,,,,,,,,,,,,,,,,,,,,,,,,,,,,,,,,,,,,,,,,,,,,,,,,,,,,,,,,,102.1855651838884,98.64917917827817,80.93153836641247,65.27848834743563,172.05728092658893,172.05728092658893,4.0,4.2,-178,-2,0,-262,215,13,532.4083757400513,532.4084513187408,532.4116113185883,532.4232251644135,532.5802707672119,532.5802707672119,532.5802707672119,532.5802707672119,532.5802707672119,532.5802707672119,532.5802707672119,533.3243947029114,3,0.8834190368652344,None,,,,,,,,,,,,,,,,,,18,2,2025-02-18_15h03.36.872,comp,2024.2.4,56.96909440102575,2025-02-18 15h03.48.135926 -0500,
126,126,0,filler_square,None,None,None,None,None,None,None,None,None,None,3,1.054734706878662,None,,,,,0,0,0,0,0,126,126,183,533.3400073051453,,,,,,,,,,,,,,,,,,,,,,,,,,,,,,,,,,,,,,,,,,,,,,,,,,,,,,,,,,,,,,,,,,,,,,,,,,,,,,,,,64.42979581057374,82.82901832218224,64.59529258901443,66.50916755213939,96.10933944168528,96.10933944168528,3.0,3.1,-171,269,0,-6,177,-268,533.3261437416077,533.3262207508087,533.3296353816986,533.3400073051453,533.4880933761597,533.4880933761597,533.4880933761597,533.4880933761597,533.4880933761597,533.4880933761597,533.4880933761597,534.4100341796875,3,1.054734706878662,None,,,,,,,,,,,,,,,,,,18,2,2025-02-18_15h03.36.872,comp,2024.2.4,56.96909440102575,2025-02-18 15h03.48.135926 -0500,
127,127,0,catch,None,None,None,None,None,None,None,None,None,None,3,0.9514777660369873,None,,,,,0,0,0,0,0,127,127,123,534.4271531105042,,,,,,,,,,,,,,,,,,,,,,,,,,,,,,,,,,,,,,,,,,,,,,,,,,,,,,,,,,,,,,,,,,,,,,,,,,,,,,,,,102,88,82,108,141,184,1.0,1.2,-194,-11,0,-14,242,19,534.4122581481934,534.4123396873474,534.4160418510437,534.4271531105042,534.5746335983276,534.5746335983276,534.5746335983276,534.5746335983276,534.5746335983276,534.5746335983276,534.5746335983276,535.3919723033905,3,0.9514777660369873,None,,,,,,,,,,,,,,,,,,18,2,2025-02-18_15h03.36.872,comp,2024.2.4,56.96909440102575,2025-02-18 15h03.48.135926 -0500,
128,128,0,filler_square,None,None,None,None,None,None,None,None,None,None,3,9.354384422302246,None,,,,,0,0,0,0,0,128,128,203,535.408209323883,,,,,,,,,,,,,,,,,,,,,,,,,,,,,,,,,,,,,,,,,,,,,,,,,,,,,,,,,,,,,,,,,,,,,,,,,,,,,,,,,58.008178388303996,67.94854814291338,60.564612996613164,64.34681076744765,70.00234622462162,70.00234622462162,2.1,2.11,-162,277,0,275,163,-251,535.3937919139862,535.393869638443,535.3978703022003,535.408209323883,535.558352470398,535.558352470398,535.558352470398,535.558352470398,535.558352470398,535.558352470398,535.558352470398,544.7778081893921,3,9.354384422302246,None,,,,,,,,,,,,,,,,,,18,2,2025-02-18_15h03.36.872,comp,2024.2.4,56.96909440102575,2025-02-18 15h03.48.135926 -0500,
129,129,0,critical,wdh,20.0,3.0,lower,57.0,133.0,78.0,78.0,133.0,57.0,3,6.713700294494629,None,,,,,0,0,0,0,0,129,129,80,544.7932784557343,,,,,,,,,,,,,,,,,,,,,,,,,,,,,,,,,,,,,,,,,,,,,,,,,,,,,,,,,,,,,,,,,,,,,,,,,,,,,,,,,57.0,133.0,78.0,78.0,133.0,57.0,3.0,3.2,-202,-268,0,-7,164,269,544.7793402671814,544.7794163227081,544.7826116085052,544.7932784557343,544.9475607872009,544.9475607872009,544.9475607872009,544.9475607872009,544.9475607872009,544.9475607872009,544.9475607872009,551.5120565891266,3,6.713700294494629,None,,,,,,,,,,,,,,,,,,18,2,2025-02-18_15h03.36.872,comp,2024.2.4,56.96909440102575,2025-02-18 15h03.48.135926 -0500,
130,130,0,critical,whd,20.0,4.0,lower,57.0,133.0,133.0,57.0,78.0,78.0,2,6.706167221069336,None,,,,,0,0,0,0,0,130,130,94,551.5284357070923,,,,,,,,,,,,,,,,,,,,,,,,,,,,,,,,,,,,,,,,,,,,,,,,,,,,,,,,,,,,,,,,,,,,,,,,,,,,,,,,,57.0,133.0,133.0,57.0,78.0,78.0,4.0,4.2,-191,-17,0,-251,164,-6,551.5135099887848,551.5135846138,551.5167124271393,551.5284357070923,551.6777346134186,551.6777346134186,551.6777346134186,551.6777346134186,551.6777346134186,551.6777346134186,551.6777346134186,558.2535436153412,2,6.706167221069336,None,,,,,,,,,,,,,,,,,,18,2,2025-02-18_15h03.36.872,comp,2024.2.4,56.96909440102575,2025-02-18 15h03.48.135926 -0500,
131,131,0,critical,hdw,35.0,2.1,lower,133.0,57.0,70.0,70.0,57.0,133.0,1,2.8999576568603516,None,,,,,0,0,0,0,0,131,131,20,558.2706830501556,,,,,,,,,,,,,,,,,,,,,,,,,,,,,,,,,,,,,,,,,,,,,,,,,,,,,,,,,,,,,,,,,,,,,,,,,,,,,,,,,133.0,57.0,70.0,70.0,57.0,133.0,2.1,2.11,-160,263,0,288,198,-257,558.2550721168518,558.2551445960999,558.2580237388611,558.2706830501556,558.4158327579498,558.4158327579498,558.4158327579498,558.4158327579498,558.4158327579498,558.4158327579498,558.4158327579498,561.1852202415466,1,2.8999576568603516,None,,,,,,,,,,,,,,,,,,18,2,2025-02-18_15h03.36.872,comp,2024.2.4,56.96909440102575,2025-02-18 15h03.48.135926 -0500,
132,132,0,critical,dhw,35.0,2.1,lower,70.0,70.0,133.0,57.0,57.0,133.0,2,1.7828550338745117,None,,,,,0,0,0,0,0,132,132,24,561.2037858963013,,,,,,,,,,,,,,,,,,,,,,,,,,,,,,,,,,,,,,,,,,,,,,,,,,,,,,,,,,,,,,,,,,,,,,,,,,,,,,,,,70.0,70.0,133.0,57.0,57.0,133.0,2.1,2.11,-160,287,0,282,191,-271,561.1868965625763,561.1870558261871,561.1903352737427,561.2037858963013,561.3497905731201,561.3497905731201,561.3497905731201,561.3497905731201,561.3497905731201,561.3497905731201,561.3497905731201,563.0003130435944,2,1.7828550338745117,None,,,,,,,,,,,,,,,,,,18,2,2025-02-18_15h03.36.872,comp,2024.2.4,56.96909440102575,2025-02-18 15h03.48.135926 -0500,
133,133,0,critical,hwd,20.0,4.0,lower,133.0,57.0,57.0,133.0,78.0,78.0,1,3.907005786895752,None,,,,,0,0,0,0,0,133,133,106,563.0157265663147,,,,,,,,,,,,,,,,,,,,,,,,,,,,,,,,,,,,,,,,,,,,,,,,,,,,,,,,,,,,,,,,,,,,,,,,,,,,,,,,,133.0,57.0,57.0,133.0,78.0,78.0,4.0,4.1,-191,-276,0,-8,202,-276,563.0019929409027,563.0020728111267,563.0054833889008,563.0157265663147,563.1667041778564,563.1667041778564,563.1667041778564,563.1667041778564,563.1667041778564,563.1667041778564,563.1667041778564,566.936443567276,1,3.907005786895752,None,,,,,,,,,,,,,,,,,,18,2,2025-02-18_15h03.36.872,comp,2024.2.4,56.96909440102575,2025-02-18 15h03.48.135926 -0500,
134,134,0,critical,hdw,20.0,1.0,lower,133.0,57.0,78.0,78.0,57.0,133.0,3,2.0628843307495117,None,,,,,0,0,0,0,0,134,134,114,566.9483001232147,,,,,,,,,,,,,,,,,,,,,,,,,,,,,,,,,,,,,,,,,,,,,,,,,,,,,,,,,,,,,,,,,,,,,,,,,,,,,,,,,133.0,57.0,78.0,78.0,57.0,133.0,1.0,1.1,-644,272,-480,289,-278,285,566.9371047019958,566.937135219574,566.939245223999,566.9483001232147,567.1012578010559,567.1012578010559,567.1012578010559,567.1012578010559,567.1012578010559,567.1012578010559,567.1012578010559,569.0200316905975,3,2.0628843307495117,None,,,,,,,,,,,,,,,,,,18,2,2025-02-18_15h03.36.872,comp,2024.2.4,56.96909440102575,2025-02-18 15h03.48.135926 -0500,
135,135,0,critical,dwh,35.0,2.1,lower,70.0,70.0,57.0,133.0,133.0,57.0,3,5.478694915771484,None,,,,,0,0,0,0,0,135,135,28,569.0365853309631,,,,,,,,,,,,,,,,,,,,,,,,,,,,,,,,,,,,,,,,,,,,,,,,,,,,,,,,,,,,,,,,,,,,,,,,,,,,,,,,,70.0,70.0,57.0,133.0,133.0,57.0,2.1,2.11,-198,251,0,259,191,-266,569.0215404033661,569.0216159820557,569.0249528884888,569.0365853309631,569.1708714962006,569.1708714962006,569.1708714962006,569.1708714962006,569.1708714962006,569.1708714962006,569.1708714962006,574.5208442211151,3,5.478694915771484,None,,,,,,,,,,,,,,,,,,18,2,2025-02-18_15h03.36.872,comp,2024.2.4,56.96909440102575,2025-02-18 15h03.48.135926 -0500,
136,136,0,critical,dhw,35.0,2.1,lower,70.0,70.0,133.0,57.0,57.0,133.0,3,2.9058241844177246,None,,,,,0,0,0,0,0,136,136,0,574.536966085434,,,,,,,,,,,,,,,,,,,,,,,,,,,,,,,,,,,,,,,,,,,,,,,,,,,,,,,,,,,,,,,,,,,,,,,,,,,,,,,,,70.0,70.0,133.0,57.0,57.0,133.0,2.1,2.11,-160,264,0,289,191,-275,574.5223171710968,574.5223944187164,574.5258412361145,574.536966085434,574.6864719390869,574.6864719390869,574.6864719390869,574.6864719390869,574.6864719390869,574.6864719390869,574.6864719390869,577.4557824134827,3,2.9058241844177246,None,,,,,,,,,,,,,,,,,,18,2,2025-02-18_15h03.36.872,comp,2024.2.4,56.96909440102575,2025-02-18 15h03.48.135926 -0500,
137,137,0,critical,wdh,20.0,1.0,upper,125.0,200.0,141.0,141.0,200.0,125.0,3,5.211220741271973,None,,,,,0,0,0,0,0,137,137,79,577.4715423583984,,,,,,,,,,,,,,,,,,,,,,,,,,,,,,,,,,,,,,,,,,,,,,,,,,,,,,,,,,,,,,,,,,,,,,,,,,,,,,,,,125.0,200.0,141.0,141.0,200.0,125.0,1.0,1.3,214,-263,480,-284,709,-272,577.4574167728424,577.4575176239014,577.4611914157867,577.4715423583984,577.620608329773,577.620608329773,577.620608329773,577.620608329773,577.620608329773,577.620608329773,577.620608329773,582.693466424942,3,5.211220741271973,None,,,,,,,,,,,,,,,,,,18,2,2025-02-18_15h03.36.872,comp,2024.2.4,56.96909440102575,2025-02-18 15h03.48.135926 -0500,
138,138,0,critical,dwh,20.0,3.0,upper,141.0,141.0,125.0,200.0,200.0,125.0,3,8.011408567428589,None,,,,,0,0,0,0,0,138,138,69,582.711140871048,,,,,,,,,,,,,,,,,,,,,,,,,,,,,,,,,,,,,,,,,,,,,,,,,,,,,,,,,,,,,,,,,,,,,,,,,,,,,,,,,141.0,141.0,125.0,200.0,200.0,125.0,3.0,3.1,-266,253,0,-11,258,-286,582.695038318634,582.6951198577881,582.6980748176575,582.711140871048,582.857189655304,582.857189655304,582.857189655304,582.857189655304,582.857189655304,582.857189655304,582.857189655304,590.7420427799225,3,8.011408567428589,None,,,,,,,,,,,,,,,,,,18,2,2025-02-18_15h03.36.872,comp,2024.2.4,56.96909440102575,2025-02-18 15h03.48.135926 -0500,
139,139,0,filler_square,None,None,None,None,None,None,None,None,None,None,3,1.0847980976104736,None,,,,,0,0,0,0,0,139,139,182,590.7578458786011,,,,,,,,,,,,,,,,,,,,,,,,,,,,,,,,,,,,,,,,,,,,,,,,,,,,,,,,,,,,,,,,,,,,,,,,,,,,,,,,,72.76391090830039,61.27551405987283,67.75574636488787,60.50853689689017,78.76221110507419,78.76221110507419,2.1,2.12,-157,-283,0,-283,166,274,590.7437653541565,590.7438416481018,590.7469696998596,590.7578458786011,590.9141619205475,590.9141619205475,590.9141619205475,590.9141619205475,590.9141619205475,590.9141619205475,590.9141619205475,591.8592476844788,3,1.0847980976104736,None,,,,,,,,,,,,,,,,,,18,2,2025-02-18_15h03.36.872,comp,2024.2.4,56.96909440102575,2025-02-18 15h03.48.135926 -0500,
140,140,0,filler_random,None,None,None,None,None,None,None,None,None,None,3,1.0553438663482666,None,,,,,0,0,0,0,0,140,140,130,591.8752837181091,,,,,,,,,,,,,,,,,,,,,,,,,,,,,,,,,,,,,,,,,,,,,,,,,,,,,,,,,,,,,,,,,,,,,,,,,,,,,,,,,155.1738348212666,96.1640236030306,73.5864956862784,135.9919079920901,157.33208122089596,169.79028966512578,2.1,2.11,-212,269,0,289,249,-251,591.8611812591553,591.8612599372864,591.8648464679718,591.8752837181091,592.0322251319885,592.0322251319885,592.0322251319885,592.0322251319885,592.0322251319885,592.0322251319885,592.0322251319885,592.9470040798187,3,1.0553438663482666,None,,,,,,,,,,,,,,,,,,18,2,2025-02-18_15h03.36.872,comp,2024.2.4,56.96909440102575,2025-02-18 15h03.48.135926 -0500,
