thisN,thisTrialN,thisRepN,effect,order,distance,config,diag,h_1,w_1,h_2,w_2,h_3,w_3,rect_choice.keys,rect_choice.rt,rect_choice.duration,instructions_loop.thisRepN,instructions_loop.thisTrialN,instructions_loop.thisN,instructions_loop.thisIndex,blocks.thisRepN,blocks.thisTrialN,blocks.thisN,blocks.thisIndex,trials.thisRepN,trials.thisTrialN,trials.thisN,trials.thisIndex,thisRow.t,notes,consent.started,agree_button.started,decline_button.started,consent_img.started,mouse.started,consent.stopped,agree_button.numClicks,agree_button.timesOn,agree_button.timesOff,decline_button.numClicks,decline_button.timesOn,decline_button.timesOff,mouse.x,mouse.y,mouse.leftButton,mouse.midButton,mouse.rightButton,mouse.time,mouse.clicked_name,exp_params.started,exp_params.stopped,welcome.started,welcome_text.started,welcome.stopped,instructions_1.started,instructions_1_text_1.started,instructions_1_text_2.started,key_resp.started,instructions_1.stopped,instructions_loop.key_resp.keys,instructions_loop.key_resp.rt,instructions_loop.key_resp.duration,instructions_2.started,instructions_2_text_1.started,instructions_2_text_2.started,key_resp_2.started,instructions_2.stopped,instructions_loop.key_resp_2.keys,instructions_loop.key_resp_2.rt,instructions_loop.key_resp_2.duration,instructions_3.started,instructions_3_text_1.started,r1_instr3.started,r2_instr3.started,r3_instr3.started,r1_instr3_label.started,r2_instr3_label.started,r3_instr3_label.started,instructions_3_text_3.started,instructions_3_text_4.started,key_resp_3.started,instructions_3.stopped,instructions_loop.key_resp_3.keys,instructions_loop.key_resp_3.rt,instructions_loop.key_resp_3.duration,instructions_4.started,instructions_4_text_1.started,instructions_4_text_3.started,instructions_4_text_2.started,key_resp_4.started,instructions_4.stopped,instructions_loop.key_resp_4.keys,instructions_loop.key_resp_4.rt,instructions_loop.key_resp_4.duration,instructions_5.started,instructions_5_text_1.started,instructions_5_text_2.started,key_resp_5.started,instructions_5.stopped,instructions_loop.key_resp_5.keys,instructions_loop.key_resp_5.rt,instructions_loop.key_resp_5.duration,start_exp.started,start_exp_text.started,key_resp_6.started,start_exp.stopped,key_resp_6.keys,key_resp_6.rt,key_resp_6.duration,h_1_tmp,w_1_tmp,h_2_tmp,w_2_tmp,h_3_tmp,w_3_tmp,config_tmp,config_tmp_1,r_1_x,r_1_y,r_2_x,r_2_y,r_3_x,r_3_y,pre_trial.started,pre_trial.stopped,choice_trial.started,rect_choice.started,r_1.started,r_2.started,r_3.started,r_1_label.started,r_2_label.started,r_3_label.started,prompt.started,choice_trial.stopped,trials.rect_choice.keys,trials.rect_choice.rt,trials.rect_choice.duration,end_block.started,end_block_text.started,end_block.stopped,end.started,end_text.started,key_resp_7.started,end.stopped,key_resp_7.keys,key_resp_7.rt,key_resp_7.duration,debriefing.started,debrief_form.started,end_debrief.started,debriefing.stopped,end_debrief.keys,end_debrief.rt,end_debrief.duration,participant,computer,date,expName,psychopyVersion,frameRate,expStart,
,,,,,,,,,,,,,,,,,,,,,,,,,,,,,,,0.015769004821777344,0.04175066947937012,0.04175066947937012,0.04175066947937012,0.015235185623168945,58.6419095993042,1,[58.59895849227905],[58.59896922111511],0,,,"[-219.0, -88.0]","[232.0, -501.0]","[1, 1]","[0, 0]","[0, 0]","[20.369056224822998, 58.62561845779419]","[None, 'agree_button']",,,,,,,,,,,,,,,,,,,,,,,,,,,,,,,,,,,,,,,,,,,,,,,,,,,,,,,,,,,,,,,,,,,,,,,,,,,,,,,,,,,,,,,,,,,,,,,,,,,,,,,,,,,190,3,2025-03-05_11h04.32.658,comp,2024.2.4,64.46338963096846,2025-03-05 11h04.42.134737 -0500,
,,,,,,,,,,,,,,,,,,,,,,,,,,,,,,,,,,,,,,,,,,,,,,,,,,58.64222025871277,58.64225435256958,,,,,,,,,,,,,,,,,,,,,,,,,,,,,,,,,,,,,,,,,,,,,,,,,,,,,,,,,,,,,,,,,,,,,,,,,,,,,,,,,,,,,,,,,,,,,,,,,,,,,,,,,190,3,2025-03-05_11h04.32.658,comp,2024.2.4,64.46338963096846,2025-03-05 11h04.42.134737 -0500,
,,,,,,,,,,,,,,,,,,,,,,,,,,,,,,,,,,,,,,,,,,,,,,,,,,,,58.642277240753174,58.655752182006836,60.65378379821777,,,,,,,,,,,,,,,,,,,,,,,,,,,,,,,,,,,,,,,,,,,,,,,,,,,,,,,,,,,,,,,,,,,,,,,,,,,,,,,,,,,,,,,,,,,,,,,,,,,,,,190,3,2025-03-05_11h04.32.658,comp,2024.2.4,64.46338963096846,2025-03-05 11h04.42.134737 -0500,
0,0,0,,,,,,,,,,,,,,,0,0,0,0,,,,,,,,,60.67043662071228,,,,,,,,,,,,,,,,,,,,,,,,,,60.65432929992676,60.67043662071228,60.67043662071228,62.15407919883728,64.93833041191101,space,2.776106834411621,None,64.93840837478638,64.95443391799927,64.95443391799927,66.45376348495483,76.95478892326355,space,10.484015464782715,None,76.95487403869629,76.97671842575073,76.97671842575073,76.97671842575073,76.97671842575073,76.97671842575073,76.97671842575073,76.97671842575073,76.97671842575073,76.97671842575073,78.45410919189453,82.30532002449036,space,3.843944549560547,None,82.30540657043457,82.32081604003906,82.32081604003906,82.32081604003906,83.82035255432129,88.63822746276855,space,4.81580114364624,None,88.63831520080566,88.65463328361511,88.65463328361511,90.1535210609436,91.2713303565979,space,1.1128780841827393,None,91.2714409828186,91.28700733184814,91.28700733184814,92.52119207382202,space,1.218168020248413,None,,,,,,,,,,,,,,,,,,,,,,,,,,,,,,,,,,,,,,,,,,,,,,,190,3,2025-03-05_11h04.32.658,comp,2024.2.4,64.46338963096846,2025-03-05 11h04.42.134737 -0500,
0,0,0,catch,None,None,None,None,None,None,None,None,None,None,3,2.4401557445526123,None,,,,,0,0,0,0,0,0,0,128,92.57974290847778,,,,,,,,,,,,,,,,,,,,,,,,,,,,,,,,,,,,,,,,,,,,,,,,,,,,,,,,,,,,,,,,,,,,,,,,,,,,,,,,,88,102,133,57,198,127,3.0,3.2,-176,-256,0,-6,188,266,92.5658528804779,92.56590056419373,92.56820154190063,92.57974290847778,92.72697401046753,92.72697401046753,92.72697401046753,92.72697401046753,92.72697401046753,92.72697401046753,92.72697401046753,95.02191114425659,3,2.4401557445526123,None,,,,,,,,,,,,,,,,,,190,3,2025-03-05_11h04.32.658,comp,2024.2.4,64.46338963096846,2025-03-05 11h04.42.134737 -0500,
1,1,0,critical,hdw,35.0,2.1,upper,200.0,125.0,127.0,127.0,125.0,200.0,3,3.3004093170166016,None,,,,,0,0,0,0,0,1,1,21,95.03721904754639,,,,,,,,,,,,,,,,,,,,,,,,,,,,,,,,,,,,,,,,,,,,,,,,,,,,,,,,,,,,,,,,,,,,,,,,,,,,,,,,,200.0,125.0,127.0,127.0,125.0,200.0,2.1,2.11,-222,281,0,271,260,-252,95.02272176742554,95.02276110649109,95.02489995956421,95.03721904754639,95.18706035614014,95.18706035614014,95.18706035614014,95.18706035614014,95.18706035614014,95.18706035614014,95.18706035614014,98.35480284690857,3,3.3004093170166016,None,,,,,,,,,,,,,,,,,,190,3,2025-03-05_11h04.32.658,comp,2024.2.4,64.46338963096846,2025-03-05 11h04.42.134737 -0500,
2,2,0,filler_square,None,None,None,None,None,None,None,None,None,None,2,1.8869521617889404,None,,,,,0,0,0,0,0,2,2,205,98.37015986442566,,,,,,,,,,,,,,,,,,,,,,,,,,,,,,,,,,,,,,,,,,,,,,,,,,,,,,,,,,,,,,,,,,,,,,,,,,,,,,,,,73.61925027077038,57.04857833272394,78.63021077823589,78.63021077823589,72.8297390644082,73.28072856363428,2.1,2.12,-164,-266,0,-283,172,278,98.35577726364136,98.35581731796265,98.35794401168823,98.37015986442566,98.52020406723022,98.52020406723022,98.52020406723022,98.52020406723022,98.52020406723022,98.52020406723022,98.52020406723022,100.27125430107117,2,1.8869521617889404,None,,,,,,,,,,,,,,,,,,190,3,2025-03-05_11h04.32.658,comp,2024.2.4,64.46338963096846,2025-03-05 11h04.42.134737 -0500,
3,3,0,critical,hdw,35.0,1.0,lower,133.0,57.0,70.0,70.0,57.0,133.0,3,6.1641552448272705,None,,,,,0,0,0,0,0,3,3,108,100.28675627708435,,,,,,,,,,,,,,,,,,,,,,,,,,,,,,,,,,,,,,,,,,,,,,,,,,,,,,,,,,,,,,,,,,,,,,,,,,,,,,,,,133.0,57.0,70.0,70.0,57.0,133.0,1.0,1.2,-160,13,0,-10,198,4,100.27206444740295,100.27210307121277,100.27455854415894,100.28675627708435,100.43685102462769,100.43685102462769,100.43685102462769,100.43685102462769,100.43685102462769,100.43685102462769,100.43685102462769,106.45470070838928,3,6.1641552448272705,None,,,,,,,,,,,,,,,,,,190,3,2025-03-05_11h04.32.658,comp,2024.2.4,64.46338963096846,2025-03-05 11h04.42.134737 -0500,
4,4,0,critical,whd,35.0,4.0,lower,57.0,133.0,133.0,57.0,70.0,70.0,1,2.1076769828796387,None,,,,,0,0,0,0,0,4,4,88,106.4702980518341,,,,,,,,,,,,,,,,,,,,,,,,,,,,,,,,,,,,,,,,,,,,,,,,,,,,,,,,,,,,,,,,,,,,,,,,,,,,,,,,,57.0,133.0,133.0,57.0,70.0,70.0,4.0,4.1,-191,-256,0,-10,160,-288,106.45546960830688,106.45550847053528,106.45778584480286,106.4702980518341,106.6201581954956,106.6201581954956,106.6201581954956,106.6201581954956,106.6201581954956,106.6201581954956,106.6201581954956,108.58802199363708,1,2.1076769828796387,None,,,,,,,,,,,,,,,,,,190,3,2025-03-05_11h04.32.658,comp,2024.2.4,64.46338963096846,2025-03-05 11h04.42.134737 -0500,
5,5,0,filler_square,None,None,None,None,None,None,None,None,None,None,2,1.4472107887268066,None,,,,,0,0,0,0,0,5,5,174,108.60367441177368,,,,,,,,,,,,,,,,,,,,,,,,,,,,,,,,,,,,,,,,,,,,,,,,,,,,,,,,,,,,,,,,,,,,,,,,,,,,,,,,,66.30655877285773,119.78411602829581,126.56717187962444,126.56717187962444,125.87451233188574,111.25928002186673,1.0,1.1,-699,288,-480,263,-265,264,108.58899331092834,108.58903622627258,108.59118890762329,108.60367441177368,108.75342988967896,108.75342988967896,108.75342988967896,108.75342988967896,108.75342988967896,108.75342988967896,108.75342988967896,110.05486273765564,2,1.4472107887268066,None,,,,,,,,,,,,,,,,,,190,3,2025-03-05_11h04.32.658,comp,2024.2.4,64.46338963096846,2025-03-05 11h04.42.134737 -0500,
6,6,0,filler_square,None,None,None,None,None,None,None,None,None,None,3,1.0836806297302246,None,,,,,0,0,0,0,0,6,6,207,110.0702748298645,,,,,,,,,,,,,,,,,,,,,,,,,,,,,,,,,,,,,,,,,,,,,,,,,,,,,,,,,,,,,,,,,,,,,,,,,,,,,,,,,63.61844044700695,163.73392132160393,117.24355588780591,154.59562364798467,184.8913584600778,184.8913584600778,4.0,4.1,-255,-258,0,11,266,-277,110.0557701587677,110.05580949783325,110.05786180496216,110.0702748298645,110.220618724823,110.220618724823,110.220618724823,110.220618724823,110.220618724823,110.220618724823,110.220618724823,111.17136454582214,3,1.0836806297302246,None,,,,,,,,,,,,,,,,,,190,3,2025-03-05_11h04.32.658,comp,2024.2.4,64.46338963096846,2025-03-05 11h04.42.134737 -0500,
7,7,0,critical,hdw,20.0,4.0,lower,133.0,57.0,78.0,78.0,57.0,133.0,3,6.743300437927246,None,,,,,0,0,0,0,0,7,7,118,111.186758518219,,,,,,,,,,,,,,,,,,,,,,,,,,,,,,,,,,,,,,,,,,,,,,,,,,,,,,,,,,,,,,,,,,,,,,,,,,,,,,,,,133.0,57.0,78.0,78.0,57.0,133.0,4.0,4.1,-164,-259,0,3,202,-254,111.1721420288086,111.17217993736267,111.17468786239624,111.186758518219,111.33685636520386,111.33685636520386,111.33685636520386,111.33685636520386,111.33685636520386,111.33685636520386,111.33685636520386,117.93799924850464,3,6.743300437927246,None,,,,,,,,,,,,,,,,,,190,3,2025-03-05_11h04.32.658,comp,2024.2.4,64.46338963096846,2025-03-05 11h04.42.134737 -0500,
8,8,0,critical,hwd,20.0,2.1,upper,200.0,125.0,125.0,200.0,141.0,141.0,2,3.728013038635254,None,,,,,0,0,0,0,0,8,8,19,117.95361924171448,,,,,,,,,,,,,,,,,,,,,,,,,,,,,,,,,,,,,,,,,,,,,,,,,,,,,,,,,,,,,,,,,,,,,,,,,,,,,,,,,200.0,125.0,125.0,200.0,141.0,141.0,2.1,2.11,-258,289,0,283,266,-253,117.9388017654419,117.93884181976318,117.94100093841553,117.95361924171448,118.10356998443604,118.10356998443604,118.10356998443604,118.10356998443604,118.10356998443604,118.10356998443604,118.10356998443604,121.68801975250244,2,3.728013038635254,None,,,,,,,,,,,,,,,,,,190,3,2025-03-05_11h04.32.658,comp,2024.2.4,64.46338963096846,2025-03-05 11h04.42.134737 -0500,
9,9,0,critical,dwh,35.0,2.1,lower,70.0,70.0,57.0,133.0,133.0,57.0,2,4.4013824462890625,None,,,,,0,0,0,0,0,9,9,4,121.70345830917358,,,,,,,,,,,,,,,,,,,,,,,,,,,,,,,,,,,,,,,,,,,,,,,,,,,,,,,,,,,,,,,,,,,,,,,,,,,,,,,,,70.0,70.0,57.0,133.0,133.0,57.0,2.1,2.12,-198,-276,0,-265,191,269,121.68883228302002,121.68887305259705,121.69135737419128,121.70345830917358,121.85392928123474,121.85392928123474,121.85392928123474,121.85392928123474,121.85392928123474,121.85392928123474,121.85392928123474,126.12126851081848,2,4.4013824462890625,None,,,,,,,,,,,,,,,,,,190,3,2025-03-05_11h04.32.658,comp,2024.2.4,64.46338963096846,2025-03-05 11h04.42.134737 -0500,
10,10,0,critical,dwh,20.0,3.0,upper,141.0,141.0,125.0,200.0,200.0,125.0,2,1.8828065395355225,None,,,,,0,0,0,0,0,10,10,69,126.1367838382721,,,,,,,,,,,,,,,,,,,,,,,,,,,,,,,,,,,,,,,,,,,,,,,,,,,,,,,,,,,,,,,,,,,,,,,,,,,,,,,,,141.0,141.0,125.0,200.0,200.0,125.0,3.0,3.2,-266,-287,0,-7,258,283,126.12204575538635,126.1220850944519,126.12552976608276,126.1367838382721,126.28700089454651,126.28700089454651,126.28700089454651,126.28700089454651,126.28700089454651,126.28700089454651,126.28700089454651,128.03816676139832,2,1.8828065395355225,None,,,,,,,,,,,,,,,,,,190,3,2025-03-05_11h04.32.658,comp,2024.2.4,64.46338963096846,2025-03-05 11h04.42.134737 -0500,
11,11,0,filler_square,None,None,None,None,None,None,None,None,None,None,2,1.3880414962768555,None,,,,,0,0,0,0,0,11,11,188,128.05325961112976,,,,,,,,,,,,,,,,,,,,,,,,,,,,,,,,,,,,,,,,,,,,,,,,,,,,,,,,,,,,,,,,,,,,,,,,,,,,,,,,,140.37496446840828,126.55619730463395,154.19812231085712,154.19812231085712,58.63121796553416,123.50217942020839,2.1,2.12,-236,-277,0,-289,235,279,128.03917169570923,128.03921341896057,128.04164123535156,128.05325961112976,128.20342087745667,128.20342087745667,128.20342087745667,128.20342087745667,128.20342087745667,128.20342087745667,128.20342087745667,129.45464086532593,2,1.3880414962768555,None,,,,,,,,,,,,,,,,,,190,3,2025-03-05_11h04.32.658,comp,2024.2.4,64.46338963096846,2025-03-05 11h04.42.134737 -0500,
12,12,0,critical,dwh,20.0,4.0,lower,78.0,78.0,57.0,133.0,133.0,57.0,3,2.427727699279785,None,,,,,0,0,0,0,0,12,12,70,129.46994471549988,,,,,,,,,,,,,,,,,,,,,,,,,,,,,,,,,,,,,,,,,,,,,,,,,,,,,,,,,,,,,,,,,,,,,,,,,,,,,,,,,78.0,78.0,57.0,133.0,133.0,57.0,4.0,4.2,-202,19,0,-287,191,14,129.4555540084839,129.45559406280518,129.45808148384094,129.46994471549988,129.62009453773499,129.62009453773499,129.62009453773499,129.62009453773499,129.62009453773499,129.62009453773499,129.62009453773499,131.90450930595398,3,2.427727699279785,None,,,,,,,,,,,,,,,,,,190,3,2025-03-05_11h04.32.658,comp,2024.2.4,64.46338963096846,2025-03-05 11h04.42.134737 -0500,
13,13,0,critical,whd,35.0,2.1,lower,57.0,133.0,133.0,57.0,70.0,70.0,1,7.1365978717803955,None,,,,,0,0,0,0,0,13,13,36,131.92015719413757,,,,,,,,,,,,,,,,,,,,,,,,,,,,,,,,,,,,,,,,,,,,,,,,,,,,,,,,,,,,,,,,,,,,,,,,,,,,,,,,,57.0,133.0,133.0,57.0,70.0,70.0,2.1,2.12,-191,-254,0,-254,160,264,131.90530943870544,131.90535020828247,131.9075186252594,131.92015719413757,132.06994223594666,132.06994223594666,132.06994223594666,132.06994223594666,132.06994223594666,132.06994223594666,132.06994223594666,139.07101225852966,1,7.1365978717803955,None,,,,,,,,,,,,,,,,,,190,3,2025-03-05_11h04.32.658,comp,2024.2.4,64.46338963096846,2025-03-05 11h04.42.134737 -0500,
14,14,0,critical,hwd,35.0,3.0,lower,133.0,57.0,57.0,133.0,70.0,70.0,2,6.7490012645721436,None,,,,,0,0,0,0,0,14,14,98,139.0864701271057,,,,,,,,,,,,,,,,,,,,,,,,,,,,,,,,,,,,,,,,,,,,,,,,,,,,,,,,,,,,,,,,,,,,,,,,,,,,,,,,,133.0,57.0,57.0,133.0,70.0,70.0,3.0,3.1,-191,250,0,8,198,-279,139.07180428504944,139.0718424320221,139.07431387901306,139.0864701271057,139.2366189956665,139.2366189956665,139.2366189956665,139.2366189956665,139.2366189956665,139.2366189956665,139.2366189956665,145.8377776145935,2,6.7490012645721436,None,,,,,,,,,,,,,,,,,,190,3,2025-03-05_11h04.32.658,comp,2024.2.4,64.46338963096846,2025-03-05 11h04.42.134737 -0500,
15,15,0,filler_square,None,None,None,None,None,None,None,None,None,None,3,2.5083532333374023,None,,,,,0,0,0,0,0,15,15,178,145.8533275127411,,,,,,,,,,,,,,,,,,,,,,,,,,,,,,,,,,,,,,,,,,,,,,,,,,,,,,,,,,,,,,,,,,,,,,,,,,,,,,,,,68.32250277569838,57.92241242296883,93.36122894906154,93.83820054690338,99.00885465059152,99.00885465059152,1.0,1.3,308,-268,480,-290,672,-278,145.8387427330017,145.838782787323,145.8411967754364,145.8533275127411,146.00321888923645,146.00321888923645,146.00321888923645,146.00321888923645,146.00321888923645,146.00321888923645,146.00321888923645,148.3709740638733,3,2.5083532333374023,None,,,,,,,,,,,,,,,,,,190,3,2025-03-05_11h04.32.658,comp,2024.2.4,64.46338963096846,2025-03-05 11h04.42.134737 -0500,
16,16,0,critical,hwd,20.0,1.0,lower,133.0,57.0,57.0,133.0,78.0,78.0,2,2.8000102043151855,None,,,,,0,0,0,0,0,16,16,102,148.38663458824158,,,,,,,,,,,,,,,,,,,,,,,,,,,,,,,,,,,,,,,,,,,,,,,,,,,,,,,,,,,,,,,,,,,,,,,,,,,,,,,,,133.0,57.0,57.0,133.0,78.0,78.0,1.0,1.1,-671,251,-480,276,-278,265,148.3717963695526,148.37183690071106,148.37430882453918,148.38663458824158,148.5365035533905,148.5365035533905,148.5365035533905,148.5365035533905,148.5365035533905,148.5365035533905,148.5365035533905,151.20441126823425,2,2.8000102043151855,None,,,,,,,,,,,,,,,,,,190,3,2025-03-05_11h04.32.658,comp,2024.2.4,64.46338963096846,2025-03-05 11h04.42.134737 -0500,
17,17,0,filler_random,None,None,None,None,None,None,None,None,None,None,1,1.1991322040557861,None,,,,,0,0,0,0,0,17,17,130,151.219966173172,,,,,,,,,,,,,,,,,,,,,,,,,,,,,,,,,,,,,,,,,,,,,,,,,,,,,,,,,,,,,,,,,,,,,,,,,,,,,,,,,175.22350822319845,116.2530899904486,129.86828527265322,62.974850056716605,153.08955663781313,76.86871081574843,3.0,3.1,-186,261,0,12,166,-287,151.2053291797638,151.20536923408508,151.20801210403442,151.219966173172,151.36986923217773,151.36986923217773,151.36986923217773,151.36986923217773,151.36986923217773,151.36986923217773,151.36986923217773,152.42108392715454,1,1.1991322040557861,None,,,,,,,,,,,,,,,,,,190,3,2025-03-05_11h04.32.658,comp,2024.2.4,64.46338963096846,2025-03-05 11h04.42.134737 -0500,
18,18,0,filler_square,None,None,None,None,None,None,None,None,None,None,3,0.8288333415985107,None,,,,,0,0,0,0,0,18,18,194,152.43659615516663,,,,,,,,,,,,,,,,,,,,,,,,,,,,,,,,,,,,,,,,,,,,,,,,,,,,,,,,,,,,,,,,,,,,,,,,,,,,,,,,,71.58333893920161,92.67435993489241,105.20433277881244,124.57552049026934,168.00149303129965,168.00149303129965,1.0,1.2,-205,11,0,-6,242,2,152.42204785346985,152.42208909988403,152.42426347732544,152.43659615516663,152.58669090270996,152.58669090270996,152.58669090270996,152.58669090270996,152.58669090270996,152.58669090270996,152.58669090270996,153.27117729187012,3,0.8288333415985107,None,,,,,,,,,,,,,,,,,,190,3,2025-03-05_11h04.32.658,comp,2024.2.4,64.46338963096846,2025-03-05 11h04.42.134737 -0500,
19,19,0,critical,hdw,35.0,3.0,lower,133.0,57.0,70.0,70.0,57.0,133.0,3,1.7640297412872314,None,,,,,0,0,0,0,0,19,19,110,153.286616563797,,,,,,,,,,,,,,,,,,,,,,,,,,,,,,,,,,,,,,,,,,,,,,,,,,,,,,,,,,,,,,,,,,,,,,,,,,,,,,,,,133.0,57.0,70.0,70.0,57.0,133.0,3.0,3.1,-160,290,0,10,198,-278,153.27194619178772,153.27198433876038,153.27434873580933,153.286616563797,153.43639516830444,153.43639516830444,153.43639516830444,153.43639516830444,153.43639516830444,153.43639516830444,153.43639516830444,155.05435061454773,3,1.7640297412872314,None,,,,,,,,,,,,,,,,,,190,3,2025-03-05_11h04.32.658,comp,2024.2.4,64.46338963096846,2025-03-05 11h04.42.134737 -0500,
20,20,0,filler_random,None,None,None,None,None,None,None,None,None,None,1,1.0671782493591309,None,,,,,0,0,0,0,0,20,20,140,155.06994342803955,,,,,,,,,,,,,,,,,,,,,,,,,,,,,,,,,,,,,,,,,,,,,,,,,,,,,,,,,,,,,,,,,,,,,,,,,,,,,,,,,164.59607425916894,150.44391157246946,107.03248958515138,63.45772885134793,192.7362926725178,75.11647044368533,3.0,3.1,-203,254,0,11,165,-278,155.05530500411987,155.05534672737122,155.05753374099731,155.06994342803955,155.22002172470093,155.22002172470093,155.22002172470093,155.22002172470093,155.22002172470093,155.22002172470093,155.22002172470093,156.15454530715942,1,1.0671782493591309,None,,,,,,,,,,,,,,,,,,190,3,2025-03-05_11h04.32.658,comp,2024.2.4,64.46338963096846,2025-03-05 11h04.42.134737 -0500,
21,21,0,filler_square,None,None,None,None,None,None,None,None,None,None,1,3.7276272773742676,None,,,,,0,0,0,0,0,21,21,173,156.16977500915527,,,,,,,,,,,,,,,,,,,,,,,,,,,,,,,,,,,,,,,,,,,,,,,,,,,,,,,,,,,,,,,,,,,,,,,,,,,,,,,,,67.1504131022347,67.1504131022347,64.49469687647789,66.28720400129873,58.646797289009655,57.548923167482705,2.1,2.11,-163,254,0,260,158,-277,156.15545868873596,156.15549635887146,156.15804195404053,156.16977500915527,156.31971406936646,156.31971406936646,156.31971406936646,156.31971406936646,156.31971406936646,156.31971406936646,156.31971406936646,159.90419483184814,1,3.7276272773742676,None,,,,,,,,,,,,,,,,,,190,3,2025-03-05_11h04.32.658,comp,2024.2.4,64.46338963096846,2025-03-05 11h04.42.134737 -0500,
22,22,0,critical,wdh,35.0,3.0,lower,57.0,133.0,70.0,70.0,133.0,57.0,1,3.784613609313965,None,,,,,0,0,0,0,0,22,22,74,159.91994953155518,,,,,,,,,,,,,,,,,,,,,,,,,,,,,,,,,,,,,,,,,,,,,,,,,,,,,,,,,,,,,,,,,,,,,,,,,,,,,,,,,57.0,133.0,70.0,70.0,133.0,57.0,3.0,3.2,-198,-261,0,13,160,281,159.90500020980835,159.90504217147827,159.90744876861572,159.91994953155518,160.0702362060547,160.0702362060547,160.0702362060547,160.0702362060547,160.0702362060547,160.0702362060547,160.0702362060547,163.72097849845886,1,3.784613609313965,None,,,,,,,,,,,,,,,,,,190,3,2025-03-05_11h04.32.658,comp,2024.2.4,64.46338963096846,2025-03-05 11h04.42.134737 -0500,
23,23,0,filler_random,None,None,None,None,None,None,None,None,None,None,1,7.304650783538818,None,,,,,0,0,0,0,0,23,23,157,163.73629426956177,,,,,,,,,,,,,,,,,,,,,,,,,,,,,,,,,,,,,,,,,,,,,,,,,,,,,,,,,,,,,,,,,,,,,,,,,,,,,,,,,121.05905096186093,194.64169499158848,83.15247825275762,176.71763564287644,182.06187710980004,130.58107970954387,3.0,3.1,-282,270,0,2,250,-266,163.7219114303589,163.72195172309875,163.7243413925171,163.73629426956177,163.88651180267334,163.88651180267334,163.88651180267334,163.88651180267334,163.88651180267334,163.88651180267334,163.88651180267334,171.0543394088745,1,7.304650783538818,None,,,,,,,,,,,,,,,,,,190,3,2025-03-05_11h04.32.658,comp,2024.2.4,64.46338963096846,2025-03-05 11h04.42.134737 -0500,
24,24,0,critical,dwh,20.0,2.1,upper,141.0,141.0,125.0,200.0,200.0,125.0,3,3.9712603092193604,None,,,,,0,0,0,0,0,24,24,31,171.06961750984192,,,,,,,,,,,,,,,,,,,,,,,,,,,,,,,,,,,,,,,,,,,,,,,,,,,,,,,,,,,,,,,,,,,,,,,,,,,,,,,,,141.0,141.0,125.0,200.0,200.0,125.0,2.1,2.11,-266,274,0,266,258,-259,171.05518293380737,171.05522322654724,171.0577757358551,171.06961750984192,171.21996974945068,171.21996974945068,171.21996974945068,171.21996974945068,171.21996974945068,171.21996974945068,171.21996974945068,175.05435299873352,3,3.9712603092193604,None,,,,,,,,,,,,,,,,,,190,3,2025-03-05_11h04.32.658,comp,2024.2.4,64.46338963096846,2025-03-05 11h04.42.134737 -0500,
25,25,0,critical,dwh,20.0,2.1,upper,141.0,141.0,125.0,200.0,200.0,125.0,2,2.7868857383728027,None,,,,,0,0,0,0,0,25,25,7,175.06957125663757,,,,,,,,,,,,,,,,,,,,,,,,,,,,,,,,,,,,,,,,,,,,,,,,,,,,,,,,,,,,,,,,,,,,,,,,,,,,,,,,,141.0,141.0,125.0,200.0,200.0,125.0,2.1,2.11,-266,281,0,273,258,-289,175.05516648292542,175.05520868301392,175.05773401260376,175.06957125663757,175.21989107131958,175.21989107131958,175.21989107131958,175.21989107131958,175.21989107131958,175.21989107131958,175.21989107131958,177.87097024917603,2,2.7868857383728027,None,,,,,,,,,,,,,,,,,,190,3,2025-03-05_11h04.32.658,comp,2024.2.4,64.46338963096846,2025-03-05 11h04.42.134737 -0500,
26,26,0,filler_random,None,None,None,None,None,None,None,None,None,None,2,1.4590280055999756,None,,,,,0,0,0,0,0,26,26,163,177.8862419128418,,,,,,,,,,,,,,,,,,,,,,,,,,,,,,,,,,,,,,,,,,,,,,,,,,,,,,,,,,,,,,,,,,,,,,,,,,,,,,,,,114.57247948040914,92.39319133928657,123.79137872564785,146.4749844864867,110.36448536554761,121.06973461787791,2.1,2.12,-215,-288,0,-250,230,257,177.87187576293945,177.87191557884216,177.8743097782135,177.8862419128418,178.03633165359497,178.03633165359497,178.03633165359497,178.03633165359497,178.03633165359497,178.03633165359497,178.03633165359497,179.35418891906738,2,1.4590280055999756,None,,,,,,,,,,,,,,,,,,190,3,2025-03-05_11h04.32.658,comp,2024.2.4,64.46338963096846,2025-03-05 11h04.42.134737 -0500,
27,27,0,filler_random,None,None,None,None,None,None,None,None,None,None,1,1.3432929515838623,None,,,,,0,0,0,0,0,27,27,152,179.3698718547821,,,,,,,,,,,,,,,,,,,,,,,,,,,,,,,,,,,,,,,,,,,,,,,,,,,,,,,,,,,,,,,,,,,,,,,,,,,,,,,,,128.29994089059863,171.5060610010894,107.5177613272985,123.19840183066057,150.83439043574413,136.27264463879038,2.1,2.11,-243,259,0,266,226,-290,179.35512471199036,179.35516500473022,179.35760736465454,179.3698718547821,179.51984000205994,179.51984000205994,179.51984000205994,179.51984000205994,179.51984000205994,179.51984000205994,179.51984000205994,180.72085666656494,1,1.3432929515838623,None,,,,,,,,,,,,,,,,,,190,3,2025-03-05_11h04.32.658,comp,2024.2.4,64.46338963096846,2025-03-05 11h04.42.134737 -0500,
28,28,0,critical,dwh,35.0,2.1,upper,127.0,127.0,125.0,200.0,200.0,125.0,2,2.016958713531494,None,,,,,0,0,0,0,0,28,28,5,180.73656105995178,,,,,,,,,,,,,,,,,,,,,,,,,,,,,,,,,,,,,,,,,,,,,,,,,,,,,,,,,,,,,,,,,,,,,,,,,,,,,,,,,127.0,127.0,125.0,200.0,200.0,125.0,2.1,2.12,-260,-283,0,-261,258,253,180.72168135643005,180.72172284126282,180.72426772117615,180.73656105995178,180.88654923439026,180.88654923439026,180.88654923439026,180.88654923439026,180.88654923439026,180.88654923439026,180.88654923439026,182.77106976509094,2,2.016958713531494,None,,,,,,,,,,,,,,,,,,190,3,2025-03-05_11h04.32.658,comp,2024.2.4,64.46338963096846,2025-03-05 11h04.42.134737 -0500,
29,29,0,filler_square,None,None,None,None,None,None,None,None,None,None,3,5.821955919265747,None,,,,,0,0,0,0,0,29,29,190,182.78628849983215,,,,,,,,,,,,,,,,,,,,,,,,,,,,,,,,,,,,,,,,,,,,,,,,,,,,,,,,,,,,,,,,,,,,,,,,,,,,,,,,,72.62522093050333,74.28279235004366,77.24077820022987,62.55304596953428,80.12951940259885,80.12951940259885,1.0,1.3,316,-272,480,-267,647,-267,182.7720296382904,182.77206921577454,182.77449536323547,182.78628849983215,182.93634605407715,182.93634605407715,182.93634605407715,182.93634605407715,182.93634605407715,182.93634605407715,182.93634605407715,188.62077069282532,3,5.821955919265747,None,,,,,,,,,,,,,,,,,,190,3,2025-03-05_11h04.32.658,comp,2024.2.4,64.46338963096846,2025-03-05 11h04.42.134737 -0500,
30,30,0,critical,hwd,35.0,4.0,upper,200.0,125.0,125.0,200.0,127.0,127.0,1,2.8200228214263916,None,,,,,0,0,0,0,0,30,30,101,188.6363570690155,,,,,,,,,,,,,,,,,,,,,,,,,,,,,,,,,,,,,,,,,,,,,,,,,,,,,,,,,,,,,,,,,,,,,,,,,,,,,,,,,200.0,125.0,125.0,200.0,127.0,127.0,4.0,4.2,-258,17,0,-279,260,18,188.6215579509735,188.621600151062,188.62493228912354,188.6363570690155,188.7864544391632,188.7864544391632,188.7864544391632,188.7864544391632,188.7864544391632,188.7864544391632,188.7864544391632,191.47083926200867,1,2.8200228214263916,None,,,,,,,,,,,,,,,,,,190,3,2025-03-05_11h04.32.658,comp,2024.2.4,64.46338963096846,2025-03-05 11h04.42.134737 -0500,
31,31,0,catch,None,None,None,None,None,None,None,None,None,None,2,1.0181102752685547,None,,,,,0,0,0,0,0,31,31,120,191.48616743087769,,,,,,,,,,,,,,,,,,,,,,,,,,,,,,,,,,,,,,,,,,,,,,,,,,,,,,,,,,,,,,,,,,,,,,,,,,,,,,,,,125,65,174,151,109,81,1.0,1.1,-684,263,-480,284,-268,258,191.47188258171082,191.47192239761353,191.47405123710632,191.48616743087769,191.63629865646362,191.63629865646362,191.63629865646362,191.63629865646362,191.63629865646362,191.63629865646362,191.63629865646362,192.52060723304749,2,1.0181102752685547,None,,,,,,,,,,,,,,,,,,190,3,2025-03-05_11h04.32.658,comp,2024.2.4,64.46338963096846,2025-03-05 11h04.42.134737 -0500,
32,32,0,critical,dwh,35.0,2.1,lower,70.0,70.0,57.0,133.0,133.0,57.0,2,5.514242172241211,None,,,,,0,0,0,0,0,32,32,28,192.53611850738525,,,,,,,,,,,,,,,,,,,,,,,,,,,,,,,,,,,,,,,,,,,,,,,,,,,,,,,,,,,,,,,,,,,,,,,,,,,,,,,,,70.0,70.0,57.0,133.0,133.0,57.0,2.1,2.11,-198,278,0,263,191,-284,192.52140092849731,192.5214397907257,192.5246422290802,192.53611850738525,192.68628358840942,192.68628358840942,192.68628358840942,192.68628358840942,192.68628358840942,192.68628358840942,192.68628358840942,198.05403518676758,2,5.514242172241211,None,,,,,,,,,,,,,,,,,,190,3,2025-03-05_11h04.32.658,comp,2024.2.4,64.46338963096846,2025-03-05 11h04.42.134737 -0500,
33,33,0,filler_random,None,None,None,None,None,None,None,None,None,None,3,1.875368356704712,None,,,,,0,0,0,0,0,33,33,145,198.06968641281128,,,,,,,,,,,,,,,,,,,,,,,,,,,,,,,,,,,,,,,,,,,,,,,,,,,,,,,,,,,,,,,,,,,,,,,,,,,,,,,,,99.83773342046176,90.70011269151814,135.9391216849028,148.43259771737257,197.35421508336918,160.8626200548427,2.1,2.12,-216,-274,0,-280,251,261,198.05496835708618,198.05500984191895,198.05738639831543,198.06968641281128,198.21961331367493,198.21961331367493,198.21961331367493,198.21961331367493,198.21961331367493,198.21961331367493,198.21961331367493,199.95412397384644,3,1.875368356704712,None,,,,,,,,,,,,,,,,,,190,3,2025-03-05_11h04.32.658,comp,2024.2.4,64.46338963096846,2025-03-05 11h04.42.134737 -0500,
34,34,0,critical,hwd,35.0,1.0,upper,200.0,125.0,125.0,200.0,127.0,127.0,2,4.567081689834595,None,,,,,0,0,0,0,0,34,34,97,199.96971821784973,,,,,,,,,,,,,,,,,,,,,,,,,,,,,,,,,,,,,,,,,,,,,,,,,,,,,,,,,,,,,,,,,,,,,,,,,,,,,,,,,200.0,125.0,125.0,200.0,127.0,127.0,1.0,1.2,-258,-9,0,5,260,17,199.9549160003662,199.95495581626892,199.95709872245789,199.96971821784973,200.11963534355164,200.11963534355164,200.11963534355164,200.11963534355164,200.11963534355164,200.11963534355164,200.11963534355164,204.5378782749176,2,4.567081689834595,None,,,,,,,,,,,,,,,,,,190,3,2025-03-05_11h04.32.658,comp,2024.2.4,64.46338963096846,2025-03-05 11h04.42.134737 -0500,
35,35,0,filler_square,None,None,None,None,None,None,None,None,None,None,2,1.471219778060913,None,,,,,0,0,0,0,0,35,35,184,204.55292987823486,,,,,,,,,,,,,,,,,,,,,,,,,,,,,,,,,,,,,,,,,,,,,,,,,,,,,,,,,,,,,,,,,,,,,,,,,,,,,,,,,109.44982583883046,77.51306011943427,116.55218862482124,116.55218862482124,77.20972814960169,73.28936562725255,2.2,2.21,-193,-280,0,273,191,253,204.538889169693,204.53894662857056,204.54153299331665,204.55292987823486,204.70288157463074,204.70288157463074,204.70288157463074,204.70288157463074,204.70288157463074,204.70288157463074,204.70288157463074,206.0373752117157,2,1.471219778060913,None,,,,,,,,,,,,,,,,,,190,3,2025-03-05_11h04.32.658,comp,2024.2.4,64.46338963096846,2025-03-05 11h04.42.134737 -0500,
36,36,0,critical,whd,20.0,3.0,lower,57.0,133.0,133.0,57.0,78.0,78.0,1,3.6283464431762695,None,,,,,0,0,0,0,0,36,36,92,206.05270290374756,,,,,,,,,,,,,,,,,,,,,,,,,,,,,,,,,,,,,,,,,,,,,,,,,,,,,,,,,,,,,,,,,,,,,,,,,,,,,,,,,57.0,133.0,133.0,57.0,78.0,78.0,3.0,3.2,-191,-258,0,-13,164,255,206.0381841659546,206.0382227897644,206.04077196121216,206.05270290374756,206.20295643806458,206.20295643806458,206.20295643806458,206.20295643806458,206.20295643806458,206.20295643806458,206.20295643806458,209.6872055530548,1,3.6283464431762695,None,,,,,,,,,,,,,,,,,,190,3,2025-03-05_11h04.32.658,comp,2024.2.4,64.46338963096846,2025-03-05 11h04.42.134737 -0500,
37,37,0,critical,hwd,35.0,2.1,upper,200.0,125.0,125.0,200.0,127.0,127.0,1,3.626087188720703,None,,,,,0,0,0,0,0,37,37,17,209.7029688358307,,,,,,,,,,,,,,,,,,,,,,,,,,,,,,,,,,,,,,,,,,,,,,,,,,,,,,,,,,,,,,,,,,,,,,,,,,,,,,,,,200.0,125.0,125.0,200.0,127.0,127.0,2.1,2.12,-258,-284,0,-277,260,268,209.68801641464233,209.68805742263794,209.6905038356781,209.7029688358307,209.85307836532593,209.85307836532593,209.85307836532593,209.85307836532593,209.85307836532593,209.85307836532593,209.85307836532593,213.3375120162964,1,3.626087188720703,None,,,,,,,,,,,,,,,,,,190,3,2025-03-05_11h04.32.658,comp,2024.2.4,64.46338963096846,2025-03-05 11h04.42.134737 -0500,
38,38,0,filler_square,None,None,None,None,None,None,None,None,None,None,1,1.583477258682251,None,,,,,0,0,0,0,0,38,38,208,213.352961063385,,,,,,,,,,,,,,,,,,,,,,,,,,,,,,,,,,,,,,,,,,,,,,,,,,,,,,,,,,,,,,,,,,,,,,,,,,,,,,,,,104.35607438748255,104.35607438748255,90.39649885466935,80.89016122176807,71.80328766791044,64.81963351122577,2.1,2.11,-189,271,0,281,169,-268,213.33845233917236,213.33849239349365,213.34126234054565,213.352961063385,213.50316715240479,213.50316715240479,213.50316715240479,213.50316715240479,213.50316715240479,213.50316715240479,213.50316715240479,214.95396637916565,1,1.583477258682251,None,,,,,,,,,,,,,,,,,,190,3,2025-03-05_11h04.32.658,comp,2024.2.4,64.46338963096846,2025-03-05 11h04.42.134737 -0500,
39,39,0,critical,dhw,35.0,3.0,lower,70.0,70.0,133.0,57.0,57.0,133.0,3,3.071354627609253,None,,,,,0,0,0,0,0,39,39,50,214.96930408477783,,,,,,,,,,,,,,,,,,,,,,,,,,,,,,,,,,,,,,,,,,,,,,,,,,,,,,,,,,,,,,,,,,,,,,,,,,,,,,,,,70.0,70.0,133.0,57.0,57.0,133.0,3.0,3.1,-160,286,0,15,191,-261,214.9547417163849,214.95478081703186,214.95718502998352,214.96930408477783,215.11938405036926,215.11938405036926,215.11938405036926,215.11938405036926,215.11938405036926,215.11938405036926,215.11938405036926,218.05413556098938,3,3.071354627609253,None,,,,,,,,,,,,,,,,,,190,3,2025-03-05_11h04.32.658,comp,2024.2.4,64.46338963096846,2025-03-05 11h04.42.134737 -0500,
40,40,0,critical,whd,20.0,1.0,lower,57.0,133.0,133.0,57.0,78.0,78.0,1,2.7335987091064453,None,,,,,0,0,0,0,0,40,40,90,218.06928896903992,,,,,,,,,,,,,,,,,,,,,,,,,,,,,,,,,,,,,,,,,,,,,,,,,,,,,,,,,,,,,,,,,,,,,,,,,,,,,,,,,57.0,133.0,133.0,57.0,78.0,78.0,1.0,1.3,289,-281,480,-260,644,-287,218.0549693107605,218.0550091266632,218.05705189704895,218.06928896903992,218.21939396858215,218.21939396858215,218.21939396858215,218.21939396858215,218.21939396858215,218.21939396858215,218.21939396858215,220.80414748191833,1,2.7335987091064453,None,,,,,,,,,,,,,,,,,,190,3,2025-03-05_11h04.32.658,comp,2024.2.4,64.46338963096846,2025-03-05 11h04.42.134737 -0500,
41,41,0,catch,None,None,None,None,None,None,None,None,None,None,3,0.9501678943634033,None,,,,,0,0,0,0,0,41,41,126,220.8195424079895,,,,,,,,,,,,,,,,,,,,,,,,,,,,,,,,,,,,,,,,,,,,,,,,,,,,,,,,,,,,,,,,,,,,,,,,,,,,,,,,,65,125,112,78,151,174,4.0,4.1,-198,-282,0,16,222,-258,220.80519580841064,220.8052361011505,220.80736327171326,220.8195424079895,220.96940755844116,220.96940755844116,220.96940755844116,220.96940755844116,220.96940755844116,220.96940755844116,220.96940755844116,221.7709081172943,3,0.9501678943634033,None,,,,,,,,,,,,,,,,,,190,3,2025-03-05_11h04.32.658,comp,2024.2.4,64.46338963096846,2025-03-05 11h04.42.134737 -0500,
42,42,0,filler_random,None,None,None,None,None,None,None,None,None,None,2,1.0486290454864502,None,,,,,0,0,0,0,0,42,42,132,221.78613758087158,,,,,,,,,,,,,,,,,,,,,,,,,,,,,,,,,,,,,,,,,,,,,,,,,,,,,,,,,,,,,,,,,,,,,,,,,,,,,,,,,129.85640753126967,140.61749287077953,191.86333162299158,129.52336389937904,71.52911332352365,58.64180398551175,2.2,2.22,-231,259,0,-263,190,-252,221.77183723449707,221.77187776565552,221.7742087841034,221.78613758087158,221.93610954284668,221.93610954284668,221.93610954284668,221.93610954284668,221.93610954284668,221.93610954284668,221.93610954284668,222.837553024292,2,1.0486290454864502,None,,,,,,,,,,,,,,,,,,190,3,2025-03-05_11h04.32.658,comp,2024.2.4,64.46338963096846,2025-03-05 11h04.42.134737 -0500,
43,43,0,filler_random,None,None,None,None,None,None,None,None,None,None,2,1.283613920211792,None,,,,,0,0,0,0,0,43,43,160,222.8530433177948,,,,,,,,,,,,,,,,,,,,,,,,,,,,,,,,,,,,,,,,,,,,,,,,,,,,,,,,,,,,,,,,,,,,,,,,,,,,,,,,,186.282862126613,84.76992084700765,165.50709340379353,194.4342505908368,98.8856551844057,176.68942428849704,1.0,1.2,-236,8,0,5,282,3,222.83847165107727,222.83851289749146,222.84086632728577,222.8530433177948,223.00308203697205,223.00308203697205,223.00308203697205,223.00308203697205,223.00308203697205,223.00308203697205,223.00308203697205,224.15424990653992,2,1.283613920211792,None,,,,,,,,,,,,,,,,,,190,3,2025-03-05_11h04.32.658,comp,2024.2.4,64.46338963096846,2025-03-05 11h04.42.134737 -0500,
44,44,0,filler_square,None,None,None,None,None,None,None,None,None,None,1,0.865424394607544,None,,,,,0,0,0,0,0,44,44,187,224.16936016082764,,,,,,,,,,,,,,,,,,,,,,,,,,,,,,,,,,,,,,,,,,,,,,,,,,,,,,,,,,,,,,,,,,,,,,,,,,,,,,,,,194.92983301586466,194.92983301586466,80.3655259151841,180.3336732732439,99.85309334027156,60.40994722053932,3.0,3.1,-284,288,0,20,216,-259,224.1552255153656,224.1552677154541,224.15775990486145,224.16936016082764,224.31947422027588,224.31947422027588,224.31947422027588,224.31947422027588,224.31947422027588,224.31947422027588,224.31947422027588,225.03748536109924,1,0.865424394607544,None,,,,,,,,,,,,,,,,,,190,3,2025-03-05_11h04.32.658,comp,2024.2.4,64.46338963096846,2025-03-05 11h04.42.134737 -0500,
45,45,0,filler_square,None,None,None,None,None,None,None,None,None,None,2,2.6440625190734863,None,,,,,0,0,0,0,0,45,45,171,225.0528371334076,,,,,,,,,,,,,,,,,,,,,,,,,,,,,,,,,,,,,,,,,,,,,,,,,,,,,,,,,,,,,,,,,,,,,,,,,,,,,,,,,171.47841948981883,163.57334304159232,172.6689191291078,172.6689191291078,153.7546961654158,166.23714353870494,2.1,2.12,-264,-282,0,-259,265,284,225.03845357894897,225.03849363327026,225.04076528549194,225.0528371334076,225.20287251472473,225.20287251472473,225.20287251472473,225.20287251472473,225.20287251472473,225.20287251472473,225.20287251472473,227.7042260169983,2,2.6440625190734863,None,,,,,,,,,,,,,,,,,,190,3,2025-03-05_11h04.32.658,comp,2024.2.4,64.46338963096846,2025-03-05 11h04.42.134737 -0500,
46,46,0,catch,None,None,None,None,None,None,None,None,None,None,2,0.9526314735412598,None,,,,,0,0,0,0,0,46,46,123,227.71955680847168,,,,,,,,,,,,,,,,,,,,,,,,,,,,,,,,,,,,,,,,,,,,,,,,,,,,,,,,,,,,,,,,,,,,,,,,,,,,,,,,,122,68,175,150,77,113,3.0,3.1,-205,288,0,18,228,-277,227.70548486709595,227.7055311203003,227.70773458480835,227.71955680847168,227.86944437026978,227.86944437026978,227.86944437026978,227.86944437026978,227.86944437026978,227.86944437026978,227.86944437026978,228.68723320960999,2,0.9526314735412598,None,,,,,,,,,,,,,,,,,,190,3,2025-03-05_11h04.32.658,comp,2024.2.4,64.46338963096846,2025-03-05 11h04.42.134737 -0500,
47,47,0,filler_random,None,None,None,None,None,None,None,None,None,None,1,1.2997777462005615,None,,,,,0,0,0,0,0,47,47,167,228.70269083976746,,,,,,,,,,,,,,,,,,,,,,,,,,,,,,,,,,,,,,,,,,,,,,,,,,,,,,,,,,,,,,,,,,,,,,,,,,,,,,,,,194.44814980916757,167.6453940583098,160.06710846016355,57.356093784385486,93.88281250502202,131.35430657416345,2.2,2.21,-209,-271,0,278,190,273,228.68817329406738,228.6882140636444,228.69077348709106,228.70269083976746,228.85289359092712,228.85289359092712,228.85289359092712,228.85289359092712,228.85289359092712,228.85289359092712,228.85289359092712,230.02048254013062,1,1.2997777462005615,None,,,,,,,,,,,,,,,,,,190,3,2025-03-05_11h04.32.658,comp,2024.2.4,64.46338963096846,2025-03-05 11h04.42.134737 -0500,
48,48,0,filler_random,None,None,None,None,None,None,None,None,None,None,2,1.156081199645996,None,,,,,0,0,0,0,0,48,48,134,230.03585720062256,,,,,,,,,,,,,,,,,,,,,,,,,,,,,,,,,,,,,,,,,,,,,,,,,,,,,,,,,,,,,,,,,,,,,,,,,,,,,,,,,126.3797060339616,175.14396360887366,193.07329951439075,168.15086692874365,111.13966237870889,134.18378980365722,1.0,1.3,212,-270,480,-278,727,-253,230.02139925956726,230.0214376449585,230.02401304244995,230.03585720062256,230.18609356880188,230.18609356880188,230.18609356880188,230.18609356880188,230.18609356880188,230.18609356880188,230.18609356880188,231.2040479183197,2,1.156081199645996,None,,,,,,,,,,,,,,,,,,190,3,2025-03-05_11h04.32.658,comp,2024.2.4,64.46338963096846,2025-03-05 11h04.42.134737 -0500,
49,49,0,critical,wdh,20.0,2.1,lower,57.0,133.0,78.0,78.0,133.0,57.0,2,4.509659290313721,None,,,,,0,0,0,0,0,49,49,10,231.219162940979,,,,,,,,,,,,,,,,,,,,,,,,,,,,,,,,,,,,,,,,,,,,,,,,,,,,,,,,,,,,,,,,,,,,,,,,,,,,,,,,,57.0,133.0,78.0,78.0,133.0,57.0,2.1,2.11,-202,289,0,250,164,-273,231.20485258102417,231.2048909664154,231.20739793777466,231.219162940979,231.3692545890808,231.3692545890808,231.3692545890808,231.3692545890808,231.3692545890808,231.3692545890808,231.3692545890808,235.73704051971436,2,4.509659290313721,None,,,,,,,,,,,,,,,,,,190,3,2025-03-05_11h04.32.658,comp,2024.2.4,64.46338963096846,2025-03-05 11h04.42.134737 -0500,
50,50,0,critical,dhw,35.0,1.0,lower,70.0,70.0,133.0,57.0,57.0,133.0,3,3.6166844367980957,None,,,,,0,0,0,0,0,50,50,48,235.75278162956238,,,,,,,,,,,,,,,,,,,,,,,,,,,,,,,,,,,,,,,,,,,,,,,,,,,,,,,,,,,,,,,,,,,,,,,,,,,,,,,,,70.0,70.0,133.0,57.0,57.0,133.0,1.0,1.2,-160,11,0,-18,191,7,235.73785853385925,235.73789930343628,235.74037528038025,235.75278162956238,235.90263199806213,235.90263199806213,235.90263199806213,235.90263199806213,235.90263199806213,235.90263199806213,235.90263199806213,239.38703036308289,3,3.6166844367980957,None,,,,,,,,,,,,,,,,,,190,3,2025-03-05_11h04.32.658,comp,2024.2.4,64.46338963096846,2025-03-05 11h04.42.134737 -0500,
51,51,0,critical,hwd,20.0,3.0,lower,133.0,57.0,57.0,133.0,78.0,78.0,2,2.942303419113159,None,,,,,0,0,0,0,0,51,51,104,239.40254950523376,,,,,,,,,,,,,,,,,,,,,,,,,,,,,,,,,,,,,,,,,,,,,,,,,,,,,,,,,,,,,,,,,,,,,,,,,,,,,,,,,133.0,57.0,57.0,133.0,78.0,78.0,3.0,3.1,-191,269,0,-12,202,-280,239.38782930374146,239.3878676891327,239.3903453350067,239.40254950523376,239.55252981185913,239.55252981185913,239.55252981185913,239.55252981185913,239.55252981185913,239.55252981185913,239.55252981185913,242.3536093235016,2,2.942303419113159,None,,,,,,,,,,,,,,,,,,190,3,2025-03-05_11h04.32.658,comp,2024.2.4,64.46338963096846,2025-03-05 11h04.42.134737 -0500,
52,52,0,critical,hwd,20.0,1.0,upper,200.0,125.0,125.0,200.0,141.0,141.0,2,2.5435774326324463,None,,,,,0,0,0,0,0,52,52,103,242.36929559707642,,,,,,,,,,,,,,,,,,,,,,,,,,,,,,,,,,,,,,,,,,,,,,,,,,,,,,,,,,,,,,,,,,,,,,,,,,,,,,,,,200.0,125.0,125.0,200.0,141.0,141.0,1.0,1.3,222,-286,480,-264,746,-261,242.35440397262573,242.35444617271423,242.35675501823425,242.36929559707642,242.51948356628418,242.51948356628418,242.51948356628418,242.51948356628418,242.51948356628418,242.51948356628418,242.51948356628418,244.92059588432312,2,2.5435774326324463,None,,,,,,,,,,,,,,,,,,190,3,2025-03-05_11h04.32.658,comp,2024.2.4,64.46338963096846,2025-03-05 11h04.42.134737 -0500,
53,53,0,filler_random,None,None,None,None,None,None,None,None,None,None,2,3.850281000137329,None,,,,,0,0,0,0,0,53,53,133,244.93600845336914,,,,,,,,,,,,,,,,,,,,,,,,,,,,,,,,,,,,,,,,,,,,,,,,,,,,,,,,,,,,,,,,,,,,,,,,,,,,,,,,,198.73346039577808,136.3059596452917,165.6718510671191,180.38496521444193,122.019726411855,140.61478223174277,4.0,4.2,-254,-9,0,-290,256,-9,244.92150807380676,244.92154788970947,244.9238474369049,244.93600845336914,245.08601188659668,245.08601188659668,245.08601188659668,245.08601188659668,245.08601188659668,245.08601188659668,245.08601188659668,248.8038673400879,2,3.850281000137329,None,,,,,,,,,,,,,,,,,,190,3,2025-03-05_11h04.32.658,comp,2024.2.4,64.46338963096846,2025-03-05 11h04.42.134737 -0500,
54,54,0,critical,hdw,20.0,2.1,upper,200.0,125.0,141.0,141.0,125.0,200.0,3,3.4369709491729736,None,,,,,0,0,0,0,0,54,54,23,248.81912064552307,,,,,,,,,,,,,,,,,,,,,,,,,,,,,,,,,,,,,,,,,,,,,,,,,,,,,,,,,,,,,,,,,,,,,,,,,,,,,,,,,200.0,125.0,141.0,141.0,125.0,200.0,2.1,2.12,-229,-257,0,-280,266,286,248.80470252037048,248.8047432899475,248.8068823814392,248.81912064552307,248.96938180923462,248.96938180923462,248.96938180923462,248.96938180923462,248.96938180923462,248.96938180923462,248.96938180923462,252.27054524421692,3,3.4369709491729736,None,,,,,,,,,,,,,,,,,,190,3,2025-03-05_11h04.32.658,comp,2024.2.4,64.46338963096846,2025-03-05 11h04.42.134737 -0500,
55,55,0,filler_square,None,None,None,None,None,None,None,None,None,None,3,2.234373092651367,None,,,,,0,0,0,0,0,55,55,172,252.2856981754303,,,,,,,,,,,,,,,,,,,,,,,,,,,,,,,,,,,,,,,,,,,,,,,,,,,,,,,,,,,,,,,,,,,,,,,,,,,,,,,,,142.56080967529667,121.38398784343951,98.37501143891933,104.77842903242336,148.39534059303685,148.39534059303685,4.0,4.1,-209,-281,0,7,223,-288,252.27151012420654,252.27155184745789,252.27412819862366,252.2856981754303,252.43580722808838,252.43580722808838,252.43580722808838,252.43580722808838,252.43580722808838,252.43580722808838,252.43580722808838,254.53705525398254,3,2.234373092651367,None,,,,,,,,,,,,,,,,,,190,3,2025-03-05_11h04.32.658,comp,2024.2.4,64.46338963096846,2025-03-05 11h04.42.134737 -0500,
56,56,0,filler_square,None,None,None,None,None,None,None,None,None,None,1,1.1676983833312988,None,,,,,0,0,0,0,0,56,56,193,254.5522804260254,,,,,,,,,,,,,,,,,,,,,,,,,,,,,,,,,,,,,,,,,,,,,,,,,,,,,,,,,,,,,,,,,,,,,,,,,,,,,,,,,181.57986101854283,181.57986101854283,181.44844760344498,84.22414227588425,160.24178329129512,79.29571772168464,2.1,2.12,-229,-281,0,-278,178,270,254.53798270225525,254.53802013397217,254.54038858413696,254.5522804260254,254.70268058776855,254.70268058776855,254.70268058776855,254.70268058776855,254.70268058776855,254.70268058776855,254.70268058776855,255.73714017868042,1,1.1676983833312988,None,,,,,,,,,,,,,,,,,,190,3,2025-03-05_11h04.32.658,comp,2024.2.4,64.46338963096846,2025-03-05 11h04.42.134737 -0500,
57,57,0,critical,wdh,35.0,2.1,upper,125.0,200.0,127.0,127.0,200.0,125.0,1,5.367538690567017,None,,,,,0,0,0,0,0,57,57,9,255.7523901462555,,,,,,,,,,,,,,,,,,,,,,,,,,,,,,,,,,,,,,,,,,,,,,,,,,,,,,,,,,,,,,,,,,,,,,,,,,,,,,,,,125.0,200.0,127.0,127.0,200.0,125.0,2.1,2.12,-260,-257,0,-283,222,271,255.73793745040894,255.7379765510559,255.7404043674469,255.7523901462555,255.9027259349823,255.9027259349823,255.9027259349823,255.9027259349823,255.9027259349823,255.9027259349823,255.9027259349823,261.13715624809265,1,5.367538690567017,None,,,,,,,,,,,,,,,,,,190,3,2025-03-05_11h04.32.658,comp,2024.2.4,64.46338963096846,2025-03-05 11h04.42.134737 -0500,
58,58,0,filler_random,None,None,None,None,None,None,None,None,None,None,3,2.033480167388916,None,,,,,0,0,0,0,0,58,58,166,261.15249466896057,,,,,,,,,,,,,,,,,,,,,,,,,,,,,,,,,,,,,,,,,,,,,,,,,,,,,,,,,,,,,,,,,,,,,,,,,,,,,,,,,84.55698971511299,150.03944363013187,113.18705996723088,81.49736901868052,123.25434389785106,144.2311501717071,2.2,2.22,-212,251,0,-280,209,-255,261.1380865573883,261.1381268501282,261.14056944847107,261.15249466896057,261.30251932144165,261.30251932144165,261.30251932144165,261.30251932144165,261.30251932144165,261.30251932144165,261.30251932144165,263.1871931552887,3,2.033480167388916,None,,,,,,,,,,,,,,,,,,190,3,2025-03-05_11h04.32.658,comp,2024.2.4,64.46338963096846,2025-03-05 11h04.42.134737 -0500,
59,59,0,critical,dhw,20.0,2.1,upper,141.0,141.0,200.0,125.0,125.0,200.0,2,5.799906969070435,None,,,,,0,0,0,0,0,59,59,3,263.2025752067566,,,,,,,,,,,,,,,,,,,,,,,,,,,,,,,,,,,,,,,,,,,,,,,,,,,,,,,,,,,,,,,,,,,,,,,,,,,,,,,,,141.0,141.0,200.0,125.0,125.0,200.0,2.1,2.12,-229,-255,0,-273,258,286,263.18795824050903,263.18799805641174,263.19044399261475,263.2025752067566,263.3526442050934,263.3526442050934,263.3526442050934,263.3526442050934,263.3526442050934,263.3526442050934,263.3526442050934,269.0204916000366,2,5.799906969070435,None,,,,,,,,,,,,,,,,,,190,3,2025-03-05_11h04.32.658,comp,2024.2.4,64.46338963096846,2025-03-05 11h04.42.134737 -0500,
60,60,0,critical,dhw,20.0,4.0,upper,141.0,141.0,200.0,125.0,125.0,200.0,3,4.998752593994141,None,,,,,0,0,0,0,0,60,60,59,269.0356936454773,,,,,,,,,,,,,,,,,,,,,,,,,,,,,,,,,,,,,,,,,,,,,,,,,,,,,,,,,,,,,,,,,,,,,,,,,,,,,,,,,141.0,141.0,200.0,125.0,125.0,200.0,4.0,4.2,-229,1,0,-261,258,12,269.02130794525146,269.0213477611542,269.023645401001,269.0356936454773,269.18596029281616,269.18596029281616,269.18596029281616,269.18596029281616,269.18596029281616,269.18596029281616,269.18596029281616,274.037260055542,3,4.998752593994141,None,,,,,,,,,,,,,,,,,,190,3,2025-03-05_11h04.32.658,comp,2024.2.4,64.46338963096846,2025-03-05 11h04.42.134737 -0500,
61,61,0,critical,whd,35.0,1.0,upper,125.0,200.0,200.0,125.0,127.0,127.0,2,2.434861660003662,None,,,,,0,0,0,0,0,61,61,85,274.0528688430786,,,,,,,,,,,,,,,,,,,,,,,,,,,,,,,,,,,,,,,,,,,,,,,,,,,,,,,,,,,,,,,,,,,,,,,,,,,,,,,,,125.0,200.0,200.0,125.0,127.0,127.0,1.0,1.3,222,-252,480,-266,702,-284,274.0380747318268,274.03811526298523,274.04070830345154,274.0528688430786,274.2025234699249,274.2025234699249,274.2025234699249,274.2025234699249,274.2025234699249,274.2025234699249,274.2025234699249,276.50394892692566,2,2.434861660003662,None,,,,,,,,,,,,,,,,,,190,3,2025-03-05_11h04.32.658,comp,2024.2.4,64.46338963096846,2025-03-05 11h04.42.134737 -0500,
62,62,0,critical,dwh,35.0,4.0,upper,127.0,127.0,125.0,200.0,200.0,125.0,2,2.6671080589294434,None,,,,,0,0,0,0,0,62,62,65,276.5189561843872,,,,,,,,,,,,,,,,,,,,,,,,,,,,,,,,,,,,,,,,,,,,,,,,,,,,,,,,,,,,,,,,,,,,,,,,,,,,,,,,,127.0,127.0,125.0,200.0,200.0,125.0,4.0,4.2,-260,-6,0,-276,258,-16,276.50478982925415,276.5048294067383,276.5070357322693,276.5189561843872,276.6692798137665,276.6692798137665,276.6692798137665,276.6692798137665,276.6692798137665,276.6692798137665,276.6692798137665,279.1871449947357,2,2.6671080589294434,None,,,,,,,,,,,,,,,,,,190,3,2025-03-05_11h04.32.658,comp,2024.2.4,64.46338963096846,2025-03-05 11h04.42.134737 -0500,
63,63,0,critical,hwd,35.0,1.0,lower,133.0,57.0,57.0,133.0,70.0,70.0,2,8.374263048171997,None,,,,,0,0,0,0,0,63,63,96,279.2025001049042,,,,,,,,,,,,,,,,,,,,,,,,,,,,,,,,,,,,,,,,,,,,,,,,,,,,,,,,,,,,,,,,,,,,,,,,,,,,,,,,,133.0,57.0,57.0,133.0,70.0,70.0,1.0,1.3,289,-273,480,-279,678,-267,279.1879391670227,279.18797850608826,279.1904492378235,279.2025001049042,279.35230565071106,279.35230565071106,279.35230565071106,279.35230565071106,279.35230565071106,279.35230565071106,279.35230565071106,287.58661127090454,2,8.374263048171997,None,,,,,,,,,,,,,,,,,,190,3,2025-03-05_11h04.32.658,comp,2024.2.4,64.46338963096846,2025-03-05 11h04.42.134737 -0500,
64,64,0,critical,dwh,20.0,1.0,lower,78.0,78.0,57.0,133.0,133.0,57.0,2,6.557903051376343,None,,,,,0,0,0,0,0,64,64,66,287.6024730205536,,,,,,,,,,,,,,,,,,,,,,,,,,,,,,,,,,,,,,,,,,,,,,,,,,,,,,,,,,,,,,,,,,,,,,,,,,,,,,,,,78.0,78.0,57.0,133.0,133.0,57.0,1.0,1.3,278,-274,480,-286,671,-285,287.5874228477478,287.587464094162,287.5897841453552,287.6024730205536,287.75219321250916,287.75219321250916,287.75219321250916,287.75219321250916,287.75219321250916,287.75219321250916,287.75219321250916,294.1700131893158,2,6.557903051376343,None,,,,,,,,,,,,,,,,,,190,3,2025-03-05_11h04.32.658,comp,2024.2.4,64.46338963096846,2025-03-05 11h04.42.134737 -0500,
65,65,0,filler_square,None,None,None,None,None,None,None,None,None,None,1,4.263607501983643,None,,,,,0,0,0,0,0,65,65,180,294.18576169013977,,,,,,,,,,,,,,,,,,,,,,,,,,,,,,,,,,,,,,,,,,,,,,,,,,,,,,,,,,,,,,,,,,,,,,,,,,,,,,,,,86.5893881987628,86.5893881987628,72.44254767981138,72.9551491823963,79.77716963562695,65.76529180245292,3.0,3.1,-176,275,0,3,165,-289,294.1709370613098,294.17097544670105,294.17342734336853,294.18576169013977,294.3354289531708,294.3354289531708,294.3354289531708,294.3354289531708,294.3354289531708,294.3354289531708,294.3354289531708,298.45342993736267,1,4.263607501983643,None,,,,,,,,,,,,,,,,,,190,3,2025-03-05_11h04.32.658,comp,2024.2.4,64.46338963096846,2025-03-05 11h04.42.134737 -0500,
66,66,0,critical,wdh,20.0,3.0,upper,125.0,200.0,141.0,141.0,200.0,125.0,3,4.08349609375,None,,,,,0,0,0,0,0,66,66,81,298.4691741466522,,,,,,,,,,,,,,,,,,,,,,,,,,,,,,,,,,,,,,,,,,,,,,,,,,,,,,,,,,,,,,,,,,,,,,,,,,,,,,,,,125.0,200.0,141.0,141.0,200.0,125.0,3.0,3.1,-266,278,0,5,229,-264,298.4542398452759,298.4542808532715,298.4567697048187,298.4691741466522,298.61904191970825,298.61904191970825,298.61904191970825,298.61904191970825,298.61904191970825,298.61904191970825,298.61904191970825,302.55380725860596,3,4.08349609375,None,,,,,,,,,,,,,,,,,,190,3,2025-03-05_11h04.32.658,comp,2024.2.4,64.46338963096846,2025-03-05 11h04.42.134737 -0500,
67,67,0,filler_square,None,None,None,None,None,None,None,None,None,None,3,5.216521739959717,None,,,,,0,0,0,0,0,67,67,177,302.56904006004333,,,,,,,,,,,,,,,,,,,,,,,,,,,,,,,,,,,,,,,,,,,,,,,,,,,,,,,,,,,,,,,,,,,,,,,,,,,,,,,,,62.26724276199404,57.29328079551628,63.4494463789077,63.3739275884053,65.64096868564403,65.64096868564403,2.1,2.11,-156,264,0,286,161,-256,302.5548655986786,302.55492210388184,302.5574686527252,302.56904006004333,302.71871542930603,302.71871542930603,302.71871542930603,302.71871542930603,302.71871542930603,302.71871542930603,302.71871542930603,307.7867212295532,3,5.216521739959717,None,,,,,,,,,,,,,,,,,,190,3,2025-03-05_11h04.32.658,comp,2024.2.4,64.46338963096846,2025-03-05 11h04.42.134737 -0500,
68,68,0,critical,whd,20.0,1.0,upper,125.0,200.0,200.0,125.0,141.0,141.0,2,4.926372528076172,None,,,,,0,0,0,0,0,68,68,91,307.80230808258057,,,,,,,,,,,,,,,,,,,,,,,,,,,,,,,,,,,,,,,,,,,,,,,,,,,,,,,,,,,,,,,,,,,,,,,,,,,,,,,,,125.0,200.0,200.0,125.0,141.0,141.0,1.0,1.1,-738,284,-480,259,-251,266,307.7874982357025,307.78753662109375,307.7896134853363,307.80230808258057,307.95227551460266,307.95227551460266,307.95227551460266,307.95227551460266,307.95227551460266,307.95227551460266,307.95227551460266,312.7368257045746,2,4.926372528076172,None,,,,,,,,,,,,,,,,,,190,3,2025-03-05_11h04.32.658,comp,2024.2.4,64.46338963096846,2025-03-05 11h04.42.134737 -0500,
69,69,0,filler_square,None,None,None,None,None,None,None,None,None,None,3,1.28765869140625,None,,,,,0,0,0,0,0,69,69,202,312.7523820400238,,,,,,,,,,,,,,,,,,,,,,,,,,,,,,,,,,,,,,,,,,,,,,,,,,,,,,,,,,,,,,,,,,,,,,,,,,,,,,,,,79.83350188761806,69.1145984554168,93.29468024016137,63.373706760786185,112.15000519825603,112.15000519825603,3.0,3.2,-162,-267,0,0,184,268,312.737783908844,312.7378251552582,312.74023962020874,312.7523820400238,312.9022443294525,312.9022443294525,312.9022443294525,312.9022443294525,312.9022443294525,312.9022443294525,312.9022443294525,314.053245306015,3,1.28765869140625,None,,,,,,,,,,,,,,,,,,190,3,2025-03-05_11h04.32.658,comp,2024.2.4,64.46338963096846,2025-03-05 11h04.42.134737 -0500,
70,70,0,critical,whd,35.0,4.0,upper,125.0,200.0,200.0,125.0,127.0,127.0,1,3.186861753463745,None,,,,,0,0,0,0,0,70,70,89,314.0686688423157,,,,,,,,,,,,,,,,,,,,,,,,,,,,,,,,,,,,,,,,,,,,,,,,,,,,,,,,,,,,,,,,,,,,,,,,,,,,,,,,,125.0,200.0,200.0,125.0,127.0,127.0,4.0,4.2,-258,-6,0,-259,222,-5,314.054039478302,314.05408120155334,314.0565707683563,314.0686688423157,314.2189464569092,314.2189464569092,314.2189464569092,314.2189464569092,314.2189464569092,314.2189464569092,314.2189464569092,317.27016043663025,1,3.186861753463745,None,,,,,,,,,,,,,,,,,,190,3,2025-03-05_11h04.32.658,comp,2024.2.4,64.46338963096846,2025-03-05 11h04.42.134737 -0500,
71,71,0,filler_random,None,None,None,None,None,None,None,None,None,None,3,1.732731580734253,None,,,,,0,0,0,0,0,71,71,147,317.28531861305237,,,,,,,,,,,,,,,,,,,,,,,,,,,,,,,,,,,,,,,,,,,,,,,,,,,,,,,,,,,,,,,,,,,,,,,,,,,,,,,,,117.24920770733806,179.92082941956332,135.97382314526448,72.22885165692877,135.18974988337226,192.0775277431999,2.1,2.11,-222,267,0,268,228,-283,317.271107673645,317.27114701271057,317.2733247280121,317.28531861305237,317.4354479312897,317.4354479312897,317.4354479312897,317.4354479312897,317.4354479312897,317.4354479312897,317.4354479312897,319.0202374458313,3,1.732731580734253,None,,,,,,,,,,,,,,,,,,190,3,2025-03-05_11h04.32.658,comp,2024.2.4,64.46338963096846,2025-03-05 11h04.42.134737 -0500,
72,72,0,critical,whd,35.0,2.1,upper,125.0,200.0,200.0,125.0,127.0,127.0,1,3.8679282665252686,None,,,,,0,0,0,0,0,72,72,13,319.03553891181946,,,,,,,,,,,,,,,,,,,,,,,,,,,,,,,,,,,,,,,,,,,,,,,,,,,,,,,,,,,,,,,,,,,,,,,,,,,,,,,,,125.0,200.0,200.0,125.0,127.0,127.0,2.1,2.12,-258,-258,0,-254,222,259,319.0210509300232,319.0210909843445,319.02327847480774,319.03553891181946,319.18553829193115,319.18553829193115,319.18553829193115,319.18553829193115,319.18553829193115,319.18553829193115,319.18553829193115,322.9201076030731,1,3.8679282665252686,None,,,,,,,,,,,,,,,,,,190,3,2025-03-05_11h04.32.658,comp,2024.2.4,64.46338963096846,2025-03-05 11h04.42.134737 -0500,
73,73,0,critical,whd,20.0,2.1,lower,57.0,133.0,133.0,57.0,78.0,78.0,1,5.784198045730591,None,,,,,0,0,0,0,0,73,73,38,322.93524289131165,,,,,,,,,,,,,,,,,,,,,,,,,,,,,,,,,,,,,,,,,,,,,,,,,,,,,,,,,,,,,,,,,,,,,,,,,,,,,,,,,57.0,133.0,133.0,57.0,78.0,78.0,2.1,2.12,-191,-269,0,-275,164,273,322.9209179878235,322.9209580421448,322.92334604263306,322.93524289131165,323.08530616760254,323.08530616760254,323.08530616760254,323.08530616760254,323.08530616760254,323.08530616760254,323.08530616760254,328.7364926338196,1,5.784198045730591,None,,,,,,,,,,,,,,,,,,190,3,2025-03-05_11h04.32.658,comp,2024.2.4,64.46338963096846,2025-03-05 11h04.42.134737 -0500,
74,74,0,critical,hdw,20.0,2.1,lower,133.0,57.0,78.0,78.0,57.0,133.0,3,5.0169219970703125,None,,,,,0,0,0,0,0,74,74,22,328.75183963775635,,,,,,,,,,,,,,,,,,,,,,,,,,,,,,,,,,,,,,,,,,,,,,,,,,,,,,,,,,,,,,,,,,,,,,,,,,,,,,,,,133.0,57.0,78.0,78.0,57.0,133.0,2.1,2.11,-164,259,0,250,202,-281,328.73732018470764,328.7373604774475,328.7396397590637,328.75183963775635,328.9019732475281,328.9019732475281,328.9019732475281,328.9019732475281,328.9019732475281,328.9019732475281,328.9019732475281,333.77009296417236,3,5.0169219970703125,None,,,,,,,,,,,,,,,,,,190,3,2025-03-05_11h04.32.658,comp,2024.2.4,64.46338963096846,2025-03-05 11h04.42.134737 -0500,
75,75,0,critical,whd,35.0,2.1,upper,125.0,200.0,200.0,125.0,127.0,127.0,2,2.6324920654296875,None,,,,,0,0,0,0,0,75,75,37,333.78547739982605,,,,,,,,,,,,,,,,,,,,,,,,,,,,,,,,,,,,,,,,,,,,,,,,,,,,,,,,,,,,,,,,,,,,,,,,,,,,,,,,,125.0,200.0,200.0,125.0,127.0,127.0,2.1,2.12,-258,-252,0,-269,222,281,333.77090287208557,333.7709438800812,333.77339363098145,333.78547739982605,333.93551540374756,333.93551540374756,333.93551540374756,333.93551540374756,333.93551540374756,333.93551540374756,333.93551540374756,336.42001152038574,2,2.6324920654296875,None,,,,,,,,,,,,,,,,,,190,3,2025-03-05_11h04.32.658,comp,2024.2.4,64.46338963096846,2025-03-05 11h04.42.134737 -0500,
76,76,0,filler_square,None,None,None,None,None,None,None,None,None,None,1,3.0518996715545654,None,,,,,0,0,0,0,0,76,76,175,336.4355912208557,,,,,,,,,,,,,,,,,,,,,,,,,,,,,,,,,,,,,,,,,,,,,,,,,,,,,,,,,,,,,,,,,,,,,,,,,,,,,,,,,155.9008523107018,155.9008523107018,111.67371795075942,85.90948282100679,102.15980449643018,150.55467440899378,3.0,3.2,-217,-272,0,6,214,270,336.4209840297699,336.42102456092834,336.423171043396,336.4355912208557,336.585417509079,336.585417509079,336.585417509079,336.585417509079,336.585417509079,336.585417509079,336.585417509079,339.5031244754791,1,3.0518996715545654,None,,,,,,,,,,,,,,,,,,190,3,2025-03-05_11h04.32.658,comp,2024.2.4,64.46338963096846,2025-03-05 11h04.42.134737 -0500,
77,77,0,filler_random,None,None,None,None,None,None,None,None,None,None,3,6.161802053451538,None,,,,,0,0,0,0,0,77,77,161,339.51850295066833,,,,,,,,,,,,,,,,,,,,,,,,,,,,,,,,,,,,,,,,,,,,,,,,,,,,,,,,,,,,,,,,,,,,,,,,,,,,,,,,,155.92905655372965,135.6995465055902,137.82783282141799,116.83732050124564,151.71845103855307,139.4119184015655,1.0,1.2,-222,12,0,7,224,-8,339.503990650177,339.50402998924255,339.506441116333,339.51850295066833,339.66871452331543,339.66871452331543,339.66871452331543,339.66871452331543,339.66871452331543,339.66871452331543,339.66871452331543,345.68648743629456,3,6.161802053451538,None,,,,,,,,,,,,,,,,,,190,3,2025-03-05_11h04.32.658,comp,2024.2.4,64.46338963096846,2025-03-05 11h04.42.134737 -0500,
78,78,0,filler_square,None,None,None,None,None,None,None,None,None,None,3,1.6260442733764648,None,,,,,0,0,0,0,0,78,78,189,345.7019865512848,,,,,,,,,,,,,,,,,,,,,,,,,,,,,,,,,,,,,,,,,,,,,,,,,,,,,,,,,,,,,,,,,,,,,,,,,,,,,,,,,111.59174710527631,79.51258454079952,81.35858671037468,87.07970867093076,113.40720015067618,113.40720015067618,1.0,1.2,-179,-14,0,4,196,-11,345.6874370574951,345.6874785423279,345.690096616745,345.7019865512848,345.85200333595276,345.85200333595276,345.85200333595276,345.85200333595276,345.85200333595276,345.85200333595276,345.85200333595276,347.33632135391235,3,1.6260442733764648,None,,,,,,,,,,,,,,,,,,190,3,2025-03-05_11h04.32.658,comp,2024.2.4,64.46338963096846,2025-03-05 11h04.42.134737 -0500,
79,79,0,filler_random,None,None,None,None,None,None,None,None,None,None,1,1.735450267791748,None,,,,,0,0,0,0,0,79,79,135,347.3519492149353,,,,,,,,,,,,,,,,,,,,,,,,,,,,,,,,,,,,,,,,,,,,,,,,,,,,,,,,,,,,,,,,,,,,,,,,,,,,,,,,,196.80983626094763,149.256183899638,107.09555009615576,191.4604882973727,85.1984604935935,182.54085495105994,1.0,1.3,214,-278,480,-256,763,-271,347.33721375465393,347.3372528553009,347.33924770355225,347.3519492149353,347.50205087661743,347.50205087661743,347.50205087661743,347.50205087661743,347.50205087661743,347.50205087661743,347.50205087661743,349.10301423072815,1,1.735450267791748,None,,,,,,,,,,,,,,,,,,190,3,2025-03-05_11h04.32.658,comp,2024.2.4,64.46338963096846,2025-03-05 11h04.42.134737 -0500,
80,80,0,critical,dhw,35.0,4.0,lower,70.0,70.0,133.0,57.0,57.0,133.0,2,6.504825592041016,None,,,,,0,0,0,0,0,80,80,52,349.11833000183105,,,,,,,,,,,,,,,,,,,,,,,,,,,,,,,,,,,,,,,,,,,,,,,,,,,,,,,,,,,,,,,,,,,,,,,,,,,,,,,,,70.0,70.0,133.0,57.0,57.0,133.0,4.0,4.2,-160,-5,0,-258,191,7,349.10384154319763,349.103880405426,349.1063985824585,349.11833000183105,349.26841402053833,349.26841402053833,349.26841402053833,349.26841402053833,349.26841402053833,349.26841402053833,349.26841402053833,355.63630270957947,2,6.504825592041016,None,,,,,,,,,,,,,,,,,,190,3,2025-03-05_11h04.32.658,comp,2024.2.4,64.46338963096846,2025-03-05 11h04.42.134737 -0500,
81,81,0,critical,whd,20.0,2.1,upper,125.0,200.0,200.0,125.0,141.0,141.0,1,2.524836778640747,None,,,,,0,0,0,0,0,81,81,39,355.65173172950745,,,,,,,,,,,,,,,,,,,,,,,,,,,,,,,,,,,,,,,,,,,,,,,,,,,,,,,,,,,,,,,,,,,,,,,,,,,,,,,,,125.0,200.0,200.0,125.0,141.0,141.0,2.1,2.12,-258,-274,0,-263,229,250,355.63709902763367,355.63714051246643,355.6396062374115,355.65173172950745,355.80203342437744,355.80203342437744,355.80203342437744,355.80203342437744,355.80203342437744,355.80203342437744,355.80203342437744,358.186416387558,1,2.524836778640747,None,,,,,,,,,,,,,,,,,,190,3,2025-03-05_11h04.32.658,comp,2024.2.4,64.46338963096846,2025-03-05 11h04.42.134737 -0500,
82,82,0,critical,wdh,20.0,2.1,upper,125.0,200.0,141.0,141.0,200.0,125.0,1,1.91756010055542,None,,,,,0,0,0,0,0,82,82,35,358.2019011974335,,,,,,,,,,,,,,,,,,,,,,,,,,,,,,,,,,,,,,,,,,,,,,,,,,,,,,,,,,,,,,,,,,,,,,,,,,,,,,,,,125.0,200.0,141.0,141.0,200.0,125.0,2.1,2.12,-266,-258,0,-279,229,271,358.18724513053894,358.1872868537903,358.18981552124023,358.2019011974335,358.35206151008606,358.35206151008606,358.35206151008606,358.35206151008606,358.35206151008606,358.35206151008606,358.35206151008606,360.13657689094543,1,1.91756010055542,None,,,,,,,,,,,,,,,,,,190,3,2025-03-05_11h04.32.658,comp,2024.2.4,64.46338963096846,2025-03-05 11h04.42.134737 -0500,
83,83,0,critical,hdw,35.0,4.0,lower,133.0,57.0,70.0,70.0,57.0,133.0,3,2.08194899559021,None,,,,,0,0,0,0,0,83,83,112,360.15181517601013,,,,,,,,,,,,,,,,,,,,,,,,,,,,,,,,,,,,,,,,,,,,,,,,,,,,,,,,,,,,,,,,,,,,,,,,,,,,,,,,,133.0,57.0,70.0,70.0,57.0,133.0,4.0,4.2,-160,-10,0,-288,198,-15,360.13737297058105,360.1374113559723,360.13996744155884,360.15181517601013,360.30172896385193,360.30172896385193,360.30172896385193,360.30172896385193,360.30172896385193,360.30172896385193,360.30172896385193,362.2364366054535,3,2.08194899559021,None,,,,,,,,,,,,,,,,,,190,3,2025-03-05_11h04.32.658,comp,2024.2.4,64.46338963096846,2025-03-05 11h04.42.134737 -0500,
84,84,0,filler_square,None,None,None,None,None,None,None,None,None,None,3,1.9969902038574219,None,,,,,0,0,0,0,0,84,84,192,362.25195598602295,,,,,,,,,,,,,,,,,,,,,,,,,,,,,,,,,,,,,,,,,,,,,,,,,,,,,,,,,,,,,,,,,,,,,,,,,,,,,,,,,82.40052250139102,79.6755609399718,59.09445885988877,61.580038382795884,94.36105834829019,94.36105834829019,2.1,2.11,-167,280,0,283,174,-250,362.23742389678955,362.2374658584595,362.2401592731476,362.25195598602295,362.4021019935608,362.4021019935608,362.4021019935608,362.4021019935608,362.4021019935608,362.4021019935608,362.4021019935608,364.25305223464966,3,1.9969902038574219,None,,,,,,,,,,,,,,,,,,190,3,2025-03-05_11h04.32.658,comp,2024.2.4,64.46338963096846,2025-03-05 11h04.42.134737 -0500,
85,85,0,critical,dhw,35.0,4.0,upper,127.0,127.0,200.0,125.0,125.0,200.0,2,2.2841238975524902,None,,,,,0,0,0,0,0,85,85,53,364.2685384750366,,,,,,,,,,,,,,,,,,,,,,,,,,,,,,,,,,,,,,,,,,,,,,,,,,,,,,,,,,,,,,,,,,,,,,,,,,,,,,,,,127.0,127.0,200.0,125.0,125.0,200.0,4.0,4.1,-222,-265,0,16,258,-287,364.25380873680115,364.2538495063782,364.25590467453003,364.2685384750366,364.4186284542084,364.4186284542084,364.4186284542084,364.4186284542084,364.4186284542084,364.4186284542084,364.4186284542084,366.5698912143707,2,2.2841238975524902,None,,,,,,,,,,,,,,,,,,190,3,2025-03-05_11h04.32.658,comp,2024.2.4,64.46338963096846,2025-03-05 11h04.42.134737 -0500,
86,86,0,filler_random,None,None,None,None,None,None,None,None,None,None,2,3.032589912414551,None,,,,,0,0,0,0,0,86,86,155,366.5849630832672,,,,,,,,,,,,,,,,,,,,,,,,,,,,,,,,,,,,,,,,,,,,,,,,,,,,,,,,,,,,,,,,,,,,,,,,,,,,,,,,,120.55607490844031,94.69131954989885,106.2383043181936,140.6902157983526,71.19018723304043,119.13795512382609,1.0,1.2,-214,-7,0,-8,226,-3,366.5708055496216,366.57084560394287,366.5730414390564,366.5849630832672,366.7350561618805,366.7350561618805,366.7350561618805,366.7350561618805,366.7350561618805,366.7350561618805,366.7350561618805,369.6198046207428,2,3.032589912414551,None,,,,,,,,,,,,,,,,,,190,3,2025-03-05_11h04.32.658,comp,2024.2.4,64.46338963096846,2025-03-05 11h04.42.134737 -0500,
87,87,0,critical,wdh,35.0,2.1,upper,125.0,200.0,127.0,127.0,200.0,125.0,1,2.141233444213867,None,,,,,0,0,0,0,0,87,87,33,369.6352610588074,,,,,,,,,,,,,,,,,,,,,,,,,,,,,,,,,,,,,,,,,,,,,,,,,,,,,,,,,,,,,,,,,,,,,,,,,,,,,,,,,125.0,200.0,127.0,127.0,200.0,125.0,2.1,2.12,-260,-287,0,-287,222,283,369.6205778121948,369.62061643600464,369.6227777004242,369.6352610588074,369.7851824760437,369.7851824760437,369.7851824760437,369.7851824760437,369.7851824760437,369.7851824760437,369.7851824760437,371.7862629890442,1,2.141233444213867,None,,,,,,,,,,,,,,,,,,190,3,2025-03-05_11h04.32.658,comp,2024.2.4,64.46338963096846,2025-03-05 11h04.42.134737 -0500,
88,88,0,filler_square,None,None,None,None,None,None,None,None,None,None,3,1.951643705368042,None,,,,,0,0,0,0,0,88,88,170,371.801873922348,,,,,,,,,,,,,,,,,,,,,,,,,,,,,,,,,,,,,,,,,,,,,,,,,,,,,,,,,,,,,,,,,,,,,,,,,,,,,,,,,67.1630083767989,116.37667361841366,105.85357869939224,152.73684017554615,164.9317603858737,164.9317603858737,2.1,2.11,-231,284,0,266,255,-276,371.7872669696808,371.7873079776764,371.78984212875366,371.801873922348,371.9517147541046,371.9517147541046,371.9517147541046,371.9517147541046,371.9517147541046,371.9517147541046,371.9517147541046,373.7695713043213,3,1.951643705368042,None,,,,,,,,,,,,,,,,,,190,3,2025-03-05_11h04.32.658,comp,2024.2.4,64.46338963096846,2025-03-05 11h04.42.134737 -0500,
89,89,0,catch,None,None,None,None,None,None,None,None,None,None,2,1.2379086017608643,None,,,,,0,0,0,0,0,89,89,121,373.7850172519684,,,,,,,,,,,,,,,,,,,,,,,,,,,,,,,,,,,,,,,,,,,,,,,,,,,,,,,,,,,,,,,,,,,,,,,,,,,,,,,,,130,60,166,159,100,90,3.0,3.2,-206,-262,0,-19,220,266,373.77057552337646,373.7706153392792,373.7737693786621,373.7850172519684,373.93519616127014,373.93519616127014,373.93519616127014,373.93519616127014,373.93519616127014,373.93519616127014,373.93519616127014,375.036847114563,2,1.2379086017608643,None,,,,,,,,,,,,,,,,,,190,3,2025-03-05_11h04.32.658,comp,2024.2.4,64.46338963096846,2025-03-05 11h04.42.134737 -0500,
90,90,0,critical,hdw,35.0,2.1,lower,133.0,57.0,70.0,70.0,57.0,133.0,3,2.997468948364258,None,,,,,0,0,0,0,0,90,90,20,375.0515239238739,,,,,,,,,,,,,,,,,,,,,,,,,,,,,,,,,,,,,,,,,,,,,,,,,,,,,,,,,,,,,,,,,,,,,,,,,,,,,,,,,133.0,57.0,70.0,70.0,57.0,133.0,2.1,2.12,-160,-288,0,-290,198,270,375.0376281738281,375.03768157958984,375.03983974456787,375.0515239238739,375.2016956806183,375.2016956806183,375.2016956806183,375.2016956806183,375.2016956806183,375.2016956806183,375.2016956806183,378.0528383255005,3,2.997468948364258,None,,,,,,,,,,,,,,,,,,190,3,2025-03-05_11h04.32.658,comp,2024.2.4,64.46338963096846,2025-03-05 11h04.42.134737 -0500,
91,91,0,critical,wdh,35.0,3.0,upper,125.0,200.0,127.0,127.0,200.0,125.0,1,3.691377878189087,None,,,,,0,0,0,0,0,91,91,75,378.06868505477905,,,,,,,,,,,,,,,,,,,,,,,,,,,,,,,,,,,,,,,,,,,,,,,,,,,,,,,,,,,,,,,,,,,,,,,,,,,,,,,,,125.0,200.0,127.0,127.0,200.0,125.0,3.0,3.1,-260,268,0,-10,222,-287,378.0536301136017,378.0536835193634,378.05581855773926,378.06868505477905,378.218533039093,378.218533039093,378.218533039093,378.218533039093,378.218533039093,378.218533039093,378.218533039093,381.76972222328186,1,3.691377878189087,None,,,,,,,,,,,,,,,,,,190,3,2025-03-05_11h04.32.658,comp,2024.2.4,64.46338963096846,2025-03-05 11h04.42.134737 -0500,
92,92,0,filler_random,None,None,None,None,None,None,None,None,None,None,2,3.6377899646759033,None,,,,,0,0,0,0,0,92,92,137,381.78513836860657,,,,,,,,,,,,,,,,,,,,,,,,,,,,,,,,,,,,,,,,,,,,,,,,,,,,,,,,,,,,,,,,,,,,,,,,,,,,,,,,,175.34533123017968,96.58566264771693,156.91464069859143,103.02986961888564,89.09223418258651,58.73100486278199,4.0,4.2,-196,3,0,-272,177,18,381.77061128616333,381.77066254615784,381.77286529541016,381.78513836860657,381.9351119995117,381.9351119995117,381.9351119995117,381.9351119995117,381.9351119995117,381.9351119995117,381.9351119995117,385.4361560344696,2,3.6377899646759033,None,,,,,,,,,,,,,,,,,,190,3,2025-03-05_11h04.32.658,comp,2024.2.4,64.46338963096846,2025-03-05 11h04.42.134737 -0500,
93,93,0,critical,hwd,35.0,2.1,lower,133.0,57.0,57.0,133.0,70.0,70.0,2,2.7170233726501465,None,,,,,0,0,0,0,0,93,93,40,385.45144605636597,,,,,,,,,,,,,,,,,,,,,,,,,,,,,,,,,,,,,,,,,,,,,,,,,,,,,,,,,,,,,,,,,,,,,,,,,,,,,,,,,133.0,57.0,57.0,133.0,70.0,70.0,2.1,2.11,-191,282,0,280,198,-285,385.4369399547577,385.4369773864746,385.4395146369934,385.45144605636597,385.6016335487366,385.6016335487366,385.6016335487366,385.6016335487366,385.6016335487366,385.6016335487366,385.6016335487366,388.16969418525696,2,2.7170233726501465,None,,,,,,,,,,,,,,,,,,190,3,2025-03-05_11h04.32.658,comp,2024.2.4,64.46338963096846,2025-03-05 11h04.42.134737 -0500,
94,94,0,filler_random,None,None,None,None,None,None,None,None,None,None,1,4.48639440536499,None,,,,,0,0,0,0,0,94,94,169,388.185076713562,,,,,,,,,,,,,,,,,,,,,,,,,,,,,,,,,,,,,,,,,,,,,,,,,,,,,,,,,,,,,,,,,,,,,,,,,,,,,,,,,121.12860281670993,151.8947970729604,158.95015196037437,83.3995224276257,128.92722377728143,145.06718079656108,3.0,3.2,-214,-259,0,-8,210,282,388.1705756187439,388.17061614990234,388.17291283607483,388.185076713562,388.3349094390869,388.3349094390869,388.3349094390869,388.3349094390869,388.3349094390869,388.3349094390869,388.3349094390869,392.68627095222473,1,4.48639440536499,None,,,,,,,,,,,,,,,,,,190,3,2025-03-05_11h04.32.658,comp,2024.2.4,64.46338963096846,2025-03-05 11h04.42.134737 -0500,
95,95,0,critical,hdw,35.0,4.0,upper,200.0,125.0,127.0,127.0,125.0,200.0,3,3.738020658493042,None,,,,,0,0,0,0,0,95,95,113,392.70140266418457,,,,,,,,,,,,,,,,,,,,,,,,,,,,,,,,,,,,,,,,,,,,,,,,,,,,,,,,,,,,,,,,,,,,,,,,,,,,,,,,,200.0,125.0,127.0,127.0,125.0,200.0,4.0,4.1,-222,-267,0,-14,260,-282,392.6871089935303,392.68714928627014,392.6897611618042,392.70140266418457,392.8518452644348,392.8518452644348,392.8518452644348,392.8518452644348,392.8518452644348,392.8518452644348,392.8518452644348,396.45289301872253,3,3.738020658493042,None,,,,,,,,,,,,,,,,,,190,3,2025-03-05_11h04.32.658,comp,2024.2.4,64.46338963096846,2025-03-05 11h04.42.134737 -0500,
96,96,0,filler_random,None,None,None,None,None,None,None,None,None,None,3,2.3493947982788086,None,,,,,0,0,0,0,0,96,96,162,396.46809482574463,,,,,,,,,,,,,,,,,,,,,,,,,,,,,,,,,,,,,,,,,,,,,,,,,,,,,,,,,,,,,,,,,,,,,,,,,,,,,,,,,99.8968638884375,141.37714430417947,90.18822082813746,146.9103514151373,115.61496735808512,148.91746634519083,4.0,4.1,-240,-257,0,19,244,-279,396.4538071155548,396.4538469314575,396.45598554611206,396.46809482574463,396.61835646629333,396.61835646629333,396.61835646629333,396.61835646629333,396.61835646629333,396.61835646629333,396.61835646629333,398.83596897125244,3,2.3493947982788086,None,,,,,,,,,,,,,,,,,,190,3,2025-03-05_11h04.32.658,comp,2024.2.4,64.46338963096846,2025-03-05 11h04.42.134737 -0500,
97,97,0,critical,hwd,20.0,3.0,upper,200.0,125.0,125.0,200.0,141.0,141.0,2,1.8200337886810303,None,,,,,0,0,0,0,0,97,97,105,398.8513879776001,,,,,,,,,,,,,,,,,,,,,,,,,,,,,,,,,,,,,,,,,,,,,,,,,,,,,,,,,,,,,,,,,,,,,,,,,,,,,,,,,200.0,125.0,125.0,200.0,141.0,141.0,3.0,3.2,-258,-269,0,3,266,282,398.83677768707275,398.83681774139404,398.8392245769501,398.8513879776001,399.00173711776733,399.00173711776733,399.00173711776733,399.00173711776733,399.00173711776733,399.00173711776733,399.00173711776733,400.68621587753296,2,1.8200337886810303,None,,,,,,,,,,,,,,,,,,190,3,2025-03-05_11h04.32.658,comp,2024.2.4,64.46338963096846,2025-03-05 11h04.42.134737 -0500,
98,98,0,critical,dhw,20.0,2.1,upper,141.0,141.0,200.0,125.0,125.0,200.0,2,1.2263567447662354,None,,,,,0,0,0,0,0,98,98,27,400.7014651298523,,,,,,,,,,,,,,,,,,,,,,,,,,,,,,,,,,,,,,,,,,,,,,,,,,,,,,,,,,,,,,,,,,,,,,,,,,,,,,,,,141.0,141.0,200.0,125.0,125.0,200.0,2.1,2.11,-229,256,0,267,258,-272,400.68698716163635,400.6870243549347,400.6894347667694,400.7014651298523,400.85176610946655,400.85176610946655,400.85176610946655,400.85176610946655,400.85176610946655,400.85176610946655,400.85176610946655,401.9363467693329,2,1.2263567447662354,None,,,,,,,,,,,,,,,,,,190,3,2025-03-05_11h04.32.658,comp,2024.2.4,64.46338963096846,2025-03-05 11h04.42.134737 -0500,
99,99,0,critical,dhw,20.0,1.0,lower,78.0,78.0,133.0,57.0,57.0,133.0,3,2.450014114379883,None,,,,,0,0,0,0,0,99,99,54,401.9517161846161,,,,,,,,,,,,,,,,,,,,,,,,,,,,,,,,,,,,,,,,,,,,,,,,,,,,,,,,,,,,,,,,,,,,,,,,,,,,,,,,,78.0,78.0,133.0,57.0,57.0,133.0,1.0,1.2,-164,-12,0,1,191,-4,401.9371190071106,401.9371585845947,401.93972301483154,401.9517161846161,402.1015338897705,402.1015338897705,402.1015338897705,402.1015338897705,402.1015338897705,402.1015338897705,402.1015338897705,404.4029760360718,3,2.450014114379883,None,,,,,,,,,,,,,,,,,,190,3,2025-03-05_11h04.32.658,comp,2024.2.4,64.46338963096846,2025-03-05 11h04.42.134737 -0500,
100,100,0,filler_random,None,None,None,None,None,None,None,None,None,None,3,1.0614116191864014,None,,,,,0,0,0,0,0,100,100,165,404.4182643890381,,,,,,,,,,,,,,,,,,,,,,,,,,,,,,,,,,,,,,,,,,,,,,,,,,,,,,,,,,,,,,,,,,,,,,,,,,,,,,,,,151.77384291928126,108.1350264224378,150.29033806801678,91.19941360517106,186.98438293546707,194.3680186152819,3.0,3.2,-196,-264,0,20,239,254,404.40384817123413,404.4038872718811,404.40595030784607,404.4182643890381,404.5683505535126,404.5683505535126,404.5683505535126,404.5683505535126,404.5683505535126,404.5683505535126,404.5683505535126,405.4862570762634,3,1.0614116191864014,None,,,,,,,,,,,,,,,,,,190,3,2025-03-05_11h04.32.658,comp,2024.2.4,64.46338963096846,2025-03-05 11h04.42.134737 -0500,
101,101,0,filler_random,None,None,None,None,None,None,None,None,None,None,2,5.433618545532227,None,,,,,0,0,0,0,0,101,101,148,405.5016944408417,,,,,,,,,,,,,,,,,,,,,,,,,,,,,,,,,,,,,,,,,,,,,,,,,,,,,,,,,,,,,,,,,,,,,,,,,,,,,,,,,127.77167895858317,106.32622164631226,127.34624450131906,102.80673649864977,80.08254358103618,156.54985185915825,2.2,2.22,-201,284,0,-281,226,-280,405.48721575737,405.48725628852844,405.48979473114014,405.5016944408417,405.6515381336212,405.6515381336212,405.6515381336212,405.6515381336212,405.6515381336212,405.6515381336212,405.6515381336212,410.95276165008545,2,5.433618545532227,None,,,,,,,,,,,,,,,,,,190,3,2025-03-05_11h04.32.658,comp,2024.2.4,64.46338963096846,2025-03-05 11h04.42.134737 -0500,
102,102,0,critical,wdh,20.0,4.0,lower,57.0,133.0,78.0,78.0,133.0,57.0,3,8.285565614700317,None,,,,,0,0,0,0,0,102,102,82,410.96928548812866,,,,,,,,,,,,,,,,,,,,,,,,,,,,,,,,,,,,,,,,,,,,,,,,,,,,,,,,,,,,,,,,,,,,,,,,,,,,,,,,,57.0,133.0,78.0,78.0,133.0,57.0,4.0,4.1,-202,-281,0,4,164,-257,410.95358753204346,410.9536316394806,410.9557304382324,410.96928548812866,411.1180808544159,411.1180808544159,411.1180808544159,411.1180808544159,411.1180808544159,411.1180808544159,411.1180808544159,419.2692425251007,3,8.285565614700317,None,,,,,,,,,,,,,,,,,,190,3,2025-03-05_11h04.32.658,comp,2024.2.4,64.46338963096846,2025-03-05 11h04.42.134737 -0500,
103,103,0,filler_random,None,None,None,None,None,None,None,None,None,None,3,1.1005628108978271,None,,,,,0,0,0,0,0,103,103,149,419.28460717201233,,,,,,,,,,,,,,,,,,,,,,,,,,,,,,,,,,,,,,,,,,,,,,,,,,,,,,,,,,,,,,,,,,,,,,,,,,,,,,,,,110.18574104862388,122.40435768705967,195.0143209526428,154.40897817690126,189.87294143926707,199.64965729356817,1.0,1.1,-714,251,-480,271,-207,264,419.27015352249146,419.2701926231384,419.27270460128784,419.28460717201233,419.43500900268555,419.43500900268555,419.43500900268555,419.43500900268555,419.43500900268555,419.43500900268555,419.43500900268555,420.40284490585327,3,1.1005628108978271,None,,,,,,,,,,,,,,,,,,190,3,2025-03-05_11h04.32.658,comp,2024.2.4,64.46338963096846,2025-03-05 11h04.42.134737 -0500,
104,104,0,critical,wdh,35.0,2.1,lower,57.0,133.0,70.0,70.0,133.0,57.0,3,2.2689743041992188,None,,,,,0,0,0,0,0,104,104,32,420.4180338382721,,,,,,,,,,,,,,,,,,,,,,,,,,,,,,,,,,,,,,,,,,,,,,,,,,,,,,,,,,,,,,,,,,,,,,,,,,,,,,,,,57.0,133.0,70.0,70.0,133.0,57.0,2.1,2.11,-198,269,0,272,160,-254,420.40361166000366,420.4036600589752,420.4057183265686,420.4180338382721,420.56798481941223,420.56798481941223,420.56798481941223,420.56798481941223,420.56798481941223,420.56798481941223,420.56798481941223,422.7024402618408,3,2.2689743041992188,None,,,,,,,,,,,,,,,,,,190,3,2025-03-05_11h04.32.658,comp,2024.2.4,64.46338963096846,2025-03-05 11h04.42.134737 -0500,
105,105,0,filler_square,None,None,None,None,None,None,None,None,None,None,1,1.331554651260376,None,,,,,0,0,0,0,0,105,105,197,422.71784687042236,,,,,,,,,,,,,,,,,,,,,,,,,,,,,,,,,,,,,,,,,,,,,,,,,,,,,,,,,,,,,,,,,,,,,,,,,,,,,,,,,149.1442339720224,149.1442339720224,111.1405092493709,60.55443001315034,130.04890010348475,127.93023076356386,1.0,1.3,279,-254,480,-283,670,-253,422.70341205596924,422.7034523487091,422.70605516433716,422.71784687042236,422.86807918548584,422.86807918548584,422.86807918548584,422.86807918548584,422.86807918548584,422.86807918548584,422.86807918548584,424.05379009246826,1,1.331554651260376,None,,,,,,,,,,,,,,,,,,190,3,2025-03-05_11h04.32.658,comp,2024.2.4,64.46338963096846,2025-03-05 11h04.42.134737 -0500,
106,106,0,critical,whd,20.0,4.0,upper,125.0,200.0,200.0,125.0,141.0,141.0,1,4.2274017333984375,None,,,,,0,0,0,0,0,106,106,95,424.06813955307007,,,,,,,,,,,,,,,,,,,,,,,,,,,,,,,,,,,,,,,,,,,,,,,,,,,,,,,,,,,,,,,,,,,,,,,,,,,,,,,,,125.0,200.0,200.0,125.0,141.0,141.0,4.0,4.1,-258,-264,0,-3,229,-285,424.0545563697815,424.0545976161957,424.05674052238464,424.06813955307007,424.2182307243347,424.2182307243347,424.2182307243347,424.2182307243347,424.2182307243347,424.2182307243347,424.2182307243347,428.30267357826233,1,4.2274017333984375,None,,,,,,,,,,,,,,,,,,190,3,2025-03-05_11h04.32.658,comp,2024.2.4,64.46338963096846,2025-03-05 11h04.42.134737 -0500,
107,107,0,filler_square,None,None,None,None,None,None,None,None,None,None,2,2.65010142326355,None,,,,,0,0,0,0,0,107,107,209,428.3181149959564,,,,,,,,,,,,,,,,,,,,,,,,,,,,,,,,,,,,,,,,,,,,,,,,,,,,,,,,,,,,,,,,,,,,,,,,,,,,,,,,,112.66713138292289,95.31026868872999,114.82140861023083,114.82140861023083,111.15473729995247,62.44065338305235,2.2,2.22,-201,253,0,-267,185,-283,428.30360317230225,428.3036427497864,428.30582642555237,428.3181149959564,428.4681921005249,428.4681921005249,428.4681921005249,428.4681921005249,428.4681921005249,428.4681921005249,428.4681921005249,430.9857978820801,2,2.65010142326355,None,,,,,,,,,,,,,,,,,,190,3,2025-03-05_11h04.32.658,comp,2024.2.4,64.46338963096846,2025-03-05 11h04.42.134737 -0500,
108,108,0,critical,dwh,20.0,2.1,lower,78.0,78.0,57.0,133.0,133.0,57.0,2,4.3340489864349365,None,,,,,0,0,0,0,0,108,108,6,431.0011658668518,,,,,,,,,,,,,,,,,,,,,,,,,,,,,,,,,,,,,,,,,,,,,,,,,,,,,,,,,,,,,,,,,,,,,,,,,,,,,,,,,78.0,78.0,57.0,133.0,133.0,57.0,2.1,2.11,-202,288,0,281,191,-271,430.98658299446106,430.9866213798523,430.9889922142029,431.0011658668518,431.1513640880585,431.1513640880585,431.1513640880585,431.1513640880585,431.1513640880585,431.1513640880585,431.1513640880585,435.3527660369873,2,4.3340489864349365,None,,,,,,,,,,,,,,,,,,190,3,2025-03-05_11h04.32.658,comp,2024.2.4,64.46338963096846,2025-03-05 11h04.42.134737 -0500,
109,109,0,critical,dhw,35.0,3.0,upper,127.0,127.0,200.0,125.0,125.0,200.0,3,4.159639120101929,None,,,,,0,0,0,0,0,109,109,51,435.3678390979767,,,,,,,,,,,,,,,,,,,,,,,,,,,,,,,,,,,,,,,,,,,,,,,,,,,,,,,,,,,,,,,,,,,,,,,,,,,,,,,,,127.0,127.0,200.0,125.0,125.0,200.0,3.0,3.2,-222,-262,0,20,258,278,435.35358452796936,435.35362482070923,435.3557825088501,435.3678390979767,435.51806235313416,435.51806235313416,435.51806235313416,435.51806235313416,435.51806235313416,435.51806235313416,435.51806235313416,439.5358040332794,3,4.159639120101929,None,,,,,,,,,,,,,,,,,,190,3,2025-03-05_11h04.32.658,comp,2024.2.4,64.46338963096846,2025-03-05 11h04.42.134737 -0500,
110,110,0,critical,dwh,35.0,3.0,lower,70.0,70.0,57.0,133.0,133.0,57.0,2,1.625035285949707,None,,,,,0,0,0,0,0,110,110,62,439.55135917663574,,,,,,,,,,,,,,,,,,,,,,,,,,,,,,,,,,,,,,,,,,,,,,,,,,,,,,,,,,,,,,,,,,,,,,,,,,,,,,,,,70.0,70.0,57.0,133.0,133.0,57.0,3.0,3.1,-198,263,0,-17,191,-273,439.53658509254456,439.5366244316101,439.53869819641113,439.55135917663574,439.7012252807617,439.7012252807617,439.7012252807617,439.7012252807617,439.7012252807617,439.7012252807617,439.7012252807617,441.18561363220215,2,1.625035285949707,None,,,,,,,,,,,,,,,,,,190,3,2025-03-05_11h04.32.658,comp,2024.2.4,64.46338963096846,2025-03-05 11h04.42.134737 -0500,
111,111,0,critical,dhw,20.0,2.1,lower,78.0,78.0,133.0,57.0,57.0,133.0,3,1.3337757587432861,None,,,,,0,0,0,0,0,111,111,2,441.20128655433655,,,,,,,,,,,,,,,,,,,,,,,,,,,,,,,,,,,,,,,,,,,,,,,,,,,,,,,,,,,,,,,,,,,,,,,,,,,,,,,,,78.0,78.0,133.0,57.0,57.0,133.0,2.1,2.12,-164,-253,0,-274,191,259,441.18644881248474,441.18648958206177,441.1886329650879,441.20128655433655,441.35125064849854,441.35125064849854,441.35125064849854,441.35125064849854,441.35125064849854,441.35125064849854,441.35125064849854,442.5522983074188,3,1.3337757587432861,None,,,,,,,,,,,,,,,,,,190,3,2025-03-05_11h04.32.658,comp,2024.2.4,64.46338963096846,2025-03-05 11h04.42.134737 -0500,
112,112,0,critical,dwh,35.0,3.0,upper,127.0,127.0,125.0,200.0,200.0,125.0,3,4.238714933395386,None,,,,,0,0,0,0,0,112,112,63,442.5678331851959,,,,,,,,,,,,,,,,,,,,,,,,,,,,,,,,,,,,,,,,,,,,,,,,,,,,,,,,,,,,,,,,,,,,,,,,,,,,,,,,,127.0,127.0,125.0,200.0,200.0,125.0,3.0,3.2,-260,-284,0,7,258,276,442.5531029701233,442.5531425476074,442.55566477775574,442.5678331851959,442.7180497646332,442.7180497646332,442.7180497646332,442.7180497646332,442.7180497646332,442.7180497646332,442.7180497646332,446.81925439834595,3,4.238714933395386,None,,,,,,,,,,,,,,,,,,190,3,2025-03-05_11h04.32.658,comp,2024.2.4,64.46338963096846,2025-03-05 11h04.42.134737 -0500,
113,113,0,filler_square,None,None,None,None,None,None,None,None,None,None,1,1.517547845840454,None,,,,,0,0,0,0,0,113,113,196,446.83433771133423,,,,,,,,,,,,,,,,,,,,,,,,,,,,,,,,,,,,,,,,,,,,,,,,,,,,,,,,,,,,,,,,,,,,,,,,,,,,,,,,,149.2626729105238,149.2626729105238,100.7456007273272,139.90496521951547,147.10342919040846,104.14767905963383,2.1,2.12,-241,-273,0,-258,218,279,446.82023525238037,446.8202760219574,446.82276225090027,446.83433771133423,446.9846782684326,446.9846782684326,446.9846782684326,446.9846782684326,446.9846782684326,446.9846782684326,446.9846782684326,448.3689730167389,1,1.517547845840454,None,,,,,,,,,,,,,,,,,,190,3,2025-03-05_11h04.32.658,comp,2024.2.4,64.46338963096846,2025-03-05 11h04.42.134737 -0500,
114,114,0,critical,dwh,35.0,4.0,lower,70.0,70.0,57.0,133.0,133.0,57.0,3,3.0486981868743896,None,,,,,0,0,0,0,0,114,114,64,448.3843557834625,,,,,,,,,,,,,,,,,,,,,,,,,,,,,,,,,,,,,,,,,,,,,,,,,,,,,,,,,,,,,,,,,,,,,,,,,,,,,,,,,70.0,70.0,57.0,133.0,133.0,57.0,4.0,4.2,-198,7,0,-277,191,-14,448.36976385116577,448.3698034286499,448.3722288608551,448.3843557834625,448.5344319343567,448.5344319343567,448.5344319343567,448.5344319343567,448.5344319343567,448.5344319343567,448.5344319343567,451.4358186721802,3,3.0486981868743896,None,,,,,,,,,,,,,,,,,,190,3,2025-03-05_11h04.32.658,comp,2024.2.4,64.46338963096846,2025-03-05 11h04.42.134737 -0500,
115,115,0,filler_square,None,None,None,None,None,None,None,None,None,None,3,0.7877180576324463,None,,,,,0,0,0,0,0,115,115,179,451.4513478279114,,,,,,,,,,,,,,,,,,,,,,,,,,,,,,,,,,,,,,,,,,,,,,,,,,,,,,,,,,,,,,,,,,,,,,,,,,,,,,,,,108.3605726163241,107.00293259985374,98.64365045839415,90.94679974331531,185.51586715637742,185.51586715637742,1.0,1.1,-675,254,-480,277,-246,287,451.4367733001709,451.4368140697479,451.43892312049866,451.4513478279114,451.6013379096985,451.6013379096985,451.6013379096985,451.6013379096985,451.6013379096985,451.6013379096985,451.6013379096985,452.25252079963684,3,0.7877180576324463,None,,,,,,,,,,,,,,,,,,190,3,2025-03-05_11h04.32.658,comp,2024.2.4,64.46338963096846,2025-03-05 11h04.42.134737 -0500,
116,116,0,critical,wdh,20.0,2.1,lower,57.0,133.0,78.0,78.0,133.0,57.0,1,3.043599843978882,None,,,,,0,0,0,0,0,116,116,34,452.2677185535431,,,,,,,,,,,,,,,,,,,,,,,,,,,,,,,,,,,,,,,,,,,,,,,,,,,,,,,,,,,,,,,,,,,,,,,,,,,,,,,,,57.0,133.0,78.0,78.0,133.0,57.0,2.1,2.12,-202,-256,0,-285,164,283,452.25343132019043,452.2534716129303,452.2560148239136,452.2677185535431,452.41777896881104,452.41777896881104,452.41777896881104,452.41777896881104,452.41777896881104,452.41777896881104,452.41777896881104,455.31967782974243,1,3.043599843978882,None,,,,,,,,,,,,,,,,,,190,3,2025-03-05_11h04.32.658,comp,2024.2.4,64.46338963096846,2025-03-05 11h04.42.134737 -0500,
117,117,0,critical,hwd,35.0,3.0,upper,200.0,125.0,125.0,200.0,127.0,127.0,2,3.001368522644043,None,,,,,0,0,0,0,0,117,117,99,455.3353409767151,,,,,,,,,,,,,,,,,,,,,,,,,,,,,,,,,,,,,,,,,,,,,,,,,,,,,,,,,,,,,,,,,,,,,,,,,,,,,,,,,200.0,125.0,125.0,200.0,127.0,127.0,3.0,3.1,-258,271,0,-6,260,-257,455.3207137584686,455.3207538127899,455.32269954681396,455.3353409767151,455.4852659702301,455.4852659702301,455.4852659702301,455.4852659702301,455.4852659702301,455.4852659702301,455.4852659702301,458.3530352115631,2,3.001368522644043,None,,,,,,,,,,,,,,,,,,190,3,2025-03-05_11h04.32.658,comp,2024.2.4,64.46338963096846,2025-03-05 11h04.42.134737 -0500,
118,118,0,critical,whd,20.0,4.0,lower,57.0,133.0,133.0,57.0,78.0,78.0,1,2.8168280124664307,None,,,,,0,0,0,0,0,118,118,94,458.36785650253296,,,,,,,,,,,,,,,,,,,,,,,,,,,,,,,,,,,,,,,,,,,,,,,,,,,,,,,,,,,,,,,,,,,,,,,,,,,,,,,,,57.0,133.0,133.0,57.0,78.0,78.0,4.0,4.2,-191,6,0,-263,164,-12,458.3538727760315,458.35392665863037,458.35641646385193,458.36785650253296,458.5177273750305,458.5177273750305,458.5177273750305,458.5177273750305,458.5177273750305,458.5177273750305,458.5177273750305,461.2023105621338,1,2.8168280124664307,None,,,,,,,,,,,,,,,,,,190,3,2025-03-05_11h04.32.658,comp,2024.2.4,64.46338963096846,2025-03-05 11h04.42.134737 -0500,
119,119,0,catch,None,None,None,None,None,None,None,None,None,None,3,0.8777830600738525,None,,,,,0,0,0,0,0,119,119,124,461.2176465988159,,,,,,,,,,,,,,,,,,,,,,,,,,,,,,,,,,,,,,,,,,,,,,,,,,,,,,,,,,,,,,,,,,,,,,,,,,,,,,,,,122,68,68,122,132,193,1.0,1.2,-191,-9,0,-7,254,-19,461.2033450603485,461.2033853530884,461.20594692230225,461.2176465988159,461.3678002357483,461.3678002357483,461.3678002357483,461.3678002357483,461.3678002357483,461.3678002357483,461.3678002357483,462.10223507881165,3,0.8777830600738525,None,,,,,,,,,,,,,,,,,,190,3,2025-03-05_11h04.32.658,comp,2024.2.4,64.46338963096846,2025-03-05 11h04.42.134737 -0500,
120,120,0,critical,dhw,20.0,1.0,upper,141.0,141.0,200.0,125.0,125.0,200.0,2,3.0833652019500732,None,,,,,0,0,0,0,0,120,120,55,462.11781787872314,,,,,,,,,,,,,,,,,,,,,,,,,,,,,,,,,,,,,,,,,,,,,,,,,,,,,,,,,,,,,,,,,,,,,,,,,,,,,,,,,141.0,141.0,200.0,125.0,125.0,200.0,1.0,1.3,251,-287,480,-272,738,-284,462.1030011177063,462.1030385494232,462.1054322719574,462.11781787872314,462.2679228782654,462.2679228782654,462.2679228782654,462.2679228782654,462.2679228782654,462.2679228782654,462.2679228782654,465.2028064727783,2,3.0833652019500732,None,,,,,,,,,,,,,,,,,,190,3,2025-03-05_11h04.32.658,comp,2024.2.4,64.46338963096846,2025-03-05 11h04.42.134737 -0500,
121,121,0,filler_random,None,None,None,None,None,None,None,None,None,None,1,1.1583003997802734,None,,,,,0,0,0,0,0,121,121,153,465.2179665565491,,,,,,,,,,,,,,,,,,,,,,,,,,,,,,,,,,,,,,,,,,,,,,,,,,,,,,,,,,,,,,,,,,,,,,,,,,,,,,,,,177.37237665572096,163.1113712962454,71.82521959736175,181.57283058168434,122.98462231696246,159.90541406491184,4.0,4.2,-268,-5,0,-260,267,-14,465.2036998271942,465.203741312027,465.2059187889099,465.2179665565491,465.3679494857788,465.3679494857788,465.3679494857788,465.3679494857788,465.3679494857788,465.3679494857788,465.3679494857788,466.38573002815247,1,1.1583003997802734,None,,,,,,,,,,,,,,,,,,190,3,2025-03-05_11h04.32.658,comp,2024.2.4,64.46338963096846,2025-03-05 11h04.42.134737 -0500,
122,122,0,critical,wdh,35.0,1.0,upper,125.0,200.0,127.0,127.0,200.0,125.0,1,1.3889858722686768,None,,,,,0,0,0,0,0,122,122,73,466.4014341831207,,,,,,,,,,,,,,,,,,,,,,,,,,,,,,,,,,,,,,,,,,,,,,,,,,,,,,,,,,,,,,,,,,,,,,,,,,,,,,,,,125.0,200.0,127.0,127.0,200.0,125.0,1.0,1.3,220,-258,480,-285,702,-281,466.38654041290283,466.38657999038696,466.38870763778687,466.4014341831207,466.5512993335724,466.5512993335724,466.5512993335724,466.5512993335724,466.5512993335724,466.5512993335724,466.5512993335724,467.8025920391083,1,1.3889858722686768,None,,,,,,,,,,,,,,,,,,190,3,2025-03-05_11h04.32.658,comp,2024.2.4,64.46338963096846,2025-03-05 11h04.42.134737 -0500,
123,123,0,filler_square,None,None,None,None,None,None,None,None,None,None,1,2.1097278594970703,None,,,,,0,0,0,0,0,123,123,181,467.81772661209106,,,,,,,,,,,,,,,,,,,,,,,,,,,,,,,,,,,,,,,,,,,,,,,,,,,,,,,,,,,,,,,,,,,,,,,,,,,,,,,,,82.50069157227668,82.50069157227668,58.9242258751421,66.9413561155312,77.4824545608185,75.92115924655695,3.0,3.2,-171,-279,0,-16,167,259,467.8035452365875,467.80358505249023,467.8058638572693,467.81772661209106,467.96771478652954,467.96771478652954,467.96771478652954,467.96771478652954,467.96771478652954,467.96771478652954,467.96771478652954,469.9355618953705,1,2.1097278594970703,None,,,,,,,,,,,,,,,,,,190,3,2025-03-05_11h04.32.658,comp,2024.2.4,64.46338963096846,2025-03-05 11h04.42.134737 -0500,
124,124,0,critical,hwd,35.0,2.1,lower,133.0,57.0,57.0,133.0,70.0,70.0,2,2.2079861164093018,None,,,,,0,0,0,0,0,124,124,16,469.9513306617737,,,,,,,,,,,,,,,,,,,,,,,,,,,,,,,,,,,,,,,,,,,,,,,,,,,,,,,,,,,,,,,,,,,,,,,,,,,,,,,,,133.0,57.0,57.0,133.0,70.0,70.0,2.1,2.11,-191,265,0,273,198,-267,469.9365212917328,469.93656277656555,469.9388017654419,469.9513306617737,470.1009259223938,470.1009259223938,470.1009259223938,470.1009259223938,470.1009259223938,470.1009259223938,470.1009259223938,472.16886711120605,2,2.2079861164093018,None,,,,,,,,,,,,,,,,,,190,3,2025-03-05_11h04.32.658,comp,2024.2.4,64.46338963096846,2025-03-05 11h04.42.134737 -0500,
125,125,0,critical,dhw,20.0,3.0,lower,78.0,78.0,133.0,57.0,57.0,133.0,3,2.3179967403411865,None,,,,,0,0,0,0,0,125,125,56,472.1844918727875,,,,,,,,,,,,,,,,,,,,,,,,,,,,,,,,,,,,,,,,,,,,,,,,,,,,,,,,,,,,,,,,,,,,,,,,,,,,,,,,,78.0,78.0,133.0,57.0,57.0,133.0,3.0,3.1,-164,253,0,18,191,-289,472.1696209907532,472.16967368125916,472.17201375961304,472.1844918727875,472.33435010910034,472.33435010910034,472.33435010910034,472.33435010910034,472.33435010910034,472.33435010910034,472.33435010910034,474.5187680721283,3,2.3179967403411865,None,,,,,,,,,,,,,,,,,,190,3,2025-03-05_11h04.32.658,comp,2024.2.4,64.46338963096846,2025-03-05 11h04.42.134737 -0500,
126,126,0,filler_square,None,None,None,None,None,None,None,None,None,None,3,1.8989269733428955,None,,,,,0,0,0,0,0,126,126,200,474.5342001914978,,,,,,,,,,,,,,,,,,,,,,,,,,,,,,,,,,,,,,,,,,,,,,,,,,,,,,,,,,,,,,,,,,,,,,,,,,,,,,,,,64.28552501526698,70.81093713454017,60.82496327069262,58.98905471828967,71.67969034178103,71.67969034178103,2.1,2.11,-161,270,0,266,161,-287,474.51969027519226,474.5197277069092,474.5217945575714,474.5342001914978,474.68422651290894,474.68422651290894,474.68422651290894,474.68422651290894,474.68422651290894,474.68422651290894,474.68422651290894,476.43574476242065,3,1.8989269733428955,None,,,,,,,,,,,,,,,,,,190,3,2025-03-05_11h04.32.658,comp,2024.2.4,64.46338963096846,2025-03-05 11h04.42.134737 -0500,
127,127,0,critical,dwh,35.0,2.1,upper,127.0,127.0,125.0,200.0,200.0,125.0,2,4.5657618045806885,None,,,,,0,0,0,0,0,127,127,29,476.45121908187866,,,,,,,,,,,,,,,,,,,,,,,,,,,,,,,,,,,,,,,,,,,,,,,,,,,,,,,,,,,,,,,,,,,,,,,,,,,,,,,,,127.0,127.0,125.0,200.0,200.0,125.0,2.1,2.12,-260,-280,0,-278,258,288,476.43654775619507,476.43658804893494,476.43953704833984,476.45121908187866,476.601224899292,476.601224899292,476.601224899292,476.601224899292,476.601224899292,476.601224899292,476.601224899292,481.01904916763306,2,4.5657618045806885,None,,,,,,,,,,,,,,,,,,190,3,2025-03-05_11h04.32.658,comp,2024.2.4,64.46338963096846,2025-03-05 11h04.42.134737 -0500,
128,128,0,filler_random,None,None,None,None,None,None,None,None,None,None,1,1.8839080333709717,None,,,,,0,0,0,0,0,128,128,143,481.03451919555664,,,,,,,,,,,,,,,,,,,,,,,,,,,,,,,,,,,,,,,,,,,,,,,,,,,,,,,,,,,,,,,,,,,,,,,,,,,,,,,,,138.12055018441487,177.85667978006444,97.18004288278385,126.10550791823701,113.3105218221948,150.54476417211686,1.0,1.3,232,-281,480,-261,714,-255,481.01992654800415,481.0199661254883,481.02208375930786,481.03451919555664,481.1845188140869,481.1845188140869,481.1845188140869,481.1845188140869,481.1845188140869,481.1845188140869,481.1845188140869,482.93572521209717,1,1.8839080333709717,None,,,,,,,,,,,,,,,,,,190,3,2025-03-05_11h04.32.658,comp,2024.2.4,64.46338963096846,2025-03-05 11h04.42.134737 -0500,
129,129,0,filler_square,None,None,None,None,None,None,None,None,None,None,2,1.7354516983032227,None,,,,,0,0,0,0,0,129,129,204,482.95089507102966,,,,,,,,,,,,,,,,,,,,,,,,,,,,,,,,,,,,,,,,,,,,,,,,,,,,,,,,,,,,,,,,,,,,,,,,,,,,,,,,,67.42757757765582,106.07734965445084,108.45274424016901,108.45274424016901,88.07953541545851,95.75574400271142,3.0,3.1,-203,267,0,-17,198,-256,482.93669962882996,482.9367411136627,482.9389457702637,482.95089507102966,483.1010456085205,483.1010456085205,483.1010456085205,483.1010456085205,483.1010456085205,483.1010456085205,483.1010456085205,484.70225191116333,2,1.7354516983032227,None,,,,,,,,,,,,,,,,,,190,3,2025-03-05_11h04.32.658,comp,2024.2.4,64.46338963096846,2025-03-05 11h04.42.134737 -0500,
130,130,0,critical,whd,20.0,2.1,upper,125.0,200.0,200.0,125.0,141.0,141.0,2,7.153292894363403,None,,,,,0,0,0,0,0,130,130,15,484.71755027770996,,,,,,,,,,,,,,,,,,,,,,,,,,,,,,,,,,,,,,,,,,,,,,,,,,,,,,,,,,,,,,,,,,,,,,,,,,,,,,,,,125.0,200.0,200.0,125.0,141.0,141.0,2.1,2.11,-258,276,0,278,229,-265,484.70306062698364,484.7031002044678,484.705579996109,484.71755027770996,484.8677091598511,484.8677091598511,484.8677091598511,484.8677091598511,484.8677091598511,484.8677091598511,484.8677091598511,491.885782957077,2,7.153292894363403,None,,,,,,,,,,,,,,,,,,190,3,2025-03-05_11h04.32.658,comp,2024.2.4,64.46338963096846,2025-03-05 11h04.42.134737 -0500,
131,131,0,filler_square,None,None,None,None,None,None,None,None,None,None,3,1.801295518875122,None,,,,,0,0,0,0,0,131,131,206,491.9009590148926,,,,,,,,,,,,,,,,,,,,,,,,,,,,,,,,,,,,,,,,,,,,,,,,,,,,,,,,,,,,,,,,,,,,,,,,,,,,,,,,,99.137811280951,60.091273234632034,106.50385594521819,74.48014170916346,178.99958320860412,178.99958320860412,4.0,4.2,-163,2,0,-280,223,14,491.88674783706665,491.88678884506226,491.88893032073975,491.9009590148926,492.0509159564972,492.0509159564972,492.0509159564972,492.0509159564972,492.0509159564972,492.0509159564972,492.0509159564972,493.7186002731323,3,1.801295518875122,None,,,,,,,,,,,,,,,,,,190,3,2025-03-05_11h04.32.658,comp,2024.2.4,64.46338963096846,2025-03-05 11h04.42.134737 -0500,
132,132,0,filler_random,None,None,None,None,None,None,None,None,None,None,2,1.0826404094696045,None,,,,,0,0,0,0,0,132,132,158,493.7341139316559,,,,,,,,,,,,,,,,,,,,,,,,,,,,,,,,,,,,,,,,,,,,,,,,,,,,,,,,,,,,,,,,,,,,,,,,,,,,,,,,,86.33131254311863,160.31548305240386,107.32602715066157,197.55953987291187,62.868213123786305,124.60213730692442,2.1,2.12,-275,-282,0,-256,257,267,493.719530582428,493.71956992149353,493.72167325019836,493.7341139316559,493.8843467235565,493.8843467235565,493.8843467235565,493.8843467235565,493.8843467235565,493.8843467235565,493.8843467235565,494.81877613067627,2,1.0826404094696045,None,,,,,,,,,,,,,,,,,,190,3,2025-03-05_11h04.32.658,comp,2024.2.4,64.46338963096846,2025-03-05 11h04.42.134737 -0500,
133,133,0,critical,wdh,20.0,4.0,upper,125.0,200.0,141.0,141.0,200.0,125.0,3,3.460716962814331,None,,,,,0,0,0,0,0,133,133,83,494.8343873023987,,,,,,,,,,,,,,,,,,,,,,,,,,,,,,,,,,,,,,,,,,,,,,,,,,,,,,,,,,,,,,,,,,,,,,,,,,,,,,,,,125.0,200.0,141.0,141.0,200.0,125.0,4.0,4.2,-266,18,0,-272,229,-19,494.8195779323578,494.8196177482605,494.822078704834,494.8343873023987,494.9845027923584,494.9845027923584,494.9845027923584,494.9845027923584,494.9845027923584,494.9845027923584,494.9845027923584,498.30217719078064,3,3.460716962814331,None,,,,,,,,,,,,,,,,,,190,3,2025-03-05_11h04.32.658,comp,2024.2.4,64.46338963096846,2025-03-05 11h04.42.134737 -0500,
134,134,0,critical,whd,20.0,3.0,upper,125.0,200.0,200.0,125.0,141.0,141.0,1,2.515374183654785,None,,,,,0,0,0,0,0,134,134,93,498.31762075424194,,,,,,,,,,,,,,,,,,,,,,,,,,,,,,,,,,,,,,,,,,,,,,,,,,,,,,,,,,,,,,,,,,,,,,,,,,,,,,,,,125.0,200.0,200.0,125.0,141.0,141.0,3.0,3.2,-258,-271,0,-2,229,283,498.3029661178589,498.30300664901733,498.3052053451538,498.31762075424194,498.46763134002686,498.46763134002686,498.46763134002686,498.46763134002686,498.46763134002686,498.46763134002686,498.46763134002686,500.83580136299133,1,2.515374183654785,None,,,,,,,,,,,,,,,,,,190,3,2025-03-05_11h04.32.658,comp,2024.2.4,64.46338963096846,2025-03-05 11h04.42.134737 -0500,
135,135,0,filler_square,None,None,None,None,None,None,None,None,None,None,3,2.933382272720337,None,,,,,0,0,0,0,0,135,135,195,500.8510539531708,,,,,,,,,,,,,,,,,,,,,,,,,,,,,,,,,,,,,,,,,,,,,,,,,,,,,,,,,,,,,,,,,,,,,,,,,,,,,,,,,130.7107451349238,110.48750557113465,133.494787511289,90.84135449314354,134.02118659010642,134.02118659010642,2.1,2.11,-197,264,0,263,208,-287,500.836754322052,500.83679366111755,500.8390944004059,500.8510539531708,501.00118947029114,501.00118947029114,501.00118947029114,501.00118947029114,501.00118947029114,501.00118947029114,501.00118947029114,503.78573274612427,3,2.933382272720337,None,,,,,,,,,,,,,,,,,,190,3,2025-03-05_11h04.32.658,comp,2024.2.4,64.46338963096846,2025-03-05 11h04.42.134737 -0500,
136,136,0,filler_square,None,None,None,None,None,None,None,None,None,None,2,3.3336923122406006,None,,,,,0,0,0,0,0,136,136,191,503.8009309768677,,,,,,,,,,,,,,,,,,,,,,,,,,,,,,,,,,,,,,,,,,,,,,,,,,,,,,,,,,,,,,,,,,,,,,,,,,,,,,,,,63.411979054527514,63.411979054527514,61.790214087303866,59.42256065855525,59.15372926979891,59.650615386710385,4.0,4.1,-157,-276,0,13,156,-258,503.78670167922974,503.7867422103882,503.78912687301636,503.8009309768677,503.9507575035095,503.9507575035095,503.9507575035095,503.9507575035095,503.9507575035095,503.9507575035095,503.9507575035095,507.15193009376526,2,3.3336923122406006,None,,,,,,,,,,,,,,,,,,190,3,2025-03-05_11h04.32.658,comp,2024.2.4,64.46338963096846,2025-03-05 11h04.42.134737 -0500,
137,137,0,catch,None,None,None,None,None,None,None,None,None,None,3,0.9507777690887451,None,,,,,0,0,0,0,0,137,137,122,507.1673891544342,,,,,,,,,,,,,,,,,,,,,,,,,,,,,,,,,,,,,,,,,,,,,,,,,,,,,,,,,,,,,,,,,,,,,,,,,,,,,,,,,86,104,70,120,128,197,3.0,3.2,-208,-266,0,12,254,253,507.15299105644226,507.15303111076355,507.1554763317108,507.1673891544342,507.3175048828125,507.3175048828125,507.3175048828125,507.3175048828125,507.3175048828125,507.3175048828125,507.3175048828125,508.13522601127625,3,0.9507777690887451,None,,,,,,,,,,,,,,,,,,190,3,2025-03-05_11h04.32.658,comp,2024.2.4,64.46338963096846,2025-03-05 11h04.42.134737 -0500,
138,138,0,filler_random,None,None,None,None,None,None,None,None,None,None,3,0.9921634197235107,None,,,,,0,0,0,0,0,138,138,146,508.1508774757385,,,,,,,,,,,,,,,,,,,,,,,,,,,,,,,,,,,,,,,,,,,,,,,,,,,,,,,,,,,,,,,,,,,,,,,,,,,,,,,,,120.73820526186097,140.38474089956048,100.09324388220315,76.54428949856552,194.71594381773656,183.96495036895806,2.1,2.12,-204,-281,0,-287,226,255,508.1361482143402,508.1361880302429,508.138774394989,508.1508774757385,508.3010604381561,508.3010604381561,508.3010604381561,508.3010604381561,508.3010604381561,508.3010604381561,508.3010604381561,509.15220308303833,3,0.9921634197235107,None,,,,,,,,,,,,,,,,,,190,3,2025-03-05_11h04.32.658,comp,2024.2.4,64.46338963096846,2025-03-05 11h04.42.134737 -0500,
139,139,0,catch,None,None,None,None,None,None,None,None,None,None,2,1.1187000274658203,None,,,,,0,0,0,0,0,139,139,129,509.1676576137543,,,,,,,,,,,,,,,,,,,,,,,,,,,,,,,,,,,,,,,,,,,,,,,,,,,,,,,,,,,,,,,,,,,,,,,,,,,,,,,,,95,95,173,152,104,86,2.1,2.11,-220,268,0,270,215,-272,509.15327882766724,509.15332078933716,509.15548396110535,509.1676576137543,509.3174877166748,509.3174877166748,509.3174877166748,509.3174877166748,509.3174877166748,509.3174877166748,509.3174877166748,510.3020374774933,2,1.1187000274658203,None,,,,,,,,,,,,,,,,,,190,3,2025-03-05_11h04.32.658,comp,2024.2.4,64.46338963096846,2025-03-05 11h04.42.134737 -0500,
