thisN,thisTrialN,thisRepN,effect,order,distance,config,diag,h_1,w_1,h_2,w_2,h_3,w_3,rect_choice.keys,rect_choice.rt,rect_choice.duration,instructions_loop.thisRepN,instructions_loop.thisTrialN,instructions_loop.thisN,instructions_loop.thisIndex,blocks.thisRepN,blocks.thisTrialN,blocks.thisN,blocks.thisIndex,trials.thisRepN,trials.thisTrialN,trials.thisN,trials.thisIndex,thisRow.t,notes,consent.started,agree_button.started,decline_button.started,consent_img.started,mouse.started,consent.stopped,agree_button.numClicks,agree_button.timesOn,agree_button.timesOff,decline_button.numClicks,decline_button.timesOn,decline_button.timesOff,mouse.x,mouse.y,mouse.leftButton,mouse.midButton,mouse.rightButton,mouse.time,mouse.clicked_name,exp_params.started,exp_params.stopped,welcome.started,welcome_text.started,welcome_text.stopped,welcome.stopped,instructions_1.started,instructions_1_text_1.started,instructions_1_text_2.started,key_resp.started,instructions_1.stopped,instructions_loop.key_resp.keys,instructions_loop.key_resp.rt,instructions_loop.key_resp.duration,instructions_2.started,instructions_2_text_1.started,instructions_2_text_2.started,key_resp_2.started,instructions_2.stopped,instructions_loop.key_resp_2.keys,instructions_loop.key_resp_2.rt,instructions_loop.key_resp_2.duration,instructions_3.started,instructions_3_text_1.started,r1_instr3.started,r2_instr3.started,r3_instr3.started,r1_instr3_label.started,r2_instr3_label.started,r3_instr3_label.started,instructions_3_text_3.started,instructions_3_text_4.started,key_resp_3.started,instructions_3.stopped,instructions_loop.key_resp_3.keys,instructions_loop.key_resp_3.rt,instructions_loop.key_resp_3.duration,instructions_4.started,instructions_4_text_1.started,instructions_4_text_3.started,instructions_4_text_2.started,key_resp_4.started,instructions_4.stopped,instructions_loop.key_resp_4.keys,instructions_loop.key_resp_4.rt,instructions_loop.key_resp_4.duration,instructions_5.started,instructions_5_text_1.started,instructions_5_text_2.started,key_resp_5.started,instructions_5.stopped,instructions_loop.key_resp_5.keys,instructions_loop.key_resp_5.rt,instructions_loop.key_resp_5.duration,start_exp.started,start_exp_text.started,key_resp_6.started,start_exp.stopped,key_resp_6.keys,key_resp_6.rt,key_resp_6.duration,h_1_tmp,w_1_tmp,h_2_tmp,w_2_tmp,h_3_tmp,w_3_tmp,config_tmp,config_tmp_1,r_1_x,r_1_y,r_2_x,r_2_y,r_3_x,r_3_y,pre_trial.started,pre_trial.stopped,choice_trial.started,rect_choice.started,r_1.started,r_2.started,r_3.started,r_1_label.started,r_2_label.started,r_3_label.started,prompt.started,choice_trial.stopped,trials.rect_choice.keys,trials.rect_choice.rt,trials.rect_choice.duration,end_block.started,end_block_text.started,end_block.stopped,end.started,end_text.started,key_resp_7.started,end.stopped,key_resp_7.keys,key_resp_7.rt,key_resp_7.duration,debriefing.started,debrief_form.started,end_debrief.started,debriefing.stopped,end_debrief.keys,end_debrief.rt,end_debrief.duration,participant,computer,date,expName,psychopyVersion,frameRate,expStart,
,,,,,,,,,,,,,,,,,,,,,,,,,,,,,,,0.0255587100982666,0.05232572555541992,0.05232572555541992,0.05232572555541992,0.025014877319335938,63.449565172195435,1,[63.395954608917236],[63.39596676826477],0,,,[-68.0],[-506.0],[1],[0],[0],[63.423271894454956],['agree_button'],,,,,,,,,,,,,,,,,,,,,,,,,,,,,,,,,,,,,,,,,,,,,,,,,,,,,,,,,,,,,,,,,,,,,,,,,,,,,,,,,,,,,,,,,,,,,,,,,,,,,,,,,,,,191,5,2025-03-05_11h04.53.946,comp,2024.2.4,60.10667660251358,2025-03-05 11h05.04.158815 -0500,
,,,,,,,,,,,,,,,,,,,,,,,,,,,,,,,,,,,,,,,,,,,,,,,,,,63.449856758117676,63.449891328811646,,,,,,,,,,,,,,,,,,,,,,,,,,,,,,,,,,,,,,,,,,,,,,,,,,,,,,,,,,,,,,,,,,,,,,,,,,,,,,,,,,,,,,,,,,,,,,,,,,,,,,,,,,191,5,2025-03-05_11h04.53.946,comp,2024.2.4,60.10667660251358,2025-03-05 11h05.04.158815 -0500,
,,,,,,,,,,,,,,,,,,,,,,,,,,,,,,,,,,,,,,,,,,,,,,,,,,,,63.449915170669556,63.463401317596436,65.46649050712585,65.44973802566528,,,,,,,,,,,,,,,,,,,,,,,,,,,,,,,,,,,,,,,,,,,,,,,,,,,,,,,,,,,,,,,,,,,,,,,,,,,,,,,,,,,,,,,,,,,,,,,,,,,,,,191,5,2025-03-05_11h04.53.946,comp,2024.2.4,60.10667660251358,2025-03-05 11h05.04.158815 -0500,
0,0,0,,,,,,,,,,,,,,,0,0,0,0,,,,,,,,,65.46649050712585,,,,,,,,,,,,,,,,,,,,,,,,,,,65.4503402709961,65.46649050712585,65.46649050712585,66.94953966140747,70.8179247379303,space,3.8549633026123047,None,70.8180079460144,70.83301997184753,70.83301997184753,72.33287858963013,77.43379497528076,space,5.08808159828186,None,77.43388271331787,77.45546698570251,77.45546698570251,77.45546698570251,77.45546698570251,77.45546698570251,77.45546698570251,77.45546698570251,77.45546698570251,77.45546698570251,78.93315815925598,81.15112709999084,space,2.200744152069092,None,81.15121865272522,81.1664788722992,81.1664788722992,81.1664788722992,82.6663076877594,89.55052781105042,space,6.867247104644775,None,89.55061483383179,89.56620573997498,89.56620573997498,91.06610918045044,92.05049014091492,space,0.9703781604766846,None,92.05060362815857,92.0661072731018,92.0661072731018,93.11706972122192,space,1.043154239654541,None,,,,,,,,,,,,,,,,,,,,,,,,,,,,,,,,,,,,,,,,,,,,,,,191,5,2025-03-05_11h04.53.946,comp,2024.2.4,60.10667660251358,2025-03-05 11h05.04.158815 -0500,
0,0,0,critical,dhw,35.0,2.1,upper,127.0,127.0,200.0,125.0,125.0,200.0,3,4.827988624572754,None,,,,,0,0,0,0,0,0,0,25,93.17632269859314,,,,,,,,,,,,,,,,,,,,,,,,,,,,,,,,,,,,,,,,,,,,,,,,,,,,,,,,,,,,,,,,,,,,,,,,,,,,,,,,,,127.0,127.0,200.0,125.0,125.0,200.0,2.1,2.11,-222,280,0,270,258,-266,93.16258072853088,93.1626284122467,93.1646146774292,93.17632269859314,93.32302451133728,93.32302451133728,93.32302451133728,93.32302451133728,93.32302451133728,93.32302451133728,93.32302451133728,98.01755094528198,3,4.827988624572754,None,,,,,,,,,,,,,,,,,,191,5,2025-03-05_11h04.53.946,comp,2024.2.4,60.10667660251358,2025-03-05 11h05.04.158815 -0500,
1,1,0,critical,hwd,35.0,2.1,lower,133.0,57.0,57.0,133.0,70.0,70.0,2,5.588038682937622,None,,,,,0,0,0,0,0,1,1,16,98.03271317481995,,,,,,,,,,,,,,,,,,,,,,,,,,,,,,,,,,,,,,,,,,,,,,,,,,,,,,,,,,,,,,,,,,,,,,,,,,,,,,,,,,133.0,57.0,57.0,133.0,70.0,70.0,2.1,2.12,-191,-252,0,-282,198,286,98.01834487915039,98.01838374137878,98.02071142196655,98.03271317481995,98.18301391601562,98.18301391601562,98.18301391601562,98.18301391601562,98.18301391601562,98.18301391601562,98.18301391601562,103.63390040397644,2,5.588038682937622,None,,,,,,,,,,,,,,,,,,191,5,2025-03-05_11h04.53.946,comp,2024.2.4,60.10667660251358,2025-03-05 11h05.04.158815 -0500,
2,2,0,critical,dhw,35.0,4.0,lower,70.0,70.0,133.0,57.0,57.0,133.0,3,4.317075729370117,None,,,,,0,0,0,0,0,2,2,52,103.6491949558258,,,,,,,,,,,,,,,,,,,,,,,,,,,,,,,,,,,,,,,,,,,,,,,,,,,,,,,,,,,,,,,,,,,,,,,,,,,,,,,,,,70.0,70.0,133.0,57.0,57.0,133.0,4.0,4.2,-160,8,0,-253,191,4,103.63466811180115,103.63470840454102,103.63727569580078,103.6491949558258,103.79935431480408,103.79935431480408,103.79935431480408,103.79935431480408,103.79935431480408,103.79935431480408,103.79935431480408,107.98372960090637,3,4.317075729370117,None,,,,,,,,,,,,,,,,,,191,5,2025-03-05_11h04.53.946,comp,2024.2.4,60.10667660251358,2025-03-05 11h05.04.158815 -0500,
3,3,0,critical,hwd,35.0,3.0,upper,200.0,125.0,125.0,200.0,127.0,127.0,2,2.54195499420166,None,,,,,0,0,0,0,0,3,3,99,107.99920868873596,,,,,,,,,,,,,,,,,,,,,,,,,,,,,,,,,,,,,,,,,,,,,,,,,,,,,,,,,,,,,,,,,,,,,,,,,,,,,,,,,,200.0,125.0,125.0,200.0,127.0,127.0,3.0,3.1,-258,282,0,-1,260,-263,107.98455762863159,107.98459792137146,107.9870867729187,107.99920868873596,108.1495714187622,108.1495714187622,108.1495714187622,108.1495714187622,108.1495714187622,108.1495714187622,108.1495714187622,110.55068063735962,2,2.54195499420166,None,,,,,,,,,,,,,,,,,,191,5,2025-03-05_11h04.53.946,comp,2024.2.4,60.10667660251358,2025-03-05 11h05.04.158815 -0500,
4,4,0,filler_random,None,None,None,None,None,None,None,None,None,None,1,1.3180618286132812,None,,,,,0,0,0,0,0,4,4,139,110.56622791290283,,,,,,,,,,,,,,,,,,,,,,,,,,,,,,,,,,,,,,,,,,,,,,,,,,,,,,,,,,,,,,,,,,,,,,,,,,,,,,,,,,162.633521810667,195.36730195031498,117.51044771071165,159.4583177388599,168.51751800550545,71.4582720593841,2.2,2.21,-273,-271,0,251,211,262,110.55157542228699,110.55161595344543,110.55422139167786,110.56622791290283,110.71682214736938,110.71682214736938,110.71682214736938,110.71682214736938,110.71682214736938,110.71682214736938,110.71682214736938,111.90058755874634,1,1.3180618286132812,None,,,,,,,,,,,,,,,,,,191,5,2025-03-05_11h04.53.946,comp,2024.2.4,60.10667660251358,2025-03-05 11h05.04.158815 -0500,
5,5,0,filler_square,None,None,None,None,None,None,None,None,None,None,2,1.8502614498138428,None,,,,,0,0,0,0,0,5,5,189,111.91595339775085,,,,,,,,,,,,,,,,,,,,,,,,,,,,,,,,,,,,,,,,,,,,,,,,,,,,,,,,,,,,,,,,,,,,,,,,,,,,,,,,,,61.66382951710667,69.88810527057616,105.22533593126875,105.22533593126875,62.54154508886887,92.52197012324768,3.0,3.2,-184,-283,0,-6,195,268,111.90155243873596,111.9015941619873,111.90458512306213,111.91595339775085,112.06609916687012,112.06609916687012,112.06609916687012,112.06609916687012,112.06609916687012,112.06609916687012,112.06609916687012,113.78376984596252,2,1.8502614498138428,None,,,,,,,,,,,,,,,,,,191,5,2025-03-05_11h04.53.946,comp,2024.2.4,60.10667660251358,2025-03-05 11h05.04.158815 -0500,
6,6,0,filler_square,None,None,None,None,None,None,None,None,None,None,3,1.7993323802947998,None,,,,,0,0,0,0,0,6,6,178,113.79928255081177,,,,,,,,,,,,,,,,,,,,,,,,,,,,,,,,,,,,,,,,,,,,,,,,,,,,,,,,,,,,,,,,,,,,,,,,,,,,,,,,,,69.45719716081092,113.5202490161908,97.95082849617987,113.93332617393136,121.10862402403032,121.10862402403032,4.0,4.1,-210,-263,0,-19,214,-255,113.78472566604614,113.78476691246033,113.78728222846985,113.79928255081177,113.94946551322937,113.94946551322937,113.94946551322937,113.94946551322937,113.94946551322937,113.94946551322937,113.94946551322937,115.61713528633118,3,1.7993323802947998,None,,,,,,,,,,,,,,,,,,191,5,2025-03-05_11h04.53.946,comp,2024.2.4,60.10667660251358,2025-03-05 11h05.04.158815 -0500,
7,7,0,critical,whd,20.0,1.0,upper,125.0,200.0,200.0,125.0,141.0,141.0,3,5.244596481323242,None,,,,,0,0,0,0,0,7,7,91,115.6324393749237,,,,,,,,,,,,,,,,,,,,,,,,,,,,,,,,,,,,,,,,,,,,,,,,,,,,,,,,,,,,,,,,,,,,,,,,,,,,,,,,,,125.0,200.0,200.0,125.0,141.0,141.0,1.0,1.1,-738,278,-480,286,-251,282,115.61791467666626,115.61795449256897,115.620281457901,115.6324393749237,115.7829315662384,115.7829315662384,115.7829315662384,115.7829315662384,115.7829315662384,115.7829315662384,115.7829315662384,120.88398504257202,3,5.244596481323242,None,,,,,,,,,,,,,,,,,,191,5,2025-03-05_11h04.53.946,comp,2024.2.4,60.10667660251358,2025-03-05 11h05.04.158815 -0500,
8,8,0,critical,hdw,20.0,3.0,lower,133.0,57.0,78.0,78.0,57.0,133.0,3,5.634740352630615,None,,,,,0,0,0,0,0,8,8,116,120.89941024780273,,,,,,,,,,,,,,,,,,,,,,,,,,,,,,,,,,,,,,,,,,,,,,,,,,,,,,,,,,,,,,,,,,,,,,,,,,,,,,,,,,133.0,57.0,78.0,78.0,57.0,133.0,3.0,3.1,-164,261,0,18,202,-274,120.88479161262512,120.88483262062073,120.88693118095398,120.89941024780273,121.04915618896484,121.04915618896484,121.04915618896484,121.04915618896484,121.04915618896484,121.04915618896484,121.04915618896484,126.5503180027008,3,5.634740352630615,None,,,,,,,,,,,,,,,,,,191,5,2025-03-05_11h04.53.946,comp,2024.2.4,60.10667660251358,2025-03-05 11h05.04.158815 -0500,
9,9,0,critical,dwh,35.0,2.1,upper,127.0,127.0,125.0,200.0,200.0,125.0,3,2.206599473953247,None,,,,,0,0,0,0,0,9,9,29,126.56573390960693,,,,,,,,,,,,,,,,,,,,,,,,,,,,,,,,,,,,,,,,,,,,,,,,,,,,,,,,,,,,,,,,,,,,,,,,,,,,,,,,,,127.0,127.0,125.0,200.0,200.0,125.0,2.1,2.11,-260,259,0,266,258,-282,126.55112266540527,126.5511634349823,126.55356097221375,126.56573390960693,126.7161796092987,126.7161796092987,126.7161796092987,126.7161796092987,126.7161796092987,126.7161796092987,126.7161796092987,128.78366947174072,3,2.206599473953247,None,,,,,,,,,,,,,,,,,,191,5,2025-03-05_11h04.53.946,comp,2024.2.4,60.10667660251358,2025-03-05 11h05.04.158815 -0500,
10,10,0,filler_random,None,None,None,None,None,None,None,None,None,None,3,1.2456741333007812,None,,,,,0,0,0,0,0,10,10,165,128.79924416542053,,,,,,,,,,,,,,,,,,,,,,,,,,,,,,,,,,,,,,,,,,,,,,,,,,,,,,,,,,,,,,,,,,,,,,,,,,,,,,,,,,119.23445666469544,96.24854057990221,185.96232923156768,79.95863811502606,187.19575654007176,124.99425340800228,2.2,2.21,-184,-255,0,287,198,253,128.78455543518066,128.78459525108337,128.78715300559998,128.79924416542053,128.94941592216492,128.94941592216492,128.94941592216492,128.94941592216492,128.94941592216492,128.94941592216492,128.94941592216492,130.05051469802856,3,1.2456741333007812,None,,,,,,,,,,,,,,,,,,191,5,2025-03-05_11h04.53.946,comp,2024.2.4,60.10667660251358,2025-03-05 11h05.04.158815 -0500,
11,11,0,critical,wdh,20.0,4.0,upper,125.0,200.0,141.0,141.0,200.0,125.0,2,3.306555986404419,None,,,,,0,0,0,0,0,11,11,83,130.06585836410522,,,,,,,,,,,,,,,,,,,,,,,,,,,,,,,,,,,,,,,,,,,,,,,,,,,,,,,,,,,,,,,,,,,,,,,,,,,,,,,,,,125.0,200.0,141.0,141.0,200.0,125.0,4.0,4.2,-266,-9,0,-269,229,9,130.0513072013855,130.0513470172882,130.0537350177765,130.06585836410522,130.21636176109314,130.21636176109314,130.21636176109314,130.21636176109314,130.21636176109314,130.21636176109314,130.21636176109314,133.38366270065308,2,3.306555986404419,None,,,,,,,,,,,,,,,,,,191,5,2025-03-05_11h04.53.946,comp,2024.2.4,60.10667660251358,2025-03-05 11h05.04.158815 -0500,
12,12,0,critical,hwd,20.0,3.0,lower,133.0,57.0,57.0,133.0,78.0,78.0,2,4.572946310043335,None,,,,,0,0,0,0,0,12,12,104,133.39921832084656,,,,,,,,,,,,,,,,,,,,,,,,,,,,,,,,,,,,,,,,,,,,,,,,,,,,,,,,,,,,,,,,,,,,,,,,,,,,,,,,,,133.0,57.0,57.0,133.0,78.0,78.0,3.0,3.1,-191,276,0,7,202,-252,133.38446402549744,133.3845043182373,133.38704633712769,133.39921832084656,133.5490939617157,133.5490939617157,133.5490939617157,133.5490939617157,133.5490939617157,133.5490939617157,133.5490939617157,137.98340821266174,2,4.572946310043335,None,,,,,,,,,,,,,,,,,,191,5,2025-03-05_11h04.53.946,comp,2024.2.4,60.10667660251358,2025-03-05 11h05.04.158815 -0500,
13,13,0,filler_square,None,None,None,None,None,None,None,None,None,None,2,1.7175452709197998,None,,,,,0,0,0,0,0,13,13,192,137.9992082118988,,,,,,,,,,,,,,,,,,,,,,,,,,,,,,,,,,,,,,,,,,,,,,,,,,,,,,,,,,,,,,,,,,,,,,,,,,,,,,,,,,68.04673710847831,173.490400892168,179.6738274489877,179.6738274489877,165.85624433189042,175.6332459098259,2.2,2.21,-273,-263,0,257,274,263,137.98436212539673,137.98440432548523,137.986834526062,137.9992082118988,138.14953517913818,138.14953517913818,138.14953517913818,138.14953517913818,138.14953517913818,138.14953517913818,138.14953517913818,139.73387217521667,2,1.7175452709197998,None,,,,,,,,,,,,,,,,,,191,5,2025-03-05_11h04.53.946,comp,2024.2.4,60.10667660251358,2025-03-05 11h05.04.158815 -0500,
14,14,0,filler_square,None,None,None,None,None,None,None,None,None,None,1,4.095724821090698,None,,,,,0,0,0,0,0,14,14,194,139.74910187721252,,,,,,,,,,,,,,,,,,,,,,,,,,,,,,,,,,,,,,,,,,,,,,,,,,,,,,,,,,,,,,,,,,,,,,,,,,,,,,,,,,146.684839581811,146.684839581811,140.11452979619844,145.94719327795164,131.76736442091905,141.5882798686846,3.0,3.2,-242,-285,0,-14,240,267,139.7348232269287,139.73486375808716,139.7373402118683,139.74910187721252,139.89967250823975,139.89967250823975,139.89967250823975,139.89967250823975,139.89967250823975,139.89967250823975,139.89967250823975,143.85045051574707,1,4.095724821090698,None,,,,,,,,,,,,,,,,,,191,5,2025-03-05_11h04.53.946,comp,2024.2.4,60.10667660251358,2025-03-05 11h05.04.158815 -0500,
15,15,0,filler_square,None,None,None,None,None,None,None,None,None,None,3,4.379007577896118,None,,,,,0,0,0,0,0,15,15,174,143.86594891548157,,,,,,,,,,,,,,,,,,,,,,,,,,,,,,,,,,,,,,,,,,,,,,,,,,,,,,,,,,,,,,,,,,,,,,,,,,,,,,,,,,65.54018791347676,64.18898384643025,60.05973969778835,57.28903392898025,67.10363587460468,67.10363587460468,4.0,4.2,-157,-17,0,-259,158,-20,143.85138750076294,143.8514289855957,143.85382604599,143.86594891548157,144.01584815979004,144.01584815979004,144.01584815979004,144.01584815979004,144.01584815979004,144.01584815979004,144.01584815979004,148.25020289421082,3,4.379007577896118,None,,,,,,,,,,,,,,,,,,191,5,2025-03-05_11h04.53.946,comp,2024.2.4,60.10667660251358,2025-03-05 11h05.04.158815 -0500,
16,16,0,critical,hdw,20.0,1.0,lower,133.0,57.0,78.0,78.0,57.0,133.0,2,3.8022713661193848,None,,,,,0,0,0,0,0,16,16,114,148.265798330307,,,,,,,,,,,,,,,,,,,,,,,,,,,,,,,,,,,,,,,,,,,,,,,,,,,,,,,,,,,,,,,,,,,,,,,,,,,,,,,,,,133.0,57.0,78.0,78.0,57.0,133.0,1.0,1.1,-644,267,-480,271,-278,285,148.2510073184967,148.25106143951416,148.2533802986145,148.265798330307,148.41572451591492,148.41572451591492,148.41572451591492,148.41572451591492,148.41572451591492,148.41572451591492,148.41572451591492,152.0834562778473,2,3.8022713661193848,None,,,,,,,,,,,,,,,,,,191,5,2025-03-05_11h04.53.946,comp,2024.2.4,60.10667660251358,2025-03-05 11h05.04.158815 -0500,
17,17,0,critical,wdh,20.0,1.0,lower,57.0,133.0,78.0,78.0,133.0,57.0,1,4.315916538238525,None,,,,,0,0,0,0,0,17,17,78,152.0988974571228,,,,,,,,,,,,,,,,,,,,,,,,,,,,,,,,,,,,,,,,,,,,,,,,,,,,,,,,,,,,,,,,,,,,,,,,,,,,,,,,,,57.0,133.0,78.0,78.0,133.0,57.0,1.0,1.2,-202,0,0,14,164,7,152.08422708511353,152.0842673778534,152.08667254447937,152.0988974571228,152.24902510643005,152.24902510643005,152.24902510643005,152.24902510643005,152.24902510643005,152.24902510643005,152.24902510643005,156.41681122779846,1,4.315916538238525,None,,,,,,,,,,,,,,,,,,191,5,2025-03-05_11h04.53.946,comp,2024.2.4,60.10667660251358,2025-03-05 11h05.04.158815 -0500,
18,18,0,filler_random,None,None,None,None,None,None,None,None,None,None,1,2.150190830230713,None,,,,,0,0,0,0,0,18,18,168,156.43245458602905,,,,,,,,,,,,,,,,,,,,,,,,,,,,,,,,,,,,,,,,,,,,,,,,,,,,,,,,,,,,,,,,,,,,,,,,,,,,,,,,,,198.86032613862133,112.09002840455247,121.29024063618122,83.93637849358694,63.23123453381316,77.61255309101942,3.0,3.2,-194,-263,0,4,177,275,156.41767406463623,156.41771245002747,156.4195990562439,156.43245458602905,156.58244633674622,156.58244633674622,156.58244633674622,156.58244633674622,156.58244633674622,156.58244633674622,156.58244633674622,158.6001753807068,1,2.150190830230713,None,,,,,,,,,,,,,,,,,,191,5,2025-03-05_11h04.53.946,comp,2024.2.4,60.10667660251358,2025-03-05 11h05.04.158815 -0500,
19,19,0,filler_square,None,None,None,None,None,None,None,None,None,None,1,1.3667712211608887,None,,,,,0,0,0,0,0,19,19,205,158.6155984401703,,,,,,,,,,,,,,,,,,,,,,,,,,,,,,,,,,,,,,,,,,,,,,,,,,,,,,,,,,,,,,,,,,,,,,,,,,,,,,,,,,154.08110990304692,154.08110990304692,109.69110046402487,77.5412418170074,121.57163560353413,104.7089987441403,4.0,4.2,-212,-2,0,-270,187,-14,158.60114431381226,158.6011838912964,158.60329461097717,158.6155984401703,158.76582407951355,158.76582407951355,158.76582407951355,158.76582407951355,158.76582407951355,158.76582407951355,158.76582407951355,159.98373341560364,1,1.3667712211608887,None,,,,,,,,,,,,,,,,,,191,5,2025-03-05_11h04.53.946,comp,2024.2.4,60.10667660251358,2025-03-05 11h05.04.158815 -0500,
20,20,0,filler_random,None,None,None,None,None,None,None,None,None,None,2,2.7887685298919678,None,,,,,0,0,0,0,0,20,20,132,159.99910521507263,,,,,,,,,,,,,,,,,,,,,,,,,,,,,,,,,,,,,,,,,,,,,,,,,,,,,,,,,,,,,,,,,,,,,,,,,,,,,,,,,,119.56276605994653,81.55391583517098,108.29652595388377,119.80459617114445,126.97254680480249,73.38318440488203,3.0,3.1,-197,262,0,14,193,-252,159.98470520973206,159.98474550247192,159.9868893623352,159.99910521507263,160.14911007881165,160.14911007881165,160.14911007881165,160.14911007881165,160.14911007881165,160.14911007881165,160.14911007881165,162.8002302646637,2,2.7887685298919678,None,,,,,,,,,,,,,,,,,,191,5,2025-03-05_11h04.53.946,comp,2024.2.4,60.10667660251358,2025-03-05 11h05.04.158815 -0500,
21,21,0,critical,wdh,35.0,4.0,upper,125.0,200.0,127.0,127.0,200.0,125.0,1,3.7883176803588867,None,,,,,0,0,0,0,0,21,21,77,162.8154993057251,,,,,,,,,,,,,,,,,,,,,,,,,,,,,,,,,,,,,,,,,,,,,,,,,,,,,,,,,,,,,,,,,,,,,,,,,,,,,,,,,,125.0,200.0,127.0,127.0,200.0,125.0,4.0,4.2,-260,-8,0,-286,222,-19,162.80098867416382,162.80102968215942,162.80331826210022,162.8154993057251,162.9659013748169,162.9659013748169,162.9659013748169,162.9659013748169,162.9659013748169,162.9659013748169,162.9659013748169,166.61683320999146,1,3.7883176803588867,None,,,,,,,,,,,,,,,,,,191,5,2025-03-05_11h04.53.946,comp,2024.2.4,60.10667660251358,2025-03-05 11h05.04.158815 -0500,
22,22,0,critical,dhw,20.0,1.0,upper,141.0,141.0,200.0,125.0,125.0,200.0,2,2.6127068996429443,None,,,,,0,0,0,0,0,22,22,55,166.63213396072388,,,,,,,,,,,,,,,,,,,,,,,,,,,,,,,,,,,,,,,,,,,,,,,,,,,,,,,,,,,,,,,,,,,,,,,,,,,,,,,,,,141.0,141.0,200.0,125.0,125.0,200.0,1.0,1.1,-709,255,-480,263,-222,286,166.6176483631134,166.61768794059753,166.6203272342682,166.63213396072388,166.7825014591217,166.7825014591217,166.7825014591217,166.7825014591217,166.7825014591217,166.7825014591217,166.7825014591217,169.25040197372437,2,2.6127068996429443,None,,,,,,,,,,,,,,,,,,191,5,2025-03-05_11h04.53.946,comp,2024.2.4,60.10667660251358,2025-03-05 11h05.04.158815 -0500,
23,23,0,critical,wdh,35.0,2.1,upper,125.0,200.0,127.0,127.0,200.0,125.0,3,2.3789236545562744,None,,,,,0,0,0,0,0,23,23,9,169.26576328277588,,,,,,,,,,,,,,,,,,,,,,,,,,,,,,,,,,,,,,,,,,,,,,,,,,,,,,,,,,,,,,,,,,,,,,,,,,,,,,,,,,125.0,200.0,127.0,127.0,200.0,125.0,2.1,2.11,-260,250,0,259,222,-285,169.25120735168457,169.25124883651733,169.2535982131958,169.26576328277588,169.41573357582092,169.41573357582092,169.41573357582092,169.41573357582092,169.41573357582092,169.41573357582092,169.41573357582092,171.65022730827332,3,2.3789236545562744,None,,,,,,,,,,,,,,,,,,191,5,2025-03-05_11h04.53.946,comp,2024.2.4,60.10667660251358,2025-03-05 11h05.04.158815 -0500,
24,24,0,filler_square,None,None,None,None,None,None,None,None,None,None,1,1.8270049095153809,None,,,,,0,0,0,0,0,24,24,188,171.66569805145264,,,,,,,,,,,,,,,,,,,,,,,,,,,,,,,,,,,,,,,,,,,,,,,,,,,,,,,,,,,,,,,,,,,,,,,,,,,,,,,,,,91.10592711176763,91.10592711176763,80.25035990861109,76.55521403315828,65.02067891346549,59.61980670986759,1.0,1.1,-660,260,-480,282,-316,285,171.65116620063782,171.65120482444763,171.65355682373047,171.66569805145264,171.81553959846497,171.81553959846497,171.81553959846497,171.81553959846497,171.81553959846497,171.81553959846497,171.81553959846497,173.4998996257782,1,1.8270049095153809,None,,,,,,,,,,,,,,,,,,191,5,2025-03-05_11h04.53.946,comp,2024.2.4,60.10667660251358,2025-03-05 11h05.04.158815 -0500,
25,25,0,filler_square,None,None,None,None,None,None,None,None,None,None,1,1.4502246379852295,None,,,,,0,0,0,0,0,25,25,208,173.51566743850708,,,,,,,,,,,,,,,,,,,,,,,,,,,,,,,,,,,,,,,,,,,,,,,,,,,,,,,,,,,,,,,,,,,,,,,,,,,,,,,,,,118.03862004644476,118.03862004644476,98.7809405101861,76.95026492290286,85.80738040918061,108.39679739114078,1.0,1.3,287,-285,480,-286,669,-276,173.50082230567932,173.5008635520935,173.50350141525269,173.51566743850708,173.66566920280457,173.66566920280457,173.66566920280457,173.66566920280457,173.66566920280457,173.66566920280457,173.66566920280457,174.98335218429565,1,1.4502246379852295,None,,,,,,,,,,,,,,,,,,191,5,2025-03-05_11h04.53.946,comp,2024.2.4,60.10667660251358,2025-03-05 11h05.04.158815 -0500,
26,26,0,filler_random,None,None,None,None,None,None,None,None,None,None,3,2.4458701610565186,None,,,,,0,0,0,0,0,26,26,157,174.99871945381165,,,,,,,,,,,,,,,,,,,,,,,,,,,,,,,,,,,,,,,,,,,,,,,,,,,,,,,,,,,,,,,,,,,,,,,,,,,,,,,,,,158.49183956663072,96.1031796673415,58.59436676100334,62.07303967804697,184.59330556885556,175.54051330054676,2.2,2.22,-175,261,0,-258,215,-275,174.98424983024597,174.98428964614868,174.98669481277466,174.99871945381165,175.14890217781067,175.14890217781067,175.14890217781067,175.14890217781067,175.14890217781067,175.14890217781067,175.14890217781067,177.45017886161804,3,2.4458701610565186,None,,,,,,,,,,,,,,,,,,191,5,2025-03-05_11h04.53.946,comp,2024.2.4,60.10667660251358,2025-03-05 11h05.04.158815 -0500,
27,27,0,critical,whd,20.0,2.1,lower,57.0,133.0,133.0,57.0,78.0,78.0,1,2.6429226398468018,None,,,,,0,0,0,0,0,27,27,38,177.46574997901917,,,,,,,,,,,,,,,,,,,,,,,,,,,,,,,,,,,,,,,,,,,,,,,,,,,,,,,,,,,,,,,,,,,,,,,,,,,,,,,,,,57.0,133.0,133.0,57.0,78.0,78.0,2.1,2.11,-191,260,0,272,164,-285,177.45097374916077,177.45101380348206,177.4533495903015,177.46574997901917,177.61547231674194,177.61547231674194,177.61547231674194,177.61547231674194,177.61547231674194,177.61547231674194,177.61547231674194,180.11649823188782,1,2.6429226398468018,None,,,,,,,,,,,,,,,,,,191,5,2025-03-05_11h04.53.946,comp,2024.2.4,60.10667660251358,2025-03-05 11h05.04.158815 -0500,
28,28,0,filler_square,None,None,None,None,None,None,None,None,None,None,1,2.383634090423584,None,,,,,0,0,0,0,0,28,28,193,180.13234782218933,,,,,,,,,,,,,,,,,,,,,,,,,,,,,,,,,,,,,,,,,,,,,,,,,,,,,,,,,,,,,,,,,,,,,,,,,,,,,,,,,,78.76471127351793,78.76471127351793,63.494513451009865,63.89912093736965,63.587239978558614,74.34539852788711,1.0,1.3,313,-276,480,-273,645,-262,180.1174840927124,180.11752700805664,180.11987900733948,180.13234782218933,180.28213334083557,180.28213334083557,180.28213334083557,180.28213334083557,180.28213334083557,180.28213334083557,180.28213334083557,182.5331575870514,1,2.383634090423584,None,,,,,,,,,,,,,,,,,,191,5,2025-03-05_11h04.53.946,comp,2024.2.4,60.10667660251358,2025-03-05 11h05.04.158815 -0500,
29,29,0,critical,dhw,35.0,2.1,upper,127.0,127.0,200.0,125.0,125.0,200.0,3,3.2391366958618164,None,,,,,0,0,0,0,0,29,29,1,182.54862141609192,,,,,,,,,,,,,,,,,,,,,,,,,,,,,,,,,,,,,,,,,,,,,,,,,,,,,,,,,,,,,,,,,,,,,,,,,,,,,,,,,,127.0,127.0,200.0,125.0,125.0,200.0,2.1,2.11,-222,289,0,287,258,-286,182.53396344184875,182.53400444984436,182.5363690853119,182.54862141609192,182.69902729988098,182.69902729988098,182.69902729988098,182.69902729988098,182.69902729988098,182.69902729988098,182.69902729988098,185.8004014492035,3,3.2391366958618164,None,,,,,,,,,,,,,,,,,,191,5,2025-03-05_11h04.53.946,comp,2024.2.4,60.10667660251358,2025-03-05 11h05.04.158815 -0500,
30,30,0,critical,whd,20.0,1.0,lower,57.0,133.0,133.0,57.0,78.0,78.0,1,5.268597841262817,None,,,,,0,0,0,0,0,30,30,90,185.8153612613678,,,,,,,,,,,,,,,,,,,,,,,,,,,,,,,,,,,,,,,,,,,,,,,,,,,,,,,,,,,,,,,,,,,,,,,,,,,,,,,,,,57.0,133.0,133.0,57.0,78.0,78.0,1.0,1.3,289,-271,480,-274,644,-261,185.80125498771667,185.80129504203796,185.80376291275024,185.8153612613678,185.98215174674988,185.98215174674988,185.98215174674988,185.98215174674988,185.98215174674988,185.98215174674988,185.98215174674988,191.09979677200317,1,5.268597841262817,None,,,,,,,,,,,,,,,,,,191,5,2025-03-05_11h04.53.946,comp,2024.2.4,60.10667660251358,2025-03-05 11h05.04.158815 -0500,
31,31,0,critical,hdw,20.0,2.1,upper,200.0,125.0,141.0,141.0,125.0,200.0,3,0.9932210445404053,None,,,,,0,0,0,0,0,31,31,47,191.1152789592743,,,,,,,,,,,,,,,,,,,,,,,,,,,,,,,,,,,,,,,,,,,,,,,,,,,,,,,,,,,,,,,,,,,,,,,,,,,,,,,,,,200.0,125.0,141.0,141.0,125.0,200.0,2.1,2.12,-229,-267,0,-259,266,252,191.10057830810547,191.10061812400818,191.10315918922424,191.1152789592743,191.26564955711365,191.26564955711365,191.26564955711365,191.26564955711365,191.26564955711365,191.26564955711365,191.26564955711365,192.11670470237732,3,0.9932210445404053,None,,,,,,,,,,,,,,,,,,191,5,2025-03-05_11h04.53.946,comp,2024.2.4,60.10667660251358,2025-03-05 11h05.04.158815 -0500,
32,32,0,filler_random,None,None,None,None,None,None,None,None,None,None,3,1.4817266464233398,None,,,,,0,0,0,0,0,32,32,153,192.13248920440674,,,,,,,,,,,,,,,,,,,,,,,,,,,,,,,,,,,,,,,,,,,,,,,,,,,,,,,,,,,,,,,,,,,,,,,,,,,,,,,,,,161.30134774885033,94.92844427561346,185.34226032342903,77.7889517170487,117.93444566158148,152.99801494170788,3.0,3.2,-182,-265,0,-10,211,255,192.11792135238647,192.11796355247498,192.12020301818848,192.13248920440674,192.2821865081787,192.2821865081787,192.2821865081787,192.2821865081787,192.2821865081787,192.2821865081787,192.2821865081787,193.61668038368225,3,1.4817266464233398,None,,,,,,,,,,,,,,,,,,191,5,2025-03-05_11h04.53.946,comp,2024.2.4,60.10667660251358,2025-03-05 11h05.04.158815 -0500,
33,33,0,filler_square,None,None,None,None,None,None,None,None,None,None,2,0.803626537322998,None,,,,,0,0,0,0,0,33,33,206,193.6322102546692,,,,,,,,,,,,,,,,,,,,,,,,,,,,,,,,,,,,,,,,,,,,,,,,,,,,,,,,,,,,,,,,,,,,,,,,,,,,,,,,,,115.87081220889068,115.37719477350434,198.4053173261641,198.4053173261641,116.52029880220482,88.31958906906311,3.0,3.1,-253,262,0,10,239,-285,193.61765789985657,193.6176998615265,193.62025046348572,193.6322102546692,193.7825653553009,193.7825653553009,193.7825653553009,193.7825653553009,193.7825653553009,193.7825653553009,193.7825653553009,194.44994854927063,2,0.803626537322998,None,,,,,,,,,,,,,,,,,,191,5,2025-03-05_11h04.53.946,comp,2024.2.4,60.10667660251358,2025-03-05 11h05.04.158815 -0500,
34,34,0,critical,whd,20.0,4.0,upper,125.0,200.0,200.0,125.0,141.0,141.0,1,2.787055492401123,None,,,,,0,0,0,0,0,34,34,95,194.46530842781067,,,,,,,,,,,,,,,,,,,,,,,,,,,,,,,,,,,,,,,,,,,,,,,,,,,,,,,,,,,,,,,,,,,,,,,,,,,,,,,,,,125.0,200.0,200.0,125.0,141.0,141.0,4.0,4.2,-258,-5,0,-260,229,0,194.45071268081665,194.45075225830078,194.45285820960999,194.46530842781067,194.6156449317932,194.6156449317932,194.6156449317932,194.6156449317932,194.6156449317932,194.6156449317932,194.6156449317932,197.26671624183655,1,2.787055492401123,None,,,,,,,,,,,,,,,,,,191,5,2025-03-05_11h04.53.946,comp,2024.2.4,60.10667660251358,2025-03-05 11h05.04.158815 -0500,
35,35,0,critical,dwh,20.0,2.1,lower,78.0,78.0,57.0,133.0,133.0,57.0,2,2.8338463306427,None,,,,,0,0,0,0,0,35,35,30,197.28199934959412,,,,,,,,,,,,,,,,,,,,,,,,,,,,,,,,,,,,,,,,,,,,,,,,,,,,,,,,,,,,,,,,,,,,,,,,,,,,,,,,,,78.0,78.0,57.0,133.0,133.0,57.0,2.1,2.11,-202,283,0,258,191,-254,197.26750826835632,197.2675473690033,197.26969933509827,197.28199934959412,197.43207335472107,197.43207335472107,197.43207335472107,197.43207335472107,197.43207335472107,197.43207335472107,197.43207335472107,200.13308310508728,2,2.8338463306427,None,,,,,,,,,,,,,,,,,,191,5,2025-03-05_11h04.53.946,comp,2024.2.4,60.10667660251358,2025-03-05 11h05.04.158815 -0500,
36,36,0,filler_square,None,None,None,None,None,None,None,None,None,None,2,1.3599803447723389,None,,,,,0,0,0,0,0,36,36,180,200.1486051082611,,,,,,,,,,,,,,,,,,,,,,,,,,,,,,,,,,,,,,,,,,,,,,,,,,,,,,,,,,,,,,,,,,,,,,,,,,,,,,,,,,117.71013058553875,82.25966704713568,136.9641971146475,136.9641971146475,115.20839513920718,86.45385449065999,2.1,2.12,-206,-285,0,-266,208,268,200.13401126861572,200.1340684890747,200.13639760017395,200.1486051082611,200.29888367652893,200.29888367652893,200.29888367652893,200.29888367652893,200.29888367652893,200.29888367652893,200.29888367652893,201.51665139198303,2,1.3599803447723389,None,,,,,,,,,,,,,,,,,,191,5,2025-03-05_11h04.53.946,comp,2024.2.4,60.10667660251358,2025-03-05 11h05.04.158815 -0500,
37,37,0,critical,dwh,20.0,3.0,lower,78.0,78.0,57.0,133.0,133.0,57.0,2,4.119646072387695,None,,,,,0,0,0,0,0,37,37,68,201.5322015285492,,,,,,,,,,,,,,,,,,,,,,,,,,,,,,,,,,,,,,,,,,,,,,,,,,,,,,,,,,,,,,,,,,,,,,,,,,,,,,,,,,78.0,78.0,57.0,133.0,133.0,57.0,3.0,3.2,-202,-251,0,-3,191,267,201.5174732208252,201.51751470565796,201.51969933509827,201.5322015285492,201.6819999217987,201.6819999217987,201.6819999217987,201.6819999217987,201.6819999217987,201.6819999217987,201.6819999217987,205.66647744178772,2,4.119646072387695,None,,,,,,,,,,,,,,,,,,191,5,2025-03-05_11h04.53.946,comp,2024.2.4,60.10667660251358,2025-03-05 11h05.04.158815 -0500,
38,38,0,critical,dwh,20.0,1.0,lower,78.0,78.0,57.0,133.0,133.0,57.0,2,4.035356760025024,None,,,,,0,0,0,0,0,38,38,66,205.6818871498108,,,,,,,,,,,,,,,,,,,,,,,,,,,,,,,,,,,,,,,,,,,,,,,,,,,,,,,,,,,,,,,,,,,,,,,,,,,,,,,,,,78.0,78.0,57.0,133.0,133.0,57.0,1.0,1.3,278,-285,480,-265,671,-266,205.6672821044922,205.66732382774353,205.66977953910828,205.6818871498108,205.8320596218109,205.8320596218109,205.8320596218109,205.8320596218109,205.8320596218109,205.8320596218109,205.8320596218109,209.7330286502838,2,4.035356760025024,None,,,,,,,,,,,,,,,,,,191,5,2025-03-05_11h04.53.946,comp,2024.2.4,60.10667660251358,2025-03-05 11h05.04.158815 -0500,
39,39,0,filler_square,None,None,None,None,None,None,None,None,None,None,3,2.391842842102051,None,,,,,0,0,0,0,0,39,39,181,209.74859881401062,,,,,,,,,,,,,,,,,,,,,,,,,,,,,,,,,,,,,,,,,,,,,,,,,,,,,,,,,,,,,,,,,,,,,,,,,,,,,,,,,,147.48104886304358,127.27825163768442,120.8032817710985,127.14600405630338,191.3307733870612,191.3307733870612,1.0,1.1,-703,252,-480,274,-225,270,209.73396158218384,209.7340018749237,209.73607540130615,209.74859881401062,209.89888048171997,209.89888048171997,209.89888048171997,209.89888048171997,209.89888048171997,209.89888048171997,209.89888048171997,212.14999151229858,3,2.391842842102051,None,,,,,,,,,,,,,,,,,,191,5,2025-03-05_11h04.53.946,comp,2024.2.4,60.10667660251358,2025-03-05 11h05.04.158815 -0500,
40,40,0,filler_square,None,None,None,None,None,None,None,None,None,None,1,2.6220459938049316,None,,,,,0,0,0,0,0,40,40,186,212.1654236316681,,,,,,,,,,,,,,,,,,,,,,,,,,,,,,,,,,,,,,,,,,,,,,,,,,,,,,,,,,,,,,,,,,,,,,,,,,,,,,,,,,65.20920293812814,65.20920293812814,57.071617282891474,61.54190181096549,59.01387836636504,60.96437617764884,2.1,2.11,-159,265,0,282,157,-262,212.1509404182434,212.15098190307617,212.15327882766724,212.1654236316681,212.3151032924652,212.3151032924652,212.3151032924652,212.3151032924652,212.3151032924652,212.3151032924652,212.3151032924652,214.79982566833496,1,2.6220459938049316,None,,,,,,,,,,,,,,,,,,191,5,2025-03-05_11h04.53.946,comp,2024.2.4,60.10667660251358,2025-03-05 11h05.04.158815 -0500,
41,41,0,critical,hdw,20.0,3.0,upper,200.0,125.0,141.0,141.0,125.0,200.0,3,3.6142570972442627,None,,,,,0,0,0,0,0,41,41,117,214.81512141227722,,,,,,,,,,,,,,,,,,,,,,,,,,,,,,,,,,,,,,,,,,,,,,,,,,,,,,,,,,,,,,,,,,,,,,,,,,,,,,,,,,200.0,125.0,141.0,141.0,125.0,200.0,3.0,3.1,-229,262,0,19,266,-263,214.800621509552,214.80066299438477,214.80320596694946,214.81512141227722,214.96551203727722,214.96551203727722,214.96551203727722,214.96551203727722,214.96551203727722,214.96551203727722,214.96551203727722,218.43338775634766,3,3.6142570972442627,None,,,,,,,,,,,,,,,,,,191,5,2025-03-05_11h04.53.946,comp,2024.2.4,60.10667660251358,2025-03-05 11h05.04.158815 -0500,
42,42,0,filler_random,None,None,None,None,None,None,None,None,None,None,1,4.316542148590088,None,,,,,0,0,0,0,0,42,42,130,218.44880366325378,,,,,,,,,,,,,,,,,,,,,,,,,,,,,,,,,,,,,,,,,,,,,,,,,,,,,,,,,,,,,,,,,,,,,,,,,,,,,,,,,,164.08703694106254,83.4722425172532,93.54642568185872,150.84825116786303,110.51395250360052,74.6675557862068,1.0,1.1,-693,276,-480,265,-271,251,218.43429684638977,218.43433666229248,218.43643999099731,218.44880366325378,218.59874939918518,218.59874939918518,218.59874939918518,218.59874939918518,218.59874939918518,218.59874939918518,218.59874939918518,222.78295755386353,1,4.316542148590088,None,,,,,,,,,,,,,,,,,,191,5,2025-03-05_11h04.53.946,comp,2024.2.4,60.10667660251358,2025-03-05 11h05.04.158815 -0500,
43,43,0,critical,dhw,35.0,2.1,lower,70.0,70.0,133.0,57.0,57.0,133.0,3,4.901190757751465,None,,,,,0,0,0,0,0,43,43,0,222.79842710494995,,,,,,,,,,,,,,,,,,,,,,,,,,,,,,,,,,,,,,,,,,,,,,,,,,,,,,,,,,,,,,,,,,,,,,,,,,,,,,,,,,70.0,70.0,133.0,57.0,57.0,133.0,2.1,2.11,-160,257,0,268,191,-277,222.78375792503357,222.78379845619202,222.7858304977417,222.79842710494995,222.94851422309875,222.94851422309875,222.94851422309875,222.94851422309875,222.94851422309875,222.94851422309875,222.94851422309875,227.71633076667786,3,4.901190757751465,None,,,,,,,,,,,,,,,,,,191,5,2025-03-05_11h04.53.946,comp,2024.2.4,60.10667660251358,2025-03-05 11h05.04.158815 -0500,
44,44,0,critical,wdh,35.0,3.0,lower,57.0,133.0,70.0,70.0,133.0,57.0,1,3.0719311237335205,None,,,,,0,0,0,0,0,44,44,74,227.73158240318298,,,,,,,,,,,,,,,,,,,,,,,,,,,,,,,,,,,,,,,,,,,,,,,,,,,,,,,,,,,,,,,,,,,,,,,,,,,,,,,,,,57.0,133.0,70.0,70.0,133.0,57.0,3.0,3.1,-198,254,0,-14,160,-282,227.71710228919983,227.71714186668396,227.7195107936859,227.73158240318298,227.88184356689453,227.88184356689453,227.88184356689453,227.88184356689453,227.88184356689453,227.88184356689453,227.88184356689453,230.8162169456482,1,3.0719311237335205,None,,,,,,,,,,,,,,,,,,191,5,2025-03-05_11h04.53.946,comp,2024.2.4,60.10667660251358,2025-03-05 11h05.04.158815 -0500,
45,45,0,critical,dhw,20.0,2.1,lower,78.0,78.0,133.0,57.0,57.0,133.0,3,2.397791862487793,None,,,,,0,0,0,0,0,45,45,26,230.8316740989685,,,,,,,,,,,,,,,,,,,,,,,,,,,,,,,,,,,,,,,,,,,,,,,,,,,,,,,,,,,,,,,,,,,,,,,,,,,,,,,,,,78.0,78.0,133.0,57.0,57.0,133.0,2.1,2.12,-164,-252,0,-281,191,260,230.81700921058655,230.8170611858368,230.81939792633057,230.8316740989685,230.9817316532135,230.9817316532135,230.9817316532135,230.9817316532135,230.9817316532135,230.9817316532135,230.9817316532135,233.23299145698547,3,2.397791862487793,None,,,,,,,,,,,,,,,,,,191,5,2025-03-05_11h04.53.946,comp,2024.2.4,60.10667660251358,2025-03-05 11h05.04.158815 -0500,
46,46,0,critical,dwh,35.0,4.0,lower,70.0,70.0,57.0,133.0,133.0,57.0,3,7.171402931213379,None,,,,,0,0,0,0,0,46,46,64,233.24858355522156,,,,,,,,,,,,,,,,,,,,,,,,,,,,,,,,,,,,,,,,,,,,,,,,,,,,,,,,,,,,,,,,,,,,,,,,,,,,,,,,,,70.0,70.0,57.0,133.0,133.0,57.0,4.0,4.2,-198,-8,0,-263,191,7,233.2337474822998,233.2337851524353,233.23572087287903,233.24858355522156,233.3985788822174,233.3985788822174,233.3985788822174,233.3985788822174,233.3985788822174,233.3985788822174,233.3985788822174,240.4328465461731,3,7.171402931213379,None,,,,,,,,,,,,,,,,,,191,5,2025-03-05_11h04.53.946,comp,2024.2.4,60.10667660251358,2025-03-05 11h05.04.158815 -0500,
47,47,0,filler_square,None,None,None,None,None,None,None,None,None,None,1,1.196256399154663,None,,,,,0,0,0,0,0,47,47,198,240.44837355613708,,,,,,,,,,,,,,,,,,,,,,,,,,,,,,,,,,,,,,,,,,,,,,,,,,,,,,,,,,,,,,,,,,,,,,,,,,,,,,,,,,183.3178695704971,183.3178695704971,73.01676178692384,91.99244817718929,131.46000832142784,111.19670787332623,1.0,1.1,-714,286,-480,287,-282,282,240.4337739944458,240.43381476402283,240.43589758872986,240.44837355613708,240.59872794151306,240.59872794151306,240.59872794151306,240.59872794151306,240.59872794151306,240.59872794151306,240.59872794151306,241.64972734451294,1,1.196256399154663,None,,,,,,,,,,,,,,,,,,191,5,2025-03-05_11h04.53.946,comp,2024.2.4,60.10667660251358,2025-03-05 11h05.04.158815 -0500,
48,48,0,filler_square,None,None,None,None,None,None,None,None,None,None,2,1.105379581451416,None,,,,,0,0,0,0,0,48,48,199,241.6819305419922,,,,,,,,,,,,,,,,,,,,,,,,,,,,,,,,,,,,,,,,,,,,,,,,,,,,,,,,,,,,,,,,,,,,,,,,,,,,,,,,,,79.91970767235048,102.88341385169159,160.6587834496209,160.6587834496209,111.54628670286041,62.6771867340208,2.2,2.22,-228,279,0,-281,208,-276,241.6506781578064,241.65071868896484,241.6532826423645,241.6819305419922,241.81521224975586,241.81521224975586,241.81521224975586,241.81521224975586,241.81521224975586,241.81521224975586,241.81521224975586,242.7997260093689,2,1.105379581451416,None,,,,,,,,,,,,,,,,,,191,5,2025-03-05_11h04.53.946,comp,2024.2.4,60.10667660251358,2025-03-05 11h05.04.158815 -0500,
49,49,0,filler_square,None,None,None,None,None,None,None,None,None,None,3,0.9251718521118164,None,,,,,0,0,0,0,0,49,49,187,242.81503033638,,,,,,,,,,,,,,,,,,,,,,,,,,,,,,,,,,,,,,,,,,,,,,,,,,,,,,,,,,,,,,,,,,,,,,,,,,,,,,,,,,112.39052821734188,72.23236905307465,79.94467481528194,113.85233566355383,136.50112165954334,136.50112165954334,2.2,2.22,-189,264,0,-251,221,-280,242.80069756507874,242.80073738098145,242.80343532562256,242.81503033638,242.96528792381287,242.96528792381287,242.96528792381287,242.96528792381287,242.96528792381287,242.96528792381287,242.96528792381287,243.74962973594666,3,0.9251718521118164,None,,,,,,,,,,,,,,,,,,191,5,2025-03-05_11h04.53.946,comp,2024.2.4,60.10667660251358,2025-03-05 11h05.04.158815 -0500,
50,50,0,filler_square,None,None,None,None,None,None,None,None,None,None,1,1.0220551490783691,None,,,,,0,0,0,0,0,50,50,204,243.76529479026794,,,,,,,,,,,,,,,,,,,,,,,,,,,,,,,,,,,,,,,,,,,,,,,,,,,,,,,,,,,,,,,,,,,,,,,,,,,,,,,,,,170.2177694866935,170.2177694866935,138.08243289575978,112.82210978089753,140.93932234839838,107.98450558425523,2.1,2.12,-238,-277,0,-289,206,289,243.75072264671326,243.7507655620575,243.75290441513062,243.76529479026794,243.91520619392395,243.91520619392395,243.91520619392395,243.91520619392395,243.91520619392395,243.91520619392395,243.91520619392395,244.7998194694519,1,1.0220551490783691,None,,,,,,,,,,,,,,,,,,191,5,2025-03-05_11h04.53.946,comp,2024.2.4,60.10667660251358,2025-03-05 11h05.04.158815 -0500,
51,51,0,critical,dwh,35.0,2.1,lower,70.0,70.0,57.0,133.0,133.0,57.0,2,2.3091273307800293,None,,,,,0,0,0,0,0,51,51,28,244.81506443023682,,,,,,,,,,,,,,,,,,,,,,,,,,,,,,,,,,,,,,,,,,,,,,,,,,,,,,,,,,,,,,,,,,,,,,,,,,,,,,,,,,70.0,70.0,57.0,133.0,133.0,57.0,2.1,2.11,-198,260,0,285,191,-282,244.8006272315979,244.80066633224487,244.8027150630951,244.81506443023682,244.9653079509735,244.9653079509735,244.9653079509735,244.9653079509735,244.9653079509735,244.9653079509735,244.9653079509735,247.13271045684814,2,2.3091273307800293,None,,,,,,,,,,,,,,,,,,191,5,2025-03-05_11h04.53.946,comp,2024.2.4,60.10667660251358,2025-03-05 11h05.04.158815 -0500,
52,52,0,filler_square,None,None,None,None,None,None,None,None,None,None,3,1.433271884918213,None,,,,,0,0,0,0,0,52,52,191,247.1485776901245,,,,,,,,,,,,,,,,,,,,,,,,,,,,,,,,,,,,,,,,,,,,,,,,,,,,,,,,,,,,,,,,,,,,,,,,,,,,,,,,,,98.1929204926178,108.61153175855421,92.40302145987928,68.09416137520822,110.04018442605428,110.04018442605428,1.0,1.1,-664,257,-480,280,-295,257,247.13377952575684,247.13382077217102,247.13650512695312,247.1485776901245,247.2983193397522,247.2983193397522,247.2983193397522,247.2983193397522,247.2983193397522,247.2983193397522,247.2983193397522,248.59948348999023,3,1.433271884918213,None,,,,,,,,,,,,,,,,,,191,5,2025-03-05_11h04.53.946,comp,2024.2.4,60.10667660251358,2025-03-05 11h05.04.158815 -0500,
53,53,0,critical,hwd,20.0,2.1,lower,133.0,57.0,57.0,133.0,78.0,78.0,2,5.614108562469482,None,,,,,0,0,0,0,0,53,53,18,248.61486101150513,,,,,,,,,,,,,,,,,,,,,,,,,,,,,,,,,,,,,,,,,,,,,,,,,,,,,,,,,,,,,,,,,,,,,,,,,,,,,,,,,,133.0,57.0,57.0,133.0,78.0,78.0,2.1,2.12,-191,-263,0,-279,202,280,248.60026741027832,248.60030698776245,248.60272765159607,248.61486101150513,248.7650978565216,248.7650978565216,248.7650978565216,248.7650978565216,248.7650978565216,248.7650978565216,248.7650978565216,254.23293018341064,2,5.614108562469482,None,,,,,,,,,,,,,,,,,,191,5,2025-03-05_11h04.53.946,comp,2024.2.4,60.10667660251358,2025-03-05 11h05.04.158815 -0500,
54,54,0,critical,hdw,20.0,2.1,lower,133.0,57.0,78.0,78.0,57.0,133.0,3,2.4188506603240967,None,,,,,0,0,0,0,0,54,54,46,254.24853825569153,,,,,,,,,,,,,,,,,,,,,,,,,,,,,,,,,,,,,,,,,,,,,,,,,,,,,,,,,,,,,,,,,,,,,,,,,,,,,,,,,,133.0,57.0,78.0,78.0,57.0,133.0,2.1,2.11,-164,266,0,271,202,-276,254.23382687568665,254.233868598938,254.23597288131714,254.24853825569153,254.39824962615967,254.39824962615967,254.39824962615967,254.39824962615967,254.39824962615967,254.39824962615967,254.39824962615967,256.68286204338074,3,2.4188506603240967,None,,,,,,,,,,,,,,,,,,191,5,2025-03-05_11h04.53.946,comp,2024.2.4,60.10667660251358,2025-03-05 11h05.04.158815 -0500,
55,55,0,filler_random,None,None,None,None,None,None,None,None,None,None,1,1.050471305847168,None,,,,,0,0,0,0,0,55,55,140,256.69818139076233,,,,,,,,,,,,,,,,,,,,,,,,,,,,,,,,,,,,,,,,,,,,,,,,,,,,,,,,,,,,,,,,,,,,,,,,,,,,,,,,,,107.3181663326128,157.58286604763117,132.6621847587235,81.87002356608247,152.3475189797806,69.33567433030488,3.0,3.2,-216,-285,0,-13,172,253,256.68375635147095,256.68379640579224,256.6861307621002,256.69818139076233,256.8483455181122,256.8483455181122,256.8483455181122,256.8483455181122,256.8483455181122,256.8483455181122,256.8483455181122,257.76609325408936,1,1.050471305847168,None,,,,,,,,,,,,,,,,,,191,5,2025-03-05_11h04.53.946,comp,2024.2.4,60.10667660251358,2025-03-05 11h05.04.158815 -0500,
56,56,0,critical,wdh,20.0,3.0,upper,125.0,200.0,141.0,141.0,200.0,125.0,1,2.3838412761688232,None,,,,,0,0,0,0,0,56,56,81,257.78148007392883,,,,,,,,,,,,,,,,,,,,,,,,,,,,,,,,,,,,,,,,,,,,,,,,,,,,,,,,,,,,,,,,,,,,,,,,,,,,,,,,,,125.0,200.0,141.0,141.0,200.0,125.0,3.0,3.2,-266,-279,0,-20,229,259,257.7669131755829,257.7669541835785,257.76932549476624,257.78148007392883,257.9320523738861,257.9320523738861,257.9320523738861,257.9320523738861,257.9320523738861,257.9320523738861,257.9320523738861,260.1829433441162,1,2.3838412761688232,None,,,,,,,,,,,,,,,,,,191,5,2025-03-05_11h04.53.946,comp,2024.2.4,60.10667660251358,2025-03-05 11h05.04.158815 -0500,
57,57,0,filler_random,None,None,None,None,None,None,None,None,None,None,2,1.9341530799865723,None,,,,,0,0,0,0,0,57,57,136,260.19815826416016,,,,,,,,,,,,,,,,,,,,,,,,,,,,,,,,,,,,,,,,,,,,,,,,,,,,,,,,,,,,,,,,,,,,,,,,,,,,,,,,,,168.74440707050059,109.47917532075809,185.94470285998412,159.9387069063916,166.61038847024503,175.63173954613845,4.0,4.2,-231,-15,0,-281,264,3,260.18387246131897,260.1839134693146,260.1861891746521,260.19815826416016,260.34845638275146,260.34845638275146,260.34845638275146,260.34845638275146,260.34845638275146,260.34845638275146,260.34845638275146,262.1496226787567,2,1.9341530799865723,None,,,,,,,,,,,,,,,,,,191,5,2025-03-05_11h04.53.946,comp,2024.2.4,60.10667660251358,2025-03-05 11h05.04.158815 -0500,
58,58,0,critical,hdw,35.0,1.0,lower,133.0,57.0,70.0,70.0,57.0,133.0,1,1.8862216472625732,None,,,,,0,0,0,0,0,58,58,108,262.1649446487427,,,,,,,,,,,,,,,,,,,,,,,,,,,,,,,,,,,,,,,,,,,,,,,,,,,,,,,,,,,,,,,,,,,,,,,,,,,,,,,,,,133.0,57.0,70.0,70.0,57.0,133.0,1.0,1.1,-640,257,-480,261,-282,262,262.15039587020874,262.1504361629486,262.1528830528259,262.1649446487427,262.31498074531555,262.31498074531555,262.31498074531555,262.31498074531555,262.31498074531555,262.31498074531555,262.31498074531555,264.0659201145172,1,1.8862216472625732,None,,,,,,,,,,,,,,,,,,191,5,2025-03-05_11h04.53.946,comp,2024.2.4,60.10667660251358,2025-03-05 11h05.04.158815 -0500,
59,59,0,filler_random,None,None,None,None,None,None,None,None,None,None,1,1.817809820175171,None,,,,,0,0,0,0,0,59,59,156,264.0814628601074,,,,,,,,,,,,,,,,,,,,,,,,,,,,,,,,,,,,,,,,,,,,,,,,,,,,,,,,,,,,,,,,,,,,,,,,,,,,,,,,,,136.32833134193314,141.4181090859866,74.6102010244006,160.31383018366006,92.75764818202165,142.4166042527032,3.0,3.1,-247,264,0,15,247,-276,264.0668218135834,264.0668640136719,264.0691776275635,264.0814628601074,264.2317042350769,264.2317042350769,264.2317042350769,264.2317042350769,264.2317042350769,264.2317042350769,264.2317042350769,265.91616654396057,1,1.817809820175171,None,,,,,,,,,,,,,,,,,,191,5,2025-03-05_11h04.53.946,comp,2024.2.4,60.10667660251358,2025-03-05 11h05.04.158815 -0500,
60,60,0,critical,hwd,35.0,2.1,lower,133.0,57.0,57.0,133.0,70.0,70.0,1,2.528599500656128,None,,,,,0,0,0,0,0,60,60,40,265.93147802352905,,,,,,,,,,,,,,,,,,,,,,,,,,,,,,,,,,,,,,,,,,,,,,,,,,,,,,,,,,,,,,,,,,,,,,,,,,,,,,,,,,133.0,57.0,57.0,133.0,70.0,70.0,2.1,2.12,-191,-276,0,-286,198,280,265.9169433116913,265.91698479652405,265.91912364959717,265.93147802352905,266.08164954185486,266.08164954185486,266.08164954185486,266.08164954185486,266.08164954185486,266.08164954185486,266.08164954185486,268.46610713005066,1,2.528599500656128,None,,,,,,,,,,,,,,,,,,191,5,2025-03-05_11h04.53.946,comp,2024.2.4,60.10667660251358,2025-03-05 11h05.04.158815 -0500,
61,61,0,critical,wdh,20.0,2.1,lower,57.0,133.0,78.0,78.0,133.0,57.0,2,2.099994421005249,None,,,,,0,0,0,0,0,61,61,10,268.48160672187805,,,,,,,,,,,,,,,,,,,,,,,,,,,,,,,,,,,,,,,,,,,,,,,,,,,,,,,,,,,,,,,,,,,,,,,,,,,,,,,,,,57.0,133.0,78.0,78.0,133.0,57.0,2.1,2.11,-202,264,0,277,164,-251,268.4668445587158,268.4668822288513,268.46887850761414,268.48160672187805,268.63153409957886,268.63153409957886,268.63153409957886,268.63153409957886,268.63153409957886,268.63153409957886,268.63153409957886,270.59934282302856,2,2.099994421005249,None,,,,,,,,,,,,,,,,,,191,5,2025-03-05_11h04.53.946,comp,2024.2.4,60.10667660251358,2025-03-05 11h05.04.158815 -0500,
62,62,0,filler_random,None,None,None,None,None,None,None,None,None,None,3,7.325393199920654,None,,,,,0,0,0,0,0,62,62,163,270.6147291660309,,,,,,,,,,,,,,,,,,,,,,,,,,,,,,,,,,,,,,,,,,,,,,,,,,,,,,,,,,,,,,,,,,,,,,,,,,,,,,,,,,136.40160753088819,121.67522123045012,151.65046128553485,126.06958707530374,174.386174600718,104.28249126479054,2.2,2.21,-220,-272,0,261,211,269,270.6002457141876,270.60028743743896,270.6026771068573,270.6147291660309,270.76490902900696,270.76490902900696,270.76490902900696,270.76490902900696,270.76490902900696,270.76490902900696,270.76490902900696,277.9494514465332,3,7.325393199920654,None,,,,,,,,,,,,,,,,,,191,5,2025-03-05_11h04.53.946,comp,2024.2.4,60.10667660251358,2025-03-05 11h05.04.158815 -0500,
63,63,0,filler_random,None,None,None,None,None,None,None,None,None,None,1,2.463489294052124,None,,,,,0,0,0,0,0,63,63,169,277.9651165008545,,,,,,,,,,,,,,,,,,,,,,,,,,,,,,,,,,,,,,,,,,,,,,,,,,,,,,,,,,,,,,,,,,,,,,,,,,,,,,,,,,191.67637017950136,120.26334313039942,186.07983420436682,95.07071227934027,108.97165213990444,181.3525063250874,2.1,2.12,-204,-264,0,-280,234,257,277.9503607749939,277.95040225982666,277.95285296440125,277.9651165008545,278.11515045166016,278.11515045166016,278.11515045166016,278.11515045166016,278.11515045166016,278.11515045166016,278.11515045166016,280.4328896999359,1,2.463489294052124,None,,,,,,,,,,,,,,,,,,191,5,2025-03-05_11h04.53.946,comp,2024.2.4,60.10667660251358,2025-03-05 11h05.04.158815 -0500,
64,64,0,filler_random,None,None,None,None,None,None,None,None,None,None,3,1.6274123191833496,None,,,,,0,0,0,0,0,64,64,166,280.44850635528564,,,,,,,,,,,,,,,,,,,,,,,,,,,,,,,,,,,,,,,,,,,,,,,,,,,,,,,,,,,,,,,,,,,,,,,,,,,,,,,,,,83.41274037458386,63.61704909187446,96.37320043410939,67.9433295168948,120.25895178748652,166.51196317098646,2.2,2.21,-162,-277,0,265,213,266,280.433798789978,280.43383955955505,280.4363408088684,280.44850635528564,280.5981411933899,280.5981411933899,280.5981411933899,280.5981411933899,280.5981411933899,280.5981411933899,280.5981411933899,282.0825448036194,3,1.6274123191833496,None,,,,,,,,,,,,,,,,,,191,5,2025-03-05_11h04.53.946,comp,2024.2.4,60.10667660251358,2025-03-05 11h05.04.158815 -0500,
65,65,0,critical,hwd,20.0,3.0,upper,200.0,125.0,125.0,200.0,141.0,141.0,2,2.8010947704315186,None,,,,,0,0,0,0,0,65,65,105,282.09813356399536,,,,,,,,,,,,,,,,,,,,,,,,,,,,,,,,,,,,,,,,,,,,,,,,,,,,,,,,,,,,,,,,,,,,,,,,,,,,,,,,,,200.0,125.0,125.0,200.0,141.0,141.0,3.0,3.2,-258,-289,0,-2,266,253,282.0833101272583,282.08335065841675,282.08593487739563,282.09813356399536,282.2484152317047,282.2484152317047,282.2484152317047,282.2484152317047,282.2484152317047,282.2484152317047,282.2484152317047,284.91601610183716,2,2.8010947704315186,None,,,,,,,,,,,,,,,,,,191,5,2025-03-05_11h04.53.946,comp,2024.2.4,60.10667660251358,2025-03-05 11h05.04.158815 -0500,
66,66,0,critical,whd,35.0,2.1,lower,57.0,133.0,133.0,57.0,70.0,70.0,2,4.751945734024048,None,,,,,0,0,0,0,0,66,66,36,284.931289434433,,,,,,,,,,,,,,,,,,,,,,,,,,,,,,,,,,,,,,,,,,,,,,,,,,,,,,,,,,,,,,,,,,,,,,,,,,,,,,,,,,57.0,133.0,133.0,57.0,70.0,70.0,2.1,2.12,-191,-264,0,-270,160,274,284.9168186187744,284.9168586730957,284.91891288757324,284.931289434433,285.0813694000244,285.0813694000244,285.0813694000244,285.0813694000244,285.0813694000244,285.0813694000244,285.0813694000244,289.6990702152252,2,4.751945734024048,None,,,,,,,,,,,,,,,,,,191,5,2025-03-05_11h04.53.946,comp,2024.2.4,60.10667660251358,2025-03-05 11h05.04.158815 -0500,
67,67,0,critical,dwh,20.0,2.1,lower,78.0,78.0,57.0,133.0,133.0,57.0,1,4.529755115509033,None,,,,,0,0,0,0,0,67,67,6,289.7147288322449,,,,,,,,,,,,,,,,,,,,,,,,,,,,,,,,,,,,,,,,,,,,,,,,,,,,,,,,,,,,,,,,,,,,,,,,,,,,,,,,,,78.0,78.0,57.0,133.0,133.0,57.0,2.1,2.11,-202,252,0,251,191,-283,289.6998701095581,289.699910402298,289.7022268772125,289.7147288322449,289.86476850509644,289.86476850509644,289.86476850509644,289.86476850509644,289.86476850509644,289.86476850509644,289.86476850509644,294.24922704696655,1,4.529755115509033,None,,,,,,,,,,,,,,,,,,191,5,2025-03-05_11h04.53.946,comp,2024.2.4,60.10667660251358,2025-03-05 11h05.04.158815 -0500,
68,68,0,critical,hdw,35.0,2.1,lower,133.0,57.0,70.0,70.0,57.0,133.0,3,6.218406677246094,None,,,,,0,0,0,0,0,68,68,20,294.26473116874695,,,,,,,,,,,,,,,,,,,,,,,,,,,,,,,,,,,,,,,,,,,,,,,,,,,,,,,,,,,,,,,,,,,,,,,,,,,,,,,,,,133.0,57.0,70.0,70.0,57.0,133.0,2.1,2.11,-160,265,0,257,198,-266,294.24999952316284,294.2500538825989,294.2520823478699,294.26473116874695,294.41461157798767,294.41461157798767,294.41461157798767,294.41461157798767,294.41461157798767,294.41461157798767,294.41461157798767,300.4991834163666,3,6.218406677246094,None,,,,,,,,,,,,,,,,,,191,5,2025-03-05_11h04.53.946,comp,2024.2.4,60.10667660251358,2025-03-05 11h05.04.158815 -0500,
69,69,0,filler_random,None,None,None,None,None,None,None,None,None,None,2,4.456310510635376,None,,,,,0,0,0,0,0,69,69,135,300.5145354270935,,,,,,,,,,,,,,,,,,,,,,,,,,,,,,,,,,,,,,,,,,,,,,,,,,,,,,,,,,,,,,,,,,,,,,,,,,,,,,,,,,58.51151166227305,95.30218019867377,142.58884329398518,127.25346768522566,134.192173893553,65.90725316093386,2.2,2.22,-207,269,0,-251,193,-282,300.5000786781311,300.50012135505676,300.503399848938,300.5145354270935,300.66473150253296,300.66473150253296,300.66473150253296,300.66473150253296,300.66473150253296,300.66473150253296,300.66473150253296,304.98232436180115,2,4.456310510635376,None,,,,,,,,,,,,,,,,,,191,5,2025-03-05_11h04.53.946,comp,2024.2.4,60.10667660251358,2025-03-05 11h05.04.158815 -0500,
70,70,0,catch,None,None,None,None,None,None,None,None,None,None,2,0.7578701972961426,None,,,,,0,0,0,0,0,70,70,125,304.9982087612152,,,,,,,,,,,,,,,,,,,,,,,,,,,,,,,,,,,,,,,,,,,,,,,,,,,,,,,,,,,,,,,,,,,,,,,,,,,,,,,,,,97,93,165,160,83,107,2.2,2.21,-222,-266,0,287,230,283,304.98335576057434,304.9833993911743,304.9858510494232,304.9982087612152,305.1481568813324,305.1481568813324,305.1481568813324,305.1481568813324,305.1481568813324,305.1481568813324,305.1481568813324,305.76593565940857,2,0.7578701972961426,None,,,,,,,,,,,,,,,,,,191,5,2025-03-05_11h04.53.946,comp,2024.2.4,60.10667660251358,2025-03-05 11h05.04.158815 -0500,
71,71,0,filler_square,None,None,None,None,None,None,None,None,None,None,2,0.733637809753418,None,,,,,0,0,0,0,0,71,71,200,305.7815387248993,,,,,,,,,,,,,,,,,,,,,,,,,,,,,,,,,,,,,,,,,,,,,,,,,,,,,,,,,,,,,,,,,,,,,,,,,,,,,,,,,,71.07522307756147,64.83273614489595,159.4554650924194,159.4554650924194,112.7407005941387,85.51762401257427,2.2,2.22,-208,283,0,-256,218,-263,305.76692724227905,305.7669675350189,305.76950001716614,305.7815387248993,305.93129301071167,305.93129301071167,305.93129301071167,305.93129301071167,305.93129301071167,305.93129301071167,305.93129301071167,306.5323143005371,2,0.733637809753418,None,,,,,,,,,,,,,,,,,,191,5,2025-03-05_11h04.53.946,comp,2024.2.4,60.10667660251358,2025-03-05 11h05.04.158815 -0500,
72,72,0,catch,None,None,None,None,None,None,None,None,None,None,1,0.8550891876220703,None,,,,,0,0,0,0,0,72,72,126,306.5477843284607,,,,,,,,,,,,,,,,,,,,,,,,,,,,,,,,,,,,,,,,,,,,,,,,,,,,,,,,,,,,,,,,,,,,,,,,,,,,,,,,,,172,153,129,61,85,105,2.2,2.22,-203,287,0,-251,179,-283,306.5333549976349,306.53339672088623,306.53582739830017,306.5477843284607,306.69801020622253,306.69801020622253,306.69801020622253,306.69801020622253,306.69801020622253,306.69801020622253,306.69801020622253,307.4157712459564,1,0.8550891876220703,None,,,,,,,,,,,,,,,,,,191,5,2025-03-05_11h04.53.946,comp,2024.2.4,60.10667660251358,2025-03-05 11h05.04.158815 -0500,
73,73,0,critical,dwh,35.0,2.1,upper,127.0,127.0,125.0,200.0,200.0,125.0,2,3.1827714443206787,None,,,,,0,0,0,0,0,73,73,5,307.4311668872833,,,,,,,,,,,,,,,,,,,,,,,,,,,,,,,,,,,,,,,,,,,,,,,,,,,,,,,,,,,,,,,,,,,,,,,,,,,,,,,,,,127.0,127.0,125.0,200.0,200.0,125.0,2.1,2.11,-260,252,0,284,258,-281,307.41655468940735,307.4165949821472,307.41909623146057,307.4311668872833,307.581503868103,307.581503868103,307.581503868103,307.581503868103,307.581503868103,307.581503868103,307.581503868103,310.6162052154541,2,3.1827714443206787,None,,,,,,,,,,,,,,,,,,191,5,2025-03-05_11h04.53.946,comp,2024.2.4,60.10667660251358,2025-03-05 11h05.04.158815 -0500,
74,74,0,critical,dwh,20.0,4.0,upper,141.0,141.0,125.0,200.0,200.0,125.0,2,3.660337209701538,None,,,,,0,0,0,0,0,74,74,71,310.6314537525177,,,,,,,,,,,,,,,,,,,,,,,,,,,,,,,,,,,,,,,,,,,,,,,,,,,,,,,,,,,,,,,,,,,,,,,,,,,,,,,,,,141.0,141.0,125.0,200.0,200.0,125.0,4.0,4.1,-266,-252,0,9,258,-283,310.61698174476624,310.61702156066895,310.6191728115082,310.6314537525177,310.7815227508545,310.7815227508545,310.7815227508545,310.7815227508545,310.7815227508545,310.7815227508545,310.7815227508545,314.2992525100708,2,3.660337209701538,None,,,,,,,,,,,,,,,,,,191,5,2025-03-05_11h04.53.946,comp,2024.2.4,60.10667660251358,2025-03-05 11h05.04.158815 -0500,
75,75,0,filler_random,None,None,None,None,None,None,None,None,None,None,2,1.2333250045776367,None,,,,,0,0,0,0,0,75,75,137,314.31481885910034,,,,,,,,,,,,,,,,,,,,,,,,,,,,,,,,,,,,,,,,,,,,,,,,,,,,,,,,,,,,,,,,,,,,,,,,,,,,,,,,,,143.0028398780791,101.49539316868098,127.88771260964172,172.94827655036062,104.30020047713072,77.69853472341796,2.1,2.12,-233,-263,0,-275,221,280,314.3001461029053,314.3001835346222,314.3025002479553,314.31481885910034,314.46483755111694,314.46483755111694,314.46483755111694,314.46483755111694,314.46483755111694,314.46483755111694,314.46483755111694,315.5493187904358,2,1.2333250045776367,None,,,,,,,,,,,,,,,,,,191,5,2025-03-05_11h04.53.946,comp,2024.2.4,60.10667660251358,2025-03-05 11h05.04.158815 -0500,
76,76,0,filler_random,None,None,None,None,None,None,None,None,None,None,3,1.8000280857086182,None,,,,,0,0,0,0,0,76,76,160,315.5646755695343,,,,,,,,,,,,,,,,,,,,,,,,,,,,,,,,,,,,,,,,,,,,,,,,,,,,,,,,,,,,,,,,,,,,,,,,,,,,,,,,,,68.71670864907321,140.9633989613447,85.61988118190638,131.68483843529023,87.31395338108383,161.22816452718732,3.0,3.1,-232,279,0,-19,242,-253,315.55024552345276,315.5503001213074,315.55312061309814,315.5646755695343,315.71471071243286,315.71471071243286,315.71471071243286,315.71471071243286,315.71471071243286,315.71471071243286,315.71471071243286,317.382287979126,3,1.8000280857086182,None,,,,,,,,,,,,,,,,,,191,5,2025-03-05_11h04.53.946,comp,2024.2.4,60.10667660251358,2025-03-05 11h05.04.158815 -0500,
77,77,0,critical,hwd,20.0,4.0,lower,133.0,57.0,57.0,133.0,78.0,78.0,2,3.0779333114624023,None,,,,,0,0,0,0,0,77,77,106,317.39769768714905,,,,,,,,,,,,,,,,,,,,,,,,,,,,,,,,,,,,,,,,,,,,,,,,,,,,,,,,,,,,,,,,,,,,,,,,,,,,,,,,,,133.0,57.0,57.0,133.0,78.0,78.0,4.0,4.2,-191,6,0,-257,202,15,317.3830187320709,317.38306999206543,317.38536977767944,317.39769768714905,317.5478551387787,317.5478551387787,317.5478551387787,317.5478551387787,317.5478551387787,317.5478551387787,317.5478551387787,320.4822416305542,2,3.0779333114624023,None,,,,,,,,,,,,,,,,,,191,5,2025-03-05_11h04.53.946,comp,2024.2.4,60.10667660251358,2025-03-05 11h05.04.158815 -0500,
78,78,0,critical,dhw,35.0,3.0,upper,127.0,127.0,200.0,125.0,125.0,200.0,2,0.968986988067627,None,,,,,0,0,0,0,0,78,78,51,320.49802565574646,,,,,,,,,,,,,,,,,,,,,,,,,,,,,,,,,,,,,,,,,,,,,,,,,,,,,,,,,,,,,,,,,,,,,,,,,,,,,,,,,,127.0,127.0,200.0,125.0,125.0,200.0,3.0,3.1,-222,254,0,19,258,-261,320.4830560684204,320.4830985069275,320.48642086982727,320.49802565574646,320.6480505466461,320.6480505466461,320.6480505466461,320.6480505466461,320.6480505466461,320.6480505466461,320.6480505466461,321.4824957847595,2,0.968986988067627,None,,,,,,,,,,,,,,,,,,191,5,2025-03-05_11h04.53.946,comp,2024.2.4,60.10667660251358,2025-03-05 11h05.04.158815 -0500,
79,79,0,filler_square,None,None,None,None,None,None,None,None,None,None,1,1.1619656085968018,None,,,,,0,0,0,0,0,79,79,172,321.4977068901062,,,,,,,,,,,,,,,,,,,,,,,,,,,,,,,,,,,,,,,,,,,,,,,,,,,,,,,,,,,,,,,,,,,,,,,,,,,,,,,,,,150.22636813730492,150.22636813730492,143.56570689622316,110.38711487763936,117.68432216324803,129.80611036558372,4.0,4.1,-226,-269,0,15,216,-288,321.4835612773895,321.48360323905945,321.4859960079193,321.4977068901062,321.6479797363281,321.6479797363281,321.6479797363281,321.6479797363281,321.6479797363281,321.6479797363281,321.6479797363281,322.66667890548706,1,1.1619656085968018,None,,,,,,,,,,,,,,,,,,191,5,2025-03-05_11h04.53.946,comp,2024.2.4,60.10667660251358,2025-03-05 11h05.04.158815 -0500,
80,80,0,filler_random,None,None,None,None,None,None,None,None,None,None,2,1.1841106414794922,None,,,,,0,0,0,0,0,80,80,133,322.682697057724,,,,,,,,,,,,,,,,,,,,,,,,,,,,,,,,,,,,,,,,,,,,,,,,,,,,,,,,,,,,,,,,,,,,,,,,,,,,,,,,,,194.29140330907333,109.87372598917426,183.84707626850698,169.3809424036099,187.5486911506699,137.12082169044595,2.2,2.22,-236,265,0,-286,249,-275,322.66807770729065,322.6681363582611,322.67082834243774,322.682697057724,322.83150815963745,322.83150815963745,322.83150815963745,322.83150815963745,322.83150815963745,322.83150815963745,322.83150815963745,323.882520198822,2,1.1841106414794922,None,,,,,,,,,,,,,,,,,,191,5,2025-03-05_11h04.53.946,comp,2024.2.4,60.10667660251358,2025-03-05 11h05.04.158815 -0500,
81,81,0,filler_random,None,None,None,None,None,None,None,None,None,None,2,0.905048131942749,None,,,,,0,0,0,0,0,81,81,131,323.89773654937744,,,,,,,,,,,,,,,,,,,,,,,,,,,,,,,,,,,,,,,,,,,,,,,,,,,,,,,,,,,,,,,,,,,,,,,,,,,,,,,,,,146.92816564976758,184.56695050339738,191.75351354474412,189.47908790246134,163.04294362847085,169.58835005130675,2.2,2.21,-283,-264,0,272,276,289,323.88346791267395,323.8835082054138,323.88561177253723,323.89773654937744,324.04814863204956,324.04814863204956,324.04814863204956,324.04814863204956,324.04814863204956,324.04814863204956,324.04814863204956,324.8160569667816,2,0.905048131942749,None,,,,,,,,,,,,,,,,,,191,5,2025-03-05_11h04.53.946,comp,2024.2.4,60.10667660251358,2025-03-05 11h05.04.158815 -0500,
82,82,0,filler_square,None,None,None,None,None,None,None,None,None,None,3,4.908412456512451,None,,,,,0,0,0,0,0,82,82,207,324.831170797348,,,,,,,,,,,,,,,,,,,,,,,,,,,,,,,,,,,,,,,,,,,,,,,,,,,,,,,,,,,,,,,,,,,,,,,,,,,,,,,,,,63.873579746164914,61.99824640518676,60.35574908785337,65.048363625522,67.87819663114885,67.87819663114885,2.1,2.12,-160,-280,0,-265,162,284,324.81701922416687,324.81707072257996,324.8191750049591,324.831170797348,324.9811940193176,324.9811940193176,324.9811940193176,324.9811940193176,324.9811940193176,324.9811940193176,324.9811940193176,329.748815536499,3,4.908412456512451,None,,,,,,,,,,,,,,,,,,191,5,2025-03-05_11h04.53.946,comp,2024.2.4,60.10667660251358,2025-03-05 11h05.04.158815 -0500,
83,83,0,critical,hdw,35.0,3.0,lower,133.0,57.0,70.0,70.0,57.0,133.0,3,2.5268661975860596,None,,,,,0,0,0,0,0,83,83,110,329.76464915275574,,,,,,,,,,,,,,,,,,,,,,,,,,,,,,,,,,,,,,,,,,,,,,,,,,,,,,,,,,,,,,,,,,,,,,,,,,,,,,,,,,133.0,57.0,70.0,70.0,57.0,133.0,3.0,3.2,-160,-277,0,4,198,250,329.7495894432068,329.7496283054352,329.7521598339081,329.76464915275574,329.9144494533539,329.9144494533539,329.9144494533539,329.9144494533539,329.9144494533539,329.9144494533539,329.9144494533539,332.2988028526306,3,2.5268661975860596,None,,,,,,,,,,,,,,,,,,191,5,2025-03-05_11h04.53.946,comp,2024.2.4,60.10667660251358,2025-03-05 11h05.04.158815 -0500,
84,84,0,filler_square,None,None,None,None,None,None,None,None,None,None,1,0.8667128086090088,None,,,,,0,0,0,0,0,84,84,197,332.31455755233765,,,,,,,,,,,,,,,,,,,,,,,,,,,,,,,,,,,,,,,,,,,,,,,,,,,,,,,,,,,,,,,,,,,,,,,,,,,,,,,,,,142.1855506075724,142.1855506075724,115.74663739341241,60.0494293661728,67.42053381631366,57.73567156487742,2.2,2.22,-197,261,0,-267,155,-277,332.2997782230377,332.2998194694519,332.3024139404297,332.31455755233765,332.4644920825958,332.4644920825958,332.4644920825958,332.4644920825958,332.4644920825958,332.4644920825958,332.4644920825958,333.1824457645416,1,0.8667128086090088,None,,,,,,,,,,,,,,,,,,191,5,2025-03-05_11h04.53.946,comp,2024.2.4,60.10667660251358,2025-03-05 11h05.04.158815 -0500,
85,85,0,critical,dhw,35.0,3.0,lower,70.0,70.0,133.0,57.0,57.0,133.0,3,2.3888237476348877,None,,,,,0,0,0,0,0,85,85,50,333.19786167144775,,,,,,,,,,,,,,,,,,,,,,,,,,,,,,,,,,,,,,,,,,,,,,,,,,,,,,,,,,,,,,,,,,,,,,,,,,,,,,,,,,70.0,70.0,133.0,57.0,57.0,133.0,3.0,3.1,-160,265,0,10,191,-265,333.1832344532013,333.18327498435974,333.1853482723236,333.19786167144775,333.3476474285126,333.3476474285126,333.3476474285126,333.3476474285126,333.3476474285126,333.3476474285126,333.3476474285126,335.59899401664734,3,2.3888237476348877,None,,,,,,,,,,,,,,,,,,191,5,2025-03-05_11h04.53.946,comp,2024.2.4,60.10667660251358,2025-03-05 11h05.04.158815 -0500,
86,86,0,catch,None,None,None,None,None,None,None,None,None,None,3,1.4294850826263428,None,,,,,0,0,0,0,0,86,86,129,335.61435985565186,,,,,,,,,,,,,,,,,,,,,,,,,,,,,,,,,,,,,,,,,,,,,,,,,,,,,,,,,,,,,,,,,,,,,,,,,,,,,,,,,,95,95,63,127,197,128,1.0,1.1,-687,273,-480,280,-256,257,335.6000473499298,335.6000895500183,335.602153301239,335.61435985565186,335.7645559310913,335.7645559310913,335.7645559310913,335.7645559310913,335.7645559310913,335.7645559310913,335.7645559310913,337.0489933490753,3,1.4294850826263428,None,,,,,,,,,,,,,,,,,,191,5,2025-03-05_11h04.53.946,comp,2024.2.4,60.10667660251358,2025-03-05 11h05.04.158815 -0500,
87,87,0,filler_square,None,None,None,None,None,None,None,None,None,None,2,1.522141933441162,None,,,,,0,0,0,0,0,87,87,175,337.06454253196716,,,,,,,,,,,,,,,,,,,,,,,,,,,,,,,,,,,,,,,,,,,,,,,,,,,,,,,,,,,,,,,,,,,,,,,,,,,,,,,,,,150.68290908615495,177.3031763439144,191.82138025014598,191.82138025014598,186.42619484875684,97.99886366340408,1.0,1.3,199,-254,480,-273,721,-279,337.04996705055237,337.0500075817108,337.0521283149719,337.06454253196716,337.2147228717804,337.2147228717804,337.2147228717804,337.2147228717804,337.2147228717804,337.2147228717804,337.2147228717804,338.59919023513794,2,1.522141933441162,None,,,,,,,,,,,,,,,,,,191,5,2025-03-05_11h04.53.946,comp,2024.2.4,60.10667660251358,2025-03-05 11h05.04.158815 -0500,
88,88,0,critical,wdh,35.0,2.1,lower,57.0,133.0,70.0,70.0,133.0,57.0,1,1.852440595626831,None,,,,,0,0,0,0,0,88,88,8,338.61425161361694,,,,,,,,,,,,,,,,,,,,,,,,,,,,,,,,,,,,,,,,,,,,,,,,,,,,,,,,,,,,,,,,,,,,,,,,,,,,,,,,,,57.0,133.0,70.0,70.0,133.0,57.0,2.1,2.11,-198,268,0,277,160,-270,338.599977016449,338.600017786026,338.6021273136139,338.61425161361694,338.76437163352966,338.76437163352966,338.76437163352966,338.76437163352966,338.76437163352966,338.76437163352966,338.76437163352966,340.482120513916,1,1.852440595626831,None,,,,,,,,,,,,,,,,,,191,5,2025-03-05_11h04.53.946,comp,2024.2.4,60.10667660251358,2025-03-05 11h05.04.158815 -0500,
89,89,0,critical,dwh,20.0,2.1,upper,141.0,141.0,125.0,200.0,200.0,125.0,2,2.4421112537384033,None,,,,,0,0,0,0,0,89,89,31,340.49759340286255,,,,,,,,,,,,,,,,,,,,,,,,,,,,,,,,,,,,,,,,,,,,,,,,,,,,,,,,,,,,,,,,,,,,,,,,,,,,,,,,,,141.0,141.0,125.0,200.0,200.0,125.0,2.1,2.12,-266,-282,0,-289,258,263,340.48290634155273,340.4829468727112,340.4852554798126,340.49759340286255,340.6478385925293,340.6478385925293,340.6478385925293,340.6478385925293,340.6478385925293,340.6478385925293,340.6478385925293,342.94911670684814,2,2.4421112537384033,None,,,,,,,,,,,,,,,,,,191,5,2025-03-05_11h04.53.946,comp,2024.2.4,60.10667660251358,2025-03-05 11h05.04.158815 -0500,
90,90,0,filler_square,None,None,None,None,None,None,None,None,None,None,1,3.791368246078491,None,,,,,0,0,0,0,0,90,90,185,342.9646008014679,,,,,,,,,,,,,,,,,,,,,,,,,,,,,,,,,,,,,,,,,,,,,,,,,,,,,,,,,,,,,,,,,,,,,,,,,,,,,,,,,,64.8407985283663,64.8407985283663,63.351360572194935,59.30967542750776,62.74558283001092,60.38474364507537,3.0,3.2,-158,-260,0,4,156,288,342.9500584602356,342.9501004219055,342.95241618156433,342.9646008014679,343.1142358779907,343.1142358779907,343.1142358779907,343.1142358779907,343.1142358779907,343.1142358779907,343.1142358779907,346.7653441429138,1,3.791368246078491,None,,,,,,,,,,,,,,,,,,191,5,2025-03-05_11h04.53.946,comp,2024.2.4,60.10667660251358,2025-03-05 11h05.04.158815 -0500,
91,91,0,filler_random,None,None,None,None,None,None,None,None,None,None,1,3.301515817642212,None,,,,,0,0,0,0,0,91,91,154,346.78115916252136,,,,,,,,,,,,,,,,,,,,,,,,,,,,,,,,,,,,,,,,,,,,,,,,,,,,,,,,,,,,,,,,,,,,,,,,,,,,,,,,,,196.77186841511391,123.7549254794195,93.56196512148135,136.71587568975218,119.31435157174317,176.24274143510587,3.0,3.2,-226,-271,0,-11,252,288,346.76623821258545,346.766277551651,346.7687289714813,346.78115916252136,346.9312090873718,346.9312090873718,346.9312090873718,346.9312090873718,346.9312090873718,346.9312090873718,346.9312090873718,350.0989990234375,1,3.301515817642212,None,,,,,,,,,,,,,,,,,,191,5,2025-03-05_11h04.53.946,comp,2024.2.4,60.10667660251358,2025-03-05 11h05.04.158815 -0500,
92,92,0,critical,dwh,35.0,2.1,lower,70.0,70.0,57.0,133.0,133.0,57.0,2,4.320514678955078,None,,,,,0,0,0,0,0,92,92,4,350.11416387557983,,,,,,,,,,,,,,,,,,,,,,,,,,,,,,,,,,,,,,,,,,,,,,,,,,,,,,,,,,,,,,,,,,,,,,,,,,,,,,,,,,70.0,70.0,57.0,133.0,133.0,57.0,2.1,2.12,-198,-266,0,-275,191,251,350.099791765213,350.0998315811157,350.1021075248718,350.11416387557983,350.26436591148376,350.26436591148376,350.26436591148376,350.26436591148376,350.26436591148376,350.26436591148376,350.26436591148376,354.448837518692,2,4.320514678955078,None,,,,,,,,,,,,,,,,,,191,5,2025-03-05_11h04.53.946,comp,2024.2.4,60.10667660251358,2025-03-05 11h05.04.158815 -0500,
93,93,0,critical,whd,35.0,3.0,upper,125.0,200.0,200.0,125.0,127.0,127.0,1,2.0186095237731934,None,,,,,0,0,0,0,0,93,93,87,354.4808430671692,,,,,,,,,,,,,,,,,,,,,,,,,,,,,,,,,,,,,,,,,,,,,,,,,,,,,,,,,,,,,,,,,,,,,,,,,,,,,,,,,,125.0,200.0,200.0,125.0,127.0,127.0,3.0,3.2,-258,-284,0,-19,222,277,354.44963335990906,354.44967317581177,354.4521703720093,354.4808430671692,354.6144149303436,354.6144149303436,354.6144149303436,354.6144149303436,354.6144149303436,354.6144149303436,354.6144149303436,356.5154867172241,1,2.0186095237731934,None,,,,,,,,,,,,,,,,,,191,5,2025-03-05_11h04.53.946,comp,2024.2.4,60.10667660251358,2025-03-05 11h05.04.158815 -0500,
94,94,0,filler_square,None,None,None,None,None,None,None,None,None,None,1,1.7285809516906738,None,,,,,0,0,0,0,0,94,94,177,356.5309612751007,,,,,,,,,,,,,,,,,,,,,,,,,,,,,,,,,,,,,,,,,,,,,,,,,,,,,,,,,,,,,,,,,,,,,,,,,,,,,,,,,,149.49521384817973,149.49521384817973,143.91666569368851,86.81152366547181,104.21379267511236,134.64265756223637,2.1,2.12,-214,-260,0,-283,207,267,356.5164306163788,356.51646995544434,356.5187973976135,356.5309612751007,356.68115043640137,356.68115043640137,356.68115043640137,356.68115043640137,356.68115043640137,356.68115043640137,356.68115043640137,358.2656624317169,1,1.7285809516906738,None,,,,,,,,,,,,,,,,,,191,5,2025-03-05_11h04.53.946,comp,2024.2.4,60.10667660251358,2025-03-05 11h05.04.158815 -0500,
95,95,0,critical,whd,20.0,2.1,upper,125.0,200.0,200.0,125.0,141.0,141.0,3,1.683635950088501,None,,,,,0,0,0,0,0,95,95,39,358.2811782360077,,,,,,,,,,,,,,,,,,,,,,,,,,,,,,,,,,,,,,,,,,,,,,,,,,,,,,,,,,,,,,,,,,,,,,,,,,,,,,,,,,125.0,200.0,200.0,125.0,141.0,141.0,2.1,2.11,-258,285,0,271,229,-264,358.2664587497711,358.2665011882782,358.2685990333557,358.2811782360077,358.4313597679138,358.4313597679138,358.4313597679138,358.4313597679138,358.4313597679138,358.4313597679138,358.4313597679138,359.9821710586548,3,1.683635950088501,None,,,,,,,,,,,,,,,,,,191,5,2025-03-05_11h04.53.946,comp,2024.2.4,60.10667660251358,2025-03-05 11h05.04.158815 -0500,
96,96,0,catch,None,None,None,None,None,None,None,None,None,None,2,1.3098292350769043,None,,,,,0,0,0,0,0,96,96,124,359.997633934021,,,,,,,,,,,,,,,,,,,,,,,,,,,,,,,,,,,,,,,,,,,,,,,,,,,,,,,,,,,,,,,,,,,,,,,,,,,,,,,,,,80,110,140,185,101,89,1.0,1.3,236,-255,480,-279,713,-276,359.98320746421814,359.9832487106323,359.9865834712982,359.997633934021,360.14766216278076,360.14766216278076,360.14766216278076,360.14766216278076,360.14766216278076,360.14766216278076,360.14766216278076,361.3153667449951,2,1.3098292350769043,None,,,,,,,,,,,,,,,,,,191,5,2025-03-05_11h04.53.946,comp,2024.2.4,60.10667660251358,2025-03-05 11h05.04.158815 -0500,
97,97,0,critical,hdw,20.0,2.1,lower,133.0,57.0,78.0,78.0,57.0,133.0,3,3.0714213848114014,None,,,,,0,0,0,0,0,97,97,22,361.3310513496399,,,,,,,,,,,,,,,,,,,,,,,,,,,,,,,,,,,,,,,,,,,,,,,,,,,,,,,,,,,,,,,,,,,,,,,,,,,,,,,,,,133.0,57.0,78.0,78.0,57.0,133.0,2.1,2.12,-164,-265,0,-255,202,252,361.3161735534668,361.3162133693695,361.31830644607544,361.3310513496399,361.481018781662,361.481018781662,361.481018781662,361.481018781662,361.481018781662,361.481018781662,361.481018781662,364.4153242111206,3,3.0714213848114014,None,,,,,,,,,,,,,,,,,,191,5,2025-03-05_11h04.53.946,comp,2024.2.4,60.10667660251358,2025-03-05 11h05.04.158815 -0500,
98,98,0,critical,wdh,20.0,2.1,upper,125.0,200.0,141.0,141.0,200.0,125.0,1,3.2517619132995605,None,,,,,0,0,0,0,0,98,98,35,364.43070816993713,,,,,,,,,,,,,,,,,,,,,,,,,,,,,,,,,,,,,,,,,,,,,,,,,,,,,,,,,,,,,,,,,,,,,,,,,,,,,,,,,,125.0,200.0,141.0,141.0,200.0,125.0,2.1,2.11,-266,251,0,268,229,-282,364.4161047935486,364.4161458015442,364.41854786872864,364.43070816993713,364.5811107158661,364.5811107158661,364.5811107158661,364.5811107158661,364.5811107158661,364.5811107158661,364.5811107158661,367.6989243030548,1,3.2517619132995605,None,,,,,,,,,,,,,,,,,,191,5,2025-03-05_11h04.53.946,comp,2024.2.4,60.10667660251358,2025-03-05 11h05.04.158815 -0500,
99,99,0,filler_square,None,None,None,None,None,None,None,None,None,None,3,1.0562360286712646,None,,,,,0,0,0,0,0,99,99,179,367.71415615081787,,,,,,,,,,,,,,,,,,,,,,,,,,,,,,,,,,,,,,,,,,,,,,,,,,,,,,,,,,,,,,,,,,,,,,,,,,,,,,,,,,73.4487036484415,76.86828382912466,64.80987568727792,79.62990087452619,80.72646322422463,80.72646322422463,2.2,2.21,-174,-262,0,284,176,276,367.69984579086304,367.6998870372772,367.70241022109985,367.71415615081787,367.8642086982727,367.8642086982727,367.8642086982727,367.8642086982727,367.8642086982727,367.8642086982727,367.8642086982727,368.78178334236145,3,1.0562360286712646,None,,,,,,,,,,,,,,,,,,191,5,2025-03-05_11h04.53.946,comp,2024.2.4,60.10667660251358,2025-03-05 11h05.04.158815 -0500,
100,100,0,filler_square,None,None,None,None,None,None,None,None,None,None,1,2.2368643283843994,None,,,,,0,0,0,0,0,100,100,195,368.79774951934814,,,,,,,,,,,,,,,,,,,,,,,,,,,,,,,,,,,,,,,,,,,,,,,,,,,,,,,,,,,,,,,,,,,,,,,,,,,,,,,,,,110.98559319354311,110.98559319354311,77.01650636645982,62.115606934506935,83.6548617708966,108.70752814764882,2.1,2.12,-183,-272,0,-280,181,286,368.7827708721161,368.7828137874603,368.78576946258545,368.79774951934814,368.9476113319397,368.9476113319397,368.9476113319397,368.9476113319397,368.9476113319397,368.9476113319397,368.9476113319397,371.04876804351807,1,2.2368643283843994,None,,,,,,,,,,,,,,,,,,191,5,2025-03-05_11h04.53.946,comp,2024.2.4,60.10667660251358,2025-03-05 11h05.04.158815 -0500,
101,101,0,critical,wdh,35.0,4.0,lower,57.0,133.0,70.0,70.0,133.0,57.0,1,2.6269209384918213,None,,,,,0,0,0,0,0,101,101,76,371.0643515586853,,,,,,,,,,,,,,,,,,,,,,,,,,,,,,,,,,,,,,,,,,,,,,,,,,,,,,,,,,,,,,,,,,,,,,,,,,,,,,,,,,57.0,133.0,70.0,70.0,133.0,57.0,4.0,4.1,-198,-273,0,0,160,-269,371.04959630966187,371.049635887146,371.05303025245667,371.0643515586853,371.2142128944397,371.2142128944397,371.2142128944397,371.2142128944397,371.2142128944397,371.2142128944397,371.2142128944397,373.6985685825348,1,2.6269209384918213,None,,,,,,,,,,,,,,,,,,191,5,2025-03-05_11h04.53.946,comp,2024.2.4,60.10667660251358,2025-03-05 11h05.04.158815 -0500,
102,102,0,critical,hdw,35.0,1.0,upper,200.0,125.0,127.0,127.0,125.0,200.0,3,3.225024700164795,None,,,,,0,0,0,0,0,102,102,109,373.7142677307129,,,,,,,,,,,,,,,,,,,,,,,,,,,,,,,,,,,,,,,,,,,,,,,,,,,,,,,,,,,,,,,,,,,,,,,,,,,,,,,,,,200.0,125.0,127.0,127.0,125.0,200.0,1.0,1.2,-222,-9,0,-19,260,-13,373.69932651519775,373.6993672847748,373.70178174972534,373.7142677307129,373.86439538002014,373.86439538002014,373.86439538002014,373.86439538002014,373.86439538002014,373.86439538002014,373.86439538002014,376.94892859458923,3,3.225024700164795,None,,,,,,,,,,,,,,,,,,191,5,2025-03-05_11h04.53.946,comp,2024.2.4,60.10667660251358,2025-03-05 11h05.04.158815 -0500,
103,103,0,critical,whd,35.0,2.1,lower,57.0,133.0,133.0,57.0,70.0,70.0,2,6.021944046020508,None,,,,,0,0,0,0,0,103,103,12,376.9644215106964,,,,,,,,,,,,,,,,,,,,,,,,,,,,,,,,,,,,,,,,,,,,,,,,,,,,,,,,,,,,,,,,,,,,,,,,,,,,,,,,,,57.0,133.0,133.0,57.0,70.0,70.0,2.1,2.12,-191,-262,0,-281,160,263,376.9497330188751,376.9497723579407,376.952312707901,376.9644215106964,377.11421275138855,377.11421275138855,377.11421275138855,377.11421275138855,377.11421275138855,377.11421275138855,377.11421275138855,382.99882221221924,2,6.021944046020508,None,,,,,,,,,,,,,,,,,,191,5,2025-03-05_11h04.53.946,comp,2024.2.4,60.10667660251358,2025-03-05 11h05.04.158815 -0500,
104,104,0,critical,hwd,20.0,1.0,lower,133.0,57.0,57.0,133.0,78.0,78.0,2,4.309199571609497,None,,,,,0,0,0,0,0,104,104,102,383.0140788555145,,,,,,,,,,,,,,,,,,,,,,,,,,,,,,,,,,,,,,,,,,,,,,,,,,,,,,,,,,,,,,,,,,,,,,,,,,,,,,,,,,133.0,57.0,57.0,133.0,78.0,78.0,1.0,1.2,-191,1,0,1,202,3,382.9995918273926,382.9996340274811,383.0020067691803,383.0140788555145,383.1641480922699,383.1641480922699,383.1641480922699,383.1641480922699,383.1641480922699,383.1641480922699,383.1641480922699,387.3318989276886,2,4.309199571609497,None,,,,,,,,,,,,,,,,,,191,5,2025-03-05_11h04.53.946,comp,2024.2.4,60.10667660251358,2025-03-05 11h05.04.158815 -0500,
105,105,0,filler_square,None,None,None,None,None,None,None,None,None,None,3,1.7836756706237793,None,,,,,0,0,0,0,0,105,105,190,387.34758830070496,,,,,,,,,,,,,,,,,,,,,,,,,,,,,,,,,,,,,,,,,,,,,,,,,,,,,,,,,,,,,,,,,,,,,,,,,,,,,,,,,,67.06435470665261,74.19900193750092,59.89281592802522,71.97030325569206,105.48854011648312,105.48854011648312,4.0,4.1,-169,-279,0,1,185,-275,387.33282446861267,387.3328652381897,387.3353605270386,387.34758830070496,387.49735021591187,387.49735021591187,387.49735021591187,387.49735021591187,387.49735021591187,387.49735021591187,387.49735021591187,389.1484143733978,3,1.7836756706237793,None,,,,,,,,,,,,,,,,,,191,5,2025-03-05_11h04.53.946,comp,2024.2.4,60.10667660251358,2025-03-05 11h05.04.158815 -0500,
106,106,0,filler_random,None,None,None,None,None,None,None,None,None,None,1,1.3591668605804443,None,,,,,0,0,0,0,0,106,106,150,389.1639840602875,,,,,,,,,,,,,,,,,,,,,,,,,,,,,,,,,,,,,,,,,,,,,,,,,,,,,,,,,,,,,,,,,,,,,,,,,,,,,,,,,,148.59462978819653,148.4709122214313,156.7161324961752,108.52141284587762,149.94319148152084,127.86742572805497,2.2,2.22,-224,252,0,-279,214,-282,389.149334192276,389.1493742465973,389.15180373191833,389.1639840602875,389.31423568725586,389.31423568725586,389.31423568725586,389.31423568725586,389.31423568725586,389.31423568725586,389.31423568725586,390.5319576263428,1,1.3591668605804443,None,,,,,,,,,,,,,,,,,,191,5,2025-03-05_11h04.53.946,comp,2024.2.4,60.10667660251358,2025-03-05 11h05.04.158815 -0500,
107,107,0,critical,wdh,35.0,2.1,upper,125.0,200.0,127.0,127.0,200.0,125.0,3,1.5117592811584473,None,,,,,0,0,0,0,0,107,107,33,390.5474410057068,,,,,,,,,,,,,,,,,,,,,,,,,,,,,,,,,,,,,,,,,,,,,,,,,,,,,,,,,,,,,,,,,,,,,,,,,,,,,,,,,,125.0,200.0,127.0,127.0,200.0,125.0,2.1,2.11,-260,262,0,265,222,-279,390.5327446460724,390.53278374671936,390.5349209308624,390.5474410057068,390.6975288391113,390.6975288391113,390.6975288391113,390.6975288391113,390.6975288391113,390.6975288391113,390.6975288391113,392.0653786659241,3,1.5117592811584473,None,,,,,,,,,,,,,,,,,,191,5,2025-03-05_11h04.53.946,comp,2024.2.4,60.10667660251358,2025-03-05 11h05.04.158815 -0500,
108,108,0,critical,hdw,20.0,4.0,lower,133.0,57.0,78.0,78.0,57.0,133.0,2,5.921435117721558,None,,,,,0,0,0,0,0,108,108,118,392.0808160305023,,,,,,,,,,,,,,,,,,,,,,,,,,,,,,,,,,,,,,,,,,,,,,,,,,,,,,,,,,,,,,,,,,,,,,,,,,,,,,,,,,133.0,57.0,78.0,78.0,57.0,133.0,4.0,4.2,-164,4,0,-274,202,16,392.0661618709564,392.06620264053345,392.06857562065125,392.0808160305023,392.23070430755615,392.23070430755615,392.23070430755615,392.23070430755615,392.23070430755615,392.23070430755615,392.23070430755615,398.0151176452637,2,5.921435117721558,None,,,,,,,,,,,,,,,,,,191,5,2025-03-05_11h04.53.946,comp,2024.2.4,60.10667660251358,2025-03-05 11h05.04.158815 -0500,
109,109,0,catch,None,None,None,None,None,None,None,None,None,None,3,1.6036782264709473,None,,,,,0,0,0,0,0,109,109,122,398.03072714805603,,,,,,,,,,,,,,,,,,,,,,,,,,,,,,,,,,,,,,,,,,,,,,,,,,,,,,,,,,,,,,,,,,,,,,,,,,,,,,,,,,128,62,74,116,189,136,4.0,4.1,-185,-269,0,-19,222,-265,398.01615047454834,398.0161921977997,398.0185842514038,398.03072714805603,398.18078660964966,398.18078660964966,398.18078660964966,398.18078660964966,398.18078660964966,398.18078660964966,398.18078660964966,399.64847922325134,3,1.6036782264709473,None,,,,,,,,,,,,,,,,,,191,5,2025-03-05_11h04.53.946,comp,2024.2.4,60.10667660251358,2025-03-05 11h05.04.158815 -0500,
110,110,0,filler_random,None,None,None,None,None,None,None,None,None,None,1,0.8591747283935547,None,,,,,0,0,0,0,0,110,110,155,399.6639392375946,,,,,,,,,,,,,,,,,,,,,,,,,,,,,,,,,,,,,,,,,,,,,,,,,,,,,,,,,,,,,,,,,,,,,,,,,,,,,,,,,,190.34252963571143,128.80009380447765,112.44140051373282,77.8176808188644,109.29584002614666,106.22781738010754,4.0,4.2,-199,3,0,-254,188,17,399.64937925338745,399.64942049980164,399.6518530845642,399.6639392375946,399.81413650512695,399.81413650512695,399.81413650512695,399.81413650512695,399.81413650512695,399.81413650512695,399.81413650512695,400.5317780971527,1,0.8591747283935547,None,,,,,,,,,,,,,,,,,,191,5,2025-03-05_11h04.53.946,comp,2024.2.4,60.10667660251358,2025-03-05 11h05.04.158815 -0500,
111,111,0,critical,hdw,20.0,4.0,upper,200.0,125.0,141.0,141.0,125.0,200.0,1,1.3029816150665283,None,,,,,0,0,0,0,0,111,111,119,400.54733967781067,,,,,,,,,,,,,,,,,,,,,,,,,,,,,,,,,,,,,,,,,,,,,,,,,,,,,,,,,,,,,,,,,,,,,,,,,,,,,,,,,,200.0,125.0,141.0,141.0,125.0,200.0,4.0,4.2,-229,7,0,-264,266,16,400.5325222015381,400.5325617790222,400.53498363494873,400.54733967781067,400.69743371009827,400.69743371009827,400.69743371009827,400.69743371009827,400.69743371009827,400.69743371009827,400.69743371009827,401.86540174484253,1,1.3029816150665283,None,,,,,,,,,,,,,,,,,,191,5,2025-03-05_11h04.53.946,comp,2024.2.4,60.10667660251358,2025-03-05 11h05.04.158815 -0500,
112,112,0,critical,hwd,20.0,1.0,upper,200.0,125.0,125.0,200.0,141.0,141.0,1,1.0895984172821045,None,,,,,0,0,0,0,0,112,112,103,401.8805627822876,,,,,,,,,,,,,,,,,,,,,,,,,,,,,,,,,,,,,,,,,,,,,,,,,,,,,,,,,,,,,,,,,,,,,,,,,,,,,,,,,,200.0,125.0,125.0,200.0,141.0,141.0,1.0,1.2,-258,-11,0,-18,266,14,401.86625051498413,401.86629271507263,401.8682954311371,401.8805627822876,402.03089427948,402.03089427948,402.03089427948,402.03089427948,402.03089427948,402.03089427948,402.03089427948,402.9820284843445,1,1.0895984172821045,None,,,,,,,,,,,,,,,,,,191,5,2025-03-05_11h04.53.946,comp,2024.2.4,60.10667660251358,2025-03-05 11h05.04.158815 -0500,
113,113,0,filler_square,None,None,None,None,None,None,None,None,None,None,3,2.300971746444702,None,,,,,0,0,0,0,0,113,113,184,402.9973318576813,,,,,,,,,,,,,,,,,,,,,,,,,,,,,,,,,,,,,,,,,,,,,,,,,,,,,,,,,,,,,,,,,,,,,,,,,,,,,,,,,,64.82596535628446,69.7154515720182,62.632266591858084,57.480778245225416,73.12033230200126,73.12033230200126,4.0,4.2,-160,16,0,-272,161,7,402.98295736312866,402.98299765586853,402.9863076210022,402.9973318576813,403.1475875377655,403.1475875377655,403.1475875377655,403.1475875377655,403.1475875377655,403.1475875377655,403.1475875377655,405.3151345252991,3,2.300971746444702,None,,,,,,,,,,,,,,,,,,191,5,2025-03-05_11h04.53.946,comp,2024.2.4,60.10667660251358,2025-03-05 11h05.04.158815 -0500,
114,114,0,critical,whd,35.0,1.0,lower,57.0,133.0,133.0,57.0,70.0,70.0,2,3.239710807800293,None,,,,,0,0,0,0,0,114,114,84,405.3305811882019,,,,,,,,,,,,,,,,,,,,,,,,,,,,,,,,,,,,,,,,,,,,,,,,,,,,,,,,,,,,,,,,,,,,,,,,,,,,,,,,,,57.0,133.0,133.0,57.0,70.0,70.0,1.0,1.3,289,-266,480,-274,640,-285,405.3159158229828,405.3159544467926,405.3192517757416,405.3305811882019,405.4806547164917,405.4806547164917,405.4806547164917,405.4806547164917,405.4806547164917,405.4806547164917,405.4806547164917,408.5814628601074,2,3.239710807800293,None,,,,,,,,,,,,,,,,,,191,5,2025-03-05_11h04.53.946,comp,2024.2.4,60.10667660251358,2025-03-05 11h05.04.158815 -0500,
115,115,0,critical,hwd,20.0,4.0,upper,200.0,125.0,125.0,200.0,141.0,141.0,2,1.6618754863739014,None,,,,,0,0,0,0,0,115,115,107,408.5972332954407,,,,,,,,,,,,,,,,,,,,,,,,,,,,,,,,,,,,,,,,,,,,,,,,,,,,,,,,,,,,,,,,,,,,,,,,,,,,,,,,,,200.0,125.0,125.0,200.0,141.0,141.0,4.0,4.2,-258,-14,0,-274,266,-13,408.58222818374634,408.5822684764862,408.5846529006958,408.5972332954407,408.74767565727234,408.74767565727234,408.74767565727234,408.74767565727234,408.74767565727234,408.74767565727234,408.74767565727234,410.2655665874481,2,1.6618754863739014,None,,,,,,,,,,,,,,,,,,191,5,2025-03-05_11h04.53.946,comp,2024.2.4,60.10667660251358,2025-03-05 11h05.04.158815 -0500,
116,116,0,filler_random,None,None,None,None,None,None,None,None,None,None,1,1.5319693088531494,None,,,,,0,0,0,0,0,116,116,145,410.28077507019043,,,,,,,,,,,,,,,,,,,,,,,,,,,,,,,,,,,,,,,,,,,,,,,,,,,,,,,,,,,,,,,,,,,,,,,,,,,,,,,,,,84.63661009966053,188.22064873165965,111.32081502706578,76.42547772519085,123.65711107541662,122.7024919106741,4.0,4.2,-228,1,0,-275,196,4,410.2664842605591,410.2665252685547,410.26860547065735,410.28077507019043,410.4306490421295,410.4306490421295,410.4306490421295,410.4306490421295,410.4306490421295,410.4306490421295,410.4306490421295,411.81513023376465,1,1.5319693088531494,None,,,,,,,,,,,,,,,,,,191,5,2025-03-05_11h04.53.946,comp,2024.2.4,60.10667660251358,2025-03-05 11h05.04.158815 -0500,
117,117,0,critical,dwh,35.0,1.0,upper,127.0,127.0,125.0,200.0,200.0,125.0,3,1.7714917659759521,None,,,,,0,0,0,0,0,117,117,61,411.83062410354614,,,,,,,,,,,,,,,,,,,,,,,,,,,,,,,,,,,,,,,,,,,,,,,,,,,,,,,,,,,,,,,,,,,,,,,,,,,,,,,,,,127.0,127.0,125.0,200.0,200.0,125.0,1.0,1.2,-260,-17,0,-18,258,8,411.8158714771271,411.8159112930298,411.81816148757935,411.83062410354614,411.98084568977356,411.98084568977356,411.98084568977356,411.98084568977356,411.98084568977356,411.98084568977356,411.98084568977356,413.61515831947327,3,1.7714917659759521,None,,,,,,,,,,,,,,,,,,191,5,2025-03-05_11h04.53.946,comp,2024.2.4,60.10667660251358,2025-03-05 11h05.04.158815 -0500,
118,118,0,critical,hwd,20.0,2.1,upper,200.0,125.0,125.0,200.0,141.0,141.0,2,6.412582635879517,None,,,,,0,0,0,0,0,118,118,19,413.63038420677185,,,,,,,,,,,,,,,,,,,,,,,,,,,,,,,,,,,,,,,,,,,,,,,,,,,,,,,,,,,,,,,,,,,,,,,,,,,,,,,,,,200.0,125.0,125.0,200.0,141.0,141.0,2.1,2.11,-258,275,0,256,266,-260,413.6158986091614,413.6159369945526,413.61787581443787,413.63038420677185,413.78072571754456,413.78072571754456,413.78072571754456,413.78072571754456,413.78072571754456,413.78072571754456,413.78072571754456,420.0488166809082,2,6.412582635879517,None,,,,,,,,,,,,,,,,,,191,5,2025-03-05_11h04.53.946,comp,2024.2.4,60.10667660251358,2025-03-05 11h05.04.158815 -0500,
119,119,0,critical,hdw,35.0,2.1,upper,200.0,125.0,127.0,127.0,125.0,200.0,3,1.60227632522583,None,,,,,0,0,0,0,0,119,119,21,420.0639419555664,,,,,,,,,,,,,,,,,,,,,,,,,,,,,,,,,,,,,,,,,,,,,,,,,,,,,,,,,,,,,,,,,,,,,,,,,,,,,,,,,,200.0,125.0,127.0,127.0,125.0,200.0,2.1,2.12,-222,-257,0,-287,260,269,420.04961681365967,420.04965710639954,420.05213618278503,420.0639419555664,420.2140040397644,420.2140040397644,420.2140040397644,420.2140040397644,420.2140040397644,420.2140040397644,420.2140040397644,421.6817169189453,3,1.60227632522583,None,,,,,,,,,,,,,,,,,,191,5,2025-03-05_11h04.53.946,comp,2024.2.4,60.10667660251358,2025-03-05 11h05.04.158815 -0500,
120,120,0,filler_random,None,None,None,None,None,None,None,None,None,None,3,1.1381199359893799,None,,,,,0,0,0,0,0,120,120,147,421.6971073150635,,,,,,,,,,,,,,,,,,,,,,,,,,,,,,,,,,,,,,,,,,,,,,,,,,,,,,,,,,,,,,,,,,,,,,,,,,,,,,,,,,96.16032083357754,110.83594645733774,111.16030491173012,68.08431254200372,105.4379175866998,178.07391989112216,2.1,2.11,-185,279,0,284,219,-255,421.6826515197754,421.68269300460815,421.6851644515991,421.6971073150635,421.84715700149536,421.84715700149536,421.84715700149536,421.84715700149536,421.84715700149536,421.84715700149536,421.84715700149536,422.8484592437744,3,1.1381199359893799,None,,,,,,,,,,,,,,,,,,191,5,2025-03-05_11h04.53.946,comp,2024.2.4,60.10667660251358,2025-03-05 11h05.04.158815 -0500,
121,121,0,critical,hdw,35.0,2.1,lower,133.0,57.0,70.0,70.0,57.0,133.0,3,3.4672107696533203,None,,,,,0,0,0,0,0,121,121,44,422.86368703842163,,,,,,,,,,,,,,,,,,,,,,,,,,,,,,,,,,,,,,,,,,,,,,,,,,,,,,,,,,,,,,,,,,,,,,,,,,,,,,,,,,133.0,57.0,70.0,70.0,57.0,133.0,2.1,2.11,-160,256,0,261,198,-286,422.8492486476898,422.8492877483368,422.85174775123596,422.86368703842163,423.013808965683,423.013808965683,423.013808965683,423.013808965683,423.013808965683,423.013808965683,423.013808965683,426.34828519821167,3,3.4672107696533203,None,,,,,,,,,,,,,,,,,,191,5,2025-03-05_11h04.53.946,comp,2024.2.4,60.10667660251358,2025-03-05 11h05.04.158815 -0500,
122,122,0,critical,hwd,35.0,1.0,lower,133.0,57.0,57.0,133.0,70.0,70.0,2,4.086897611618042,None,,,,,0,0,0,0,0,122,122,96,426.363689661026,,,,,,,,,,,,,,,,,,,,,,,,,,,,,,,,,,,,,,,,,,,,,,,,,,,,,,,,,,,,,,,,,,,,,,,,,,,,,,,,,,133.0,57.0,57.0,133.0,70.0,70.0,1.0,1.2,-191,-13,0,-18,198,15,426.3490626811981,426.3491036891937,426.3514635562897,426.363689661026,426.51372146606445,426.51372146606445,426.51372146606445,426.51372146606445,426.51372146606445,426.51372146606445,426.51372146606445,430.4649682044983,2,4.086897611618042,None,,,,,,,,,,,,,,,,,,191,5,2025-03-05_11h04.53.946,comp,2024.2.4,60.10667660251358,2025-03-05 11h05.04.158815 -0500,
123,123,0,filler_square,None,None,None,None,None,None,None,None,None,None,1,1.353738784790039,None,,,,,0,0,0,0,0,123,123,182,430.48042845726013,,,,,,,,,,,,,,,,,,,,,,,,,,,,,,,,,,,,,,,,,,,,,,,,,,,,,,,,,,,,,,,,,,,,,,,,,,,,,,,,,,78.87029236262546,78.87029236262546,71.54764700414825,78.85763590078682,66.86054874457014,66.94017319643272,2.1,2.12,-175,-255,0,-273,169,286,430.4659116268158,430.4659538269043,430.46802401542664,430.48042845726013,430.6304841041565,430.6304841041565,430.6304841041565,430.6304841041565,430.6304841041565,430.6304841041565,430.6304841041565,431.8481388092041,1,1.353738784790039,None,,,,,,,,,,,,,,,,,,191,5,2025-03-05_11h04.53.946,comp,2024.2.4,60.10667660251358,2025-03-05 11h05.04.158815 -0500,
124,124,0,critical,dhw,35.0,2.1,lower,70.0,70.0,133.0,57.0,57.0,133.0,3,2.234445571899414,None,,,,,0,0,0,0,0,124,124,24,431.86362886428833,,,,,,,,,,,,,,,,,,,,,,,,,,,,,,,,,,,,,,,,,,,,,,,,,,,,,,,,,,,,,,,,,,,,,,,,,,,,,,,,,,70.0,70.0,133.0,57.0,57.0,133.0,2.1,2.11,-160,285,0,282,191,-254,431.84893584251404,431.8489758968353,431.85133624076843,431.86362886428833,432.0137257575989,432.0137257575989,432.0137257575989,432.0137257575989,432.0137257575989,432.0137257575989,432.0137257575989,434.1147606372833,3,2.234445571899414,None,,,,,,,,,,,,,,,,,,191,5,2025-03-05_11h04.53.946,comp,2024.2.4,60.10667660251358,2025-03-05 11h05.04.158815 -0500,
125,125,0,filler_random,None,None,None,None,None,None,None,None,None,None,3,0.7775957584381104,None,,,,,0,0,0,0,0,125,125,158,434.130309343338,,,,,,,,,,,,,,,,,,,,,,,,,,,,,,,,,,,,,,,,,,,,,,,,,,,,,,,,,,,,,,,,,,,,,,,,,,,,,,,,,,100.21834856516202,105.43420986499277,117.63208057597285,121.82814819783165,193.179013245341,138.60656957042397,1.0,1.1,-690,273,-480,273,-254,274,434.1156806945801,434.1157214641571,434.1182391643524,434.130309343338,434.2807002067566,434.2807002067566,434.2807002067566,434.2807002067566,434.2807002067566,434.2807002067566,434.2807002067566,434.91548228263855,3,0.7775957584381104,None,,,,,,,,,,,,,,,,,,191,5,2025-03-05_11h04.53.946,comp,2024.2.4,60.10667660251358,2025-03-05 11h05.04.158815 -0500,
126,126,0,critical,whd,35.0,4.0,lower,57.0,133.0,133.0,57.0,70.0,70.0,1,1.8394858837127686,None,,,,,0,0,0,0,0,126,126,88,434.93066573143005,,,,,,,,,,,,,,,,,,,,,,,,,,,,,,,,,,,,,,,,,,,,,,,,,,,,,,,,,,,,,,,,,,,,,,,,,,,,,,,,,,57.0,133.0,133.0,57.0,70.0,70.0,4.0,4.1,-191,-260,0,-4,160,-288,434.916241645813,434.9162814617157,434.91831398010254,434.93066573143005,435.08076429367065,435.08076429367065,435.08076429367065,435.08076429367065,435.08076429367065,435.08076429367065,435.08076429367065,436.78163957595825,1,1.8394858837127686,None,,,,,,,,,,,,,,,,,,191,5,2025-03-05_11h04.53.946,comp,2024.2.4,60.10667660251358,2025-03-05 11h05.04.158815 -0500,
127,127,0,critical,whd,35.0,2.1,upper,125.0,200.0,200.0,125.0,127.0,127.0,2,5.653378486633301,None,,,,,0,0,0,0,0,127,127,37,436.7971119880676,,,,,,,,,,,,,,,,,,,,,,,,,,,,,,,,,,,,,,,,,,,,,,,,,,,,,,,,,,,,,,,,,,,,,,,,,,,,,,,,,,125.0,200.0,200.0,125.0,127.0,127.0,2.1,2.12,-258,-267,0,-261,222,277,436.78240990638733,436.7824492454529,436.784925699234,436.7971119880676,436.9474935531616,436.9474935531616,436.9474935531616,436.9474935531616,436.9474935531616,436.9474935531616,436.9474935531616,442.46497082710266,2,5.653378486633301,None,,,,,,,,,,,,,,,,,,191,5,2025-03-05_11h04.53.946,comp,2024.2.4,60.10667660251358,2025-03-05 11h05.04.158815 -0500,
128,128,0,critical,whd,20.0,3.0,lower,57.0,133.0,133.0,57.0,78.0,78.0,3,3.0895562171936035,None,,,,,0,0,0,0,0,128,128,92,442.4802577495575,,,,,,,,,,,,,,,,,,,,,,,,,,,,,,,,,,,,,,,,,,,,,,,,,,,,,,,,,,,,,,,,,,,,,,,,,,,,,,,,,,57.0,133.0,133.0,57.0,78.0,78.0,3.0,3.2,-191,-271,0,17,164,264,442.4657597541809,442.4657995700836,442.4690685272217,442.4802577495575,442.630437374115,442.630437374115,442.630437374115,442.630437374115,442.630437374115,442.630437374115,442.630437374115,445.5813658237457,3,3.0895562171936035,None,,,,,,,,,,,,,,,,,,191,5,2025-03-05_11h04.53.946,comp,2024.2.4,60.10667660251358,2025-03-05 11h05.04.158815 -0500,
129,129,0,critical,hwd,35.0,2.1,upper,200.0,125.0,125.0,200.0,127.0,127.0,2,1.893716812133789,None,,,,,0,0,0,0,0,129,129,17,445.59714460372925,,,,,,,,,,,,,,,,,,,,,,,,,,,,,,,,,,,,,,,,,,,,,,,,,,,,,,,,,,,,,,,,,,,,,,,,,,,,,,,,,,200.0,125.0,125.0,200.0,127.0,127.0,2.1,2.12,-258,-288,0,-280,260,286,445.58215713500977,445.58219933509827,445.58465242385864,445.59714460372925,445.74720907211304,445.74720907211304,445.74720907211304,445.74720907211304,445.74720907211304,445.74720907211304,445.74720907211304,447.49850392341614,2,1.893716812133789,None,,,,,,,,,,,,,,,,,,191,5,2025-03-05_11h04.53.946,comp,2024.2.4,60.10667660251358,2025-03-05 11h05.04.158815 -0500,
130,130,0,catch,None,None,None,None,None,None,None,None,None,None,2,1.434905767440796,None,,,,,0,0,0,0,0,130,130,128,447.51399755477905,,,,,,,,,,,,,,,,,,,,,,,,,,,,,,,,,,,,,,,,,,,,,,,,,,,,,,,,,,,,,,,,,,,,,,,,,,,,,,,,,,101,89,168,157,89,101,2.2,2.22,-219,284,0,-284,225,-285,447.49955010414124,447.49959111213684,447.5019097328186,447.51399755477905,447.66368865966797,447.66368865966797,447.66368865966797,447.66368865966797,447.66368865966797,447.66368865966797,447.66368865966797,448.96518063545227,2,1.434905767440796,None,,,,,,,,,,,,,,,,,,191,5,2025-03-05_11h04.53.946,comp,2024.2.4,60.10667660251358,2025-03-05 11h05.04.158815 -0500,
131,131,0,critical,whd,20.0,4.0,lower,57.0,133.0,133.0,57.0,78.0,78.0,2,4.967359781265259,None,,,,,0,0,0,0,0,131,131,94,448.9804267883301,,,,,,,,,,,,,,,,,,,,,,,,,,,,,,,,,,,,,,,,,,,,,,,,,,,,,,,,,,,,,,,,,,,,,,,,,,,,,,,,,,57.0,133.0,133.0,57.0,78.0,78.0,4.0,4.2,-191,-6,0,-253,164,14,448.96587228775024,448.96590924263,448.9677765369415,448.9804267883301,449.1306405067444,449.1306405067444,449.1306405067444,449.1306405067444,449.1306405067444,449.1306405067444,449.1306405067444,453.96484875679016,2,4.967359781265259,None,,,,,,,,,,,,,,,,,,191,5,2025-03-05_11h04.53.946,comp,2024.2.4,60.10667660251358,2025-03-05 11h05.04.158815 -0500,
132,132,0,filler_random,None,None,None,None,None,None,None,None,None,None,2,1.1421756744384766,None,,,,,0,0,0,0,0,132,132,152,453.9806659221649,,,,,,,,,,,,,,,,,,,,,,,,,,,,,,,,,,,,,,,,,,,,,,,,,,,,,,,,,,,,,,,,,,,,,,,,,,,,,,,,,,142.32200224336196,124.77264932685735,121.78893589965139,177.3890882911433,195.1879015156002,59.94396808336889,4.0,4.1,-247,-278,0,-19,215,-262,453.96576046943665,453.96580243110657,453.96966648101807,453.9806659221649,454.13032388687134,454.13032388687134,454.13032388687134,454.13032388687134,454.13032388687134,454.13032388687134,454.13032388687134,455.13184428215027,2,1.1421756744384766,None,,,,,,,,,,,,,,,,,,191,5,2025-03-05_11h04.53.946,comp,2024.2.4,60.10667660251358,2025-03-05 11h05.04.158815 -0500,
133,133,0,critical,whd,35.0,2.1,upper,125.0,200.0,200.0,125.0,127.0,127.0,2,1.7595045566558838,None,,,,,0,0,0,0,0,133,133,13,455.14710116386414,,,,,,,,,,,,,,,,,,,,,,,,,,,,,,,,,,,,,,,,,,,,,,,,,,,,,,,,,,,,,,,,,,,,,,,,,,,,,,,,,,125.0,200.0,200.0,125.0,127.0,127.0,2.1,2.12,-258,-281,0,-278,222,274,455.13264083862305,455.13268280029297,455.13506984710693,455.14710116386414,455.2974934577942,455.2974934577942,455.2974934577942,455.2974934577942,455.2974934577942,455.2974934577942,455.2974934577942,456.91495394706726,2,1.7595045566558838,None,,,,,,,,,,,,,,,,,,191,5,2025-03-05_11h04.53.946,comp,2024.2.4,60.10667660251358,2025-03-05 11h05.04.158815 -0500,
134,134,0,critical,whd,35.0,1.0,upper,125.0,200.0,200.0,125.0,127.0,127.0,2,1.8086740970611572,None,,,,,0,0,0,0,0,134,134,85,456.9303081035614,,,,,,,,,,,,,,,,,,,,,,,,,,,,,,,,,,,,,,,,,,,,,,,,,,,,,,,,,,,,,,,,,,,,,,,,,,,,,,,,,,125.0,200.0,200.0,125.0,127.0,127.0,1.0,1.2,-258,0,0,13,222,8,456.91572666168213,456.9157671928406,456.9180028438568,456.9303081035614,457.0803875923157,457.0803875923157,457.0803875923157,457.0803875923157,457.0803875923157,457.0803875923157,457.0803875923157,458.74825644493103,2,1.8086740970611572,None,,,,,,,,,,,,,,,,,,191,5,2025-03-05_11h04.53.946,comp,2024.2.4,60.10667660251358,2025-03-05 11h05.04.158815 -0500,
135,135,0,filler_square,None,None,None,None,None,None,None,None,None,None,3,1.7020044326782227,None,,,,,0,0,0,0,0,135,135,176,458.7638530731201,,,,,,,,,,,,,,,,,,,,,,,,,,,,,,,,,,,,,,,,,,,,,,,,,,,,,,,,,,,,,,,,,,,,,,,,,,,,,,,,,,61.71256982578845,58.069069122542174,57.94382379814741,64.7452889304893,65.23535931827719,65.23535931827719,1.0,1.2,-157,-10,0,15,161,4,458.7492005825043,458.74924206733704,458.7513334751129,458.7638530731201,458.91359305381775,458.91359305381775,458.91359305381775,458.91359305381775,458.91359305381775,458.91359305381775,458.91359305381775,460.4812202453613,3,1.7020044326782227,None,,,,,,,,,,,,,,,,,,191,5,2025-03-05_11h04.53.946,comp,2024.2.4,60.10667660251358,2025-03-05 11h05.04.158815 -0500,
136,136,0,filler_random,None,None,None,None,None,None,None,None,None,None,3,1.1690549850463867,None,,,,,0,0,0,0,0,136,136,138,460.49680376052856,,,,,,,,,,,,,,,,,,,,,,,,,,,,,,,,,,,,,,,,,,,,,,,,,,,,,,,,,,,,,,,,,,,,,,,,,,,,,,,,,,67.99957526027033,155.99384355854002,86.06783051984908,190.78951796928067,170.5195485112499,125.95704555656813,3.0,3.1,-269,253,0,14,254,-284,460.48219871520996,460.4822373390198,460.48459243774414,460.49680376052856,460.6469819545746,460.6469819545746,460.6469819545746,460.6469819545746,460.6469819545746,460.6469819545746,460.6469819545746,461.6814932823181,3,1.1690549850463867,None,,,,,,,,,,,,,,,,,,191,5,2025-03-05_11h04.53.946,comp,2024.2.4,60.10667660251358,2025-03-05 11h05.04.158815 -0500,
137,137,0,catch,None,None,None,None,None,None,None,None,None,None,1,0.8584792613983154,None,,,,,0,0,0,0,0,137,137,120,461.69711089134216,,,,,,,,,,,,,,,,,,,,,,,,,,,,,,,,,,,,,,,,,,,,,,,,,,,,,,,,,,,,,,,,,,,,,,,,,,,,,,,,,,190,135,62,128,117,73,4.0,4.2,-228,5,0,-253,196,-7,461.6825692653656,461.68261098861694,461.68609261512756,461.69711089134216,461.84734654426575,461.84734654426575,461.84734654426575,461.84734654426575,461.84734654426575,461.84734654426575,461.84734654426575,462.5648365020752,1,0.8584792613983154,None,,,,,,,,,,,,,,,,,,191,5,2025-03-05_11h04.53.946,comp,2024.2.4,60.10667660251358,2025-03-05 11h05.04.158815 -0500,
138,138,0,critical,whd,20.0,2.1,lower,57.0,133.0,133.0,57.0,78.0,78.0,2,3.1017422676086426,None,,,,,0,0,0,0,0,138,138,14,462.5802927017212,,,,,,,,,,,,,,,,,,,,,,,,,,,,,,,,,,,,,,,,,,,,,,,,,,,,,,,,,,,,,,,,,,,,,,,,,,,,,,,,,,57.0,133.0,133.0,57.0,78.0,78.0,2.1,2.11,-191,277,0,290,164,-283,462.5656328201294,462.5656728744507,462.56786704063416,462.5802927017212,462.73047828674316,462.73047828674316,462.73047828674316,462.73047828674316,462.73047828674316,462.73047828674316,462.73047828674316,465.69791078567505,2,3.1017422676086426,None,,,,,,,,,,,,,,,,,,191,5,2025-03-05_11h04.53.946,comp,2024.2.4,60.10667660251358,2025-03-05 11h05.04.158815 -0500,
139,139,0,critical,wdh,35.0,1.0,upper,125.0,200.0,127.0,127.0,200.0,125.0,3,1.168400764465332,None,,,,,0,0,0,0,0,139,139,73,465.713485956192,,,,,,,,,,,,,,,,,,,,,,,,,,,,,,,,,,,,,,,,,,,,,,,,,,,,,,,,,,,,,,,,,,,,,,,,,,,,,,,,,,125.0,200.0,127.0,127.0,200.0,125.0,1.0,1.3,220,-277,480,-280,702,-287,465.6986885070801,465.6987280845642,465.7007420063019,465.713485956192,465.8637948036194,465.8637948036194,465.8637948036194,465.8637948036194,465.8637948036194,465.8637948036194,465.8637948036194,466.8984158039093,3,1.168400764465332,None,,,,,,,,,,,,,,,,,,191,5,2025-03-05_11h04.53.946,comp,2024.2.4,60.10667660251358,2025-03-05 11h05.04.158815 -0500,
