thisN,thisTrialN,thisRepN,effect,order,distance,config,diag,h_1,w_1,h_2,w_2,h_3,w_3,rect_choice.keys,rect_choice.rt,rect_choice.duration,instructions_loop.thisRepN,instructions_loop.thisTrialN,instructions_loop.thisN,instructions_loop.thisIndex,blocks.thisRepN,blocks.thisTrialN,blocks.thisN,blocks.thisIndex,trials.thisRepN,trials.thisTrialN,trials.thisN,trials.thisIndex,thisRow.t,notes,consent.started,agree_button.started,decline_button.started,consent_img.started,mouse.started,consent.stopped,agree_button.numClicks,agree_button.timesOn,agree_button.timesOff,decline_button.numClicks,decline_button.timesOn,decline_button.timesOff,mouse.x,mouse.y,mouse.leftButton,mouse.midButton,mouse.rightButton,mouse.time,mouse.clicked_name,exp_params.started,exp_params.stopped,welcome.started,welcome_text.started,welcome_text.stopped,welcome.stopped,instructions_1.started,instructions_1_text_1.started,instructions_1_text_2.started,key_resp.started,instructions_1.stopped,instructions_loop.key_resp.keys,instructions_loop.key_resp.rt,instructions_loop.key_resp.duration,instructions_2.started,instructions_2_text_1.started,instructions_2_text_2.started,key_resp_2.started,instructions_2.stopped,instructions_loop.key_resp_2.keys,instructions_loop.key_resp_2.rt,instructions_loop.key_resp_2.duration,instructions_3.started,instructions_3_text_1.started,r1_instr3.started,r2_instr3.started,r3_instr3.started,r1_instr3_label.started,r2_instr3_label.started,r3_instr3_label.started,instructions_3_text_3.started,instructions_3_text_4.started,key_resp_3.started,instructions_3.stopped,instructions_loop.key_resp_3.keys,instructions_loop.key_resp_3.rt,instructions_loop.key_resp_3.duration,instructions_4.started,instructions_4_text_1.started,instructions_4_text_3.started,instructions_4_text_2.started,key_resp_4.started,instructions_4.stopped,instructions_loop.key_resp_4.keys,instructions_loop.key_resp_4.rt,instructions_loop.key_resp_4.duration,instructions_5.started,instructions_5_text_1.started,instructions_5_text_2.started,key_resp_5.started,instructions_5.stopped,instructions_loop.key_resp_5.keys,instructions_loop.key_resp_5.rt,instructions_loop.key_resp_5.duration,start_exp.started,start_exp_text.started,key_resp_6.started,start_exp.stopped,key_resp_6.keys,key_resp_6.rt,key_resp_6.duration,h_1_tmp,w_1_tmp,h_2_tmp,w_2_tmp,h_3_tmp,w_3_tmp,config_tmp,config_tmp_1,r_1_x,r_1_y,r_2_x,r_2_y,r_3_x,r_3_y,pre_trial.started,pre_trial.stopped,choice_trial.started,rect_choice.started,r_1.started,r_2.started,r_3.started,r_1_label.started,r_2_label.started,r_3_label.started,prompt.started,choice_trial.stopped,trials.rect_choice.keys,trials.rect_choice.rt,trials.rect_choice.duration,end_block.started,end_block_text.started,end_block.stopped,end.started,end_text.started,key_resp_7.started,end.stopped,key_resp_7.keys,key_resp_7.rt,key_resp_7.duration,debriefing.started,debrief_form.started,end_debrief.started,debriefing.stopped,end_debrief.keys,end_debrief.rt,end_debrief.duration,participant,computer,date,expName,psychopyVersion,frameRate,expStart,
,,,,,,,,,,,,,,,,,,,,,,,,,,,,,,,0.014810800552368164,0.08832168579101562,0.08832168579101562,0.08832168579101562,0.014615297317504883,79.99427342414856,1,[79.90364289283752],[79.9036636352539],0,,,[-77.0],[-507.0],[1],[0],[0],[79.96242785453796],['agree_button'],,,,,,,,,,,,,,,,,,,,,,,,,,,,,,,,,,,,,,,,,,,,,,,,,,,,,,,,,,,,,,,,,,,,,,,,,,,,,,,,,,,,,,,,,,,,,,,,,,,,,,,,,,,,192,6,2025-03-05_11h05.38.761,comp,2024.2.4,None,2025-03-05 11h05.51.723986 -0500,
,,,,,,,,,,,,,,,,,,,,,,,,,,,,,,,,,,,,,,,,,,,,,,,,,,79.99481272697449,79.99487900733948,,,,,,,,,,,,,,,,,,,,,,,,,,,,,,,,,,,,,,,,,,,,,,,,,,,,,,,,,,,,,,,,,,,,,,,,,,,,,,,,,,,,,,,,,,,,,,,,,,,,,,,,,,192,6,2025-03-05_11h05.38.761,comp,2024.2.4,None,2025-03-05 11h05.51.723986 -0500,
,,,,,,,,,,,,,,,,,,,,,,,,,,,,,,,,,,,,,,,,,,,,,,,,,,,,79.99492287635803,80.00914978981018,82.00979590415955,81.99406409263611,,,,,,,,,,,,,,,,,,,,,,,,,,,,,,,,,,,,,,,,,,,,,,,,,,,,,,,,,,,,,,,,,,,,,,,,,,,,,,,,,,,,,,,,,,,,,,,,,,,,,,192,6,2025-03-05_11h05.38.761,comp,2024.2.4,None,2025-03-05 11h05.51.723986 -0500,
0,0,0,,,,,,,,,,,,,,,0,0,0,0,,,,,,,,,82.00979590415955,,,,,,,,,,,,,,,,,,,,,,,,,,,81.99502778053284,82.00979590415955,82.00979590415955,83.49824118614197,85.87917590141296,space,2.372506618499756,None,85.87932467460632,85.89822340011597,85.89822340011597,87.39345169067383,92.36469554901123,space,4.964207649230957,None,92.36484789848328,92.40726327896118,92.40726327896118,92.40726327896118,92.40726327896118,92.40726327896118,92.40726327896118,92.40726327896118,92.40726327896118,92.40726327896118,93.8787453174591,99.95516800880432,space,6.054794788360596,None,99.95532941818237,99.97362041473389,99.97362041473389,99.97362041473389,101.46656560897827,109.10155367851257,space,7.627315521240234,None,109.1017062664032,109.11771059036255,109.11771059036255,110.60087013244629,111.65382671356201,space,1.0449159145355225,None,111.65402412414551,111.66609025001526,111.66609025001526,113.25395226478577,space,1.5712008476257324,None,,,,,,,,,,,,,,,,,,,,,,,,,,,,,,,,,,,,,,,,,,,,,,,192,6,2025-03-05_11h05.38.761,comp,2024.2.4,None,2025-03-05 11h05.51.723986 -0500,
0,0,0,critical,whd,35.0,1.0,upper,125.0,200.0,200.0,125.0,127.0,127.0,2,10.630890846252441,None,,,,,0,0,0,0,0,0,0,85,113.43033790588379,,,,,,,,,,,,,,,,,,,,,,,,,,,,,,,,,,,,,,,,,,,,,,,,,,,,,,,,,,,,,,,,,,,,,,,,,,,,,,,,,,125.0,200.0,200.0,125.0,127.0,127.0,1.0,1.2,-258,-9,0,-17,222,-3,113.41284418106079,113.41290307044983,113.41502690315247,113.43033790588379,113.57889771461487,113.57889771461487,113.57889771461487,113.57889771461487,113.57889771461487,113.57889771461487,113.57889771461487,124.07402038574219,2,10.630890846252441,None,,,,,,,,,,,,,,,,,,192,6,2025-03-05_11h05.38.761,comp,2024.2.4,None,2025-03-05 11h05.51.723986 -0500,
1,1,0,critical,whd,35.0,2.1,lower,57.0,133.0,133.0,57.0,70.0,70.0,2,4.884039640426636,None,,,,,0,0,0,0,0,1,1,36,124.08909678459167,,,,,,,,,,,,,,,,,,,,,,,,,,,,,,,,,,,,,,,,,,,,,,,,,,,,,,,,,,,,,,,,,,,,,,,,,,,,,,,,,,57.0,133.0,133.0,57.0,70.0,70.0,2.1,2.11,-191,286,0,270,160,-253,124.07557153701782,124.0756471157074,124.07871890068054,124.08909678459167,124.22688221931458,124.22688221931458,124.22688221931458,124.22688221931458,124.22688221931458,124.22688221931458,124.22688221931458,128.991712808609,2,4.884039640426636,None,,,,,,,,,,,,,,,,,,192,6,2025-03-05_11h05.38.761,comp,2024.2.4,None,2025-03-05 11h05.51.723986 -0500,
2,2,0,critical,hwd,35.0,4.0,lower,133.0,57.0,57.0,133.0,70.0,70.0,1,3.978872060775757,None,,,,,0,0,0,0,0,2,2,100,129.01099848747253,,,,,,,,,,,,,,,,,,,,,,,,,,,,,,,,,,,,,,,,,,,,,,,,,,,,,,,,,,,,,,,,,,,,,,,,,,,,,,,,,,133.0,57.0,57.0,133.0,70.0,70.0,4.0,4.1,-191,-289,0,-15,198,-289,128.99321103096008,128.99328756332397,128.99656128883362,129.01099848747253,129.16059184074402,129.16059184074402,129.16059184074402,129.16059184074402,129.16059184074402,129.16059184074402,129.16059184074402,132.99547338485718,1,3.978872060775757,None,,,,,,,,,,,,,,,,,,192,6,2025-03-05_11h05.38.761,comp,2024.2.4,None,2025-03-05 11h05.51.723986 -0500,
3,3,0,critical,whd,20.0,3.0,lower,57.0,133.0,133.0,57.0,78.0,78.0,1,4.508322477340698,None,,,,,0,0,0,0,0,3,3,92,133.01124143600464,,,,,,,,,,,,,,,,,,,,,,,,,,,,,,,,,,,,,,,,,,,,,,,,,,,,,,,,,,,,,,,,,,,,,,,,,,,,,,,,,,57.0,133.0,133.0,57.0,78.0,78.0,3.0,3.2,-191,-261,0,1,164,253,132.99715566635132,132.99723649024963,133.0005488395691,133.01124143600464,133.16948533058167,133.16948533058167,133.16948533058167,133.16948533058167,133.16948533058167,133.16948533058167,133.16948533058167,137.53049683570862,1,4.508322477340698,None,,,,,,,,,,,,,,,,,,192,6,2025-03-05_11h05.38.761,comp,2024.2.4,None,2025-03-05 11h05.51.723986 -0500,
4,4,0,critical,hwd,20.0,1.0,lower,133.0,57.0,57.0,133.0,78.0,78.0,1,1.970949649810791,None,,,,,0,0,0,0,0,4,4,102,137.5467882156372,,,,,,,,,,,,,,,,,,,,,,,,,,,,,,,,,,,,,,,,,,,,,,,,,,,,,,,,,,,,,,,,,,,,,,,,,,,,,,,,,,133.0,57.0,57.0,133.0,78.0,78.0,1.0,1.2,-191,13,0,18,202,-9,137.53215789794922,137.53227615356445,137.53591895103455,137.5467882156372,137.69486737251282,137.69486737251282,137.69486737251282,137.69486737251282,137.69486737251282,137.69486737251282,137.69486737251282,139.52132320404053,1,1.970949649810791,None,,,,,,,,,,,,,,,,,,192,6,2025-03-05_11h05.38.761,comp,2024.2.4,None,2025-03-05 11h05.51.723986 -0500,
5,5,0,critical,hdw,35.0,4.0,lower,133.0,57.0,70.0,70.0,57.0,133.0,3,2.9408469200134277,None,,,,,0,0,0,0,0,5,5,112,139.53662633895874,,,,,,,,,,,,,,,,,,,,,,,,,,,,,,,,,,,,,,,,,,,,,,,,,,,,,,,,,,,,,,,,,,,,,,,,,,,,,,,,,,133.0,57.0,70.0,70.0,57.0,133.0,4.0,4.1,-160,-280,0,-8,198,-263,139.52286744117737,139.52294445037842,139.5258812904358,139.53662633895874,139.67776346206665,139.67776346206665,139.67776346206665,139.67776346206665,139.67776346206665,139.67776346206665,139.67776346206665,142.49512577056885,3,2.9408469200134277,None,,,,,,,,,,,,,,,,,,192,6,2025-03-05_11h05.38.761,comp,2024.2.4,None,2025-03-05 11h05.51.723986 -0500,
6,6,0,critical,dwh,20.0,2.1,lower,78.0,78.0,57.0,133.0,133.0,57.0,2,0.9583373069763184,None,,,,,0,0,0,0,0,6,6,6,142.51080513000488,,,,,,,,,,,,,,,,,,,,,,,,,,,,,,,,,,,,,,,,,,,,,,,,,,,,,,,,,,,,,,,,,,,,,,,,,,,,,,,,,,78.0,78.0,57.0,133.0,133.0,57.0,2.1,2.12,-202,-288,0,-277,191,275,142.49665927886963,142.496732711792,142.49967169761658,142.51080513000488,142.6472954750061,142.6472954750061,142.6472954750061,142.6472954750061,142.6472954750061,142.6472954750061,142.6472954750061,143.48106384277344,2,0.9583373069763184,None,,,,,,,,,,,,,,,,,,192,6,2025-03-05_11h05.38.761,comp,2024.2.4,None,2025-03-05 11h05.51.723986 -0500,
7,7,0,critical,whd,20.0,1.0,lower,57.0,133.0,133.0,57.0,78.0,78.0,2,0.9163813591003418,None,,,,,0,0,0,0,0,7,7,90,143.49684834480286,,,,,,,,,,,,,,,,,,,,,,,,,,,,,,,,,,,,,,,,,,,,,,,,,,,,,,,,,,,,,,,,,,,,,,,,,,,,,,,,,,57.0,133.0,133.0,57.0,78.0,78.0,1.0,1.1,-671,275,-480,281,-316,283,143.48264455795288,143.48272156715393,143.48595118522644,143.49684834480286,143.64552235603333,143.64552235603333,143.64552235603333,143.64552235603333,143.64552235603333,143.64552235603333,143.64552235603333,144.43381190299988,2,0.9163813591003418,None,,,,,,,,,,,,,,,,,,192,6,2025-03-05_11h05.38.761,comp,2024.2.4,None,2025-03-05 11h05.51.723986 -0500,
8,8,0,filler_random,None,None,None,None,None,None,None,None,None,None,1,1.0439670085906982,None,,,,,0,0,0,0,0,8,8,150,144.44961404800415,,,,,,,,,,,,,,,,,,,,,,,,,,,,,,,,,,,,,,,,,,,,,,,,,,,,,,,,,,,,,,,,,,,,,,,,,,,,,,,,,,165.0375346104654,132.7115396794763,59.11601805712386,66.24239663007464,123.52771033162276,143.28255066729412,2.1,2.11,-195,261,0,276,201,-258,144.43594551086426,144.43608903884888,144.43938207626343,144.44961404800415,144.6001296043396,144.6001296043396,144.6001296043396,144.6001296043396,144.6001296043396,144.6001296043396,144.6001296043396,145.49602127075195,1,1.0439670085906982,None,,,,,,,,,,,,,,,,,,192,6,2025-03-05_11h05.38.761,comp,2024.2.4,None,2025-03-05 11h05.51.723986 -0500,
9,9,0,filler_square,None,None,None,None,None,None,None,None,None,None,1,3.5973851680755615,None,,,,,0,0,0,0,0,9,9,181,145.51230120658875,,,,,,,,,,,,,,,,,,,,,,,,,,,,,,,,,,,,,,,,,,,,,,,,,,,,,,,,,,,,,,,,,,,,,,,,,,,,,,,,,,98.13486880779202,98.13486880779202,77.10035111298559,66.57377764321429,92.76116146623434,93.2956230245288,1.0,1.3,302,-287,480,-260,656,-284,145.49782395362854,145.4979486465454,145.50126028060913,145.51230120658875,145.650808095932,145.650808095932,145.650808095932,145.650808095932,145.650808095932,145.650808095932,145.650808095932,149.11670017242432,1,3.5973851680755615,None,,,,,,,,,,,,,,,,,,192,6,2025-03-05_11h05.38.761,comp,2024.2.4,None,2025-03-05 11h05.51.723986 -0500,
10,10,0,critical,whd,35.0,2.1,lower,57.0,133.0,133.0,57.0,70.0,70.0,2,1.808239221572876,None,,,,,0,0,0,0,0,10,10,12,149.13347101211548,,,,,,,,,,,,,,,,,,,,,,,,,,,,,,,,,,,,,,,,,,,,,,,,,,,,,,,,,,,,,,,,,,,,,,,,,,,,,,,,,,57.0,133.0,133.0,57.0,70.0,70.0,2.1,2.12,-191,-271,0,-251,160,268,149.11831998825073,149.11844754219055,149.12197709083557,149.13347101211548,149.29148983955383,149.29148983955383,149.29148983955383,149.29148983955383,149.29148983955383,149.29148983955383,149.29148983955383,150.94783210754395,2,1.808239221572876,None,,,,,,,,,,,,,,,,,,192,6,2025-03-05_11h05.38.761,comp,2024.2.4,None,2025-03-05 11h05.51.723986 -0500,
11,11,0,filler_random,None,None,None,None,None,None,None,None,None,None,3,1.4171264171600342,None,,,,,0,0,0,0,0,11,11,154,150.96413493156433,,,,,,,,,,,,,,,,,,,,,,,,,,,,,,,,,,,,,,,,,,,,,,,,,,,,,,,,,,,,,,,,,,,,,,,,,,,,,,,,,,108.85280157100034,111.92682708371672,67.4675537244577,116.19510808416788,77.93765127582807,126.00426909134609,2.2,2.21,-210,-282,0,276,217,270,150.94953799247742,150.94961595535278,150.95273160934448,150.96413493156433,151.10250186920166,151.10250186920166,151.10250186920166,151.10250186920166,151.10250186920166,151.10250186920166,151.10250186920166,152.39883065223694,3,1.4171264171600342,None,,,,,,,,,,,,,,,,,,192,6,2025-03-05_11h05.38.761,comp,2024.2.4,None,2025-03-05 11h05.51.723986 -0500,
12,12,0,critical,hdw,20.0,4.0,lower,133.0,57.0,78.0,78.0,57.0,133.0,3,1.6629440784454346,None,,,,,0,0,0,0,0,12,12,118,152.4149706363678,,,,,,,,,,,,,,,,,,,,,,,,,,,,,,,,,,,,,,,,,,,,,,,,,,,,,,,,,,,,,,,,,,,,,,,,,,,,,,,,,,133.0,57.0,78.0,78.0,57.0,133.0,4.0,4.2,-164,5,0,-252,202,-18,152.40047335624695,152.4005491733551,152.4038712978363,152.4149706363678,152.55446577072144,152.55446577072144,152.55446577072144,152.55446577072144,152.55446577072144,152.55446577072144,152.55446577072144,154.08372116088867,3,1.6629440784454346,None,,,,,,,,,,,,,,,,,,192,6,2025-03-05_11h05.38.761,comp,2024.2.4,None,2025-03-05 11h05.51.723986 -0500,
13,13,0,critical,dwh,20.0,2.1,lower,78.0,78.0,57.0,133.0,133.0,57.0,2,0.8258659839630127,None,,,,,0,0,0,0,0,13,13,30,154.1000247001648,,,,,,,,,,,,,,,,,,,,,,,,,,,,,,,,,,,,,,,,,,,,,,,,,,,,,,,,,,,,,,,,,,,,,,,,,,,,,,,,,,78.0,78.0,57.0,133.0,133.0,57.0,2.1,2.12,-202,-254,0,-264,191,264,154.08526349067688,154.08534145355225,154.08880066871643,154.1000247001648,154.24942111968994,154.24942111968994,154.24942111968994,154.24942111968994,154.24942111968994,154.24942111968994,154.24942111968994,154.9376676082611,2,0.8258659839630127,None,,,,,,,,,,,,,,,,,,192,6,2025-03-05_11h05.38.761,comp,2024.2.4,None,2025-03-05 11h05.51.723986 -0500,
14,14,0,filler_square,None,None,None,None,None,None,None,None,None,None,2,0.9394505023956299,None,,,,,0,0,0,0,0,14,14,183,154.95396900177002,,,,,,,,,,,,,,,,,,,,,,,,,,,,,,,,,,,,,,,,,,,,,,,,,,,,,,,,,,,,,,,,,,,,,,,,,,,,,,,,,,65.35605012384822,80.514962838007,148.63749389456774,148.63749389456774,58.54807808600334,134.15800899717823,4.0,4.1,-211,-273,0,1,237,-281,154.93948769569397,154.93961191177368,154.94336009025574,154.95396900177002,155.10157299041748,155.10157299041748,155.10157299041748,155.10157299041748,155.10157299041748,155.10157299041748,155.10157299041748,155.9027979373932,2,0.9394505023956299,None,,,,,,,,,,,,,,,,,,192,6,2025-03-05_11h05.38.761,comp,2024.2.4,None,2025-03-05 11h05.51.723986 -0500,
15,15,0,filler_square,None,None,None,None,None,None,None,None,None,None,3,5.1320319175720215,None,,,,,0,0,0,0,0,15,15,195,155.92111563682556,,,,,,,,,,,,,,,,,,,,,,,,,,,,,,,,,,,,,,,,,,,,,,,,,,,,,,,,,,,,,,,,,,,,,,,,,,,,,,,,,,57.437471817271096,57.211155381147016,57.49391118251294,57.49391118251294,57.165962021447235,57.07103517432502,1.0,1.3,327,-263,480,-277,633,-254,155.90480375289917,155.90488195419312,155.90826773643494,155.92111563682556,156.0675928592682,156.0675928592682,156.0675928592682,156.0675928592682,156.0675928592682,156.0675928592682,156.0675928592682,161.06880402565002,3,5.1320319175720215,None,,,,,,,,,,,,,,,,,,192,6,2025-03-05_11h05.38.761,comp,2024.2.4,None,2025-03-05 11h05.51.723986 -0500,
16,16,0,critical,wdh,35.0,2.1,upper,125.0,200.0,127.0,127.0,200.0,125.0,1,1.9880459308624268,None,,,,,0,0,0,0,0,16,16,9,161.0891354084015,,,,,,,,,,,,,,,,,,,,,,,,,,,,,,,,,,,,,,,,,,,,,,,,,,,,,,,,,,,,,,,,,,,,,,,,,,,,,,,,,,125.0,200.0,127.0,127.0,200.0,125.0,2.1,2.12,-260,-253,0,-253,222,262,161.07045888900757,161.0705349445343,161.07397627830505,161.0891354084015,161.23966693878174,161.23966693878174,161.23966693878174,161.23966693878174,161.23966693878174,161.23966693878174,161.23966693878174,163.08900594711304,1,1.9880459308624268,None,,,,,,,,,,,,,,,,,,192,6,2025-03-05_11h05.38.761,comp,2024.2.4,None,2025-03-05 11h05.51.723986 -0500,
17,17,0,filler_square,None,None,None,None,None,None,None,None,None,None,3,1.0789291858673096,None,,,,,0,0,0,0,0,17,17,198,163.11023688316345,,,,,,,,,,,,,,,,,,,,,,,,,,,,,,,,,,,,,,,,,,,,,,,,,,,,,,,,,,,,,,,,,,,,,,,,,,,,,,,,,,125.8524567953998,147.98818607978768,175.4467072970864,156.15722979057884,193.42255390219097,193.42255390219097,3.0,3.1,-248,282,0,6,271,-290,163.0909128189087,163.09098935127258,163.09469413757324,163.11023688316345,163.26053380966187,163.26053380966187,163.26053380966187,163.26053380966187,163.26053380966187,163.26053380966187,163.26053380966187,164.20309376716614,3,1.0789291858673096,None,,,,,,,,,,,,,,,,,,192,6,2025-03-05_11h05.38.761,comp,2024.2.4,None,2025-03-05 11h05.51.723986 -0500,
18,18,0,filler_square,None,None,None,None,None,None,None,None,None,None,2,0.8302180767059326,None,,,,,0,0,0,0,0,18,18,207,164.22295427322388,,,,,,,,,,,,,,,,,,,,,,,,,,,,,,,,,,,,,,,,,,,,,,,,,,,,,,,,,,,,,,,,,,,,,,,,,,,,,,,,,,121.48734388401381,60.55602550663648,132.51626528732237,132.51626528732237,57.16150708788021,89.2316357216618,2.1,2.12,-193,-266,0,-280,207,252,164.20478320121765,164.2048556804657,164.20786547660828,164.22295427322388,164.37068057060242,164.37068057060242,164.37068057060242,164.37068057060242,164.37068057060242,164.37068057060242,164.37068057060242,165.06959581375122,2,0.8302180767059326,None,,,,,,,,,,,,,,,,,,192,6,2025-03-05_11h05.38.761,comp,2024.2.4,None,2025-03-05 11h05.51.723986 -0500,
19,19,0,filler_random,None,None,None,None,None,None,None,None,None,None,1,0.876962423324585,None,,,,,0,0,0,0,0,19,19,130,165.08892035484314,,,,,,,,,,,,,,,,,,,,,,,,,,,,,,,,,,,,,,,,,,,,,,,,,,,,,,,,,,,,,,,,,,,,,,,,,,,,,,,,,,129.139302533057,186.1629106000031,191.256257944988,84.0400969440343,62.92910109529292,138.28906815106708,1.0,1.1,-711,266,-480,275,-273,251,165.07126474380493,165.07133865356445,165.07438898086548,165.08892035484314,165.23778653144836,165.23778653144836,165.23778653144836,165.23778653144836,165.23778653144836,165.23778653144836,165.23778653144836,165.97079944610596,1,0.876962423324585,None,,,,,,,,,,,,,,,,,,192,6,2025-03-05_11h05.38.761,comp,2024.2.4,None,2025-03-05 11h05.51.723986 -0500,
20,20,0,filler_random,None,None,None,None,None,None,None,None,None,None,3,0.7788217067718506,None,,,,,0,0,0,0,0,20,20,156,165.98749160766602,,,,,,,,,,,,,,,,,,,,,,,,,,,,,,,,,,,,,,,,,,,,,,,,,,,,,,,,,,,,,,,,,,,,,,,,,,,,,,,,,,161.16584622770898,158.1178915486555,63.93984962860072,153.2216036729905,147.9834758487417,179.05241207444132,1.0,1.1,-732,265,-480,274,-218,263,165.97263431549072,165.97271037101746,165.9769229888916,165.98749160766602,166.13572120666504,166.13572120666504,166.13572120666504,166.13572120666504,166.13572120666504,166.13572120666504,166.13572120666504,166.77235412597656,3,0.7788217067718506,None,,,,,,,,,,,,,,,,,,192,6,2025-03-05_11h05.38.761,comp,2024.2.4,None,2025-03-05 11h05.51.723986 -0500,
21,21,0,filler_random,None,None,None,None,None,None,None,None,None,None,1,0.9762077331542969,None,,,,,0,0,0,0,0,21,21,159,166.7897608280182,,,,,,,,,,,,,,,,,,,,,,,,,,,,,,,,,,,,,,,,,,,,,,,,,,,,,,,,,,,,,,,,,,,,,,,,,,,,,,,,,,149.23040089822416,144.33989608967195,121.33319437234876,91.67497247520585,105.16032237487468,89.48500332005176,3.0,3.1,-214,257,0,-7,187,-258,166.77423334121704,166.77437114715576,166.77835631370544,166.7897608280182,166.9377920627594,166.9377920627594,166.9377920627594,166.9377920627594,166.9377920627594,166.9377920627594,166.9377920627594,167.77320623397827,1,0.9762077331542969,None,,,,,,,,,,,,,,,,,,192,6,2025-03-05_11h05.38.761,comp,2024.2.4,None,2025-03-05 11h05.51.723986 -0500,
22,22,0,filler_square,None,None,None,None,None,None,None,None,None,None,2,0.7603092193603516,None,,,,,0,0,0,0,0,22,22,187,167.78932881355286,,,,,,,,,,,,,,,,,,,,,,,,,,,,,,,,,,,,,,,,,,,,,,,,,,,,,,,,,,,,,,,,,,,,,,,,,,,,,,,,,,64.22000709292766,108.74932241004338,132.75144906339045,132.75144906339045,102.41853010855249,112.51218885873209,4.0,4.1,-217,-288,0,-9,219,-261,167.7753291130066,167.7754259109497,167.77875351905823,167.78932881355286,167.94423747062683,167.94423747062683,167.94423747062683,167.94423747062683,167.94423747062683,167.94423747062683,167.94423747062683,168.55665683746338,2,0.7603092193603516,None,,,,,,,,,,,,,,,,,,192,6,2025-03-05_11h05.38.761,comp,2024.2.4,None,2025-03-05 11h05.51.723986 -0500,
23,23,0,critical,dwh,35.0,2.1,lower,70.0,70.0,57.0,133.0,133.0,57.0,3,0.8555889129638672,None,,,,,0,0,0,0,0,23,23,4,168.57447171211243,,,,,,,,,,,,,,,,,,,,,,,,,,,,,,,,,,,,,,,,,,,,,,,,,,,,,,,,,,,,,,,,,,,,,,,,,,,,,,,,,,70.0,70.0,57.0,133.0,133.0,57.0,2.1,2.12,-198,-270,0,-275,191,278,168.55820727348328,168.5583188533783,168.56152153015137,168.57447171211243,168.7212610244751,168.7212610244751,168.7212610244751,168.7212610244751,168.7212610244751,168.7212610244751,168.7212610244751,169.43761801719666,3,0.8555889129638672,None,,,,,,,,,,,,,,,,,,192,6,2025-03-05_11h05.38.761,comp,2024.2.4,None,2025-03-05 11h05.51.723986 -0500,
24,24,0,critical,hdw,20.0,2.1,upper,200.0,125.0,141.0,141.0,125.0,200.0,3,1.3597121238708496,None,,,,,0,0,0,0,0,24,24,23,169.4542155265808,,,,,,,,,,,,,,,,,,,,,,,,,,,,,,,,,,,,,,,,,,,,,,,,,,,,,,,,,,,,,,,,,,,,,,,,,,,,,,,,,,200.0,125.0,141.0,141.0,125.0,200.0,2.1,2.11,-229,257,0,267,266,-255,169.43927121162415,169.43938899040222,169.4427833557129,169.4542155265808,169.60502195358276,169.60502195358276,169.60502195358276,169.60502195358276,169.60502195358276,169.60502195358276,169.60502195358276,170.82150149345398,3,1.3597121238708496,None,,,,,,,,,,,,,,,,,,192,6,2025-03-05_11h05.38.761,comp,2024.2.4,None,2025-03-05 11h05.51.723986 -0500,
25,25,0,filler_random,None,None,None,None,None,None,None,None,None,None,2,0.8475148677825928,None,,,,,0,0,0,0,0,25,25,145,170.83814120292664,,,,,,,,,,,,,,,,,,,,,,,,,,,,,,,,,,,,,,,,,,,,,,,,,,,,,,,,,,,,,,,,,,,,,,,,,,,,,,,,,,120.82687424039702,149.24817733330843,111.88334583635628,169.9832903928963,196.1406651323888,68.30643996110129,2.1,2.12,-256,-261,0,-273,215,281,170.82322025299072,170.82329726219177,170.82651114463806,170.83814120292664,170.98999857902527,170.98999857902527,170.98999857902527,170.98999857902527,170.98999857902527,170.98999857902527,170.98999857902527,171.68830037117004,2,0.8475148677825928,None,,,,,,,,,,,,,,,,,,192,6,2025-03-05_11h05.38.761,comp,2024.2.4,None,2025-03-05 11h05.51.723986 -0500,
26,26,0,critical,hwd,20.0,4.0,lower,133.0,57.0,57.0,133.0,78.0,78.0,1,1.1846747398376465,None,,,,,0,0,0,0,0,26,26,106,171.7086009979248,,,,,,,,,,,,,,,,,,,,,,,,,,,,,,,,,,,,,,,,,,,,,,,,,,,,,,,,,,,,,,,,,,,,,,,,,,,,,,,,,,133.0,57.0,57.0,133.0,78.0,78.0,4.0,4.1,-191,-270,0,-16,202,-267,171.68996214866638,171.69004011154175,171.69351172447205,171.7086009979248,171.8556616306305,171.8556616306305,171.8556616306305,171.8556616306305,171.8556616306305,171.8556616306305,171.8556616306305,172.90854048728943,1,1.1846747398376465,None,,,,,,,,,,,,,,,,,,192,6,2025-03-05_11h05.38.761,comp,2024.2.4,None,2025-03-05 11h05.51.723986 -0500,
27,27,0,critical,whd,20.0,4.0,upper,125.0,200.0,200.0,125.0,141.0,141.0,2,0.8162481784820557,None,,,,,0,0,0,0,0,27,27,95,172.92503356933594,,,,,,,,,,,,,,,,,,,,,,,,,,,,,,,,,,,,,,,,,,,,,,,,,,,,,,,,,,,,,,,,,,,,,,,,,,,,,,,,,,125.0,200.0,200.0,125.0,141.0,141.0,4.0,4.2,-258,-4,0,-268,229,-5,172.91014432907104,172.91021966934204,172.9137806892395,172.92503356933594,173.07312083244324,173.07312083244324,173.07312083244324,173.07312083244324,173.07312083244324,173.07312083244324,173.07312083244324,173.7554738521576,2,0.8162481784820557,None,,,,,,,,,,,,,,,,,,192,6,2025-03-05_11h05.38.761,comp,2024.2.4,None,2025-03-05 11h05.51.723986 -0500,
28,28,0,critical,dwh,35.0,1.0,lower,70.0,70.0,57.0,133.0,133.0,57.0,3,1.0016200542449951,None,,,,,0,0,0,0,0,28,28,60,173.77160143852234,,,,,,,,,,,,,,,,,,,,,,,,,,,,,,,,,,,,,,,,,,,,,,,,,,,,,,,,,,,,,,,,,,,,,,,,,,,,,,,,,,70.0,70.0,57.0,133.0,133.0,57.0,1.0,1.2,-198,-16,0,-10,191,18,173.75690746307373,173.7569818496704,173.7602756023407,173.77160143852234,173.92449259757996,173.92449259757996,173.92449259757996,173.92449259757996,173.92449259757996,173.92449259757996,173.92449259757996,174.79030179977417,3,1.0016200542449951,None,,,,,,,,,,,,,,,,,,192,6,2025-03-05_11h05.38.761,comp,2024.2.4,None,2025-03-05 11h05.51.723986 -0500,
29,29,0,critical,whd,20.0,2.1,upper,125.0,200.0,200.0,125.0,141.0,141.0,2,0.774895191192627,None,,,,,0,0,0,0,0,29,29,39,174.80638527870178,,,,,,,,,,,,,,,,,,,,,,,,,,,,,,,,,,,,,,,,,,,,,,,,,,,,,,,,,,,,,,,,,,,,,,,,,,,,,,,,,,125.0,200.0,200.0,125.0,141.0,141.0,2.1,2.11,-258,262,0,263,229,-274,174.79188513755798,174.7919590473175,174.79610466957092,174.80638527870178,174.95784449577332,174.95784449577332,174.95784449577332,174.95784449577332,174.95784449577332,174.95784449577332,174.95784449577332,175.59285378456116,2,0.774895191192627,None,,,,,,,,,,,,,,,,,,192,6,2025-03-05_11h05.38.761,comp,2024.2.4,None,2025-03-05 11h05.51.723986 -0500,
30,30,0,filler_square,None,None,None,None,None,None,None,None,None,None,1,0.8498685359954834,None,,,,,0,0,0,0,0,30,30,189,175.61127376556396,,,,,,,,,,,,,,,,,,,,,,,,,,,,,,,,,,,,,,,,,,,,,,,,,,,,,,,,,,,,,,,,,,,,,,,,,,,,,,,,,,177.0277928000838,177.0277928000838,132.34558036219585,58.12629870182366,157.04145542615925,118.40674513677868,2.1,2.12,-214,-261,0,-265,184,286,175.594877243042,175.59497475624084,175.59827518463135,175.61127376556396,175.75684213638306,175.75684213638306,175.75684213638306,175.75684213638306,175.75684213638306,175.75684213638306,175.75684213638306,176.47369766235352,1,0.8498685359954834,None,,,,,,,,,,,,,,,,,,192,6,2025-03-05_11h05.38.761,comp,2024.2.4,None,2025-03-05 11h05.51.723986 -0500,
31,31,0,critical,whd,35.0,4.0,upper,125.0,200.0,200.0,125.0,127.0,127.0,2,0.9551041126251221,None,,,,,0,0,0,0,0,31,31,89,176.49009013175964,,,,,,,,,,,,,,,,,,,,,,,,,,,,,,,,,,,,,,,,,,,,,,,,,,,,,,,,,,,,,,,,,,,,,,,,,,,,,,,,,,125.0,200.0,200.0,125.0,127.0,127.0,4.0,4.2,-258,17,0,-259,222,16,176.47527146339417,176.47534680366516,176.47875809669495,176.49009013175964,176.6451382637024,176.6451382637024,176.6451382637024,176.6451382637024,176.6451382637024,176.6451382637024,176.6451382637024,177.4583020210266,2,0.9551041126251221,None,,,,,,,,,,,,,,,,,,192,6,2025-03-05_11h05.38.761,comp,2024.2.4,None,2025-03-05 11h05.51.723986 -0500,
32,32,0,filler_random,None,None,None,None,None,None,None,None,None,None,1,1.1390964984893799,None,,,,,0,0,0,0,0,32,32,140,177.4741232395172,,,,,,,,,,,,,,,,,,,,,,,,,,,,,,,,,,,,,,,,,,,,,,,,,,,,,,,,,,,,,,,,,,,,,,,,,,,,,,,,,,158.5076725907936,180.0056476714487,130.59099139131007,169.68900933003403,102.1952128956917,177.20295751306818,1.0,1.1,-751,281,-480,261,-211,277,177.46001315116882,177.46008896827698,177.4633150100708,177.4741232395172,177.6222803592682,177.6222803592682,177.6222803592682,177.6222803592682,177.6222803592682,177.6222803592682,177.6222803592682,178.6272349357605,1,1.1390964984893799,None,,,,,,,,,,,,,,,,,,192,6,2025-03-05_11h05.38.761,comp,2024.2.4,None,2025-03-05 11h05.51.723986 -0500,
33,33,0,critical,hwd,35.0,2.1,lower,133.0,57.0,57.0,133.0,70.0,70.0,2,1.5696580410003662,None,,,,,0,0,0,0,0,33,33,40,178.64399456977844,,,,,,,,,,,,,,,,,,,,,,,,,,,,,,,,,,,,,,,,,,,,,,,,,,,,,,,,,,,,,,,,,,,,,,,,,,,,,,,,,,133.0,57.0,57.0,133.0,70.0,70.0,2.1,2.12,-191,-267,0,-262,198,288,178.6289713382721,178.62904930114746,178.63283395767212,178.64399456977844,178.79077196121216,178.79077196121216,178.79077196121216,178.79077196121216,178.79077196121216,178.79077196121216,178.79077196121216,180.22504568099976,2,1.5696580410003662,None,,,,,,,,,,,,,,,,,,192,6,2025-03-05_11h05.38.761,comp,2024.2.4,None,2025-03-05 11h05.51.723986 -0500,
34,34,0,filler_square,None,None,None,None,None,None,None,None,None,None,2,3.8918142318725586,None,,,,,0,0,0,0,0,34,34,171,180.24131560325623,,,,,,,,,,,,,,,,,,,,,,,,,,,,,,,,,,,,,,,,,,,,,,,,,,,,,,,,,,,,,,,,,,,,,,,,,,,,,,,,,,69.60878561577773,73.5373883733224,75.71332935982338,98.09098464217067,100.62611459097357,100.62611459097357,2.1,2.12,-182,-283,0,-272,195,275,180.22680044174194,180.2268762588501,180.23042273521423,180.24131560325623,180.3933789730072,180.3933789730072,180.3933789730072,180.3933789730072,180.3933789730072,180.3933789730072,180.3933789730072,184.15025448799133,2,3.8918142318725586,None,,,,,,,,,,,,,,,,,,192,6,2025-03-05_11h05.38.761,comp,2024.2.4,None,2025-03-05 11h05.51.723986 -0500,
35,35,0,critical,hdw,20.0,4.0,upper,200.0,125.0,141.0,141.0,125.0,200.0,3,1.0996787548065186,None,,,,,0,0,0,0,0,35,35,119,184.17010140419006,,,,,,,,,,,,,,,,,,,,,,,,,,,,,,,,,,,,,,,,,,,,,,,,,,,,,,,,,,,,,,,,,,,,,,,,,,,,,,,,,,200.0,125.0,141.0,141.0,125.0,200.0,4.0,4.1,-229,-284,0,-7,266,-277,184.1517722606659,184.15184497833252,184.15486526489258,184.17010140419006,184.3086462020874,184.3086462020874,184.3086462020874,184.3086462020874,184.3086462020874,184.3086462020874,184.3086462020874,185.27694296836853,3,1.0996787548065186,None,,,,,,,,,,,,,,,,,,192,6,2025-03-05_11h05.38.761,comp,2024.2.4,None,2025-03-05 11h05.51.723986 -0500,
36,36,0,critical,hwd,20.0,2.1,upper,200.0,125.0,125.0,200.0,141.0,141.0,2,0.825385570526123,None,,,,,0,0,0,0,0,36,36,43,185.29272890090942,,,,,,,,,,,,,,,,,,,,,,,,,,,,,,,,,,,,,,,,,,,,,,,,,,,,,,,,,,,,,,,,,,,,,,,,,,,,,,,,,,200.0,125.0,125.0,200.0,141.0,141.0,2.1,2.12,-258,-264,0,-285,266,270,185.27849054336548,185.27858591079712,185.28201031684875,185.29272890090942,185.4443347454071,185.4443347454071,185.4443347454071,185.4443347454071,185.4443347454071,185.4443347454071,185.4443347454071,186.12404346466064,2,0.825385570526123,None,,,,,,,,,,,,,,,,,,192,6,2025-03-05_11h05.38.761,comp,2024.2.4,None,2025-03-05 11h05.51.723986 -0500,
37,37,0,filler_random,None,None,None,None,None,None,None,None,None,None,1,0.7448039054870605,None,,,,,0,0,0,0,0,37,37,141,186.1404254436493,,,,,,,,,,,,,,,,,,,,,,,,,,,,,,,,,,,,,,,,,,,,,,,,,,,,,,,,,,,,,,,,,,,,,,,,,,,,,,,,,,154.790630121069,153.44953462142698,119.41470065236564,61.74073378192969,187.96126108487462,181.50604584181116,2.1,2.12,-204,-280,0,-278,218,252,186.12569189071655,186.12576818466187,186.12869477272034,186.1404254436493,186.28609538078308,186.28609538078308,186.28609538078308,186.28609538078308,186.28609538078308,186.28609538078308,186.28609538078308,186.89884328842163,1,0.7448039054870605,None,,,,,,,,,,,,,,,,,,192,6,2025-03-05_11h05.38.761,comp,2024.2.4,None,2025-03-05 11h05.51.723986 -0500,
38,38,0,critical,dhw,20.0,2.1,upper,141.0,141.0,200.0,125.0,125.0,200.0,3,0.8242909908294678,None,,,,,0,0,0,0,0,38,38,3,186.91730666160583,,,,,,,,,,,,,,,,,,,,,,,,,,,,,,,,,,,,,,,,,,,,,,,,,,,,,,,,,,,,,,,,,,,,,,,,,,,,,,,,,,141.0,141.0,200.0,125.0,125.0,200.0,2.1,2.11,-229,262,0,254,258,-271,186.90045762062073,186.9005331993103,186.90398788452148,186.91730666160583,187.0640513896942,187.0640513896942,187.0640513896942,187.0640513896942,187.0640513896942,187.0640513896942,187.0640513896942,187.74361515045166,3,0.8242909908294678,None,,,,,,,,,,,,,,,,,,192,6,2025-03-05_11h05.38.761,comp,2024.2.4,None,2025-03-05 11h05.51.723986 -0500,
39,39,0,catch,None,None,None,None,None,None,None,None,None,None,3,1.1127524375915527,None,,,,,0,0,0,0,0,39,39,120,187.7649495601654,,,,,,,,,,,,,,,,,,,,,,,,,,,,,,,,,,,,,,,,,,,,,,,,,,,,,,,,,,,,,,,,,,,,,,,,,,,,,,,,,,93,97,58,132,161,164,2.1,2.12,-210,-277,0,-288,244,278,187.7455370426178,187.7456157207489,187.74899196624756,187.7649495601654,187.8989806175232,187.8989806175232,187.8989806175232,187.8989806175232,187.8989806175232,187.8989806175232,187.8989806175232,188.8982195854187,3,1.1127524375915527,None,,,,,,,,,,,,,,,,,,192,6,2025-03-05_11h05.38.761,comp,2024.2.4,None,2025-03-05 11h05.51.723986 -0500,
40,40,0,critical,hdw,35.0,4.0,upper,200.0,125.0,127.0,127.0,125.0,200.0,1,0.7588903903961182,None,,,,,0,0,0,0,0,40,40,113,188.91831755638123,,,,,,,,,,,,,,,,,,,,,,,,,,,,,,,,,,,,,,,,,,,,,,,,,,,,,,,,,,,,,,,,,,,,,,,,,,,,,,,,,,200.0,125.0,127.0,127.0,125.0,200.0,4.0,4.2,-222,15,0,-252,260,20,188.89973855018616,188.89982295036316,188.90306663513184,188.91831755638123,189.0633282661438,189.0633282661438,189.0633282661438,189.0633282661438,189.0633282661438,189.0633282661438,189.0633282661438,189.6802728176117,1,0.7588903903961182,None,,,,,,,,,,,,,,,,,,192,6,2025-03-05_11h05.38.761,comp,2024.2.4,None,2025-03-05 11h05.51.723986 -0500,
41,41,0,critical,hdw,20.0,2.1,lower,133.0,57.0,78.0,78.0,57.0,133.0,2,1.852703332901001,None,,,,,0,0,0,0,0,41,41,22,189.69638562202454,,,,,,,,,,,,,,,,,,,,,,,,,,,,,,,,,,,,,,,,,,,,,,,,,,,,,,,,,,,,,,,,,,,,,,,,,,,,,,,,,,133.0,57.0,78.0,78.0,57.0,133.0,2.1,2.11,-164,265,0,285,202,-278,189.68189525604248,189.68198490142822,189.6855914592743,189.69638562202454,189.84417033195496,189.84417033195496,189.84417033195496,189.84417033195496,189.84417033195496,189.84417033195496,189.84417033195496,191.5648820400238,2,1.852703332901001,None,,,,,,,,,,,,,,,,,,192,6,2025-03-05_11h05.38.761,comp,2024.2.4,None,2025-03-05 11h05.51.723986 -0500,
42,42,0,critical,wdh,20.0,2.1,upper,125.0,200.0,141.0,141.0,200.0,125.0,1,0.8095381259918213,None,,,,,0,0,0,0,0,42,42,11,191.58032751083374,,,,,,,,,,,,,,,,,,,,,,,,,,,,,,,,,,,,,,,,,,,,,,,,,,,,,,,,,,,,,,,,,,,,,,,,,,,,,,,,,,125.0,200.0,141.0,141.0,200.0,125.0,2.1,2.11,-266,268,0,288,229,-250,191.56642889976501,191.5665066242218,191.5695219039917,191.58032751083374,191.72949361801147,191.72949361801147,191.72949361801147,191.72949361801147,191.72949361801147,191.72949361801147,191.72949361801147,192.39617490768433,1,0.8095381259918213,None,,,,,,,,,,,,,,,,,,192,6,2025-03-05_11h05.38.761,comp,2024.2.4,None,2025-03-05 11h05.51.723986 -0500,
43,43,0,critical,dhw,20.0,3.0,lower,78.0,78.0,133.0,57.0,57.0,133.0,3,1.076014518737793,None,,,,,0,0,0,0,0,43,43,56,192.41078639030457,,,,,,,,,,,,,,,,,,,,,,,,,,,,,,,,,,,,,,,,,,,,,,,,,,,,,,,,,,,,,,,,,,,,,,,,,,,,,,,,,,78.0,78.0,133.0,57.0,57.0,133.0,3.0,3.1,-164,263,0,-15,191,-276,192.39770793914795,192.3977861404419,192.40121483802795,192.41078639030457,192.55085682868958,192.55085682868958,192.55085682868958,192.55085682868958,192.55085682868958,192.55085682868958,192.55085682868958,193.493549823761,3,1.076014518737793,None,,,,,,,,,,,,,,,,,,192,6,2025-03-05_11h05.38.761,comp,2024.2.4,None,2025-03-05 11h05.51.723986 -0500,
44,44,0,filler_square,None,None,None,None,None,None,None,None,None,None,2,0.6312656402587891,None,,,,,0,0,0,0,0,44,44,192,193.51047444343567,,,,,,,,,,,,,,,,,,,,,,,,,,,,,,,,,,,,,,,,,,,,,,,,,,,,,,,,,,,,,,,,,,,,,,,,,,,,,,,,,,57.31490798594917,101.9925514124125,149.293148613798,149.293148613798,125.20693903871805,108.01484479548613,3.0,3.2,-222,-288,0,5,225,280,193.49530911445618,193.49546003341675,193.4988067150116,193.51047444343567,193.64619755744934,193.64619755744934,193.64619755744934,193.64619755744934,193.64619755744934,193.64619755744934,193.64619755744934,194.14807391166687,2,0.6312656402587891,None,,,,,,,,,,,,,,,,,,192,6,2025-03-05_11h05.38.761,comp,2024.2.4,None,2025-03-05 11h05.51.723986 -0500,
45,45,0,filler_square,None,None,None,None,None,None,None,None,None,None,1,0.7130856513977051,None,,,,,0,0,0,0,0,45,45,173,194.164532661438,,,,,,,,,,,,,,,,,,,,,,,,,,,,,,,,,,,,,,,,,,,,,,,,,,,,,,,,,,,,,,,,,,,,,,,,,,,,,,,,,,115.58367194928759,115.58367194928759,76.32457160190893,98.25219257272192,109.80464405674726,97.4993837636693,2.2,2.22,-203,264,0,-276,194,-263,194.1500871181488,194.15016674995422,194.15385007858276,194.164532661438,194.30169773101807,194.30169773101807,194.30169773101807,194.30169773101807,194.30169773101807,194.30169773101807,194.30169773101807,194.8957016468048,1,0.7130856513977051,None,,,,,,,,,,,,,,,,,,192,6,2025-03-05_11h05.38.761,comp,2024.2.4,None,2025-03-05 11h05.51.723986 -0500,
46,46,0,critical,hwd,35.0,1.0,upper,200.0,125.0,125.0,200.0,127.0,127.0,1,0.8465359210968018,None,,,,,0,0,0,0,0,46,46,97,194.91156363487244,,,,,,,,,,,,,,,,,,,,,,,,,,,,,,,,,,,,,,,,,,,,,,,,,,,,,,,,,,,,,,,,,,,,,,,,,,,,,,,,,,200.0,125.0,125.0,200.0,127.0,127.0,1.0,1.3,222,-264,480,-274,740,-253,194.89717364311218,194.89724898338318,194.90043210983276,194.91156363487244,195.06433057785034,195.06433057785034,195.06433057785034,195.06433057785034,195.06433057785034,195.06433057785034,195.06433057785034,195.76481890678406,1,0.8465359210968018,None,,,,,,,,,,,,,,,,,,192,6,2025-03-05_11h05.38.761,comp,2024.2.4,None,2025-03-05 11h05.51.723986 -0500,
47,47,0,critical,hwd,20.0,3.0,upper,200.0,125.0,125.0,200.0,141.0,141.0,2,0.7769961357116699,None,,,,,0,0,0,0,0,47,47,105,195.7805769443512,,,,,,,,,,,,,,,,,,,,,,,,,,,,,,,,,,,,,,,,,,,,,,,,,,,,,,,,,,,,,,,,,,,,,,,,,,,,,,,,,,200.0,125.0,125.0,200.0,141.0,141.0,3.0,3.1,-258,267,0,10,266,-258,195.76632475852966,195.76643133163452,195.76980996131897,195.7805769443512,195.93575525283813,195.93575525283813,195.93575525283813,195.93575525283813,195.93575525283813,195.93575525283813,195.93575525283813,196.56690621376038,2,0.7769961357116699,None,,,,,,,,,,,,,,,,,,192,6,2025-03-05_11h05.38.761,comp,2024.2.4,None,2025-03-05 11h05.51.723986 -0500,
48,48,0,filler_square,None,None,None,None,None,None,None,None,None,None,1,0.8123018741607666,None,,,,,0,0,0,0,0,48,48,174,196.5852394104004,,,,,,,,,,,,,,,,,,,,,,,,,,,,,,,,,,,,,,,,,,,,,,,,,,,,,,,,,,,,,,,,,,,,,,,,,,,,,,,,,,102.84647862307406,102.84647862307406,58.306803214891964,85.91157133030458,97.20056376195055,72.0159279127738,2.2,2.22,-190,285,0,-286,175,-285,196.56884932518005,196.56894421577454,196.5720100402832,196.5852394104004,196.73820614814758,196.73820614814758,196.73820614814758,196.73820614814758,196.73820614814758,196.73820614814758,196.73820614814758,197.39985823631287,1,0.8123018741607666,None,,,,,,,,,,,,,,,,,,192,6,2025-03-05_11h05.38.761,comp,2024.2.4,None,2025-03-05 11h05.51.723986 -0500,
49,49,0,critical,dwh,35.0,2.1,upper,127.0,127.0,125.0,200.0,200.0,125.0,2,0.7249526977539062,None,,,,,0,0,0,0,0,49,49,29,197.41623282432556,,,,,,,,,,,,,,,,,,,,,,,,,,,,,,,,,,,,,,,,,,,,,,,,,,,,,,,,,,,,,,,,,,,,,,,,,,,,,,,,,,127.0,127.0,125.0,200.0,200.0,125.0,2.1,2.12,-260,-254,0,-268,258,260,197.40162706375122,197.4017035961151,197.40473675727844,197.41623282432556,197.56427431106567,197.56427431106567,197.56427431106567,197.56427431106567,197.56427431106567,197.56427431106567,197.56427431106567,198.15027928352356,2,0.7249526977539062,None,,,,,,,,,,,,,,,,,,192,6,2025-03-05_11h05.38.761,comp,2024.2.4,None,2025-03-05 11h05.51.723986 -0500,
50,50,0,filler_square,None,None,None,None,None,None,None,None,None,None,1,0.742056131362915,None,,,,,0,0,0,0,0,50,50,206,198.16735434532166,,,,,,,,,,,,,,,,,,,,,,,,,,,,,,,,,,,,,,,,,,,,,,,,,,,,,,,,,,,,,,,,,,,,,,,,,,,,,,,,,,119.13390083927109,119.13390083927109,83.22987764724883,116.98518738646307,71.86370495019472,68.95314761190997,4.0,4.1,-214,-253,0,1,189,-262,198.15278005599976,198.15285968780518,198.15593075752258,198.16735434532166,198.31123518943787,198.31123518943787,198.31123518943787,198.31123518943787,198.31123518943787,198.31123518943787,198.31123518943787,198.91495823860168,1,0.742056131362915,None,,,,,,,,,,,,,,,,,,192,6,2025-03-05_11h05.38.761,comp,2024.2.4,None,2025-03-05 11h05.51.723986 -0500,
51,51,0,critical,whd,35.0,4.0,lower,57.0,133.0,133.0,57.0,70.0,70.0,3,1.7144920825958252,None,,,,,0,0,0,0,0,51,51,88,198.93132901191711,,,,,,,,,,,,,,,,,,,,,,,,,,,,,,,,,,,,,,,,,,,,,,,,,,,,,,,,,,,,,,,,,,,,,,,,,,,,,,,,,,57.0,133.0,133.0,57.0,70.0,70.0,4.0,4.2,-191,-5,0,-265,160,10,198.91643285751343,198.91652369499207,198.91957139968872,198.93132901191711,199.0845754146576,199.0845754146576,199.0845754146576,199.0845754146576,199.0845754146576,199.0845754146576,199.0845754146576,200.6514482498169,3,1.7144920825958252,None,,,,,,,,,,,,,,,,,,192,6,2025-03-05_11h05.38.761,comp,2024.2.4,None,2025-03-05 11h05.51.723986 -0500,
52,52,0,critical,hwd,20.0,2.1,lower,133.0,57.0,57.0,133.0,78.0,78.0,1,0.8079614639282227,None,,,,,0,0,0,0,0,52,52,42,200.66954708099365,,,,,,,,,,,,,,,,,,,,,,,,,,,,,,,,,,,,,,,,,,,,,,,,,,,,,,,,,,,,,,,,,,,,,,,,,,,,,,,,,,133.0,57.0,57.0,133.0,78.0,78.0,2.1,2.11,-191,269,0,255,202,-273,200.65312933921814,200.6532106399536,200.65617632865906,200.66954708099365,200.81130242347717,200.81130242347717,200.81130242347717,200.81130242347717,200.81130242347717,200.81130242347717,200.81130242347717,201.48176741600037,1,0.8079614639282227,None,,,,,,,,,,,,,,,,,,192,6,2025-03-05_11h05.38.761,comp,2024.2.4,None,2025-03-05 11h05.51.723986 -0500,
53,53,0,filler_square,None,None,None,None,None,None,None,None,None,None,1,0.9375615119934082,None,,,,,0,0,0,0,0,53,53,199,201.49968028068542,,,,,,,,,,,,,,,,,,,,,,,,,,,,,,,,,,,,,,,,,,,,,,,,,,,,,,,,,,,,,,,,,,,,,,,,,,,,,,,,,,190.74141635825234,190.74141635825234,95.56734686444864,183.03801751696898,102.56863721502202,84.11979841154171,2.1,2.12,-283,-280,0,-271,230,280,201.48377346992493,201.48385214805603,201.48744225502014,201.49968028068542,201.65064001083374,201.65064001083374,201.65064001083374,201.65064001083374,201.65064001083374,201.65064001083374,201.65064001083374,202.4507441520691,1,0.9375615119934082,None,,,,,,,,,,,,,,,,,,192,6,2025-03-05_11h05.38.761,comp,2024.2.4,None,2025-03-05 11h05.51.723986 -0500,
54,54,0,critical,hdw,35.0,3.0,lower,133.0,57.0,70.0,70.0,57.0,133.0,1,0.8187434673309326,None,,,,,0,0,0,0,0,54,54,110,202.46652698516846,,,,,,,,,,,,,,,,,,,,,,,,,,,,,,,,,,,,,,,,,,,,,,,,,,,,,,,,,,,,,,,,,,,,,,,,,,,,,,,,,,133.0,57.0,70.0,70.0,57.0,133.0,3.0,3.2,-160,-279,0,5,198,285,202.45232009887695,202.45241856575012,202.45558500289917,202.46652698516846,202.61649680137634,202.61649680137634,202.61649680137634,202.61649680137634,202.61649680137634,202.61649680137634,202.61649680137634,203.2963535785675,1,0.8187434673309326,None,,,,,,,,,,,,,,,,,,192,6,2025-03-05_11h05.38.761,comp,2024.2.4,None,2025-03-05 11h05.51.723986 -0500,
55,55,0,filler_square,None,None,None,None,None,None,None,None,None,None,3,0.8686742782592773,None,,,,,0,0,0,0,0,55,55,205,203.3132553100586,,,,,,,,,,,,,,,,,,,,,,,,,,,,,,,,,,,,,,,,,,,,,,,,,,,,,,,,,,,,,,,,,,,,,,,,,,,,,,,,,,88.32566094912545,134.40109348422652,150.5721450423113,117.14573839956789,164.32101074381436,164.32101074381436,1.0,1.3,258,-258,480,-262,717,-273,203.29813957214355,203.2982144355774,203.3011863231659,203.3132553100586,203.4642457962036,203.4642457962036,203.4642457962036,203.4642457962036,203.4642457962036,203.4642457962036,203.4642457962036,204.19035863876343,3,0.8686742782592773,None,,,,,,,,,,,,,,,,,,192,6,2025-03-05_11h05.38.761,comp,2024.2.4,None,2025-03-05 11h05.51.723986 -0500,
56,56,0,critical,dhw,35.0,2.1,lower,70.0,70.0,133.0,57.0,57.0,133.0,3,0.7359294891357422,None,,,,,0,0,0,0,0,56,56,24,204.20709323883057,,,,,,,,,,,,,,,,,,,,,,,,,,,,,,,,,,,,,,,,,,,,,,,,,,,,,,,,,,,,,,,,,,,,,,,,,,,,,,,,,,70.0,70.0,133.0,57.0,57.0,133.0,2.1,2.11,-160,276,0,256,191,-255,204.19197940826416,204.19205713272095,204.19541144371033,204.20709323883057,204.34622883796692,204.34622883796692,204.34622883796692,204.34622883796692,204.34622883796692,204.34622883796692,204.34622883796692,204.9519362449646,3,0.7359294891357422,None,,,,,,,,,,,,,,,,,,192,6,2025-03-05_11h05.38.761,comp,2024.2.4,None,2025-03-05 11h05.51.723986 -0500,
57,57,0,critical,hwd,20.0,2.1,upper,200.0,125.0,125.0,200.0,141.0,141.0,1,2.178096294403076,None,,,,,0,0,0,0,0,57,57,19,204.9711194038391,,,,,,,,,,,,,,,,,,,,,,,,,,,,,,,,,,,,,,,,,,,,,,,,,,,,,,,,,,,,,,,,,,,,,,,,,,,,,,,,,,200.0,125.0,125.0,200.0,141.0,141.0,2.1,2.11,-258,262,0,262,266,-288,204.9536440372467,204.95377111434937,204.95722651481628,204.9711194038391,205.11849808692932,205.11849808692932,205.11849808692932,205.11849808692932,205.11849808692932,205.11849808692932,205.11849808692932,207.15116930007935,1,2.178096294403076,None,,,,,,,,,,,,,,,,,,192,6,2025-03-05_11h05.38.761,comp,2024.2.4,None,2025-03-05 11h05.51.723986 -0500,
58,58,0,critical,dhw,20.0,2.1,upper,141.0,141.0,200.0,125.0,125.0,200.0,2,1.0378336906433105,None,,,,,0,0,0,0,0,58,58,27,207.1674747467041,,,,,,,,,,,,,,,,,,,,,,,,,,,,,,,,,,,,,,,,,,,,,,,,,,,,,,,,,,,,,,,,,,,,,,,,,,,,,,,,,,141.0,141.0,200.0,125.0,125.0,200.0,2.1,2.12,-229,-278,0,-279,258,288,207.15287280082703,207.15295267105103,207.15665888786316,207.1674747467041,207.32081818580627,207.32081818580627,207.32081818580627,207.32081818580627,207.32081818580627,207.32081818580627,207.32081818580627,208.21591925621033,2,1.0378336906433105,None,,,,,,,,,,,,,,,,,,192,6,2025-03-05_11h05.38.761,comp,2024.2.4,None,2025-03-05 11h05.51.723986 -0500,
59,59,0,critical,hwd,35.0,4.0,upper,200.0,125.0,125.0,200.0,127.0,127.0,1,1.6128227710723877,None,,,,,0,0,0,0,0,59,59,101,208.23235630989075,,,,,,,,,,,,,,,,,,,,,,,,,,,,,,,,,,,,,,,,,,,,,,,,,,,,,,,,,,,,,,,,,,,,,,,,,,,,,,,,,,200.0,125.0,125.0,200.0,127.0,127.0,4.0,4.2,-258,-11,0,-282,260,6,208.2174711227417,208.21754598617554,208.22099685668945,208.23235630989075,208.36863493919373,208.36863493919373,208.36863493919373,208.36863493919373,208.36863493919373,208.36863493919373,208.36863493919373,209.85497498512268,1,1.6128227710723877,None,,,,,,,,,,,,,,,,,,192,6,2025-03-05_11h05.38.761,comp,2024.2.4,None,2025-03-05 11h05.51.723986 -0500,
60,60,0,filler_random,None,None,None,None,None,None,None,None,None,None,3,1.5098774433135986,None,,,,,0,0,0,0,0,60,60,139,209.87149333953857,,,,,,,,,,,,,,,,,,,,,,,,,,,,,,,,,,,,,,,,,,,,,,,,,,,,,,,,,,,,,,,,,,,,,,,,,,,,,,,,,,81.38666960498277,127.41464109568454,89.25871211058801,66.51847157003007,121.76549961671664,114.49621685426304,2.1,2.12,-193,-283,0,-253,187,274,209.85697150230408,209.85705137252808,209.86004209518433,209.87149333953857,210.01517367362976,210.01517367362976,210.01517367362976,210.01517367362976,210.01517367362976,210.01517367362976,210.01517367362976,211.38375329971313,3,1.5098774433135986,None,,,,,,,,,,,,,,,,,,192,6,2025-03-05_11h05.38.761,comp,2024.2.4,None,2025-03-05 11h05.51.723986 -0500,
61,61,0,filler_square,None,None,None,None,None,None,None,None,None,None,1,1.8967087268829346,None,,,,,0,0,0,0,0,61,61,188,211.40446400642395,,,,,,,,,,,,,,,,,,,,,,,,,,,,,,,,,,,,,,,,,,,,,,,,,,,,,,,,,,,,,,,,,,,,,,,,,,,,,,,,,,140.2295225269391,140.2295225269391,63.77422273080465,132.47893565004162,133.93220375793203,94.2838047887796,4.0,4.2,-232,-13,0,-290,209,-11,211.38549494743347,211.38557171821594,211.3887894153595,211.40446400642395,211.5518229007721,211.5518229007721,211.5518229007721,211.5518229007721,211.5518229007721,211.5518229007721,211.5518229007721,213.3188419342041,1,1.8967087268829346,None,,,,,,,,,,,,,,,,,,192,6,2025-03-05_11h05.38.761,comp,2024.2.4,None,2025-03-05 11h05.51.723986 -0500,
62,62,0,filler_random,None,None,None,None,None,None,None,None,None,None,2,0.9117715358734131,None,,,,,0,0,0,0,0,62,62,143,213.33452320098877,,,,,,,,,,,,,,,,,,,,,,,,,,,,,,,,,,,,,,,,,,,,,,,,,,,,,,,,,,,,,,,,,,,,,,,,,,,,,,,,,,99.18709599360916,110.2160916248723,123.96417646297667,136.97254350590714,60.31607619067557,111.88341597860338,3.0,3.1,-220,274,0,-5,220,-263,213.32050442695618,213.3206386566162,213.32419610023499,213.33452320098877,213.4874210357666,213.4874210357666,213.4874210357666,213.4874210357666,213.4874210357666,213.4874210357666,213.4874210357666,214.25197887420654,2,0.9117715358734131,None,,,,,,,,,,,,,,,,,,192,6,2025-03-05_11h05.38.761,comp,2024.2.4,None,2025-03-05 11h05.51.723986 -0500,
63,63,0,filler_square,None,None,None,None,None,None,None,None,None,None,1,1.5503406524658203,None,,,,,0,0,0,0,0,63,63,186,214.27086806297302,,,,,,,,,,,,,,,,,,,,,,,,,,,,,,,,,,,,,,,,,,,,,,,,,,,,,,,,,,,,,,,,,,,,,,,,,,,,,,,,,,94.0148721616305,94.0148721616305,68.7836078069871,83.93244990692551,84.35310582992457,62.858415164213426,3.0,3.2,-185,-277,0,18,169,281,214.25388288497925,214.2540090084076,214.2577929496765,214.27086806297302,214.41773915290833,214.41773915290833,214.41773915290833,214.41773915290833,214.41773915290833,214.41773915290833,214.41773915290833,215.84278869628906,1,1.5503406524658203,None,,,,,,,,,,,,,,,,,,192,6,2025-03-05_11h05.38.761,comp,2024.2.4,None,2025-03-05 11h05.51.723986 -0500,
64,64,0,filler_random,None,None,None,None,None,None,None,None,None,None,3,1.1047406196594238,None,,,,,0,0,0,0,0,64,64,158,215.86104917526245,,,,,,,,,,,,,,,,,,,,,,,,,,,,,,,,,,,,,,,,,,,,,,,,,,,,,,,,,,,,,,,,,,,,,,,,,,,,,,,,,,69.06269452358444,98.29666394198156,83.9071583793089,135.61664623016225,123.87373890305365,99.22324756236443,2.2,2.21,-213,-286,0,285,213,260,215.8445336818695,215.84460878372192,215.847589969635,215.86104917526245,216.0036177635193,216.0036177635193,216.0036177635193,216.0036177635193,216.0036177635193,216.0036177635193,216.0036177635193,216.969055891037,3,1.1047406196594238,None,,,,,,,,,,,,,,,,,,192,6,2025-03-05_11h05.38.761,comp,2024.2.4,None,2025-03-05 11h05.51.723986 -0500,
65,65,0,filler_square,None,None,None,None,None,None,None,None,None,None,1,1.0435285568237305,None,,,,,0,0,0,0,0,65,65,179,216.98566436767578,,,,,,,,,,,,,,,,,,,,,,,,,,,,,,,,,,,,,,,,,,,,,,,,,,,,,,,,,,,,,,,,,,,,,,,,,,,,,,,,,,59.11177968380746,59.95170761005555,60.589366259387326,60.589366259387326,59.23022976112144,58.974228946621594,2.1,2.11,-156,267,0,255,156,-257,216.97087359428406,216.9709529876709,216.97417402267456,216.98566436767578,217.14176177978516,217.14176177978516,217.14176177978516,217.14176177978516,217.14176177978516,217.14176177978516,217.14176177978516,218.0459921360016,1,1.0435285568237305,None,,,,,,,,,,,,,,,,,,192,6,2025-03-05_11h05.38.761,comp,2024.2.4,None,2025-03-05 11h05.51.723986 -0500,
66,66,0,critical,dhw,20.0,2.1,lower,78.0,78.0,133.0,57.0,57.0,133.0,2,1.0515666007995605,None,,,,,0,0,0,0,0,66,66,2,218.06632590293884,,,,,,,,,,,,,,,,,,,,,,,,,,,,,,,,,,,,,,,,,,,,,,,,,,,,,,,,,,,,,,,,,,,,,,,,,,,,,,,,,,78.0,78.0,133.0,57.0,57.0,133.0,2.1,2.11,-164,259,0,286,191,-273,218.04755854606628,218.04763555526733,218.05101776123047,218.06632590293884,218.20747828483582,218.20747828483582,218.20747828483582,218.20747828483582,218.20747828483582,218.20747828483582,218.20747828483582,219.1258692741394,2,1.0515666007995605,None,,,,,,,,,,,,,,,,,,192,6,2025-03-05_11h05.38.761,comp,2024.2.4,None,2025-03-05 11h05.51.723986 -0500,
67,67,0,critical,wdh,20.0,2.1,upper,125.0,200.0,141.0,141.0,200.0,125.0,3,1.4006845951080322,None,,,,,0,0,0,0,0,67,67,35,219.14207816123962,,,,,,,,,,,,,,,,,,,,,,,,,,,,,,,,,,,,,,,,,,,,,,,,,,,,,,,,,,,,,,,,,,,,,,,,,,,,,,,,,,125.0,200.0,141.0,141.0,200.0,125.0,2.1,2.12,-266,-258,0,-290,229,261,219.12735843658447,219.1274709701538,219.1305103302002,219.14207816123962,219.2852623462677,219.2852623462677,219.2852623462677,219.2852623462677,219.2852623462677,219.2852623462677,219.2852623462677,220.5567967891693,3,1.4006845951080322,None,,,,,,,,,,,,,,,,,,192,6,2025-03-05_11h05.38.761,comp,2024.2.4,None,2025-03-05 11h05.51.723986 -0500,
68,68,0,catch,None,None,None,None,None,None,None,None,None,None,1,0.7263171672821045,None,,,,,0,0,0,0,0,68,68,123,220.57532787322998,,,,,,,,,,,,,,,,,,,,,,,,,,,,,,,,,,,,,,,,,,,,,,,,,,,,,,,,,,,,,,,,,,,,,,,,,,,,,,,,,,176,149,79,111,99,91,2.2,2.22,-226,266,0,-288,197,-257,220.5589141845703,220.55899095535278,220.56279611587524,220.57532787322998,220.72123384475708,220.72123384475708,220.72123384475708,220.72123384475708,220.72123384475708,220.72123384475708,220.72123384475708,221.3201642036438,1,0.7263171672821045,None,,,,,,,,,,,,,,,,,,192,6,2025-03-05_11h05.38.761,comp,2024.2.4,None,2025-03-05 11h05.51.723986 -0500,
69,69,0,critical,dhw,35.0,2.1,upper,127.0,127.0,200.0,125.0,125.0,200.0,3,0.7736234664916992,None,,,,,0,0,0,0,0,69,69,1,221.33627319335938,,,,,,,,,,,,,,,,,,,,,,,,,,,,,,,,,,,,,,,,,,,,,,,,,,,,,,,,,,,,,,,,,,,,,,,,,,,,,,,,,,127.0,127.0,200.0,125.0,125.0,200.0,2.1,2.12,-222,-274,0,-264,258,261,221.32168412208557,221.321759223938,221.32498288154602,221.33627319335938,221.47512769699097,221.47512769699097,221.47512769699097,221.47512769699097,221.47512769699097,221.47512769699097,221.47512769699097,222.12883853912354,3,0.7736234664916992,None,,,,,,,,,,,,,,,,,,192,6,2025-03-05_11h05.38.761,comp,2024.2.4,None,2025-03-05 11h05.51.723986 -0500,
70,70,0,critical,dwh,35.0,4.0,lower,70.0,70.0,57.0,133.0,133.0,57.0,3,1.0008134841918945,None,,,,,0,0,0,0,0,70,70,64,222.1486747264862,,,,,,,,,,,,,,,,,,,,,,,,,,,,,,,,,,,,,,,,,,,,,,,,,,,,,,,,,,,,,,,,,,,,,,,,,,,,,,,,,,70.0,70.0,57.0,133.0,133.0,57.0,4.0,4.2,-198,11,0,-262,191,9,222.13032913208008,222.13042497634888,222.1334047317505,222.1486747264862,222.2844603061676,222.2844603061676,222.2844603061676,222.2844603061676,222.2844603061676,222.2844603061676,222.2844603061676,223.16173934936523,3,1.0008134841918945,None,,,,,,,,,,,,,,,,,,192,6,2025-03-05_11h05.38.761,comp,2024.2.4,None,2025-03-05 11h05.51.723986 -0500,
71,71,0,critical,whd,35.0,3.0,lower,57.0,133.0,133.0,57.0,70.0,70.0,2,0.8207266330718994,None,,,,,0,0,0,0,0,71,71,86,223.1770441532135,,,,,,,,,,,,,,,,,,,,,,,,,,,,,,,,,,,,,,,,,,,,,,,,,,,,,,,,,,,,,,,,,,,,,,,,,,,,,,,,,,57.0,133.0,133.0,57.0,70.0,70.0,3.0,3.1,-191,271,0,-17,160,-276,223.16325116157532,223.16332745552063,223.16630959510803,223.1770441532135,223.31966018676758,223.31966018676758,223.31966018676758,223.31966018676758,223.31966018676758,223.31966018676758,223.31966018676758,224.00272583961487,2,0.8207266330718994,None,,,,,,,,,,,,,,,,,,192,6,2025-03-05_11h05.38.761,comp,2024.2.4,None,2025-03-05 11h05.51.723986 -0500,
72,72,0,filler_square,None,None,None,None,None,None,None,None,None,None,2,0.7223854064941406,None,,,,,0,0,0,0,0,72,72,176,224.01951432228088,,,,,,,,,,,,,,,,,,,,,,,,,,,,,,,,,,,,,,,,,,,,,,,,,,,,,,,,,,,,,,,,,,,,,,,,,,,,,,,,,,160.16471732710727,160.16471732710727,134.46670336997158,158.10707285095185,64.98854183062912,143.57421294614807,2.2,2.21,-255,-289,0,264,247,273,224.00450992584229,224.00458407402039,224.00756907463074,224.01951432228088,224.15684270858765,224.15684270858765,224.15684270858765,224.15684270858765,224.15684270858765,224.15684270858765,224.15684270858765,224.7463343143463,2,0.7223854064941406,None,,,,,,,,,,,,,,,,,,192,6,2025-03-05_11h05.38.761,comp,2024.2.4,None,2025-03-05 11h05.51.723986 -0500,
73,73,0,critical,dhw,20.0,2.1,lower,78.0,78.0,133.0,57.0,57.0,133.0,2,0.6741578578948975,None,,,,,0,0,0,0,0,73,73,26,224.76314210891724,,,,,,,,,,,,,,,,,,,,,,,,,,,,,,,,,,,,,,,,,,,,,,,,,,,,,,,,,,,,,,,,,,,,,,,,,,,,,,,,,,78.0,78.0,133.0,57.0,57.0,133.0,2.1,2.11,-164,275,0,283,191,-254,224.74795699119568,224.74803280830383,224.75149130821228,224.76314210891724,224.90352249145508,224.90352249145508,224.90352249145508,224.90352249145508,224.90352249145508,224.90352249145508,224.90352249145508,225.45525431632996,2,0.6741578578948975,None,,,,,,,,,,,,,,,,,,192,6,2025-03-05_11h05.38.761,comp,2024.2.4,None,2025-03-05 11h05.51.723986 -0500,
74,74,0,filler_random,None,None,None,None,None,None,None,None,None,None,3,0.7893121242523193,None,,,,,0,0,0,0,0,74,74,166,225.47190380096436,,,,,,,,,,,,,,,,,,,,,,,,,,,,,,,,,,,,,,,,,,,,,,,,,,,,,,,,,,,,,,,,,,,,,,,,,,,,,,,,,,85.32540657009747,68.68369355171689,62.03772880457939,69.09966786734022,151.08773769449914,152.99068167907677,3.0,3.1,-165,267,0,-18,207,-259,225.45707511901855,225.45719480514526,225.46061086654663,225.47190380096436,225.62822008132935,225.62822008132935,225.62822008132935,225.62822008132935,225.62822008132935,225.62822008132935,225.62822008132935,226.27182960510254,3,0.7893121242523193,None,,,,,,,,,,,,,,,,,,192,6,2025-03-05_11h05.38.761,comp,2024.2.4,None,2025-03-05 11h05.51.723986 -0500,
75,75,0,filler_square,None,None,None,None,None,None,None,None,None,None,2,0.8820693492889404,None,,,,,0,0,0,0,0,75,75,172,226.29122591018677,,,,,,,,,,,,,,,,,,,,,,,,,,,,,,,,,,,,,,,,,,,,,,,,,,,,,,,,,,,,,,,,,,,,,,,,,,,,,,,,,,141.81843290504926,141.81843290504926,138.24890208539244,139.7143964148171,92.43698087581635,91.19602884021404,3.0,3.1,-237,254,0,15,211,-265,226.27368903160095,226.27381372451782,226.27883124351501,226.29122591018677,226.43928265571594,226.43928265571594,226.43928265571594,226.43928265571594,226.43928265571594,226.43928265571594,226.43928265571594,227.1897852420807,2,0.8820693492889404,None,,,,,,,,,,,,,,,,,,192,6,2025-03-05_11h05.38.761,comp,2024.2.4,None,2025-03-05 11h05.51.723986 -0500,
76,76,0,critical,dwh,20.0,1.0,lower,78.0,78.0,57.0,133.0,133.0,57.0,3,0.9450738430023193,None,,,,,0,0,0,0,0,76,76,66,227.20506143569946,,,,,,,,,,,,,,,,,,,,,,,,,,,,,,,,,,,,,,,,,,,,,,,,,,,,,,,,,,,,,,,,,,,,,,,,,,,,,,,,,,78.0,78.0,57.0,133.0,133.0,57.0,1.0,1.2,-202,2,0,9,191,-8,227.19127297401428,227.19134902954102,227.1948344707489,227.20506143569946,227.35349082946777,227.35349082946777,227.35349082946777,227.35349082946777,227.35349082946777,227.35349082946777,227.35349082946777,228.15583491325378,3,0.9450738430023193,None,,,,,,,,,,,,,,,,,,192,6,2025-03-05_11h05.38.761,comp,2024.2.4,None,2025-03-05 11h05.51.723986 -0500,
77,77,0,filler_random,None,None,None,None,None,None,None,None,None,None,1,0.8814907073974609,None,,,,,0,0,0,0,0,77,77,131,228.17234134674072,,,,,,,,,,,,,,,,,,,,,,,,,,,,,,,,,,,,,,,,,,,,,,,,,,,,,,,,,,,,,,,,,,,,,,,,,,,,,,,,,,116.17433659200813,129.52343711953614,111.74087710946415,193.8703996908618,117.55317024134783,166.4279750876166,1.0,1.3,222,-257,480,-282,756,-288,228.15760374069214,228.1576795578003,228.1608488559723,228.17234134674072,228.32419538497925,228.32419538497925,228.32419538497925,228.32419538497925,228.32419538497925,228.32419538497925,228.32419538497925,229.06202673912048,1,0.8814907073974609,None,,,,,,,,,,,,,,,,,,192,6,2025-03-05_11h05.38.761,comp,2024.2.4,None,2025-03-05 11h05.51.723986 -0500,
78,78,0,critical,wdh,35.0,3.0,upper,125.0,200.0,127.0,127.0,200.0,125.0,1,1.175964593887329,None,,,,,0,0,0,0,0,78,78,75,229.07829308509827,,,,,,,,,,,,,,,,,,,,,,,,,,,,,,,,,,,,,,,,,,,,,,,,,,,,,,,,,,,,,,,,,,,,,,,,,,,,,,,,,,125.0,200.0,127.0,127.0,200.0,125.0,3.0,3.2,-260,-287,0,-12,222,265,229.0635368824005,229.06363368034363,229.06760597229004,229.07829308509827,229.2223596572876,229.2223596572876,229.2223596572876,229.2223596572876,229.2223596572876,229.2223596572876,229.2223596572876,230.25909423828125,1,1.175964593887329,None,,,,,,,,,,,,,,,,,,192,6,2025-03-05_11h05.38.761,comp,2024.2.4,None,2025-03-05 11h05.51.723986 -0500,
79,79,0,critical,dwh,20.0,4.0,upper,141.0,141.0,125.0,200.0,200.0,125.0,3,1.107262134552002,None,,,,,0,0,0,0,0,79,79,71,230.27482295036316,,,,,,,,,,,,,,,,,,,,,,,,,,,,,,,,,,,,,,,,,,,,,,,,,,,,,,,,,,,,,,,,,,,,,,,,,,,,,,,,,,141.0,141.0,125.0,200.0,200.0,125.0,4.0,4.2,-266,2,0,-268,258,18,230.26075911521912,230.26083612442017,230.26420640945435,230.27482295036316,230.42429184913635,230.42429184913635,230.42429184913635,230.42429184913635,230.42429184913635,230.42429184913635,230.42429184913635,231.3897886276245,3,1.107262134552002,None,,,,,,,,,,,,,,,,,,192,6,2025-03-05_11h05.38.761,comp,2024.2.4,None,2025-03-05 11h05.51.723986 -0500,
80,80,0,critical,hwd,35.0,3.0,lower,133.0,57.0,57.0,133.0,70.0,70.0,1,1.1524102687835693,None,,,,,0,0,0,0,0,80,80,98,231.40563368797302,,,,,,,,,,,,,,,,,,,,,,,,,,,,,,,,,,,,,,,,,,,,,,,,,,,,,,,,,,,,,,,,,,,,,,,,,,,,,,,,,,133.0,57.0,57.0,133.0,70.0,70.0,3.0,3.2,-191,-271,0,-13,198,289,231.39121913909912,231.391295671463,231.39432525634766,231.40563368797302,231.55778169631958,231.55778169631958,231.55778169631958,231.55778169631958,231.55778169631958,231.55778169631958,231.55778169631958,232.5747787952423,1,1.1524102687835693,None,,,,,,,,,,,,,,,,,,192,6,2025-03-05_11h05.38.761,comp,2024.2.4,None,2025-03-05 11h05.51.723986 -0500,
81,81,0,filler_random,None,None,None,None,None,None,None,None,None,None,3,0.7756998538970947,None,,,,,0,0,0,0,0,81,81,163,232.5903799533844,,,,,,,,,,,,,,,,,,,,,,,,,,,,,,,,,,,,,,,,,,,,,,,,,,,,,,,,,,,,,,,,,,,,,,,,,,,,,,,,,,164.57942923965106,137.85948585061942,68.24930687183313,94.13262300283186,150.68488017139217,191.2957041941383,2.2,2.22,-212,259,0,-268,239,-269,232.57664585113525,232.576726436615,232.5800757408142,232.5903799533844,232.7400779724121,232.7400779724121,232.7400779724121,232.7400779724121,232.7400779724121,232.7400779724121,232.7400779724121,233.37658596038818,3,0.7756998538970947,None,,,,,,,,,,,,,,,,,,192,6,2025-03-05_11h05.38.761,comp,2024.2.4,None,2025-03-05 11h05.51.723986 -0500,
82,82,0,critical,wdh,20.0,2.1,lower,57.0,133.0,78.0,78.0,133.0,57.0,1,0.9495823383331299,None,,,,,0,0,0,0,0,82,82,10,233.39238286018372,,,,,,,,,,,,,,,,,,,,,,,,,,,,,,,,,,,,,,,,,,,,,,,,,,,,,,,,,,,,,,,,,,,,,,,,,,,,,,,,,,57.0,133.0,78.0,78.0,133.0,57.0,2.1,2.12,-202,-282,0,-271,164,262,233.37819838523865,233.37827515602112,233.38166069984436,233.39238286018372,233.53482389450073,233.53482389450073,233.53482389450073,233.53482389450073,233.53482389450073,233.53482389450073,233.53482389450073,234.34774160385132,1,0.9495823383331299,None,,,,,,,,,,,,,,,,,,192,6,2025-03-05_11h05.38.761,comp,2024.2.4,None,2025-03-05 11h05.51.723986 -0500,
83,83,0,filler_random,None,None,None,None,None,None,None,None,None,None,3,1.0169293880462646,None,,,,,0,0,0,0,0,83,83,161,234.364324092865,,,,,,,,,,,,,,,,,,,,,,,,,,,,,,,,,,,,,,,,,,,,,,,,,,,,,,,,,,,,,,,,,,,,,,,,,,,,,,,,,,71.29425382039963,135.4824872584834,184.441601923451,170.7781053472579,170.20497839584618,175.55840058414066,2.2,2.21,-249,-288,0,284,269,283,234.34995412826538,234.35003566741943,234.35305976867676,234.364324092865,234.50722122192383,234.50722122192383,234.50722122192383,234.50722122192383,234.50722122192383,234.50722122192383,234.50722122192383,235.39122486114502,3,1.0169293880462646,None,,,,,,,,,,,,,,,,,,192,6,2025-03-05_11h05.38.761,comp,2024.2.4,None,2025-03-05 11h05.51.723986 -0500,
84,84,0,filler_random,None,None,None,None,None,None,None,None,None,None,2,0.9094748497009277,None,,,,,0,0,0,0,0,84,84,135,235.40776658058167,,,,,,,,,,,,,,,,,,,,,,,,,,,,,,,,,,,,,,,,,,,,,,,,,,,,,,,,,,,,,,,,,,,,,,,,,,,,,,,,,,130.9657559617408,92.93611491427735,192.55218809615306,71.15311294599161,71.01203195457548,129.90178663523142,1.0,1.2,-178,15,0,-4,197,2,235.39287328720093,235.3929488658905,235.39609050750732,235.40776658058167,235.55790901184082,235.55790901184082,235.55790901184082,235.55790901184082,235.55790901184082,235.55790901184082,235.55790901184082,236.32717108726501,2,0.9094748497009277,None,,,,,,,,,,,,,,,,,,192,6,2025-03-05_11h05.38.761,comp,2024.2.4,None,2025-03-05 11h05.51.723986 -0500,
85,85,0,filler_random,None,None,None,None,None,None,None,None,None,None,1,0.7735946178436279,None,,,,,0,0,0,0,0,85,85,133,236.34376645088196,,,,,,,,,,,,,,,,,,,,,,,,,,,,,,,,,,,,,,,,,,,,,,,,,,,,,,,,,,,,,,,,,,,,,,,,,,,,,,,,,,142.33364134166524,146.36721569885296,126.2357496889163,107.04559491740267,111.26376367177802,101.40268390073703,4.0,4.1,-223,-256,0,20,200,-279,236.329185962677,236.32926535606384,236.3330466747284,236.34376645088196,236.492516040802,236.492516040802,236.492516040802,236.492516040802,236.492516040802,236.492516040802,236.492516040802,237.13422226905823,1,0.7735946178436279,None,,,,,,,,,,,,,,,,,,192,6,2025-03-05_11h05.38.761,comp,2024.2.4,None,2025-03-05 11h05.51.723986 -0500,
86,86,0,filler_random,None,None,None,None,None,None,None,None,None,None,3,1.0860669612884521,None,,,,,0,0,0,0,0,86,86,134,237.15183281898499,,,,,,,,,,,,,,,,,,,,,,,,,,,,,,,,,,,,,,,,,,,,,,,,,,,,,,,,,,,,,,,,,,,,,,,,,,,,,,,,,,196.64931777061977,105.04763116141365,165.66038597809765,91.41365228313342,139.73209185072687,113.16685613482686,3.0,3.1,-194,251,0,13,198,-271,237.13592648506165,237.13600182533264,237.1390585899353,237.15183281898499,237.2926104068756,237.2926104068756,237.2926104068756,237.2926104068756,237.2926104068756,237.2926104068756,237.2926104068756,238.2457983493805,3,1.0860669612884521,None,,,,,,,,,,,,,,,,,,192,6,2025-03-05_11h05.38.761,comp,2024.2.4,None,2025-03-05 11h05.51.723986 -0500,
87,87,0,critical,wdh,20.0,1.0,lower,57.0,133.0,78.0,78.0,133.0,57.0,3,0.9930827617645264,None,,,,,0,0,0,0,0,87,87,78,238.261328458786,,,,,,,,,,,,,,,,,,,,,,,,,,,,,,,,,,,,,,,,,,,,,,,,,,,,,,,,,,,,,,,,,,,,,,,,,,,,,,,,,,57.0,133.0,78.0,78.0,133.0,57.0,1.0,1.3,278,-251,480,-252,644,-271,238.24754309654236,238.247624874115,238.2507929801941,238.261328458786,238.40854382514954,238.40854382514954,238.40854382514954,238.40854382514954,238.40854382514954,238.40854382514954,238.40854382514954,239.25864553451538,3,0.9930827617645264,None,,,,,,,,,,,,,,,,,,192,6,2025-03-05_11h05.38.761,comp,2024.2.4,None,2025-03-05 11h05.51.723986 -0500,
88,88,0,filler_random,None,None,None,None,None,None,None,None,None,None,1,0.8653380870819092,None,,,,,0,0,0,0,0,88,88,149,239.27593803405762,,,,,,,,,,,,,,,,,,,,,,,,,,,,,,,,,,,,,,,,,,,,,,,,,,,,,,,,,,,,,,,,,,,,,,,,,,,,,,,,,,174.4883258381335,86.4391167156454,134.00319087359088,121.77288370686902,111.39508596762536,151.397071767527,3.0,3.2,-200,-269,0,-12,233,264,239.26029443740845,239.2603702545166,239.26337814331055,239.27593803405762,239.41482019424438,239.41482019424438,239.41482019424438,239.41482019424438,239.41482019424438,239.41482019424438,239.41482019424438,240.14470076560974,1,0.8653380870819092,None,,,,,,,,,,,,,,,,,,192,6,2025-03-05_11h05.38.761,comp,2024.2.4,None,2025-03-05 11h05.51.723986 -0500,
89,89,0,critical,dwh,35.0,3.0,lower,70.0,70.0,57.0,133.0,133.0,57.0,3,0.8131914138793945,None,,,,,0,0,0,0,0,89,89,62,240.16034078598022,,,,,,,,,,,,,,,,,,,,,,,,,,,,,,,,,,,,,,,,,,,,,,,,,,,,,,,,,,,,,,,,,,,,,,,,,,,,,,,,,,70.0,70.0,57.0,133.0,133.0,57.0,3.0,3.1,-198,251,0,6,191,-271,240.14621782302856,240.1462950706482,240.14981245994568,240.16034078598022,240.29913640022278,240.29913640022278,240.29913640022278,240.29913640022278,240.29913640022278,240.29913640022278,240.29913640022278,240.97649335861206,3,0.8131914138793945,None,,,,,,,,,,,,,,,,,,192,6,2025-03-05_11h05.38.761,comp,2024.2.4,None,2025-03-05 11h05.51.723986 -0500,
90,90,0,critical,hdw,35.0,2.1,upper,200.0,125.0,127.0,127.0,125.0,200.0,2,0.013004064559936523,None,,,,,0,0,0,0,0,90,90,45,240.99326133728027,,,,,,,,,,,,,,,,,,,,,,,,,,,,,,,,,,,,,,,,,,,,,,,,,,,,,,,,,,,,,,,,,,,,,,,,,,,,,,,,,,200.0,125.0,127.0,127.0,125.0,200.0,2.1,2.11,-222,270,0,273,260,-266,240.9780523777008,240.97812914848328,240.98154997825623,240.99326133728027,,,,,,,,241.01143860816956,2,0.013004064559936523,None,,,,,,,,,,,,,,,,,,192,6,2025-03-05_11h05.38.761,comp,2024.2.4,None,2025-03-05 11h05.51.723986 -0500,
91,91,0,critical,wdh,35.0,2.1,upper,125.0,200.0,127.0,127.0,200.0,125.0,1,0.9277453422546387,None,,,,,0,0,0,0,0,91,91,33,241.02971649169922,,,,,,,,,,,,,,,,,,,,,,,,,,,,,,,,,,,,,,,,,,,,,,,,,,,,,,,,,,,,,,,,,,,,,,,,,,,,,,,,,,125.0,200.0,127.0,127.0,200.0,125.0,2.1,2.12,-260,-261,0,-250,222,281,241.01303911209106,241.0131130218506,241.01659274101257,241.02971649169922,241.18187499046326,241.18187499046326,241.18187499046326,241.18187499046326,241.18187499046326,241.18187499046326,241.18187499046326,241.968816280365,1,0.9277453422546387,None,,,,,,,,,,,,,,,,,,192,6,2025-03-05_11h05.38.761,comp,2024.2.4,None,2025-03-05 11h05.51.723986 -0500,
92,92,0,critical,hwd,35.0,1.0,lower,133.0,57.0,57.0,133.0,70.0,70.0,1,0.7714443206787109,None,,,,,0,0,0,0,0,92,92,96,241.98650884628296,,,,,,,,,,,,,,,,,,,,,,,,,,,,,,,,,,,,,,,,,,,,,,,,,,,,,,,,,,,,,,,,,,,,,,,,,,,,,,,,,,133.0,57.0,57.0,133.0,70.0,70.0,1.0,1.3,289,-268,480,-267,678,-282,241.97030878067017,241.97038507461548,241.9734354019165,241.98650884628296,242.12622356414795,242.12622356414795,242.12622356414795,242.12622356414795,242.12622356414795,242.12622356414795,242.12622356414795,242.76168036460876,1,0.7714443206787109,None,,,,,,,,,,,,,,,,,,192,6,2025-03-05_11h05.38.761,comp,2024.2.4,None,2025-03-05 11h05.51.723986 -0500,
93,93,0,critical,hdw,20.0,1.0,lower,133.0,57.0,78.0,78.0,57.0,133.0,1,0.7308793067932129,None,,,,,0,0,0,0,0,93,93,114,242.7786409854889,,,,,,,,,,,,,,,,,,,,,,,,,,,,,,,,,,,,,,,,,,,,,,,,,,,,,,,,,,,,,,,,,,,,,,,,,,,,,,,,,,133.0,57.0,78.0,78.0,57.0,133.0,1.0,1.2,-164,-3,0,-7,202,4,242.7631959915161,242.76327419281006,242.7673511505127,242.7786409854889,242.93397188186646,242.93397188186646,242.93397188186646,242.93397188186646,242.93397188186646,242.93397188186646,242.93397188186646,243.5158076286316,1,0.7308793067932129,None,,,,,,,,,,,,,,,,,,192,6,2025-03-05_11h05.38.761,comp,2024.2.4,None,2025-03-05 11h05.51.723986 -0500,
94,94,0,filler_random,None,None,None,None,None,None,None,None,None,None,1,1.0792784690856934,None,,,,,0,0,0,0,0,94,94,160,243.53438591957092,,,,,,,,,,,,,,,,,,,,,,,,,,,,,,,,,,,,,,,,,,,,,,,,,,,,,,,,,,,,,,,,,,,,,,,,,,,,,,,,,,162.37211657193308,178.68678671624235,180.13802851988493,66.79274352426806,125.97171235530632,57.66023727217762,3.0,3.1,-219,281,0,15,158,-255,243.51765131950378,243.51778411865234,243.5211820602417,243.53438591957092,243.67950248718262,243.67950248718262,243.67950248718262,243.67950248718262,243.67950248718262,243.67950248718262,243.67950248718262,244.6299455165863,1,1.0792784690856934,None,,,,,,,,,,,,,,,,,,192,6,2025-03-05_11h05.38.761,comp,2024.2.4,None,2025-03-05 11h05.51.723986 -0500,
95,95,0,critical,hwd,35.0,2.1,upper,200.0,125.0,125.0,200.0,127.0,127.0,2,1.6073508262634277,None,,,,,0,0,0,0,0,95,95,41,244.6458911895752,,,,,,,,,,,,,,,,,,,,,,,,,,,,,,,,,,,,,,,,,,,,,,,,,,,,,,,,,,,,,,,,,,,,,,,,,,,,,,,,,,200.0,125.0,125.0,200.0,127.0,127.0,2.1,2.11,-258,256,0,276,260,-289,244.6313738822937,244.6314787864685,244.6356077194214,244.6458911895752,244.79606294631958,244.79606294631958,244.79606294631958,244.79606294631958,244.79606294631958,244.79606294631958,244.79606294631958,246.26394128799438,2,1.6073508262634277,None,,,,,,,,,,,,,,,,,,192,6,2025-03-05_11h05.38.761,comp,2024.2.4,None,2025-03-05 11h05.51.723986 -0500,
96,96,0,critical,dhw,20.0,1.0,upper,141.0,141.0,200.0,125.0,125.0,200.0,2,0.8135251998901367,None,,,,,0,0,0,0,0,96,96,55,246.28032779693604,,,,,,,,,,,,,,,,,,,,,,,,,,,,,,,,,,,,,,,,,,,,,,,,,,,,,,,,,,,,,,,,,,,,,,,,,,,,,,,,,,141.0,141.0,200.0,125.0,125.0,200.0,1.0,1.1,-709,281,-480,276,-222,255,246.26542830467224,246.2655065059662,246.26877403259277,246.28032779693604,246.4289984703064,246.4289984703064,246.4289984703064,246.4289984703064,246.4289984703064,246.4289984703064,246.4289984703064,247.09845900535583,2,0.8135251998901367,None,,,,,,,,,,,,,,,,,,192,6,2025-03-05_11h05.38.761,comp,2024.2.4,None,2025-03-05 11h05.51.723986 -0500,
97,97,0,filler_random,None,None,None,None,None,None,None,None,None,None,2,0.04846477508544922,None,,,,,0,0,0,0,0,97,97,155,247.11683344841003,,,,,,,,,,,,,,,,,,,,,,,,,,,,,,,,,,,,,,,,,,,,,,,,,,,,,,,,,,,,,,,,,,,,,,,,,,,,,,,,,,147.29732863571695,60.12705237239242,70.08856310270001,106.2776897448922,192.3299359997711,64.24058131787376,2.1,2.11,-179,281,0,287,181,-273,247.10055565834045,247.10063409805298,247.10451817512512,247.11683344841003,,,,,,,,247.1804358959198,2,0.04846477508544922,None,,,,,,,,,,,,,,,,,,192,6,2025-03-05_11h05.38.761,comp,2024.2.4,None,2025-03-05 11h05.51.723986 -0500,
98,98,0,filler_square,None,None,None,None,None,None,None,None,None,None,2,0.9770007133483887,None,,,,,0,0,0,0,0,98,98,194,247.19657635688782,,,,,,,,,,,,,,,,,,,,,,,,,,,,,,,,,,,,,,,,,,,,,,,,,,,,,,,,,,,,,,,,,,,,,,,,,,,,,,,,,,58.883871224670365,121.18583615997731,168.0062046400414,168.0062046400414,107.70890416438267,66.57484140943097,3.0,3.2,-241,-266,0,12,213,251,247.18258047103882,247.18265676498413,247.1862976551056,247.19657635688782,247.34926629066467,247.34926629066467,247.34926629066467,247.34926629066467,247.34926629066467,247.34926629066467,247.34926629066467,248.18267488479614,2,0.9770007133483887,None,,,,,,,,,,,,,,,,,,192,6,2025-03-05_11h05.38.761,comp,2024.2.4,None,2025-03-05 11h05.51.723986 -0500,
99,99,0,critical,dhw,35.0,4.0,upper,127.0,127.0,200.0,125.0,125.0,200.0,2,1.068892478942871,None,,,,,0,0,0,0,0,99,99,53,248.20082664489746,,,,,,,,,,,,,,,,,,,,,,,,,,,,,,,,,,,,,,,,,,,,,,,,,,,,,,,,,,,,,,,,,,,,,,,,,,,,,,,,,,127.0,127.0,200.0,125.0,125.0,200.0,4.0,4.2,-222,-3,0,-277,258,-1,248.18423676490784,248.18431663513184,248.18740916252136,248.20082664489746,248.34738779067993,248.34738779067993,248.34738779067993,248.34738779067993,248.34738779067993,248.34738779067993,248.34738779067993,249.27417087554932,2,1.068892478942871,None,,,,,,,,,,,,,,,,,,192,6,2025-03-05_11h05.38.761,comp,2024.2.4,None,2025-03-05 11h05.51.723986 -0500,
100,100,0,critical,dhw,35.0,2.1,lower,70.0,70.0,133.0,57.0,57.0,133.0,3,0.9478042125701904,None,,,,,0,0,0,0,0,100,100,0,249.28946948051453,,,,,,,,,,,,,,,,,,,,,,,,,,,,,,,,,,,,,,,,,,,,,,,,,,,,,,,,,,,,,,,,,,,,,,,,,,,,,,,,,,70.0,70.0,133.0,57.0,57.0,133.0,2.1,2.11,-160,261,0,256,191,-259,249.27566576004028,249.27574157714844,249.2787127494812,249.28946948051453,249.4316749572754,249.4316749572754,249.4316749572754,249.4316749572754,249.4316749572754,249.4316749572754,249.4316749572754,250.25063133239746,3,0.9478042125701904,None,,,,,,,,,,,,,,,,,,192,6,2025-03-05_11h05.38.761,comp,2024.2.4,None,2025-03-05 11h05.51.723986 -0500,
101,101,0,critical,hdw,35.0,1.0,upper,200.0,125.0,127.0,127.0,125.0,200.0,1,0.7986416816711426,None,,,,,0,0,0,0,0,101,101,109,250.27059531211853,,,,,,,,,,,,,,,,,,,,,,,,,,,,,,,,,,,,,,,,,,,,,,,,,,,,,,,,,,,,,,,,,,,,,,,,,,,,,,,,,,200.0,125.0,127.0,127.0,125.0,200.0,1.0,1.1,-702,262,-480,279,-220,255,250.25263929367065,250.2527153491974,250.25579714775085,250.27059531211853,250.41345596313477,250.41345596313477,250.41345596313477,250.41345596313477,250.41345596313477,250.41345596313477,250.41345596313477,251.08255624771118,1,0.7986416816711426,None,,,,,,,,,,,,,,,,,,192,6,2025-03-05_11h05.38.761,comp,2024.2.4,None,2025-03-05 11h05.51.723986 -0500,
102,102,0,filler_random,None,None,None,None,None,None,None,None,None,None,1,0.8357982635498047,None,,,,,0,0,0,0,0,102,102,151,251.0981752872467,,,,,,,,,,,,,,,,,,,,,,,,,,,,,,,,,,,,,,,,,,,,,,,,,,,,,,,,,,,,,,,,,,,,,,,,,,,,,,,,,,186.05243778659042,140.13244774892064,184.85890388724823,86.159268976859,179.28676070321626,177.49636379947077,2.1,2.11,-209,277,0,271,228,-254,251.08438110351562,251.08450603485107,251.08780026435852,251.0981752872467,251.2481391429901,251.2481391429901,251.2481391429901,251.2481391429901,251.2481391429901,251.2481391429901,251.2481391429901,251.9401876926422,1,0.8357982635498047,None,,,,,,,,,,,,,,,,,,192,6,2025-03-05_11h05.38.761,comp,2024.2.4,None,2025-03-05 11h05.51.723986 -0500,
103,103,0,filler_square,None,None,None,None,None,None,None,None,None,None,3,0.7456920146942139,None,,,,,0,0,0,0,0,103,103,196,251.95575165748596,,,,,,,,,,,,,,,,,,,,,,,,,,,,,,,,,,,,,,,,,,,,,,,,,,,,,,,,,,,,,,,,,,,,,,,,,,,,,,,,,,143.57838206708442,62.462737488548605,139.44077554149248,131.12873791293384,188.52246102319498,188.52246102319498,3.0,3.2,-193,-285,0,13,256,253,251.9420166015625,251.94209241867065,251.94503235816956,251.95575165748596,252.09737586975098,252.09737586975098,252.09737586975098,252.09737586975098,252.09737586975098,252.09737586975098,252.09737586975098,252.71428108215332,3,0.7456920146942139,None,,,,,,,,,,,,,,,,,,192,6,2025-03-05_11h05.38.761,comp,2024.2.4,None,2025-03-05 11h05.51.723986 -0500,
104,104,0,catch,None,None,None,None,None,None,None,None,None,None,2,0.6915180683135986,None,,,,,0,0,0,0,0,104,104,128,252.7299084663391,,,,,,,,,,,,,,,,,,,,,,,,,,,,,,,,,,,,,,,,,,,,,,,,,,,,,,,,,,,,,,,,,,,,,,,,,,,,,,,,,,88,102,160,165,123,67,3.0,3.2,-230,-265,0,-11,212,263,252.7161362171173,252.71621203422546,252.71913957595825,252.7299084663391,252.8849437236786,252.8849437236786,252.8849437236786,252.8849437236786,252.8849437236786,252.8849437236786,252.8849437236786,253.43051266670227,2,0.6915180683135986,None,,,,,,,,,,,,,,,,,,192,6,2025-03-05_11h05.38.761,comp,2024.2.4,None,2025-03-05 11h05.51.723986 -0500,
105,105,0,filler_square,None,None,None,None,None,None,None,None,None,None,3,0.7185115814208984,None,,,,,0,0,0,0,0,105,105,177,253.44678211212158,,,,,,,,,,,,,,,,,,,,,,,,,,,,,,,,,,,,,,,,,,,,,,,,,,,,,,,,,,,,,,,,,,,,,,,,,,,,,,,,,,83.971571576611,70.64966442066635,116.43786524365098,93.23639725023455,175.37155344689165,175.37155344689165,2.2,2.22,-178,288,0,-257,230,-274,253.43233227729797,253.43259191513062,253.43604254722595,253.44678211212158,253.60791850090027,253.60791850090027,253.60791850090027,253.60791850090027,253.60791850090027,253.60791850090027,253.60791850090027,254.18094897270203,3,0.7185115814208984,None,,,,,,,,,,,,,,,,,,192,6,2025-03-05_11h05.38.761,comp,2024.2.4,None,2025-03-05 11h05.51.723986 -0500,
106,106,0,catch,None,None,None,None,None,None,None,None,None,None,2,0.7283623218536377,None,,,,,0,0,0,0,0,106,106,121,254.1973421573639,,,,,,,,,,,,,,,,,,,,,,,,,,,,,,,,,,,,,,,,,,,,,,,,,,,,,,,,,,,,,,,,,,,,,,,,,,,,,,,,,,93,97,178,147,71,119,2.1,2.11,-218,289,0,277,229,-263,254.18285012245178,254.1829264163971,254.1860601902008,254.1973421573639,254.35143876075745,254.35143876075745,254.35143876075745,254.35143876075745,254.35143876075745,254.35143876075745,254.35143876075745,254.93115997314453,2,0.7283623218536377,None,,,,,,,,,,,,,,,,,,192,6,2025-03-05_11h05.38.761,comp,2024.2.4,None,2025-03-05 11h05.51.723986 -0500,
107,107,0,critical,whd,20.0,2.1,lower,57.0,133.0,133.0,57.0,78.0,78.0,2,1.0178911685943604,None,,,,,0,0,0,0,0,107,107,14,254.9476706981659,,,,,,,,,,,,,,,,,,,,,,,,,,,,,,,,,,,,,,,,,,,,,,,,,,,,,,,,,,,,,,,,,,,,,,,,,,,,,,,,,,57.0,133.0,133.0,57.0,78.0,78.0,2.1,2.12,-191,-272,0,-269,164,262,254.9328203201294,254.93291091918945,254.9363603591919,254.9476706981659,255.10281777381897,255.10281777381897,255.10281777381897,255.10281777381897,255.10281777381897,255.10281777381897,255.10281777381897,255.96765232086182,2,1.0178911685943604,None,,,,,,,,,,,,,,,,,,192,6,2025-03-05_11h05.38.761,comp,2024.2.4,None,2025-03-05 11h05.51.723986 -0500,
108,108,0,critical,wdh,20.0,3.0,upper,125.0,200.0,141.0,141.0,200.0,125.0,1,1.1515045166015625,None,,,,,0,0,0,0,0,108,108,81,255.9817841053009,,,,,,,,,,,,,,,,,,,,,,,,,,,,,,,,,,,,,,,,,,,,,,,,,,,,,,,,,,,,,,,,,,,,,,,,,,,,,,,,,,125.0,200.0,141.0,141.0,200.0,125.0,3.0,3.2,-266,-251,0,-14,229,254,255.96927094459534,255.9693500995636,255.97248482704163,255.9817841053009,256.1360411643982,256.1360411643982,256.1360411643982,256.1360411643982,256.1360411643982,256.1360411643982,256.1360411643982,257.1367847919464,1,1.1515045166015625,None,,,,,,,,,,,,,,,,,,192,6,2025-03-05_11h05.38.761,comp,2024.2.4,None,2025-03-05 11h05.51.723986 -0500,
109,109,0,critical,whd,20.0,3.0,upper,125.0,200.0,200.0,125.0,141.0,141.0,2,7.133014440536499,None,,,,,0,0,0,0,0,109,109,93,257.15224051475525,,,,,,,,,,,,,,,,,,,,,,,,,,,,,,,,,,,,,,,,,,,,,,,,,,,,,,,,,,,,,,,,,,,,,,,,,,,,,,,,,,125.0,200.0,200.0,125.0,141.0,141.0,3.0,3.1,-258,289,0,-6,229,-283,257.1382751464844,257.13835167884827,257.14169669151306,257.15224051475525,257.2973840236664,257.2973840236664,257.2973840236664,257.2973840236664,257.2973840236664,257.2973840236664,257.2973840236664,264.30472207069397,2,7.133014440536499,None,,,,,,,,,,,,,,,,,,192,6,2025-03-05_11h05.38.761,comp,2024.2.4,None,2025-03-05 11h05.51.723986 -0500,
110,110,0,critical,dhw,20.0,3.0,upper,141.0,141.0,200.0,125.0,125.0,200.0,2,0.6979928016662598,None,,,,,0,0,0,0,0,110,110,57,264.32330203056335,,,,,,,,,,,,,,,,,,,,,,,,,,,,,,,,,,,,,,,,,,,,,,,,,,,,,,,,,,,,,,,,,,,,,,,,,,,,,,,,,,141.0,141.0,200.0,125.0,125.0,200.0,3.0,3.2,-229,-256,0,-20,258,281,264.30625438690186,264.3063335418701,264.30983424186707,264.32330203056335,264.46807622909546,264.46807622909546,264.46807622909546,264.46807622909546,264.46807622909546,264.46807622909546,264.46807622909546,265.036075592041,2,0.6979928016662598,None,,,,,,,,,,,,,,,,,,192,6,2025-03-05_11h05.38.761,comp,2024.2.4,None,2025-03-05 11h05.51.723986 -0500,
111,111,0,critical,dwh,35.0,1.0,upper,127.0,127.0,125.0,200.0,200.0,125.0,3,1.1853346824645996,None,,,,,0,0,0,0,0,111,111,61,265.0521149635315,,,,,,,,,,,,,,,,,,,,,,,,,,,,,,,,,,,,,,,,,,,,,,,,,,,,,,,,,,,,,,,,,,,,,,,,,,,,,,,,,,127.0,127.0,125.0,200.0,200.0,125.0,1.0,1.3,220,-255,480,-288,738,-277,265.0376317501068,265.0377080440521,265.04182839393616,265.0521149635315,265.2005543708801,265.2005543708801,265.2005543708801,265.2005543708801,265.2005543708801,265.2005543708801,265.2005543708801,266.25233793258667,3,1.1853346824645996,None,,,,,,,,,,,,,,,,,,192,6,2025-03-05_11h05.38.761,comp,2024.2.4,None,2025-03-05 11h05.51.723986 -0500,
112,112,0,critical,hdw,35.0,1.0,lower,133.0,57.0,70.0,70.0,57.0,133.0,3,1.345383644104004,None,,,,,0,0,0,0,0,112,112,108,266.26845955848694,,,,,,,,,,,,,,,,,,,,,,,,,,,,,,,,,,,,,,,,,,,,,,,,,,,,,,,,,,,,,,,,,,,,,,,,,,,,,,,,,,133.0,57.0,70.0,70.0,57.0,133.0,1.0,1.3,320,-275,480,-275,678,-287,266.25408005714417,266.2541823387146,266.25776052474976,266.26845955848694,266.42216444015503,266.42216444015503,266.42216444015503,266.42216444015503,266.42216444015503,266.42216444015503,266.42216444015503,267.6196999549866,3,1.345383644104004,None,,,,,,,,,,,,,,,,,,192,6,2025-03-05_11h05.38.761,comp,2024.2.4,None,2025-03-05 11h05.51.723986 -0500,
113,113,0,filler_random,None,None,None,None,None,None,None,None,None,None,3,0.8012151718139648,None,,,,,0,0,0,0,0,113,113,165,267.6360251903534,,,,,,,,,,,,,,,,,,,,,,,,,,,,,,,,,,,,,,,,,,,,,,,,,,,,,,,,,,,,,,,,,,,,,,,,,,,,,,,,,,61.050155139490876,90.24139600563005,153.87159352312625,93.30215260098932,125.12248218426534,196.25896104518063,4.0,4.1,-188,-255,0,-4,241,-280,267.6213321685791,267.62144470214844,267.62461280822754,267.6360251903534,267.78184819221497,267.78184819221497,267.78184819221497,267.78184819221497,267.78184819221497,267.78184819221497,267.78184819221497,268.4526081085205,3,0.8012151718139648,None,,,,,,,,,,,,,,,,,,192,6,2025-03-05_11h05.38.761,comp,2024.2.4,None,2025-03-05 11h05.51.723986 -0500,
114,114,0,filler_square,None,None,None,None,None,None,None,None,None,None,3,0.8723316192626953,None,,,,,0,0,0,0,0,114,114,178,268.4769129753113,,,,,,,,,,,,,,,,,,,,,,,,,,,,,,,,,,,,,,,,,,,,,,,,,,,,,,,,,,,,,,,,,,,,,,,,,,,,,,,,,,134.69711698593403,91.41561412121499,164.49101736774816,121.99435242825139,191.88477716008998,191.88477716008998,1.0,1.2,-203,-4,0,14,253,6,268.4543831348419,268.45447611808777,268.45759868621826,268.4769129753113,268.62058329582214,268.62058329582214,268.62058329582214,268.62058329582214,268.62058329582214,268.62058329582214,268.62058329582214,269.3682885169983,3,0.8723316192626953,None,,,,,,,,,,,,,,,,,,192,6,2025-03-05_11h05.38.761,comp,2024.2.4,None,2025-03-05 11h05.51.723986 -0500,
115,115,0,filler_random,None,None,None,None,None,None,None,None,None,None,1,1.7841007709503174,None,,,,,0,0,0,0,0,115,115,146,269.38914799690247,,,,,,,,,,,,,,,,,,,,,,,,,,,,,,,,,,,,,,,,,,,,,,,,,,,,,,,,,,,,,,,,,,,,,,,,,,,,,,,,,,112.3099223302553,141.67405382725227,175.43517540615994,63.22133687406991,84.73734061884068,191.41431412051358,2.2,2.21,-198,-262,0,272,223,254,269.3700749874115,269.37019753456116,269.3738389015198,269.38914799690247,269.53672194480896,269.53672194480896,269.53672194480896,269.53672194480896,269.53672194480896,269.53672194480896,269.53672194480896,271.18953227996826,1,1.7841007709503174,None,,,,,,,,,,,,,,,,,,192,6,2025-03-05_11h05.38.761,comp,2024.2.4,None,2025-03-05 11h05.51.723986 -0500,
116,116,0,critical,dwh,35.0,2.1,lower,70.0,70.0,57.0,133.0,133.0,57.0,2,2.7758407592773438,None,,,,,0,0,0,0,0,116,116,28,271.2059199810028,,,,,,,,,,,,,,,,,,,,,,,,,,,,,,,,,,,,,,,,,,,,,,,,,,,,,,,,,,,,,,,,,,,,,,,,,,,,,,,,,,70.0,70.0,57.0,133.0,133.0,57.0,2.1,2.12,-198,-268,0,-261,191,280,271.1911654472351,271.19124126434326,271.1946909427643,271.2059199810028,271.3526568412781,271.3526568412781,271.3526568412781,271.3526568412781,271.3526568412781,271.3526568412781,271.3526568412781,274.00253343582153,2,2.7758407592773438,None,,,,,,,,,,,,,,,,,,192,6,2025-03-05_11h05.38.761,comp,2024.2.4,None,2025-03-05 11h05.51.723986 -0500,
117,117,0,catch,None,None,None,None,None,None,None,None,None,None,1,1.0139918327331543,None,,,,,0,0,0,0,0,117,117,124,274.0234794616699,,,,,,,,,,,,,,,,,,,,,,,,,,,,,,,,,,,,,,,,,,,,,,,,,,,,,,,,,,,,,,,,,,,,,,,,,,,,,,,,,,184,141,132,58,59,131,3.0,3.2,-196,-275,0,17,190,270,274.0045943260193,274.00466871261597,274.00818371772766,274.0234794616699,274.17217230796814,274.17217230796814,274.17217230796814,274.17217230796814,274.17217230796814,274.17217230796814,274.17217230796814,275.05483508110046,1,1.0139918327331543,None,,,,,,,,,,,,,,,,,,192,6,2025-03-05_11h05.38.761,comp,2024.2.4,None,2025-03-05 11h05.51.723986 -0500,
118,118,0,filler_square,None,None,None,None,None,None,None,None,None,None,1,0.8303050994873047,None,,,,,0,0,0,0,0,118,118,180,275.07161569595337,,,,,,,,,,,,,,,,,,,,,,,,,,,,,,,,,,,,,,,,,,,,,,,,,,,,,,,,,,,,,,,,,,,,,,,,,,,,,,,,,,189.43114622625868,189.43114622625868,176.9303806663108,160.41799446766098,148.18344809678695,183.2036471841311,1.0,1.3,209,-290,480,-256,748,-276,275.05677008628845,275.0568974018097,275.0602469444275,275.07161569595337,275.2103397846222,275.2103397846222,275.2103397846222,275.2103397846222,275.2103397846222,275.2103397846222,275.2103397846222,275.91059017181396,1,0.8303050994873047,None,,,,,,,,,,,,,,,,,,192,6,2025-03-05_11h05.38.761,comp,2024.2.4,None,2025-03-05 11h05.51.723986 -0500,
119,119,0,critical,whd,20.0,1.0,upper,125.0,200.0,200.0,125.0,141.0,141.0,2,0.7647075653076172,None,,,,,0,0,0,0,0,119,119,91,275.92863297462463,,,,,,,,,,,,,,,,,,,,,,,,,,,,,,,,,,,,,,,,,,,,,,,,,,,,,,,,,,,,,,,,,,,,,,,,,,,,,,,,,,125.0,200.0,200.0,125.0,141.0,141.0,1.0,1.2,-258,-17,0,8,229,7,275.9121160507202,275.912193775177,275.9156630039215,275.92863297462463,276.07263827323914,276.07263827323914,276.07263827323914,276.07263827323914,276.07263827323914,276.07263827323914,276.07263827323914,276.7075526714325,2,0.7647075653076172,None,,,,,,,,,,,,,,,,,,192,6,2025-03-05_11h05.38.761,comp,2024.2.4,None,2025-03-05 11h05.51.723986 -0500,
120,120,0,filler_square,None,None,None,None,None,None,None,None,None,None,2,0.7117183208465576,None,,,,,0,0,0,0,0,120,120,202,276.7256164550781,,,,,,,,,,,,,,,,,,,,,,,,,,,,,,,,,,,,,,,,,,,,,,,,,,,,,,,,,,,,,,,,,,,,,,,,,,,,,,,,,,73.86650554019778,130.80643964580588,147.97400984656736,147.97400984656736,115.08276123680582,107.25257726662758,3.0,3.1,-235,280,0,-5,224,-278,276.70965480804443,276.70973229408264,276.7132444381714,276.7256164550781,276.8739080429077,276.8739080429077,276.8739080429077,276.8739080429077,276.8739080429077,276.8739080429077,276.8739080429077,277.4416072368622,2,0.7117183208465576,None,,,,,,,,,,,,,,,,,,192,6,2025-03-05_11h05.38.761,comp,2024.2.4,None,2025-03-05 11h05.51.723986 -0500,
121,121,0,filler_random,None,None,None,None,None,None,None,None,None,None,3,1.0747110843658447,None,,,,,0,0,0,0,0,121,121,148,277.45881509780884,,,,,,,,,,,,,,,,,,,,,,,,,,,,,,,,,,,,,,,,,,,,,,,,,,,,,,,,,,,,,,,,,,,,,,,,,,,,,,,,,,114.5770938928085,185.2316465517027,172.91708007476166,70.23006383015502,183.82010360368386,131.3684233223764,1.0,1.3,256,-274,480,-259,677,-289,277.443505525589,277.44358563423157,277.44684958457947,277.45881509780884,277.6036424636841,277.6036424636841,277.6036424636841,277.6036424636841,277.6036424636841,277.6036424636841,277.6036424636841,278.5444791316986,3,1.0747110843658447,None,,,,,,,,,,,,,,,,,,192,6,2025-03-05_11h05.38.761,comp,2024.2.4,None,2025-03-05 11h05.51.723986 -0500,
122,122,0,critical,hwd,20.0,3.0,lower,133.0,57.0,57.0,133.0,78.0,78.0,2,0.7091019153594971,None,,,,,0,0,0,0,0,122,122,104,278.56095814704895,,,,,,,,,,,,,,,,,,,,,,,,,,,,,,,,,,,,,,,,,,,,,,,,,,,,,,,,,,,,,,,,,,,,,,,,,,,,,,,,,,133.0,57.0,57.0,133.0,78.0,78.0,3.0,3.1,-191,263,0,7,202,-267,278.54647040367126,278.5465507507324,278.5495374202728,278.56095814704895,278.70667839050293,278.70667839050293,278.70667839050293,278.70667839050293,278.70667839050293,278.70667839050293,278.70667839050293,279.2755649089813,2,0.7091019153594971,None,,,,,,,,,,,,,,,,,,192,6,2025-03-05_11h05.38.761,comp,2024.2.4,None,2025-03-05 11h05.51.723986 -0500,
123,123,0,critical,dwh,20.0,3.0,lower,78.0,78.0,57.0,133.0,133.0,57.0,1,1.545149564743042,None,,,,,0,0,0,0,0,123,123,68,279.2921288013458,,,,,,,,,,,,,,,,,,,,,,,,,,,,,,,,,,,,,,,,,,,,,,,,,,,,,,,,,,,,,,,,,,,,,,,,,,,,,,,,,,78.0,78.0,57.0,133.0,133.0,57.0,3.0,3.2,-202,-276,0,2,191,278,279.27723503112793,279.27731227874756,279.28098368644714,279.2921288013458,279.43885469436646,279.43885469436646,279.43885469436646,279.43885469436646,279.43885469436646,279.43885469436646,279.43885469436646,280.8560287952423,1,1.545149564743042,None,,,,,,,,,,,,,,,,,,192,6,2025-03-05_11h05.38.761,comp,2024.2.4,None,2025-03-05 11h05.51.723986 -0500,
124,124,0,filler_square,None,None,None,None,None,None,None,None,None,None,2,0.8372218608856201,None,,,,,0,0,0,0,0,124,124,200,280.87231850624084,,,,,,,,,,,,,,,,,,,,,,,,,,,,,,,,,,,,,,,,,,,,,,,,,,,,,,,,,,,,,,,,,,,,,,,,,,,,,,,,,,123.48043346818456,67.40947779411074,181.99822861465648,181.99822861465648,81.49184154296557,156.2642829789773,1.0,1.3,259,-256,480,-261,745,-257,280.8578555583954,280.85793375968933,280.8611888885498,280.87231850624084,281.01982712745667,281.01982712745667,281.01982712745667,281.01982712745667,281.01982712745667,281.01982712745667,281.01982712745667,281.7133524417877,2,0.8372218608856201,None,,,,,,,,,,,,,,,,,,192,6,2025-03-05_11h05.38.761,comp,2024.2.4,None,2025-03-05 11h05.51.723986 -0500,
125,125,0,critical,dwh,20.0,2.1,upper,141.0,141.0,125.0,200.0,200.0,125.0,2,0.8371748924255371,None,,,,,0,0,0,0,0,125,125,31,281.72862935066223,,,,,,,,,,,,,,,,,,,,,,,,,,,,,,,,,,,,,,,,,,,,,,,,,,,,,,,,,,,,,,,,,,,,,,,,,,,,,,,,,,141.0,141.0,125.0,200.0,200.0,125.0,2.1,2.11,-266,272,0,252,258,-273,281.71490359306335,281.71498012542725,281.71795320510864,281.72862935066223,281.8720989227295,281.8720989227295,281.8720989227295,281.8720989227295,281.8720989227295,281.8720989227295,281.8720989227295,282.575129032135,2,0.8371748924255371,None,,,,,,,,,,,,,,,,,,192,6,2025-03-05_11h05.38.761,comp,2024.2.4,None,2025-03-05 11h05.51.723986 -0500,
126,126,0,critical,dhw,35.0,1.0,lower,70.0,70.0,133.0,57.0,57.0,133.0,2,0.7669212818145752,None,,,,,0,0,0,0,0,126,126,48,282.59051990509033,,,,,,,,,,,,,,,,,,,,,,,,,,,,,,,,,,,,,,,,,,,,,,,,,,,,,,,,,,,,,,,,,,,,,,,,,,,,,,,,,,70.0,70.0,133.0,57.0,57.0,133.0,1.0,1.2,-160,-5,0,19,191,-11,282.57661843299866,282.57669615745544,282.57996344566345,282.59051990509033,282.7387709617615,282.7387709617615,282.7387709617615,282.7387709617615,282.7387709617615,282.7387709617615,282.7387709617615,283.36237263679504,2,0.7669212818145752,None,,,,,,,,,,,,,,,,,,192,6,2025-03-05_11h05.38.761,comp,2024.2.4,None,2025-03-05 11h05.51.723986 -0500,
127,127,0,critical,wdh,35.0,3.0,lower,57.0,133.0,70.0,70.0,133.0,57.0,3,1.0337677001953125,None,,,,,0,0,0,0,0,127,127,74,283.38067507743835,,,,,,,,,,,,,,,,,,,,,,,,,,,,,,,,,,,,,,,,,,,,,,,,,,,,,,,,,,,,,,,,,,,,,,,,,,,,,,,,,,57.0,133.0,70.0,70.0,133.0,57.0,3.0,3.1,-198,258,0,11,160,-273,283.36397528648376,283.364049911499,283.367529630661,283.38067507743835,283.52414631843567,283.52414631843567,283.52414631843567,283.52414631843567,283.52414631843567,283.52414631843567,283.52414631843567,284.4227533340454,3,1.0337677001953125,None,,,,,,,,,,,,,,,,,,192,6,2025-03-05_11h05.38.761,comp,2024.2.4,None,2025-03-05 11h05.51.723986 -0500,
128,128,0,critical,dwh,35.0,3.0,upper,127.0,127.0,125.0,200.0,200.0,125.0,2,0.6705367565155029,None,,,,,0,0,0,0,0,128,128,63,284.4393672943115,,,,,,,,,,,,,,,,,,,,,,,,,,,,,,,,,,,,,,,,,,,,,,,,,,,,,,,,,,,,,,,,,,,,,,,,,,,,,,,,,,127.0,127.0,125.0,200.0,200.0,125.0,3.0,3.2,-260,-285,0,17,258,286,284.4243288040161,284.42444014549255,284.42782640457153,284.4393672943115,284.58978366851807,284.58978366851807,284.58978366851807,284.58978366851807,284.58978366851807,284.58978366851807,284.58978366851807,285.11246061325073,2,0.6705367565155029,None,,,,,,,,,,,,,,,,,,192,6,2025-03-05_11h05.38.761,comp,2024.2.4,None,2025-03-05 11h05.51.723986 -0500,
129,129,0,critical,wdh,35.0,4.0,lower,57.0,133.0,70.0,70.0,133.0,57.0,2,0.9171452522277832,None,,,,,0,0,0,0,0,129,129,76,285.12814593315125,,,,,,,,,,,,,,,,,,,,,,,,,,,,,,,,,,,,,,,,,,,,,,,,,,,,,,,,,,,,,,,,,,,,,,,,,,,,,,,,,,57.0,133.0,70.0,70.0,133.0,57.0,4.0,4.1,-198,-260,0,-11,160,-255,285.1144847869873,285.1145646572113,285.1176116466522,285.12814593315125,285.27479577064514,285.27479577064514,285.27479577064514,285.27479577064514,285.27479577064514,285.27479577064514,285.27479577064514,286.05784940719604,2,0.9171452522277832,None,,,,,,,,,,,,,,,,,,192,6,2025-03-05_11h05.38.761,comp,2024.2.4,None,2025-03-05 11h05.51.723986 -0500,
130,130,0,critical,dwh,20.0,1.0,upper,141.0,141.0,125.0,200.0,200.0,125.0,3,0.7556569576263428,None,,,,,0,0,0,0,0,130,130,67,286.07372426986694,,,,,,,,,,,,,,,,,,,,,,,,,,,,,,,,,,,,,,,,,,,,,,,,,,,,,,,,,,,,,,,,,,,,,,,,,,,,,,,,,,141.0,141.0,125.0,200.0,200.0,125.0,1.0,1.1,-746,277,-480,263,-222,269,286.0593361854553,286.0594313144684,286.06252217292786,286.07372426986694,286.22773027420044,286.22773027420044,286.22773027420044,286.22773027420044,286.22773027420044,286.22773027420044,286.22773027420044,286.83913016319275,3,0.7556569576263428,None,,,,,,,,,,,,,,,,,,192,6,2025-03-05_11h05.38.761,comp,2024.2.4,None,2025-03-05 11h05.51.723986 -0500,
131,131,0,critical,dhw,35.0,1.0,upper,127.0,127.0,200.0,125.0,125.0,200.0,2,0.7332432270050049,None,,,,,0,0,0,0,0,131,131,49,286.856418132782,,,,,,,,,,,,,,,,,,,,,,,,,,,,,,,,,,,,,,,,,,,,,,,,,,,,,,,,,,,,,,,,,,,,,,,,,,,,,,,,,,127.0,127.0,200.0,125.0,125.0,200.0,1.0,1.1,-702,269,-480,262,-222,267,286.84076166152954,286.8408374786377,286.8442380428314,286.856418132782,286.99226236343384,286.99226236343384,286.99226236343384,286.99226236343384,286.99226236343384,286.99226236343384,286.99226236343384,287.5916826725006,2,0.7332432270050049,None,,,,,,,,,,,,,,,,,,192,6,2025-03-05_11h05.38.761,comp,2024.2.4,None,2025-03-05 11h05.51.723986 -0500,
132,132,0,critical,wdh,35.0,4.0,upper,125.0,200.0,127.0,127.0,200.0,125.0,3,0.908348798751831,None,,,,,0,0,0,0,0,132,132,77,287.60905504226685,,,,,,,,,,,,,,,,,,,,,,,,,,,,,,,,,,,,,,,,,,,,,,,,,,,,,,,,,,,,,,,,,,,,,,,,,,,,,,,,,,125.0,200.0,127.0,127.0,200.0,125.0,4.0,4.1,-260,-251,0,10,222,-277,287.5932376384735,287.5933156013489,287.5969455242157,287.60905504226685,287.76211309432983,287.76211309432983,287.76211309432983,287.76211309432983,287.76211309432983,287.76211309432983,287.76211309432983,288.53117537498474,3,0.908348798751831,None,,,,,,,,,,,,,,,,,,192,6,2025-03-05_11h05.38.761,comp,2024.2.4,None,2025-03-05 11h05.51.723986 -0500,
133,133,0,critical,hwd,20.0,1.0,upper,200.0,125.0,125.0,200.0,141.0,141.0,1,0.8910257816314697,None,,,,,0,0,0,0,0,133,133,103,288.54751682281494,,,,,,,,,,,,,,,,,,,,,,,,,,,,,,,,,,,,,,,,,,,,,,,,,,,,,,,,,,,,,,,,,,,,,,,,,,,,,,,,,,200.0,125.0,125.0,200.0,141.0,141.0,1.0,1.2,-258,7,0,10,266,-12,288.53281331062317,288.53289008140564,288.53625774383545,288.54751682281494,288.6942460536957,288.6942460536957,288.6942460536957,288.6942460536957,288.6942460536957,288.6942460536957,288.6942460536957,289.44382977485657,1,0.8910257816314697,None,,,,,,,,,,,,,,,,,,192,6,2025-03-05_11h05.38.761,comp,2024.2.4,None,2025-03-05 11h05.51.723986 -0500,
134,134,0,catch,None,None,None,None,None,None,None,None,None,None,1,0.6392958164215088,None,,,,,0,0,0,0,0,134,134,122,289.46266531944275,,,,,,,,,,,,,,,,,,,,,,,,,,,,,,,,,,,,,,,,,,,,,,,,,,,,,,,,,,,,,,,,,,,,,,,,,,,,,,,,,,160,165,73,117,88,102,1.0,1.2,-237,11,0,18,206,-5,289.44594287872314,289.44602036476135,289.4494364261627,289.46266531944275,289.60991954803467,289.60991954803467,289.60991954803467,289.60991954803467,289.60991954803467,289.60991954803467,289.60991954803467,290.10977029800415,1,0.6392958164215088,None,,,,,,,,,,,,,,,,,,192,6,2025-03-05_11h05.38.761,comp,2024.2.4,None,2025-03-05 11h05.51.723986 -0500,
135,135,0,critical,hdw,20.0,2.1,lower,133.0,57.0,78.0,78.0,57.0,133.0,1,1.0874829292297363,None,,,,,0,0,0,0,0,135,135,46,290.1259660720825,,,,,,,,,,,,,,,,,,,,,,,,,,,,,,,,,,,,,,,,,,,,,,,,,,,,,,,,,,,,,,,,,,,,,,,,,,,,,,,,,,133.0,57.0,78.0,78.0,57.0,133.0,2.1,2.11,-164,286,0,284,202,-253,290.1114544868469,290.111576795578,290.1152095794678,290.1259660720825,290.2767581939697,290.2767581939697,290.2767581939697,290.2767581939697,290.2767581939697,290.2767581939697,290.2767581939697,291.22661304473877,1,1.0874829292297363,None,,,,,,,,,,,,,,,,,,192,6,2025-03-05_11h05.38.761,comp,2024.2.4,None,2025-03-05 11h05.51.723986 -0500,
136,136,0,critical,wdh,35.0,1.0,lower,57.0,133.0,70.0,70.0,133.0,57.0,1,1.2826955318450928,None,,,,,0,0,0,0,0,136,136,72,291.24255990982056,,,,,,,,,,,,,,,,,,,,,,,,,,,,,,,,,,,,,,,,,,,,,,,,,,,,,,,,,,,,,,,,,,,,,,,,,,,,,,,,,,57.0,133.0,70.0,70.0,133.0,57.0,1.0,1.1,-678,260,-480,280,-320,265,291.2281496524811,291.22822642326355,291.2315239906311,291.24255990982056,291.3969314098358,291.3969314098358,291.3969314098358,291.3969314098358,291.3969314098358,291.3969314098358,291.3969314098358,292.52804589271545,1,1.2826955318450928,None,,,,,,,,,,,,,,,,,,192,6,2025-03-05_11h05.38.761,comp,2024.2.4,None,2025-03-05 11h05.51.723986 -0500,
137,137,0,critical,wdh,20.0,3.0,lower,57.0,133.0,78.0,78.0,133.0,57.0,3,0.7978334426879883,None,,,,,0,0,0,0,0,137,137,80,292.5441212654114,,,,,,,,,,,,,,,,,,,,,,,,,,,,,,,,,,,,,,,,,,,,,,,,,,,,,,,,,,,,,,,,,,,,,,,,,,,,,,,,,,57.0,133.0,78.0,78.0,133.0,57.0,3.0,3.1,-202,251,0,-9,164,-286,292.5296778678894,292.52975511550903,292.5333170890808,292.5441212654114,292.6955680847168,292.6955680847168,292.6955680847168,292.6955680847168,292.6955680847168,292.6955680847168,292.6955680847168,293.35046124458313,3,0.7978334426879883,None,,,,,,,,,,,,,,,,,,192,6,2025-03-05_11h05.38.761,comp,2024.2.4,None,2025-03-05 11h05.51.723986 -0500,
138,138,0,critical,hwd,20.0,2.1,lower,133.0,57.0,57.0,133.0,78.0,78.0,1,0.7971580028533936,None,,,,,0,0,0,0,0,138,138,18,293.36821269989014,,,,,,,,,,,,,,,,,,,,,,,,,,,,,,,,,,,,,,,,,,,,,,,,,,,,,,,,,,,,,,,,,,,,,,,,,,,,,,,,,,133.0,57.0,57.0,133.0,78.0,78.0,2.1,2.11,-191,284,0,267,202,-269,293.352011680603,293.35209012031555,293.3551871776581,293.36821269989014,293.5097804069519,293.5097804069519,293.5097804069519,293.5097804069519,293.5097804069519,293.5097804069519,293.5097804069519,294.18202114105225,1,0.7971580028533936,None,,,,,,,,,,,,,,,,,,192,6,2025-03-05_11h05.38.761,comp,2024.2.4,None,2025-03-05 11h05.51.723986 -0500,
139,139,0,critical,wdh,20.0,1.0,upper,125.0,200.0,141.0,141.0,200.0,125.0,3,0.8835420608520508,None,,,,,0,0,0,0,0,139,139,79,294.20176124572754,,,,,,,,,,,,,,,,,,,,,,,,,,,,,,,,,,,,,,,,,,,,,,,,,,,,,,,,,,,,,,,,,,,,,,,,,,,,,,,,,,125.0,200.0,141.0,141.0,200.0,125.0,1.0,1.1,-746,272,-480,258,-251,285,294.1837725639343,294.18389916419983,294.1872365474701,294.20176124572754,294.3447721004486,294.3447721004486,294.3447721004486,294.3447721004486,294.3447721004486,294.3447721004486,294.3447721004486,295.09495878219604,3,0.8835420608520508,None,,,,,,,,,,,,,,,,,,192,6,2025-03-05_11h05.38.761,comp,2024.2.4,None,2025-03-05 11h05.51.723986 -0500,
140,140,0,critical,dwh,35.0,2.1,upper,127.0,127.0,125.0,200.0,200.0,125.0,2,0.8063011169433594,None,,,,,0,0,0,0,0,140,140,5,295.11106514930725,,,,,,,,,,,,,,,,,,,,,,,,,,,,,,,,,,,,,,,,,,,,,,,,,,,,,,,,,,,,,,,,,,,,,,,,,,,,,,,,,,127.0,127.0,125.0,200.0,200.0,125.0,2.1,2.12,-260,-257,0,-289,258,278,295.09656381607056,295.0966625213623,295.1003029346466,295.11106514930725,295.261323928833,295.261323928833,295.261323928833,295.261323928833,295.261323928833,295.261323928833,295.261323928833,295.9337544441223,2,0.8063011169433594,None,,,,,,,,,,,,,,,,,,192,6,2025-03-05_11h05.38.761,comp,2024.2.4,None,2025-03-05 11h05.51.723986 -0500,
141,141,0,filler_random,None,None,None,None,None,None,None,None,None,None,1,0.7357783317565918,None,,,,,0,0,0,0,0,141,141,142,295.95016741752625,,,,,,,,,,,,,,,,,,,,,,,,,,,,,,,,,,,,,,,,,,,,,,,,,,,,,,,,,,,,,,,,,,,,,,,,,,,,,,,,,,157.60245148131804,185.8475757840901,128.04567261412595,134.41113280168832,118.61410166825078,96.40079510988309,2.2,2.21,-256,-264,0,252,211,252,295.93547344207764,295.93554878234863,295.9389269351959,295.95016741752625,296.0958595275879,296.0958595275879,296.0958595275879,296.0958595275879,296.0958595275879,296.0958595275879,296.0958595275879,296.695494890213,1,0.7357783317565918,None,,,,,,,,,,,,,,,,,,192,6,2025-03-05_11h05.38.761,comp,2024.2.4,None,2025-03-05 11h05.51.723986 -0500,
142,142,0,critical,wdh,20.0,4.0,upper,125.0,200.0,141.0,141.0,200.0,125.0,2,0.8945150375366211,None,,,,,0,0,0,0,0,142,142,83,296.71143770217896,,,,,,,,,,,,,,,,,,,,,,,,,,,,,,,,,,,,,,,,,,,,,,,,,,,,,,,,,,,,,,,,,,,,,,,,,,,,,,,,,,125.0,200.0,141.0,141.0,200.0,125.0,4.0,4.2,-266,4,0,-266,229,-9,296.69693756103516,296.6970160007477,296.70071840286255,296.71143770217896,296.862263917923,296.862263917923,296.862263917923,296.862263917923,296.862263917923,296.862263917923,296.862263917923,297.6122007369995,2,0.8945150375366211,None,,,,,,,,,,,,,,,,,,192,6,2025-03-05_11h05.38.761,comp,2024.2.4,None,2025-03-05 11h05.51.723986 -0500,
